counterbalancing_condition,instr_done_keyboard.keys,instr_done_touch.x,instr_done_touch.y,instr_done_touch.leftButton,instr_done_touch.midButton,instr_done_touch.rightButton,instr_done_touch.clicked_name,instruction_pages.thisRepN,instruction_pages.thisTrialN,instruction_pages.thisN,instruction_pages.thisIndex,instruction_pages.ran,pageN,phase,instruct_text,has_image,instruct_image,participant,date,expName,psychopyVersion,OS,frameRate,response.keys,response.corr,touch_resp.x,touch_resp.y,touch_resp.leftButton,touch_resp.midButton,touch_resp.rightButton,touch_resp.time,touch_resp.clicked_name,rt,corr,practice_trials.thisRepN,practice_trials.thisTrialN,practice_trials.thisN,practice_trials.thisIndex,practice_trials.ran,TrialID,StimulusType,Condition,PrimeDuration,Prime,Target,corrAns,response.rt,end_of_practice_trials_pages.thisRepN,end_of_practice_trials_pages.thisTrialN,end_of_practice_trials_pages.thisN,end_of_practice_trials_pages.thisIndex,end_of_practice_trials_pages.ran,break_done_touch.x,break_done_touch.y,break_done_touch.leftButton,break_done_touch.midButton,break_done_touch.rightButton,break_done_keyboard.keys,trials.thisRepN,trials.thisTrialN,trials.thisN,trials.thisIndex,trials.ran,break_done_keyboard.rt
0,,-0.03515625,-0.403645833,1,0,0,instr_done_button,0,0,0,0,1,1,instructions,"INSTRUCTIONS
At the start of each trial, look at the hash marks (######) in the center of the screen. After a moment, a string of letters will appear. Your task is to indicate if the letter string forms a word or not (i.e., if it is a nonword). For example, AUTHOR is a word while AUTHON is a nonword.

Press the space bar or touch the button below to continue.",0,,5ed29ca1126970098589f622,2020-08-10_18h08.44.146,lexical_decision_task_MP,2020.1.3,Win32,60,,,,,,,,,,,,,,,,,,,,,,,,,,,,,,,,,,,,,,,,,
,,-0.03515625,-0.403645833,1,0,0,instr_done_button,0,1,1,1,1,2,instructions,"If your device has a keyboard, press the 'Z' key for nonwords and the 'M' key for words.





Press the space bar or touch the button below to continue.",1,keyboard-example.gif,5ed29ca1126970098589f622,2020-08-10_18h08.44.146,lexical_decision_task_MP,2020.1.3,Win32,60,,,,,,,,,,,,,,,,,,,,,,,,,,,,,,,,,,,,,,,,,
,,-0.03515625,-0.403645833,1,0,0,instr_done_button,0,2,2,2,1,3,instructions,"If you are using a touchscreen only device, use the buttons on the screen. Do not use the mouse.





Press the space bar or touch the button below to continue.",1,touchscreen-example.gif,5ed29ca1126970098589f622,2020-08-10_18h08.44.146,lexical_decision_task_MP,2020.1.3,Win32,60,,,,,,,,,,,,,,,,,,,,,,,,,,,,,,,,,,,,,,,,,
,,-0.03515625,-0.403645833,1,0,0,instr_done_button,0,3,3,3,1,4,instructions,"It is very important that you respond as quickly and accurately as possible, as each letter string will only be on the screen for two seconds. If you do not respond within this time, the message 'Too slow!' will be displayed and the experiment will progress to the next letter string. The first 20 trials will be practice trials and you will receive feedback on your answers. 

Press the space bar or touch the button below to start the practice trials.",0,,5ed29ca1126970098589f622,2020-08-10_18h08.44.146,lexical_decision_task_MP,2020.1.3,Win32,60,,,,,,,,,,,,,,,,,,,,,,,,,,,,,,,,,,,,,,,,,
,,,,,,,,,,,,,,,,,,5ed29ca1126970098589f622,2020-08-10_18h08.44.146,lexical_decision_task_MP,2020.1.3,Win32,60,,0,,,,,,,,,-1,0,0,0,9,1,1010,NW,"ID",33,fariny,FARINY,z,,,,,,,,,,,,,,,,,,
,,,,,,,,,,,,,,,,,,5ed29ca1126970098589f622,2020-08-10_18h08.44.146,lexical_decision_task_MP,2020.1.3,Win32,60,,0,,,,,,,,,-1,0,1,1,0,1,1001,WORD,"ID",33,utopia,UTOPIA,m,,,,,,,,,,,,,,,,,,
,,,,,,,,,,,,,,,,,,5ed29ca1126970098589f622,2020-08-10_18h08.44.146,lexical_decision_task_MP,2020.1.3,Win32,60,z,0,,,,,,,,1.49284,0,0,2,2,2,1,1003,WORD,"ID",50,almond,ALMOND,m,1.49284,,,,,,,,,,,,,,,,,
,,,,,,,,,,,,,,,,,,5ed29ca1126970098589f622,2020-08-10_18h08.44.146,lexical_decision_task_MP,2020.1.3,Win32,60,m,1,,,,,,,,0.349445,1,0,3,3,7,1,1008,WORD,UN,50,hurdle,VOLUME,m,0.349445,,,,,,,,,,,,,,,,,
,,,,,,,,,,,,,,,,,,5ed29ca1126970098589f622,2020-08-10_18h08.44.146,lexical_decision_task_MP,2020.1.3,Win32,60,m,0,,,,,,,,0.440205,0,0,4,4,14,1,1015,NW,UN,50,miaber,THRALE,z,0.440205,,,,,,,,,,,,,,,,,
,,,,,,,,,,,,,,,,,,5ed29ca1126970098589f622,2020-08-10_18h08.44.146,lexical_decision_task_MP,2020.1.3,Win32,60,z,0,,,,,,,,0.268705,0,0,5,5,5,1,1006,WORD,UN,33,frenzy,OBTAIN,m,0.268705,,,,,,,,,,,,,,,,,
,,,,,,,,,,,,,,,,,,5ed29ca1126970098589f622,2020-08-10_18h08.44.146,lexical_decision_task_MP,2020.1.3,Win32,60,z,0,,,,,,,,0.35693,0,0,6,6,1,1,1002,WORD,"ID",33,adjust,ADJUST,m,0.35693,,,,,,,,,,,,,,,,,
,,,,,,,,,,,,,,,,,,5ed29ca1126970098589f622,2020-08-10_18h08.44.146,lexical_decision_task_MP,2020.1.3,Win32,60,z,1,,,,,,,,1.198635,1,0,7,7,11,1,1012,NW,"ID",50,rashet,RASHET,z,1.198635,,,,,,,,,,,,,,,,,
,,,,,,,,,,,,,,,,,,5ed29ca1126970098589f622,2020-08-10_18h08.44.146,lexical_decision_task_MP,2020.1.3,Win32,60,z,1,,,,,,,,0.451135,1,0,8,8,13,1,1014,NW,UN,33,winfer,ROUPET,z,0.451135,,,,,,,,,,,,,,,,,
,,,,,,,,,,,,,,,,,,5ed29ca1126970098589f622,2020-08-10_18h08.44.146,lexical_decision_task_MP,2020.1.3,Win32,60,z,0,,,,,,,,0.313915,0,0,9,9,4,1,1005,WORD,UN,33,abound,SQUEAK,m,0.313915,,,,,,,,,,,,,,,,,
,,,,,,,,,,,,,,,,,,5ed29ca1126970098589f622,2020-08-10_18h08.44.146,lexical_decision_task_MP,2020.1.3,Win32,60,m,1,,,,,,,,0.31739,1,0,10,10,6,1,1007,WORD,UN,50,tropic,ZOMBIE,m,0.31739,,,,,,,,,,,,,,,,,
,,,,,,,,,,,,,,,,,,5ed29ca1126970098589f622,2020-08-10_18h08.44.146,lexical_decision_task_MP,2020.1.3,Win32,60,m,0,,,,,,,,0.29867,0,0,11,11,15,1,1016,NW,UN,50,mushed,WHAISE,z,0.29867,,,,,,,,,,,,,,,,,
,,,,,,,,,,,,,,,,,,5ed29ca1126970098589f622,2020-08-10_18h08.44.146,lexical_decision_task_MP,2020.1.3,Win32,60,m,0,,,,,,,,0.434305,0,0,12,12,12,1,1013,NW,UN,33,adveil,SPRINY,z,0.434305,,,,,,,,,,,,,,,,,
,,,,,,,,,,,,,,,,,,5ed29ca1126970098589f622,2020-08-10_18h08.44.146,lexical_decision_task_MP,2020.1.3,Win32,60,z,1,,,,,,,,0.290665,1,0,13,13,8,1,1009,NW,"ID",33,aslert,ASLERT,z,0.290665,,,,,,,,,,,,,,,,,
,,,,,,,,,,,,,,,,,,5ed29ca1126970098589f622,2020-08-10_18h08.44.146,lexical_decision_task_MP,2020.1.3,Win32,60,m,1,,,,,,,,0.549035,1,0,14,14,3,1,1004,WORD,"ID",50,matrix,MATRIX,m,0.549035,,,,,,,,,,,,,,,,,
,,,,,,,,,,,,,,,,,,5ed29ca1126970098589f622,2020-08-10_18h08.44.146,lexical_decision_task_MP,2020.1.3,Win32,60,m,0,,,,,,,,0.649775,0,0,15,15,10,1,1011,NW,"ID",50,inlade,INLADE,z,0.649775,,,,,,,,,,,,,,,,,
,,-0.03515625,-0.403645833,1,0,0,instr_done_button,,,,,,1,end_of_practice,"You have completed the practice trials. During the experimental trials, you will not receive feedback, but it is very important that you respond as quickly and accurately as possible. 
Before you begin, please ensure that you are in a comfortable and quiet location and will not be disturbed for about 15 minutes, as we cannot use your data if you do not complete all the trials. 
There will be opportunities to take breaks at regular intervals during the experiment. When you are ready to start the experimental trials, please press space or touch the button below.",,,5ed29ca1126970098589f622,2020-08-10_18h08.44.146,lexical_decision_task_MP,2020.1.3,Win32,60,,,,,,,,,,,,,,,,,,,,,,,,,0,0,0,0,1,,,,,,,,,,,,
,,,,,,,,,,,,,,,,,,5ed29ca1126970098589f622,2020-08-10_18h08.44.146,lexical_decision_task_MP,2020.1.3,Win32,60,,0,,,,,,,,0.649775,-1,,,,,,11,WORD,"ID",50,cruise,CRUISE,m,,,,,,,-0.03515625,-0.403645833,0,0,0,,0,0,0,70,1,
,,,,,,,,,,,,,,,,,,5ed29ca1126970098589f622,2020-08-10_18h08.44.146,lexical_decision_task_MP,2020.1.3,Win32,60,m,0,,,,,,,,1.2037,0,,,,,,288,NW,"ID",50,yaceup,YACEUP,z,1.2037,,,,,,-0.03515625,-0.403645833,0,0,0,,0,1,1,347,1,
,,,,,,,,,,,,,,,,,,5ed29ca1126970098589f622,2020-08-10_18h08.44.146,lexical_decision_task_MP,2020.1.3,Win32,60,m,1,,,,,,,,0.86873,1,,,,,,136,WORD,UN,50,finger,BLEACH,m,0.86873,,,,,,-0.03515625,-0.403645833,0,0,0,,0,2,2,195,1,
,,,,,,,,,,,,,,,,,,5ed29ca1126970098589f622,2020-08-10_18h08.44.146,lexical_decision_task_MP,2020.1.3,Win32,60,m,1,,,,,,,,1.205995,1,,,,,,105,WORD,UN,33,ransom,NUMBER,m,1.205995,,,,,,-0.03515625,-0.403645833,0,0,0,,0,3,3,164,1,
,,,,,,,,,,,,,,,,,,5ed29ca1126970098589f622,2020-08-10_18h08.44.146,lexical_decision_task_MP,2020.1.3,Win32,60,m,1,,,,,,,,0.69836,1,,,,,,1,WORD,"ID",50,fright,FRIGHT,m,0.69836,,,,,,-0.03515625,-0.403645833,0,0,0,,0,4,4,60,1,
,,,,,,,,,,,,,,,,,,5ed29ca1126970098589f622,2020-08-10_18h08.44.146,lexical_decision_task_MP,2020.1.3,Win32,60,m,0,,,,,,,,0.284725,0,,,,,,348,NW,UN,33,asylen,DUMPLE,z,0.284725,,,,,,-0.03515625,-0.403645833,0,0,0,,0,5,5,407,1,
,,,,,,,,,,,,,,,,,,5ed29ca1126970098589f622,2020-08-10_18h08.44.146,lexical_decision_task_MP,2020.1.3,Win32,60,z,1,,,,,,,,0.3183,1,,,,,,349,NW,UN,33,nagurs,ASYLEN,z,0.3183,,,,,,-0.03515625,-0.403645833,0,0,0,,0,6,6,408,1,
,,,,,,,,,,,,,,,,,,5ed29ca1126970098589f622,2020-08-10_18h08.44.146,lexical_decision_task_MP,2020.1.3,Win32,60,z,0,,,,,,,,0.070045,0,,,,,,147,WORD,UN,50,custom,GARLIC,m,0.070045,,,,,,-0.03515625,-0.403645833,0,0,0,,0,7,7,206,1,
,,,,,,,,,,,,,,,,,,5ed29ca1126970098589f622,2020-08-10_18h08.44.146,lexical_decision_task_MP,2020.1.3,Win32,60,z,1,,,,,,,,0.065375,1,,,,,,413,NW,UN,50,serbol,EQUATS,z,0.065375,,,,,,-0.03515625,-0.403645833,0,0,0,,0,8,8,472,1,
,,,,,,,,,,,,,,,,,,5ed29ca1126970098589f622,2020-08-10_18h08.44.146,lexical_decision_task_MP,2020.1.3,Win32,60,z,1,,,,,,,,0.34917,1,,,,,,250,NW,"ID",50,milted,MILTED,z,0.34917,,,,,,-0.03515625,-0.403645833,0,0,0,,0,9,9,309,1,
,,,,,,,,,,,,,,,,,,5ed29ca1126970098589f622,2020-08-10_18h08.44.146,lexical_decision_task_MP,2020.1.3,Win32,60,z,0,,,,,,,,0.018605,0,,,,,,65,WORD,UN,33,gospel,SYMBOL,m,0.018605,,,,,,-0.03515625,-0.403645833,0,0,0,,0,10,10,124,1,
,,,,,,,,,,,,,,,,,,5ed29ca1126970098589f622,2020-08-10_18h08.44.146,lexical_decision_task_MP,2020.1.3,Win32,60,z,1,,,,,,,,0.03353,1,,,,,,293,NW,"ID",50,swance,SWANCE,z,0.03353,,,,,,-0.03515625,-0.403645833,0,0,0,,0,11,11,352,1,
,,,,,,,,,,,,,,,,,,5ed29ca1126970098589f622,2020-08-10_18h08.44.146,lexical_decision_task_MP,2020.1.3,Win32,60,m,1,,,,,,,,0.28844,1,,,,,,146,WORD,UN,50,garlic,COUPLE,m,0.28844,,,,,,-0.03515625,-0.403645833,0,0,0,,0,12,12,205,1,
,,,,,,,,,,,,,,,,,,5ed29ca1126970098589f622,2020-08-10_18h08.44.146,lexical_decision_task_MP,2020.1.3,Win32,60,z,0,,,,,,,,0.02012,0,,,,,,129,WORD,UN,50,stupid,MARVEL,m,0.02012,,,,,,-0.03515625,-0.403645833,0,0,0,,0,13,13,188,1,
,,,,,,,,,,,,,,,,,,5ed29ca1126970098589f622,2020-08-10_18h08.44.146,lexical_decision_task_MP,2020.1.3,Win32,60,m,0,,,,,,,,0.39171,0,,,,,,313,NW,UN,33,sprine,PAURSE,z,0.39171,,,,,,-0.03515625,-0.403645833,0,0,0,,0,14,14,372,1,
,,,,,,,,,,,,,,,,,,5ed29ca1126970098589f622,2020-08-10_18h08.44.146,lexical_decision_task_MP,2020.1.3,Win32,60,m,0,,,,,,,,0.53574,0,,,,,,338,NW,UN,33,fachow,WREASH,z,0.53574,,,,,,-0.03515625,-0.403645833,0,0,0,,0,15,15,397,1,
,,,,,,,,,,,,,,,,,,5ed29ca1126970098589f622,2020-08-10_18h08.44.146,lexical_decision_task_MP,2020.1.3,Win32,60,,0,0.533854167,-0.313802083,1,0,0,1.36568,button_right,1.36568,1,,,,,,196,WORD,"ID",33,credit,CREDIT,m,,,,,,,0.533854167,-0.313802083,1,0,0,,0,16,16,15,1,
,,,,,,,,,,,,,,,,,,5ed29ca1126970098589f622,2020-08-10_18h08.44.146,lexical_decision_task_MP,2020.1.3,Win32,60,,0,-0.514322917,-0.213541667,1,0,0,0.5152,button_left,0.5152,0,,,,,,133,WORD,UN,50,staple,CHROME,m,,,,,,,-0.514322917,-0.213541667,1,0,0,,0,17,17,192,1,
,,,,,,,,,,,,,,,,,,5ed29ca1126970098589f622,2020-08-10_18h08.44.146,lexical_decision_task_MP,2020.1.3,Win32,60,,0,,,,,,,,0.5152,-1,,,,,,480,NW,"ID",33,robuly,ROBULY,z,,,,,,,-0.076822917,-0.303385417,0,0,0,,0,18,18,299,1,
,,,,,,,,,,,,,,,,,,5ed29ca1126970098589f622,2020-08-10_18h08.44.146,lexical_decision_task_MP,2020.1.3,Win32,60,z,1,,,,,,,,0.25895,1,,,,,,373,NW,UN,50,sliant,BIGENT,z,0.25895,,,,,,-0.076822917,-0.303385417,0,0,0,,0,19,19,432,1,
,,,,,,,,,,,,,,,,,,5ed29ca1126970098589f622,2020-08-10_18h08.44.146,lexical_decision_task_MP,2020.1.3,Win32,60,m,1,,,,,,,,0.28517,1,,,,,,176,WORD,UN,50,advent,STRIFE,m,0.28517,,,,,,-0.076822917,-0.303385417,0,0,0,,0,20,20,235,1,
,,,,,,,,,,,,,,,,,,5ed29ca1126970098589f622,2020-08-10_18h08.44.146,lexical_decision_task_MP,2020.1.3,Win32,60,m,1,,,,,,,,0.14968,1,,,,,,57,WORD,"ID",50,change,CHANGE,m,0.14968,,,,,,-0.076822917,-0.303385417,0,0,0,,0,21,21,116,1,
,,,,,,,,,,,,,,,,,,5ed29ca1126970098589f622,2020-08-10_18h08.44.146,lexical_decision_task_MP,2020.1.3,Win32,60,m,1,,,,,,,,0.232095,1,,,,,,168,WORD,UN,50,genius,ANSWER,m,0.232095,,,,,,-0.076822917,-0.303385417,0,0,0,,0,22,22,227,1,
,,,,,,,,,,,,,,,,,,5ed29ca1126970098589f622,2020-08-10_18h08.44.146,lexical_decision_task_MP,2020.1.3,Win32,60,m,1,,,,,,,,0.418255,1,,,,,,15,WORD,"ID",50,amount,AMOUNT,m,0.418255,,,,,,-0.076822917,-0.303385417,0,0,0,,0,23,23,74,1,
,,,,,,,,,,,,,,,,,,5ed29ca1126970098589f622,2020-08-10_18h08.44.146,lexical_decision_task_MP,2020.1.3,Win32,60,z,1,,,,,,,,0.434345,1,,,,,,361,NW,UN,50,tireau,PAUCHE,z,0.434345,,,,,,-0.076822917,-0.303385417,0,0,0,,0,24,24,420,1,
,,,,,,,,,,,,,,,,,,5ed29ca1126970098589f622,2020-08-10_18h08.44.146,lexical_decision_task_MP,2020.1.3,Win32,60,m,1,,,,,,,,0.204235,1,,,,,,71,WORD,UN,33,bright,GARDEN,m,0.204235,,,,,,-0.076822917,-0.303385417,0,0,0,,0,25,25,130,1,
,,,,,,,,,,,,,,,,,,5ed29ca1126970098589f622,2020-08-10_18h08.44.146,lexical_decision_task_MP,2020.1.3,Win32,60,z,0,,,,,,,,0.34723,0,,,,,,149,WORD,UN,50,random,INVADE,m,0.34723,,,,,,-0.076822917,-0.303385417,0,0,0,,0,26,26,208,1,
,,,,,,,,,,,,,,,,,,5ed29ca1126970098589f622,2020-08-10_18h08.44.146,lexical_decision_task_MP,2020.1.3,Win32,60,m,0,,,,,,,,0.18455,0,,,,,,294,NW,"ID",50,inhort,INHORT,z,0.18455,,,,,,-0.076822917,-0.303385417,0,0,0,,0,27,27,353,1,
,,,,,,,,,,,,,,,,,,5ed29ca1126970098589f622,2020-08-10_18h08.44.146,lexical_decision_task_MP,2020.1.3,Win32,60,z,0,,,,,,,,0.16872,0,,,,,,7,WORD,"ID",50,anchor,ANCHOR,m,0.16872,,,,,,-0.076822917,-0.303385417,0,0,0,,0,28,28,66,1,
,,,,,,,,,,,,,,,,,,5ed29ca1126970098589f622,2020-08-10_18h08.44.146,lexical_decision_task_MP,2020.1.3,Win32,60,m,1,,,,,,,,0.666385,1,,,,,,19,WORD,"ID",50,patron,PATRON,m,0.666385,,,,,,-0.076822917,-0.303385417,0,0,0,,0,29,29,78,1,
,,,,,,,,,,,,,,,,,,5ed29ca1126970098589f622,2020-08-10_18h08.44.146,lexical_decision_task_MP,2020.1.3,Win32,60,m,1,,,,,,,,0.287775,1,,,,,,240,WORD,"ID",33,forest,FOREST,m,0.287775,,,,,,-0.076822917,-0.303385417,0,0,0,,0,30,30,59,1,
,,,,,,,,,,,,,,,,,,5ed29ca1126970098589f622,2020-08-10_18h08.44.146,lexical_decision_task_MP,2020.1.3,Win32,60,m,1,,,,,,,,0.287305,1,,,,,,215,WORD,"ID",33,phobia,PHOBIA,m,0.287305,,,,,,-0.076822917,-0.303385417,0,0,0,,0,31,31,34,1,
,,,,,,,,,,,,,,,,,,5ed29ca1126970098589f622,2020-08-10_18h08.44.146,lexical_decision_task_MP,2020.1.3,Win32,60,m,0,,,,,,,,0.40138,0,,,,,,449,NW,"ID",33,brunge,BRUNGE,z,0.40138,,,,,,-0.076822917,-0.303385417,0,0,0,,0,32,32,268,1,
,,,,,,,,,,,,,,,,,,5ed29ca1126970098589f622,2020-08-10_18h08.44.146,lexical_decision_task_MP,2020.1.3,Win32,60,z,1,,,,,,,,0.3526,1,,,,,,248,NW,"ID",50,strole,STROLE,z,0.3526,,,,,,-0.076822917,-0.303385417,0,0,0,,0,33,33,307,1,
,,,,,,,,,,,,,,,,,,5ed29ca1126970098589f622,2020-08-10_18h08.44.146,lexical_decision_task_MP,2020.1.3,Win32,60,m,1,,,,,,,,0.23292,1,,,,,,89,WORD,UN,33,relish,PERMIT,m,0.23292,,,,,,-0.076822917,-0.303385417,0,0,0,,0,34,34,148,1,
,,,,,,,,,,,,,,,,,,5ed29ca1126970098589f622,2020-08-10_18h08.44.146,lexical_decision_task_MP,2020.1.3,Win32,60,z,1,,,,,,,,0.481015,1,,,,,,409,NW,UN,50,tunory,ELOPIA,z,0.481015,,,,,,-0.076822917,-0.303385417,0,0,0,,0,35,35,468,1,
,,,,,,,,,,,,,,,,,,5ed29ca1126970098589f622,2020-08-10_18h08.44.146,lexical_decision_task_MP,2020.1.3,Win32,60,m,0,,,,,,,,0.269965,0,,,,,,318,NW,UN,33,zomber,REAGLY,z,0.269965,,,,,,-0.076822917,-0.303385417,0,0,0,,0,36,36,377,1,
,,,,,,,,,,,,,,,,,,5ed29ca1126970098589f622,2020-08-10_18h08.44.146,lexical_decision_task_MP,2020.1.3,Win32,60,z,1,,,,,,,,0.302375,1,,,,,,442,NW,"ID",33,aboune,ABOUNE,z,0.302375,,,,,,-0.076822917,-0.303385417,0,0,0,,0,37,37,261,1,
,,,,,,,,,,,,,,,,,,5ed29ca1126970098589f622,2020-08-10_18h08.44.146,lexical_decision_task_MP,2020.1.3,Win32,60,m,1,,,,,,,,0.251765,1,,,,,,190,WORD,"ID",33,backup,BACKUP,m,0.251765,,,,,,-0.076822917,-0.303385417,0,0,0,,0,38,38,9,1,
,,,,,,,,,,,,,,,,,,5ed29ca1126970098589f622,2020-08-10_18h08.44.146,lexical_decision_task_MP,2020.1.3,Win32,60,m,1,,,,,,,,0.29915,1,,,,,,26,WORD,"ID",50,sprint,SPRINT,m,0.29915,,,,,,-0.076822917,-0.303385417,0,0,0,,0,39,39,85,1,
,,,,,,,,,,,,,,,,,,5ed29ca1126970098589f622,2020-08-10_18h08.44.146,lexical_decision_task_MP,2020.1.3,Win32,60,m,0,,,,,,,,0.83317,0,,,,,,459,NW,"ID",33,bafent,BAFENT,z,0.83317,,,,,,-0.076822917,-0.303385417,0,0,0,,0,40,40,278,1,
,,,,,,,,,,,,,,,,,,5ed29ca1126970098589f622,2020-08-10_18h08.44.146,lexical_decision_task_MP,2020.1.3,Win32,60,z,1,,,,,,,,0.44925,1,,,,,,375,NW,UN,50,iguare,YORQUE,z,0.44925,,,,,,-0.076822917,-0.303385417,0,0,0,,0,41,41,434,1,
,,,,,,,,,,,,,,,,,,5ed29ca1126970098589f622,2020-08-10_18h08.44.146,lexical_decision_task_MP,2020.1.3,Win32,60,m,0,,,,,,,,0.42118,0,,,,,,244,NW,"ID",50,eatric,EATRIC,z,0.42118,,,,,,-0.076822917,-0.303385417,0,0,0,,0,42,42,303,1,
,,,,,,,,,,,,,,,,,,5ed29ca1126970098589f622,2020-08-10_18h08.44.146,lexical_decision_task_MP,2020.1.3,Win32,60,z,1,,,,,,,,0.2583,1,,,,,,437,NW,"ID",33,snapel,SNAPEL,z,0.2583,,,,,,-0.076822917,-0.303385417,0,0,0,,0,43,43,256,1,
,,,,,,,,,,,,,,,,,,5ed29ca1126970098589f622,2020-08-10_18h08.44.146,lexical_decision_task_MP,2020.1.3,Win32,60,m,0,,,,,,,,0.102605,0,,,,,,351,NW,UN,33,tringe,TIESCH,z,0.102605,,,,,,-0.076822917,-0.303385417,0,0,0,,0,44,44,410,1,
,,,,,,,,,,,,,,,,,,5ed29ca1126970098589f622,2020-08-10_18h08.44.146,lexical_decision_task_MP,2020.1.3,Win32,60,z,0,,,,,,,,0.70098,0,,,,,,139,WORD,UN,50,prince,DEBRIS,m,0.70098,,,,,,-0.076822917,-0.303385417,0,0,0,,0,45,45,198,1,
,,,,,,,,,,,,,,,,,,5ed29ca1126970098589f622,2020-08-10_18h08.44.146,lexical_decision_task_MP,2020.1.3,Win32,60,m,0,,,,,,,,0.270305,0,,,,,,478,NW,"ID",33,acrise,ACRISE,z,0.270305,,,,,,-0.076822917,-0.303385417,0,0,0,,0,46,46,297,1,
,,,,,,,,,,,,,,,,,,5ed29ca1126970098589f622,2020-08-10_18h08.44.146,lexical_decision_task_MP,2020.1.3,Win32,60,z,1,,,,,,,,0.070255,1,,,,,,367,NW,UN,50,hornal,SLIQUE,z,0.070255,,,,,,-0.076822917,-0.303385417,0,0,0,,0,47,47,426,1,
,,,,,,,,,,,,,,,,,,5ed29ca1126970098589f622,2020-08-10_18h08.44.146,lexical_decision_task_MP,2020.1.3,Win32,60,z,0,,,,,,,,0.16568,0,,,,,,80,WORD,UN,33,friend,FAMILY,m,0.16568,,,,,,-0.076822917,-0.303385417,0,0,0,,0,48,48,139,1,
,,,,,,,,,,,,,,,,,,5ed29ca1126970098589f622,2020-08-10_18h08.44.146,lexical_decision_task_MP,2020.1.3,Win32,60,m,0,,,,,,,,0.45097,0,,,,,,246,NW,"ID",50,piaton,PIATON,z,0.45097,,,,,,-0.076822917,-0.303385417,0,0,0,,0,49,49,305,1,
,,,,,,,,,,,,,,,,,,5ed29ca1126970098589f622,2020-08-10_18h08.44.146,lexical_decision_task_MP,2020.1.3,Win32,60,m,0,,,,,,,,0.252205,0,,,,,,342,NW,UN,33,aimosy,RANDOW,z,0.252205,,,,,,-0.076822917,-0.303385417,0,0,0,,0,50,50,401,1,
,,,,,,,,,,,,,,,,,,5ed29ca1126970098589f622,2020-08-10_18h08.44.146,lexical_decision_task_MP,2020.1.3,Win32,60,m,0,,,,,,,,0.28414,0,,,,,,350,NW,UN,33,tiesch,NAGURS,z,0.28414,,,,,,-0.076822917,-0.303385417,0,0,0,,0,51,51,409,1,
,,,,,,,,,,,,,,,,,,5ed29ca1126970098589f622,2020-08-10_18h08.44.146,lexical_decision_task_MP,2020.1.3,Win32,60,m,0,,,,,,,,0.370805,0,,,,,,340,NW,UN,33,myrtie,FIATCH,z,0.370805,,,,,,-0.076822917,-0.303385417,0,0,0,,0,52,52,399,1,
,,,,,,,,,,,,,,,,,,5ed29ca1126970098589f622,2020-08-10_18h08.44.146,lexical_decision_task_MP,2020.1.3,Win32,60,z,0,,,,,,,,0.201825,0,,,,,,171,WORD,UN,50,patrol,DEPART,m,0.201825,,,,,,-0.076822917,-0.303385417,0,0,0,,0,53,53,230,1,
,,,,,,,,,,,,,,,,,,5ed29ca1126970098589f622,2020-08-10_18h08.44.146,lexical_decision_task_MP,2020.1.3,Win32,60,m,0,,,,,,,,0.349585,0,,,,,,411,NW,UN,50,jiluer,ORCHIN,z,0.349585,,,,,,-0.076822917,-0.303385417,0,0,0,,0,54,54,470,1,
,,,,,,,,,,,,,,,,,,5ed29ca1126970098589f622,2020-08-10_18h08.44.146,lexical_decision_task_MP,2020.1.3,Win32,60,z,0,,,,,,,,0.13452,0,,,,,,169,WORD,UN,50,pounce,GENIUS,m,0.13452,,,,,,-0.076822917,-0.303385417,0,0,0,,0,55,55,228,1,
,,,,,,,,,,,,,,,,,,5ed29ca1126970098589f622,2020-08-10_18h08.44.146,lexical_decision_task_MP,2020.1.3,Win32,60,m,1,,,,,,,,0.066915,1,,,,,,30,WORD,"ID",50,orient,ORIENT,m,0.066915,,,,,,-0.076822917,-0.303385417,0,0,0,,0,56,56,89,1,
,,,,,,,,,,,,,,,,,,5ed29ca1126970098589f622,2020-08-10_18h08.44.146,lexical_decision_task_MP,2020.1.3,Win32,60,z,0,,,,,,,,0.03757,0,,,,,,94,WORD,UN,33,thread,TRAVEL,m,0.03757,,,,,,-0.076822917,-0.303385417,0,0,0,,0,57,57,153,1,
,,,,,,,,,,,,,,,,,,5ed29ca1126970098589f622,2020-08-10_18h08.44.146,lexical_decision_task_MP,2020.1.3,Win32,60,m,0,,,,,,,,0.084345,0,,,,,,362,NW,UN,50,breali,TIREAU,z,0.084345,,,,,,-0.076822917,-0.303385417,0,0,0,,0,58,58,421,1,
,,,,,,,,,,,,,,,,,,5ed29ca1126970098589f622,2020-08-10_18h08.44.146,lexical_decision_task_MP,2020.1.3,Win32,60,z,0,,,,,,,,0.103045,0,,,,,,153,WORD,UN,50,author,BEHOLD,m,0.103045,,,,,,-0.076822917,-0.303385417,0,0,0,,0,59,59,212,1,
,,,,,,,,,,,,,,,,,,5ed29ca1126970098589f622,2020-08-10_18h08.44.146,lexical_decision_task_MP,2020.1.3,Win32,60,m,1,,,,,,,,0.109165,1,,,,,,172,WORD,UN,50,shower,PATROL,m,0.109165,,,,,,-0.076822917,-0.303385417,0,0,0,,0,60,60,231,1,
,,,,,,,,,,,,,,,,,,5ed29ca1126970098589f622,2020-08-10_18h08.44.146,lexical_decision_task_MP,2020.1.3,Win32,60,m,1,,,,,,,,0.171095,1,,,,,,18,WORD,"ID",50,humble,HUMBLE,m,0.171095,,,,,,-0.076822917,-0.303385417,0,0,0,,0,61,61,77,1,
,,,,,,,,,,,,,,,,,,5ed29ca1126970098589f622,2020-08-10_18h08.44.146,lexical_decision_task_MP,2020.1.3,Win32,60,m,1,,,,,,,,0.15593,1,,,,,,5,WORD,"ID",50,plunge,PLUNGE,m,0.15593,,,,,,-0.076822917,-0.303385417,0,0,0,,0,62,62,64,1,
,,,,,,,,,,,,,,,,,,5ed29ca1126970098589f622,2020-08-10_18h08.44.146,lexical_decision_task_MP,2020.1.3,Win32,60,z,1,,,,,,,,0.205315,1,,,,,,368,NW,UN,50,wronch,HORNAL,z,0.205315,,,,,,-0.076822917,-0.303385417,0,0,0,,0,63,63,427,1,
,,,,,,,,,,,,,,,,,,5ed29ca1126970098589f622,2020-08-10_18h08.44.146,lexical_decision_task_MP,2020.1.3,Win32,60,m,1,,,,,,,,0.218245,1,,,,,,163,WORD,UN,50,market,STRING,m,0.218245,,,,,,-0.076822917,-0.303385417,0,0,0,,0,64,64,222,1,
,,,,,,,,,,,,,,,,,,5ed29ca1126970098589f622,2020-08-10_18h08.44.146,lexical_decision_task_MP,2020.1.3,Win32,60,m,1,,,,,,,,0.451035,1,,,,,,76,WORD,UN,33,racket,EXOTIC,m,0.451035,,,,,,-0.076822917,-0.303385417,0,0,0,,0,65,65,135,1,
,,,,,,,,,,,,,,,,,,5ed29ca1126970098589f622,2020-08-10_18h08.44.146,lexical_decision_task_MP,2020.1.3,Win32,60,m,0,,,,,,,,0.36616,0,,,,,,396,NW,UN,50,camble,FLENGY,z,0.36616,,,,,,-0.076822917,-0.303385417,0,0,0,,0,66,66,455,1,
,,,,,,,,,,,,,,,,,,5ed29ca1126970098589f622,2020-08-10_18h08.44.146,lexical_decision_task_MP,2020.1.3,Win32,60,z,0,,,,,,,,0.333975,0,,,,,,120,WORD,UN,33,ponder,STRAIN,m,0.333975,,,,,,-0.076822917,-0.303385417,0,0,0,,0,67,67,179,1,
,,,,,,,,,,,,,,,,,,5ed29ca1126970098589f622,2020-08-10_18h08.44.146,lexical_decision_task_MP,2020.1.3,Win32,60,m,1,,,,,,,,0.36667,1,,,,,,206,WORD,"ID",33,tailor,TAILOR,m,0.36667,,,,,,-0.076822917,-0.303385417,0,0,0,,0,68,68,25,1,
,,,,,,,,,,,,,,,,,,5ed29ca1126970098589f622,2020-08-10_18h08.44.146,lexical_decision_task_MP,2020.1.3,Win32,60,z,0,,,,,,,,0.550155,0,,,,,,152,WORD,UN,50,behold,ROCKET,m,0.550155,,,,,,-0.076822917,-0.303385417,0,0,0,,0,69,69,211,1,
,,,,,,,,,,,,,,,,,,5ed29ca1126970098589f622,2020-08-10_18h08.44.146,lexical_decision_task_MP,2020.1.3,Win32,60,m,1,,,,,,,,0.499255,1,,,,,,134,WORD,UN,50,import,STAPLE,m,0.499255,,,,,,-0.076822917,-0.303385417,0,0,0,,0,70,70,193,1,
,,,,,,,,,,,,,,,,,,5ed29ca1126970098589f622,2020-08-10_18h08.44.146,lexical_decision_task_MP,2020.1.3,Win32,60,m,1,,,,,,,,1.152975,1,,,,,,13,WORD,"ID",50,strive,STRIVE,m,1.152975,,,,,,-0.076822917,-0.303385417,0,0,0,,0,71,71,72,1,
,,,,,,,,,,,,,,,,,,5ed29ca1126970098589f622,2020-08-10_18h08.44.146,lexical_decision_task_MP,2020.1.3,Win32,60,z,0,,,,,,,,0.456825,0,,,,,,114,WORD,UN,33,guitar,PLACID,m,0.456825,,,,,,-0.076822917,-0.303385417,0,0,0,,0,72,72,173,1,
,,,,,,,,,,,,,,,,,,5ed29ca1126970098589f622,2020-08-10_18h08.44.146,lexical_decision_task_MP,2020.1.3,Win32,60,m,1,,,,,,,,0.20025,1,,,,,,109,WORD,UN,33,polite,WONDER,m,0.20025,,,,,,-0.076822917,-0.303385417,0,0,0,,0,73,73,168,1,
,,,,,,,,,,,,,,,,,,5ed29ca1126970098589f622,2020-08-10_18h08.44.146,lexical_decision_task_MP,2020.1.3,Win32,60,m,1,,,,,,,,0.521245,1,,,,,,69,WORD,UN,33,square,PLENTY,m,0.521245,,,,,,-0.076822917,-0.303385417,0,0,0,,0,74,74,128,1,
,,,,,,,,,,,,,,,,,,5ed29ca1126970098589f622,2020-08-10_18h08.44.146,lexical_decision_task_MP,2020.1.3,Win32,60,m,1,,,,,,,,0.30728,1,,,,,,227,WORD,"ID",33,seldom,SELDOM,m,0.30728,,,,,,-0.076822917,-0.303385417,0,0,0,,0,75,75,46,1,
,,,,,,,,,,,,,,,,,,5ed29ca1126970098589f622,2020-08-10_18h08.44.146,lexical_decision_task_MP,2020.1.3,Win32,60,z,0,,,,,,,,0.20058,0,,,,,,186,WORD,"ID",33,portal,PORTAL,m,0.20058,,,,,,-0.076822917,-0.303385417,0,0,0,,0,76,76,5,1,
,,,,,,,,,,,,,,,,,,5ed29ca1126970098589f622,2020-08-10_18h08.44.146,lexical_decision_task_MP,2020.1.3,Win32,60,m,1,,,,,,,,0.232425,1,,,,,,123,WORD,UN,50,blouse,STRIKE,m,0.232425,,,,,,-0.076822917,-0.303385417,0,0,0,,0,77,77,182,1,
,,,,,,,,,,,,,,,,,,5ed29ca1126970098589f622,2020-08-10_18h08.44.146,lexical_decision_task_MP,2020.1.3,Win32,60,m,0,,,,,,,,0.24995,0,,,,,,277,NW,"ID",50,petain,PETAIN,z,0.24995,,,,,,-0.076822917,-0.303385417,0,0,0,,0,78,78,336,1,
,,,,,,,,,,,,,,,,,,5ed29ca1126970098589f622,2020-08-10_18h08.44.146,lexical_decision_task_MP,2020.1.3,Win32,60,z,1,,,,,,,,0.25201,1,,,,,,438,NW,"ID",33,baitch,BAITCH,z,0.25201,,,,,,-0.076822917,-0.303385417,0,0,0,,0,79,79,257,1,
,,,,,,,,,,,,,,,,,,5ed29ca1126970098589f622,2020-08-10_18h08.44.146,lexical_decision_task_MP,2020.1.3,Win32,60,m,1,,,,,,,,0.065295,1,,,,,,34,WORD,"ID",50,jungle,JUNGLE,m,0.065295,,,,,,-0.076822917,-0.303385417,0,0,0,,0,80,80,93,1,
,,,,,,,,,,,,,,,,,,5ed29ca1126970098589f622,2020-08-10_18h08.44.146,lexical_decision_task_MP,2020.1.3,Win32,60,m,0,,,,,,,,0.25115,0,,,,,,337,NW,UN,33,wreash,REJOLS,z,0.25115,,,,,,-0.076822917,-0.303385417,0,0,0,,0,81,81,396,1,
,,,,,,,,,,,,,,,,,,5ed29ca1126970098589f622,2020-08-10_18h08.44.146,lexical_decision_task_MP,2020.1.3,Win32,60,z,0,,,,,,,,0.250875,0,,,,,,118,WORD,UN,33,spider,FLIGHT,m,0.250875,,,,,,-0.076822917,-0.303385417,0,0,0,,0,82,82,177,1,
,,,,,,,,,,,,,,,,,,5ed29ca1126970098589f622,2020-08-10_18h08.44.146,lexical_decision_task_MP,2020.1.3,Win32,60,m,0,,,,,,,,0.168395,0,,,,,,374,NW,UN,50,yorque,SLIANT,z,0.168395,,,,,,-0.076822917,-0.303385417,0,0,0,,0,83,83,433,1,
,,,,,,,,,,,,,,,,,,5ed29ca1126970098589f622,2020-08-10_18h08.44.146,lexical_decision_task_MP,2020.1.3,Win32,60,m,0,,,,,,,,0.171855,0,,,,,,395,NW,UN,50,flengy,COLURY,z,0.171855,,,,,,-0.076822917,-0.303385417,0,0,0,,0,84,84,454,1,
,,,,,,,,,,,,,,,,,,5ed29ca1126970098589f622,2020-08-10_18h08.44.146,lexical_decision_task_MP,2020.1.3,Win32,60,z,0,,,,,,,,0.35097,0,,,,,,233,WORD,"ID",33,nature,NATURE,m,0.35097,,,,,,-0.076822917,-0.303385417,0,0,0,,0,85,85,52,1,
,,,,,,,,,,,,,,,,,,5ed29ca1126970098589f622,2020-08-10_18h08.44.146,lexical_decision_task_MP,2020.1.3,Win32,60,m,0,,,,,,,,0.214895,0,,,,,,436,NW,"ID",33,frutan,FRUTAN,z,0.214895,,,,,,-0.076822917,-0.303385417,0,0,0,,0,86,86,255,1,
,,,,,,,,,,,,,,,,,,5ed29ca1126970098589f622,2020-08-10_18h08.44.146,lexical_decision_task_MP,2020.1.3,Win32,60,z,1,,,,,,,,0.298565,1,,,,,,270,NW,"ID",50,wrimsy,WRIMSY,z,0.298565,,,,,,-0.076822917,-0.303385417,0,0,0,,0,87,87,329,1,
,,,,,,,,,,,,,,,,,,5ed29ca1126970098589f622,2020-08-10_18h08.44.146,lexical_decision_task_MP,2020.1.3,Win32,60,m,1,,,,,,,,0.300185,1,,,,,,102,WORD,UN,33,bounce,DIRECT,m,0.300185,,,,,,-0.076822917,-0.303385417,0,0,0,,0,88,88,161,1,
,,,,,,,,,,,,,,,,,,5ed29ca1126970098589f622,2020-08-10_18h08.44.146,lexical_decision_task_MP,2020.1.3,Win32,60,z,0,,,,,,,,0.201845,0,,,,,,48,WORD,"ID",50,walnut,WALNUT,m,0.201845,,,,,,-0.076822917,-0.303385417,0,0,0,,0,89,89,107,1,
,,,,,,,,,,,,,,,,,,5ed29ca1126970098589f622,2020-08-10_18h08.44.146,lexical_decision_task_MP,2020.1.3,Win32,60,m,0,,,,,,,,0.249725,0,,,,,,245,NW,"ID",50,anougs,ANOUGS,z,0.249725,,,,,,-0.076822917,-0.303385417,0,0,0,,0,90,90,304,1,
,,,,,,,,,,,,,,,,,,5ed29ca1126970098589f622,2020-08-10_18h08.44.146,lexical_decision_task_MP,2020.1.3,Win32,60,m,1,,,,,,,,0.280115,1,,,,,,79,WORD,UN,33,family,THEORY,m,0.280115,,,,,,-0.076822917,-0.303385417,0,0,0,,0,91,91,138,1,
,,,,,,,,,,,,,,,,,,5ed29ca1126970098589f622,2020-08-10_18h08.44.146,lexical_decision_task_MP,2020.1.3,Win32,60,m,0,,,,,,,,0.452175,0,,,,,,434,NW,"ID",33,pitrom,PITROM,z,0.452175,,,,,,-0.076822917,-0.303385417,0,0,0,,0,92,92,253,1,
,,,,,,,,,,,,,,,,,,5ed29ca1126970098589f622,2020-08-10_18h08.44.146,lexical_decision_task_MP,2020.1.3,Win32,60,z,0,,,,,,,,0.350385,0,,,,,,103,WORD,UN,33,studio,BOUNCE,m,0.350385,,,,,,-0.076822917,-0.303385417,0,0,0,,0,93,93,162,1,
,,,,,,,,,,,,,,,,,,5ed29ca1126970098589f622,2020-08-10_18h08.44.146,lexical_decision_task_MP,2020.1.3,Win32,60,m,0,,,,,,,,0.315945,0,,,,,,477,NW,"ID",33,photie,PHOTIE,z,0.315945,,,,,,-0.076822917,-0.303385417,0,0,0,,0,94,94,296,1,
,,,,,,,,,,,,,,,,,,5ed29ca1126970098589f622,2020-08-10_18h08.44.146,lexical_decision_task_MP,2020.1.3,Win32,60,z,1,,,,,,,,0.085595,1,,,,,,365,NW,UN,50,toshel,GUAIRT,z,0.085595,,,,,,-0.076822917,-0.303385417,0,0,0,,0,95,95,424,1,
,,,,,,,,,,,,,,,,,,5ed29ca1126970098589f622,2020-08-10_18h08.44.146,lexical_decision_task_MP,2020.1.3,Win32,60,z,1,,,,,,,,0.475475,1,,,,,,296,NW,"ID",50,beinch,BEINCH,z,0.475475,,,,,,-0.076822917,-0.303385417,0,0,0,,0,96,96,355,1,
,,,,,,,,,,,,,,,,,,5ed29ca1126970098589f622,2020-08-10_18h08.44.146,lexical_decision_task_MP,2020.1.3,Win32,60,m,1,,,,,,,,0.320405,1,,,,,,73,WORD,UN,33,plaque,SOURCE,m,0.320405,,,,,,-0.076822917,-0.303385417,0,0,0,,0,97,97,132,1,
,,,,,,,,,,,,,,,,,,5ed29ca1126970098589f622,2020-08-10_18h08.44.146,lexical_decision_task_MP,2020.1.3,Win32,60,z,0,,,,,,,,0.715355,0,,,,,,199,WORD,"ID",33,invoke,INVOKE,m,0.715355,,,,,,-0.076822917,-0.303385417,0,0,0,,0,98,98,18,1,
,,,,,,,,,,,,,,,,,,5ed29ca1126970098589f622,2020-08-10_18h08.44.146,lexical_decision_task_MP,2020.1.3,Win32,60,m,1,,,,,,,,0.64986,1,,,,,,140,WORD,UN,50,chrome,PRINCE,m,0.64986,,,,,,-0.076822917,-0.303385417,0,0,0,,0,99,99,199,1,
,,,,,,,,,,,,,,,,,,5ed29ca1126970098589f622,2020-08-10_18h08.44.146,lexical_decision_task_MP,2020.1.3,Win32,60,m,1,,,,,,,,0.91301,1,,,,,,165,WORD,UN,50,starch,INVEST,m,0.91301,,,,,,-0.076822917,-0.303385417,0,0,0,,0,100,100,224,1,
,,,,,,,,,,,,,,,,,,5ed29ca1126970098589f622,2020-08-10_18h08.44.146,lexical_decision_task_MP,2020.1.3,Win32,60,,0,,,,,,,,0.91301,-1,,,,,,382,NW,UN,50,aungre,SARLEY,z,,,,,,,-0.076822917,-0.303385417,0,0,0,,0,101,101,441,1,
,,,,,,,,,,,,,,,,,,5ed29ca1126970098589f622,2020-08-10_18h08.44.146,lexical_decision_task_MP,2020.1.3,Win32,60,m,1,,,,,,,,0.44719,1,,,,,,232,WORD,"ID",33,inject,INJECT,m,0.44719,,,,,,-0.076822917,-0.303385417,0,0,0,,0,102,102,51,1,
,,,,,,,,,,,,,,,,,,5ed29ca1126970098589f622,2020-08-10_18h08.44.146,lexical_decision_task_MP,2020.1.3,Win32,60,m,0,,,,,,,,0.524865,0,,,,,,354,NW,UN,33,zingly,VIRLEX,z,0.524865,,,,,,-0.076822917,-0.303385417,0,0,0,,0,103,103,413,1,
,,,,,,,,,,,,,,,,,,5ed29ca1126970098589f622,2020-08-10_18h08.44.146,lexical_decision_task_MP,2020.1.3,Win32,60,m,0,,,,,,,,0.53716,0,,,,,,258,NW,"ID",50,poluth,POLUTH,z,0.53716,,,,,,-0.076822917,-0.303385417,0,0,0,,0,104,104,317,1,
,,,,,,,,,,,,,,,,,,5ed29ca1126970098589f622,2020-08-10_18h08.44.146,lexical_decision_task_MP,2020.1.3,Win32,60,m,1,,,,,,,,0.486055,1,,,,,,74,WORD,UN,33,trophy,PLAQUE,m,0.486055,,,,,,-0.076822917,-0.303385417,0,0,0,,0,105,105,133,1,
,,,,,,,,,,,,,,,,,,5ed29ca1126970098589f622,2020-08-10_18h08.44.146,lexical_decision_task_MP,2020.1.3,Win32,60,z,0,,,,,,,,0.317635,0,,,,,,228,WORD,"ID",33,master,MASTER,m,0.317635,,,,,,-0.076822917,-0.303385417,0,0,0,,0,106,106,47,1,
,,,,,,,,,,,,,,,,,,5ed29ca1126970098589f622,2020-08-10_18h08.44.146,lexical_decision_task_MP,2020.1.3,Win32,60,m,1,,,,,,,,0.266715,1,,,,,,83,WORD,UN,33,mortal,RESULT,m,0.266715,,,,,,-0.076822917,-0.303385417,0,0,0,,0,107,107,142,1,
,,,,,,,,,,,,,,,,,,5ed29ca1126970098589f622,2020-08-10_18h08.44.146,lexical_decision_task_MP,2020.1.3,Win32,60,m,1,,,,,,,,0.29887,1,,,,,,3,WORD,"ID",50,knight,KNIGHT,m,0.29887,,,,,,-0.076822917,-0.303385417,0,0,0,,0,108,108,62,1,
,,,,,,,,,,,,,,,,,,5ed29ca1126970098589f622,2020-08-10_18h08.44.146,lexical_decision_task_MP,2020.1.3,Win32,60,m,0,,,,,,,,0.400675,0,,,,,,451,NW,"ID",33,cainky,CAINKY,z,0.400675,,,,,,-0.076822917,-0.303385417,0,0,0,,0,109,109,270,1,
,,,,,,,,,,,,,,,,,,5ed29ca1126970098589f622,2020-08-10_18h08.44.146,lexical_decision_task_MP,2020.1.3,Win32,60,m,1,,,,,,,,0.54036,1,,,,,,110,WORD,UN,33,induce,POLITE,m,0.54036,,,,,,-0.076822917,-0.303385417,0,0,0,,0,110,110,169,1,
,,,,,,,,,,,,,,,,,,5ed29ca1126970098589f622,2020-08-10_18h08.44.146,lexical_decision_task_MP,2020.1.3,Win32,60,z,1,,,,,,,,0.415215,1,,,,,,380,NW,UN,50,huniek,CAVORY,z,0.415215,,,,,,-0.076822917,-0.303385417,0,0,0,,0,111,111,439,1,
,,,,,,,,,,,,,,,,,,5ed29ca1126970098589f622,2020-08-10_18h08.44.146,lexical_decision_task_MP,2020.1.3,Win32,60,m,1,,,,,,,,0.198435,1,,,,,,141,WORD,UN,50,spruce,ORPHAN,m,0.198435,,,,,,-0.076822917,-0.303385417,0,0,0,,0,112,112,200,1,
,,,,,,,,,,,,,,,,,,5ed29ca1126970098589f622,2020-08-10_18h08.44.146,lexical_decision_task_MP,2020.1.3,Win32,60,m,0,,,,,,,,0.419555,0,,,,,,467,NW,"ID",33,gorbie,GORBIE,z,0.419555,,,,,,-0.076822917,-0.303385417,0,0,0,,0,113,113,286,1,
,,,,,,,,,,,,,,,,,,5ed29ca1126970098589f622,2020-08-10_18h08.44.146,lexical_decision_task_MP,2020.1.3,Win32,60,m,0,,,,,,,,0.4713,0,,,,,,325,NW,UN,33,iguade,THRUSE,z,0.4713,,,,,,-0.076822917,-0.303385417,0,0,0,,0,114,114,384,1,
,,,,,,,,,,,,,,,,,,5ed29ca1126970098589f622,2020-08-10_18h08.44.146,lexical_decision_task_MP,2020.1.3,Win32,60,z,1,,,,,,,,0.55005,1,,,,,,429,NW,"ID",33,funtle,FUNTLE,z,0.55005,,,,,,-0.076822917,-0.303385417,0,0,0,,0,115,115,248,1,
,,,,,,,,,,,,,,,,,,5ed29ca1126970098589f622,2020-08-10_18h08.44.146,lexical_decision_task_MP,2020.1.3,Win32,60,m,0,,,,,,,,0.26759,0,,,,,,454,NW,"ID",33,scouge,SCOUGE,z,0.26759,,,,,,-0.076822917,-0.303385417,0,0,0,,0,116,116,273,1,
,,,,,,,,,,,,,,,,,,5ed29ca1126970098589f622,2020-08-10_18h08.44.146,lexical_decision_task_MP,2020.1.3,Win32,60,m,1,,,,,,,,0.44963,1,,,,,,96,WORD,UN,33,client,IGNORE,m,0.44963,,,,,,-0.076822917,-0.303385417,0,0,0,,0,117,117,155,1,
,,,,,,,,,,,,,,,,,,5ed29ca1126970098589f622,2020-08-10_18h08.44.146,lexical_decision_task_MP,2020.1.3,Win32,60,m,0,,,,,,,,0.43608,0,,,,,,435,NW,"ID",33,impurb,IMPURB,z,0.43608,,,,,,-0.076822917,-0.303385417,0,0,0,,0,118,118,254,1,
,,,,,,,,,,,,,,,,,,5ed29ca1126970098589f622,2020-08-10_18h08.44.146,lexical_decision_task_MP,2020.1.3,Win32,60,z,0,,,,,,,,0.23518,0,,,,,,182,WORD,"ID",33,winter,WINTER,m,0.23518,,,,,,-0.076822917,-0.303385417,0,0,0,,0,119,119,1,1,
,,,,,,,,,,,,,,,,,,5ed29ca1126970098589f622,2020-08-10_18h08.44.146,lexical_decision_task_MP,2020.1.3,Win32,60,m,1,,,,,,,,0.20078,1,,,,,,195,WORD,"ID",33,resign,RESIGN,m,0.20078,,,,,,-0.02734375,-0.395833333,0,0,0,space,0,120,120,14,1,10.24514
,,,,,,,,,,,,,,,,,,5ed29ca1126970098589f622,2020-08-10_18h08.44.146,lexical_decision_task_MP,2020.1.3,Win32,60,m,1,,,,,,,,1.486505,1,,,,,,224,WORD,"ID",33,period,PERIOD,m,1.486505,,,,,,-0.02734375,-0.395833333,0,0,0,,0,121,121,43,1,
,,,,,,,,,,,,,,,,,,5ed29ca1126970098589f622,2020-08-10_18h08.44.146,lexical_decision_task_MP,2020.1.3,Win32,60,m,1,,,,,,,,0.095265,1,,,,,,41,WORD,"ID",50,spring,SPRING,m,0.095265,,,,,,-0.02734375,-0.395833333,0,0,0,,0,122,122,100,1,
,,,,,,,,,,,,,,,,,,5ed29ca1126970098589f622,2020-08-10_18h08.44.146,lexical_decision_task_MP,2020.1.3,Win32,60,m,1,,,,,,,,0.341445,1,,,,,,222,WORD,"ID",33,hinder,HINDER,m,0.341445,,,,,,-0.02734375,-0.395833333,0,0,0,,0,123,123,41,1,
,,,,,,,,,,,,,,,,,,5ed29ca1126970098589f622,2020-08-10_18h08.44.146,lexical_decision_task_MP,2020.1.3,Win32,60,z,1,,,,,,,,0.034375,1,,,,,,401,NW,UN,50,syntic,MUSTIL,z,0.034375,,,,,,-0.02734375,-0.395833333,0,0,0,,0,124,124,460,1,
,,,,,,,,,,,,,,,,,,5ed29ca1126970098589f622,2020-08-10_18h08.44.146,lexical_decision_task_MP,2020.1.3,Win32,60,m,1,,,,,,,,0.32132,1,,,,,,234,WORD,"ID",33,clumsy,CLUMSY,m,0.32132,,,,,,-0.02734375,-0.395833333,0,0,0,,0,125,125,53,1,
,,,,,,,,,,,,,,,,,,5ed29ca1126970098589f622,2020-08-10_18h08.44.146,lexical_decision_task_MP,2020.1.3,Win32,60,m,0,,,,,,,,0.46732,0,,,,,,287,NW,"ID",50,nymbel,NYMBEL,z,0.46732,,,,,,-0.02734375,-0.395833333,0,0,0,,0,126,126,346,1,
,,,,,,,,,,,,,,,,,,5ed29ca1126970098589f622,2020-08-10_18h08.44.146,lexical_decision_task_MP,2020.1.3,Win32,60,m,0,,,,,,,,0.336225,0,,,,,,271,NW,"ID",50,aubrid,AUBRID,z,0.336225,,,,,,-0.02734375,-0.395833333,0,0,0,,0,127,127,330,1,
,,,,,,,,,,,,,,,,,,5ed29ca1126970098589f622,2020-08-10_18h08.44.146,lexical_decision_task_MP,2020.1.3,Win32,60,m,0,,,,,,,,0.42915,0,,,,,,403,NW,UN,50,cluirm,BRUATS,z,0.42915,,,,,,-0.02734375,-0.395833333,0,0,0,,0,128,128,462,1,
,,,,,,,,,,,,,,,,,,5ed29ca1126970098589f622,2020-08-10_18h08.44.146,lexical_decision_task_MP,2020.1.3,Win32,60,z,1,,,,,,,,0.21817,1,,,,,,331,NW,UN,33,vangue,GILFEW,z,0.21817,,,,,,-0.02734375,-0.395833333,0,0,0,,0,129,129,390,1,
,,,,,,,,,,,,,,,,,,5ed29ca1126970098589f622,2020-08-10_18h08.44.146,lexical_decision_task_MP,2020.1.3,Win32,60,m,0,,,,,,,,0.333735,0,,,,,,416,NW,UN,50,earoud,PATHEL,z,0.333735,,,,,,-0.02734375,-0.395833333,0,0,0,,0,130,130,475,1,
,,,,,,,,,,,,,,,,,,5ed29ca1126970098589f622,2020-08-10_18h08.44.146,lexical_decision_task_MP,2020.1.3,Win32,60,z,1,,,,,,,,0.05578,1,,,,,,255,NW,"ID",50,apight,APIGHT,z,0.05578,,,,,,-0.02734375,-0.395833333,0,0,0,,0,131,131,314,1,
,,,,,,,,,,,,,,,,,,5ed29ca1126970098589f622,2020-08-10_18h08.44.146,lexical_decision_task_MP,2020.1.3,Win32,60,z,0,,,,,,,,0.251215,0,,,,,,21,WORD,"ID",50,simple,SIMPLE,m,0.251215,,,,,,-0.02734375,-0.395833333,0,0,0,,0,132,132,80,1,
,,,,,,,,,,,,,,,,,,5ed29ca1126970098589f622,2020-08-10_18h08.44.146,lexical_decision_task_MP,2020.1.3,Win32,60,m,0,,,,,,,,0.240875,0,,,,,,275,NW,"ID",50,sleirt,SLEIRT,z,0.240875,,,,,,-0.02734375,-0.395833333,0,0,0,,0,133,133,334,1,
,,,,,,,,,,,,,,,,,,5ed29ca1126970098589f622,2020-08-10_18h08.44.146,lexical_decision_task_MP,2020.1.3,Win32,60,z,0,,,,,,,,0.12178,0,,,,,,116,WORD,UN,33,branch,TUMBLE,m,0.12178,,,,,,-0.02734375,-0.395833333,0,0,0,,0,134,134,175,1,
,,,,,,,,,,,,,,,,,,5ed29ca1126970098589f622,2020-08-10_18h08.44.146,lexical_decision_task_MP,2020.1.3,Win32,60,m,0,,,,,,,,0.249265,0,,,,,,432,NW,"ID",33,lunker,LUNKER,z,0.249265,,,,,,-0.02734375,-0.395833333,0,0,0,,0,135,135,251,1,
,,,,,,,,,,,,,,,,,,5ed29ca1126970098589f622,2020-08-10_18h08.44.146,lexical_decision_task_MP,2020.1.3,Win32,60,z,1,,,,,,,,0.318385,1,,,,,,426,NW,"ID",33,urivel,URIVEL,z,0.318385,,,,,,-0.02734375,-0.395833333,0,0,0,,0,136,136,245,1,
,,,,,,,,,,,,,,,,,,5ed29ca1126970098589f622,2020-08-10_18h08.44.146,lexical_decision_task_MP,2020.1.3,Win32,60,z,0,,,,,,,,0.33146,0,,,,,,225,WORD,"ID",33,vulgar,VULGAR,m,0.33146,,,,,,-0.02734375,-0.395833333,0,0,0,,0,137,137,44,1,
,,,,,,,,,,,,,,,,,,5ed29ca1126970098589f622,2020-08-10_18h08.44.146,lexical_decision_task_MP,2020.1.3,Win32,60,m,1,,,,,,,,0.567335,1,,,,,,174,WORD,UN,50,fabric,TURKEY,m,0.567335,,,,,,-0.02734375,-0.395833333,0,0,0,,0,138,138,233,1,
,,,,,,,,,,,,,,,,,,5ed29ca1126970098589f622,2020-08-10_18h08.44.146,lexical_decision_task_MP,2020.1.3,Win32,60,m,0,,,,,,,,0.489725,0,,,,,,460,NW,"ID",33,mingar,MINGAR,z,0.489725,,,,,,-0.02734375,-0.395833333,0,0,0,,0,139,139,279,1,
,,,,,,,,,,,,,,,,,,5ed29ca1126970098589f622,2020-08-10_18h08.44.146,lexical_decision_task_MP,2020.1.3,Win32,60,z,1,,,,,,,,0.58895,1,,,,,,387,NW,UN,50,cragin,GRONCE,z,0.58895,,,,,,-0.02734375,-0.395833333,0,0,0,,0,140,140,446,1,
,,,,,,,,,,,,,,,,,,5ed29ca1126970098589f622,2020-08-10_18h08.44.146,lexical_decision_task_MP,2020.1.3,Win32,60,m,1,,,,,,,,0.551135,1,,,,,,181,WORD,"ID",33,glance,GLANCE,m,0.551135,,,,,,-0.02734375,-0.395833333,0,0,0,,0,141,141,0,1,
,,,,,,,,,,,,,,,,,,5ed29ca1126970098589f622,2020-08-10_18h08.44.146,lexical_decision_task_MP,2020.1.3,Win32,60,z,1,,,,,,,,0.285605,1,,,,,,302,NW,UN,33,fiream,MILUER,z,0.285605,,,,,,-0.02734375,-0.395833333,0,0,0,,0,142,142,361,1,
,,,,,,,,,,,,,,,,,,5ed29ca1126970098589f622,2020-08-10_18h08.44.146,lexical_decision_task_MP,2020.1.3,Win32,60,z,1,,,,,,,,0.19998,1,,,,,,286,NW,"ID",50,reldon,RELDON,z,0.19998,,,,,,-0.02734375,-0.395833333,0,0,0,,0,143,143,345,1,
,,,,,,,,,,,,,,,,,,5ed29ca1126970098589f622,2020-08-10_18h08.44.146,lexical_decision_task_MP,2020.1.3,Win32,60,m,1,,,,,,,,0.2073,1,,,,,,68,WORD,UN,33,plenty,FUMBLE,m,0.2073,,,,,,-0.02734375,-0.395833333,0,0,0,,0,144,144,127,1,
,,,,,,,,,,,,,,,,,,5ed29ca1126970098589f622,2020-08-10_18h08.44.146,lexical_decision_task_MP,2020.1.3,Win32,60,m,0,,,,,,,,0.18477,0,,,,,,266,NW,"ID",50,varmit,VARMIT,z,0.18477,,,,,,-0.02734375,-0.395833333,0,0,0,,0,145,145,325,1,
,,,,,,,,,,,,,,,,,,5ed29ca1126970098589f622,2020-08-10_18h08.44.146,lexical_decision_task_MP,2020.1.3,Win32,60,z,1,,,,,,,,0.168345,1,,,,,,259,NW,"ID",50,soudal,SOUDAL,z,0.168345,,,,,,-0.02734375,-0.395833333,0,0,0,,0,146,146,318,1,
,,,,,,,,,,,,,,,,,,5ed29ca1126970098589f622,2020-08-10_18h08.44.146,lexical_decision_task_MP,2020.1.3,Win32,60,z,1,,,,,,,,0.718605,1,,,,,,316,NW,UN,33,worbal,SCREGM,z,0.718605,,,,,,-0.02734375,-0.395833333,0,0,0,,0,147,147,375,1,
,,,,,,,,,,,,,,,,,,5ed29ca1126970098589f622,2020-08-10_18h08.44.146,lexical_decision_task_MP,2020.1.3,Win32,60,m,1,,,,,,,,0.219345,1,,,,,,39,WORD,"ID",50,insect,INSECT,m,0.219345,,,,,,-0.02734375,-0.395833333,0,0,0,,0,148,148,98,1,
,,,,,,,,,,,,,,,,,,5ed29ca1126970098589f622,2020-08-10_18h08.44.146,lexical_decision_task_MP,2020.1.3,Win32,60,m,0,,,,,,,,0.20951,0,,,,,,385,NW,UN,50,ancust,VEIGMA,z,0.20951,,,,,,-0.02734375,-0.395833333,0,0,0,,0,149,149,444,1,
,,,,,,,,,,,,,,,,,,5ed29ca1126970098589f622,2020-08-10_18h08.44.146,lexical_decision_task_MP,2020.1.3,Win32,60,z,0,,,,,,,,0.236755,0,,,,,,200,WORD,"ID",33,beacon,BEACON,m,0.236755,,,,,,-0.02734375,-0.395833333,0,0,0,,0,150,150,19,1,
,,,,,,,,,,,,,,,,,,5ed29ca1126970098589f622,2020-08-10_18h08.44.146,lexical_decision_task_MP,2020.1.3,Win32,60,m,1,,,,,,,,0.28534,1,,,,,,113,WORD,UN,33,placid,CHORUS,m,0.28534,,,,,,-0.02734375,-0.395833333,0,0,0,,0,151,151,172,1,
,,,,,,,,,,,,,,,,,,5ed29ca1126970098589f622,2020-08-10_18h08.44.146,lexical_decision_task_MP,2020.1.3,Win32,60,z,1,,,,,,,,0.342515,1,,,,,,352,NW,UN,33,clurey,TRINGE,z,0.342515,,,,,,-0.02734375,-0.395833333,0,0,0,,0,152,152,411,1,
,,,,,,,,,,,,,,,,,,5ed29ca1126970098589f622,2020-08-10_18h08.44.146,lexical_decision_task_MP,2020.1.3,Win32,60,z,1,,,,,,,,0.31852,1,,,,,,372,NW,UN,50,bigent,RAMILY,z,0.31852,,,,,,-0.02734375,-0.395833333,0,0,0,,0,153,153,431,1,
,,,,,,,,,,,,,,,,,,5ed29ca1126970098589f622,2020-08-10_18h08.44.146,lexical_decision_task_MP,2020.1.3,Win32,60,m,1,,,,,,,,0.23533,1,,,,,,148,WORD,UN,50,invade,CUSTOM,m,0.23533,,,,,,-0.02734375,-0.395833333,0,0,0,,0,154,154,207,1,
,,,,,,,,,,,,,,,,,,5ed29ca1126970098589f622,2020-08-10_18h08.44.146,lexical_decision_task_MP,2020.1.3,Win32,60,m,0,,,,,,,,0.274115,0,,,,,,422,NW,"ID",33,alcoud,ALCOUD,z,0.274115,,,,,,-0.02734375,-0.395833333,0,0,0,,0,155,155,241,1,
,,,,,,,,,,,,,,,,,,5ed29ca1126970098589f622,2020-08-10_18h08.44.146,lexical_decision_task_MP,2020.1.3,Win32,60,z,1,,,,,,,,0.283855,1,,,,,,241,NW,"ID",50,smenco,SMENCO,z,0.283855,,,,,,-0.02734375,-0.395833333,0,0,0,,0,156,156,300,1,
,,,,,,,,,,,,,,,,,,5ed29ca1126970098589f622,2020-08-10_18h08.44.146,lexical_decision_task_MP,2020.1.3,Win32,60,z,0,,,,,,,,0.18612,0,,,,,,166,WORD,UN,50,design,STARCH,m,0.18612,,,,,,-0.02734375,-0.395833333,0,0,0,,0,157,157,225,1,
,,,,,,,,,,,,,,,,,,5ed29ca1126970098589f622,2020-08-10_18h08.44.146,lexical_decision_task_MP,2020.1.3,Win32,60,m,1,,,,,,,,0.00817,1,,,,,,157,WORD,UN,50,island,DRAGON,m,0.00817,,,,,,-0.02734375,-0.395833333,0,0,0,,0,158,158,216,1,
,,,,,,,,,,,,,,,,,,5ed29ca1126970098589f622,2020-08-10_18h08.44.146,lexical_decision_task_MP,2020.1.3,Win32,60,m,1,,,,,,,,0.55103,1,,,,,,95,WORD,UN,33,ignore,THREAD,m,0.55103,,,,,,-0.02734375,-0.395833333,0,0,0,,0,159,159,154,1,
,,,,,,,,,,,,,,,,,,5ed29ca1126970098589f622,2020-08-10_18h08.44.146,lexical_decision_task_MP,2020.1.3,Win32,60,z,0,,,,,,,,0.36643,0,,,,,,115,WORD,UN,33,tumble,GUITAR,m,0.36643,,,,,,-0.02734375,-0.395833333,0,0,0,,0,160,160,174,1,
,,,,,,,,,,,,,,,,,,5ed29ca1126970098589f622,2020-08-10_18h08.44.146,lexical_decision_task_MP,2020.1.3,Win32,60,m,0,,,,,,,,0.24003,0,,,,,,330,NW,UN,33,gilfew,KENSOM,z,0.24003,,,,,,-0.02734375,-0.395833333,0,0,0,,0,161,161,389,1,
,,,,,,,,,,,,,,,,,,5ed29ca1126970098589f622,2020-08-10_18h08.44.146,lexical_decision_task_MP,2020.1.3,Win32,60,m,0,,,,,,,,0.98411,0,,,,,,479,NW,"ID",33,lobush,LOBUSH,z,0.98411,,,,,,-0.02734375,-0.395833333,0,0,0,,0,162,162,298,1,
,,,,,,,,,,,,,,,,,,5ed29ca1126970098589f622,2020-08-10_18h08.44.146,lexical_decision_task_MP,2020.1.3,Win32,60,z,0,,,,,,,,0.53396,0,,,,,,104,WORD,UN,33,number,STUDIO,m,0.53396,,,,,,-0.02734375,-0.395833333,0,0,0,,0,163,163,163,1,
,,,,,,,,,,,,,,,,,,5ed29ca1126970098589f622,2020-08-10_18h08.44.146,lexical_decision_task_MP,2020.1.3,Win32,60,m,1,,,,,,,,0.253715,1,,,,,,60,WORD,"ID",50,pencil,PENCIL,m,0.253715,,,,,,-0.02734375,-0.395833333,0,0,0,,0,164,164,119,1,
,,,,,,,,,,,,,,,,,,5ed29ca1126970098589f622,2020-08-10_18h08.44.146,lexical_decision_task_MP,2020.1.3,Win32,60,m,0,,,,,,,,0.26741,0,,,,,,441,NW,"ID",33,rastoe,RASTOE,z,0.26741,,,,,,-0.02734375,-0.395833333,0,0,0,,0,165,165,260,1,
,,,,,,,,,,,,,,,,,,5ed29ca1126970098589f622,2020-08-10_18h08.44.146,lexical_decision_task_MP,2020.1.3,Win32,60,m,0,,,,,,,,0.23488,0,,,,,,369,NW,UN,50,sleact,WRONCH,z,0.23488,,,,,,-0.02734375,-0.395833333,0,0,0,,0,166,166,428,1,
,,,,,,,,,,,,,,,,,,5ed29ca1126970098589f622,2020-08-10_18h08.44.146,lexical_decision_task_MP,2020.1.3,Win32,60,z,1,,,,,,,,0.337205,1,,,,,,324,NW,UN,33,thruse,STEIKH,z,0.337205,,,,,,-0.02734375,-0.395833333,0,0,0,,0,167,167,383,1,
,,,,,,,,,,,,,,,,,,5ed29ca1126970098589f622,2020-08-10_18h08.44.146,lexical_decision_task_MP,2020.1.3,Win32,60,m,1,,,,,,,,0.236945,1,,,,,,239,WORD,"ID",33,lumber,LUMBER,m,0.236945,,,,,,-0.02734375,-0.395833333,0,0,0,,0,168,168,58,1,
,,,,,,,,,,,,,,,,,,5ed29ca1126970098589f622,2020-08-10_18h08.44.146,lexical_decision_task_MP,2020.1.3,Win32,60,z,0,,,,,,,,0.03713,0,,,,,,183,WORD,"ID",33,mildew,MILDEW,m,0.03713,,,,,,-0.02734375,-0.395833333,0,0,0,,0,169,169,2,1,
,,,,,,,,,,,,,,,,,,5ed29ca1126970098589f622,2020-08-10_18h08.44.146,lexical_decision_task_MP,2020.1.3,Win32,60,z,0,,,,,,,,0.269505,0,,,,,,188,WORD,"ID",33,social,SOCIAL,m,0.269505,,,,,,-0.02734375,-0.395833333,0,0,0,,0,170,170,7,1,
,,,,,,,,,,,,,,,,,,5ed29ca1126970098589f622,2020-08-10_18h08.44.146,lexical_decision_task_MP,2020.1.3,Win32,60,m,0,,,,,,,,0.201605,0,,,,,,265,NW,"ID",50,distar,DISTAR,z,0.201605,,,,,,-0.02734375,-0.395833333,0,0,0,,0,171,171,324,1,
,,,,,,,,,,,,,,,,,,5ed29ca1126970098589f622,2020-08-10_18h08.44.146,lexical_decision_task_MP,2020.1.3,Win32,60,m,1,,,,,,,,0.533635,1,,,,,,29,WORD,"ID",50,sketch,SKETCH,m,0.533635,,,,,,-0.02734375,-0.395833333,0,0,0,,0,172,172,88,1,
,,,,,,,,,,,,,,,,,,5ed29ca1126970098589f622,2020-08-10_18h08.44.146,lexical_decision_task_MP,2020.1.3,Win32,60,m,0,,,,,,,,0.416935,0,,,,,,303,NW,UN,33,cludie,FIREAM,z,0.416935,,,,,,-0.02734375,-0.395833333,0,0,0,,0,173,173,362,1,
,,,,,,,,,,,,,,,,,,5ed29ca1126970098589f622,2020-08-10_18h08.44.146,lexical_decision_task_MP,2020.1.3,Win32,60,z,0,,,,,,,,0.02555,0,,,,,,192,WORD,"ID",33,plague,PLAGUE,m,0.02555,,,,,,-0.02734375,-0.395833333,0,0,0,,0,174,174,11,1,
,,,,,,,,,,,,,,,,,,5ed29ca1126970098589f622,2020-08-10_18h08.44.146,lexical_decision_task_MP,2020.1.3,Win32,60,z,1,,,,,,,,0.555635,1,,,,,,295,NW,"ID",50,gleath,GLEATH,z,0.555635,,,,,,-0.02734375,-0.395833333,0,0,0,,0,175,175,354,1,
,,,,,,,,,,,,,,,,,,5ed29ca1126970098589f622,2020-08-10_18h08.44.146,lexical_decision_task_MP,2020.1.3,Win32,60,z,1,,,,,,,,0.59825,1,,,,,,290,NW,"ID",50,splino,SPLINO,z,0.59825,,,,,,-0.02734375,-0.395833333,0,0,0,,0,176,176,349,1,
,,,,,,,,,,,,,,,,,,5ed29ca1126970098589f622,2020-08-10_18h08.44.146,lexical_decision_task_MP,2020.1.3,Win32,60,m,1,,,,,,,,0.569955,1,,,,,,144,WORD,UN,50,parish,SPONGE,m,0.569955,,,,,,-0.02734375,-0.395833333,0,0,0,,0,177,177,203,1,
,,,,,,,,,,,,,,,,,,5ed29ca1126970098589f622,2020-08-10_18h08.44.146,lexical_decision_task_MP,2020.1.3,Win32,60,m,1,,,,,,,,0.61732,1,,,,,,40,WORD,"ID",50,convey,CONVEY,m,0.61732,,,,,,-0.02734375,-0.395833333,0,0,0,,0,178,178,99,1,
,,,,,,,,,,,,,,,,,,5ed29ca1126970098589f622,2020-08-10_18h08.44.146,lexical_decision_task_MP,2020.1.3,Win32,60,m,1,,,,,,,,0.484455,1,,,,,,93,WORD,UN,33,travel,PUBLIC,m,0.484455,,,,,,-0.02734375,-0.395833333,0,0,0,,0,179,179,152,1,
,,,,,,,,,,,,,,,,,,5ed29ca1126970098589f622,2020-08-10_18h08.44.146,lexical_decision_task_MP,2020.1.3,Win32,60,m,1,,,,,,,,0.701925,1,,,,,,217,WORD,"ID",33,liquor,LIQUOR,m,0.701925,,,,,,-0.02734375,-0.395833333,0,0,0,,0,180,180,36,1,
,,,,,,,,,,,,,,,,,,5ed29ca1126970098589f622,2020-08-10_18h08.44.146,lexical_decision_task_MP,2020.1.3,Win32,60,m,0,,,,,,,,0.452365,0,,,,,,418,NW,UN,50,slount,SUIDLE,z,0.452365,,,,,,-0.02734375,-0.395833333,0,0,0,,0,181,181,477,1,
,,,,,,,,,,,,,,,,,,5ed29ca1126970098589f622,2020-08-10_18h08.44.146,lexical_decision_task_MP,2020.1.3,Win32,60,z,0,,,,,,,,0.216465,0,,,,,,86,WORD,UN,33,filter,RODENT,m,0.216465,,,,,,-0.02734375,-0.395833333,0,0,0,,0,182,182,145,1,
,,,,,,,,,,,,,,,,,,5ed29ca1126970098589f622,2020-08-10_18h08.44.146,lexical_decision_task_MP,2020.1.3,Win32,60,z,0,,,,,,,,0.51759,0,,,,,,177,WORD,UN,50,inform,ADVENT,m,0.51759,,,,,,-0.02734375,-0.395833333,0,0,0,,0,183,183,236,1,
,,,,,,,,,,,,,,,,,,5ed29ca1126970098589f622,2020-08-10_18h08.44.146,lexical_decision_task_MP,2020.1.3,Win32,60,z,0,,,,,,,,1.11881,0,,,,,,8,WORD,"ID",50,abrupt,ABRUPT,m,1.11881,,,,,,-0.02734375,-0.395833333,0,0,0,,0,184,184,67,1,
,,,,,,,,,,,,,,,,,,5ed29ca1126970098589f622,2020-08-10_18h08.44.146,lexical_decision_task_MP,2020.1.3,Win32,60,m,1,,,,,,,,0.6498,1,,,,,,127,WORD,UN,50,senior,CASTLE,m,0.6498,,,,,,-0.02734375,-0.395833333,0,0,0,,0,185,185,186,1,
,,,,,,,,,,,,,,,,,,5ed29ca1126970098589f622,2020-08-10_18h08.44.146,lexical_decision_task_MP,2020.1.3,Win32,60,z,0,,,,,,,,0.38703,0,,,,,,50,WORD,"ID",50,snatch,SNATCH,m,0.38703,,,,,,-0.02734375,-0.395833333,0,0,0,,0,186,186,109,1,
,,,,,,,,,,,,,,,,,,5ed29ca1126970098589f622,2020-08-10_18h08.44.146,lexical_decision_task_MP,2020.1.3,Win32,60,m,1,,,,,,,,0.25429,1,,,,,,221,WORD,"ID",33,mascot,MASCOT,m,0.25429,,,,,,-0.02734375,-0.395833333,0,0,0,,0,187,187,40,1,
,,,,,,,,,,,,,,,,,,5ed29ca1126970098589f622,2020-08-10_18h08.44.146,lexical_decision_task_MP,2020.1.3,Win32,60,m,0,,,,,,,,0.417935,0,,,,,,346,NW,UN,33,kerift,SAUDIC,z,0.417935,,,,,,-0.02734375,-0.395833333,0,0,0,,0,188,188,405,1,
,,,,,,,,,,,,,,,,,,5ed29ca1126970098589f622,2020-08-10_18h08.44.146,lexical_decision_task_MP,2020.1.3,Win32,60,m,1,,,,,,,,0.63215,1,,,,,,155,WORD,UN,50,cradle,LIZARD,m,0.63215,,,,,,-0.02734375,-0.395833333,0,0,0,,0,189,189,214,1,
,,,,,,,,,,,,,,,,,,5ed29ca1126970098589f622,2020-08-10_18h08.44.146,lexical_decision_task_MP,2020.1.3,Win32,60,z,1,,,,,,,,0.417645,1,,,,,,466,NW,"ID",33,hocite,HOCITE,z,0.417645,,,,,,-0.02734375,-0.395833333,0,0,0,,0,190,190,285,1,
,,,,,,,,,,,,,,,,,,5ed29ca1126970098589f622,2020-08-10_18h08.44.146,lexical_decision_task_MP,2020.1.3,Win32,60,m,0,,,,,,,,0.23463,0,,,,,,242,NW,"ID",50,unwert,UNWERT,z,0.23463,,,,,,-0.02734375,-0.395833333,0,0,0,,0,191,191,301,1,
,,,,,,,,,,,,,,,,,,5ed29ca1126970098589f622,2020-08-10_18h08.44.146,lexical_decision_task_MP,2020.1.3,Win32,60,m,0,,,,,,,,0.232075,0,,,,,,306,NW,UN,33,kirafe,SOUNGE,z,0.232075,,,,,,-0.02734375,-0.395833333,0,0,0,,0,192,192,365,1,
,,,,,,,,,,,,,,,,,,5ed29ca1126970098589f622,2020-08-10_18h08.44.146,lexical_decision_task_MP,2020.1.3,Win32,60,m,0,,,,,,,,0.318715,0,,,,,,402,NW,UN,50,bruats,SYNTIC,z,0.318715,,,,,,-0.02734375,-0.395833333,0,0,0,,0,193,193,461,1,
,,,,,,,,,,,,,,,,,,5ed29ca1126970098589f622,2020-08-10_18h08.44.146,lexical_decision_task_MP,2020.1.3,Win32,60,m,1,,,,,,,,0.381045,1,,,,,,100,WORD,UN,33,wrench,CARBON,m,0.381045,,,,,,-0.02734375,-0.395833333,0,0,0,,0,194,194,159,1,
,,,,,,,,,,,,,,,,,,5ed29ca1126970098589f622,2020-08-10_18h08.44.146,lexical_decision_task_MP,2020.1.3,Win32,60,m,1,,,,,,,,0.41636,1,,,,,,99,WORD,UN,33,carbon,FLUENT,m,0.41636,,,,,,-0.02734375,-0.395833333,0,0,0,,0,195,195,158,1,
,,,,,,,,,,,,,,,,,,5ed29ca1126970098589f622,2020-08-10_18h08.44.146,lexical_decision_task_MP,2020.1.3,Win32,60,z,0,,,,,,,,0.38509,0,,,,,,81,WORD,UN,33,stigma,FRIEND,m,0.38509,,,,,,-0.02734375,-0.395833333,0,0,0,,0,196,196,140,1,
,,,,,,,,,,,,,,,,,,5ed29ca1126970098589f622,2020-08-10_18h08.44.146,lexical_decision_task_MP,2020.1.3,Win32,60,m,1,,,,,,,,0.26926,1,,,,,,117,WORD,UN,33,flight,BRANCH,m,0.26926,,,,,,-0.02734375,-0.395833333,0,0,0,,0,197,197,176,1,
,,,,,,,,,,,,,,,,,,5ed29ca1126970098589f622,2020-08-10_18h08.44.146,lexical_decision_task_MP,2020.1.3,Win32,60,m,0,,,,,,,,0.719785,0,,,,,,414,NW,UN,50,higsta,SERBOL,z,0.719785,,,,,,-0.02734375,-0.395833333,0,0,0,,0,198,198,473,1,
,,,,,,,,,,,,,,,,,,5ed29ca1126970098589f622,2020-08-10_18h08.44.146,lexical_decision_task_MP,2020.1.3,Win32,60,z,1,,,,,,,,0.3246,1,,,,,,299,NW,"ID",50,sturch,STURCH,z,0.3246,,,,,,-0.02734375,-0.395833333,0,0,0,,0,199,199,358,1,
,,,,,,,,,,,,,,,,,,5ed29ca1126970098589f622,2020-08-10_18h08.44.146,lexical_decision_task_MP,2020.1.3,Win32,60,m,1,,,,,,,,0.36828,1,,,,,,61,WORD,UN,33,region,PONDER,m,0.36828,,,,,,-0.02734375,-0.395833333,0,0,0,,0,200,200,120,1,
,,,,,,,,,,,,,,,,,,5ed29ca1126970098589f622,2020-08-10_18h08.44.146,lexical_decision_task_MP,2020.1.3,Win32,60,z,0,,,,,,,,1.000575,0,,,,,,82,WORD,UN,33,result,STIGMA,m,1.000575,,,,,,-0.02734375,-0.395833333,0,0,0,,0,201,201,141,1,
,,,,,,,,,,,,,,,,,,5ed29ca1126970098589f622,2020-08-10_18h08.44.146,lexical_decision_task_MP,2020.1.3,Win32,60,m,1,,,,,,,,0.1544,1,,,,,,125,WORD,UN,50,enough,NICKEL,m,0.1544,,,,,,-0.02734375,-0.395833333,0,0,0,,0,202,202,184,1,
,,,,,,,,,,,,,,,,,,5ed29ca1126970098589f622,2020-08-10_18h08.44.146,lexical_decision_task_MP,2020.1.3,Win32,60,m,0,,,,,,,,0.78953,0,,,,,,315,NW,UN,33,scregm,LASTON,z,0.78953,,,,,,-0.02734375,-0.395833333,0,0,0,,0,203,203,374,1,
,,,,,,,,,,,,,,,,,,5ed29ca1126970098589f622,2020-08-10_18h08.44.146,lexical_decision_task_MP,2020.1.3,Win32,60,z,1,,,,,,,,0.25344,1,,,,,,410,NW,UN,50,orchin,TUNORY,z,0.25344,,,,,,-0.02734375,-0.395833333,0,0,0,,0,204,204,469,1,
,,,,,,,,,,,,,,,,,,5ed29ca1126970098589f622,2020-08-10_18h08.44.146,lexical_decision_task_MP,2020.1.3,Win32,60,z,0,,,,,,,,0.086315,0,,,,,,198,WORD,"ID",33,wicked,WICKED,m,0.086315,,,,,,-0.02734375,-0.395833333,0,0,0,,0,205,205,17,1,
,,,,,,,,,,,,,,,,,,5ed29ca1126970098589f622,2020-08-10_18h08.44.146,lexical_decision_task_MP,2020.1.3,Win32,60,m,1,,,,,,,,0.03404,1,,,,,,175,WORD,UN,50,strife,FABRIC,m,0.03404,,,,,,-0.02734375,-0.395833333,0,0,0,,0,206,206,234,1,
,,,,,,,,,,,,,,,,,,5ed29ca1126970098589f622,2020-08-10_18h08.44.146,lexical_decision_task_MP,2020.1.3,Win32,60,z,1,,,,,,,,0.22484,1,,,,,,344,NW,UN,33,absend,SCRILY,z,0.22484,,,,,,-0.02734375,-0.395833333,0,0,0,,0,207,207,403,1,
,,,,,,,,,,,,,,,,,,5ed29ca1126970098589f622,2020-08-10_18h08.44.146,lexical_decision_task_MP,2020.1.3,Win32,60,m,1,,,,,,,,0.05121,1,,,,,,237,WORD,"ID",33,poster,POSTER,m,0.05121,,,,,,-0.02734375,-0.395833333,0,0,0,,0,208,208,56,1,
,,,,,,,,,,,,,,,,,,5ed29ca1126970098589f622,2020-08-10_18h08.44.146,lexical_decision_task_MP,2020.1.3,Win32,60,m,1,,,,,,,,0.483725,1,,,,,,208,WORD,"ID",33,hockey,HOCKEY,m,0.483725,,,,,,-0.02734375,-0.395833333,0,0,0,,0,209,209,27,1,
,,,,,,,,,,,,,,,,,,5ed29ca1126970098589f622,2020-08-10_18h08.44.146,lexical_decision_task_MP,2020.1.3,Win32,60,z,1,,,,,,,,0.31878,1,,,,,,379,NW,UN,50,cavory,AUTING,z,0.31878,,,,,,-0.02734375,-0.395833333,0,0,0,,0,210,210,438,1,
,,,,,,,,,,,,,,,,,,5ed29ca1126970098589f622,2020-08-10_18h08.44.146,lexical_decision_task_MP,2020.1.3,Win32,60,m,0,,,,,,,,0.254935,0,,,,,,347,NW,UN,33,dumple,KERIFT,z,0.254935,,,,,,-0.02734375,-0.395833333,0,0,0,,0,211,211,406,1,
,,,,,,,,,,,,,,,,,,5ed29ca1126970098589f622,2020-08-10_18h08.44.146,lexical_decision_task_MP,2020.1.3,Win32,60,z,1,,,,,,,,0.24697,1,,,,,,291,NW,"ID",50,pretch,PRETCH,z,0.24697,,,,,,-0.02734375,-0.395833333,0,0,0,,0,212,212,350,1,
,,,,,,,,,,,,,,,,,,5ed29ca1126970098589f622,2020-08-10_18h08.44.146,lexical_decision_task_MP,2020.1.3,Win32,60,m,1,,,,,,,,0.185685,1,,,,,,52,WORD,"ID",50,impose,IMPOSE,m,0.185685,,,,,,-0.02734375,-0.395833333,0,0,0,,0,213,213,111,1,
,,,,,,,,,,,,,,,,,,5ed29ca1126970098589f622,2020-08-10_18h08.44.146,lexical_decision_task_MP,2020.1.3,Win32,60,m,1,,,,,,,,0.21507,1,,,,,,145,WORD,UN,50,couple,PARISH,m,0.21507,,,,,,-0.02734375,-0.395833333,0,0,0,,0,214,214,204,1,
,,,,,,,,,,,,,,,,,,5ed29ca1126970098589f622,2020-08-10_18h08.44.146,lexical_decision_task_MP,2020.1.3,Win32,60,m,1,,,,,,,,0.25223,1,,,,,,17,WORD,"ID",50,charge,CHARGE,m,0.25223,,,,,,-0.02734375,-0.395833333,0,0,0,,0,215,215,76,1,
,,,,,,,,,,,,,,,,,,5ed29ca1126970098589f622,2020-08-10_18h08.44.146,lexical_decision_task_MP,2020.1.3,Win32,60,m,1,,,,,,,,0.46642,1,,,,,,101,WORD,UN,33,direct,WRENCH,m,0.46642,,,,,,-0.02734375,-0.395833333,0,0,0,,0,216,216,160,1,
,,,,,,,,,,,,,,,,,,5ed29ca1126970098589f622,2020-08-10_18h08.44.146,lexical_decision_task_MP,2020.1.3,Win32,60,m,1,,,,,,,,0.736855,1,,,,,,231,WORD,"ID",33,export,EXPORT,m,0.736855,,,,,,-0.02734375,-0.395833333,0,0,0,,0,217,217,50,1,
,,,,,,,,,,,,,,,,,,5ed29ca1126970098589f622,2020-08-10_18h08.44.146,lexical_decision_task_MP,2020.1.3,Win32,60,m,1,,,,,,,,0.335155,1,,,,,,58,WORD,"ID",50,foster,FOSTER,m,0.335155,,,,,,-0.02734375,-0.395833333,0,0,0,,0,218,218,117,1,
,,,,,,,,,,,,,,,,,,5ed29ca1126970098589f622,2020-08-10_18h08.44.146,lexical_decision_task_MP,2020.1.3,Win32,60,m,0,,,,,,,,0.36616,0,,,,,,326,NW,UN,33,plenac,IGUADE,z,0.36616,,,,,,-0.02734375,-0.395833333,0,0,0,,0,219,219,385,1,
,,,,,,,,,,,,,,,,,,5ed29ca1126970098589f622,2020-08-10_18h08.44.146,lexical_decision_task_MP,2020.1.3,Win32,60,z,0,,,,,,,,0.46756,0,,,,,,229,WORD,"ID",33,mother,MOTHER,m,0.46756,,,,,,-0.02734375,-0.395833333,0,0,0,,0,220,220,48,1,
,,,,,,,,,,,,,,,,,,5ed29ca1126970098589f622,2020-08-10_18h08.44.146,lexical_decision_task_MP,2020.1.3,Win32,60,m,1,,,,,,,,0.00801,1,,,,,,2,WORD,"ID",50,bridge,BRIDGE,m,0.00801,,,,,,-0.02734375,-0.395833333,0,0,0,,0,221,221,61,1,
,,,,,,,,,,,,,,,,,,5ed29ca1126970098589f622,2020-08-10_18h08.44.146,lexical_decision_task_MP,2020.1.3,Win32,60,z,1,,,,,,,,0.248615,1,,,,,,289,NW,"ID",50,starby,STARBY,z,0.248615,,,,,,-0.02734375,-0.395833333,0,0,0,,0,222,222,348,1,
,,,,,,,,,,,,,,,,,,5ed29ca1126970098589f622,2020-08-10_18h08.44.146,lexical_decision_task_MP,2020.1.3,Win32,60,z,0,,,,,,,,0.18486,0,,,,,,128,WORD,UN,50,marvel,SENIOR,m,0.18486,,,,,,-0.02734375,-0.395833333,0,0,0,,0,223,223,187,1,
,,,,,,,,,,,,,,,,,,5ed29ca1126970098589f622,2020-08-10_18h08.44.146,lexical_decision_task_MP,2020.1.3,Win32,60,z,0,,,,,,,,0.51696,0,,,,,,194,WORD,"ID",33,absent,ABSENT,m,0.51696,,,,,,-0.02734375,-0.395833333,0,0,0,,0,224,224,13,1,
,,,,,,,,,,,,,,,,,,5ed29ca1126970098589f622,2020-08-10_18h08.44.146,lexical_decision_task_MP,2020.1.3,Win32,60,m,1,,,,,,,,0.11781,1,,,,,,202,WORD,"ID",33,factor,FACTOR,m,0.11781,,,,,,-0.02734375,-0.395833333,0,0,0,,0,225,225,21,1,
,,,,,,,,,,,,,,,,,,5ed29ca1126970098589f622,2020-08-10_18h08.44.146,lexical_decision_task_MP,2020.1.3,Win32,60,m,1,,,,,,,,0.249355,1,,,,,,201,WORD,"ID",33,admire,ADMIRE,m,0.249355,,,,,,-0.02734375,-0.395833333,0,0,0,,0,226,226,20,1,
,,,,,,,,,,,,,,,,,,5ed29ca1126970098589f622,2020-08-10_18h08.44.146,lexical_decision_task_MP,2020.1.3,Win32,60,m,0,,,,,,,,0.27559,0,,,,,,292,NW,"ID",50,ablint,ABLINT,z,0.27559,,,,,,-0.02734375,-0.395833333,0,0,0,,0,227,227,351,1,
,,,,,,,,,,,,,,,,,,5ed29ca1126970098589f622,2020-08-10_18h08.44.146,lexical_decision_task_MP,2020.1.3,Win32,60,m,0,,,,,,,,0.33406,0,,,,,,317,NW,UN,33,reagly,WORBAL,z,0.33406,,,,,,-0.02734375,-0.395833333,0,0,0,,0,228,228,376,1,
,,,,,,,,,,,,,,,,,,5ed29ca1126970098589f622,2020-08-10_18h08.44.146,lexical_decision_task_MP,2020.1.3,Win32,60,m,0,,,,,,,,0.53332,0,,,,,,443,NW,"ID",33,dorsex,DORSEX,z,0.53332,,,,,,-0.02734375,-0.395833333,0,0,0,,0,229,229,262,1,
,,,,,,,,,,,,,,,,,,5ed29ca1126970098589f622,2020-08-10_18h08.44.146,lexical_decision_task_MP,2020.1.3,Win32,60,m,0,,,,,,,,0.51621,0,,,,,,398,NW,UN,50,fouret,BLUNDE,z,0.51621,,,,,,-0.02734375,-0.395833333,0,0,0,,0,230,230,457,1,
,,,,,,,,,,,,,,,,,,5ed29ca1126970098589f622,2020-08-10_18h08.44.146,lexical_decision_task_MP,2020.1.3,Win32,60,z,0,,,,,,,,0.426635,0,,,,,,126,WORD,UN,50,castle,ENOUGH,m,0.426635,,,,,,-0.02734375,-0.395833333,0,0,0,,0,231,231,185,1,
,,,,,,,,,,,,,,,,,,5ed29ca1126970098589f622,2020-08-10_18h08.44.146,lexical_decision_task_MP,2020.1.3,Win32,60,m,1,,,,,,,,0.331555,1,,,,,,66,WORD,UN,33,policy,GOSPEL,m,0.331555,,,,,,-0.02734375,-0.395833333,0,0,0,,0,232,232,125,1,
,,,,,,,,,,,,,,,,,,5ed29ca1126970098589f622,2020-08-10_18h08.44.146,lexical_decision_task_MP,2020.1.3,Win32,60,z,1,,,,,,,,0.874085,1,,,,,,450,NW,"ID",33,phrect,PHRECT,z,0.874085,,,,,,-0.02734375,-0.395833333,0,0,0,,0,233,233,269,1,
,,,,,,,,,,,,,,,,,,5ed29ca1126970098589f622,2020-08-10_18h08.44.146,lexical_decision_task_MP,2020.1.3,Win32,60,z,1,,,,,,,,0.672265,1,,,,,,322,NW,UN,33,rosail,SLANCH,z,0.672265,,,,,,-0.02734375,-0.395833333,0,0,0,,0,234,234,381,1,
,,,,,,,,,,,,,,,,,,5ed29ca1126970098589f622,2020-08-10_18h08.44.146,lexical_decision_task_MP,2020.1.3,Win32,60,m,1,,,,,,,,0.88421,1,,,,,,154,WORD,UN,50,lizard,AUTHOR,m,0.88421,,,,,,-0.02734375,-0.395833333,0,0,0,,0,235,235,213,1,
,,,,,,,,,,,,,,,,,,5ed29ca1126970098589f622,2020-08-10_18h08.44.146,lexical_decision_task_MP,2020.1.3,Win32,60,z,1,,,,,,,,1.015005,1,,,,,,359,NW,UN,33,desory,FONVER,z,1.015005,,,,,,-0.02734375,-0.395833333,0,0,0,,0,236,236,418,1,
,,,,,,,,,,,,,,,,,,5ed29ca1126970098589f622,2020-08-10_18h08.44.146,lexical_decision_task_MP,2020.1.3,Win32,60,m,1,,,,,,,,0.933395,1,,,,,,142,WORD,UN,50,reason,SPRUCE,m,0.933395,,,,,,-0.02734375,-0.395833333,0,0,0,,0,237,237,201,1,
,,,,,,,,,,,,,,,,,,5ed29ca1126970098589f622,2020-08-10_18h08.44.146,lexical_decision_task_MP,2020.1.3,Win32,60,z,1,,,,,,,,1.67499,1,,,,,,475,NW,"ID",33,pebric,PEBRIC,z,1.67499,,,,,,-0.02734375,-0.395833333,0,0,0,,0,238,238,294,1,
,,,,,,,,,,,,,,,,,,5ed29ca1126970098589f622,2020-08-10_18h08.44.146,lexical_decision_task_MP,2020.1.3,Win32,60,m,1,,,,,,,,0.317805,1,,,,,,84,WORD,UN,33,strand,MORTAL,m,0.317805,,,,,,-0.02734375,-0.395833333,0,0,0,,0,239,239,143,1,
,,,,,,,,,,,,,,,,,,5ed29ca1126970098589f622,2020-08-10_18h08.44.146,lexical_decision_task_MP,2020.1.3,Win32,60,z,1,,,,,,,,0.501665,1,,,,,,464,NW,"ID",33,chaite,CHAITE,z,0.501665,,,,,,-0.02734375,-0.395833333,0,0,0,,0,240,240,283,1,
,,,,,,,,,,,,,,,,,,5ed29ca1126970098589f622,2020-08-10_18h08.44.146,lexical_decision_task_MP,2020.1.3,Win32,60,m,1,,,,,,,,0.312445,1,,,,,,90,WORD,UN,33,expand,RELISH,m,0.312445,,,,,,-0.02734375,-0.395833333,0,0,0,space,0,241,241,149,1,9.58204
,,,,,,,,,,,,,,,,,,5ed29ca1126970098589f622,2020-08-10_18h08.44.146,lexical_decision_task_MP,2020.1.3,Win32,60,z,1,,,,,,,,1.83514,1,,,,,,272,NW,"ID",50,damilt,DAMILT,z,1.83514,,,,,,-0.02734375,-0.395833333,0,0,0,,0,242,242,331,1,
,,,,,,,,,,,,,,,,,,5ed29ca1126970098589f622,2020-08-10_18h08.44.146,lexical_decision_task_MP,2020.1.3,Win32,60,z,0,,,,,,,,0.45712,0,,,,,,180,WORD,UN,50,thrive,SILENT,m,0.45712,,,,,,-0.02734375,-0.395833333,0,0,0,,0,243,243,239,1,
,,,,,,,,,,,,,,,,,,5ed29ca1126970098589f622,2020-08-10_18h08.44.146,lexical_decision_task_MP,2020.1.3,Win32,60,m,1,,,,,,,,0.84751,1,,,,,,143,WORD,UN,50,sponge,REASON,m,0.84751,,,,,,-0.02734375,-0.395833333,0,0,0,,0,244,244,202,1,
,,,,,,,,,,,,,,,,,,5ed29ca1126970098589f622,2020-08-10_18h08.44.146,lexical_decision_task_MP,2020.1.3,Win32,60,m,1,,,,,,,,0.549695,1,,,,,,91,WORD,UN,33,hunger,EXPAND,m,0.549695,,,,,,-0.02734375,-0.395833333,0,0,0,,0,245,245,150,1,
,,,,,,,,,,,,,,,,,,5ed29ca1126970098589f622,2020-08-10_18h08.44.146,lexical_decision_task_MP,2020.1.3,Win32,60,z,1,,,,,,,,0.31953,1,,,,,,408,NW,UN,50,elopia,HURNIA,z,0.31953,,,,,,-0.02734375,-0.395833333,0,0,0,,0,246,246,467,1,
,,,,,,,,,,,,,,,,,,5ed29ca1126970098589f622,2020-08-10_18h08.44.146,lexical_decision_task_MP,2020.1.3,Win32,60,m,0,,,,,,,,0.186905,0,,,,,,390,NW,UN,50,theldy,HATRUS,z,0.186905,,,,,,-0.02734375,-0.395833333,0,0,0,,0,247,247,449,1,
,,,,,,,,,,,,,,,,,,5ed29ca1126970098589f622,2020-08-10_18h08.44.146,lexical_decision_task_MP,2020.1.3,Win32,60,z,0,,,,,,,,0.40071,0,,,,,,87,WORD,UN,33,sprawl,FILTER,m,0.40071,,,,,,-0.02734375,-0.395833333,0,0,0,,0,248,248,146,1,
,,,,,,,,,,,,,,,,,,5ed29ca1126970098589f622,2020-08-10_18h08.44.146,lexical_decision_task_MP,2020.1.3,Win32,60,z,0,,,,,,,,0.52068,0,,,,,,45,WORD,"ID",50,clergy,CLERGY,m,0.52068,,,,,,-0.02734375,-0.395833333,0,0,0,,0,249,249,104,1,
,,,,,,,,,,,,,,,,,,5ed29ca1126970098589f622,2020-08-10_18h08.44.146,lexical_decision_task_MP,2020.1.3,Win32,60,m,1,,,,,,,,0.517465,1,,,,,,130,WORD,UN,50,quench,STUPID,m,0.517465,,,,,,-0.02734375,-0.395833333,0,0,0,,0,250,250,189,1,
,,,,,,,,,,,,,,,,,,5ed29ca1126970098589f622,2020-08-10_18h08.44.146,lexical_decision_task_MP,2020.1.3,Win32,60,z,1,,,,,,,,0.00413,1,,,,,,363,NW,UN,50,impote,BREALI,z,0.00413,,,,,,-0.02734375,-0.395833333,0,0,0,,0,251,251,422,1,
,,,,,,,,,,,,,,,,,,5ed29ca1126970098589f622,2020-08-10_18h08.44.146,lexical_decision_task_MP,2020.1.3,Win32,60,z,1,,,,,,,,0.886795,1,,,,,,440,NW,"ID",33,saride,SARIDE,z,0.886795,,,,,,-0.02734375,-0.395833333,0,0,0,,0,252,252,259,1,
,,,,,,,,,,,,,,,,,,5ed29ca1126970098589f622,2020-08-10_18h08.44.146,lexical_decision_task_MP,2020.1.3,Win32,60,z,1,,,,,,,,0.49035,1,,,,,,276,NW,"ID",50,yarmon,YARMON,z,0.49035,,,,,,-0.02734375,-0.395833333,0,0,0,,0,253,253,335,1,
,,,,,,,,,,,,,,,,,,5ed29ca1126970098589f622,2020-08-10_18h08.44.146,lexical_decision_task_MP,2020.1.3,Win32,60,m,1,,,,,,,,0.234965,1,,,,,,12,WORD,"ID",50,orange,ORANGE,m,0.234965,,,,,,-0.02734375,-0.395833333,0,0,0,,0,254,254,71,1,
,,,,,,,,,,,,,,,,,,5ed29ca1126970098589f622,2020-08-10_18h08.44.146,lexical_decision_task_MP,2020.1.3,Win32,60,z,1,,,,,,,,0.19133,1,,,,,,281,NW,"ID",50,melaty,MELATY,z,0.19133,,,,,,-0.02734375,-0.395833333,0,0,0,,0,255,255,340,1,
,,,,,,,,,,,,,,,,,,5ed29ca1126970098589f622,2020-08-10_18h08.44.146,lexical_decision_task_MP,2020.1.3,Win32,60,z,1,,,,,,,,0.630545,1,,,,,,268,NW,"ID",50,packes,PACKES,z,0.630545,,,,,,-0.02734375,-0.395833333,0,0,0,,0,256,256,327,1,
,,,,,,,,,,,,,,,,,,5ed29ca1126970098589f622,2020-08-10_18h08.44.146,lexical_decision_task_MP,2020.1.3,Win32,60,m,1,,,,,,,,0.049995,1,,,,,,25,WORD,"ID",50,domain,DOMAIN,m,0.049995,,,,,,-0.02734375,-0.395833333,0,0,0,,0,257,257,84,1,
,,,,,,,,,,,,,,,,,,5ed29ca1126970098589f622,2020-08-10_18h08.44.146,lexical_decision_task_MP,2020.1.3,Win32,60,m,0,,,,,,,,0.28786,0,,,,,,280,NW,"ID",50,curbol,CURBOL,z,0.28786,,,,,,-0.02734375,-0.395833333,0,0,0,,0,258,258,339,1,
,,,,,,,,,,,,,,,,,,5ed29ca1126970098589f622,2020-08-10_18h08.44.146,lexical_decision_task_MP,2020.1.3,Win32,60,m,1,,,,,,,,0.221405,1,,,,,,193,WORD,"ID",33,object,OBJECT,m,0.221405,,,,,,-0.02734375,-0.395833333,0,0,0,,0,259,259,12,1,
,,,,,,,,,,,,,,,,,,5ed29ca1126970098589f622,2020-08-10_18h08.44.146,lexical_decision_task_MP,2020.1.3,Win32,60,m,0,,,,,,,,0.218765,0,,,,,,309,NW,UN,33,daniet,AMILOY,z,0.218765,,,,,,-0.02734375,-0.395833333,0,0,0,,0,260,260,368,1,
,,,,,,,,,,,,,,,,,,5ed29ca1126970098589f622,2020-08-10_18h08.44.146,lexical_decision_task_MP,2020.1.3,Win32,60,z,1,,,,,,,,0.00793,1,,,,,,384,NW,UN,50,injore,GUESCO,z,0.00793,,,,,,-0.02734375,-0.395833333,0,0,0,,0,261,261,443,1,
,,,,,,,,,,,,,,,,,,5ed29ca1126970098589f622,2020-08-10_18h08.44.146,lexical_decision_task_MP,2020.1.3,Win32,60,z,1,,,,,,,,0.02068,1,,,,,,391,NW,UN,50,rouncy,THELDY,z,0.02068,,,,,,-0.02734375,-0.395833333,0,0,0,,0,262,262,450,1,
,,,,,,,,,,,,,,,,,,5ed29ca1126970098589f622,2020-08-10_18h08.44.146,lexical_decision_task_MP,2020.1.3,Win32,60,m,0,,,,,,,,0.283465,0,,,,,,415,NW,UN,50,pathel,HIGSTA,z,0.283465,,,,,,-0.02734375,-0.395833333,0,0,0,,0,263,263,474,1,
,,,,,,,,,,,,,,,,,,5ed29ca1126970098589f622,2020-08-10_18h08.44.146,lexical_decision_task_MP,2020.1.3,Win32,60,z,0,,,,,,,,0.49167,0,,,,,,85,WORD,UN,33,rodent,SPRAWL,m,0.49167,,,,,,-0.02734375,-0.395833333,0,0,0,,0,264,264,144,1,
,,,,,,,,,,,,,,,,,,5ed29ca1126970098589f622,2020-08-10_18h08.44.146,lexical_decision_task_MP,2020.1.3,Win32,60,m,1,,,,,,,,0.309015,1,,,,,,151,WORD,UN,50,rocket,MYSTIC,m,0.309015,,,,,,-0.02734375,-0.395833333,0,0,0,,0,265,265,210,1,
,,,,,,,,,,,,,,,,,,5ed29ca1126970098589f622,2020-08-10_18h08.44.146,lexical_decision_task_MP,2020.1.3,Win32,60,m,1,,,,,,,,0.449735,1,,,,,,43,WORD,"ID",50,tongue,TONGUE,m,0.449735,,,,,,-0.02734375,-0.395833333,0,0,0,,0,266,266,102,1,
,,,,,,,,,,,,,,,,,,5ed29ca1126970098589f622,2020-08-10_18h08.44.146,lexical_decision_task_MP,2020.1.3,Win32,60,m,1,,,,,,,,0.60067,1,,,,,,72,WORD,UN,33,source,BRIGHT,m,0.60067,,,,,,-0.02734375,-0.395833333,0,0,0,,0,267,267,131,1,
,,,,,,,,,,,,,,,,,,5ed29ca1126970098589f622,2020-08-10_18h08.44.146,lexical_decision_task_MP,2020.1.3,Win32,60,m,0,,,,,,,,0.39998,0,,,,,,376,NW,UN,50,veigma,IGUARE,z,0.39998,,,,,,-0.02734375,-0.395833333,0,0,0,,0,268,268,435,1,
,,,,,,,,,,,,,,,,,,5ed29ca1126970098589f622,2020-08-10_18h08.44.146,lexical_decision_task_MP,2020.1.3,Win32,60,m,0,,,,,,,,0.42185,0,,,,,,456,NW,"ID",33,broget,BROGET,z,0.42185,,,,,,-0.02734375,-0.395833333,0,0,0,,0,269,269,275,1,
,,,,,,,,,,,,,,,,,,5ed29ca1126970098589f622,2020-08-10_18h08.44.146,lexical_decision_task_MP,2020.1.3,Win32,60,m,0,,,,,,,,0.25108,0,,,,,,269,NW,"ID",50,orchet,ORCHET,z,0.25108,,,,,,-0.02734375,-0.395833333,0,0,0,,0,270,270,328,1,
,,,,,,,,,,,,,,,,,,5ed29ca1126970098589f622,2020-08-10_18h08.44.146,lexical_decision_task_MP,2020.1.3,Win32,60,m,1,,,,,,,,0.288495,1,,,,,,122,WORD,UN,50,strike,LINGER,m,0.288495,,,,,,-0.02734375,-0.395833333,0,0,0,,0,271,271,181,1,
,,,,,,,,,,,,,,,,,,5ed29ca1126970098589f622,2020-08-10_18h08.44.146,lexical_decision_task_MP,2020.1.3,Win32,60,z,0,,,,,,,,0.35352,0,,,,,,184,WORD,"ID",33,sleazy,SLEAZY,m,0.35352,,,,,,-0.02734375,-0.395833333,0,0,0,,0,272,272,3,1,
,,,,,,,,,,,,,,,,,,5ed29ca1126970098589f622,2020-08-10_18h08.44.146,lexical_decision_task_MP,2020.1.3,Win32,60,,0,,,,,,,,0.35352,-1,,,,,,37,WORD,"ID",50,insult,INSULT,m,,,,,,,-0.02734375,-0.395833333,0,0,0,,0,273,273,96,1,
,,,,,,,,,,,,,,,,,,5ed29ca1126970098589f622,2020-08-10_18h08.44.146,lexical_decision_task_MP,2020.1.3,Win32,60,,0,,,,,,,,0.35352,-1,,,,,,106,WORD,UN,33,slogan,RANSOM,m,,,,,,,-0.02734375,-0.395833333,0,0,0,,0,274,274,165,1,
,,,,,,,,,,,,,,,,,,5ed29ca1126970098589f622,2020-08-10_18h08.44.146,lexical_decision_task_MP,2020.1.3,Win32,60,,0,,,,,,,,0.35352,-1,,,,,,298,NW,"ID",50,piergy,PIERGY,z,,,,,,,-0.02734375,-0.395833333,0,0,0,,0,275,275,357,1,
,,,,,,,,,,,,,,,,,,5ed29ca1126970098589f622,2020-08-10_18h08.44.146,lexical_decision_task_MP,2020.1.3,Win32,60,m,1,,,,,,,,0.853735,1,,,,,,108,WORD,UN,33,wonder,RECKON,m,0.853735,,,,,,-0.02734375,-0.395833333,0,0,0,,0,276,276,167,1,
,,,,,,,,,,,,,,,,,,5ed29ca1126970098589f622,2020-08-10_18h08.44.146,lexical_decision_task_MP,2020.1.3,Win32,60,z,1,,,,,,,,0.85309,1,,,,,,405,NW,UN,50,nouply,FLUMNI,z,0.85309,,,,,,-0.02734375,-0.395833333,0,0,0,,0,277,277,464,1,
,,,,,,,,,,,,,,,,,,5ed29ca1126970098589f622,2020-08-10_18h08.44.146,lexical_decision_task_MP,2020.1.3,Win32,60,z,1,,,,,,,,0.902865,1,,,,,,461,NW,"ID",33,justre,JUSTRE,z,0.902865,,,,,,-0.02734375,-0.395833333,0,0,0,,0,278,278,280,1,
,,,,,,,,,,,,,,,,,,5ed29ca1126970098589f622,2020-08-10_18h08.44.146,lexical_decision_task_MP,2020.1.3,Win32,60,z,1,,,,,,,,0.70571,1,,,,,,279,NW,"ID",50,celond,CELOND,z,0.70571,,,,,,-0.02734375,-0.395833333,0,0,0,,0,279,279,338,1,
,,,,,,,,,,,,,,,,,,5ed29ca1126970098589f622,2020-08-10_18h08.44.146,lexical_decision_task_MP,2020.1.3,Win32,60,m,1,,,,,,,,0.60306,1,,,,,,216,WORD,"ID",33,behalf,BEHALF,m,0.60306,,,,,,-0.02734375,-0.395833333,0,0,0,,0,280,280,35,1,
,,,,,,,,,,,,,,,,,,5ed29ca1126970098589f622,2020-08-10_18h08.44.146,lexical_decision_task_MP,2020.1.3,Win32,60,z,1,,,,,,,,0.550385,1,,,,,,300,NW,"ID",50,yarion,YARION,z,0.550385,,,,,,-0.02734375,-0.395833333,0,0,0,,0,281,281,359,1,
,,,,,,,,,,,,,,,,,,5ed29ca1126970098589f622,2020-08-10_18h08.44.146,lexical_decision_task_MP,2020.1.3,Win32,60,m,1,,,,,,,,0.656655,1,,,,,,6,WORD,"ID",50,bundle,BUNDLE,m,0.656655,,,,,,-0.02734375,-0.395833333,0,0,0,,0,282,282,65,1,
,,,,,,,,,,,,,,,,,,5ed29ca1126970098589f622,2020-08-10_18h08.44.146,lexical_decision_task_MP,2020.1.3,Win32,60,z,1,,,,,,,,0.66646,1,,,,,,431,NW,"ID",33,chrums,CHRUMS,z,0.66646,,,,,,-0.02734375,-0.395833333,0,0,0,,0,283,283,250,1,
,,,,,,,,,,,,,,,,,,5ed29ca1126970098589f622,2020-08-10_18h08.44.146,lexical_decision_task_MP,2020.1.3,Win32,60,z,1,,,,,,,,1.236915,1,,,,,,421,NW,"ID",33,knisma,KNISMA,z,1.236915,,,,,,-0.02734375,-0.395833333,0,0,0,,0,284,284,240,1,
,,,,,,,,,,,,,,,,,,5ed29ca1126970098589f622,2020-08-10_18h08.44.146,lexical_decision_task_MP,2020.1.3,Win32,60,z,1,,,,,,,,0.73306,1,,,,,,439,NW,"ID",33,limpor,LIMPOR,z,0.73306,,,,,,-0.02734375,-0.395833333,0,0,0,,0,285,285,258,1,
,,,,,,,,,,,,,,,,,,5ed29ca1126970098589f622,2020-08-10_18h08.44.146,lexical_decision_task_MP,2020.1.3,Win32,60,z,1,,,,,,,,0.517595,1,,,,,,366,NW,UN,50,slique,TOSHEL,z,0.517595,,,,,,-0.02734375,-0.395833333,0,0,0,,0,286,286,425,1,
,,,,,,,,,,,,,,,,,,5ed29ca1126970098589f622,2020-08-10_18h08.44.146,lexical_decision_task_MP,2020.1.3,Win32,60,z,1,,,,,,,,0.78644,1,,,,,,393,NW,UN,50,spaqux,GANOUS,z,0.78644,,,,,,-0.02734375,-0.395833333,0,0,0,,0,287,287,452,1,
,,,,,,,,,,,,,,,,,,5ed29ca1126970098589f622,2020-08-10_18h08.44.146,lexical_decision_task_MP,2020.1.3,Win32,60,m,1,,,,,,,,0.8507,1,,,,,,107,WORD,UN,33,reckon,SLOGAN,m,0.8507,,,,,,-0.02734375,-0.395833333,0,0,0,,0,288,288,166,1,
,,,,,,,,,,,,,,,,,,5ed29ca1126970098589f622,2020-08-10_18h08.44.146,lexical_decision_task_MP,2020.1.3,Win32,60,z,1,,,,,,,,0.616345,1,,,,,,356,NW,UN,33,derain,OTHNIS,z,0.616345,,,,,,-0.02734375,-0.395833333,0,0,0,,0,289,289,415,1,
,,,,,,,,,,,,,,,,,,5ed29ca1126970098589f622,2020-08-10_18h08.44.146,lexical_decision_task_MP,2020.1.3,Win32,60,z,1,,,,,,,,0.80189,1,,,,,,378,NW,UN,50,auting,SHRILE,z,0.80189,,,,,,-0.02734375,-0.395833333,0,0,0,,0,290,290,437,1,
,,,,,,,,,,,,,,,,,,5ed29ca1126970098589f622,2020-08-10_18h08.44.146,lexical_decision_task_MP,2020.1.3,Win32,60,z,0,,,,,,,,0.75589,0,,,,,,220,WORD,"ID",33,voyage,VOYAGE,m,0.75589,,,,,,-0.02734375,-0.395833333,0,0,0,,0,291,291,39,1,
,,,,,,,,,,,,,,,,,,5ed29ca1126970098589f622,2020-08-10_18h08.44.146,lexical_decision_task_MP,2020.1.3,Win32,60,z,1,,,,,,,,0.874825,1,,,,,,377,NW,UN,50,shrile,INJORE,z,0.874825,,,,,,-0.02734375,-0.395833333,0,0,0,,0,292,292,436,1,
,,,,,,,,,,,,,,,,,,5ed29ca1126970098589f622,2020-08-10_18h08.44.146,lexical_decision_task_MP,2020.1.3,Win32,60,m,1,,,,,,,,0.602095,1,,,,,,32,WORD,"ID",50,buckle,BUCKLE,m,0.602095,,,,,,-0.02734375,-0.395833333,0,0,0,,0,293,293,91,1,
,,,,,,,,,,,,,,,,,,5ed29ca1126970098589f622,2020-08-10_18h08.44.146,lexical_decision_task_MP,2020.1.3,Win32,60,m,1,,,,,,,,0.799445,1,,,,,,173,WORD,UN,50,turkey,SHOWER,m,0.799445,,,,,,-0.02734375,-0.395833333,0,0,0,,0,294,294,232,1,
,,,,,,,,,,,,,,,,,,5ed29ca1126970098589f622,2020-08-10_18h08.44.146,lexical_decision_task_MP,2020.1.3,Win32,60,m,1,,,,,,,,1.06765,1,,,,,,22,WORD,"ID",50,jockey,JOCKEY,m,1.06765,,,,,,-0.02734375,-0.395833333,0,0,0,,0,295,295,81,1,
,,,,,,,,,,,,,,,,,,5ed29ca1126970098589f622,2020-08-10_18h08.44.146,lexical_decision_task_MP,2020.1.3,Win32,60,z,1,,,,,,,,0.8543,1,,,,,,412,NW,UN,50,equats,JILUER,z,0.8543,,,,,,-0.02734375,-0.395833333,0,0,0,,0,296,296,471,1,
,,,,,,,,,,,,,,,,,,5ed29ca1126970098589f622,2020-08-10_18h08.44.146,lexical_decision_task_MP,2020.1.3,Win32,60,m,1,,,,,,,,0.64931,1,,,,,,203,WORD,"ID",33,phrase,PHRASE,m,0.64931,,,,,,-0.02734375,-0.395833333,0,0,0,,0,297,297,22,1,
,,,,,,,,,,,,,,,,,,5ed29ca1126970098589f622,2020-08-10_18h08.44.146,lexical_decision_task_MP,2020.1.3,Win32,60,z,1,,,,,,,,0.582415,1,,,,,,427,NW,"ID",33,schind,SCHIND,z,0.582415,,,,,,-0.02734375,-0.395833333,0,0,0,,0,298,298,246,1,
,,,,,,,,,,,,,,,,,,5ed29ca1126970098589f622,2020-08-10_18h08.44.146,lexical_decision_task_MP,2020.1.3,Win32,60,z,1,,,,,,,,0.577915,1,,,,,,283,NW,"ID",50,veralf,VERALF,z,0.577915,,,,,,-0.02734375,-0.395833333,0,0,0,,0,299,299,342,1,
,,,,,,,,,,,,,,,,,,5ed29ca1126970098589f622,2020-08-10_18h08.44.146,lexical_decision_task_MP,2020.1.3,Win32,60,z,1,,,,,,,,0.586785,1,,,,,,297,NW,"ID",50,fertic,FERTIC,z,0.586785,,,,,,-0.02734375,-0.395833333,0,0,0,,0,300,300,356,1,
,,,,,,,,,,,,,,,,,,5ed29ca1126970098589f622,2020-08-10_18h08.44.146,lexical_decision_task_MP,2020.1.3,Win32,60,z,0,,,,,,,,0.54969,0,,,,,,59,WORD,"ID",50,splint,SPLINT,m,0.54969,,,,,,-0.02734375,-0.395833333,0,0,0,,0,301,301,118,1,
,,,,,,,,,,,,,,,,,,5ed29ca1126970098589f622,2020-08-10_18h08.44.146,lexical_decision_task_MP,2020.1.3,Win32,60,z,1,,,,,,,,0.518175,1,,,,,,417,NW,UN,50,suidle,EAROUD,z,0.518175,,,,,,-0.02734375,-0.395833333,0,0,0,,0,302,302,476,1,
,,,,,,,,,,,,,,,,,,5ed29ca1126970098589f622,2020-08-10_18h08.44.146,lexical_decision_task_MP,2020.1.3,Win32,60,m,1,,,,,,,,0.65441,1,,,,,,53,WORD,"ID",50,police,POLICE,m,0.65441,,,,,,-0.02734375,-0.395833333,0,0,0,,0,303,303,112,1,
,,,,,,,,,,,,,,,,,,5ed29ca1126970098589f622,2020-08-10_18h08.44.146,lexical_decision_task_MP,2020.1.3,Win32,60,z,1,,,,,,,,0.80162,1,,,,,,430,NW,"ID",33,caroey,CAROEY,z,0.80162,,,,,,-0.02734375,-0.395833333,0,0,0,,0,304,304,249,1,
,,,,,,,,,,,,,,,,,,5ed29ca1126970098589f622,2020-08-10_18h08.44.146,lexical_decision_task_MP,2020.1.3,Win32,60,m,1,,,,,,,,0.831305,1,,,,,,121,WORD,UN,50,linger,THRIVE,m,0.831305,,,,,,-0.02734375,-0.395833333,0,0,0,,0,305,305,180,1,
,,,,,,,,,,,,,,,,,,5ed29ca1126970098589f622,2020-08-10_18h08.44.146,lexical_decision_task_MP,2020.1.3,Win32,60,m,1,,,,,,,,0.557895,1,,,,,,170,WORD,UN,50,dragon,POUNCE,m,0.557895,,,,,,-0.02734375,-0.395833333,0,0,0,,0,306,306,229,1,
,,,,,,,,,,,,,,,,,,5ed29ca1126970098589f622,2020-08-10_18h08.44.146,lexical_decision_task_MP,2020.1.3,Win32,60,m,0,,,,,,,,0.68499,0,,,,,,327,NW,UN,33,broake,PLENAC,z,0.68499,,,,,,-0.02734375,-0.395833333,0,0,0,,0,307,307,386,1,
,,,,,,,,,,,,,,,,,,5ed29ca1126970098589f622,2020-08-10_18h08.44.146,lexical_decision_task_MP,2020.1.3,Win32,60,,0,,,,,,,,0.68499,-1,,,,,,260,NW,"ID",50,unject,UNJECT,z,,,,,,,-0.0234375,-0.399739583,0,0,0,,0,308,308,319,1,
,,,,,,,,,,,,,,,,,,5ed29ca1126970098589f622,2020-08-10_18h08.44.146,lexical_decision_task_MP,2020.1.3,Win32,60,z,0,,,,,,,,0.050295,0,,,,,,185,WORD,"ID",33,bother,BOTHER,m,0.050295,,,,,,-0.0234375,-0.399739583,0,0,0,,0,309,309,4,1,
,,,,,,,,,,,,,,,,,,5ed29ca1126970098589f622,2020-08-10_18h08.44.146,lexical_decision_task_MP,2020.1.3,Win32,60,z,1,,,,,,,,1.18461,1,,,,,,406,NW,UN,50,suiver,NOUPLY,z,1.18461,,,,,,-0.02734375,-0.395833333,0,0,0,,0,310,310,465,1,
,,,,,,,,,,,,,,,,,,5ed29ca1126970098589f622,2020-08-10_18h08.44.146,lexical_decision_task_MP,2020.1.3,Win32,60,z,0,,,,,,,,0.199195,0,,,,,,16,WORD,"ID",50,faucet,FAUCET,m,0.199195,,,,,,-0.02734375,-0.395833333,0,0,0,,0,311,311,75,1,
,,,,,,,,,,,,,,,,,,5ed29ca1126970098589f622,2020-08-10_18h08.44.146,lexical_decision_task_MP,2020.1.3,Win32,60,m,1,,,,,,,,0.6504,1,,,,,,9,WORD,"ID",50,hustle,HUSTLE,m,0.6504,,,,,,-0.028645833,-0.395833333,0,0,0,,0,312,312,68,1,
,,,,,,,,,,,,,,,,,,5ed29ca1126970098589f622,2020-08-10_18h08.44.146,lexical_decision_task_MP,2020.1.3,Win32,60,z,1,,,,,,,,0.70231,1,,,,,,301,NW,UN,33,miluer,FAINCH,z,0.70231,,,,,,-0.024739583,-0.3984375,0,0,0,,0,313,313,360,1,
,,,,,,,,,,,,,,,,,,5ed29ca1126970098589f622,2020-08-10_18h08.44.146,lexical_decision_task_MP,2020.1.3,Win32,60,m,0,,,,,,,,0.700855,0,,,,,,445,NW,"ID",33,minkel,MINKEL,z,0.700855,,,,,,-0.024739583,-0.3984375,0,0,0,,0,314,314,264,1,
,,,,,,,,,,,,,,,,,,5ed29ca1126970098589f622,2020-08-10_18h08.44.146,lexical_decision_task_MP,2020.1.3,Win32,60,z,1,,,,,,,,0.804185,1,,,,,,319,NW,UN,33,jockal,ZOMBER,z,0.804185,,,,,,-0.024739583,-0.3984375,0,0,0,,0,315,315,378,1,
,,,,,,,,,,,,,,,,,,5ed29ca1126970098589f622,2020-08-10_18h08.44.146,lexical_decision_task_MP,2020.1.3,Win32,60,m,0,,,,,,,,0.21932,0,,,,,,465,NW,"ID",33,whivex,WHIVEX,z,0.21932,,,,,,-0.024739583,-0.3984375,0,0,0,,0,316,316,284,1,
,,,,,,,,,,,,,,,,,,5ed29ca1126970098589f622,2020-08-10_18h08.44.146,lexical_decision_task_MP,2020.1.3,Win32,60,z,1,,,,,,,,1.61674,1,,,,,,386,NW,UN,50,gronce,ANCUST,z,1.61674,,,,,,-0.024739583,-0.3984375,0,0,0,,0,317,317,445,1,
,,,,,,,,,,,,,,,,,,5ed29ca1126970098589f622,2020-08-10_18h08.44.146,lexical_decision_task_MP,2020.1.3,Win32,60,z,0,,,,,,,,0.90049,0,,,,,,210,WORD,"ID",33,monkey,MONKEY,m,0.90049,,,,,,-0.024739583,-0.39453125,0,0,0,,0,318,318,29,1,
,,,,,,,,,,,,,,,,,,5ed29ca1126970098589f622,2020-08-10_18h08.44.146,lexical_decision_task_MP,2020.1.3,Win32,60,,0,,,,,,,,0.90049,-1,,,,,,264,NW,"ID",50,vackel,VACKEL,z,,,,,,,-0.026041667,-0.39453125,0,0,0,,0,319,319,323,1,
,,,,,,,,,,,,,,,,,,5ed29ca1126970098589f622,2020-08-10_18h08.44.146,lexical_decision_task_MP,2020.1.3,Win32,60,m,1,,,,,,,,0.532435,1,,,,,,54,WORD,"ID",50,ramble,RAMBLE,m,0.532435,,,,,,-0.026041667,-0.39453125,0,0,0,,0,320,320,113,1,
,,,,,,,,,,,,,,,,,,5ed29ca1126970098589f622,2020-08-10_18h08.44.146,lexical_decision_task_MP,2020.1.3,Win32,60,z,1,,,,,,,,0.933555,1,,,,,,428,NW,"ID",33,tandly,TANDLY,z,0.933555,,,,,,-0.026041667,-0.39453125,0,0,0,,0,321,321,247,1,
,,,,,,,,,,,,,,,,,,5ed29ca1126970098589f622,2020-08-10_18h08.44.146,lexical_decision_task_MP,2020.1.3,Win32,60,m,1,,,,,,,,0.7389,1,,,,,,223,WORD,"ID",33,kidney,KIDNEY,m,0.7389,,,,,,-0.026041667,-0.39453125,0,0,0,,0,322,322,42,1,
,,,,,,,,,,,,,,,,,,5ed29ca1126970098589f622,2020-08-10_18h08.44.146,lexical_decision_task_MP,2020.1.3,Win32,60,m,0,,,,,,,,0.62722,0,,,,,,334,NW,UN,33,desion,WATMEG,z,0.62722,,,,,,-0.026041667,-0.39453125,0,0,0,,0,323,323,393,1,
,,,,,,,,,,,,,,,,,,5ed29ca1126970098589f622,2020-08-10_18h08.44.146,lexical_decision_task_MP,2020.1.3,Win32,60,,0,,,,,,,,0.62722,-1,,,,,,420,NW,UN,50,pauche,GUSHOP,z,,,,,,,-0.026041667,-0.39453125,0,0,0,,0,324,324,479,1,
,,,,,,,,,,,,,,,,,,5ed29ca1126970098589f622,2020-08-10_18h08.44.146,lexical_decision_task_MP,2020.1.3,Win32,60,,0,,,,,,,,0.62722,-1,,,,,,35,WORD,"ID",50,socket,SOCKET,m,,,,,,,-0.026041667,-0.39453125,0,0,0,,0,325,325,94,1,
,,,,,,,,,,,,,,,,,,5ed29ca1126970098589f622,2020-08-10_18h08.44.146,lexical_decision_task_MP,2020.1.3,Win32,60,,0,,,,,,,,0.62722,-1,,,,,,226,WORD,"ID",33,casino,CASINO,m,,,,,,,-0.026041667,-0.39453125,0,0,0,,0,326,326,45,1,
,,,,,,,,,,,,,,,,,,5ed29ca1126970098589f622,2020-08-10_18h08.44.146,lexical_decision_task_MP,2020.1.3,Win32,60,z,0,,,,,,,,1.90238,0,,,,,,10,WORD,"ID",50,ethnic,ETHNIC,m,1.90238,,,,,,-0.026041667,-0.39453125,0,0,0,,0,327,327,69,1,
,,,,,,,,,,,,,,,,,,5ed29ca1126970098589f622,2020-08-10_18h08.44.146,lexical_decision_task_MP,2020.1.3,Win32,60,m,0,,,,,,,,0.067165,0,,,,,,274,NW,"ID",50,fumblo,FUMBLO,z,0.067165,,,,,,-0.026041667,-0.39453125,0,0,0,,0,328,328,333,1,
,,,,,,,,,,,,,,,,,,5ed29ca1126970098589f622,2020-08-10_18h08.44.146,lexical_decision_task_MP,2020.1.3,Win32,60,z,0,,,,,,,,0.25222,0,,,,,,230,WORD,"ID",33,fringe,FRINGE,m,0.25222,,,,,,-0.026041667,-0.39453125,0,0,0,,0,329,329,49,1,
,,,,,,,,,,,,,,,,,,5ed29ca1126970098589f622,2020-08-10_18h08.44.146,lexical_decision_task_MP,2020.1.3,Win32,60,m,1,,,,,,,,0.742245,1,,,,,,124,WORD,UN,50,nickel,BLOUSE,m,0.742245,,,,,,-0.026041667,-0.39453125,0,0,0,,0,330,330,183,1,
,,,,,,,,,,,,,,,,,,5ed29ca1126970098589f622,2020-08-10_18h08.44.146,lexical_decision_task_MP,2020.1.3,Win32,60,m,0,,,,,,,,0.10215,0,,,,,,332,NW,UN,33,catrie,VANGUE,z,0.10215,,,,,,-0.026041667,-0.39453125,0,0,0,,0,331,331,391,1,
,,,,,,,,,,,,,,,,,,5ed29ca1126970098589f622,2020-08-10_18h08.44.146,lexical_decision_task_MP,2020.1.3,Win32,60,,0,,,,,,,,0.10215,-1,,,,,,425,NW,"ID",33,frudge,FRUDGE,z,,,,,,,-0.026041667,-0.39453125,0,0,0,,0,332,332,244,1,
,,,,,,,,,,,,,,,,,,5ed29ca1126970098589f622,2020-08-10_18h08.44.146,lexical_decision_task_MP,2020.1.3,Win32,60,z,1,,,,,,,,1.219765,1,,,,,,448,NW,"ID",33,sadent,SADENT,z,1.219765,,,,,,-0.026041667,-0.39453125,0,0,0,,0,333,333,267,1,
,,,,,,,,,,,,,,,,,,5ed29ca1126970098589f622,2020-08-10_18h08.44.146,lexical_decision_task_MP,2020.1.3,Win32,60,z,0,,,,,,,,0.09165,0,,,,,,88,WORD,UN,33,permit,HUNGER,m,0.09165,,,,,,-0.026041667,-0.39453125,0,0,0,,0,334,334,147,1,
,,,,,,,,,,,,,,,,,,5ed29ca1126970098589f622,2020-08-10_18h08.44.146,lexical_decision_task_MP,2020.1.3,Win32,60,z,1,,,,,,,,0.038365,1,,,,,,455,NW,"ID",33,tondle,TONDLE,z,0.038365,,,,,,-0.026041667,-0.39453125,0,0,0,,0,335,335,274,1,
,,,,,,,,,,,,,,,,,,5ed29ca1126970098589f622,2020-08-10_18h08.44.146,lexical_decision_task_MP,2020.1.3,Win32,60,,0,,,,,,,,0.038365,-1,,,,,,211,WORD,"ID",33,infect,INFECT,m,,,,,,,-0.026041667,-0.39453125,0,0,0,,0,336,336,30,1,
,,,,,,,,,,,,,,,,,,5ed29ca1126970098589f622,2020-08-10_18h08.44.146,lexical_decision_task_MP,2020.1.3,Win32,60,,0,,,,,,,,0.038365,-1,,,,,,137,WORD,UN,50,melody,FINGER,m,,,,,,,-0.026041667,-0.39453125,0,0,0,,0,337,337,196,1,
,,,,,,,,,,,,,,,,,,5ed29ca1126970098589f622,2020-08-10_18h08.44.146,lexical_decision_task_MP,2020.1.3,Win32,60,,0,,,,,,,,0.038365,-1,,,,,,471,NW,"ID",33,nobest,NOBEST,z,,,,,,,-0.026041667,-0.39453125,0,0,0,,0,338,338,290,1,
,,,,,,,,,,,,,,,,,,5ed29ca1126970098589f622,2020-08-10_18h08.44.146,lexical_decision_task_MP,2020.1.3,Win32,60,,0,,,,,,,,0.038365,-1,,,,,,167,WORD,UN,50,answer,DESIGN,m,,,,,,,-0.026041667,-0.39453125,0,0,0,,0,339,339,226,1,
,,,,,,,,,,,,,,,,,,5ed29ca1126970098589f622,2020-08-10_18h08.44.146,lexical_decision_task_MP,2020.1.3,Win32,60,z,1,,,,,,,,0.16833,1,,,,,,310,NW,UN,33,sproly,DANIET,z,0.16833,,,,,,-0.026041667,-0.39453125,0,0,0,,0,340,340,369,1,
,,,,,,,,,,,,,,,,,,5ed29ca1126970098589f622,2020-08-10_18h08.44.146,lexical_decision_task_MP,2020.1.3,Win32,60,m,1,,,,,,,,0.034195,1,,,,,,156,WORD,UN,50,depart,CRADLE,m,0.034195,,,,,,-0.026041667,-0.39453125,0,0,0,,0,341,341,215,1,
,,,,,,,,,,,,,,,,,,5ed29ca1126970098589f622,2020-08-10_18h08.44.146,lexical_decision_task_MP,2020.1.3,Win32,60,z,0,,,,,,,,0.317,0,,,,,,205,WORD,"ID",33,lounge,LOUNGE,m,0.317,,,,,,-0.026041667,-0.39453125,0,0,0,,0,342,342,24,1,
,,,,,,,,,,,,,,,,,,5ed29ca1126970098589f622,2020-08-10_18h08.44.146,lexical_decision_task_MP,2020.1.3,Win32,60,z,0,,,,,,,,0.1851,0,,,,,,78,WORD,UN,33,theory,COLUMN,m,0.1851,,,,,,-0.026041667,-0.39453125,0,0,0,,0,343,343,137,1,
,,,,,,,,,,,,,,,,,,5ed29ca1126970098589f622,2020-08-10_18h08.44.146,lexical_decision_task_MP,2020.1.3,Win32,60,z,1,,,,,,,,0.094935,1,,,,,,468,NW,"ID",33,wictor,WICTOR,z,0.094935,,,,,,-0.026041667,-0.39453125,0,0,0,,0,344,344,287,1,
,,,,,,,,,,,,,,,,,,5ed29ca1126970098589f622,2020-08-10_18h08.44.146,lexical_decision_task_MP,2020.1.3,Win32,60,m,0,,,,,,,,0.185375,0,,,,,,261,NW,"ID",50,stunch,STUNCH,z,0.185375,,,,,,-0.026041667,-0.39453125,0,0,0,,0,345,345,320,1,
,,,,,,,,,,,,,,,,,,5ed29ca1126970098589f622,2020-08-10_18h08.44.146,lexical_decision_task_MP,2020.1.3,Win32,60,m,0,,,,,,,,0.6543,0,,,,,,341,NW,UN,33,randow,MYRTIE,z,0.6543,,,,,,-0.026041667,-0.39453125,0,0,0,,0,346,346,400,1,
,,,,,,,,,,,,,,,,,,5ed29ca1126970098589f622,2020-08-10_18h08.44.146,lexical_decision_task_MP,2020.1.3,Win32,60,z,1,,,,,,,,0.018485,1,,,,,,469,NW,"ID",33,padifs,PADIFS,z,0.018485,,,,,,-0.026041667,-0.39453125,0,0,0,,0,347,347,288,1,
,,,,,,,,,,,,,,,,,,5ed29ca1126970098589f622,2020-08-10_18h08.44.146,lexical_decision_task_MP,2020.1.3,Win32,60,m,1,,,,,,,,1.77632,1,,,,,,235,WORD,"ID",33,grumpy,GRUMPY,m,1.77632,,,,,,-0.026041667,-0.39453125,0,0,0,,0,348,348,54,1,
,,,,,,,,,,,,,,,,,,5ed29ca1126970098589f622,2020-08-10_18h08.44.146,lexical_decision_task_MP,2020.1.3,Win32,60,,0,,,,,,,,1.77632,-1,,,,,,371,NW,UN,50,ramily,GEILOY,z,,,,,,,-0.026041667,-0.39453125,0,0,0,,0,349,349,430,1,
,,,,,,,,,,,,,,,,,,5ed29ca1126970098589f622,2020-08-10_18h08.44.146,lexical_decision_task_MP,2020.1.3,Win32,60,m,0,,,,,,,,0.10358,0,,,,,,353,NW,UN,33,virlex,CLUREY,z,0.10358,,,,,,-0.026041667,-0.39453125,0,0,0,,0,350,350,412,1,
,,,,,,,,,,,,,,,,,,5ed29ca1126970098589f622,2020-08-10_18h08.44.146,lexical_decision_task_MP,2020.1.3,Win32,60,m,1,,,,,,,,0.21745,1,,,,,,162,WORD,UN,50,string,CANDLE,m,0.21745,,,,,,-0.026041667,-0.39453125,0,0,0,,0,351,351,221,1,
,,,,,,,,,,,,,,,,,,5ed29ca1126970098589f622,2020-08-10_18h08.44.146,lexical_decision_task_MP,2020.1.3,Win32,60,,0,,,,,,,,0.21745,-1,,,,,,358,NW,UN,33,fonver,FLEACK,z,,,,,,,-0.026041667,-0.39453125,0,0,0,,0,352,352,417,1,
,,,,,,,,,,,,,,,,,,5ed29ca1126970098589f622,2020-08-10_18h08.44.146,lexical_decision_task_MP,2020.1.3,Win32,60,,0,,,,,,,,0.21745,-1,,,,,,42,WORD,"ID",50,chapel,CHAPEL,m,,,,,,,-0.026041667,-0.39453125,0,0,0,,0,353,353,101,1,
,,,,,,,,,,,,,,,,,,5ed29ca1126970098589f622,2020-08-10_18h08.44.146,lexical_decision_task_MP,2020.1.3,Win32,60,m,0,,,,,,,,0.668595,0,,,,,,333,NW,UN,33,watmeg,CATRIE,z,0.668595,,,,,,-0.026041667,-0.39453125,0,0,0,,0,354,354,392,1,
,,,,,,,,,,,,,,,,,,5ed29ca1126970098589f622,2020-08-10_18h08.44.146,lexical_decision_task_MP,2020.1.3,Win32,60,m,1,,,,,,,,0.266965,1,,,,,,64,WORD,UN,33,symbol,THRONE,m,0.266965,,,,,,-0.026041667,-0.39453125,0,0,0,,0,355,355,123,1,
,,,,,,,,,,,,,,,,,,5ed29ca1126970098589f622,2020-08-10_18h08.44.146,lexical_decision_task_MP,2020.1.3,Win32,60,z,1,,,,,,,,1.040375,1,,,,,,397,NW,UN,50,blunde,CAMBLE,z,1.040375,,,,,,-0.026041667,-0.39453125,0,0,0,,0,356,356,456,1,
,,,,,,,,,,,,,,,,,,5ed29ca1126970098589f622,2020-08-10_18h08.44.146,lexical_decision_task_MP,2020.1.3,Win32,60,z,1,,,,,,,,0.35101,1,,,,,,389,NW,UN,50,hatrus,WITMER,z,0.35101,,,,,,-0.026041667,-0.39453125,0,0,0,,0,357,357,448,1,
,,,,,,,,,,,,,,,,,,5ed29ca1126970098589f622,2020-08-10_18h08.44.146,lexical_decision_task_MP,2020.1.3,Win32,60,m,0,,,,,,,,0.232725,0,,,,,,400,NW,UN,50,mustil,WEAROX,z,0.232725,,,,,,-0.026041667,-0.39453125,0,0,0,,0,358,358,459,1,
,,,,,,,,,,,,,,,,,,5ed29ca1126970098589f622,2020-08-10_18h08.44.146,lexical_decision_task_MP,2020.1.3,Win32,60,z,0,,,,,,,,0.434,0,,,,,,62,WORD,UN,33,launch,REGION,m,0.434,,,,,,-0.026041667,-0.39453125,0,0,0,,0,359,359,121,1,
,,,,,,,,,,,,,,,,,,5ed29ca1126970098589f622,2020-08-10_18h08.44.146,lexical_decision_task_MP,2020.1.3,Win32,60,z,1,,,,,,,,0.463575,1,,,,,,345,NW,UN,33,saudic,ABSEND,z,0.463575,,,,,,-0.026041667,-0.39453125,0,0,0,,0,360,360,404,1,
,,,,,,,,,,,,,,,,,,5ed29ca1126970098589f622,2020-08-10_18h08.44.146,lexical_decision_task_MP,2020.1.3,Win32,60,m,1,,,,,,,,0.3351,1,,,,,,189,WORD,"ID",33,censor,CENSOR,m,0.3351,,,,,,-0.026041667,-0.39453125,0,0,0,,0,361,361,8,1,
,,,,,,,,,,,,,,,,,,5ed29ca1126970098589f622,2020-08-10_18h08.44.146,lexical_decision_task_MP,2020.1.3,Win32,60,z,0,,,,,,,,0.20004,0,,,,,,67,WORD,UN,33,fumble,POLICY,m,0.20004,,,,,,-0.026041667,-0.39453125,0,0,0,space,0,362,362,126,1,4.57484
,,,,,,,,,,,,,,,,,,5ed29ca1126970098589f622,2020-08-10_18h08.44.146,lexical_decision_task_MP,2020.1.3,Win32,60,m,0,,,,,,,,0.38541,0,,,,,,249,NW,"ID",50,batrol,BATROL,z,0.38541,,,,,,-0.026041667,-0.39453125,0,0,0,,0,363,363,308,1,
,,,,,,,,,,,,,,,,,,5ed29ca1126970098589f622,2020-08-10_18h08.44.146,lexical_decision_task_MP,2020.1.3,Win32,60,m,0,,,,,,,,0.3832,0,,,,,,357,NW,UN,33,fleack,DERAIN,z,0.3832,,,,,,-0.026041667,-0.39453125,0,0,0,,0,364,364,416,1,
,,,,,,,,,,,,,,,,,,5ed29ca1126970098589f622,2020-08-10_18h08.44.146,lexical_decision_task_MP,2020.1.3,Win32,60,m,0,,,,,,,,0.61842,0,,,,,,388,NW,UN,50,witmer,CRAGIN,z,0.61842,,,,,,-0.026041667,-0.39453125,0,0,0,,0,365,365,447,1,
,,,,,,,,,,,,,,,,,,5ed29ca1126970098589f622,2020-08-10_18h08.44.146,lexical_decision_task_MP,2020.1.3,Win32,60,m,1,,,,,,,,0.817775,1,,,,,,20,WORD,"ID",50,breast,BREAST,m,0.817775,,,,,,-0.026041667,-0.39453125,0,0,0,,0,366,366,79,1,
,,,,,,,,,,,,,,,,,,5ed29ca1126970098589f622,2020-08-10_18h08.44.146,lexical_decision_task_MP,2020.1.3,Win32,60,z,1,,,,,,,,0.66611,1,,,,,,256,NW,"ID",50,inlors,INLORS,z,0.66611,,,,,,-0.026041667,-0.39453125,0,0,0,,0,367,367,315,1,
,,,,,,,,,,,,,,,,,,5ed29ca1126970098589f622,2020-08-10_18h08.44.146,lexical_decision_task_MP,2020.1.3,Win32,60,m,1,,,,,,,,0.595435,1,,,,,,112,WORD,UN,33,chorus,BREATH,m,0.595435,,,,,,-0.026041667,-0.39453125,0,0,0,,0,368,368,171,1,
,,,,,,,,,,,,,,,,,,5ed29ca1126970098589f622,2020-08-10_18h08.44.146,lexical_decision_task_MP,2020.1.3,Win32,60,z,1,,,,,,,,0.677695,1,,,,,,453,NW,"ID",33,bolvis,BOLVIS,z,0.677695,,,,,,-0.026041667,-0.39453125,0,0,0,,0,369,369,272,1,
,,,,,,,,,,,,,,,,,,5ed29ca1126970098589f622,2020-08-10_18h08.44.146,lexical_decision_task_MP,2020.1.3,Win32,60,z,0,,,,,,,,0.974525,0,,,,,,77,WORD,UN,33,column,RACKET,m,0.974525,,,,,,-0.026041667,-0.39453125,0,0,0,,0,370,370,136,1,
,,,,,,,,,,,,,,,,,,5ed29ca1126970098589f622,2020-08-10_18h08.44.146,lexical_decision_task_MP,2020.1.3,Win32,60,m,1,,,,,,,,0.40214,1,,,,,,14,WORD,"ID",50,almost,ALMOST,m,0.40214,,,,,,-0.026041667,-0.39453125,0,0,0,,0,371,371,73,1,
,,,,,,,,,,,,,,,,,,5ed29ca1126970098589f622,2020-08-10_18h08.44.146,lexical_decision_task_MP,2020.1.3,Win32,60,m,0,,,,,,,,0.45054,0,,,,,,343,NW,UN,33,scrily,AIMOSY,z,0.45054,,,,,,-0.026041667,-0.39453125,0,0,0,,0,372,372,402,1,
,,,,,,,,,,,,,,,,,,5ed29ca1126970098589f622,2020-08-10_18h08.44.146,lexical_decision_task_MP,2020.1.3,Win32,60,z,0,,,,,,,,0.33353,0,,,,,,212,WORD,"ID",33,verify,VERIFY,m,0.33353,,,,,,-0.026041667,-0.39453125,0,0,0,,0,373,373,31,1,
,,,,,,,,,,,,,,,,,,5ed29ca1126970098589f622,2020-08-10_18h08.44.146,lexical_decision_task_MP,2020.1.3,Win32,60,m,1,,,,,,,,0.372155,1,,,,,,159,WORD,UN,50,violet,DETAIL,m,0.372155,,,,,,-0.026041667,-0.39453125,0,0,0,,0,374,374,218,1,
,,,,,,,,,,,,,,,,,,5ed29ca1126970098589f622,2020-08-10_18h08.44.146,lexical_decision_task_MP,2020.1.3,Win32,60,z,0,,,,,,,,1.067855,0,,,,,,49,WORD,"ID",50,survey,SURVEY,m,1.067855,,,,,,-0.026041667,-0.39453125,0,0,0,,0,375,375,108,1,
,,,,,,,,,,,,,,,,,,5ed29ca1126970098589f622,2020-08-10_18h08.44.146,lexical_decision_task_MP,2020.1.3,Win32,60,m,0,,,,,,,,0.46992,0,,,,,,304,NW,UN,33,forgle,CLUDIE,z,0.46992,,,,,,-0.026041667,-0.39453125,0,0,0,,0,376,376,363,1,
,,,,,,,,,,,,,,,,,,5ed29ca1126970098589f622,2020-08-10_18h08.44.146,lexical_decision_task_MP,2020.1.3,Win32,60,z,1,,,,,,,,0.26799,1,,,,,,282,NW,"ID",50,porlex,PORLEX,z,0.26799,,,,,,-0.026041667,-0.39453125,0,0,0,,0,377,377,341,1,
,,,,,,,,,,,,,,,,,,5ed29ca1126970098589f622,2020-08-10_18h08.44.146,lexical_decision_task_MP,2020.1.3,Win32,60,m,0,,,,,,,,0.533805,0,,,,,,336,NW,UN,33,rejols,GHODUS,z,0.533805,,,,,,-0.026041667,-0.39453125,0,0,0,,0,378,378,395,1,
,,,,,,,,,,,,,,,,,,5ed29ca1126970098589f622,2020-08-10_18h08.44.146,lexical_decision_task_MP,2020.1.3,Win32,60,m,0,,,,,,,,0.880255,0,,,,,,423,NW,"ID",33,streld,STRELD,z,0.880255,,,,,,-0.026041667,-0.39453125,0,0,0,,0,379,379,242,1,
,,,,,,,,,,,,,,,,,,5ed29ca1126970098589f622,2020-08-10_18h08.44.146,lexical_decision_task_MP,2020.1.3,Win32,60,z,1,,,,,,,,0.31257,1,,,,,,383,NW,UN,50,guesco,AUNGRE,z,0.31257,,,,,,-0.026041667,-0.39453125,0,0,0,,0,380,380,442,1,
,,,,,,,,,,,,,,,,,,5ed29ca1126970098589f622,2020-08-10_18h08.44.146,lexical_decision_task_MP,2020.1.3,Win32,60,z,1,,,,,,,,0.368235,1,,,,,,424,NW,"ID",33,praile,PRAILE,z,0.368235,,,,,,-0.026041667,-0.39453125,0,0,0,,0,381,381,243,1,
,,,,,,,,,,,,,,,,,,5ed29ca1126970098589f622,2020-08-10_18h08.44.146,lexical_decision_task_MP,2020.1.3,Win32,60,z,1,,,,,,,,0.350665,1,,,,,,253,NW,"ID",50,resait,RESAIT,z,0.350665,,,,,,-0.026041667,-0.39453125,0,0,0,,0,382,382,312,1,
,,,,,,,,,,,,,,,,,,5ed29ca1126970098589f622,2020-08-10_18h08.44.146,lexical_decision_task_MP,2020.1.3,Win32,60,z,1,,,,,,,,0.38527,1,,,,,,473,NW,"ID",33,crible,CRIBLE,z,0.38527,,,,,,-0.026041667,-0.39453125,0,0,0,,0,383,383,292,1,
,,,,,,,,,,,,,,,,,,5ed29ca1126970098589f622,2020-08-10_18h08.44.146,lexical_decision_task_MP,2020.1.3,Win32,60,z,0,,,,,,,,1.12632,0,,,,,,92,WORD,UN,33,public,STRAND,m,1.12632,,,,,,-0.026041667,-0.39453125,0,0,0,,0,384,384,151,1,
,,,,,,,,,,,,,,,,,,5ed29ca1126970098589f622,2020-08-10_18h08.44.146,lexical_decision_task_MP,2020.1.3,Win32,60,m,0,,,,,,,,0.71608,0,,,,,,254,NW,"ID",50,varosh,VAROSH,z,0.71608,,,,,,-0.026041667,-0.39453125,0,0,0,,0,385,385,313,1,
,,,,,,,,,,,,,,,,,,5ed29ca1126970098589f622,2020-08-10_18h08.44.146,lexical_decision_task_MP,2020.1.3,Win32,60,z,0,,,,,,,,0.26626,0,,,,,,138,WORD,UN,50,debris,MELODY,m,0.26626,,,,,,-0.026041667,-0.39453125,0,0,0,,0,386,386,197,1,
,,,,,,,,,,,,,,,,,,5ed29ca1126970098589f622,2020-08-10_18h08.44.146,lexical_decision_task_MP,2020.1.3,Win32,60,z,0,,,,,,,,0.2427,0,,,,,,204,WORD,"ID",33,burden,BURDEN,m,0.2427,,,,,,-0.026041667,-0.39453125,0,0,0,,0,387,387,23,1,
,,,,,,,,,,,,,,,,,,5ed29ca1126970098589f622,2020-08-10_18h08.44.146,lexical_decision_task_MP,2020.1.3,Win32,60,z,1,,,,,,,,0.333805,1,,,,,,339,NW,UN,33,fiatch,FACHOW,z,0.333805,,,,,,-0.026041667,-0.39453125,0,0,0,,0,388,388,398,1,
,,,,,,,,,,,,,,,,,,5ed29ca1126970098589f622,2020-08-10_18h08.44.146,lexical_decision_task_MP,2020.1.3,Win32,60,z,1,,,,,,,,0.23445,1,,,,,,404,NW,UN,50,flumni,CLUIRM,z,0.23445,,,,,,-0.026041667,-0.39453125,0,0,0,,0,389,389,463,1,
,,,,,,,,,,,,,,,,,,5ed29ca1126970098589f622,2020-08-10_18h08.44.146,lexical_decision_task_MP,2020.1.3,Win32,60,m,1,,,,,,,,0.276715,1,,,,,,38,WORD,"ID",50,powder,POWDER,m,0.276715,,,,,,-0.026041667,-0.39453125,0,0,0,,0,390,390,97,1,
,,,,,,,,,,,,,,,,,,5ed29ca1126970098589f622,2020-08-10_18h08.44.146,lexical_decision_task_MP,2020.1.3,Win32,60,z,1,,,,,,,,0.1978,1,,,,,,392,NW,UN,50,ganous,ROUNCY,z,0.1978,,,,,,-0.026041667,-0.39453125,0,0,0,,0,391,391,451,1,
,,,,,,,,,,,,,,,,,,5ed29ca1126970098589f622,2020-08-10_18h08.44.146,lexical_decision_task_MP,2020.1.3,Win32,60,m,0,,,,,,,,0.005335,0,,,,,,381,NW,UN,50,sarley,HUNIEK,z,0.005335,,,,,,-0.026041667,-0.39453125,0,0,0,,0,392,392,440,1,
,,,,,,,,,,,,,,,,,,5ed29ca1126970098589f622,2020-08-10_18h08.44.146,lexical_decision_task_MP,2020.1.3,Win32,60,m,1,,,,,,,,0.2856,1,,,,,,119,WORD,UN,33,strain,SPIDER,m,0.2856,,,,,,-0.026041667,-0.39453125,0,0,0,,0,393,393,178,1,
,,,,,,,,,,,,,,,,,,5ed29ca1126970098589f622,2020-08-10_18h08.44.146,lexical_decision_task_MP,2020.1.3,Win32,60,z,1,,,,,,,,0.297575,1,,,,,,263,NW,"ID",50,dolica,DOLICA,z,0.297575,,,,,,-0.026041667,-0.39453125,0,0,0,,0,394,394,322,1,
,,,,,,,,,,,,,,,,,,5ed29ca1126970098589f622,2020-08-10_18h08.44.146,lexical_decision_task_MP,2020.1.3,Win32,60,z,1,,,,,,,,0.5016,1,,,,,,311,NW,UN,33,nerawl,SPROLY,z,0.5016,,,,,,-0.026041667,-0.39453125,0,0,0,,0,395,395,370,1,
,,,,,,,,,,,,,,,,,,5ed29ca1126970098589f622,2020-08-10_18h08.44.146,lexical_decision_task_MP,2020.1.3,Win32,60,m,0,,,,,,,,0.24719,0,,,,,,320,NW,UN,33,miator,JOCKAL,z,0.24719,,,,,,-0.026041667,-0.39453125,0,0,0,,0,396,396,379,1,
,,,,,,,,,,,,,,,,,,5ed29ca1126970098589f622,2020-08-10_18h08.44.146,lexical_decision_task_MP,2020.1.3,Win32,60,z,0,,,,,,,,0.551405,0,,,,,,236,WORD,"ID",33,pirate,PIRATE,m,0.551405,,,,,,-0.026041667,-0.39453125,0,0,0,,0,397,397,55,1,
,,,,,,,,,,,,,,,,,,5ed29ca1126970098589f622,2020-08-10_18h08.44.146,lexical_decision_task_MP,2020.1.3,Win32,60,m,1,,,,,,,,0.5506,1,,,,,,97,WORD,UN,33,belong,CLIENT,m,0.5506,,,,,,-0.026041667,-0.39453125,0,0,0,,0,398,398,156,1,
,,,,,,,,,,,,,,,,,,5ed29ca1126970098589f622,2020-08-10_18h08.44.146,lexical_decision_task_MP,2020.1.3,Win32,60,z,0,,,,,,,,0.26648,0,,,,,,209,WORD,"ID",33,search,SEARCH,m,0.26648,,,,,,-0.026041667,-0.39453125,0,0,0,,0,399,399,28,1,
,,,,,,,,,,,,,,,,,,5ed29ca1126970098589f622,2020-08-10_18h08.44.146,lexical_decision_task_MP,2020.1.3,Win32,60,m,0,,,,,,,,0.384355,0,,,,,,273,NW,"ID",50,sortel,SORTEL,z,0.384355,,,,,,-0.026041667,-0.39453125,0,0,0,,0,400,400,332,1,
,,,,,,,,,,,,,,,,,,5ed29ca1126970098589f622,2020-08-10_18h08.44.146,lexical_decision_task_MP,2020.1.3,Win32,60,z,1,,,,,,,,0.5341,1,,,,,,308,NW,UN,33,amiloy,PSETCH,z,0.5341,,,,,,-0.026041667,-0.39453125,0,0,0,,0,401,401,367,1,
,,,,,,,,,,,,,,,,,,5ed29ca1126970098589f622,2020-08-10_18h08.44.146,lexical_decision_task_MP,2020.1.3,Win32,60,z,1,,,,,,,,0.53782,1,,,,,,243,NW,"ID",50,musied,MUSIED,z,0.53782,,,,,,-0.026041667,-0.39453125,0,0,0,,0,402,402,302,1,
,,,,,,,,,,,,,,,,,,5ed29ca1126970098589f622,2020-08-10_18h08.44.146,lexical_decision_task_MP,2020.1.3,Win32,60,z,1,,,,,,,,0.418195,1,,,,,,463,NW,"ID",33,kispel,KISPEL,z,0.418195,,,,,,-0.026041667,-0.39453125,0,0,0,,0,403,403,282,1,
,,,,,,,,,,,,,,,,,,5ed29ca1126970098589f622,2020-08-10_18h08.44.146,lexical_decision_task_MP,2020.1.3,Win32,60,m,1,,,,,,,,0.316945,1,,,,,,218,WORD,"ID",33,shrink,SHRINK,m,0.316945,,,,,,-0.026041667,-0.39453125,0,0,0,,0,404,404,37,1,
