counterbalancing_condition,instr_done_keyboard.keys,instr_done_touch.x,instr_done_touch.y,instr_done_touch.leftButton,instr_done_touch.midButton,instr_done_touch.rightButton,instr_done_touch.clicked_name,instruction_pages.thisRepN,instruction_pages.thisTrialN,instruction_pages.thisN,instruction_pages.thisIndex,instruction_pages.ran,pageN,phase,instruct_text,has_image,instruct_image,participant,date,expName,psychopyVersion,OS,frameRate,response.keys,response.corr,touch_resp.x,touch_resp.y,touch_resp.leftButton,touch_resp.midButton,touch_resp.rightButton,touch_resp.time,touch_resp.clicked_name,rt,corr,practice_trials.thisRepN,practice_trials.thisTrialN,practice_trials.thisN,practice_trials.thisIndex,practice_trials.ran,TrialID,StimulusType,Condition,PrimeDuration,Prime,Target,corrAns,end_of_practice_trials_pages.thisRepN,end_of_practice_trials_pages.thisTrialN,end_of_practice_trials_pages.thisN,end_of_practice_trials_pages.thisIndex,end_of_practice_trials_pages.ran,break_done_touch.x,break_done_touch.y,break_done_touch.leftButton,break_done_touch.midButton,break_done_touch.rightButton,break_done_keyboard.keys,trials.thisRepN,trials.thisTrialN,trials.thisN,trials.thisIndex,trials.ran,break_done_touch.clicked_name
1,,0.105923995,-0.404017995,1,0,0,instr_done_button,0,0,0,0,1,1,instructions,"INSTRUCTIONS
At the start of each trial, look at the hash marks (######) in the center of the screen. After a moment, a string of letters will appear. Your task is to indicate if the letter string forms a word or not (i.e., if it is a nonword). For example, AUTHOR is a word while AUTHON is a nonword.

Press the space bar or touch the button below to continue.",0,,5ed368ce7400922f544fdecc,2020-08-10_16h30.12.573,lexical_decision_task_MP,2020.1.3,Linux armv8l,60,,,,,,,,,,,,,,,,,,,,,,,,,,,,,,,,,,,,,,,,
,,0.088424312,-0.398654234,1,0,0,instr_done_button,0,1,1,1,1,2,instructions,"If your device has a keyboard, press the 'Z' key for nonwords and the 'M' key for words.





Press the space bar or touch the button below to continue.",1,keyboard-example.gif,5ed368ce7400922f544fdecc,2020-08-10_16h30.12.573,lexical_decision_task_MP,2020.1.3,Linux armv8l,60,,,,,,,,,,,,,,,,,,,,,,,,,,,,,,,,,,,,,,,,
,,0.100262244,-0.39694762,1,0,0,instr_done_button,0,2,2,2,1,3,instructions,"If you are using a touchscreen only device, use the buttons on the screen. Do not use the mouse.





Press the space bar or touch the button below to continue.",1,touchscreen-example.gif,5ed368ce7400922f544fdecc,2020-08-10_16h30.12.573,lexical_decision_task_MP,2020.1.3,Linux armv8l,60,,,,,,,,,,,,,,,,,,,,,,,,,,,,,,,,,,,,,,,,
,,0.1126149,-0.416207989,1,0,0,instr_done_button,0,3,3,3,1,4,instructions,"It is very important that you respond as quickly and accurately as possible, as each letter string will only be on the screen for two seconds. If you do not respond within this time, the message 'Too slow!' will be displayed and the experiment will progress to the next letter string. The first 20 trials will be practice trials and you will receive feedback on your answers. 

Press the space bar or touch the button below to start the practice trials.",0,,5ed368ce7400922f544fdecc,2020-08-10_16h30.12.573,lexical_decision_task_MP,2020.1.3,Linux armv8l,60,,,,,,,,,,,,,,,,,,,,,,,,,,,,,,,,,,,,,,,,
,,,,,,,,,,,,,,,,,,5ed368ce7400922f544fdecc,2020-08-10_16h30.12.573,lexical_decision_task_MP,2020.1.3,Linux armv8l,60,,0,-0.454062267,-0.29528216,1,0,0,1.5564,button_left,1.5564,1,0,0,0,8,1,1009,NW,"ID",33,aslert,ASLERT,z,,,,,,,,,,,,,,,,,
,,,,,,,,,,,,,,,,,,5ed368ce7400922f544fdecc,2020-08-10_16h30.12.573,lexical_decision_task_MP,2020.1.3,Linux armv8l,60,,0,-0.43038633,-0.313811145,1,0,0,0.8509,button_left,0.8509,1,0,1,1,10,1,1011,NW,"ID",50,inlade,INLADE,z,,,,,,,,,,,,,,,,,
,,,,,,,,,,,,,,,,,,5ed368ce7400922f544fdecc,2020-08-10_16h30.12.573,lexical_decision_task_MP,2020.1.3,Linux armv8l,60,,0,-0.437592034,-0.309666606,1,0,0,0.8042,button_left,0.8042,1,0,2,2,15,1,1016,NW,UN,50,mushed,WHAISE,z,,,,,,,,,,,,,,,,,
,,,,,,,,,,,,,,,,,,5ed368ce7400922f544fdecc,2020-08-10_16h30.12.573,lexical_decision_task_MP,2020.1.3,Linux armv8l,60,,0,0.409078209,-0.312592145,1,0,0,0.6594,button_right,0.6594,1,0,3,3,7,1,1008,WORD,UN,50,hurdle,VOLUME,m,,,,,,,,,,,,,,,,,
,,,,,,,,,,,,,,,,,,5ed368ce7400922f544fdecc,2020-08-10_16h30.12.573,lexical_decision_task_MP,2020.1.3,Linux armv8l,60,,0,-0.427812928,-0.352575654,1,0,0,0.9472,button_left,0.9472,1,0,4,4,12,1,1013,NW,UN,33,adveil,SPRINY,z,,,,,,,,,,,,,,,,,
,,,,,,,,,,,,,,,,,,5ed368ce7400922f544fdecc,2020-08-10_16h30.12.573,lexical_decision_task_MP,2020.1.3,Linux armv8l,60,,0,0.430695321,-0.329170671,1,0,0,0.5852,button_right,0.5852,1,0,5,5,5,1,1006,WORD,UN,33,frenzy,OBTAIN,m,,,,,,,,,,,,,,,,,
,,,,,,,,,,,,,,,,,,5ed368ce7400922f544fdecc,2020-08-10_16h30.12.573,lexical_decision_task_MP,2020.1.3,Linux armv8l,60,,0,-0.410313356,-0.353063269,1,0,0,0.6317,button_left,0.6317,1,0,6,6,13,1,1014,NW,UN,33,winfer,ROUPET,z,,,,,,,,,,,,,,,,,
,,,,,,,,,,,,,,,,,,5ed368ce7400922f544fdecc,2020-08-10_16h30.12.573,lexical_decision_task_MP,2020.1.3,Linux armv8l,60,,0,0.449738882,-0.351600573,1,0,0,0.7446,button_right,0.7446,1,0,7,7,3,1,1004,WORD,"ID",50,matrix,MATRIX,m,,,,,,,,,,,,,,,,,
,,,,,,,,,,,,,,,,,,5ed368ce7400922f544fdecc,2020-08-10_16h30.12.573,lexical_decision_task_MP,2020.1.3,Linux armv8l,60,,0,-0.418033748,-0.352088039,1,0,0,0.6507,button_left,0.6507,1,0,8,8,14,1,1015,NW,UN,50,miaber,THRALE,z,,,,,,,,,,,,,,,,,
,,,,,,,,,,,,,,,,,,5ed368ce7400922f544fdecc,2020-08-10_16h30.12.573,lexical_decision_task_MP,2020.1.3,Linux armv8l,60,,0,0.448709581,-0.34965004,1,0,0,0.7374,button_right,0.7374,1,0,9,9,6,1,1007,WORD,UN,50,tropic,ZOMBIE,m,,,,,,,,,,,,,,,,,
,,,,,,,,,,,,,,,,,,5ed368ce7400922f544fdecc,2020-08-10_16h30.12.573,lexical_decision_task_MP,2020.1.3,Linux armv8l,60,,0,0.441503877,-0.340629355,1,0,0,0.6641,button_right,0.6641,1,0,10,10,1,1,1002,WORD,"ID",33,adjust,ADJUST,m,,,,,,,,,,,,,,,,,
,,,,,,,,,,,,,,,,,,5ed368ce7400922f544fdecc,2020-08-10_16h30.12.573,lexical_decision_task_MP,2020.1.3,Linux armv8l,60,,0,0.445106729,-0.352088039,1,0,0,0.7671,button_right,0.7671,1,0,11,11,4,1,1005,WORD,UN,33,abound,SQUEAK,m,,,,,,,,,,,,,,,,,
,,,,,,,,,,,,,,,,,,5ed368ce7400922f544fdecc,2020-08-10_16h30.12.573,lexical_decision_task_MP,2020.1.3,Linux armv8l,60,,0,0.435327474,-0.309422687,1,0,0,0.6341,button_right,0.6341,1,0,12,12,2,1,1003,WORD,"ID",50,almond,ALMOND,m,,,,,,,,,,,,,,,,,
,,,,,,,,,,,,,,,,,,5ed368ce7400922f544fdecc,2020-08-10_16h30.12.573,lexical_decision_task_MP,2020.1.3,Linux armv8l,60,,0,-0.43450387,-0.314786448,1,0,0,0.7016,button_left,0.7016,1,0,13,13,9,1,1010,NW,"ID",33,fariny,FARINY,z,,,,,,,,,,,,,,,,,
,,,,,,,,,,,,,,,,,,5ed368ce7400922f544fdecc,2020-08-10_16h30.12.573,lexical_decision_task_MP,2020.1.3,Linux armv8l,60,,0,0.436871575,-0.342335969,1,0,0,0.6686,button_right,0.6686,1,0,14,14,0,1,1001,WORD,"ID",33,utopia,UTOPIA,m,,,,,,,,,,,,,,,,,
,,,,,,,,,,,,,,,,,,5ed368ce7400922f544fdecc,2020-08-10_16h30.12.573,lexical_decision_task_MP,2020.1.3,Linux armv8l,60,,0,-0.426783478,-0.326245058,1,0,0,0.7368,button_left,0.7368,1,0,15,15,11,1,1012,NW,"ID",50,rashet,RASHET,z,,,,,,,,,,,,,,,,,
,,0.1110708,-0.365497182,1,0,0,instr_done_button,,,,,,1,end_of_practice,"You have completed the practice trials. During the experimental trials, you will not receive feedback, but it is very important that you respond as quickly and accurately as possible. 
Before you begin, please ensure that you are in a comfortable and quiet location and will not be disturbed for about 15 minutes, as we cannot use your data if you do not complete all the trials. 
There will be opportunities to take breaks at regular intervals during the experiment. When you are ready to start the experimental trials, please press space or touch the button below.",,,5ed368ce7400922f544fdecc,2020-08-10_16h30.12.573,lexical_decision_task_MP,2020.1.3,Linux armv8l,60,,,,,,,,,,,,,,,,,,,,,,,,0,0,0,0,1,,,,,,,,,,,,
,,,,,,,,,,,,,,,,,,5ed368ce7400922f544fdecc,2020-08-10_16h30.12.573,lexical_decision_task_MP,2020.1.3,Linux armv8l,60,,0,0.444077279,-0.306497074,1,0,0,0.7533,button_right,0.7533,1,,,,,,58,WORD,"ID",33,foster,FOSTER,m,,,,,,0.444077279,-0.306497074,1,0,0,,0,0,0,57,1,
,,,,,,,,,,,,,,,,,,5ed368ce7400922f544fdecc,2020-08-10_16h30.12.573,lexical_decision_task_MP,2020.1.3,Linux armv8l,60,,0,0.419371966,-0.296013693,1,0,0,0.6699,button_right,0.6699,1,,,,,,217,WORD,UN,50,shrink,LIQUOR,m,,,,,,0.419371966,-0.296013693,1,0,0,,0,1,1,216,1,
,,,,,,,,,,,,,,,,,,5ed368ce7400922f544fdecc,2020-08-10_16h30.12.573,lexical_decision_task_MP,2020.1.3,Linux armv8l,60,,0,-0.41751906,-0.300645847,1,0,0,1.0015,button_left,1.0015,1,,,,,,322,NW,"ID",50,slanch,SLANCH,z,,,,,,-0.41751906,-0.300645847,1,0,0,,0,2,2,321,1,
,,,,,,,,,,,,,,,,,,5ed368ce7400922f544fdecc,2020-08-10_16h30.12.573,lexical_decision_task_MP,2020.1.3,Linux armv8l,60,,0,0.421945516,-0.302108617,1,0,0,0.5844,button_right,0.5844,1,,,,,,222,WORD,UN,50,casino,HINDER,m,,,,,,0.421945516,-0.302108617,1,0,0,,0,3,3,221,1,
,,,,,,,,,,,,,,,,,,5ed368ce7400922f544fdecc,2020-08-10_16h30.12.573,lexical_decision_task_MP,2020.1.3,Linux armv8l,60,,0,0.422460167,-0.310397917,1,0,0,0.5717,button_right,0.5717,1,,,,,,46,WORD,"ID",33,single,SINGLE,m,,,,,,0.422460167,-0.310397917,1,0,0,,0,4,4,45,1,
,,,,,,,,,,,,,,,,,,5ed368ce7400922f544fdecc,2020-08-10_16h30.12.573,lexical_decision_task_MP,2020.1.3,Linux armv8l,60,,0,0.424518919,-0.315274063,1,0,0,0.663,button_right,0.663,1,,,,,,129,WORD,UN,33,stupid,MARVEL,m,,,,,,0.424518919,-0.315274063,1,0,0,,0,5,5,128,1,
,,,,,,,,,,,,,,,,,,5ed368ce7400922f544fdecc,2020-08-10_16h30.12.573,lexical_decision_task_MP,2020.1.3,Linux armv8l,60,,0,-0.419063087,-0.315030144,1,0,0,0.6586,button_left,0.6586,1,,,,,,366,NW,UN,33,slique,TOSHEL,z,,,,,,-0.419063087,-0.315030144,1,0,0,,0,6,6,365,1,
,,,,,,,,,,,,,,,,,,5ed368ce7400922f544fdecc,2020-08-10_16h30.12.573,lexical_decision_task_MP,2020.1.3,Linux armv8l,60,,0,-0.425239452,-0.306253378,1,0,0,0.8061,button_left,0.8061,1,,,,,,473,NW,UN,50,hablin,CRIBLE,z,,,,,,-0.425239452,-0.306253378,1,0,0,,0,7,7,472,1,
,,,,,,,,,,,,,,,,,,5ed368ce7400922f544fdecc,2020-08-10_16h30.12.573,lexical_decision_task_MP,2020.1.3,Linux armv8l,60,,0,0.422460167,-0.325513747,1,0,0,0.4998,button_right,0.4998,1,,,,,,12,WORD,"ID",33,orange,ORANGE,m,,,,,,0.422460167,-0.325513747,1,0,0,,0,8,8,11,1,
,,,,,,,,,,,,,,,,,,5ed368ce7400922f544fdecc,2020-08-10_16h30.12.573,lexical_decision_task_MP,2020.1.3,Linux armv8l,60,,0,0.420401564,-0.321368986,1,0,0,0.5581,button_right,0.5581,1,,,,,,109,WORD,"ID",50,wonder,WONDER,m,,,,,,0.420401564,-0.321368986,1,0,0,,0,9,9,108,1,
,,,,,,,,,,,,,,,,,,5ed368ce7400922f544fdecc,2020-08-10_16h30.12.573,lexical_decision_task_MP,2020.1.3,Linux armv8l,60,,0,0.420916067,-0.319174757,1,0,0,0.6223,button_right,0.6223,1,,,,,,220,WORD,UN,50,mascot,VOYAGE,m,,,,,,0.420916067,-0.319174757,1,0,0,,0,10,10,219,1,
,,,,,,,,,,,,,,,,,,5ed368ce7400922f544fdecc,2020-08-10_16h30.12.573,lexical_decision_task_MP,2020.1.3,Linux armv8l,60,,0,-0.409283907,-0.317711988,1,0,0,0.5878,button_left,0.5878,1,,,,,,463,NW,UN,50,bafent,KISPEL,z,,,,,,-0.409283907,-0.317711988,1,0,0,,0,11,11,462,1,
,,,,,,,,,,,,,,,,,,5ed368ce7400922f544fdecc,2020-08-10_16h30.12.573,lexical_decision_task_MP,2020.1.3,Linux armv8l,60,,0,0.422974818,-0.321856601,1,0,0,0.5368,button_right,0.5368,1,,,,,,85,WORD,"ID",50,sprawl,SPRAWL,m,,,,,,0.422974818,-0.321856601,1,0,0,,0,12,12,84,1,
,,,,,,,,,,,,,,,,,,5ed368ce7400922f544fdecc,2020-08-10_16h30.12.573,lexical_decision_task_MP,2020.1.3,Linux armv8l,60,,0,-0.40773988,-0.311616916,1,0,0,0.6904,button_left,0.6904,1,,,,,,388,NW,UN,33,witmer,CRAGIN,z,,,,,,-0.40773988,-0.311616916,1,0,0,,0,13,13,387,1,
,,,,,,,,,,,,,,,,,,5ed368ce7400922f544fdecc,2020-08-10_16h30.12.573,lexical_decision_task_MP,2020.1.3,Linux armv8l,60,,0,0.415254463,-0.321368986,1,0,0,1.2272,button_right,1.2272,1,,,,,,115,WORD,"ID",50,guitar,GUITAR,m,,,,,,0.415254463,-0.321368986,1,0,0,,0,14,14,114,1,
,,,,,,,,,,,,,,,,,,5ed368ce7400922f544fdecc,2020-08-10_16h30.12.573,lexical_decision_task_MP,2020.1.3,Linux armv8l,60,,0,-0.405681055,-0.294063161,1,0,0,0.5872,button_left,0.5872,1,,,,,,332,NW,"ID",50,vangue,VANGUE,z,,,,,,-0.405681055,-0.294063161,1,0,0,,0,15,15,331,1,
,,,,,,,,,,,,,,,,,,5ed368ce7400922f544fdecc,2020-08-10_16h30.12.573,lexical_decision_task_MP,2020.1.3,Linux armv8l,60,,0,-0.403107652,-0.300402002,1,0,0,0.6372,button_left,0.6372,1,,,,,,350,NW,"ID",50,nagurs,NAGURS,z,,,,,,-0.403107652,-0.300402002,1,0,0,,0,16,16,349,1,
,,,,,,,,,,,,,,,,,,5ed368ce7400922f544fdecc,2020-08-10_16h30.12.573,lexical_decision_task_MP,2020.1.3,Linux armv8l,60,,0,-0.409798594,-0.311616916,1,0,0,0.6528,button_left,0.6528,1,,,,,,433,NW,UN,50,pitrom,DRANCE,z,,,,,,-0.409798594,-0.311616916,1,0,0,,0,17,17,432,1,
,,,,,,,,,,,,,,,,,,5ed368ce7400922f544fdecc,2020-08-10_16h30.12.573,lexical_decision_task_MP,2020.1.3,Linux armv8l,60,,0,0.421945516,-0.331852589,1,0,0,0.7101,button_right,0.7101,1,,,,,,100,WORD,"ID",50,carbon,CARBON,m,,,,,,0.421945516,-0.331852589,1,0,0,,0,18,18,99,1,
,,,,,,,,,,,,,,,,,,5ed368ce7400922f544fdecc,2020-08-10_16h30.12.573,lexical_decision_task_MP,2020.1.3,Linux armv8l,60,,0,-0.409798594,-0.319662372,1,0,0,0.6204,button_left,0.6204,1,,,,,,377,NW,UN,33,shrile,INJORE,z,,,,,,-0.409798594,-0.319662372,1,0,0,,0,19,19,376,1,
,,,,,,,,,,,,,,,,,,5ed368ce7400922f544fdecc,2020-08-10_16h30.12.573,lexical_decision_task_MP,2020.1.3,Linux armv8l,60,,0,-0.415460235,-0.296501308,1,0,0,1.3642,button_left,1.3642,1,,,,,,362,NW,UN,33,breali,TIREAU,z,,,,,,-0.415460235,-0.296501308,1,0,0,,0,20,20,361,1,
,,,,,,,,,,,,,,,,,,5ed368ce7400922f544fdecc,2020-08-10_16h30.12.573,lexical_decision_task_MP,2020.1.3,Linux armv8l,60,,0,0.420916067,-0.323563215,1,0,0,0.5854,button_right,0.5854,1,,,,,,177,WORD,UN,33,inform,ADVENT,m,,,,,,0.420916067,-0.323563215,1,0,0,,0,21,21,176,1,
,,,,,,,,,,,,,,,,,,5ed368ce7400922f544fdecc,2020-08-10_16h30.12.573,lexical_decision_task_MP,2020.1.3,Linux armv8l,60,,0,-0.420092462,-0.30284015,1,0,0,0.605,button_left,0.605,1,,,,,,360,NW,"ID",50,desory,DESORY,z,,,,,,-0.420092462,-0.30284015,1,0,0,,0,22,22,359,1,
,,,,,,,,,,,,,,,,,,5ed368ce7400922f544fdecc,2020-08-10_16h30.12.573,lexical_decision_task_MP,2020.1.3,Linux armv8l,60,,0,-0.41751906,-0.319174757,1,0,0,1.071,button_left,1.071,1,,,,,,356,NW,"ID",50,othnis,OTHNIS,z,,,,,,-0.41751906,-0.319174757,1,0,0,,0,23,23,355,1,
,,,,,,,,,,,,,,,,,,5ed368ce7400922f544fdecc,2020-08-10_16h30.12.573,lexical_decision_task_MP,2020.1.3,Linux armv8l,60,,0,0.422460167,-0.312348301,1,0,0,0.779,button_right,0.779,1,,,,,,39,WORD,"ID",33,insect,INSECT,m,,,,,,0.422460167,-0.312348301,1,0,0,,0,24,24,38,1,
,,,,,,,,,,,,,,,,,,5ed368ce7400922f544fdecc,2020-08-10_16h30.12.573,lexical_decision_task_MP,2020.1.3,Linux armv8l,60,,0,-0.4216366,-0.313811145,1,0,0,0.6876,button_left,0.6876,1,,,,,,345,NW,"ID",50,absend,ABSEND,z,,,,,,-0.4216366,-0.313811145,1,0,0,,0,25,25,344,1,
,,,,,,,,,,,,,,,,,,5ed368ce7400922f544fdecc,2020-08-10_16h30.12.573,lexical_decision_task_MP,2020.1.3,Linux armv8l,60,,0,-0.427812928,-0.300889617,1,0,0,0.8024,button_left,0.8024,1,,,,,,261,NW,"ID",33,stunch,STUNCH,z,,,,,,-0.427812928,-0.300889617,1,0,0,,0,26,26,260,1,
,,,,,,,,,,,,,,,,,,5ed368ce7400922f544fdecc,2020-08-10_16h30.12.573,lexical_decision_task_MP,2020.1.3,Linux armv8l,60,,0,-0.410828044,-0.298207922,1,0,0,0.6559,button_left,0.6559,1,,,,,,414,NW,UN,33,higsta,SERBOL,z,,,,,,-0.410828044,-0.298207922,1,0,0,,0,27,27,413,1,
,,,,,,,,,,,,,,,,,,5ed368ce7400922f544fdecc,2020-08-10_16h30.12.573,lexical_decision_task_MP,2020.1.3,Linux armv8l,60,,0,0.415254463,-0.306253378,1,0,0,0.6982,button_right,0.6982,1,,,,,,14,WORD,"ID",33,almost,ALMOST,m,,,,,,0.415254463,-0.306253378,1,0,0,,0,28,28,13,1,
,,,,,,,,,,,,,,,,,,5ed368ce7400922f544fdecc,2020-08-10_16h30.12.573,lexical_decision_task_MP,2020.1.3,Linux armv8l,60,,0,0.407019606,-0.317955758,1,0,0,0.7184,button_right,0.7184,1,,,,,,7,WORD,"ID",33,anchor,ANCHOR,m,,,,,,0.407019606,-0.317955758,1,0,0,,0,29,29,6,1,
,,,,,,,,,,,,,,,,,,5ed368ce7400922f544fdecc,2020-08-10_16h30.12.573,lexical_decision_task_MP,2020.1.3,Linux armv8l,60,,0,0.423489617,-0.31454253,1,0,0,0.646,button_right,0.646,1,,,,,,165,WORD,UN,33,starch,INVEST,m,,,,,,0.423489617,-0.31454253,1,0,0,,0,30,30,164,1,
,,,,,,,,,,,,,,,,,,5ed368ce7400922f544fdecc,2020-08-10_16h30.12.573,lexical_decision_task_MP,2020.1.3,Linux armv8l,60,,0,0.412166262,-0.330877286,1,0,0,0.6817,button_right,0.6817,0,,,,,,305,NW,"ID",50,forgle,FORGLE,z,,,,,,0.412166262,-0.330877286,1,0,0,,0,31,31,304,1,
,,,,,,,,,,,,,,,,,,5ed368ce7400922f544fdecc,2020-08-10_16h30.12.573,lexical_decision_task_MP,2020.1.3,Linux armv8l,60,,0,0.422974818,-0.316249144,1,0,0,0.5706,button_right,0.5706,1,,,,,,69,WORD,"ID",50,plenty,PLENTY,m,,,,,,0.422974818,-0.316249144,1,0,0,,0,32,32,68,1,
,,,,,,,,,,,,,,,,,,5ed368ce7400922f544fdecc,2020-08-10_16h30.12.573,lexical_decision_task_MP,2020.1.3,Linux armv8l,60,,0,0.428636718,-0.328926975,1,0,0,0.891,button_right,0.891,1,,,,,,138,WORD,UN,33,staple,MELODY,m,,,,,,0.428636718,-0.328926975,1,0,0,,0,33,33,137,1,
,,,,,,,,,,,,,,,,,,5ed368ce7400922f544fdecc,2020-08-10_16h30.12.573,lexical_decision_task_MP,2020.1.3,Linux armv8l,60,,0,-0.432959844,-0.334290514,1,0,0,0.5649,button_left,0.5649,1,,,,,,326,NW,"ID",50,iguade,IGUADE,z,,,,,,-0.432959844,-0.334290514,1,0,0,,0,34,34,325,1,
,,,,,,,,,,,,,,,,,,5ed368ce7400922f544fdecc,2020-08-10_16h30.12.573,lexical_decision_task_MP,2020.1.3,Linux armv8l,60,,0,-0.423695314,-0.318199676,1,0,0,0.8148,button_left,0.8148,1,,,,,,372,NW,UN,33,bigent,RAMILY,z,,,,,,-0.423695314,-0.318199676,1,0,0,,0,35,35,371,1,
,,,,,,,,,,,,,,,,,,5ed368ce7400922f544fdecc,2020-08-10_16h30.12.573,lexical_decision_task_MP,2020.1.3,Linux armv8l,60,,0,0.422460167,-0.319418602,1,0,0,0.7047,button_right,0.7047,1,,,,,,227,WORD,UN,50,master,SELDOM,m,,,,,,0.422460167,-0.319418602,1,0,0,,0,36,36,226,1,
,,,,,,,,,,,,,,,,,,5ed368ce7400922f544fdecc,2020-08-10_16h30.12.573,lexical_decision_task_MP,2020.1.3,Linux armv8l,60,,0,0.421945516,-0.335997128,1,0,0,0.6834,button_right,0.6834,1,,,,,,80,WORD,"ID",50,family,FAMILY,m,,,,,,0.421945516,-0.335997128,1,0,0,,0,37,37,79,1,
,,,,,,,,,,,,,,,,,,5ed368ce7400922f544fdecc,2020-08-10_16h30.12.573,lexical_decision_task_MP,2020.1.3,Linux armv8l,60,,0,-0.421121912,-0.307228459,1,0,0,0.672,button_left,0.672,1,,,,,,436,NW,UN,50,snapel,FRUTAN,z,,,,,,-0.421121912,-0.307228459,1,0,0,,0,38,38,435,1,
,,,,,,,,,,,,,,,,,,5ed368ce7400922f544fdecc,2020-08-10_16h30.12.573,lexical_decision_task_MP,2020.1.3,Linux armv8l,60,,0,-0.422665939,-0.317711988,1,0,0,0.9392,button_left,0.9392,1,,,,,,393,NW,UN,33,spaqux,GANOUS,z,,,,,,-0.422665939,-0.317711988,1,0,0,,0,39,39,392,1,
,,,,,,,,,,,,,,,,,,5ed368ce7400922f544fdecc,2020-08-10_16h30.12.573,lexical_decision_task_MP,2020.1.3,Linux armv8l,60,,0,0.419886765,-0.305521845,1,0,0,0.8222,button_right,0.8222,1,,,,,,3,WORD,"ID",33,knight,KNIGHT,m,,,,,,0.419886765,-0.305521845,1,0,0,,0,40,40,2,1,
,,,,,,,,,,,,,,,,,,5ed368ce7400922f544fdecc,2020-08-10_16h30.12.573,lexical_decision_task_MP,2020.1.3,Linux armv8l,60,,0,-0.423695314,-0.320149986,1,0,0,0.65,button_left,0.65,1,,,,,,288,NW,"ID",33,yaceup,YACEUP,z,,,,,,-0.423695314,-0.320149986,1,0,0,,0,41,41,287,1,
,,,,,,,,,,,,,,,,,,5ed368ce7400922f544fdecc,2020-08-10_16h30.12.573,lexical_decision_task_MP,2020.1.3,Linux armv8l,60,,0,0.427607268,-0.320881371,1,0,0,0.7231,button_right,0.7231,1,,,,,,18,WORD,"ID",33,humble,HUMBLE,m,,,,,,0.427607268,-0.320881371,1,0,0,,0,42,42,17,1,
,,,,,,,,,,,,,,,,,,5ed368ce7400922f544fdecc,2020-08-10_16h30.12.573,lexical_decision_task_MP,2020.1.3,Linux armv8l,60,,0,-0.432959844,-0.323563215,1,0,0,0.6328,button_left,0.6328,1,,,,,,257,NW,"ID",33,veniod,VENIOD,z,,,,,,-0.432959844,-0.323563215,1,0,0,,0,43,43,256,1,
,,,,,,,,,,,,,,,,,,5ed368ce7400922f544fdecc,2020-08-10_16h30.12.573,lexical_decision_task_MP,2020.1.3,Linux armv8l,60,,0,0.419886765,-0.320149986,1,0,0,0.6681,button_right,0.6681,1,,,,,,216,WORD,UN,50,liquor,BEHALF,m,,,,,,0.419886765,-0.320149986,1,0,0,,0,44,44,215,1,
,,,,,,,,,,,,,,,,,,5ed368ce7400922f544fdecc,2020-08-10_16h30.12.573,lexical_decision_task_MP,2020.1.3,Linux armv8l,60,,0,-0.427812928,-0.322100519,1,0,0,0.6197,button_left,0.6197,1,,,,,,444,NW,UN,50,minkel,JAUNCE,z,,,,,,-0.427812928,-0.322100519,1,0,0,,0,45,45,443,1,
,,,,,,,,,,,,,,,,,,5ed368ce7400922f544fdecc,2020-08-10_16h30.12.573,lexical_decision_task_MP,2020.1.3,Linux armv8l,60,,0,0.422460167,-0.315274063,1,0,0,0.5703,button_right,0.5703,1,,,,,,146,WORD,UN,33,garlic,COUPLE,m,,,,,,0.422460167,-0.315274063,1,0,0,,0,46,46,145,1,
,,,,,,,,,,,,,,,,,,5ed368ce7400922f544fdecc,2020-08-10_16h30.12.573,lexical_decision_task_MP,2020.1.3,Linux armv8l,60,,0,-0.428327616,-0.3325839,1,0,0,0.721,button_left,0.721,1,,,,,,454,NW,UN,50,tondle,SCOUGE,z,,,,,,-0.428327616,-0.3325839,1,0,0,,0,47,47,453,1,
,,,,,,,,,,,,,,,,,,5ed368ce7400922f544fdecc,2020-08-10_16h30.12.573,lexical_decision_task_MP,2020.1.3,Linux armv8l,60,,0,0.413710363,-0.319174757,1,0,0,0.5052,button_right,0.5052,1,,,,,,63,WORD,"ID",50,launch,LAUNCH,m,,,,,,0.413710363,-0.319174757,1,0,0,,0,48,48,62,1,
,,,,,,,,,,,,,,,,,,5ed368ce7400922f544fdecc,2020-08-10_16h30.12.573,lexical_decision_task_MP,2020.1.3,Linux armv8l,60,,0,-0.436048008,-0.325757443,1,0,0,0.5163,button_left,0.5163,1,,,,,,252,NW,"ID",33,stapod,STAPOD,z,,,,,,-0.436048008,-0.325757443,1,0,0,,0,49,49,251,1,
,,,,,,,,,,,,,,,,,,5ed368ce7400922f544fdecc,2020-08-10_16h30.12.573,lexical_decision_task_MP,2020.1.3,Linux armv8l,60,,0,-0.417004372,-0.323807133,1,0,0,0.6868,button_left,0.6868,1,,,,,,400,NW,UN,33,mustil,WEAROX,z,,,,,,-0.417004372,-0.323807133,1,0,0,,0,50,50,399,1,
,,,,,,,,,,,,,,,,,,5ed368ce7400922f544fdecc,2020-08-10_16h30.12.573,lexical_decision_task_MP,2020.1.3,Linux armv8l,60,,0,0.40856341,-0.33794766,1,0,0,0.6357,button_right,0.6357,1,,,,,,79,WORD,"ID",50,theory,THEORY,m,,,,,,0.40856341,-0.33794766,1,0,0,,0,51,51,78,1,
,,,,,,,,,,,,,,,,,,5ed368ce7400922f544fdecc,2020-08-10_16h30.12.573,lexical_decision_task_MP,2020.1.3,Linux armv8l,60,,0,-0.423695314,-0.306984688,1,0,0,0.8879,button_left,0.8879,1,,,,,,250,NW,"ID",33,milted,MILTED,z,,,,,,-0.423695314,-0.306984688,1,0,0,,0,52,52,249,1,
,,,,,,,,,,,,,,,,,,5ed368ce7400922f544fdecc,2020-08-10_16h30.12.573,lexical_decision_task_MP,2020.1.3,Linux armv8l,60,,0,-0.420607224,-0.309178917,1,0,0,0.7317,button_left,0.7317,1,,,,,,406,NW,UN,33,suiver,NOUPLY,z,,,,,,-0.420607224,-0.309178917,1,0,0,,0,53,53,405,1,
,,,,,,,,,,,,,,,,,,5ed368ce7400922f544fdecc,2020-08-10_16h30.12.573,lexical_decision_task_MP,2020.1.3,Linux armv8l,60,,0,0.42657767,-0.338435127,1,0,0,0.6023,button_right,0.6023,0,,,,,,278,NW,"ID",33,unighs,UNIGHS,z,,,,,,0.42657767,-0.338435127,1,0,0,,0,54,54,277,1,
,,,,,,,,,,,,,,,,,,5ed368ce7400922f544fdecc,2020-08-10_16h30.12.573,lexical_decision_task_MP,2020.1.3,Linux armv8l,60,,0,0.425033866,-0.309666606,1,0,0,0.552,button_right,0.552,1,,,,,,67,WORD,"ID",50,policy,POLICY,m,,,,,,0.425033866,-0.309666606,1,0,0,,0,55,55,66,1,
,,,,,,,,,,,,,,,,,,5ed368ce7400922f544fdecc,2020-08-10_16h30.12.573,lexical_decision_task_MP,2020.1.3,Linux armv8l,60,,0,0.418342664,-0.337460046,1,0,0,0.6421,button_right,0.6421,1,,,,,,82,WORD,"ID",50,stigma,STIGMA,m,,,,,,0.418342664,-0.337460046,1,0,0,,0,56,56,81,1,
,,,,,,,,,,,,,,,,,,5ed368ce7400922f544fdecc,2020-08-10_16h30.12.573,lexical_decision_task_MP,2020.1.3,Linux armv8l,60,,0,-0.43450387,-0.311129301,1,0,0,1.8394,button_left,1.8394,1,,,,,,407,NW,UN,33,hurnia,SUIVER,z,,,,,,-0.43450387,-0.311129301,1,0,0,,0,57,57,406,1,
,,,,,,,,,,,,,,,,,,5ed368ce7400922f544fdecc,2020-08-10_16h30.12.573,lexical_decision_task_MP,2020.1.3,Linux armv8l,60,,0,,,,,,,,1.8394,-1,,,,,,228,WORD,UN,50,inject,MASTER,m,,,,,,0.509443265,-0.297720307,0,0,0,,0,58,58,227,1,
,,,,,,,,,,,,,,,,,,5ed368ce7400922f544fdecc,2020-08-10_16h30.12.573,lexical_decision_task_MP,2020.1.3,Linux armv8l,60,,0,0.411651611,-0.310885531,1,0,0,0.5713,button_right,0.5713,1,,,,,,117,WORD,"ID",50,branch,BRANCH,m,,,,,,0.411651611,-0.310885531,1,0,0,,0,59,59,116,1,
,,,,,,,,,,,,,,,,,,5ed368ce7400922f544fdecc,2020-08-10_16h30.12.573,lexical_decision_task_MP,2020.1.3,Linux armv8l,60,,0,-0.446341876,-0.317224373,1,0,0,0.7082,button_left,0.7082,1,,,,,,451,NW,UN,50,surden,CAINKY,z,,,,,,-0.446341876,-0.317224373,1,0,0,,0,60,60,450,1,
,,,,,,,,,,,,,,,,,,5ed368ce7400922f544fdecc,2020-08-10_16h30.12.573,lexical_decision_task_MP,2020.1.3,Linux armv8l,60,,0,-0.43038633,-0.287236704,1,0,0,0.6774,button_left,0.6774,1,,,,,,430,NW,UN,50,funtle,CAROEY,z,,,,,,-0.43038633,-0.287236704,1,0,0,,0,61,61,429,1,
,,,,,,,,,,,,,,,,,,5ed368ce7400922f544fdecc,2020-08-10_16h30.12.573,lexical_decision_task_MP,2020.1.3,Linux armv8l,60,,0,0.411136961,-0.304546764,1,0,0,0.7379,button_right,0.7379,1,,,,,,226,WORD,UN,50,flower,CASINO,m,,,,,,0.411136961,-0.304546764,1,0,0,,0,62,62,225,1,
,,,,,,,,,,,,,,,,,,5ed368ce7400922f544fdecc,2020-08-10_16h30.12.573,lexical_decision_task_MP,2020.1.3,Linux armv8l,60,,0,-0.419577774,-0.307472303,1,0,0,0.8182,button_left,0.8182,1,,,,,,296,NW,"ID",33,beinch,BEINCH,z,,,,,,-0.419577774,-0.307472303,1,0,0,,0,63,63,295,1,
,,,,,,,,,,,,,,,,,,5ed368ce7400922f544fdecc,2020-08-10_16h30.12.573,lexical_decision_task_MP,2020.1.3,Linux armv8l,60,,0,-0.424724764,-0.280897863,1,0,0,0.6332,button_left,0.6332,1,,,,,,382,NW,UN,33,aungre,SARLEY,z,,,,,,-0.424724764,-0.280897863,1,0,0,,0,64,64,381,1,
,,,,,,,,,,,,,,,,,,5ed368ce7400922f544fdecc,2020-08-10_16h30.12.573,lexical_decision_task_MP,2020.1.3,Linux armv8l,60,,0,0.420916067,-0.326245058,1,0,0,0.5388,button_right,0.5388,1,,,,,,83,WORD,"ID",50,result,RESULT,m,,,,,,0.420916067,-0.326245058,1,0,0,,0,65,65,82,1,
,,,,,,,,,,,,,,,,,,5ed368ce7400922f544fdecc,2020-08-10_16h30.12.573,lexical_decision_task_MP,2020.1.3,Linux armv8l,60,,0,0.416798712,-0.329658286,1,0,0,0.5668,button_right,0.5668,1,,,,,,110,WORD,"ID",50,polite,POLITE,m,,,,,,0.416798712,-0.329658286,1,0,0,,0,66,66,109,1,
,,,,,,,,,,,,,,,,,,5ed368ce7400922f544fdecc,2020-08-10_16h30.12.573,lexical_decision_task_MP,2020.1.3,Linux armv8l,60,,0,-0.422151288,-0.319418602,1,0,0,0.5368,button_left,0.5368,1,,,,,,354,NW,"ID",50,virlex,VIRLEX,z,,,,,,-0.422151288,-0.319418602,1,0,0,,0,67,67,353,1,
,,,,,,,,,,,,,,,,,,5ed368ce7400922f544fdecc,2020-08-10_16h30.12.573,lexical_decision_task_MP,2020.1.3,Linux armv8l,60,,0,0.414739812,-0.328195442,1,0,0,0.502,button_right,0.502,1,,,,,,194,WORD,UN,50,resign,ABSENT,m,,,,,,0.414739812,-0.328195442,1,0,0,,0,68,68,193,1,
,,,,,,,,,,,,,,,,,,5ed368ce7400922f544fdecc,2020-08-10_16h30.12.573,lexical_decision_task_MP,2020.1.3,Linux armv8l,60,,0,0.420401564,-0.323807133,1,0,0,0.535,button_right,0.535,1,,,,,,54,WORD,"ID",33,ramble,RAMBLE,m,,,,,,0.420401564,-0.323807133,1,0,0,,0,69,69,53,1,
,,,,,,,,,,,,,,,,,,5ed368ce7400922f544fdecc,2020-08-10_16h30.12.573,lexical_decision_task_MP,2020.1.3,Linux armv8l,60,,0,0.422974818,-0.333559203,1,0,0,0.69,button_right,0.69,1,,,,,,180,WORD,UN,33,thrive,SILENT,m,,,,,,0.422974818,-0.333559203,1,0,0,,0,70,70,179,1,
,,,,,,,,,,,,,,,,,,5ed368ce7400922f544fdecc,2020-08-10_16h30.12.573,lexical_decision_task_MP,2020.1.3,Linux armv8l,60,,0,0.419371966,-0.328195442,1,0,0,0.5187,button_right,0.5187,1,,,,,,72,WORD,"ID",50,bright,BRIGHT,m,,,,,,0.419371966,-0.328195442,1,0,0,,0,71,71,71,1,
,,,,,,,,,,,,,,,,,,5ed368ce7400922f544fdecc,2020-08-10_16h30.12.573,lexical_decision_task_MP,2020.1.3,Linux armv8l,60,,0,-0.412886758,-0.348431041,1,0,0,0.6529,button_left,0.6529,1,,,,,,277,NW,"ID",33,petain,PETAIN,z,,,,,,-0.412886758,-0.348431041,1,0,0,,0,72,72,276,1,
,,,,,,,,,,,,,,,,,,5ed368ce7400922f544fdecc,2020-08-10_16h30.12.573,lexical_decision_task_MP,2020.1.3,Linux armv8l,60,,0,0.413710363,-0.335753432,1,0,0,0.4902,button_right,0.4902,1,,,,,,236,WORD,UN,50,poster,PIRATE,m,,,,,,0.413710363,-0.335753432,1,0,0,,0,73,73,235,1,
,,,,,,,,,,,,,,,,,,5ed368ce7400922f544fdecc,2020-08-10_16h30.12.573,lexical_decision_task_MP,2020.1.3,Linux armv8l,60,,0,-0.41340152,-0.346724427,1,0,0,0.6874,button_left,0.6874,1,,,,,,464,NW,UN,50,whivex,CHAITE,z,,,,,,-0.41340152,-0.346724427,1,0,0,,0,74,74,463,1,
,,,,,,,,,,,,,,,,,,5ed368ce7400922f544fdecc,2020-08-10_16h30.12.573,lexical_decision_task_MP,2020.1.3,Linux armv8l,60,,0,0.41319586,-0.334046818,1,0,0,0.5552,button_right,0.5552,1,,,,,,50,WORD,"ID",33,snatch,SNATCH,m,,,,,,0.41319586,-0.334046818,1,0,0,,0,75,75,49,1,
,,,,,,,,,,,,,,,,,,5ed368ce7400922f544fdecc,2020-08-10_16h30.12.573,lexical_decision_task_MP,2020.1.3,Linux armv8l,60,,0,0.415769114,-0.327220361,1,0,0,0.8867,button_right,0.8867,0,,,,,,352,NW,"ID",50,tringe,TRINGE,z,,,,,,0.415769114,-0.327220361,1,0,0,,0,76,76,351,1,
,,,,,,,,,,,,,,,,,,5ed368ce7400922f544fdecc,2020-08-10_16h30.12.573,lexical_decision_task_MP,2020.1.3,Linux armv8l,60,,0,-0.426783478,-0.337703742,1,0,0,0.5824,button_left,0.5824,1,,,,,,455,NW,UN,50,broget,TONDLE,z,,,,,,-0.426783478,-0.337703742,1,0,0,,0,77,77,454,1,
,,,,,,,,,,,,,,,,,,5ed368ce7400922f544fdecc,2020-08-10_16h30.12.573,lexical_decision_task_MP,2020.1.3,Linux armv8l,60,,0,-0.424210076,-0.320149986,1,0,0,0.5845,button_left,0.5845,0,,,,,,16,WORD,"ID",33,faucet,FAUCET,m,,,,,,-0.424210076,-0.320149986,1,0,0,,0,78,78,15,1,
,,,,,,,,,,,,,,,,,,5ed368ce7400922f544fdecc,2020-08-10_16h30.12.573,lexical_decision_task_MP,2020.1.3,Linux armv8l,60,,0,0.416798712,-0.3325839,1,0,0,0.6028,button_right,0.6028,1,,,,,,124,WORD,UN,33,nickel,BLOUSE,m,,,,,,0.416798712,-0.3325839,1,0,0,,0,79,79,123,1,
,,,,,,,,,,,,,,,,,,5ed368ce7400922f544fdecc,2020-08-10_16h30.12.573,lexical_decision_task_MP,2020.1.3,Linux armv8l,60,,0,0.425033866,-0.339654274,1,0,0,0.8242,button_right,0.8242,1,,,,,,87,WORD,"ID",50,filter,FILTER,m,,,,,,0.425033866,-0.339654274,1,0,0,,0,80,80,86,1,
,,,,,,,,,,,,,,,,,,5ed368ce7400922f544fdecc,2020-08-10_16h30.12.573,lexical_decision_task_MP,2020.1.3,Linux armv8l,60,,0,0.417313215,-0.301377232,1,0,0,0.8245,button_right,0.8245,0,,,,,,248,NW,"ID",33,strole,STROLE,z,,,,,,0.417313215,-0.301377232,1,0,0,,0,81,81,247,1,
,,,,,,,,,,,,,,,,,,5ed368ce7400922f544fdecc,2020-08-10_16h30.12.573,lexical_decision_task_MP,2020.1.3,Linux armv8l,60,,0,0.416798712,-0.304302845,1,0,0,1.3409,button_right,1.3409,1,,,,,,223,WORD,UN,50,period,KIDNEY,m,,,,,,0.416798712,-0.304302845,1,0,0,,0,82,82,222,1,
,,,,,,,,,,,,,,,,,,5ed368ce7400922f544fdecc,2020-08-10_16h30.12.573,lexical_decision_task_MP,2020.1.3,Linux armv8l,60,,0,0.437386226,-0.347212116,1,0,0,0.7187,button_right,0.7187,1,,,,,,94,WORD,"ID",50,travel,TRAVEL,m,,,,,,0.437386226,-0.347212116,1,0,0,,0,83,83,93,1,
,,,,,,,,,,,,,,,,,,5ed368ce7400922f544fdecc,2020-08-10_16h30.12.573,lexical_decision_task_MP,2020.1.3,Linux armv8l,60,,0,-0.430901018,-0.320881371,1,0,0,0.7382,button_left,0.7382,1,,,,,,320,NW,"ID",50,jockal,JOCKAL,z,,,,,,-0.430901018,-0.320881371,1,0,0,,0,84,84,319,1,
,,,,,,,,,,,,,,,,,,5ed368ce7400922f544fdecc,2020-08-10_16h30.12.573,lexical_decision_task_MP,2020.1.3,Linux armv8l,60,,0,0.442533178,-0.31015422,1,0,0,0.6531,button_right,0.6531,1,,,,,,125,WORD,UN,33,blouse,NICKEL,m,,,,,,0.442533178,-0.31015422,1,0,0,,0,85,85,124,1,
,,,,,,,,,,,,,,,,,,5ed368ce7400922f544fdecc,2020-08-10_16h30.12.573,lexical_decision_task_MP,2020.1.3,Linux armv8l,60,,0,0.443562628,-0.325269829,1,0,0,0.535,button_right,0.535,1,,,,,,218,WORD,UN,50,bucket,SHRINK,m,,,,,,0.443562628,-0.325269829,1,0,0,,0,86,86,217,1,
,,,,,,,,,,,,,,,,,,5ed368ce7400922f544fdecc,2020-08-10_16h30.12.573,lexical_decision_task_MP,2020.1.3,Linux armv8l,60,,0,-0.447371251,-0.336484742,1,0,0,0.6246,button_left,0.6246,1,,,,,,242,NW,"ID",33,unwert,UNWERT,z,,,,,,-0.447371251,-0.336484742,1,0,0,,0,87,87,241,1,
,,,,,,,,,,,,,,,,,,5ed368ce7400922f544fdecc,2020-08-10_16h30.12.573,lexical_decision_task_MP,2020.1.3,Linux armv8l,60,,0,-0.438106722,-0.342092273,1,0,0,0.6248,button_left,0.6248,1,,,,,,329,NW,"ID",50,yarike,YARIKE,z,,,,,,-0.438106722,-0.342092273,1,0,0,,0,88,88,328,1,
,,,,,,,,,,,,,,,,,,5ed368ce7400922f544fdecc,2020-08-10_16h30.12.573,lexical_decision_task_MP,2020.1.3,Linux armv8l,60,,0,0.435327474,-0.317711988,1,0,0,0.6914,button_right,0.6914,1,,,,,,215,WORD,UN,50,behalf,PHOBIA,m,,,,,,0.435327474,-0.317711988,1,0,0,,0,89,89,214,1,
,,,,,,,,,,,,,,,,,,5ed368ce7400922f544fdecc,2020-08-10_16h30.12.573,lexical_decision_task_MP,2020.1.3,Linux armv8l,60,,0,-0.431930468,-0.336241046,1,0,0,0.6374,button_left,0.6374,1,,,,,,270,NW,"ID",33,wrimsy,WRIMSY,z,,,,,,-0.431930468,-0.336241046,1,0,0,,0,90,90,269,1,
,,,,,,,,,,,,,,,,,,5ed368ce7400922f544fdecc,2020-08-10_16h30.12.573,lexical_decision_task_MP,2020.1.3,Linux armv8l,60,,0,0.444077279,-0.282604477,1,0,0,0.7711,button_right,0.7711,1,,,,,,152,WORD,UN,33,behold,ROCKET,m,,,,,,0.444077279,-0.282604477,1,0,0,,0,91,91,151,1,
,,,,,,,,,,,,,,,,,,5ed368ce7400922f544fdecc,2020-08-10_16h30.12.573,lexical_decision_task_MP,2020.1.3,Linux armv8l,60,,0,-0.442224336,-0.305765689,1,0,0,0.6873,button_left,0.6873,1,,,,,,468,NW,UN,50,padifs,WICTOR,z,,,,,,-0.442224336,-0.305765689,1,0,0,,0,92,92,467,1,
,,,,,,,,,,,,,,,,,,5ed368ce7400922f544fdecc,2020-08-10_16h30.12.573,lexical_decision_task_MP,2020.1.3,Linux armv8l,60,,0,-0.450974103,-0.316736758,1,0,0,1.6057,button_left,1.6057,1,,,,,,426,NW,UN,50,frudge,URIVEL,z,,,,,,-0.450974103,-0.316736758,1,0,0,,0,93,93,425,1,
,,,,,,,,,,,,,,,,,,5ed368ce7400922f544fdecc,2020-08-10_16h30.12.573,lexical_decision_task_MP,2020.1.3,Linux armv8l,60,,0,-0.440165547,-0.320881371,1,0,0,0.6397,button_left,0.6397,1,,,,,,321,NW,"ID",50,miator,MIATOR,z,,,,,,-0.440165547,-0.320881371,1,0,0,,0,94,94,320,1,
,,,,,,,,,,,,,,,,,,5ed368ce7400922f544fdecc,2020-08-10_16h30.12.573,lexical_decision_task_MP,2020.1.3,Linux armv8l,60,,0,-0.440165547,-0.305765689,1,0,0,0.6525,button_left,0.6525,1,,,,,,386,NW,UN,33,gronce,ANCUST,z,,,,,,-0.440165547,-0.305765689,1,0,0,,0,95,95,385,1,
,,,,,,,,,,,,,,,,,,5ed368ce7400922f544fdecc,2020-08-10_16h30.12.573,lexical_decision_task_MP,2020.1.3,Linux armv8l,60,,0,-0.433474494,-0.307472303,1,0,0,0.6739,button_left,0.6739,1,,,,,,327,NW,"ID",50,plenac,PLENAC,z,,,,,,-0.433474494,-0.307472303,1,0,0,,0,96,96,326,1,
,,,,,,,,,,,,,,,,,,5ed368ce7400922f544fdecc,2020-08-10_16h30.12.573,lexical_decision_task_MP,2020.1.3,Linux armv8l,60,,0,0.442018676,-0.328926975,1,0,0,0.6546,button_right,0.6546,1,,,,,,11,WORD,"ID",33,cruise,CRUISE,m,,,,,,0.442018676,-0.328926975,1,0,0,,0,97,97,10,1,
,,,,,,,,,,,,,,,,,,5ed368ce7400922f544fdecc,2020-08-10_16h30.12.573,lexical_decision_task_MP,2020.1.3,Linux armv8l,60,,0,0.439445273,-0.325757443,1,0,0,0.7076,button_right,0.7076,1,,,,,,208,WORD,UN,50,search,HOCKEY,m,,,,,,0.439445273,-0.325757443,1,0,0,,0,98,98,207,1,
,,,,,,,,,,,,,,,,,,5ed368ce7400922f544fdecc,2020-08-10_16h30.12.573,lexical_decision_task_MP,2020.1.3,Linux armv8l,60,,0,-0.43141578,-0.322100519,1,0,0,0.6356,button_left,0.6356,1,,,,,,263,NW,"ID",33,dolica,DOLICA,z,,,,,,-0.43141578,-0.322100519,1,0,0,,0,99,99,262,1,
,,,,,,,,,,,,,,,,,,5ed368ce7400922f544fdecc,2020-08-10_16h30.12.573,lexical_decision_task_MP,2020.1.3,Linux armv8l,60,,0,0.43223957,-0.327464057,1,0,0,1.2254,button_right,1.2254,1,,,,,,195,WORD,UN,50,credit,RESIGN,m,,,,,,0.43223957,-0.327464057,1,0,0,,0,100,100,194,1,
,,,,,,,,,,,,,,,,,,5ed368ce7400922f544fdecc,2020-08-10_16h30.12.573,lexical_decision_task_MP,2020.1.3,Linux armv8l,60,,0,0.434298173,-0.318443372,1,0,0,0.5539,button_right,0.5539,1,,,,,,89,WORD,"ID",50,permit,PERMIT,m,,,,,,0.434298173,-0.318443372,1,0,0,,0,101,101,88,1,
,,,,,,,,,,,,,,,,,,5ed368ce7400922f544fdecc,2020-08-10_16h30.12.573,lexical_decision_task_MP,2020.1.3,Linux armv8l,60,,0,0.434812972,-0.324782214,1,0,0,1.072,button_right,1.072,1,,,,,,99,WORD,"ID",50,fluent,FLUENT,m,,,,,,0.434812972,-0.324782214,1,0,0,,0,102,102,98,1,
,,,,,,,,,,,,,,,,,,5ed368ce7400922f544fdecc,2020-08-10_16h30.12.573,lexical_decision_task_MP,2020.1.3,Linux armv8l,60,,0,0.438930326,-0.325269829,1,0,0,1.4782,button_right,1.4782,0,,,,,,348,NW,"ID",50,dumple,DUMPLE,z,,,,,,0.438930326,-0.325269829,1,0,0,,0,103,103,347,1,
,,,,,,,,,,,,,,,,,,5ed368ce7400922f544fdecc,2020-08-10_16h30.12.573,lexical_decision_task_MP,2020.1.3,Linux armv8l,60,,0,0.438930326,-0.313079834,1,0,0,0.7879,button_right,0.7879,1,,,,,,212,WORD,UN,50,squeal,VERIFY,m,,,,,,0.438930326,-0.313079834,1,0,0,,0,104,104,211,1,
,,,,,,,,,,,,,,,,,,5ed368ce7400922f544fdecc,2020-08-10_16h30.12.573,lexical_decision_task_MP,2020.1.3,Linux armv8l,60,,0,-0.438106722,-0.312348301,1,0,0,1.2251,button_left,1.2251,1,,,,,,302,NW,"ID",50,miluer,MILUER,z,,,,,,-0.438106722,-0.312348301,1,0,0,,0,105,105,301,1,
,,,,,,,,,,,,,,,,,,5ed368ce7400922f544fdecc,2020-08-10_16h30.12.573,lexical_decision_task_MP,2020.1.3,Linux armv8l,60,,0,0.43223957,-0.31990629,1,0,0,1.1569,button_right,1.1569,1,,,,,,77,WORD,"ID",50,racket,RACKET,m,,,,,,0.43223957,-0.31990629,1,0,0,,0,106,106,76,1,
,,,,,,,,,,,,,,,,,,5ed368ce7400922f544fdecc,2020-08-10_16h30.12.573,lexical_decision_task_MP,2020.1.3,Linux armv8l,60,,0,-0.440680198,-0.302352461,1,0,0,0.6529,button_left,0.6529,1,,,,,,472,NW,UN,50,crible,CIGNEY,z,,,,,,-0.440680198,-0.302352461,1,0,0,,0,107,107,471,1,
,,,,,,,,,,,,,,,,,,5ed368ce7400922f544fdecc,2020-08-10_16h30.12.573,lexical_decision_task_MP,2020.1.3,Linux armv8l,60,,0,-0.436562696,-0.324782214,1,0,0,1.285,button_left,1.285,1,,,,,,477,NW,UN,50,acrise,PHOTIE,z,,,,,,-0.436562696,-0.324782214,1,0,0,,0,108,108,476,1,
,,,,,,,,,,,,,,,,,,5ed368ce7400922f544fdecc,2020-08-10_16h30.12.573,lexical_decision_task_MP,2020.1.3,Linux armv8l,60,,0,0.428636718,-0.318687291,1,0,0,0.6894,button_right,0.6894,1,,,,,,206,WORD,UN,50,wreath,TAILOR,m,,,,,,0.428636718,-0.318687291,1,0,0,,0,109,109,205,1,
,,,,,,,,,,,,,,,,,,5ed368ce7400922f544fdecc,2020-08-10_16h30.12.573,lexical_decision_task_MP,2020.1.3,Linux armv8l,60,,0,0.462606189,-0.339897971,1,0,0,0.6856,button_right,0.6856,1,,,,,,160,WORD,UN,33,dragon,VIOLET,m,,,,,,0.462606189,-0.339897971,1,0,0,,0,110,110,159,1,
,,,,,,,,,,,,,,,,,,5ed368ce7400922f544fdecc,2020-08-10_16h30.12.573,lexical_decision_task_MP,2020.1.3,Linux armv8l,60,,0,0.426063019,-0.305521845,1,0,0,0.7039,button_right,0.7039,1,,,,,,98,WORD,"ID",50,belong,BELONG,m,,,,,,0.426063019,-0.305521845,1,0,0,,0,111,111,97,1,
,,,,,,,,,,,,,,,,,,5ed368ce7400922f544fdecc,2020-08-10_16h30.12.573,lexical_decision_task_MP,2020.1.3,Linux armv8l,60,,0,0.443048125,-0.31015422,1,0,0,1.2182,button_right,1.2182,1,,,,,,142,WORD,UN,33,orphan,SPRUCE,m,,,,,,0.443048125,-0.31015422,1,0,0,,0,112,112,141,1,
,,,,,,,,,,,,,,,,,,5ed368ce7400922f544fdecc,2020-08-10_16h30.12.573,lexical_decision_task_MP,2020.1.3,Linux armv8l,60,,0,0.455400485,-0.320393905,1,0,0,0.5529,button_right,0.5529,1,,,,,,133,WORD,UN,33,debris,CHROME,m,,,,,,0.455400485,-0.320393905,1,0,0,,0,113,113,132,1,
,,,,,,,,,,,,,,,,,,5ed368ce7400922f544fdecc,2020-08-10_16h30.12.573,lexical_decision_task_MP,2020.1.3,Linux armv8l,60,,0,-0.445827188,-0.278459864,1,0,0,0.6195,button_left,0.6195,1,,,,,,415,NW,UN,33,pathel,HIGSTA,z,,,,,,-0.445827188,-0.278459864,1,0,0,,0,114,114,414,1,
,,,,,,,,,,,,,,,,,,5ed368ce7400922f544fdecc,2020-08-10_16h30.12.573,lexical_decision_task_MP,2020.1.3,Linux armv8l,60,,0,-0.42575414,-0.298207922,1,0,0,0.6684,button_left,0.6684,1,,,,,,283,NW,"ID",33,veralf,VERALF,z,,,,,,-0.42575414,-0.298207922,1,0,0,,0,115,115,282,1,
,,,,,,,,,,,,,,,,,,5ed368ce7400922f544fdecc,2020-08-10_16h30.12.573,lexical_decision_task_MP,2020.1.3,Linux armv8l,60,,0,0.42657767,-0.324050829,1,0,0,0.7534,button_right,0.7534,1,,,,,,185,WORD,UN,50,portal,BOTHER,m,,,,,,0.42657767,-0.324050829,1,0,0,,0,116,116,184,1,
,,,,,,,,,,,,,,,,,,5ed368ce7400922f544fdecc,2020-08-10_16h30.12.573,lexical_decision_task_MP,2020.1.3,Linux armv8l,60,,0,0.420401564,-0.307959992,1,0,0,0.9585,button_right,0.9585,1,,,,,,53,WORD,"ID",33,police,POLICE,m,,,,,,0.420401564,-0.307959992,1,0,0,,0,117,117,52,1,
,,,,,,,,,,,,,,,,,,5ed368ce7400922f544fdecc,2020-08-10_16h30.12.573,lexical_decision_task_MP,2020.1.3,Linux armv8l,60,,0,-0.428327616,-0.315030144,1,0,0,0.5524,button_left,0.5524,1,,,,,,276,NW,"ID",33,yarmon,YARMON,z,,,,,,-0.428327616,-0.315030144,1,0,0,,0,118,118,275,1,
,,,,,,,,,,,,,,,,,,5ed368ce7400922f544fdecc,2020-08-10_16h30.12.573,lexical_decision_task_MP,2020.1.3,Linux armv8l,60,,0,0.431724622,-0.320881371,1,0,0,0.8559,button_right,0.8559,1,,,,,,119,WORD,"ID",50,spider,SPIDER,m,,,,,,0.431724622,-0.320881371,1,0,0,,0,119,119,118,1,
,,,,,,,,,,,,,,,,,,5ed368ce7400922f544fdecc,2020-08-10_16h30.12.573,lexical_decision_task_MP,2020.1.3,Linux armv8l,60,,0,-0.383034567,-0.283579706,1,0,0,1.5398,button_left,1.5398,1,,,,,,453,NW,UN,50,scouge,BOLVIS,z,,,,,,0.036440285,-0.390608778,1,0,0,,0,120,120,452,1,break_done_button
,,,,,,,,,,,,,,,,,,5ed368ce7400922f544fdecc,2020-08-10_16h30.12.573,lexical_decision_task_MP,2020.1.3,Linux armv8l,60,,0,-0.421121912,-0.294794694,1,0,0,0.8082,button_left,0.8082,0,,,,,,183,WORD,UN,50,sleazy,MILDEW,m,,,,,,-0.421121912,-0.294794694,1,0,0,,0,121,121,182,1,
,,,,,,,,,,,,,,,,,,5ed368ce7400922f544fdecc,2020-08-10_16h30.12.573,lexical_decision_task_MP,2020.1.3,Linux armv8l,60,,0,-0.456120982,-0.321612904,1,0,0,0.7082,button_left,0.7082,1,,,,,,442,NW,UN,50,dorsex,ABOUNE,z,,,,,,-0.456120982,-0.321612904,1,0,0,,0,122,122,441,1,
,,,,,,,,,,,,,,,,,,5ed368ce7400922f544fdecc,2020-08-10_16h30.12.573,lexical_decision_task_MP,2020.1.3,Linux armv8l,60,,0,0.436871575,-0.295526005,1,0,0,0.5912,button_right,0.5912,1,,,,,,144,WORD,UN,33,parish,SPONGE,m,,,,,,0.436871575,-0.295526005,1,0,0,,0,123,123,143,1,
,,,,,,,,,,,,,,,,,,5ed368ce7400922f544fdecc,2020-08-10_16h30.12.573,lexical_decision_task_MP,2020.1.3,Linux armv8l,60,,0,0.448194782,-0.297476389,1,0,0,0.5576,button_right,0.5576,1,,,,,,78,WORD,"ID",50,column,COLUMN,m,,,,,,0.448194782,-0.297476389,1,0,0,,0,124,124,77,1,
,,,,,,,,,,,,,,,,,,5ed368ce7400922f544fdecc,2020-08-10_16h30.12.573,lexical_decision_task_MP,2020.1.3,Linux armv8l,60,,0,-0.458179807,-0.338922741,1,0,0,0.6679,button_left,0.6679,1,,,,,,449,NW,UN,50,phrect,BRUNGE,z,,,,,,-0.458179807,-0.338922741,1,0,0,,0,125,125,448,1,
,,,,,,,,,,,,,,,,,,5ed368ce7400922f544fdecc,2020-08-10_16h30.12.573,lexical_decision_task_MP,2020.1.3,Linux armv8l,60,,0,-0.442739024,-0.303815231,1,0,0,0.6405,button_left,0.6405,1,,,,,,404,NW,UN,33,syntic,CLUIRM,z,,,,,,-0.442739024,-0.303815231,1,0,0,,0,126,126,403,1,
,,,,,,,,,,,,,,,,,,5ed368ce7400922f544fdecc,2020-08-10_16h30.12.573,lexical_decision_task_MP,2020.1.3,Linux armv8l,60,,0,0.450253829,-0.307472303,1,0,0,0.5369,button_right,0.5369,1,,,,,,200,WORD,UN,50,admire,BEACON,m,,,,,,0.450253829,-0.307472303,1,0,0,,0,127,127,199,1,
,,,,,,,,,,,,,,,,,,5ed368ce7400922f544fdecc,2020-08-10_16h30.12.573,lexical_decision_task_MP,2020.1.3,Linux armv8l,60,,0,0.451797633,-0.307959992,1,0,0,0.633,button_right,0.633,1,,,,,,128,WORD,UN,33,marvel,SENIOR,m,,,,,,0.451797633,-0.307959992,1,0,0,,0,128,128,127,1,
,,,,,,,,,,,,,,,,,,5ed368ce7400922f544fdecc,2020-08-10_16h30.12.573,lexical_decision_task_MP,2020.1.3,Linux armv8l,60,,0,-0.427298166,-0.291868932,1,0,0,0.6089,button_left,0.6089,1,,,,,,443,NW,UN,50,jaunce,DORSEX,z,,,,,,-0.427298166,-0.291868932,1,0,0,,0,129,129,442,1,
,,,,,,,,,,,,,,,,,,5ed368ce7400922f544fdecc,2020-08-10_16h30.12.573,lexical_decision_task_MP,2020.1.3,Linux armv8l,60,,0,-0.418033748,-0.317224373,1,0,0,0.5987,button_left,0.5987,1,,,,,,371,NW,UN,33,ramily,GEILOY,z,,,,,,-0.418033748,-0.317224373,1,0,0,,0,130,130,370,1,
,,,,,,,,,,,,,,,,,,5ed368ce7400922f544fdecc,2020-08-10_16h30.12.573,lexical_decision_task_MP,2020.1.3,Linux armv8l,60,,0,0.449738882,-0.310885531,1,0,0,0.5619,button_right,0.5619,1,,,,,,174,WORD,UN,33,fabric,TURKEY,m,,,,,,0.449738882,-0.310885531,1,0,0,,0,131,131,173,1,
,,,,,,,,,,,,,,,,,,5ed368ce7400922f544fdecc,2020-08-10_16h30.12.573,lexical_decision_task_MP,2020.1.3,Linux armv8l,60,,0,-0.408254531,-0.311616916,1,0,0,0.6412,button_left,0.6412,1,,,,,,341,NW,"ID",50,myrtie,MYRTIE,z,,,,,,-0.408254531,-0.311616916,1,0,0,,0,132,132,340,1,
,,,,,,,,,,,,,,,,,,5ed368ce7400922f544fdecc,2020-08-10_16h30.12.573,lexical_decision_task_MP,2020.1.3,Linux armv8l,60,,0,-0.425239452,-0.31454253,1,0,0,0.6503,button_left,0.6503,1,,,,,,344,NW,"ID",50,scrily,SCRILY,z,,,,,,-0.425239452,-0.31454253,1,0,0,,0,133,133,343,1,
,,,,,,,,,,,,,,,,,,5ed368ce7400922f544fdecc,2020-08-10_16h30.12.573,lexical_decision_task_MP,2020.1.3,Linux armv8l,60,,0,0.443048125,-0.309666606,1,0,0,0.555,button_right,0.555,1,,,,,,33,WORD,"ID",33,butler,BUTLER,m,,,,,,0.443048125,-0.309666606,1,0,0,,0,134,134,32,1,
,,,,,,,,,,,,,,,,,,5ed368ce7400922f544fdecc,2020-08-10_16h30.12.573,lexical_decision_task_MP,2020.1.3,Linux armv8l,60,,0,-0.408769219,-0.31137322,1,0,0,0.5697,button_left,0.5697,1,,,,,,480,NW,UN,50,knisma,ROBULY,z,,,,,,-0.408769219,-0.31137322,1,0,0,,0,135,135,479,1,
,,,,,,,,,,,,,,,,,,5ed368ce7400922f544fdecc,2020-08-10_16h30.12.573,lexical_decision_task_MP,2020.1.3,Linux armv8l,60,,0,-0.415460235,-0.302108617,1,0,0,1.3556,button_left,1.3556,1,,,,,,284,NW,"ID",33,shaple,SHAPLE,z,,,,,,-0.415460235,-0.302108617,1,0,0,,0,136,136,283,1,
,,,,,,,,,,,,,,,,,,5ed368ce7400922f544fdecc,2020-08-10_16h30.12.573,lexical_decision_task_MP,2020.1.3,Linux armv8l,60,,0,0.443562628,-0.303083846,1,0,0,0.6865,button_right,0.6865,1,,,,,,196,WORD,UN,50,stream,CREDIT,m,,,,,,0.443562628,-0.303083846,1,0,0,,0,137,137,195,1,
,,,,,,,,,,,,,,,,,,5ed368ce7400922f544fdecc,2020-08-10_16h30.12.573,lexical_decision_task_MP,2020.1.3,Linux armv8l,60,,0,0.452312432,-0.317224373,1,0,0,0.5818,button_right,0.5818,0,,,,,,342,NW,"ID",50,randow,RANDOW,z,,,,,,0.452312432,-0.317224373,1,0,0,,0,138,138,341,1,
,,,,,,,,,,,,,,,,,,5ed368ce7400922f544fdecc,2020-08-10_16h30.12.573,lexical_decision_task_MP,2020.1.3,Linux armv8l,60,,0,0.456944586,-0.317955758,1,0,0,0.7175,button_right,0.7175,1,,,,,,238,WORD,UN,50,grumpy,FLOWER,m,,,,,,0.456944586,-0.317955758,1,0,0,,0,139,139,237,1,
,,,,,,,,,,,,,,,,,,5ed368ce7400922f544fdecc,2020-08-10_16h30.12.573,lexical_decision_task_MP,2020.1.3,Linux armv8l,60,,0,0.451282983,-0.308935073,1,0,0,0.6351,button_right,0.6351,1,,,,,,36,WORD,"ID",33,vanish,VANISH,m,,,,,,0.451282983,-0.308935073,1,0,0,,0,140,140,35,1,
,,,,,,,,,,,,,,,,,,5ed368ce7400922f544fdecc,2020-08-10_16h30.12.573,lexical_decision_task_MP,2020.1.3,Linux armv8l,60,,0,-0.398475351,-0.313079834,1,0,0,0.6833,button_left,0.6833,1,,,,,,467,NW,UN,50,wictor,GORBIE,z,,,,,,-0.398475351,-0.313079834,1,0,0,,0,141,141,466,1,
,,,,,,,,,,,,,,,,,,5ed368ce7400922f544fdecc,2020-08-10_16h30.12.573,lexical_decision_task_MP,2020.1.3,Linux armv8l,60,,0,-0.418033748,-0.299914536,1,0,0,0.7463,button_left,0.7463,1,,,,,,306,NW,"ID",50,sounge,SOUNGE,z,,,,,,-0.418033748,-0.299914536,1,0,0,,0,142,142,305,1,
,,,,,,,,,,,,,,,,,,5ed368ce7400922f544fdecc,2020-08-10_16h30.12.573,lexical_decision_task_MP,2020.1.3,Linux armv8l,60,,0,-0.420092462,-0.300158232,1,0,0,0.6695,button_left,0.6695,1,,,,,,324,NW,"ID",50,steikh,STEIKH,z,,,,,,-0.420092462,-0.300158232,1,0,0,,0,143,143,323,1,
,,,,,,,,,,,,,,,,,,5ed368ce7400922f544fdecc,2020-08-10_16h30.12.573,lexical_decision_task_MP,2020.1.3,Linux armv8l,60,,0,-0.41340152,-0.298451618,1,0,0,0.6203,button_left,0.6203,1,,,,,,466,NW,UN,50,pebric,HOCITE,z,,,,,,-0.41340152,-0.298451618,1,0,0,,0,144,144,465,1,
,,,,,,,,,,,,,,,,,,5ed368ce7400922f544fdecc,2020-08-10_16h30.12.573,lexical_decision_task_MP,2020.1.3,Linux armv8l,60,,0,0.434812972,-0.308935073,1,0,0,0.6581,button_right,0.6581,1,,,,,,155,WORD,UN,33,cradle,LIZARD,m,,,,,,0.434812972,-0.308935073,1,0,0,,0,145,145,154,1,
,,,,,,,,,,,,,,,,,,5ed368ce7400922f544fdecc,2020-08-10_16h30.12.573,lexical_decision_task_MP,2020.1.3,Linux armv8l,60,,0,0.452312432,-0.311616916,1,0,0,0.7241,button_right,0.7241,1,,,,,,111,WORD,"ID",50,induce,INDUCE,m,,,,,,0.452312432,-0.311616916,1,0,0,,0,146,146,110,1,
,,,,,,,,,,,,,,,,,,5ed368ce7400922f544fdecc,2020-08-10_16h30.12.573,lexical_decision_task_MP,2020.1.3,Linux armv8l,60,,0,0.449738882,-0.31454253,1,0,0,0.539,button_right,0.539,1,,,,,,154,WORD,UN,33,lizard,AUTHOR,m,,,,,,0.449738882,-0.31454253,1,0,0,,0,147,147,153,1,
,,,,,,,,,,,,,,,,,,5ed368ce7400922f544fdecc,2020-08-10_16h30.12.573,lexical_decision_task_MP,2020.1.3,Linux armv8l,60,,0,0.454371184,-0.308935073,1,0,0,0.7245,button_right,0.7245,1,,,,,,126,WORD,UN,33,castle,ENOUGH,m,,,,,,0.454371184,-0.308935073,1,0,0,,0,148,148,125,1,
,,,,,,,,,,,,,,,,,,5ed368ce7400922f544fdecc,2020-08-10_16h30.12.573,lexical_decision_task_MP,2020.1.3,Linux armv8l,60,,0,-0.407225192,-0.296257389,1,0,0,0.7921,button_left,0.7921,1,,,,,,335,NW,"ID",50,desion,DESION,z,,,,,,-0.407225192,-0.296257389,1,0,0,,0,149,149,334,1,
,,,,,,,,,,,,,,,,,,5ed368ce7400922f544fdecc,2020-08-10_16h30.12.573,lexical_decision_task_MP,2020.1.3,Linux armv8l,60,,0,-0.397960663,-0.298451618,1,0,0,0.6822,button_left,0.6822,1,,,,,,293,NW,"ID",33,swance,SWANCE,z,,,,,,-0.397960663,-0.298451618,1,0,0,,0,150,150,292,1,
,,,,,,,,,,,,,,,,,,5ed368ce7400922f544fdecc,2020-08-10_16h30.12.573,lexical_decision_task_MP,2020.1.3,Linux armv8l,60,,0,0.450253829,-0.316980677,1,0,0,0.5837,button_right,0.5837,1,,,,,,153,WORD,UN,33,author,BEHOLD,m,,,,,,0.450253829,-0.316980677,1,0,0,,0,151,151,152,1,
,,,,,,,,,,,,,,,,,,5ed368ce7400922f544fdecc,2020-08-10_16h30.12.573,lexical_decision_task_MP,2020.1.3,Linux armv8l,60,,0,-0.428327616,-0.307716073,1,0,0,0.6073,button_left,0.6073,1,,,,,,337,NW,"ID",50,rejols,REJOLS,z,,,,,,-0.428327616,-0.307716073,1,0,0,,0,152,152,336,1,
,,,,,,,,,,,,,,,,,,5ed368ce7400922f544fdecc,2020-08-10_16h30.12.573,lexical_decision_task_MP,2020.1.3,Linux armv8l,60,,0,0.450253829,-0.308691303,1,0,0,0.6043,button_right,0.6043,1,,,,,,130,WORD,UN,33,quench,STUPID,m,,,,,,0.450253829,-0.308691303,1,0,0,,0,153,153,129,1,
,,,,,,,,,,,,,,,,,,5ed368ce7400922f544fdecc,2020-08-10_16h30.12.573,lexical_decision_task_MP,2020.1.3,Linux armv8l,60,,0,0.44613603,-0.30357146,1,0,0,0.6472,button_right,0.6472,1,,,,,,224,WORD,UN,50,vulgar,PERIOD,m,,,,,,0.44613603,-0.30357146,1,0,0,,0,154,154,223,1,
,,,,,,,,,,,,,,,,,,5ed368ce7400922f544fdecc,2020-08-10_16h30.12.573,lexical_decision_task_MP,2020.1.3,Linux armv8l,60,,0,0.447680131,-0.310885531,1,0,0,0.6562,button_right,0.6562,1,,,,,,134,WORD,UN,33,import,STAPLE,m,,,,,,0.447680131,-0.310885531,1,0,0,,0,155,155,133,1,
,,,,,,,,,,,,,,,,,,5ed368ce7400922f544fdecc,2020-08-10_16h30.12.573,lexical_decision_task_MP,2020.1.3,Linux armv8l,60,,0,0.450768332,-0.302108617,1,0,0,0.7898,button_right,0.7898,1,,,,,,211,WORD,UN,50,verify,INFECT,m,,,,,,0.450768332,-0.302108617,1,0,0,,0,156,156,210,1,
,,,,,,,,,,,,,,,,,,5ed368ce7400922f544fdecc,2020-08-10_16h30.12.573,lexical_decision_task_MP,2020.1.3,Linux armv8l,60,,0,-0.392813784,-0.302352461,1,0,0,0.8391,button_left,0.8391,1,,,,,,316,NW,"ID",50,scregm,SCREGM,z,,,,,,-0.392813784,-0.302352461,1,0,0,,0,157,157,315,1,
,,,,,,,,,,,,,,,,,,5ed368ce7400922f544fdecc,2020-08-10_16h30.12.573,lexical_decision_task_MP,2020.1.3,Linux armv8l,60,,0,-0.409798594,-0.281385477,1,0,0,0.6726,button_left,0.6726,1,,,,,,256,NW,"ID",33,inlors,INLORS,z,,,,,,-0.409798594,-0.281385477,1,0,0,,0,158,158,255,1,
,,,,,,,,,,,,,,,,,,5ed368ce7400922f544fdecc,2020-08-10_16h30.12.573,lexical_decision_task_MP,2020.1.3,Linux armv8l,60,,0,-0.411857383,-0.294307079,1,0,0,0.6553,button_left,0.6553,1,,,,,,465,NW,UN,50,hocite,WHIVEX,z,,,,,,-0.411857383,-0.294307079,1,0,0,,0,159,159,464,1,
,,,,,,,,,,,,,,,,,,5ed368ce7400922f544fdecc,2020-08-10_16h30.12.573,lexical_decision_task_MP,2020.1.3,Linux armv8l,60,,0,0.452312432,-0.313567449,1,0,0,0.6098,button_right,0.6098,1,,,,,,175,WORD,UN,33,strife,FABRIC,m,,,,,,0.452312432,-0.313567449,1,0,0,,0,160,160,174,1,
,,,,,,,,,,,,,,,,,,5ed368ce7400922f544fdecc,2020-08-10_16h30.12.573,lexical_decision_task_MP,2020.1.3,Linux armv8l,60,,0,0.453856681,-0.309422687,1,0,0,0.6523,button_right,0.6523,1,,,,,,45,WORD,"ID",33,clergy,CLERGY,m,,,,,,0.453856681,-0.309422687,1,0,0,,0,161,161,44,1,
,,,,,,,,,,,,,,,,,,5ed368ce7400922f544fdecc,2020-08-10_16h30.12.573,lexical_decision_task_MP,2020.1.3,Linux armv8l,60,,0,0.453341734,-0.308691303,1,0,0,0.7007,button_right,0.7007,1,,,,,,122,WORD,UN,33,strike,LINGER,m,,,,,,0.453341734,-0.308691303,1,0,0,,0,162,162,121,1,
,,,,,,,,,,,,,,,,,,5ed368ce7400922f544fdecc,2020-08-10_16h30.12.573,lexical_decision_task_MP,2020.1.3,Linux armv8l,60,,0,0.452827231,-0.313811145,1,0,0,0.5226,button_right,0.5226,1,,,,,,38,WORD,"ID",33,powder,POWDER,m,,,,,,0.452827231,-0.313811145,1,0,0,,0,163,163,37,1,
,,,,,,,,,,,,,,,,,,5ed368ce7400922f544fdecc,2020-08-10_16h30.12.573,lexical_decision_task_MP,2020.1.3,Linux armv8l,60,,0,-0.393328472,-0.28553009,1,0,0,0.6834,button_left,0.6834,1,,,,,,396,NW,UN,33,camble,FLENGY,z,,,,,,-0.393328472,-0.28553009,1,0,0,,0,164,164,395,1,
,,,,,,,,,,,,,,,,,,5ed368ce7400922f544fdecc,2020-08-10_16h30.12.573,lexical_decision_task_MP,2020.1.3,Linux armv8l,60,,0,-0.409283907,-0.291868932,1,0,0,0.7147,button_left,0.7147,1,,,,,,246,NW,"ID",33,piaton,PIATON,z,,,,,,-0.409283907,-0.291868932,1,0,0,,0,165,165,245,1,
,,,,,,,,,,,,,,,,,,5ed368ce7400922f544fdecc,2020-08-10_16h30.12.573,lexical_decision_task_MP,2020.1.3,Linux armv8l,60,,0,0.452312432,-0.304546764,1,0,0,0.5195,button_right,0.5195,1,,,,,,163,WORD,UN,33,market,STRING,m,,,,,,0.452312432,-0.304546764,1,0,0,,0,166,166,162,1,
,,,,,,,,,,,,,,,,,,5ed368ce7400922f544fdecc,2020-08-10_16h30.12.573,lexical_decision_task_MP,2020.1.3,Linux armv8l,60,,0,0.452827231,-0.310397917,1,0,0,0.5698,button_right,0.5698,1,,,,,,61,WORD,"ID",50,ponder,PONDER,m,,,,,,0.452827231,-0.310397917,1,0,0,,0,167,167,60,1,
,,,,,,,,,,,,,,,,,,5ed368ce7400922f544fdecc,2020-08-10_16h30.12.573,lexical_decision_task_MP,2020.1.3,Linux armv8l,60,,0,-0.411342732,-0.289918548,1,0,0,0.657,button_left,0.657,1,,,,,,282,NW,"ID",33,porlex,PORLEX,z,,,,,,-0.411342732,-0.289918548,1,0,0,,0,168,168,281,1,
,,,,,,,,,,,,,,,,,,5ed368ce7400922f544fdecc,2020-08-10_16h30.12.573,lexical_decision_task_MP,2020.1.3,Linux armv8l,60,,0,0.453856681,-0.295526005,1,0,0,0.604,button_right,0.604,1,,,,,,68,WORD,"ID",50,fumble,FUMBLE,m,,,,,,0.453856681,-0.295526005,1,0,0,,0,169,169,67,1,
,,,,,,,,,,,,,,,,,,5ed368ce7400922f544fdecc,2020-08-10_16h30.12.573,lexical_decision_task_MP,2020.1.3,Linux armv8l,60,,0,-0.40773988,-0.254079652,1,0,0,0.679,button_left,0.679,1,,,,,,389,NW,UN,33,hatrus,WITMER,z,,,,,,-0.40773988,-0.254079652,1,0,0,,0,170,170,388,1,
,,,,,,,,,,,,,,,,,,5ed368ce7400922f544fdecc,2020-08-10_16h30.12.573,lexical_decision_task_MP,2020.1.3,Linux armv8l,60,,0,-0.425239452,-0.274802791,1,0,0,0.7481,button_left,0.7481,1,,,,,,367,NW,UN,33,hornal,SLIQUE,z,,,,,,-0.425239452,-0.274802791,1,0,0,,0,171,171,366,1,
,,,,,,,,,,,,,,,,,,5ed368ce7400922f544fdecc,2020-08-10_16h30.12.573,lexical_decision_task_MP,2020.1.3,Linux armv8l,60,,0,-0.422151288,-0.28553009,1,0,0,0.7877,button_left,0.7877,1,,,,,,269,NW,"ID",33,orchet,ORCHET,z,,,,,,-0.422151288,-0.28553009,1,0,0,,0,172,172,268,1,
,,,,,,,,,,,,,,,,,,5ed368ce7400922f544fdecc,2020-08-10_16h30.12.573,lexical_decision_task_MP,2020.1.3,Linux armv8l,60,,0,-0.432959844,-0.266025951,1,0,0,0.5871,button_left,0.5871,1,,,,,,423,NW,UN,50,praile,STRELD,z,,,,,,-0.432959844,-0.266025951,1,0,0,,0,173,173,422,1,
,,,,,,,,,,,,,,,,,,5ed368ce7400922f544fdecc,2020-08-10_16h30.12.573,lexical_decision_task_MP,2020.1.3,Linux armv8l,60,,0,-0.43038633,-0.263831722,1,0,0,0.6048,button_left,0.6048,1,,,,,,317,NW,"ID",50,worbal,WORBAL,z,,,,,,-0.43038633,-0.263831722,1,0,0,,0,174,174,316,1,
,,,,,,,,,,,,,,,,,,5ed368ce7400922f544fdecc,2020-08-10_16h30.12.573,lexical_decision_task_MP,2020.1.3,Linux armv8l,60,,0,-0.425239452,-0.272852407,1,0,0,0.7673,button_left,0.7673,1,,,,,,409,NW,UN,33,tunory,ELOPIA,z,,,,,,-0.425239452,-0.272852407,1,0,0,,0,175,175,408,1,
,,,,,,,,,,,,,,,,,,5ed368ce7400922f544fdecc,2020-08-10_16h30.12.573,lexical_decision_task_MP,2020.1.3,Linux armv8l,60,,0,-0.426268791,-0.266513565,1,0,0,0.554,button_left,0.554,1,,,,,,323,NW,"ID",50,rosail,ROSAIL,z,,,,,,-0.426268791,-0.266513565,1,0,0,,0,176,176,322,1,
,,,,,,,,,,,,,,,,,,5ed368ce7400922f544fdecc,2020-08-10_16h30.12.573,lexical_decision_task_MP,2020.1.3,Linux armv8l,60,,0,0.445106729,-0.296988774,1,0,0,0.5194,button_right,0.5194,1,,,,,,42,WORD,"ID",33,chapel,CHAPEL,m,,,,,,0.445106729,-0.296988774,1,0,0,,0,177,177,41,1,
,,,,,,,,,,,,,,,,,,5ed368ce7400922f544fdecc,2020-08-10_16h30.12.573,lexical_decision_task_MP,2020.1.3,Linux armv8l,60,,0,-0.429871642,-0.268951564,1,0,0,0.7218,button_left,0.7218,1,,,,,,271,NW,"ID",33,aubrid,AUBRID,z,,,,,,-0.429871642,-0.268951564,1,0,0,,0,178,178,270,1,
,,,,,,,,,,,,,,,,,,5ed368ce7400922f544fdecc,2020-08-10_16h30.12.573,lexical_decision_task_MP,2020.1.3,Linux armv8l,60,,0,-0.425239452,-0.282848395,1,0,0,0.6032,button_left,0.6032,1,,,,,,287,NW,"ID",33,nymbel,NYMBEL,z,,,,,,-0.425239452,-0.282848395,1,0,0,,0,179,179,286,1,
,,,,,,,,,,,,,,,,,,5ed368ce7400922f544fdecc,2020-08-10_16h30.12.573,lexical_decision_task_MP,2020.1.3,Linux armv8l,60,,0,-0.422151288,-0.281629248,1,0,0,0.5964,button_left,0.5964,1,,,,,,417,NW,UN,33,suidle,EAROUD,z,,,,,,-0.422151288,-0.281629248,1,0,0,,0,180,180,416,1,
,,,,,,,,,,,,,,,,,,5ed368ce7400922f544fdecc,2020-08-10_16h30.12.573,lexical_decision_task_MP,2020.1.3,Linux armv8l,60,,0,0.445621528,-0.311860835,1,0,0,0.5648,button_right,0.5648,1,,,,,,22,WORD,"ID",33,jockey,JOCKEY,m,,,,,,0.445621528,-0.311860835,1,0,0,,0,181,181,21,1,
,,,,,,,,,,,,,,,,,,5ed368ce7400922f544fdecc,2020-08-10_16h30.12.573,lexical_decision_task_MP,2020.1.3,Linux armv8l,60,,0,0.456944586,-0.307228459,1,0,0,0.5507,button_right,0.5507,1,,,,,,88,WORD,"ID",50,hunger,HUNGER,m,,,,,,0.456944586,-0.307228459,1,0,0,,0,182,182,87,1,
,,,,,,,,,,,,,,,,,,5ed368ce7400922f544fdecc,2020-08-10_16h30.12.573,lexical_decision_task_MP,2020.1.3,Linux armv8l,60,,0,0.457459533,-0.300158232,1,0,0,0.5233,button_right,0.5233,1,,,,,,187,WORD,UN,50,social,COURSE,m,,,,,,0.457459533,-0.300158232,1,0,0,,0,183,183,186,1,
,,,,,,,,,,,,,,,,,,5ed368ce7400922f544fdecc,2020-08-10_16h30.12.573,lexical_decision_task_MP,2020.1.3,Linux armv8l,60,,0,-0.412886758,-0.28553009,1,0,0,0.9276,button_left,0.9276,1,,,,,,314,NW,"ID",50,sprine,SPRINE,z,,,,,,-0.412886758,-0.28553009,1,0,0,,0,184,184,313,1,
,,,,,,,,,,,,,,,,,,5ed368ce7400922f544fdecc,2020-08-10_16h30.12.573,lexical_decision_task_MP,2020.1.3,Linux armv8l,60,,0,0.453341734,-0.312104531,1,0,0,0.634,button_right,0.634,1,,,,,,10,WORD,"ID",33,ethnic,ETHNIC,m,,,,,,0.453341734,-0.312104531,1,0,0,,0,185,185,9,1,
,,,,,,,,,,,,,,,,,,5ed368ce7400922f544fdecc,2020-08-10_16h30.12.573,lexical_decision_task_MP,2020.1.3,Linux armv8l,60,,0,-0.411342732,-0.283823476,1,0,0,0.6387,button_left,0.6387,1,,,,,,424,NW,UN,50,urivel,PRAILE,z,,,,,,-0.411342732,-0.283823476,1,0,0,,0,186,186,423,1,
,,,,,,,,,,,,,,,,,,5ed368ce7400922f544fdecc,2020-08-10_16h30.12.573,lexical_decision_task_MP,2020.1.3,Linux armv8l,60,,0,-0.423695314,-0.272608711,1,0,0,0.7613,button_left,0.7613,1,,,,,,364,NW,UN,33,guairt,IMPOTE,z,,,,,,-0.423695314,-0.272608711,1,0,0,,0,187,187,363,1,
,,,,,,,,,,,,,,,,,,5ed368ce7400922f544fdecc,2020-08-10_16h30.12.573,lexical_decision_task_MP,2020.1.3,Linux armv8l,60,,0,0.458488687,-0.306740992,1,0,0,0.6497,button_right,0.6497,1,,,,,,20,WORD,"ID",33,breast,BREAST,m,,,,,,0.458488687,-0.306740992,1,0,0,,0,188,188,19,1,
,,,,,,,,,,,,,,,,,,5ed368ce7400922f544fdecc,2020-08-10_16h30.12.573,lexical_decision_task_MP,2020.1.3,Linux armv8l,60,,0,-0.41340152,-0.280166478,1,0,0,0.5745,button_left,0.5745,1,,,,,,349,NW,"ID",50,asylen,ASYLEN,z,,,,,,-0.41340152,-0.280166478,1,0,0,,0,189,189,348,1,
,,,,,,,,,,,,,,,,,,5ed368ce7400922f544fdecc,2020-08-10_16h30.12.573,lexical_decision_task_MP,2020.1.3,Linux armv8l,60,,0,-0.426268791,-0.26529464,1,0,0,0.5979,button_left,0.5979,1,,,,,,274,NW,"ID",33,fumblo,FUMBLO,z,,,,,,-0.426268791,-0.26529464,1,0,0,,0,190,190,273,1,
,,,,,,,,,,,,,,,,,,5ed368ce7400922f544fdecc,2020-08-10_16h30.12.573,lexical_decision_task_MP,2020.1.3,Linux armv8l,60,,0,0.460547438,-0.321125216,1,0,0,0.8522,button_right,0.8522,1,,,,,,230,WORD,UN,50,export,FRINGE,m,,,,,,0.460547438,-0.321125216,1,0,0,,0,191,191,229,1,
,,,,,,,,,,,,,,,,,,5ed368ce7400922f544fdecc,2020-08-10_16h30.12.573,lexical_decision_task_MP,2020.1.3,Linux armv8l,60,,0,-0.40362234,-0.287480623,1,0,0,0.57,button_left,0.57,1,,,,,,309,NW,"ID",50,amiloy,AMILOY,z,,,,,,-0.40362234,-0.287480623,1,0,0,,0,192,192,308,1,
,,,,,,,,,,,,,,,,,,5ed368ce7400922f544fdecc,2020-08-10_16h30.12.573,lexical_decision_task_MP,2020.1.3,Linux armv8l,60,,0,-0.409283907,-0.28553009,1,0,0,0.7081,button_left,0.7081,1,,,,,,397,NW,UN,33,blunde,CAMBLE,z,,,,,,-0.409283907,-0.28553009,1,0,0,,0,193,193,396,1,
,,,,,,,,,,,,,,,,,,5ed368ce7400922f544fdecc,2020-08-10_16h30.12.573,lexical_decision_task_MP,2020.1.3,Linux armv8l,60,,0,-0.409283907,-0.276509405,1,0,0,0.6384,button_left,0.6384,1,,,,,,457,NW,UN,50,barcet,WANIGH,z,,,,,,-0.409283907,-0.276509405,1,0,0,,0,194,194,456,1,
,,,,,,,,,,,,,,,,,,5ed368ce7400922f544fdecc,2020-08-10_16h30.12.573,lexical_decision_task_MP,2020.1.3,Linux armv8l,60,,0,-0.409798594,-0.27382771,1,0,0,0.5114,button_left,0.5114,1,,,,,,381,NW,UN,33,sarley,HUNIEK,z,,,,,,-0.409798594,-0.27382771,1,0,0,,0,195,195,380,1,
,,,,,,,,,,,,,,,,,,5ed368ce7400922f544fdecc,2020-08-10_16h30.12.573,lexical_decision_task_MP,2020.1.3,Linux armv8l,60,,0,-0.41648961,-0.269195483,1,0,0,0.5213,button_left,0.5213,1,,,,,,300,NW,"ID",33,yarion,YARION,z,,,,,,-0.41648961,-0.269195483,1,0,0,,0,196,196,299,1,
,,,,,,,,,,,,,,,,,,5ed368ce7400922f544fdecc,2020-08-10_16h30.12.573,lexical_decision_task_MP,2020.1.3,Linux armv8l,60,,0,-0.417004372,-0.267488868,1,0,0,0.4265,button_left,0.4265,1,,,,,,447,NW,UN,50,sadent,GIRCUE,z,,,,,,-0.417004372,-0.267488868,1,0,0,,0,197,197,446,1,
,,,,,,,,,,,,,,,,,,5ed368ce7400922f544fdecc,2020-08-10_16h30.12.573,lexical_decision_task_MP,2020.1.3,Linux armv8l,60,,0,-0.424724764,-0.254567267,1,0,0,0.5692,button_left,0.5692,1,,,,,,431,NW,UN,50,lunker,CHRUMS,z,,,,,,-0.424724764,-0.254567267,1,0,0,,0,198,198,430,1,
,,,,,,,,,,,,,,,,,,5ed368ce7400922f544fdecc,2020-08-10_16h30.12.573,lexical_decision_task_MP,2020.1.3,Linux armv8l,60,,0,0.464665237,-0.308935073,1,0,0,0.7525,button_right,0.7525,1,,,,,,204,WORD,UN,50,lounge,BURDEN,m,,,,,,0.464665237,-0.308935073,1,0,0,,0,199,199,203,1,
,,,,,,,,,,,,,,,,,,5ed368ce7400922f544fdecc,2020-08-10_16h30.12.573,lexical_decision_task_MP,2020.1.3,Linux armv8l,60,,0,-0.404137028,-0.281629248,1,0,0,0.5388,button_left,0.5388,1,,,,,,383,NW,UN,33,guesco,AUNGRE,z,,,,,,-0.404137028,-0.281629248,1,0,0,,0,200,200,382,1,
,,,,,,,,,,,,,,,,,,5ed368ce7400922f544fdecc,2020-08-10_16h30.12.573,lexical_decision_task_MP,2020.1.3,Linux armv8l,60,,0,-0.401563515,-0.279922633,1,0,0,0.5895,button_left,0.5895,1,,,,,,452,NW,UN,50,bolvis,SURDEN,z,,,,,,-0.401563515,-0.279922633,1,0,0,,0,201,201,451,1,
,,,,,,,,,,,,,,,,,,5ed368ce7400922f544fdecc,2020-08-10_16h30.12.573,lexical_decision_task_MP,2020.1.3,Linux armv8l,60,,0,0.461576888,-0.302596231,1,0,0,0.871,button_right,0.871,1,,,,,,47,WORD,"ID",33,income,INCOME,m,,,,,,0.461576888,-0.302596231,1,0,0,,0,202,202,46,1,
,,,,,,,,,,,,,,,,,,5ed368ce7400922f544fdecc,2020-08-10_16h30.12.573,lexical_decision_task_MP,2020.1.3,Linux armv8l,60,,0,-0.393843123,-0.278459864,1,0,0,0.5764,button_left,0.5764,1,,,,,,351,NW,"ID",50,tiesch,TIESCH,z,,,,,,-0.393843123,-0.278459864,1,0,0,,0,203,203,350,1,
,,,,,,,,,,,,,,,,,,5ed368ce7400922f544fdecc,2020-08-10_16h30.12.573,lexical_decision_task_MP,2020.1.3,Linux armv8l,60,,0,0.475473793,-0.30357146,1,0,0,1.1055,button_right,1.1055,1,,,,,,179,WORD,UN,33,silent,BASKET,m,,,,,,0.475473793,-0.30357146,1,0,0,,0,204,204,178,1,
,,,,,,,,,,,,,,,,,,5ed368ce7400922f544fdecc,2020-08-10_16h30.12.573,lexical_decision_task_MP,2020.1.3,Linux armv8l,60,,0,0.471870941,-0.299914536,1,0,0,0.6366,button_right,0.6366,1,,,,,,30,WORD,"ID",33,orient,ORIENT,m,,,,,,0.471870941,-0.299914536,1,0,0,,0,205,205,29,1,
,,,,,,,,,,,,,,,,,,5ed368ce7400922f544fdecc,2020-08-10_16h30.12.573,lexical_decision_task_MP,2020.1.3,Linux armv8l,60,,0,-0.413916208,-0.270902097,1,0,0,0.5808,button_left,0.5808,1,,,,,,304,NW,"ID",50,cludie,CLUDIE,z,,,,,,-0.413916208,-0.270902097,1,0,0,,0,206,206,303,1,
,,,,,,,,,,,,,,,,,,5ed368ce7400922f544fdecc,2020-08-10_16h30.12.573,lexical_decision_task_MP,2020.1.3,Linux armv8l,60,,0,0.46672384,-0.299914536,1,0,0,0.6131,button_right,0.6131,1,,,,,,34,WORD,"ID",33,jungle,JUNGLE,m,,,,,,0.46672384,-0.299914536,1,0,0,,0,207,207,33,1,
,,,,,,,,,,,,,,,,,,5ed368ce7400922f544fdecc,2020-08-10_16h30.12.573,lexical_decision_task_MP,2020.1.3,Linux armv8l,60,,0,0.463120988,-0.302108617,1,0,0,0.6085,button_right,0.6085,1,,,,,,74,WORD,"ID",50,plaque,PLAQUE,m,,,,,,0.463120988,-0.302108617,1,0,0,,0,208,208,73,1,
,,,,,,,,,,,,,,,,,,5ed368ce7400922f544fdecc,2020-08-10_16h30.12.573,lexical_decision_task_MP,2020.1.3,Linux armv8l,60,,0,-0.418548436,-0.269682949,1,0,0,0.5338,button_left,0.5338,1,,,,,,422,NW,UN,50,streld,ALCOUD,z,,,,,,-0.418548436,-0.269682949,1,0,0,,0,209,209,421,1,
,,,,,,,,,,,,,,,,,,5ed368ce7400922f544fdecc,2020-08-10_16h30.12.573,lexical_decision_task_MP,2020.1.3,Linux armv8l,60,,0,-0.41751906,-0.269195483,1,0,0,0.5909,button_left,0.5909,1,,,,,,416,NW,UN,33,earoud,PATHEL,z,,,,,,-0.41751906,-0.269195483,1,0,0,,0,210,210,415,1,
,,,,,,,,,,,,,,,,,,5ed368ce7400922f544fdecc,2020-08-10_16h30.12.573,lexical_decision_task_MP,2020.1.3,Linux armv8l,60,,0,-0.407225192,-0.270658178,1,0,0,0.6193,button_left,0.6193,1,,,,,,254,NW,"ID",33,varosh,VAROSH,z,,,,,,-0.407225192,-0.270658178,1,0,0,,0,211,211,253,1,
,,,,,,,,,,,,,,,,,,5ed368ce7400922f544fdecc,2020-08-10_16h30.12.573,lexical_decision_task_MP,2020.1.3,Linux armv8l,60,,0,0.46517974,-0.305278074,1,0,0,0.6534,button_right,0.6534,1,,,,,,101,WORD,"ID",50,wrench,WRENCH,m,,,,,,0.46517974,-0.305278074,1,0,0,,0,212,212,100,1,
,,,,,,,,,,,,,,,,,,5ed368ce7400922f544fdecc,2020-08-10_16h30.12.573,lexical_decision_task_MP,2020.1.3,Linux armv8l,60,,0,0.466209041,-0.303327764,1,0,0,0.8371,button_right,0.8371,1,,,,,,90,WORD,"ID",50,relish,RELISH,m,,,,,,0.466209041,-0.303327764,1,0,0,,0,213,213,89,1,
,,,,,,,,,,,,,,,,,,5ed368ce7400922f544fdecc,2020-08-10_16h30.12.573,lexical_decision_task_MP,2020.1.3,Linux armv8l,60,,0,0.459003337,-0.29503839,1,0,0,0.5545,button_right,0.5545,1,,,,,,164,WORD,UN,33,invest,MARKET,m,,,,,,0.459003337,-0.29503839,1,0,0,,0,214,214,163,1,
,,,,,,,,,,,,,,,,,,5ed368ce7400922f544fdecc,2020-08-10_16h30.12.573,lexical_decision_task_MP,2020.1.3,Linux armv8l,60,,0,0.461576888,-0.298451618,1,0,0,0.7068,button_right,0.7068,1,,,,,,148,WORD,UN,33,invade,CUSTOM,m,,,,,,0.461576888,-0.298451618,1,0,0,,0,215,215,147,1,
,,,,,,,,,,,,,,,,,,5ed368ce7400922f544fdecc,2020-08-10_16h30.12.573,lexical_decision_task_MP,2020.1.3,Linux armv8l,60,,0,-0.41751906,-0.248716114,1,0,0,0.5989,button_left,0.5989,1,,,,,,408,NW,UN,33,flumni,HURNIA,z,,,,,,-0.41751906,-0.248716114,1,0,0,,0,216,216,407,1,
,,,,,,,,,,,,,,,,,,5ed368ce7400922f544fdecc,2020-08-10_16h30.12.573,lexical_decision_task_MP,2020.1.3,Linux armv8l,60,,0,0.46415029,-0.297964003,1,0,0,0.6726,button_right,0.6726,1,,,,,,149,WORD,UN,33,random,INVADE,m,,,,,,0.46415029,-0.297964003,1,0,0,,0,217,217,148,1,
,,,,,,,,,,,,,,,,,,5ed368ce7400922f544fdecc,2020-08-10_16h30.12.573,lexical_decision_task_MP,2020.1.3,Linux armv8l,60,,0,0.458488687,-0.296988774,1,0,0,0.7299,button_right,0.7299,1,,,,,,192,WORD,UN,50,object,PLAGUE,m,,,,,,0.458488687,-0.296988774,1,0,0,,0,218,218,191,1,
,,,,,,,,,,,,,,,,,,5ed368ce7400922f544fdecc,2020-08-10_16h30.12.573,lexical_decision_task_MP,2020.1.3,Linux armv8l,60,,0,-0.42575414,-0.290162318,1,0,0,1.4245,button_left,1.4245,1,,,,,,295,NW,"ID",33,gleath,GLEATH,z,,,,,,-0.42575414,-0.290162318,1,0,0,,0,219,219,294,1,
,,,,,,,,,,,,,,,,,,5ed368ce7400922f544fdecc,2020-08-10_16h30.12.573,lexical_decision_task_MP,2020.1.3,Linux armv8l,60,,0,-0.430901018,-0.282848395,1,0,0,0.8734,button_left,0.8734,1,,,,,,440,NW,UN,50,cainky,SARIDE,z,,,,,,-0.430901018,-0.282848395,1,0,0,,0,220,220,439,1,
,,,,,,,,,,,,,,,,,,5ed368ce7400922f544fdecc,2020-08-10_16h30.12.573,lexical_decision_task_MP,2020.1.3,Linux armv8l,60,,0,-0.406195742,-0.280410248,1,0,0,0.5709,button_left,0.5709,1,,,,,,438,NW,UN,50,limpor,BAITCH,z,,,,,,-0.406195742,-0.280410248,1,0,0,,0,221,221,437,1,
,,,,,,,,,,,,,,,,,,5ed368ce7400922f544fdecc,2020-08-10_16h30.12.573,lexical_decision_task_MP,2020.1.3,Linux armv8l,60,,0,-0.422151288,-0.273583792,1,0,0,0.5172,button_left,0.5172,1,,,,,,361,NW,UN,33,tireau,PAUCHE,z,,,,,,-0.422151288,-0.273583792,1,0,0,,0,222,222,360,1,
,,,,,,,,,,,,,,,,,,5ed368ce7400922f544fdecc,2020-08-10_16h30.12.573,lexical_decision_task_MP,2020.1.3,Linux armv8l,60,,0,0.471870941,-0.304059075,1,0,0,0.6336,button_right,0.6336,1,,,,,,139,WORD,UN,33,prince,DEBRIS,m,,,,,,0.471870941,-0.304059075,1,0,0,,0,223,223,138,1,
,,,,,,,,,,,,,,,,,,5ed368ce7400922f544fdecc,2020-08-10_16h30.12.573,lexical_decision_task_MP,2020.1.3,Linux armv8l,60,,0,-0.41340152,-0.284311091,1,0,0,0.6525,button_left,0.6525,0,,,,,,169,WORD,UN,33,pounce,GENIUS,m,,,,,,-0.41340152,-0.284311091,1,0,0,,0,224,224,168,1,
,,,,,,,,,,,,,,,,,,5ed368ce7400922f544fdecc,2020-08-10_16h30.12.573,lexical_decision_task_MP,2020.1.3,Linux armv8l,60,,0,-0.424210076,-0.27699702,1,0,0,0.7698,button_left,0.7698,1,,,,,,385,NW,UN,33,ancust,VEIGMA,z,,,,,,-0.424210076,-0.27699702,1,0,0,,0,225,225,384,1,
,,,,,,,,,,,,,,,,,,5ed368ce7400922f544fdecc,2020-08-10_16h30.12.573,lexical_decision_task_MP,2020.1.3,Linux armv8l,60,,0,0.46672384,-0.304059075,1,0,0,0.588,button_right,0.588,1,,,,,,221,WORD,UN,50,hinder,MASCOT,m,,,,,,0.46672384,-0.304059075,1,0,0,,0,226,226,220,1,
,,,,,,,,,,,,,,,,,,5ed368ce7400922f544fdecc,2020-08-10_16h30.12.573,lexical_decision_task_MP,2020.1.3,Linux armv8l,60,,0,0.463635787,-0.29503839,1,0,0,0.5396,button_right,0.5396,1,,,,,,132,WORD,UN,33,bleach,STRONG,m,,,,,,0.463635787,-0.29503839,1,0,0,,0,227,227,131,1,
,,,,,,,,,,,,,,,,,,5ed368ce7400922f544fdecc,2020-08-10_16h30.12.573,lexical_decision_task_MP,2020.1.3,Linux armv8l,60,,0,-0.419063087,-0.281141781,1,0,0,0.6758,button_left,0.6758,1,,,,,,419,NW,UN,33,gushop,SLOUNT,z,,,,,,-0.419063087,-0.281141781,1,0,0,,0,228,228,418,1,
,,,,,,,,,,,,,,,,,,5ed368ce7400922f544fdecc,2020-08-10_16h30.12.573,lexical_decision_task_MP,2020.1.3,Linux armv8l,60,,0,0.473929544,-0.299670618,1,0,0,0.6025,button_right,0.6025,1,,,,,,97,WORD,"ID",50,client,CLIENT,m,,,,,,0.473929544,-0.299670618,1,0,0,,0,229,229,96,1,
,,,,,,,,,,,,,,,,,,5ed368ce7400922f544fdecc,2020-08-10_16h30.12.573,lexical_decision_task_MP,2020.1.3,Linux armv8l,60,,0,-0.405166367,-0.29308808,1,0,0,0.5866,button_left,0.5866,1,,,,,,318,NW,"ID",50,reagly,REAGLY,z,,,,,,-0.405166367,-0.29308808,1,0,0,,0,230,230,317,1,
,,,,,,,,,,,,,,,,,,5ed368ce7400922f544fdecc,2020-08-10_16h30.12.573,lexical_decision_task_MP,2020.1.3,Linux armv8l,60,,0,-0.425239452,-0.275534324,1,0,0,0.7836,button_left,0.7836,1,,,,,,402,NW,UN,33,bruats,SYNTIC,z,,,,,,-0.425239452,-0.275534324,1,0,0,,0,231,231,401,1,
,,,,,,,,,,,,,,,,,,5ed368ce7400922f544fdecc,2020-08-10_16h30.12.573,lexical_decision_task_MP,2020.1.3,Linux armv8l,60,,0,-0.420607224,-0.272608711,1,0,0,0.5509,button_left,0.5509,1,,,,,,312,NW,"ID",50,nerawl,NERAWL,z,,,,,,-0.420607224,-0.272608711,1,0,0,,0,232,232,311,1,
,,,,,,,,,,,,,,,,,,5ed368ce7400922f544fdecc,2020-08-10_16h30.12.573,lexical_decision_task_MP,2020.1.3,Linux armv8l,60,,0,0.460032935,-0.29308808,1,0,0,0.665,button_right,0.665,1,,,,,,118,WORD,"ID",50,flight,FLIGHT,m,,,,,,0.460032935,-0.29308808,1,0,0,,0,233,233,117,1,
,,,,,,,,,,,,,,,,,,5ed368ce7400922f544fdecc,2020-08-10_16h30.12.573,lexical_decision_task_MP,2020.1.3,Linux armv8l,60,,0,0.46569439,-0.296745004,1,0,0,0.6038,button_right,0.6038,1,,,,,,225,WORD,UN,50,kidney,VULGAR,m,,,,,,0.46569439,-0.296745004,1,0,0,,0,234,234,224,1,
,,,,,,,,,,,,,,,,,,5ed368ce7400922f544fdecc,2020-08-10_16h30.12.573,lexical_decision_task_MP,2020.1.3,Linux armv8l,60,,0,-0.426268791,-0.288943318,1,0,0,0.5769,button_left,0.5769,1,,,,,,470,NW,UN,50,nobest,CRUDIO,z,,,,,,-0.426268791,-0.288943318,1,0,0,,0,235,235,469,1,
,,,,,,,,,,,,,,,,,,5ed368ce7400922f544fdecc,2020-08-10_16h30.12.573,lexical_decision_task_MP,2020.1.3,Linux armv8l,60,,0,-0.423695314,-0.280410248,1,0,0,0.8722,button_left,0.8722,1,,,,,,474,NW,UN,50,gorbie,HABLIN,z,,,,,,-0.423695314,-0.280410248,1,0,0,,0,236,236,473,1,
,,,,,,,,,,,,,,,,,,5ed368ce7400922f544fdecc,2020-08-10_16h30.12.573,lexical_decision_task_MP,2020.1.3,Linux armv8l,60,,0,0.464665237,-0.304302845,1,0,0,0.6173,button_right,0.6173,1,,,,,,49,WORD,"ID",33,survey,SURVEY,m,,,,,,0.464665237,-0.304302845,1,0,0,,0,237,237,48,1,
,,,,,,,,,,,,,,,,,,5ed368ce7400922f544fdecc,2020-08-10_16h30.12.573,lexical_decision_task_MP,2020.1.3,Linux armv8l,60,,0,-0.421121912,-0.283579706,1,0,0,0.5715,button_left,0.5715,1,,,,,,441,NW,UN,50,aboune,RASTOE,z,,,,,,-0.421121912,-0.283579706,1,0,0,,0,238,238,440,1,
,,,,,,,,,,,,,,,,,,5ed368ce7400922f544fdecc,2020-08-10_16h30.12.573,lexical_decision_task_MP,2020.1.3,Linux armv8l,60,,0,0.463120988,-0.300158232,1,0,0,0.6208,button_right,0.6208,1,,,,,,202,WORD,UN,50,phrase,FACTOR,m,,,,,,0.463120988,-0.300158232,1,0,0,,0,239,239,201,1,
,,,,,,,,,,,,,,,,,,5ed368ce7400922f544fdecc,2020-08-10_16h30.12.573,lexical_decision_task_MP,2020.1.3,Linux armv8l,60,,0,0.46672384,-0.302108617,1,0,0,0.6374,button_right,0.6374,1,,,,,,198,WORD,UN,50,invoke,WICKED,m,,,,,,0.46672384,-0.302108617,1,0,0,,0,240,240,197,1,
,,,,,,,,,,,,,,,,,,5ed368ce7400922f544fdecc,2020-08-10_16h30.12.573,lexical_decision_task_MP,2020.1.3,Linux armv8l,60,,0,-0.411857383,-0.291868932,1,0,0,0.6218,button_left,0.6218,1,,,,,,462,NW,UN,50,kispel,ABSULT,z,,,,,,0.061660248,-0.382319626,1,0,0,,0,241,241,461,1,break_done_button
,,,,,,,,,,,,,,,,,,5ed368ce7400922f544fdecc,2020-08-10_16h30.12.573,lexical_decision_task_MP,2020.1.3,Linux armv8l,60,,0,-0.471561839,-0.287968237,1,0,0,0.7859,button_left,0.7859,1,,,,,,458,NW,UN,50,chaite,BARCET,z,,,,,,-0.471561839,-0.287968237,1,0,0,,0,242,242,457,1,
,,,,,,,,,,,,,,,,,,5ed368ce7400922f544fdecc,2020-08-10_16h30.12.573,lexical_decision_task_MP,2020.1.3,Linux armv8l,60,,0,-0.445312426,-0.302108617,1,0,0,0.5361,button_left,0.5361,1,,,,,,421,NW,UN,50,alcoud,KNISMA,z,,,,,,-0.445312426,-0.302108617,1,0,0,,0,243,243,420,1,
,,,,,,,,,,,,,,,,,,5ed368ce7400922f544fdecc,2020-08-10_16h30.12.573,lexical_decision_task_MP,2020.1.3,Linux armv8l,60,,0,-0.430901018,-0.301377232,1,0,0,0.4868,button_left,0.4868,1,,,,,,290,NW,"ID",33,splino,SPLINO,z,,,,,,-0.430901018,-0.301377232,1,0,0,,0,244,244,289,1,
,,,,,,,,,,,,,,,,,,5ed368ce7400922f544fdecc,2020-08-10_16h30.12.573,lexical_decision_task_MP,2020.1.3,Linux armv8l,60,,0,-0.410828044,-0.299914536,1,0,0,0.5345,button_left,0.5345,1,,,,,,241,NW,"ID",33,smenco,SMENCO,z,,,,,,-0.410828044,-0.299914536,1,0,0,,0,245,245,240,1,
,,,,,,,,,,,,,,,,,,5ed368ce7400922f544fdecc,2020-08-10_16h30.12.573,lexical_decision_task_MP,2020.1.3,Linux armv8l,60,,0,-0.409798594,-0.276509405,1,0,0,0.5696,button_left,0.5696,1,,,,,,259,NW,"ID",33,soudal,SOUDAL,z,,,,,,-0.409798594,-0.276509405,1,0,0,,0,246,246,258,1,
,,,,,,,,,,,,,,,,,,5ed368ce7400922f544fdecc,2020-08-10_16h30.12.573,lexical_decision_task_MP,2020.1.3,Linux armv8l,60,,0,0.435842421,-0.288699548,1,0,0,0.6057,button_right,0.6057,1,,,,,,95,WORD,"ID",50,thread,THREAD,m,,,,,,0.435842421,-0.288699548,1,0,0,,0,247,247,94,1,
,,,,,,,,,,,,,,,,,,5ed368ce7400922f544fdecc,2020-08-10_16h30.12.573,lexical_decision_task_MP,2020.1.3,Linux armv8l,60,,0,-0.407225192,-0.288943318,1,0,0,0.5519,button_left,0.5519,1,,,,,,325,NW,"ID",50,thruse,THRUSE,z,,,,,,-0.407225192,-0.288943318,1,0,0,,0,248,248,324,1,
,,,,,,,,,,,,,,,,,,5ed368ce7400922f544fdecc,2020-08-10_16h30.12.573,lexical_decision_task_MP,2020.1.3,Linux armv8l,60,,0,0.44613603,-0.294550775,1,0,0,0.6469,button_right,0.6469,1,,,,,,23,WORD,"ID",33,wealth,WEALTH,m,,,,,,0.44613603,-0.294550775,1,0,0,,0,249,249,22,1,
,,,,,,,,,,,,,,,,,,5ed368ce7400922f544fdecc,2020-08-10_16h30.12.573,lexical_decision_task_MP,2020.1.3,Linux armv8l,60,,0,0.449738882,-0.296501308,1,0,0,0.521,button_right,0.521,1,,,,,,168,WORD,UN,33,genius,ANSWER,m,,,,,,0.449738882,-0.296501308,1,0,0,,0,250,250,167,1,
,,,,,,,,,,,,,,,,,,5ed368ce7400922f544fdecc,2020-08-10_16h30.12.573,lexical_decision_task_MP,2020.1.3,Linux armv8l,60,,0,-0.414945584,-0.29308808,1,0,0,0.5022,button_left,0.5022,1,,,,,,401,NW,UN,33,elopia,MUSTIL,z,,,,,,-0.414945584,-0.29308808,1,0,0,,0,251,251,400,1,
,,,,,,,,,,,,,,,,,,5ed368ce7400922f544fdecc,2020-08-10_16h30.12.573,lexical_decision_task_MP,2020.1.3,Linux armv8l,60,,0,0.448709581,-0.30162115,1,0,0,0.5819,button_right,0.5819,1,,,,,,171,WORD,UN,33,patrol,DEPART,m,,,,,,0.448709581,-0.30162115,1,0,0,,0,252,252,170,1,
,,,,,,,,,,,,,,,,,,5ed368ce7400922f544fdecc,2020-08-10_16h30.12.573,lexical_decision_task_MP,2020.1.3,Linux armv8l,60,,0,0.449224379,-0.30162115,1,0,0,0.4736,button_right,0.4736,1,,,,,,4,WORD,"ID",33,trench,TRENCH,m,,,,,,0.449224379,-0.30162115,1,0,0,,0,253,253,3,1,
,,,,,,,,,,,,,,,,,,5ed368ce7400922f544fdecc,2020-08-10_16h30.12.573,lexical_decision_task_MP,2020.1.3,Linux armv8l,60,,0,-0.422665939,-0.278216019,1,0,0,0.5421,button_left,0.5421,1,,,,,,448,NW,UN,50,brunge,SADENT,z,,,,,,-0.422665939,-0.278216019,1,0,0,,0,254,254,447,1,
,,,,,,,,,,,,,,,,,,5ed368ce7400922f544fdecc,2020-08-10_16h30.12.573,lexical_decision_task_MP,2020.1.3,Linux armv8l,60,,0,-0.41340152,-0.286992934,1,0,0,0.5231,button_left,0.5231,1,,,,,,405,NW,UN,33,nouply,FLUMNI,z,,,,,,-0.41340152,-0.286992934,1,0,0,,0,255,255,404,1,
,,,,,,,,,,,,,,,,,,5ed368ce7400922f544fdecc,2020-08-10_16h30.12.573,lexical_decision_task_MP,2020.1.3,Linux armv8l,60,,0,-0.411857383,-0.282848395,1,0,0,0.5543,button_left,0.5543,1,,,,,,432,NW,UN,50,drance,LUNKER,z,,,,,,-0.411857383,-0.282848395,1,0,0,,0,256,256,431,1,
,,,,,,,,,,,,,,,,,,5ed368ce7400922f544fdecc,2020-08-10_16h30.12.573,lexical_decision_task_MP,2020.1.3,Linux armv8l,60,,0,-0.411342732,-0.289430933,1,0,0,0.5512,button_left,0.5512,1,,,,,,379,NW,UN,33,cavory,AUTING,z,,,,,,-0.411342732,-0.289430933,1,0,0,,0,257,257,378,1,
,,,,,,,,,,,,,,,,,,5ed368ce7400922f544fdecc,2020-08-10_16h30.12.573,lexical_decision_task_MP,2020.1.3,Linux armv8l,60,,0,0.445106729,-0.30284015,1,0,0,0.5721,button_right,0.5721,1,,,,,,191,WORD,UN,50,absent,STABLE,m,,,,,,0.445106729,-0.30284015,1,0,0,,0,258,258,190,1,
,,,,,,,,,,,,,,,,,,5ed368ce7400922f544fdecc,2020-08-10_16h30.12.573,lexical_decision_task_MP,2020.1.3,Linux armv8l,60,,0,-0.406710504,-0.281629248,1,0,0,0.5023,button_left,0.5023,1,,,,,,311,NW,"ID",50,sproly,SPROLY,z,,,,,,-0.406710504,-0.281629248,1,0,0,,0,259,259,310,1,
,,,,,,,,,,,,,,,,,,5ed368ce7400922f544fdecc,2020-08-10_16h30.12.573,lexical_decision_task_MP,2020.1.3,Linux armv8l,60,,0,-0.407225192,-0.28553009,1,0,0,0.6226,button_left,0.6226,1,,,,,,334,NW,"ID",50,watmeg,WATMEG,z,,,,,,-0.407225192,-0.28553009,1,0,0,,0,260,260,333,1,
,,,,,,,,,,,,,,,,,,5ed368ce7400922f544fdecc,2020-08-10_16h30.12.573,lexical_decision_task_MP,2020.1.3,Linux armv8l,60,,0,0.449738882,-0.306009459,1,0,0,0.6633,button_right,0.6633,1,,,,,,25,WORD,"ID",33,domain,DOMAIN,m,,,,,,0.449738882,-0.306009459,1,0,0,,0,261,261,24,1,
,,,,,,,,,,,,,,,,,,5ed368ce7400922f544fdecc,2020-08-10_16h30.12.573,lexical_decision_task_MP,2020.1.3,Linux armv8l,60,,0,-0.40773988,-0.283092091,1,0,0,0.8681,button_left,0.8681,1,,,,,,358,NW,"ID",50,fleack,FLEACK,z,,,,,,-0.40773988,-0.283092091,1,0,0,,0,262,262,357,1,
,,,,,,,,,,,,,,,,,,5ed368ce7400922f544fdecc,2020-08-10_16h30.12.573,lexical_decision_task_MP,2020.1.3,Linux armv8l,60,,0,0.456944586,-0.299670618,1,0,0,0.6752,button_right,0.6752,1,,,,,,24,WORD,"ID",33,praise,PRAISE,m,,,,,,0.456944586,-0.299670618,1,0,0,,0,263,263,23,1,
,,,,,,,,,,,,,,,,,,5ed368ce7400922f544fdecc,2020-08-10_16h30.12.573,lexical_decision_task_MP,2020.1.3,Linux armv8l,60,,0,0.454371184,-0.300889617,1,0,0,0.6166,button_right,0.6166,1,,,,,,29,WORD,"ID",33,sketch,SKETCH,m,,,,,,0.454371184,-0.300889617,1,0,0,,0,264,264,28,1,
,,,,,,,,,,,,,,,,,,5ed368ce7400922f544fdecc,2020-08-10_16h30.12.573,lexical_decision_task_MP,2020.1.3,Linux armv8l,60,,0,0.452312432,-0.299914536,1,0,0,0.5701,button_right,0.5701,1,,,,,,201,WORD,UN,50,factor,ADMIRE,m,,,,,,0.452312432,-0.299914536,1,0,0,,0,265,265,200,1,
,,,,,,,,,,,,,,,,,,5ed368ce7400922f544fdecc,2020-08-10_16h30.12.573,lexical_decision_task_MP,2020.1.3,Linux armv8l,60,,0,-0.423695314,-0.288943318,1,0,0,0.6514,button_left,0.6514,1,,,,,,370,NW,UN,33,geiloy,SLEACT,z,,,,,,-0.423695314,-0.288943318,1,0,0,,0,266,266,369,1,
,,,,,,,,,,,,,,,,,,5ed368ce7400922f544fdecc,2020-08-10_16h30.12.573,lexical_decision_task_MP,2020.1.3,Linux armv8l,60,,0,0.456430083,-0.291868932,1,0,0,0.5862,button_right,0.5862,1,,,,,,145,WORD,UN,33,couple,PARISH,m,,,,,,0.456430083,-0.291868932,1,0,0,,0,267,267,144,1,
,,,,,,,,,,,,,,,,,,5ed368ce7400922f544fdecc,2020-08-10_16h30.12.573,lexical_decision_task_MP,2020.1.3,Linux armv8l,60,,0,0.454371184,-0.292356547,1,0,0,0.6116,button_right,0.6116,1,,,,,,240,WORD,UN,50,glance,FOREST,m,,,,,,0.454371184,-0.292356547,1,0,0,,0,268,268,239,1,
,,,,,,,,,,,,,,,,,,5ed368ce7400922f544fdecc,2020-08-10_16h30.12.573,lexical_decision_task_MP,2020.1.3,Linux armv8l,60,,0,0.454885835,-0.296501308,1,0,0,0.5199,button_right,0.5199,1,,,,,,203,WORD,UN,50,burden,PHRASE,m,,,,,,0.454885835,-0.296501308,1,0,0,,0,269,269,202,1,
,,,,,,,,,,,,,,,,,,5ed368ce7400922f544fdecc,2020-08-10_16h30.12.573,lexical_decision_task_MP,2020.1.3,Linux armv8l,60,,0,-0.429356992,-0.308203688,1,0,0,0.64,button_left,0.64,1,,,,,,330,NW,"ID",50,kensom,KENSOM,z,,,,,,-0.429356992,-0.308203688,1,0,0,,0,270,270,329,1,
,,,,,,,,,,,,,,,,,,5ed368ce7400922f544fdecc,2020-08-10_16h30.12.573,lexical_decision_task_MP,2020.1.3,Linux armv8l,60,,0,0.455915284,-0.298451618,1,0,0,0.5334,button_right,0.5334,1,,,,,,207,WORD,UN,50,hockey,WREATH,m,,,,,,0.455915284,-0.298451618,1,0,0,,0,271,271,206,1,
,,,,,,,,,,,,,,,,,,5ed368ce7400922f544fdecc,2020-08-10_16h30.12.573,lexical_decision_task_MP,2020.1.3,Linux armv8l,60,,0,-0.420092462,-0.304546764,1,0,0,0.687,button_left,0.687,1,,,,,,391,NW,UN,33,rouncy,THELDY,z,,,,,,-0.420092462,-0.304546764,1,0,0,,0,272,272,390,1,
,,,,,,,,,,,,,,,,,,5ed368ce7400922f544fdecc,2020-08-10_16h30.12.573,lexical_decision_task_MP,2020.1.3,Linux armv8l,60,,0,-0.423180626,-0.28553009,1,0,0,0.6905,button_left,0.6905,1,,,,,,428,NW,UN,50,chrums,TANDLY,z,,,,,,-0.423180626,-0.28553009,1,0,0,,0,273,273,427,1,
,,,,,,,,,,,,,,,,,,5ed368ce7400922f544fdecc,2020-08-10_16h30.12.573,lexical_decision_task_MP,2020.1.3,Linux armv8l,60,,0,-0.441709574,-0.297720307,1,0,0,0.6659,button_left,0.6659,1,,,,,,365,NW,UN,33,toshel,GUAIRT,z,,,,,,-0.441709574,-0.297720307,1,0,0,,0,274,274,364,1,
,,,,,,,,,,,,,,,,,,5ed368ce7400922f544fdecc,2020-08-10_16h30.12.573,lexical_decision_task_MP,2020.1.3,Linux armv8l,60,,0,-0.439136172,-0.294063161,1,0,0,0.6295,button_left,0.6295,1,,,,,,313,NW,"ID",50,paurse,PAURSE,z,,,,,,-0.439136172,-0.294063161,1,0,0,,0,275,275,312,1,
,,,,,,,,,,,,,,,,,,5ed368ce7400922f544fdecc,2020-08-10_16h30.12.573,lexical_decision_task_MP,2020.1.3,Linux armv8l,60,,0,-0.457150432,-0.284798705,1,0,0,0.6688,button_left,0.6688,1,,,,,,286,NW,"ID",33,reldon,RELDON,z,,,,,,-0.457150432,-0.284798705,1,0,0,,0,276,276,285,1,
,,,,,,,,,,,,,,,,,,5ed368ce7400922f544fdecc,2020-08-10_16h30.12.573,lexical_decision_task_MP,2020.1.3,Linux armv8l,60,,0,0.458488687,-0.293331776,1,0,0,0.6698,button_right,0.6698,1,,,,,,197,WORD,UN,50,wicked,STREAM,m,,,,,,0.458488687,-0.293331776,1,0,0,,0,277,277,196,1,
,,,,,,,,,,,,,,,,,,5ed368ce7400922f544fdecc,2020-08-10_16h30.12.573,lexical_decision_task_MP,2020.1.3,Linux armv8l,60,,0,0.464665237,-0.281141781,1,0,0,0.6322,button_right,0.6322,1,,,,,,56,WORD,"ID",33,ambush,AMBUSH,m,,,,,,0.464665237,-0.281141781,1,0,0,,0,278,278,55,1,
,,,,,,,,,,,,,,,,,,5ed368ce7400922f544fdecc,2020-08-10_16h30.12.573,lexical_decision_task_MP,2020.1.3,Linux armv8l,60,,0,0.469811893,-0.286992934,1,0,0,0.6353,button_right,0.6353,1,,,,,,214,WORD,UN,50,phobia,INTAKE,m,,,,,,0.469811893,-0.286992934,1,0,0,,0,279,279,213,1,
,,,,,,,,,,,,,,,,,,5ed368ce7400922f544fdecc,2020-08-10_16h30.12.573,lexical_decision_task_MP,2020.1.3,Linux armv8l,60,,0,0.460547438,-0.288699548,1,0,0,0.5685,button_right,0.5685,1,,,,,,65,WORD,"ID",50,symbol,SYMBOL,m,,,,,,0.460547438,-0.288699548,1,0,0,,0,280,280,64,1,
,,,,,,,,,,,,,,,,,,5ed368ce7400922f544fdecc,2020-08-10_16h30.12.573,lexical_decision_task_MP,2020.1.3,Linux armv8l,60,,0,-0.436562696,-0.282116862,1,0,0,0.6996,button_left,0.6996,1,,,,,,420,NW,UN,33,pauche,GUSHOP,z,,,,,,-0.436562696,-0.282116862,1,0,0,,0,281,281,419,1,
,,,,,,,,,,,,,,,,,,5ed368ce7400922f544fdecc,2020-08-10_16h30.12.573,lexical_decision_task_MP,2020.1.3,Linux armv8l,60,,0,-0.40362234,-0.285042476,1,0,0,0.5866,button_left,0.5866,1,,,,,,375,NW,UN,33,iguare,YORQUE,z,,,,,,-0.40362234,-0.285042476,1,0,0,,0,282,282,374,1,
,,,,,,,,,,,,,,,,,,5ed368ce7400922f544fdecc,2020-08-10_16h30.12.573,lexical_decision_task_MP,2020.1.3,Linux armv8l,60,,0,0.44459193,-0.305521845,1,0,0,0.5908,button_right,0.5908,1,,,,,,182,WORD,UN,50,basket,WINTER,m,,,,,,0.44459193,-0.305521845,1,0,0,,0,283,283,181,1,
,,,,,,,,,,,,,,,,,,5ed368ce7400922f544fdecc,2020-08-10_16h30.12.573,lexical_decision_task_MP,2020.1.3,Linux armv8l,60,,0,0.455400485,-0.27577802,1,0,0,0.6709,button_right,0.6709,1,,,,,,210,WORD,UN,50,infect,MONKEY,m,,,,,,0.455400485,-0.27577802,1,0,0,,0,284,284,209,1,
,,,,,,,,,,,,,,,,,,5ed368ce7400922f544fdecc,2020-08-10_16h30.12.573,lexical_decision_task_MP,2020.1.3,Linux armv8l,60,,0,-0.459723834,-0.300889617,1,0,0,0.6674,button_left,0.6674,1,,,,,,245,NW,"ID",33,anougs,ANOUGS,z,,,,,,-0.459723834,-0.300889617,1,0,0,,0,285,285,244,1,
,,,,,,,,,,,,,,,,,,5ed368ce7400922f544fdecc,2020-08-10_16h30.12.573,lexical_decision_task_MP,2020.1.3,Linux armv8l,60,,0,0.44716548,-0.27577802,1,0,0,0.7285,button_right,0.7285,1,,,,,,112,WORD,"ID",50,breath,BREATH,m,,,,,,0.44716548,-0.27577802,1,0,0,,0,286,286,111,1,
,,,,,,,,,,,,,,,,,,5ed368ce7400922f544fdecc,2020-08-10_16h30.12.573,lexical_decision_task_MP,2020.1.3,Linux armv8l,60,,0,0.448709581,-0.28553009,1,0,0,0.67,button_right,0.67,1,,,,,,57,WORD,"ID",33,change,CHANGE,m,,,,,,0.448709581,-0.28553009,1,0,0,,0,287,287,56,1,
,,,,,,,,,,,,,,,,,,5ed368ce7400922f544fdecc,2020-08-10_16h30.12.573,lexical_decision_task_MP,2020.1.3,Linux armv8l,60,,0,0.455400485,-0.317224373,1,0,0,0.8206,button_right,0.8206,1,,,,,,48,WORD,"ID",33,walnut,WALNUT,m,,,,,,0.455400485,-0.317224373,1,0,0,,0,288,288,47,1,
,,,,,,,,,,,,,,,,,,5ed368ce7400922f544fdecc,2020-08-10_16h30.12.573,lexical_decision_task_MP,2020.1.3,Linux armv8l,60,,0,0.452827231,-0.30479046,1,0,0,0.7193,button_right,0.7193,1,,,,,,209,WORD,UN,50,monkey,SEARCH,m,,,,,,0.452827231,-0.30479046,1,0,0,,0,289,289,208,1,
,,,,,,,,,,,,,,,,,,5ed368ce7400922f544fdecc,2020-08-10_16h30.12.573,lexical_decision_task_MP,2020.1.3,Linux armv8l,60,,0,0.449224379,-0.296501308,1,0,0,0.5501,button_right,0.5501,1,,,,,,66,WORD,"ID",50,gospel,GOSPEL,m,,,,,,0.449224379,-0.296501308,1,0,0,,0,290,290,65,1,
,,,,,,,,,,,,,,,,,,5ed368ce7400922f544fdecc,2020-08-10_16h30.12.573,lexical_decision_task_MP,2020.1.3,Linux armv8l,60,,0,0.459003337,-0.303815231,1,0,0,0.5478,button_right,0.5478,1,,,,,,114,WORD,"ID",50,placid,PLACID,m,,,,,,0.459003337,-0.303815231,1,0,0,,0,291,291,113,1,
,,,,,,,,,,,,,,,,,,5ed368ce7400922f544fdecc,2020-08-10_16h30.12.573,lexical_decision_task_MP,2020.1.3,Linux armv8l,60,,0,-0.436562696,-0.299426921,1,0,0,0.7038,button_left,0.7038,1,,,,,,394,NW,UN,33,colury,SPAQUX,z,,,,,,-0.436562696,-0.299426921,1,0,0,,0,292,292,393,1,
,,,,,,,,,,,,,,,,,,5ed368ce7400922f544fdecc,2020-08-10_16h30.12.573,lexical_decision_task_MP,2020.1.3,Linux armv8l,60,,0,0.460547438,-0.297476389,1,0,0,0.5722,button_right,0.5722,1,,,,,,158,WORD,UN,33,detail,ISLAND,m,,,,,,0.460547438,-0.297476389,1,0,0,,0,293,293,157,1,
,,,,,,,,,,,,,,,,,,5ed368ce7400922f544fdecc,2020-08-10_16h30.12.573,lexical_decision_task_MP,2020.1.3,Linux armv8l,60,,0,-0.466929538,-0.328439361,1,0,0,0.8708,button_left,0.8708,1,,,,,,319,NW,"ID",50,zomber,ZOMBER,z,,,,,,-0.466929538,-0.328439361,1,0,0,,0,294,294,318,1,
,,,,,,,,,,,,,,,,,,5ed368ce7400922f544fdecc,2020-08-10_16h30.12.573,lexical_decision_task_MP,2020.1.3,Linux armv8l,60,,0,-0.472076527,-0.311860835,1,0,0,0.7054,button_left,0.7054,1,,,,,,450,NW,UN,50,rastoe,PHRECT,z,,,,,,-0.472076527,-0.311860835,1,0,0,,0,295,295,449,1,
,,,,,,,,,,,,,,,,,,5ed368ce7400922f544fdecc,2020-08-10_16h30.12.573,lexical_decision_task_MP,2020.1.3,Linux armv8l,60,,0,-0.458179807,-0.316493062,1,0,0,0.5677,button_left,0.5677,1,,,,,,459,NW,UN,50,mingar,BAFENT,z,,,,,,-0.458179807,-0.316493062,1,0,0,,0,296,296,458,1,
,,,,,,,,,,,,,,,,,,5ed368ce7400922f544fdecc,2020-08-10_16h30.12.573,lexical_decision_task_MP,2020.1.3,Linux armv8l,60,,0,0.48216455,-0.28553009,1,0,0,0.6729,button_right,0.6729,1,,,,,,5,WORD,"ID",33,plunge,PLUNGE,m,,,,,,0.48216455,-0.28553009,1,0,0,,0,297,297,4,1,
,,,,,,,,,,,,,,,,,,5ed368ce7400922f544fdecc,2020-08-10_16h30.12.573,lexical_decision_task_MP,2020.1.3,Linux armv8l,60,,0,0.481649899,-0.277240938,1,0,0,0.6022,button_right,0.6022,1,,,,,,92,WORD,"ID",50,strand,STRAND,m,,,,,,0.481649899,-0.277240938,1,0,0,,0,298,298,91,1,
,,,,,,,,,,,,,,,,,,5ed368ce7400922f544fdecc,2020-08-10_16h30.12.573,lexical_decision_task_MP,2020.1.3,Linux armv8l,60,,0,0.468782592,-0.28553009,1,0,0,0.5356,button_right,0.5356,1,,,,,,96,WORD,"ID",50,ignore,IGNORE,m,,,,,,0.468782592,-0.28553009,1,0,0,,0,299,299,95,1,
,,,,,,,,,,,,,,,,,,5ed368ce7400922f544fdecc,2020-08-10_16h30.12.573,lexical_decision_task_MP,2020.1.3,Linux armv8l,60,,0,-0.429356992,-0.314298759,1,0,0,0.7189,button_left,0.7189,1,,,,,,387,NW,UN,33,cragin,GRONCE,z,,,,,,-0.429356992,-0.314298759,1,0,0,,0,300,300,386,1,
,,,,,,,,,,,,,,,,,,5ed368ce7400922f544fdecc,2020-08-10_16h30.12.573,lexical_decision_task_MP,2020.1.3,Linux armv8l,60,,0,0.466209041,-0.295769775,1,0,0,0.9032,button_right,0.9032,1,,,,,,173,WORD,UN,33,turkey,SHOWER,m,,,,,,0.466209041,-0.295769775,1,0,0,,0,301,301,172,1,
,,,,,,,,,,,,,,,,,,5ed368ce7400922f544fdecc,2020-08-10_16h30.12.573,lexical_decision_task_MP,2020.1.3,Linux armv8l,60,,0,0.472900094,-0.28553009,1,0,0,0.5568,button_right,0.5568,1,,,,,,107,WORD,"ID",50,slogan,SLOGAN,m,,,,,,0.472900094,-0.28553009,1,0,0,,0,302,302,106,1,
,,,,,,,,,,,,,,,,,,5ed368ce7400922f544fdecc,2020-08-10_16h30.12.573,lexical_decision_task_MP,2020.1.3,Linux armv8l,60,,0,0.461576888,-0.281873092,1,0,0,0.6385,button_right,0.6385,1,,,,,,64,WORD,"ID",50,throne,THRONE,m,,,,,,0.461576888,-0.281873092,1,0,0,,0,303,303,63,1,
,,,,,,,,,,,,,,,,,,5ed368ce7400922f544fdecc,2020-08-10_16h30.12.573,lexical_decision_task_MP,2020.1.3,Linux armv8l,60,,0,0.462606189,-0.281141781,1,0,0,0.4871,button_right,0.4871,1,,,,,,71,WORD,"ID",50,garden,GARDEN,m,,,,,,0.462606189,-0.281141781,1,0,0,,0,304,304,70,1,
,,,,,,,,,,,,,,,,,,5ed368ce7400922f544fdecc,2020-08-10_16h30.12.573,lexical_decision_task_MP,2020.1.3,Linux armv8l,60,,0,0.459518136,-0.285774009,1,0,0,0.4602,button_right,0.4602,1,,,,,,59,WORD,"ID",33,splint,SPLINT,m,,,,,,0.459518136,-0.285774009,1,0,0,,0,305,305,58,1,
,,,,,,,,,,,,,,,,,,5ed368ce7400922f544fdecc,2020-08-10_16h30.12.573,lexical_decision_task_MP,2020.1.3,Linux armv8l,60,,0,0.461062385,-0.286261623,1,0,0,0.5061,button_right,0.5061,1,,,,,,123,WORD,UN,33,enough,STRIKE,m,,,,,,0.461062385,-0.286261623,1,0,0,,0,306,306,122,1,
,,,,,,,,,,,,,,,,,,5ed368ce7400922f544fdecc,2020-08-10_16h30.12.573,lexical_decision_task_MP,2020.1.3,Linux armv8l,60,,0,-0.447885902,-0.282360781,1,0,0,0.57,button_left,0.57,1,,,,,,446,NW,UN,50,gircue,RUNAMO,z,,,,,,-0.447885902,-0.282360781,1,0,0,,0,307,307,445,1,
,,,,,,,,,,,,,,,,,,5ed368ce7400922f544fdecc,2020-08-10_16h30.12.573,lexical_decision_task_MP,2020.1.3,Linux armv8l,60,,0,-0.449944728,-0.315517759,1,0,0,0.657,button_left,0.657,1,,,,,,336,NW,"ID",50,ghodus,GHODUS,z,,,,,,-0.449944728,-0.315517759,1,0,0,,0,308,308,335,1,
,,,,,,,,,,,,,,,,,,5ed368ce7400922f544fdecc,2020-08-10_16h30.12.573,lexical_decision_task_MP,2020.1.3,Linux armv8l,60,,0,0.464665237,-0.28553009,1,0,0,0.7201,button_right,0.7201,1,,,,,,170,WORD,UN,33,depart,POUNCE,m,,,,,,0.464665237,-0.28553009,1,0,0,,0,309,309,169,1,
,,,,,,,,,,,,,,,,,,5ed368ce7400922f544fdecc,2020-08-10_16h30.12.573,lexical_decision_task_MP,2020.1.3,Linux armv8l,60,,0,0.463120988,-0.28528632,1,0,0,0.5484,button_right,0.5484,1,,,,,,233,WORD,UN,50,clumsy,NATURE,m,,,,,,0.463120988,-0.28528632,1,0,0,,0,310,310,232,1,
,,,,,,,,,,,,,,,,,,5ed368ce7400922f544fdecc,2020-08-10_16h30.12.573,lexical_decision_task_MP,2020.1.3,Linux armv8l,60,,0,0.46415029,-0.291625162,1,0,0,0.6859,button_right,0.6859,1,,,,,,137,WORD,UN,33,melody,FINGER,m,,,,,,0.46415029,-0.291625162,1,0,0,,0,311,311,136,1,
,,,,,,,,,,,,,,,,,,5ed368ce7400922f544fdecc,2020-08-10_16h30.12.573,lexical_decision_task_MP,2020.1.3,Linux armv8l,60,,0,0.457459533,-0.28553009,1,0,0,0.5558,button_right,0.5558,1,,,,,,76,WORD,"ID",50,exotic,EXOTIC,m,,,,,,0.457459533,-0.28553009,1,0,0,,0,312,312,75,1,
,,,,,,,,,,,,,,,,,,5ed368ce7400922f544fdecc,2020-08-10_16h30.12.573,lexical_decision_task_MP,2020.1.3,Linux armv8l,60,,0,0.463120988,-0.28553009,1,0,0,0.4182,button_right,0.4182,1,,,,,,31,WORD,"ID",33,weapon,WEAPON,m,,,,,,0.463120988,-0.28553009,1,0,0,,0,313,313,30,1,
,,,,,,,,,,,,,,,,,,5ed368ce7400922f544fdecc,2020-08-10_16h30.12.573,lexical_decision_task_MP,2020.1.3,Linux armv8l,60,,0,0.46569439,-0.286261623,1,0,0,0.5571,button_right,0.5571,1,,,,,,237,WORD,UN,50,seldom,POSTER,m,,,,,,0.46569439,-0.286261623,1,0,0,,0,314,314,236,1,
,,,,,,,,,,,,,,,,,,5ed368ce7400922f544fdecc,2020-08-10_16h30.12.573,lexical_decision_task_MP,2020.1.3,Linux armv8l,60,,0,0.464665237,-0.287968237,1,0,0,0.47,button_right,0.47,1,,,,,,81,WORD,"ID",50,friend,FRIEND,m,,,,,,0.464665237,-0.287968237,1,0,0,,0,315,315,80,1,
,,,,,,,,,,,,,,,,,,5ed368ce7400922f544fdecc,2020-08-10_16h30.12.573,lexical_decision_task_MP,2020.1.3,Linux armv8l,60,,0,0.46672384,-0.285042476,1,0,0,0.4495,button_right,0.4495,0,,,,,,299,NW,"ID",33,sturch,STURCH,z,,,,,,0.46672384,-0.285042476,1,0,0,,0,316,316,298,1,
,,,,,,,,,,,,,,,,,,5ed368ce7400922f544fdecc,2020-08-10_16h30.12.573,lexical_decision_task_MP,2020.1.3,Linux armv8l,60,,0,0.463120988,-0.28674909,1,0,0,0.6972,button_right,0.6972,1,,,,,,55,WORD,"ID",33,stroke,STROKE,m,,,,,,0.463120988,-0.28674909,1,0,0,,0,317,317,54,1,
,,,,,,,,,,,,,,,,,,5ed368ce7400922f544fdecc,2020-08-10_16h30.12.573,lexical_decision_task_MP,2020.1.3,Linux armv8l,60,,0,-0.430901018,-0.296501308,1,0,0,0.7317,button_left,0.7317,1,,,,,,369,NW,UN,33,sleact,WRONCH,z,,,,,,-0.430901018,-0.296501308,1,0,0,,0,318,318,368,1,
,,,,,,,,,,,,,,,,,,5ed368ce7400922f544fdecc,2020-08-10_16h30.12.573,lexical_decision_task_MP,2020.1.3,Linux armv8l,60,,0,-0.433989182,-0.330633589,1,0,0,1.3994,button_left,1.3994,1,,,,,,368,NW,UN,33,wronch,HORNAL,z,,,,,,-0.433989182,-0.330633589,1,0,0,,0,319,319,367,1,
,,,,,,,,,,,,,,,,,,5ed368ce7400922f544fdecc,2020-08-10_16h30.12.573,lexical_decision_task_MP,2020.1.3,Linux armv8l,60,,0,-0.437077346,-0.301377232,1,0,0,0.6362,button_left,0.6362,1,,,,,,339,NW,"ID",50,fachow,FACHOW,z,,,,,,-0.437077346,-0.301377232,1,0,0,,0,320,320,338,1,
,,,,,,,,,,,,,,,,,,5ed368ce7400922f544fdecc,2020-08-10_16h30.12.573,lexical_decision_task_MP,2020.1.3,Linux armv8l,60,,0,-0.461267971,-0.279922633,1,0,0,0.4997,button_left,0.4997,1,,,,,,262,NW,"ID",33,quilew,QUILEW,z,,,,,,-0.461267971,-0.279922633,1,0,0,,0,321,321,261,1,
,,,,,,,,,,,,,,,,,,5ed368ce7400922f544fdecc,2020-08-10_16h30.12.573,lexical_decision_task_MP,2020.1.3,Linux armv8l,60,,0,0.471870941,-0.303083846,1,0,0,0.6283,button_right,0.6283,1,,,,,,205,WORD,UN,50,tailor,LOUNGE,m,,,,,,0.471870941,-0.303083846,1,0,0,,0,322,322,204,1,
,,,,,,,,,,,,,,,,,,5ed368ce7400922f544fdecc,2020-08-10_16h30.12.573,lexical_decision_task_MP,2020.1.3,Linux armv8l,60,,0,0.472385444,-0.29381939,1,0,0,0.6666,button_right,0.6666,1,,,,,,104,WORD,"ID",50,studio,STUDIO,m,,,,,,0.472385444,-0.29381939,1,0,0,,0,323,323,103,1,
,,,,,,,,,,,,,,,,,,5ed368ce7400922f544fdecc,2020-08-10_16h30.12.573,lexical_decision_task_MP,2020.1.3,Linux armv8l,60,,0,-0.447371251,-0.30162115,1,0,0,0.8203,button_left,0.8203,1,,,,,,403,NW,UN,33,cluirm,BRUATS,z,,,,,,-0.447371251,-0.30162115,1,0,0,,0,324,324,402,1,
,,,,,,,,,,,,,,,,,,5ed368ce7400922f544fdecc,2020-08-10_16h30.12.573,lexical_decision_task_MP,2020.1.3,Linux armv8l,60,,0,0.476502946,-0.287968237,1,0,0,0.6707,button_right,0.6707,1,,,,,,184,WORD,UN,50,bother,SLEAZY,m,,,,,,0.476502946,-0.287968237,1,0,0,,0,325,325,183,1,
,,,,,,,,,,,,,,,,,,5ed368ce7400922f544fdecc,2020-08-10_16h30.12.573,lexical_decision_task_MP,2020.1.3,Linux armv8l,60,,0,0.471870941,-0.289430933,1,0,0,0.5531,button_right,0.5531,0,,,,,,338,NW,"ID",50,wreash,WREASH,z,,,,,,0.471870941,-0.289430933,1,0,0,,0,326,326,337,1,
,,,,,,,,,,,,,,,,,,5ed368ce7400922f544fdecc,2020-08-10_16h30.12.573,lexical_decision_task_MP,2020.1.3,Linux armv8l,60,,0,-0.453032892,-0.326488828,1,0,0,0.5912,button_left,0.5912,1,,,,,,359,NW,"ID",50,fonver,FONVER,z,,,,,,-0.453032892,-0.326488828,1,0,0,,0,327,327,358,1,
,,,,,,,,,,,,,,,,,,5ed368ce7400922f544fdecc,2020-08-10_16h30.12.573,lexical_decision_task_MP,2020.1.3,Linux armv8l,60,,0,-0.432445156,-0.310885531,1,0,0,0.6044,button_left,0.6044,1,,,,,,384,NW,UN,33,veigma,GUESCO,z,,,,,,-0.432445156,-0.310885531,1,0,0,,0,328,328,383,1,
,,,,,,,,,,,,,,,,,,5ed368ce7400922f544fdecc,2020-08-10_16h30.12.573,lexical_decision_task_MP,2020.1.3,Linux armv8l,60,,0,-0.423180626,-0.282848395,1,0,0,0.4517,button_left,0.4517,1,,,,,,331,NW,"ID",50,gilfew,GILFEW,z,,,,,,-0.423180626,-0.282848395,1,0,0,,0,329,329,330,1,
,,,,,,,,,,,,,,,,,,5ed368ce7400922f544fdecc,2020-08-10_16h30.12.573,lexical_decision_task_MP,2020.1.3,Linux armv8l,60,,0,-0.443768399,-0.294794694,1,0,0,0.4841,button_left,0.4841,1,,,,,,353,NW,"ID",50,clurey,CLUREY,z,,,,,,-0.443768399,-0.294794694,1,0,0,,0,330,330,352,1,
,,,,,,,,,,,,,,,,,,5ed368ce7400922f544fdecc,2020-08-10_16h30.12.573,lexical_decision_task_MP,2020.1.3,Linux armv8l,60,,0,-0.3995048,-0.292112776,1,0,0,0.6177,button_left,0.6177,1,,,,,,392,NW,UN,33,ganous,ROUNCY,z,,,,,,-0.3995048,-0.292112776,1,0,0,,0,331,331,391,1,
,,,,,,,,,,,,,,,,,,5ed368ce7400922f544fdecc,2020-08-10_16h30.12.573,lexical_decision_task_MP,2020.1.3,Linux armv8l,60,,0,-0.428327616,-0.30479046,1,0,0,0.7437,button_left,0.7437,1,,,,,,297,NW,"ID",33,fertic,FERTIC,z,,,,,,-0.428327616,-0.30479046,1,0,0,,0,332,332,296,1,
,,,,,,,,,,,,,,,,,,5ed368ce7400922f544fdecc,2020-08-10_16h30.12.573,lexical_decision_task_MP,2020.1.3,Linux armv8l,60,,0,-0.45354758,-0.286017705,1,0,0,0.635,button_left,0.635,1,,,,,,418,NW,UN,33,slount,SUIDLE,z,,,,,,-0.45354758,-0.286017705,1,0,0,,0,333,333,417,1,
,,,,,,,,,,,,,,,,,,5ed368ce7400922f544fdecc,2020-08-10_16h30.12.573,lexical_decision_task_MP,2020.1.3,Linux armv8l,60,,0,0.445621528,-0.288455704,1,0,0,0.9579,button_right,0.9579,1,,,,,,136,WORD,UN,33,finger,BLEACH,m,,,,,,0.445621528,-0.288455704,1,0,0,,0,334,334,135,1,
,,,,,,,,,,,,,,,,,,5ed368ce7400922f544fdecc,2020-08-10_16h30.12.573,lexical_decision_task_MP,2020.1.3,Linux armv8l,60,,0,,,,,,,,0.9579,-1,,,,,,343,NW,"ID",50,aimosy,AIMOSY,z,,,,,,0.448194782,-0.28650532,0,0,0,,0,335,335,342,1,
,,,,,,,,,,,,,,,,,,5ed368ce7400922f544fdecc,2020-08-10_16h30.12.573,lexical_decision_task_MP,2020.1.3,Linux armv8l,60,,0,-0.437592034,-0.309422687,1,0,0,0.6337,button_left,0.6337,1,,,,,,289,NW,"ID",33,starby,STARBY,z,,,,,,-0.437592034,-0.309422687,1,0,0,,0,336,336,288,1,
,,,,,,,,,,,,,,,,,,5ed368ce7400922f544fdecc,2020-08-10_16h30.12.573,lexical_decision_task_MP,2020.1.3,Linux armv8l,60,,0,-0.447371251,-0.308935073,1,0,0,0.5824,button_left,0.5824,1,,,,,,301,NW,"ID",50,fainch,FAINCH,z,,,,,,-0.447371251,-0.308935073,1,0,0,,0,337,337,300,1,
,,,,,,,,,,,,,,,,,,5ed368ce7400922f544fdecc,2020-08-10_16h30.12.573,lexical_decision_task_MP,2020.1.3,Linux armv8l,60,,0,-0.448915278,-0.301133535,1,0,0,0.5183,button_left,0.5183,1,,,,,,258,NW,"ID",33,poluth,POLUTH,z,,,,,,-0.448915278,-0.301133535,1,0,0,,0,338,338,257,1,
,,,,,,,,,,,,,,,,,,5ed368ce7400922f544fdecc,2020-08-10_16h30.12.573,lexical_decision_task_MP,2020.1.3,Linux armv8l,60,,0,-0.442224336,-0.289430933,1,0,0,0.4702,button_left,0.4702,1,,,,,,294,NW,"ID",33,inhort,INHORT,z,,,,,,-0.442224336,-0.289430933,1,0,0,,0,339,339,293,1,
,,,,,,,,,,,,,,,,,,5ed368ce7400922f544fdecc,2020-08-10_16h30.12.573,lexical_decision_task_MP,2020.1.3,Linux armv8l,60,,0,0.479591147,-0.302108617,1,0,0,0.7377,button_right,0.7377,1,,,,,,176,WORD,UN,33,advent,STRIFE,m,,,,,,0.479591147,-0.302108617,1,0,0,,0,340,340,175,1,
,,,,,,,,,,,,,,,,,,5ed368ce7400922f544fdecc,2020-08-10_16h30.12.573,lexical_decision_task_MP,2020.1.3,Linux armv8l,60,,0,0.487311502,-0.295769775,1,0,0,0.568,button_right,0.568,1,,,,,,178,WORD,UN,33,mildew,INFORM,m,,,,,,0.487311502,-0.295769775,1,0,0,,0,341,341,177,1,
,,,,,,,,,,,,,,,,,,5ed368ce7400922f544fdecc,2020-08-10_16h30.12.573,lexical_decision_task_MP,2020.1.3,Linux armv8l,60,,0,-0.426783478,-0.315517759,1,0,0,0.605,button_left,0.605,1,,,,,,456,NW,UN,50,wanigh,BROGET,z,,,,,,-0.426783478,-0.315517759,1,0,0,,0,342,342,455,1,
