counterbalancing_condition,instr_done_keyboard.keys,instr_done_touch.x,instr_done_touch.y,instr_done_touch.leftButton,instr_done_touch.midButton,instr_done_touch.rightButton,instr_done_touch.clicked_name,instruction_pages.thisRepN,instruction_pages.thisTrialN,instruction_pages.thisN,instruction_pages.thisIndex,instruction_pages.ran,pageN,phase,instruct_text,has_image,instruct_image,participant,date,expName,psychopyVersion,OS,frameRate,response.keys,response.corr,touch_resp.x,touch_resp.y,touch_resp.leftButton,touch_resp.midButton,touch_resp.rightButton,touch_resp.time,touch_resp.clicked_name,rt,corr,practice_trials.thisRepN,practice_trials.thisTrialN,practice_trials.thisN,practice_trials.thisIndex,practice_trials.ran,TrialID,StimulusType,Condition,PrimeDuration,Prime,Target,corrAns,end_of_practice_trials_pages.thisRepN,end_of_practice_trials_pages.thisTrialN,end_of_practice_trials_pages.thisN,end_of_practice_trials_pages.thisIndex,end_of_practice_trials_pages.ran,break_done_touch.x,break_done_touch.y,break_done_touch.leftButton,break_done_touch.midButton,break_done_touch.rightButton,break_done_keyboard.keys,trials.thisRepN,trials.thisTrialN,trials.thisN,trials.thisIndex,trials.ran,break_done_touch.clicked_name
3,,-0.101851824,-0.409259288,1,0,0,instr_done_button,0,0,0,0,1,1,instructions,"INSTRUCTIONS
At the start of each trial, look at the hash marks (######) in the center of the screen. After a moment, a string of letters will appear. Your task is to indicate if the letter string forms a word or not (i.e., if it is a nonword). For example, AUTHOR is a word while AUTHON is a nonword.

Press the space bar or touch the button below to continue.",0,,5edac97f977d9018109447a4,2020-08-10_13h04.39.018,lexical_decision_task_MP,2020.1.3,Linux armv7l,60,,,,,,,,,,,,,,,,,,,,,,,,,,,,,,,,,,,,,,,,
,,-0.077777778,-0.408333333,1,0,0,instr_done_button,0,1,1,1,1,2,instructions,"If your device has a keyboard, press the 'Z' key for nonwords and the 'M' key for words.





Press the space bar or touch the button below to continue.",1,keyboard-example.gif,5edac97f977d9018109447a4,2020-08-10_13h04.39.018,lexical_decision_task_MP,2020.1.3,Linux armv7l,60,,,,,,,,,,,,,,,,,,,,,,,,,,,,,,,,,,,,,,,,
,,-0.058333333,-0.413888889,1,0,0,instr_done_button,0,2,2,2,1,3,instructions,"If you are using a touchscreen only device, use the buttons on the screen. Do not use the mouse.





Press the space bar or touch the button below to continue.",1,touchscreen-example.gif,5edac97f977d9018109447a4,2020-08-10_13h04.39.018,lexical_decision_task_MP,2020.1.3,Linux armv7l,60,,,,,,,,,,,,,,,,,,,,,,,,,,,,,,,,,,,,,,,,
,,-0.061111111,-0.416666667,1,0,0,instr_done_button,0,3,3,3,1,4,instructions,"It is very important that you respond as quickly and accurately as possible, as each letter string will only be on the screen for two seconds. If you do not respond within this time, the message 'Too slow!' will be displayed and the experiment will progress to the next letter string. The first 20 trials will be practice trials and you will receive feedback on your answers. 

Press the space bar or touch the button below to start the practice trials.",0,,5edac97f977d9018109447a4,2020-08-10_13h04.39.018,lexical_decision_task_MP,2020.1.3,Linux armv7l,60,,,,,,,,,,,,,,,,,,,,,,,,,,,,,,,,,,,,,,,,
,,,,,,,,,,,,,,,,,,5edac97f977d9018109447a4,2020-08-10_13h04.39.018,lexical_decision_task_MP,2020.1.3,Linux armv7l,60,,0,,,,,,,,,-1,0,0,0,8,1,1009,NW,"ID",33,aslert,ASLERT,z,,,,,,,,,,,,,,,,,
,,,,,,,,,,,,,,,,,,5edac97f977d9018109447a4,2020-08-10_13h04.39.018,lexical_decision_task_MP,2020.1.3,Linux armv7l,60,,0,,,,,,,,,-1,0,1,1,3,1,1004,WORD,"ID",50,matrix,MATRIX,m,,,,,,,,,,,,,,,,,
,,,,,,,,,,,,,,,,,,5edac97f977d9018109447a4,2020-08-10_13h04.39.018,lexical_decision_task_MP,2020.1.3,Linux armv7l,60,,0,,,,,,,,,-1,0,2,2,10,1,1011,NW,"ID",50,inlade,INLADE,z,,,,,,,,,,,,,,,,,
,,,,,,,,,,,,,,,,,,5edac97f977d9018109447a4,2020-08-10_13h04.39.018,lexical_decision_task_MP,2020.1.3,Linux armv7l,60,,0,0.458333333,-0.303703732,1,0,0,1.0253,button_right,1.0253,1,0,3,3,4,1,1005,WORD,UN,33,abound,SQUEAK,m,,,,,,,,,,,,,,,,,
,,,,,,,,,,,,,,,,,,5edac97f977d9018109447a4,2020-08-10_13h04.39.018,lexical_decision_task_MP,2020.1.3,Linux armv7l,60,,0,0.457407464,-0.308333333,1,0,0,0.6761,button_right,0.6761,1,0,4,4,6,1,1007,WORD,UN,50,tropic,ZOMBIE,m,,,,,,,,,,,,,,,,,
,,,,,,,,,,,,,,,,,,5edac97f977d9018109447a4,2020-08-10_13h04.39.018,lexical_decision_task_MP,2020.1.3,Linux armv7l,60,,0,0.453703732,-0.312963019,1,0,0,0.8784,button_right,0.8784,0,0,5,5,11,1,1012,NW,"ID",50,rashet,RASHET,z,,,,,,,,,,,,,,,,,
,,,,,,,,,,,,,,,,,,5edac97f977d9018109447a4,2020-08-10_13h04.39.018,lexical_decision_task_MP,2020.1.3,Linux armv7l,60,,0,,,,,,,,0.8784,-1,0,6,6,0,1,1001,WORD,"ID",33,utopia,UTOPIA,m,,,,,,,,,,,,,,,,,
,,,,,,,,,,,,,,,,,,5edac97f977d9018109447a4,2020-08-10_13h04.39.018,lexical_decision_task_MP,2020.1.3,Linux armv7l,60,,0,0.468518575,-0.316666667,1,0,0,0.5789,button_right,0.5789,1,0,7,7,7,1,1008,WORD,UN,50,hurdle,VOLUME,m,,,,,,,,,,,,,,,,,
,,,,,,,,,,,,,,,,,,5edac97f977d9018109447a4,2020-08-10_13h04.39.018,lexical_decision_task_MP,2020.1.3,Linux armv7l,60,,0,0.441666667,-0.321296353,1,0,0,0.8083,button_right,0.8083,1,0,8,8,1,1,1002,WORD,"ID",33,adjust,ADJUST,m,,,,,,,,,,,,,,,,,
,,,,,,,,,,,,,,,,,,5edac97f977d9018109447a4,2020-08-10_13h04.39.018,lexical_decision_task_MP,2020.1.3,Linux armv7l,60,,0,-0.417592578,-0.301851908,1,0,0,0.8241,button_left,0.8241,1,0,9,9,13,1,1014,NW,UN,33,winfer,ROUPET,z,,,,,,,,,,,,,,,,,
,,,,,,,,,,,,,,,,,,5edac97f977d9018109447a4,2020-08-10_13h04.39.018,lexical_decision_task_MP,2020.1.3,Linux armv7l,60,,0,0.480555556,-0.301851908,1,0,0,0.6218,button_right,0.6218,1,0,10,10,2,1,1003,WORD,"ID",50,almond,ALMOND,m,,,,,,,,,,,,,,,,,
,,,,,,,,,,,,,,,,,,5edac97f977d9018109447a4,2020-08-10_13h04.39.018,lexical_decision_task_MP,2020.1.3,Linux armv7l,60,,0,-0.427777778,-0.299074131,1,0,0,0.7355,button_left,0.7355,1,0,11,11,14,1,1015,NW,UN,50,miaber,THRALE,z,,,,,,,,,,,,,,,,,
,,,,,,,,,,,,,,,,,,5edac97f977d9018109447a4,2020-08-10_13h04.39.018,lexical_decision_task_MP,2020.1.3,Linux armv7l,60,,0,0.469444444,-0.310185242,1,0,0,0.6986,button_right,0.6986,0,0,12,12,9,1,1010,NW,"ID",33,fariny,FARINY,z,,,,,,,,,,,,,,,,,
,,,,,,,,,,,,,,,,,,5edac97f977d9018109447a4,2020-08-10_13h04.39.018,lexical_decision_task_MP,2020.1.3,Linux armv7l,60,,0,-0.439814801,-0.312037065,1,0,0,0.9063,button_left,0.9063,1,0,13,13,15,1,1016,NW,UN,50,mushed,WHAISE,z,,,,,,,,,,,,,,,,,
,,,,,,,,,,,,,,,,,,5edac97f977d9018109447a4,2020-08-10_13h04.39.018,lexical_decision_task_MP,2020.1.3,Linux armv7l,60,,0,0.464814843,-0.312963019,1,0,0,0.5412,button_right,0.5412,1,0,14,14,5,1,1006,WORD,UN,33,frenzy,OBTAIN,m,,,,,,,,,,,,,,,,,
,,,,,,,,,,,,,,,,,,5edac97f977d9018109447a4,2020-08-10_13h04.39.018,lexical_decision_task_MP,2020.1.3,Linux armv7l,60,,0,0.447222222,-0.321296353,1,0,0,0.7806,button_right,0.7806,0,0,15,15,12,1,1013,NW,UN,33,adveil,SPRINY,z,,,,,,,,,,,,,,,,,
,,-0.061111111,-0.422222222,1,0,0,instr_done_button,,,,,,1,end_of_practice,"You have completed the practice trials. During the experimental trials, you will not receive feedback, but it is very important that you respond as quickly and accurately as possible. 
Before you begin, please ensure that you are in a comfortable and quiet location and will not be disturbed for about 15 minutes, as we cannot use your data if you do not complete all the trials. 
There will be opportunities to take breaks at regular intervals during the experiment. When you are ready to start the experimental trials, please press space or touch the button below.",,,5edac97f977d9018109447a4,2020-08-10_13h04.39.018,lexical_decision_task_MP,2020.1.3,Linux armv7l,60,,,,,,,,,,,,,,,,,,,,,,,,0,0,0,0,1,,,,,,,,,,,,
,,,,,,,,,,,,,,,,,,5edac97f977d9018109447a4,2020-08-10_13h04.39.018,lexical_decision_task_MP,2020.1.3,Linux armv7l,60,,0,-0.385185157,-0.371296353,1,0,0,1.5222,button_left,1.5222,1,,,,,,409,NW,"ID",50,elopia,ELOPIA,z,,,,,,-0.385185157,-0.371296353,1,0,0,,0,0,0,348,1,
,,,,,,,,,,,,,,,,,,5edac97f977d9018109447a4,2020-08-10_13h04.39.018,lexical_decision_task_MP,2020.1.3,Linux armv7l,60,,0,0.447222222,-0.309259288,1,0,0,0.622,button_right,0.622,1,,,,,,126,WORD,"ID",50,enough,ENOUGH,m,,,,,,0.447222222,-0.309259288,1,0,0,,0,1,1,65,1,
,,,,,,,,,,,,,,,,,,5edac97f977d9018109447a4,2020-08-10_13h04.39.018,lexical_decision_task_MP,2020.1.3,Linux armv7l,60,,0,0.458333333,-0.298148176,1,0,0,1.2371,button_right,1.2371,1,,,,,,149,WORD,"ID",50,invade,INVADE,m,,,,,,0.458333333,-0.298148176,1,0,0,,0,2,2,88,1,
,,,,,,,,,,,,,,,,,,5edac97f977d9018109447a4,2020-08-10_13h04.39.018,lexical_decision_task_MP,2020.1.3,Linux armv7l,60,,0,0.450925954,-0.310185242,1,0,0,0.8129,button_right,0.8129,1,,,,,,147,WORD,"ID",50,garlic,GARLIC,m,,,,,,0.450925954,-0.310185242,1,0,0,,0,3,3,86,1,
,,,,,,,,,,,,,,,,,,5edac97f977d9018109447a4,2020-08-10_13h04.39.018,lexical_decision_task_MP,2020.1.3,Linux armv7l,60,,0,-0.419444444,-0.315740797,1,0,0,0.8737,button_left,0.8737,0,,,,,,87,WORD,"ID",33,filter,FILTER,m,,,,,,-0.419444444,-0.315740797,1,0,0,,0,4,4,26,1,
,,,,,,,,,,,,,,,,,,5edac97f977d9018109447a4,2020-08-10_13h04.39.018,lexical_decision_task_MP,2020.1.3,Linux armv7l,60,,0,0.447222222,-0.312037065,1,0,0,0.5753,button_right,0.5753,1,,,,,,28,WORD,UN,50,sketch,COMEDY,m,,,,,,0.447222222,-0.312037065,1,0,0,,0,5,5,207,1,
,,,,,,,,,,,,,,,,,,5edac97f977d9018109447a4,2020-08-10_13h04.39.018,lexical_decision_task_MP,2020.1.3,Linux armv7l,60,,0,0.441666667,-0.313888889,1,0,0,0.5744,button_right,0.5744,1,,,,,,137,WORD,"ID",50,finger,FINGER,m,,,,,,0.441666667,-0.313888889,1,0,0,,0,6,6,76,1,
,,,,,,,,,,,,,,,,,,5edac97f977d9018109447a4,2020-08-10_13h04.39.018,lexical_decision_task_MP,2020.1.3,Linux armv7l,60,,0,-0.444444444,-0.330555556,1,0,0,0.6898,button_left,0.6898,1,,,,,,301,NW,"ID",33,fainch,FAINCH,z,,,,,,-0.444444444,-0.330555556,1,0,0,,0,7,7,240,1,
,,,,,,,,,,,,,,,,,,5edac97f977d9018109447a4,2020-08-10_13h04.39.018,lexical_decision_task_MP,2020.1.3,Linux armv7l,60,,0,0.45,-0.311111111,1,0,0,0.5461,button_right,0.5461,1,,,,,,81,WORD,"ID",33,friend,FRIEND,m,,,,,,0.45,-0.311111111,1,0,0,,0,8,8,20,1,
,,,,,,,,,,,,,,,,,,5edac97f977d9018109447a4,2020-08-10_13h04.39.018,lexical_decision_task_MP,2020.1.3,Linux armv7l,60,,0,-0.432407379,-0.292592621,1,0,0,0.7744,button_left,0.7744,1,,,,,,449,NW,UN,33,phrect,BRUNGE,z,,,,,,-0.432407379,-0.292592621,1,0,0,,0,9,9,388,1,
,,,,,,,,,,,,,,,,,,5edac97f977d9018109447a4,2020-08-10_13h04.39.018,lexical_decision_task_MP,2020.1.3,Linux armv7l,60,,0,0.449074131,-0.3,1,0,0,0.6139,button_right,0.6139,0,,,,,,384,NW,"ID",50,guesco,GUESCO,z,,,,,,0.449074131,-0.3,1,0,0,,0,10,10,323,1,
,,,,,,,,,,,,,,,,,,5edac97f977d9018109447a4,2020-08-10_13h04.39.018,lexical_decision_task_MP,2020.1.3,Linux armv7l,60,,0,0.448148176,-0.298148176,1,0,0,0.58,button_right,0.58,1,,,,,,57,WORD,UN,50,danger,CHANGE,m,,,,,,0.448148176,-0.298148176,1,0,0,,0,11,11,236,1,
,,,,,,,,,,,,,,,,,,5edac97f977d9018109447a4,2020-08-10_13h04.39.018,lexical_decision_task_MP,2020.1.3,Linux armv7l,60,,0,0.432407464,-0.319444444,1,0,0,0.6448,button_right,0.6448,1,,,,,,192,WORD,UN,33,object,PLAGUE,m,,,,,,0.432407464,-0.319444444,1,0,0,,0,12,12,131,1,
,,,,,,,,,,,,,,,,,,5edac97f977d9018109447a4,2020-08-10_13h04.39.018,lexical_decision_task_MP,2020.1.3,Linux armv7l,60,,0,0.449074131,-0.305555556,1,0,0,0.5814,button_right,0.5814,1,,,,,,167,WORD,"ID",50,design,DESIGN,m,,,,,,0.449074131,-0.305555556,1,0,0,,0,13,13,106,1,
,,,,,,,,,,,,,,,,,,5edac97f977d9018109447a4,2020-08-10_13h04.39.018,lexical_decision_task_MP,2020.1.3,Linux armv7l,60,,0,0.471296353,-0.317592621,1,0,0,0.6067,button_right,0.6067,0,,,,,,439,NW,UN,33,saride,LIMPOR,z,,,,,,0.471296353,-0.317592621,1,0,0,,0,14,14,378,1,
,,,,,,,,,,,,,,,,,,5edac97f977d9018109447a4,2020-08-10_13h04.39.018,lexical_decision_task_MP,2020.1.3,Linux armv7l,60,,0,0.703703817,-0.108333333,1,0,0,0.2045,button_left,0.2045,1,,,,,,469,NW,UN,33,crudio,PADIFS,z,,,,,,-0.461111111,-0.317592621,1,0,0,,0,15,15,408,1,
,,,,,,,,,,,,,,,,,,5edac97f977d9018109447a4,2020-08-10_13h04.39.018,lexical_decision_task_MP,2020.1.3,Linux armv7l,60,,0,0.475,-0.318518575,1,0,0,0.6581,button_right,0.6581,0,,,,,,433,NW,UN,33,pitrom,DRANCE,z,,,,,,0.475,-0.318518575,1,0,0,,0,16,16,372,1,
,,,,,,,,,,,,,,,,,,5edac97f977d9018109447a4,2020-08-10_13h04.39.018,lexical_decision_task_MP,2020.1.3,Linux armv7l,60,,0,,,,,,,,0.6581,-1,,,,,,426,NW,UN,33,schind,URIVEL,z,,,,,,0.475,-0.317592621,0,0,0,,0,17,17,365,1,
,,,,,,,,,,,,,,,,,,5edac97f977d9018109447a4,2020-08-10_13h04.39.018,lexical_decision_task_MP,2020.1.3,Linux armv7l,60,,0,-0.424074046,-0.307407464,1,0,0,0.6533,button_left,0.6533,1,,,,,,448,NW,UN,33,brunge,SADENT,z,,,,,,-0.424074046,-0.307407464,1,0,0,,0,18,18,387,1,
,,,,,,,,,,,,,,,,,,5edac97f977d9018109447a4,2020-08-10_13h04.39.018,lexical_decision_task_MP,2020.1.3,Linux armv7l,60,,0,0.473148176,-0.30648151,1,0,0,0.7002,button_right,0.7002,1,,,,,,204,WORD,UN,33,lounge,BURDEN,m,,,,,,0.473148176,-0.30648151,1,0,0,,0,19,19,143,1,
,,,,,,,,,,,,,,,,,,5edac97f977d9018109447a4,2020-08-10_13h04.39.018,lexical_decision_task_MP,2020.1.3,Linux armv7l,60,,0,0.462963019,-0.310185242,1,0,0,0.6792,button_right,0.6792,1,,,,,,58,WORD,UN,50,splint,FOSTER,m,,,,,,0.462963019,-0.310185242,1,0,0,,0,20,20,237,1,
,,,,,,,,,,,,,,,,,,5edac97f977d9018109447a4,2020-08-10_13h04.39.018,lexical_decision_task_MP,2020.1.3,Linux armv7l,60,,0,0.465740797,-0.307407464,1,0,0,0.7398,button_right,0.7398,1,,,,,,61,WORD,"ID",33,ponder,PONDER,m,,,,,,0.465740797,-0.307407464,1,0,0,,0,21,21,0,1,
,,,,,,,,,,,,,,,,,,5edac97f977d9018109447a4,2020-08-10_13h04.39.018,lexical_decision_task_MP,2020.1.3,Linux armv7l,60,,0,0.460185242,-0.308333333,1,0,0,0.5506,button_right,0.5506,1,,,,,,170,WORD,"ID",50,pounce,POUNCE,m,,,,,,0.460185242,-0.308333333,1,0,0,,0,22,22,109,1,
,,,,,,,,,,,,,,,,,,5edac97f977d9018109447a4,2020-08-10_13h04.39.018,lexical_decision_task_MP,2020.1.3,Linux armv7l,60,,0,0.45648151,-0.307407464,1,0,0,0.7246,button_right,0.7246,0,,,,,,244,NW,UN,50,anougs,EATRIC,z,,,,,,0.45648151,-0.307407464,1,0,0,,0,23,23,423,1,
,,,,,,,,,,,,,,,,,,5edac97f977d9018109447a4,2020-08-10_13h04.39.018,lexical_decision_task_MP,2020.1.3,Linux armv7l,60,,0,0.450925954,-0.310185242,1,0,0,0.889,button_right,0.889,1,,,,,,5,WORD,UN,50,bundle,PLUNGE,m,,,,,,0.450925954,-0.310185242,1,0,0,,0,24,24,184,1,
,,,,,,,,,,,,,,,,,,5edac97f977d9018109447a4,2020-08-10_13h04.39.018,lexical_decision_task_MP,2020.1.3,Linux armv7l,60,,0,0.461111111,-0.310185242,1,0,0,0.6916,button_right,0.6916,0,,,,,,379,NW,"ID",50,auting,AUTING,z,,,,,,0.461111111,-0.310185242,1,0,0,,0,25,25,318,1,
,,,,,,,,,,,,,,,,,,5edac97f977d9018109447a4,2020-08-10_13h04.39.018,lexical_decision_task_MP,2020.1.3,Linux armv7l,60,,0,0.472222222,-0.312037065,1,0,0,0.6507,button_right,0.6507,1,,,,,,133,WORD,"ID",50,chrome,CHROME,m,,,,,,0.472222222,-0.312037065,1,0,0,,0,26,26,72,1,
,,,,,,,,,,,,,,,,,,5edac97f977d9018109447a4,2020-08-10_13h04.39.018,lexical_decision_task_MP,2020.1.3,Linux armv7l,60,,0,0.460185242,-0.311111111,1,0,0,0.9754,button_right,0.9754,1,,,,,,79,WORD,"ID",33,theory,THEORY,m,,,,,,0.460185242,-0.311111111,1,0,0,,0,27,27,18,1,
,,,,,,,,,,,,,,,,,,5edac97f977d9018109447a4,2020-08-10_13h04.39.018,lexical_decision_task_MP,2020.1.3,Linux armv7l,60,,0,-0.367592578,-0.319444444,1,0,0,0.6038,button_left,0.6038,1,,,,,,406,NW,"ID",50,nouply,NOUPLY,z,,,,,,-0.367592578,-0.319444444,1,0,0,,0,28,28,345,1,
,,,,,,,,,,,,,,,,,,5edac97f977d9018109447a4,2020-08-10_13h04.39.018,lexical_decision_task_MP,2020.1.3,Linux armv7l,60,,0,0.469444444,-0.307407464,1,0,0,0.5865,button_right,0.5865,1,,,,,,92,WORD,"ID",33,strand,STRAND,m,,,,,,0.469444444,-0.307407464,1,0,0,,0,29,29,31,1,
,,,,,,,,,,,,,,,,,,5edac97f977d9018109447a4,2020-08-10_13h04.39.018,lexical_decision_task_MP,2020.1.3,Linux armv7l,60,,0,-0.375,-0.304629686,1,0,0,0.6195,button_left,0.6195,1,,,,,,255,NW,UN,50,inlors,APIGHT,z,,,,,,-0.375,-0.304629686,1,0,0,,0,30,30,434,1,
,,,,,,,,,,,,,,,,,,5edac97f977d9018109447a4,2020-08-10_13h04.39.018,lexical_decision_task_MP,2020.1.3,Linux armv7l,60,,0,-0.406481467,-0.329629686,1,0,0,0.8713,button_left,0.8713,1,,,,,,290,NW,UN,50,pretch,SPLINO,z,,,,,,-0.406481467,-0.329629686,1,0,0,,0,31,31,469,1,
,,,,,,,,,,,,,,,,,,5edac97f977d9018109447a4,2020-08-10_13h04.39.018,lexical_decision_task_MP,2020.1.3,Linux armv7l,60,,0,0.467592621,-0.312963019,1,0,0,0.6235,button_right,0.6235,1,,,,,,72,WORD,"ID",33,bright,BRIGHT,m,,,,,,0.467592621,-0.312963019,1,0,0,,0,32,32,11,1,
,,,,,,,,,,,,,,,,,,5edac97f977d9018109447a4,2020-08-10_13h04.39.018,lexical_decision_task_MP,2020.1.3,Linux armv7l,60,,0,0.458333333,-0.307407464,1,0,0,0.7483,button_right,0.7483,1,,,,,,52,WORD,UN,50,police,IMPOSE,m,,,,,,0.458333333,-0.307407464,1,0,0,,0,33,33,231,1,
,,,,,,,,,,,,,,,,,,5edac97f977d9018109447a4,2020-08-10_13h04.39.018,lexical_decision_task_MP,2020.1.3,Linux armv7l,60,,0,0.462963019,-0.312037065,1,0,0,0.6822,button_right,0.6822,0,,,,,,317,NW,"ID",33,worbal,WORBAL,z,,,,,,0.462963019,-0.312037065,1,0,0,,0,34,34,256,1,
,,,,,,,,,,,,,,,,,,5edac97f977d9018109447a4,2020-08-10_13h04.39.018,lexical_decision_task_MP,2020.1.3,Linux armv7l,60,,0,0.460185242,-0.316666667,1,0,0,0.6773,button_right,0.6773,1,,,,,,155,WORD,"ID",50,lizard,LIZARD,m,,,,,,0.460185242,-0.316666667,1,0,0,,0,35,35,94,1,
,,,,,,,,,,,,,,,,,,5edac97f977d9018109447a4,2020-08-10_13h04.39.018,lexical_decision_task_MP,2020.1.3,Linux armv7l,60,,0,0.447222222,-0.327777778,1,0,0,0.707,button_right,0.707,1,,,,,,212,WORD,UN,33,squeal,VERIFY,m,,,,,,0.447222222,-0.327777778,1,0,0,,0,36,36,151,1,
,,,,,,,,,,,,,,,,,,5edac97f977d9018109447a4,2020-08-10_13h04.39.018,lexical_decision_task_MP,2020.1.3,Linux armv7l,60,,0,0.454629686,-0.323148176,1,0,0,0.5737,button_right,0.5737,0,,,,,,313,NW,"ID",33,paurse,PAURSE,z,,,,,,0.454629686,-0.323148176,1,0,0,,0,37,37,252,1,
,,,,,,,,,,,,,,,,,,5edac97f977d9018109447a4,2020-08-10_13h04.39.018,lexical_decision_task_MP,2020.1.3,Linux armv7l,60,,0,0.459259288,-0.316666667,1,0,0,0.7914,button_right,0.7914,1,,,,,,207,WORD,UN,33,hockey,WREATH,m,,,,,,0.459259288,-0.316666667,1,0,0,,0,38,38,146,1,
,,,,,,,,,,,,,,,,,,5edac97f977d9018109447a4,2020-08-10_13h04.39.018,lexical_decision_task_MP,2020.1.3,Linux armv7l,60,,0,0.464814843,-0.308333333,1,0,0,0.6395,button_right,0.6395,1,,,,,,75,WORD,"ID",33,trophy,TROPHY,m,,,,,,0.464814843,-0.308333333,1,0,0,,0,39,39,14,1,
,,,,,,,,,,,,,,,,,,5edac97f977d9018109447a4,2020-08-10_13h04.39.018,lexical_decision_task_MP,2020.1.3,Linux armv7l,60,,0,0.443518575,-0.323148176,1,0,0,0.8088,button_right,0.8088,1,,,,,,25,WORD,UN,50,sprint,DOMAIN,m,,,,,,0.443518575,-0.323148176,1,0,0,,0,40,40,204,1,
,,,,,,,,,,,,,,,,,,5edac97f977d9018109447a4,2020-08-10_13h04.39.018,lexical_decision_task_MP,2020.1.3,Linux armv7l,60,,0,0.462963019,-0.310185242,1,0,0,0.6439,button_right,0.6439,1,,,,,,34,WORD,UN,50,socket,JUNGLE,m,,,,,,0.462963019,-0.310185242,1,0,0,,0,41,41,213,1,
,,,,,,,,,,,,,,,,,,5edac97f977d9018109447a4,2020-08-10_13h04.39.018,lexical_decision_task_MP,2020.1.3,Linux armv7l,60,,0,0.455555556,-0.320370399,1,0,0,0.666,button_right,0.666,1,,,,,,211,WORD,UN,33,verify,INFECT,m,,,,,,0.455555556,-0.320370399,1,0,0,,0,42,42,150,1,
,,,,,,,,,,,,,,,,,,5edac97f977d9018109447a4,2020-08-10_13h04.39.018,lexical_decision_task_MP,2020.1.3,Linux armv7l,60,,0,-0.37870369,-0.33148151,1,0,0,1.5446,button_left,1.5446,1,,,,,,354,NW,"ID",33,virlex,VIRLEX,z,,,,,,-0.37870369,-0.33148151,1,0,0,,0,43,43,293,1,
,,,,,,,,,,,,,,,,,,5edac97f977d9018109447a4,2020-08-10_13h04.39.018,lexical_decision_task_MP,2020.1.3,Linux armv7l,60,,0,0.454629686,-0.319444444,1,0,0,0.5079,button_right,0.5079,1,,,,,,160,WORD,"ID",50,violet,VIOLET,m,,,,,,0.454629686,-0.319444444,1,0,0,,0,44,44,99,1,
,,,,,,,,,,,,,,,,,,5edac97f977d9018109447a4,2020-08-10_13h04.39.018,lexical_decision_task_MP,2020.1.3,Linux armv7l,60,,0,-0.379629601,-0.322222222,1,0,0,0.7728,button_left,0.7728,0,,,,,,125,WORD,"ID",50,nickel,NICKEL,m,,,,,,-0.379629601,-0.322222222,1,0,0,,0,45,45,64,1,
,,,,,,,,,,,,,,,,,,5edac97f977d9018109447a4,2020-08-10_13h04.39.018,lexical_decision_task_MP,2020.1.3,Linux armv7l,60,,0,0.463888889,-0.313888889,1,0,0,0.582,button_right,0.582,1,,,,,,186,WORD,UN,33,course,PORTAL,m,,,,,,0.463888889,-0.313888889,1,0,0,,0,46,46,125,1,
,,,,,,,,,,,,,,,,,,5edac97f977d9018109447a4,2020-08-10_13h04.39.018,lexical_decision_task_MP,2020.1.3,Linux armv7l,60,,0,-0.374074046,-0.323148176,1,0,0,0.8481,button_left,0.8481,1,,,,,,420,NW,"ID",50,gushop,GUSHOP,z,,,,,,-0.374074046,-0.323148176,1,0,0,,0,47,47,359,1,
,,,,,,,,,,,,,,,,,,5edac97f977d9018109447a4,2020-08-10_13h04.39.018,lexical_decision_task_MP,2020.1.3,Linux armv7l,60,,0,-0.412962935,-0.332407464,1,0,0,0.7863,button_left,0.7863,1,,,,,,308,NW,"ID",33,psetch,PSETCH,z,,,,,,-0.412962935,-0.332407464,1,0,0,,0,48,48,247,1,
,,,,,,,,,,,,,,,,,,5edac97f977d9018109447a4,2020-08-10_13h04.39.018,lexical_decision_task_MP,2020.1.3,Linux armv7l,60,,0,0.454629686,-0.317592621,1,0,0,0.9828,button_right,0.9828,0,,,,,,277,NW,UN,50,unighs,PETAIN,z,,,,,,0.454629686,-0.317592621,1,0,0,,0,49,49,456,1,
,,,,,,,,,,,,,,,,,,5edac97f977d9018109447a4,2020-08-10_13h04.39.018,lexical_decision_task_MP,2020.1.3,Linux armv7l,60,,0,-0.400925912,-0.334259288,1,0,0,0.8685,button_left,0.8685,1,,,,,,396,NW,"ID",50,flengy,FLENGY,z,,,,,,-0.400925912,-0.334259288,1,0,0,,0,50,50,335,1,
,,,,,,,,,,,,,,,,,,5edac97f977d9018109447a4,2020-08-10_13h04.39.018,lexical_decision_task_MP,2020.1.3,Linux armv7l,60,,0,0.461111111,-0.313888889,1,0,0,0.5922,button_right,0.5922,1,,,,,,191,WORD,UN,33,beacon,STABLE,m,,,,,,0.461111111,-0.313888889,1,0,0,,0,51,51,130,1,
,,,,,,,,,,,,,,,,,,5edac97f977d9018109447a4,2020-08-10_13h04.39.018,lexical_decision_task_MP,2020.1.3,Linux armv7l,60,,0,-0.383333333,-0.324074131,1,0,0,0.6759,button_left,0.6759,1,,,,,,366,NW,"ID",50,toshel,TOSHEL,z,,,,,,-0.383333333,-0.324074131,1,0,0,,0,52,52,305,1,
,,,,,,,,,,,,,,,,,,5edac97f977d9018109447a4,2020-08-10_13h04.39.018,lexical_decision_task_MP,2020.1.3,Linux armv7l,60,,0,0.451851908,-0.319444444,1,0,0,0.6979,button_right,0.6979,1,,,,,,95,WORD,"ID",33,thread,THREAD,m,,,,,,0.451851908,-0.319444444,1,0,0,,0,53,53,34,1,
,,,,,,,,,,,,,,,,,,5edac97f977d9018109447a4,2020-08-10_13h04.39.018,lexical_decision_task_MP,2020.1.3,Linux armv7l,60,,0,0.447222222,-0.319444444,1,0,0,0.7689,button_right,0.7689,1,,,,,,53,WORD,UN,50,ramble,POLICE,m,,,,,,0.447222222,-0.319444444,1,0,0,,0,54,54,232,1,
,,,,,,,,,,,,,,,,,,5edac97f977d9018109447a4,2020-08-10_13h04.39.018,lexical_decision_task_MP,2020.1.3,Linux armv7l,60,,0,-0.408333333,-0.330555556,1,0,0,0.6847,button_left,0.6847,1,,,,,,364,NW,"ID",50,impote,IMPOTE,z,,,,,,-0.408333333,-0.330555556,1,0,0,,0,55,55,303,1,
,,,,,,,,,,,,,,,,,,5edac97f977d9018109447a4,2020-08-10_13h04.39.018,lexical_decision_task_MP,2020.1.3,Linux armv7l,60,,0,-0.425,-0.338888889,1,0,0,0.7908,button_left,0.7908,1,,,,,,278,NW,UN,50,celond,UNIGHS,z,,,,,,-0.425,-0.338888889,1,0,0,,0,56,56,457,1,
,,,,,,,,,,,,,,,,,,5edac97f977d9018109447a4,2020-08-10_13h04.39.018,lexical_decision_task_MP,2020.1.3,Linux armv7l,60,,0,-0.424074046,-0.333333333,1,0,0,0.6856,button_left,0.6856,1,,,,,,408,NW,"ID",50,hurnia,HURNIA,z,,,,,,-0.424074046,-0.333333333,1,0,0,,0,57,57,347,1,
,,,,,,,,,,,,,,,,,,5edac97f977d9018109447a4,2020-08-10_13h04.39.018,lexical_decision_task_MP,2020.1.3,Linux armv7l,60,,0,0.446296353,-0.327777778,1,0,0,0.5799,button_right,0.5799,1,,,,,,84,WORD,"ID",33,mortal,MORTAL,m,,,,,,0.446296353,-0.327777778,1,0,0,,0,58,58,23,1,
,,,,,,,,,,,,,,,,,,5edac97f977d9018109447a4,2020-08-10_13h04.39.018,lexical_decision_task_MP,2020.1.3,Linux armv7l,60,,0,-0.409259245,-0.312037065,1,0,0,0.6789,button_left,0.6789,1,,,,,,350,NW,"ID",33,nagurs,NAGURS,z,,,,,,-0.409259245,-0.312037065,1,0,0,,0,59,59,289,1,
,,,,,,,,,,,,,,,,,,5edac97f977d9018109447a4,2020-08-10_13h04.39.018,lexical_decision_task_MP,2020.1.3,Linux armv7l,60,,0,-0.413888889,-0.325,1,0,0,0.7772,button_left,0.7772,1,,,,,,437,NW,UN,33,baitch,SNAPEL,z,,,,,,-0.413888889,-0.325,1,0,0,,0,60,60,376,1,
,,,,,,,,,,,,,,,,,,5edac97f977d9018109447a4,2020-08-10_13h04.39.018,lexical_decision_task_MP,2020.1.3,Linux armv7l,60,,0,0.449074131,-0.325,1,0,0,0.533,button_right,0.533,1,,,,,,168,WORD,"ID",50,answer,ANSWER,m,,,,,,0.449074131,-0.325,1,0,0,,0,61,61,107,1,
,,,,,,,,,,,,,,,,,,5edac97f977d9018109447a4,2020-08-10_13h04.39.018,lexical_decision_task_MP,2020.1.3,Linux armv7l,60,,0,0.439814843,-0.321296353,1,0,0,1.0158,button_right,1.0158,1,,,,,,90,WORD,"ID",33,relish,RELISH,m,,,,,,0.439814843,-0.321296353,1,0,0,,0,62,62,29,1,
,,,,,,,,,,,,,,,,,,5edac97f977d9018109447a4,2020-08-10_13h04.39.018,lexical_decision_task_MP,2020.1.3,Linux armv7l,60,,0,-0.379629601,-0.332407464,1,0,0,0.6701,button_left,0.6701,1,,,,,,447,NW,UN,33,sadent,GIRCUE,z,,,,,,-0.379629601,-0.332407464,1,0,0,,0,63,63,386,1,
,,,,,,,,,,,,,,,,,,5edac97f977d9018109447a4,2020-08-10_13h04.39.018,lexical_decision_task_MP,2020.1.3,Linux armv7l,60,,0,0.444444444,-0.330555556,1,0,0,0.633,button_right,0.633,1,,,,,,210,WORD,UN,33,infect,MONKEY,m,,,,,,0.444444444,-0.330555556,1,0,0,,0,64,64,149,1,
,,,,,,,,,,,,,,,,,,5edac97f977d9018109447a4,2020-08-10_13h04.39.018,lexical_decision_task_MP,2020.1.3,Linux armv7l,60,,0,-0.40370369,-0.325925954,1,0,0,0.6512,button_left,0.6512,0,,,,,,85,WORD,"ID",33,sprawl,SPRAWL,m,,,,,,-0.40370369,-0.325925954,1,0,0,,0,65,65,24,1,
,,,,,,,,,,,,,,,,,,5edac97f977d9018109447a4,2020-08-10_13h04.39.018,lexical_decision_task_MP,2020.1.3,Linux armv7l,60,,0,0.445370399,-0.326851908,1,0,0,0.5286,button_right,0.5286,1,,,,,,94,WORD,"ID",33,travel,TRAVEL,m,,,,,,0.445370399,-0.326851908,1,0,0,,0,66,66,33,1,
,,,,,,,,,,,,,,,,,,5edac97f977d9018109447a4,2020-08-10_13h04.39.018,lexical_decision_task_MP,2020.1.3,Linux armv7l,60,,0,-0.401851824,-0.324074131,1,0,0,0.7525,button_left,0.7525,0,,,,,,97,WORD,"ID",33,client,CLIENT,m,,,,,,-0.401851824,-0.324074131,1,0,0,,0,67,67,36,1,
,,,,,,,,,,,,,,,,,,5edac97f977d9018109447a4,2020-08-10_13h04.39.018,lexical_decision_task_MP,2020.1.3,Linux armv7l,60,,0,0.441666667,-0.322222222,1,0,0,0.6739,button_right,0.6739,1,,,,,,118,WORD,"ID",33,flight,FLIGHT,m,,,,,,0.441666667,-0.322222222,1,0,0,,0,68,68,57,1,
,,,,,,,,,,,,,,,,,,5edac97f977d9018109447a4,2020-08-10_13h04.39.018,lexical_decision_task_MP,2020.1.3,Linux armv7l,60,,0,-0.382407379,-0.348148176,1,0,0,0.6845,button_left,0.6845,1,,,,,,347,NW,"ID",33,kerift,KERIFT,z,,,,,,-0.382407379,-0.348148176,1,0,0,,0,69,69,286,1,
,,,,,,,,,,,,,,,,,,5edac97f977d9018109447a4,2020-08-10_13h04.39.018,lexical_decision_task_MP,2020.1.3,Linux armv7l,60,,0,0.45648151,-0.316666667,1,0,0,0.5874,button_right,0.5874,1,,,,,,49,WORD,UN,50,snatch,SURVEY,m,,,,,,0.45648151,-0.316666667,1,0,0,,0,70,70,228,1,
,,,,,,,,,,,,,,,,,,5edac97f977d9018109447a4,2020-08-10_13h04.39.018,lexical_decision_task_MP,2020.1.3,Linux armv7l,60,,0,0.452777778,-0.317592621,1,0,0,0.724,button_right,0.724,1,,,,,,45,WORD,UN,50,single,CLERGY,m,,,,,,0.452777778,-0.317592621,1,0,0,,0,71,71,224,1,
,,,,,,,,,,,,,,,,,,5edac97f977d9018109447a4,2020-08-10_13h04.39.018,lexical_decision_task_MP,2020.1.3,Linux armv7l,60,,0,-0.411111111,-0.336111111,1,0,0,0.8207,button_left,0.8207,1,,,,,,265,NW,UN,50,varmit,DISTAR,z,,,,,,-0.411111111,-0.336111111,1,0,0,,0,72,72,444,1,
,,,,,,,,,,,,,,,,,,5edac97f977d9018109447a4,2020-08-10_13h04.39.018,lexical_decision_task_MP,2020.1.3,Linux armv7l,60,,0,0.450925954,-0.316666667,1,0,0,0.7556,button_right,0.7556,1,,,,,,139,WORD,"ID",50,debris,DEBRIS,m,,,,,,0.450925954,-0.316666667,1,0,0,,0,73,73,78,1,
,,,,,,,,,,,,,,,,,,5edac97f977d9018109447a4,2020-08-10_13h04.39.018,lexical_decision_task_MP,2020.1.3,Linux armv7l,60,,0,0.460185242,-0.310185242,1,0,0,0.8337,button_right,0.8337,0,,,,,,268,NW,UN,50,orchet,PACKES,z,,,,,,0.460185242,-0.310185242,1,0,0,,0,74,74,447,1,
,,,,,,,,,,,,,,,,,,5edac97f977d9018109447a4,2020-08-10_13h04.39.018,lexical_decision_task_MP,2020.1.3,Linux armv7l,60,,0,0.45648151,-0.311111111,1,0,0,0.6992,button_right,0.6992,1,,,,,,50,WORD,UN,50,hungry,SNATCH,m,,,,,,0.45648151,-0.311111111,1,0,0,,0,75,75,229,1,
,,,,,,,,,,,,,,,,,,5edac97f977d9018109447a4,2020-08-10_13h04.39.018,lexical_decision_task_MP,2020.1.3,Linux armv7l,60,,0,0.45648151,-0.312963019,1,0,0,0.7265,button_right,0.7265,1,,,,,,119,WORD,"ID",33,spider,SPIDER,m,,,,,,0.45648151,-0.312963019,1,0,0,,0,76,76,58,1,
,,,,,,,,,,,,,,,,,,5edac97f977d9018109447a4,2020-08-10_13h04.39.018,lexical_decision_task_MP,2020.1.3,Linux armv7l,60,,0,-0.404629601,-0.328703732,1,0,0,0.7152,button_left,0.7152,1,,,,,,371,NW,"ID",50,geiloy,GEILOY,z,,,,,,-0.404629601,-0.328703732,1,0,0,,0,77,77,310,1,
,,,,,,,,,,,,,,,,,,5edac97f977d9018109447a4,2020-08-10_13h04.39.018,lexical_decision_task_MP,2020.1.3,Linux armv7l,60,,0,-0.392592578,-0.355555556,1,0,0,0.8149,button_left,0.8149,0,,,,,,10,WORD,UN,50,cruise,ETHNIC,m,,,,,,-0.392592578,-0.355555556,1,0,0,,0,78,78,189,1,
,,,,,,,,,,,,,,,,,,5edac97f977d9018109447a4,2020-08-10_13h04.39.018,lexical_decision_task_MP,2020.1.3,Linux armv7l,60,,0,0.45,-0.315740797,1,0,0,0.6856,button_right,0.6856,1,,,,,,107,WORD,"ID",33,slogan,SLOGAN,m,,,,,,0.45,-0.315740797,1,0,0,,0,79,79,46,1,
,,,,,,,,,,,,,,,,,,5edac97f977d9018109447a4,2020-08-10_13h04.39.018,lexical_decision_task_MP,2020.1.3,Linux armv7l,60,,0,-0.413888889,-0.337963019,1,0,0,0.9513,button_left,0.9513,1,,,,,,319,NW,"ID",33,zomber,ZOMBER,z,,,,,,-0.413888889,-0.337963019,1,0,0,,0,80,80,258,1,
,,,,,,,,,,,,,,,,,,5edac97f977d9018109447a4,2020-08-10_13h04.39.018,lexical_decision_task_MP,2020.1.3,Linux armv7l,60,,0,-0.422222222,-0.330555556,1,0,0,0.7919,button_left,0.7919,1,,,,,,468,NW,UN,33,padifs,WICTOR,z,,,,,,-0.422222222,-0.330555556,1,0,0,,0,81,81,407,1,
,,,,,,,,,,,,,,,,,,5edac97f977d9018109447a4,2020-08-10_13h04.39.018,lexical_decision_task_MP,2020.1.3,Linux armv7l,60,,0,-0.404629601,-0.317592621,1,0,0,0.7736,button_left,0.7736,0,,,,,,217,WORD,UN,33,shrink,LIQUOR,m,,,,,,-0.404629601,-0.317592621,1,0,0,,0,82,82,156,1,
,,,,,,,,,,,,,,,,,,5edac97f977d9018109447a4,2020-08-10_13h04.39.018,lexical_decision_task_MP,2020.1.3,Linux armv7l,60,,0,-0.407407379,-0.327777778,1,0,0,0.8301,button_left,0.8301,1,,,,,,356,NW,"ID",33,othnis,OTHNIS,z,,,,,,-0.407407379,-0.327777778,1,0,0,,0,83,83,295,1,
,,,,,,,,,,,,,,,,,,5edac97f977d9018109447a4,2020-08-10_13h04.39.018,lexical_decision_task_MP,2020.1.3,Linux armv7l,60,,0,-0.40370369,-0.321296353,1,0,0,0.9918,button_left,0.9918,1,,,,,,243,NW,UN,50,eatric,MUSIED,z,,,,,,-0.40370369,-0.321296353,1,0,0,,0,84,84,422,1,
,,,,,,,,,,,,,,,,,,5edac97f977d9018109447a4,2020-08-10_13h04.39.018,lexical_decision_task_MP,2020.1.3,Linux armv7l,60,,0,-0.411111111,-0.330555556,1,0,0,0.7619,button_left,0.7619,1,,,,,,279,NW,UN,50,curbol,CELOND,z,,,,,,-0.411111111,-0.330555556,1,0,0,,0,85,85,458,1,
,,,,,,,,,,,,,,,,,,5edac97f977d9018109447a4,2020-08-10_13h04.39.018,lexical_decision_task_MP,2020.1.3,Linux armv7l,60,,0,0.435185242,-0.322222222,1,0,0,0.6591,button_right,0.6591,1,,,,,,169,WORD,"ID",50,genius,GENIUS,m,,,,,,0.435185242,-0.322222222,1,0,0,,0,86,86,108,1,
,,,,,,,,,,,,,,,,,,5edac97f977d9018109447a4,2020-08-10_13h04.39.018,lexical_decision_task_MP,2020.1.3,Linux armv7l,60,,0,0.43148151,-0.323148176,1,0,0,0.7907,button_right,0.7907,1,,,,,,96,WORD,"ID",33,ignore,IGNORE,m,,,,,,0.43148151,-0.323148176,1,0,0,,0,87,87,35,1,
,,,,,,,,,,,,,,,,,,5edac97f977d9018109447a4,2020-08-10_13h04.39.018,lexical_decision_task_MP,2020.1.3,Linux armv7l,60,,0,0.434259288,-0.323148176,1,0,0,0.6768,button_right,0.6768,1,,,,,,11,WORD,UN,50,amount,CRUISE,m,,,,,,0.434259288,-0.323148176,1,0,0,,0,88,88,190,1,
,,,,,,,,,,,,,,,,,,5edac97f977d9018109447a4,2020-08-10_13h04.39.018,lexical_decision_task_MP,2020.1.3,Linux armv7l,60,,0,-0.40370369,-0.333333333,1,0,0,0.7608,button_left,0.7608,1,,,,,,245,NW,UN,50,piaton,ANOUGS,z,,,,,,-0.40370369,-0.333333333,1,0,0,,0,89,89,424,1,
,,,,,,,,,,,,,,,,,,5edac97f977d9018109447a4,2020-08-10_13h04.39.018,lexical_decision_task_MP,2020.1.3,Linux armv7l,60,,0,-0.406481467,-0.336111111,1,0,0,0.8403,button_left,0.8403,1,,,,,,334,NW,"ID",33,watmeg,WATMEG,z,,,,,,-0.406481467,-0.336111111,1,0,0,,0,90,90,273,1,
,,,,,,,,,,,,,,,,,,5edac97f977d9018109447a4,2020-08-10_13h04.39.018,lexical_decision_task_MP,2020.1.3,Linux armv7l,60,,0,0.407407464,-0.328703732,1,0,0,0.7205,button_right,0.7205,1,,,,,,117,WORD,"ID",33,branch,BRANCH,m,,,,,,0.407407464,-0.328703732,1,0,0,,0,91,91,56,1,
,,,,,,,,,,,,,,,,,,5edac97f977d9018109447a4,2020-08-10_13h04.39.018,lexical_decision_task_MP,2020.1.3,Linux armv7l,60,,0,0.437037065,-0.318518575,1,0,0,0.6645,button_right,0.6645,1,,,,,,21,WORD,UN,50,jockey,SIMPLE,m,,,,,,0.437037065,-0.318518575,1,0,0,,0,92,92,200,1,
,,,,,,,,,,,,,,,,,,5edac97f977d9018109447a4,2020-08-10_13h04.39.018,lexical_decision_task_MP,2020.1.3,Linux armv7l,60,,0,0.446296353,-0.310185242,1,0,0,1.0341,button_right,1.0341,1,,,,,,209,WORD,UN,33,monkey,SEARCH,m,,,,,,0.446296353,-0.310185242,1,0,0,,0,93,93,148,1,
,,,,,,,,,,,,,,,,,,5edac97f977d9018109447a4,2020-08-10_13h04.39.018,lexical_decision_task_MP,2020.1.3,Linux armv7l,60,,0,0.451851908,-0.312037065,1,0,0,0.8743,button_right,0.8743,1,,,,,,32,WORD,UN,50,scream,BUCKLE,m,,,,,,0.451851908,-0.312037065,1,0,0,,0,94,94,211,1,
,,,,,,,,,,,,,,,,,,5edac97f977d9018109447a4,2020-08-10_13h04.39.018,lexical_decision_task_MP,2020.1.3,Linux armv7l,60,,0,-0.383333333,-0.35,1,0,0,0.8441,button_left,0.8441,1,,,,,,272,NW,UN,50,sortel,DAMILT,z,,,,,,-0.383333333,-0.35,1,0,0,,0,95,95,451,1,
,,,,,,,,,,,,,,,,,,5edac97f977d9018109447a4,2020-08-10_13h04.39.018,lexical_decision_task_MP,2020.1.3,Linux armv7l,60,,0,0.442592621,-0.320370399,1,0,0,0.565,button_right,0.565,1,,,,,,18,WORD,UN,50,patron,HUMBLE,m,,,,,,0.442592621,-0.320370399,1,0,0,,0,96,96,197,1,
,,,,,,,,,,,,,,,,,,5edac97f977d9018109447a4,2020-08-10_13h04.39.018,lexical_decision_task_MP,2020.1.3,Linux armv7l,60,,0,0.400925954,-0.325925954,1,0,0,0.6588,button_right,0.6588,1,,,,,,138,WORD,"ID",50,melody,MELODY,m,,,,,,0.400925954,-0.325925954,1,0,0,,0,97,97,77,1,
,,,,,,,,,,,,,,,,,,5edac97f977d9018109447a4,2020-08-10_13h04.39.018,lexical_decision_task_MP,2020.1.3,Linux armv7l,60,,0,-0.406481467,-0.322222222,1,0,0,0.845,button_left,0.845,0,,,,,,166,WORD,"ID",50,starch,STARCH,m,,,,,,-0.406481467,-0.322222222,1,0,0,,0,98,98,105,1,
,,,,,,,,,,,,,,,,,,5edac97f977d9018109447a4,2020-08-10_13h04.39.018,lexical_decision_task_MP,2020.1.3,Linux armv7l,60,,0,-0.413888889,-0.334259288,1,0,0,0.9569,button_left,0.9569,1,,,,,,423,NW,UN,33,praile,STRELD,z,,,,,,-0.413888889,-0.334259288,1,0,0,,0,99,99,362,1,
,,,,,,,,,,,,,,,,,,5edac97f977d9018109447a4,2020-08-10_13h04.39.018,lexical_decision_task_MP,2020.1.3,Linux armv7l,60,,0,0.438888889,-0.324074131,1,0,0,1.1639,button_right,1.1639,0,,,,,,378,NW,"ID",50,shrile,SHRILE,z,,,,,,0.438888889,-0.324074131,1,0,0,,0,100,100,317,1,
,,,,,,,,,,,,,,,,,,5edac97f977d9018109447a4,2020-08-10_13h04.39.018,lexical_decision_task_MP,2020.1.3,Linux armv7l,60,,0,0.448148176,-0.321296353,1,0,0,0.7415,button_right,0.7415,1,,,,,,108,WORD,"ID",33,reckon,RECKON,m,,,,,,0.448148176,-0.321296353,1,0,0,,0,101,101,47,1,
,,,,,,,,,,,,,,,,,,5edac97f977d9018109447a4,2020-08-10_13h04.39.018,lexical_decision_task_MP,2020.1.3,Linux armv7l,60,,0,0.446296353,-0.313888889,1,0,0,0.5663,button_right,0.5663,1,,,,,,80,WORD,"ID",33,family,FAMILY,m,,,,,,0.446296353,-0.313888889,1,0,0,,0,102,102,19,1,
,,,,,,,,,,,,,,,,,,5edac97f977d9018109447a4,2020-08-10_13h04.39.018,lexical_decision_task_MP,2020.1.3,Linux armv7l,60,,0,0.460185242,-0.307407464,1,0,0,0.5592,button_right,0.5592,1,,,,,,154,WORD,"ID",50,author,AUTHOR,m,,,,,,0.460185242,-0.307407464,1,0,0,,0,103,103,93,1,
,,,,,,,,,,,,,,,,,,5edac97f977d9018109447a4,2020-08-10_13h04.39.018,lexical_decision_task_MP,2020.1.3,Linux armv7l,60,,0,0.442592621,-0.319444444,1,0,0,0.5135,button_right,0.5135,1,,,,,,27,WORD,UN,50,comedy,SCREAM,m,,,,,,0.442592621,-0.319444444,1,0,0,,0,104,104,206,1,
,,,,,,,,,,,,,,,,,,5edac97f977d9018109447a4,2020-08-10_13h04.39.018,lexical_decision_task_MP,2020.1.3,Linux armv7l,60,,0,0.446296353,-0.319444444,1,0,0,0.552,button_right,0.552,1,,,,,,158,WORD,"ID",50,island,ISLAND,m,,,,,,0.446296353,-0.319444444,1,0,0,,0,105,105,97,1,
,,,,,,,,,,,,,,,,,,5edac97f977d9018109447a4,2020-08-10_13h04.39.018,lexical_decision_task_MP,2020.1.3,Linux armv7l,60,,0,-0.40370369,-0.327777778,1,0,0,0.8453,button_left,0.8453,1,,,,,,318,NW,"ID",33,reagly,REAGLY,z,,,,,,-0.40370369,-0.327777778,1,0,0,,0,106,106,257,1,
,,,,,,,,,,,,,,,,,,5edac97f977d9018109447a4,2020-08-10_13h04.39.018,lexical_decision_task_MP,2020.1.3,Linux armv7l,60,,0,0.443518575,-0.328703732,1,0,0,0.5204,button_right,0.5204,0,,,,,,373,NW,"ID",50,bigent,BIGENT,z,,,,,,0.443518575,-0.328703732,1,0,0,,0,107,107,312,1,
,,,,,,,,,,,,,,,,,,5edac97f977d9018109447a4,2020-08-10_13h04.39.018,lexical_decision_task_MP,2020.1.3,Linux armv7l,60,,0,0.451851908,-0.315740797,1,0,0,0.799,button_right,0.799,0,,,,,,276,NW,UN,50,petain,YARMON,z,,,,,,0.451851908,-0.315740797,1,0,0,,0,108,108,455,1,
,,,,,,,,,,,,,,,,,,5edac97f977d9018109447a4,2020-08-10_13h04.39.018,lexical_decision_task_MP,2020.1.3,Linux armv7l,60,,0,-0.381481467,-0.349074131,1,0,0,0.6897,button_left,0.6897,1,,,,,,242,NW,UN,50,musied,UNWERT,z,,,,,,-0.381481467,-0.349074131,1,0,0,,0,109,109,421,1,
,,,,,,,,,,,,,,,,,,5edac97f977d9018109447a4,2020-08-10_13h04.39.018,lexical_decision_task_MP,2020.1.3,Linux armv7l,60,,0,0.448148176,-0.325,1,0,0,0.6872,button_right,0.6872,0,,,,,,424,NW,UN,33,frudge,PRAILE,z,,,,,,0.448148176,-0.325,1,0,0,,0,110,110,363,1,
,,,,,,,,,,,,,,,,,,5edac97f977d9018109447a4,2020-08-10_13h04.39.018,lexical_decision_task_MP,2020.1.3,Linux armv7l,60,,0,0.450925954,-0.321296353,1,0,0,0.6322,button_right,0.6322,1,,,,,,24,WORD,UN,50,domain,PRAISE,m,,,,,,0.450925954,-0.321296353,1,0,0,,0,111,111,203,1,
,,,,,,,,,,,,,,,,,,5edac97f977d9018109447a4,2020-08-10_13h04.39.018,lexical_decision_task_MP,2020.1.3,Linux armv7l,60,,0,0.451851908,-0.322222222,1,0,0,0.6963,button_right,0.6963,1,,,,,,2,WORD,UN,50,knight,BRIDGE,m,,,,,,0.451851908,-0.322222222,1,0,0,,0,112,112,181,1,
,,,,,,,,,,,,,,,,,,5edac97f977d9018109447a4,2020-08-10_13h04.39.018,lexical_decision_task_MP,2020.1.3,Linux armv7l,60,,0,-0.382407379,-0.337037065,1,0,0,0.7295,button_left,0.7295,1,,,,,,295,NW,UN,50,beinch,GLEATH,z,,,,,,-0.382407379,-0.337037065,1,0,0,,0,113,113,474,1,
,,,,,,,,,,,,,,,,,,5edac97f977d9018109447a4,2020-08-10_13h04.39.018,lexical_decision_task_MP,2020.1.3,Linux armv7l,60,,0,-0.401851824,-0.333333333,1,0,0,0.8968,button_left,0.8968,1,,,,,,257,NW,UN,50,poluth,VENIOD,z,,,,,,-0.401851824,-0.333333333,1,0,0,,0,114,114,436,1,
,,,,,,,,,,,,,,,,,,5edac97f977d9018109447a4,2020-08-10_13h04.39.018,lexical_decision_task_MP,2020.1.3,Linux armv7l,60,,0,0.445370399,-0.329629686,1,0,0,0.6727,button_right,0.6727,1,,,,,,60,WORD,UN,50,fright,PENCIL,m,,,,,,0.445370399,-0.329629686,1,0,0,,0,115,115,239,1,
,,,,,,,,,,,,,,,,,,5edac97f977d9018109447a4,2020-08-10_13h04.39.018,lexical_decision_task_MP,2020.1.3,Linux armv7l,60,,0,0.452777778,-0.321296353,1,0,0,0.6498,button_right,0.6498,1,,,,,,113,WORD,"ID",33,chorus,CHORUS,m,,,,,,0.452777778,-0.321296353,1,0,0,,0,116,116,52,1,
,,,,,,,,,,,,,,,,,,5edac97f977d9018109447a4,2020-08-10_13h04.39.018,lexical_decision_task_MP,2020.1.3,Linux armv7l,60,,0,0.453703732,-0.332407464,1,0,0,0.7299,button_right,0.7299,1,,,,,,104,WORD,"ID",33,studio,STUDIO,m,,,,,,0.453703732,-0.332407464,1,0,0,,0,117,117,43,1,
,,,,,,,,,,,,,,,,,,5edac97f977d9018109447a4,2020-08-10_13h04.39.018,lexical_decision_task_MP,2020.1.3,Linux armv7l,60,,0,-0.401851824,-0.333333333,1,0,0,0.6977,button_left,0.6977,1,,,,,,340,NW,"ID",33,fiatch,FIATCH,z,,,,,,-0.401851824,-0.333333333,1,0,0,,0,118,118,279,1,
,,,,,,,,,,,,,,,,,,5edac97f977d9018109447a4,2020-08-10_13h04.39.018,lexical_decision_task_MP,2020.1.3,Linux armv7l,60,,0,-0.401851824,-0.330555556,1,0,0,0.71,button_left,0.71,1,,,,,,400,NW,"ID",50,wearox,WEAROX,z,,,,,,-0.401851824,-0.330555556,1,0,0,,0,119,119,339,1,
,,,,,,,,,,,,,,,,,,5edac97f977d9018109447a4,2020-08-10_13h04.39.018,lexical_decision_task_MP,2020.1.3,Linux armv7l,60,,0,-0.381481467,-0.336111111,1,0,0,1.193,button_left,1.193,1,,,,,,283,NW,UN,50,shaple,VERALF,z,,,,,,-0.059259203,-0.415740797,1,0,0,,0,120,120,462,1,break_done_button
,,,,,,,,,,,,,,,,,,5edac97f977d9018109447a4,2020-08-10_13h04.39.018,lexical_decision_task_MP,2020.1.3,Linux armv7l,60,,0,0.465740797,-0.305555556,1,0,0,0.6394,button_right,0.6394,1,,,,,,55,WORD,UN,50,ambush,STROKE,m,,,,,,0.465740797,-0.305555556,1,0,0,,0,121,121,234,1,
,,,,,,,,,,,,,,,,,,5edac97f977d9018109447a4,2020-08-10_13h04.39.018,lexical_decision_task_MP,2020.1.3,Linux armv7l,60,,0,-0.41851849,-0.303703732,1,0,0,0.6843,button_left,0.6843,0,,,,,,29,WORD,UN,50,orient,SKETCH,m,,,,,,-0.41851849,-0.303703732,1,0,0,,0,122,122,208,1,
,,,,,,,,,,,,,,,,,,5edac97f977d9018109447a4,2020-08-10_13h04.39.018,lexical_decision_task_MP,2020.1.3,Linux armv7l,60,,0,0.445370399,-0.315740797,1,0,0,0.5587,button_right,0.5587,1,,,,,,112,WORD,"ID",33,breath,BREATH,m,,,,,,0.445370399,-0.315740797,1,0,0,,0,123,123,51,1,
,,,,,,,,,,,,,,,,,,5edac97f977d9018109447a4,2020-08-10_13h04.39.018,lexical_decision_task_MP,2020.1.3,Linux armv7l,60,,0,-0.386111111,-0.35648151,1,0,0,0.6448,button_left,0.6448,1,,,,,,382,NW,"ID",50,sarley,SARLEY,z,,,,,,-0.386111111,-0.35648151,1,0,0,,0,124,124,321,1,
,,,,,,,,,,,,,,,,,,5edac97f977d9018109447a4,2020-08-10_13h04.39.018,lexical_decision_task_MP,2020.1.3,Linux armv7l,60,,0,-0.417592578,-0.338888889,1,0,0,0.7267,button_left,0.7267,1,,,,,,478,NW,UN,33,pebric,ACRISE,z,,,,,,-0.417592578,-0.338888889,1,0,0,,0,125,125,417,1,
,,,,,,,,,,,,,,,,,,5edac97f977d9018109447a4,2020-08-10_13h04.39.018,lexical_decision_task_MP,2020.1.3,Linux armv7l,60,,0,0.441666667,-0.326851908,1,0,0,0.588,button_right,0.588,1,,,,,,6,WORD,UN,50,anchor,BUNDLE,m,,,,,,0.441666667,-0.326851908,1,0,0,,0,126,126,185,1,
,,,,,,,,,,,,,,,,,,5edac97f977d9018109447a4,2020-08-10_13h04.39.018,lexical_decision_task_MP,2020.1.3,Linux armv7l,60,,0,0.437037065,-0.327777778,1,0,0,0.6117,button_right,0.6117,1,,,,,,202,WORD,UN,33,phrase,FACTOR,m,,,,,,0.437037065,-0.327777778,1,0,0,,0,127,127,141,1,
,,,,,,,,,,,,,,,,,,5edac97f977d9018109447a4,2020-08-10_13h04.39.018,lexical_decision_task_MP,2020.1.3,Linux armv7l,60,,0,0.443518575,-0.325925954,1,0,0,0.8577,button_right,0.8577,1,,,,,,114,WORD,"ID",33,placid,PLACID,m,,,,,,0.443518575,-0.325925954,1,0,0,,0,128,128,53,1,
,,,,,,,,,,,,,,,,,,5edac97f977d9018109447a4,2020-08-10_13h04.39.018,lexical_decision_task_MP,2020.1.3,Linux armv7l,60,,0,0.447222222,-0.325,1,0,0,0.5914,button_right,0.5914,1,,,,,,56,WORD,UN,50,change,AMBUSH,m,,,,,,0.447222222,-0.325,1,0,0,,0,129,129,235,1,
,,,,,,,,,,,,,,,,,,5edac97f977d9018109447a4,2020-08-10_13h04.39.018,lexical_decision_task_MP,2020.1.3,Linux armv7l,60,,0,-0.404629601,-0.33148151,1,0,0,0.6225,button_left,0.6225,1,,,,,,375,NW,"ID",50,yorque,YORQUE,z,,,,,,-0.404629601,-0.33148151,1,0,0,,0,130,130,314,1,
,,,,,,,,,,,,,,,,,,5edac97f977d9018109447a4,2020-08-10_13h04.39.018,lexical_decision_task_MP,2020.1.3,Linux armv7l,60,,0,-0.414814801,-0.334259288,1,0,0,0.6876,button_left,0.6876,1,,,,,,370,NW,"ID",50,sleact,SLEACT,z,,,,,,-0.414814801,-0.334259288,1,0,0,,0,131,131,309,1,
,,,,,,,,,,,,,,,,,,5edac97f977d9018109447a4,2020-08-10_13h04.39.018,lexical_decision_task_MP,2020.1.3,Linux armv7l,60,,0,-0.414814801,-0.337963019,1,0,0,0.7892,button_left,0.7892,1,,,,,,368,NW,"ID",50,hornal,HORNAL,z,,,,,,-0.414814801,-0.337963019,1,0,0,,0,132,132,307,1,
,,,,,,,,,,,,,,,,,,5edac97f977d9018109447a4,2020-08-10_13h04.39.018,lexical_decision_task_MP,2020.1.3,Linux armv7l,60,,0,-0.414814801,-0.344444444,1,0,0,0.8057,button_left,0.8057,1,,,,,,410,NW,"ID",50,tunory,TUNORY,z,,,,,,-0.414814801,-0.344444444,1,0,0,,0,133,133,349,1,
,,,,,,,,,,,,,,,,,,5edac97f977d9018109447a4,2020-08-10_13h04.39.018,lexical_decision_task_MP,2020.1.3,Linux armv7l,60,,0,0.436111111,-0.33148151,1,0,0,0.8254,button_right,0.8254,1,,,,,,200,WORD,UN,33,admire,BEACON,m,,,,,,0.436111111,-0.33148151,1,0,0,,0,134,134,139,1,
,,,,,,,,,,,,,,,,,,5edac97f977d9018109447a4,2020-08-10_13h04.39.018,lexical_decision_task_MP,2020.1.3,Linux armv7l,60,,0,-0.405555556,-0.340740797,1,0,0,0.6803,button_left,0.6803,1,,,,,,441,NW,UN,33,aboune,RASTOE,z,,,,,,-0.405555556,-0.340740797,1,0,0,,0,135,135,380,1,
,,,,,,,,,,,,,,,,,,5edac97f977d9018109447a4,2020-08-10_13h04.39.018,lexical_decision_task_MP,2020.1.3,Linux armv7l,60,,0,-0.414814801,-0.333333333,1,0,0,0.774,button_left,0.774,1,,,,,,464,NW,UN,33,whivex,CHAITE,z,,,,,,-0.414814801,-0.333333333,1,0,0,,0,136,136,403,1,
,,,,,,,,,,,,,,,,,,5edac97f977d9018109447a4,2020-08-10_13h04.39.018,lexical_decision_task_MP,2020.1.3,Linux armv7l,60,,0,0.447222222,-0.323148176,1,0,0,0.5693,button_right,0.5693,1,,,,,,131,WORD,"ID",50,quench,QUENCH,m,,,,,,0.447222222,-0.323148176,1,0,0,,0,137,137,70,1,
,,,,,,,,,,,,,,,,,,5edac97f977d9018109447a4,2020-08-10_13h04.39.018,lexical_decision_task_MP,2020.1.3,Linux armv7l,60,,0,-0.412037023,-0.327777778,1,0,0,0.7403,button_left,0.7403,1,,,,,,431,NW,UN,33,lunker,CHRUMS,z,,,,,,-0.412037023,-0.327777778,1,0,0,,0,138,138,370,1,
,,,,,,,,,,,,,,,,,,5edac97f977d9018109447a4,2020-08-10_13h04.39.018,lexical_decision_task_MP,2020.1.3,Linux armv7l,60,,0,0.438888889,-0.33148151,1,0,0,0.909,button_right,0.909,0,,,,,,473,NW,UN,33,hablin,CRIBLE,z,,,,,,0.438888889,-0.33148151,1,0,0,,0,139,139,412,1,
,,,,,,,,,,,,,,,,,,5edac97f977d9018109447a4,2020-08-10_13h04.39.018,lexical_decision_task_MP,2020.1.3,Linux armv7l,60,,0,-0.4,-0.330555556,1,0,0,0.742,button_left,0.742,1,,,,,,417,NW,"ID",50,earoud,EAROUD,z,,,,,,-0.4,-0.330555556,1,0,0,,0,140,140,356,1,
,,,,,,,,,,,,,,,,,,5edac97f977d9018109447a4,2020-08-10_13h04.39.018,lexical_decision_task_MP,2020.1.3,Linux armv7l,60,,0,,,,,,,,0.742,-1,,,,,,414,NW,"ID",50,serbol,SERBOL,z,,,,,,0.453703732,-0.316666667,0,0,0,,0,141,141,353,1,
,,,,,,,,,,,,,,,,,,5edac97f977d9018109447a4,2020-08-10_13h04.39.018,lexical_decision_task_MP,2020.1.3,Linux armv7l,60,,0,0.444444444,-0.301851908,1,0,0,0.6767,button_right,0.6767,1,,,,,,41,WORD,UN,50,chapel,SPRING,m,,,,,,0.444444444,-0.301851908,1,0,0,,0,142,142,220,1,
,,,,,,,,,,,,,,,,,,5edac97f977d9018109447a4,2020-08-10_13h04.39.018,lexical_decision_task_MP,2020.1.3,Linux armv7l,60,,0,0.444444444,-0.304629686,1,0,0,0.6754,button_right,0.6754,1,,,,,,134,WORD,"ID",50,staple,STAPLE,m,,,,,,0.444444444,-0.304629686,1,0,0,,0,143,143,73,1,
,,,,,,,,,,,,,,,,,,5edac97f977d9018109447a4,2020-08-10_13h04.39.018,lexical_decision_task_MP,2020.1.3,Linux armv7l,60,,0,-0.406481467,-0.327777778,1,0,0,0.7831,button_left,0.7831,1,,,,,,258,NW,UN,50,soudal,POLUTH,z,,,,,,-0.406481467,-0.327777778,1,0,0,,0,144,144,437,1,
,,,,,,,,,,,,,,,,,,5edac97f977d9018109447a4,2020-08-10_13h04.39.018,lexical_decision_task_MP,2020.1.3,Linux armv7l,60,,0,0.448148176,-0.315740797,1,0,0,0.7654,button_right,0.7654,0,,,,,,352,NW,"ID",33,tringe,TRINGE,z,,,,,,0.448148176,-0.315740797,1,0,0,,0,145,145,291,1,
,,,,,,,,,,,,,,,,,,5edac97f977d9018109447a4,2020-08-10_13h04.39.018,lexical_decision_task_MP,2020.1.3,Linux armv7l,60,,0,0.451851908,-0.317592621,1,0,0,0.6734,button_right,0.6734,1,,,,,,146,WORD,"ID",50,couple,COUPLE,m,,,,,,0.451851908,-0.317592621,1,0,0,,0,146,146,85,1,
,,,,,,,,,,,,,,,,,,5edac97f977d9018109447a4,2020-08-10_13h04.39.018,lexical_decision_task_MP,2020.1.3,Linux armv7l,60,,0,-0.383333333,-0.329629686,1,0,0,0.6633,button_left,0.6633,1,,,,,,358,NW,"ID",33,fleack,FLEACK,z,,,,,,-0.383333333,-0.329629686,1,0,0,,0,147,147,297,1,
,,,,,,,,,,,,,,,,,,5edac97f977d9018109447a4,2020-08-10_13h04.39.018,lexical_decision_task_MP,2020.1.3,Linux armv7l,60,,0,0.455555556,-0.326851908,1,0,0,0.6262,button_right,0.6262,1,,,,,,36,WORD,UN,50,insult,VANISH,m,,,,,,0.455555556,-0.326851908,1,0,0,,0,148,148,215,1,
,,,,,,,,,,,,,,,,,,5edac97f977d9018109447a4,2020-08-10_13h04.39.018,lexical_decision_task_MP,2020.1.3,Linux armv7l,60,,0,-0.406481467,-0.329629686,1,0,0,0.896,button_left,0.896,0,,,,,,33,WORD,UN,50,jungle,BUTLER,m,,,,,,-0.406481467,-0.329629686,1,0,0,,0,149,149,212,1,
,,,,,,,,,,,,,,,,,,5edac97f977d9018109447a4,2020-08-10_13h04.39.018,lexical_decision_task_MP,2020.1.3,Linux armv7l,60,,0,0.446296353,-0.327777778,1,0,0,0.574,button_right,0.574,1,,,,,,31,WORD,UN,50,buckle,WEAPON,m,,,,,,0.446296353,-0.327777778,1,0,0,,0,150,150,210,1,
,,,,,,,,,,,,,,,,,,5edac97f977d9018109447a4,2020-08-10_13h04.39.018,lexical_decision_task_MP,2020.1.3,Linux armv7l,60,,0,0.442592621,-0.323148176,1,0,0,0.601,button_right,0.601,0,,,,,,314,NW,"ID",33,sprine,SPRINE,z,,,,,,0.442592621,-0.323148176,1,0,0,,0,151,151,253,1,
,,,,,,,,,,,,,,,,,,5edac97f977d9018109447a4,2020-08-10_13h04.39.018,lexical_decision_task_MP,2020.1.3,Linux armv7l,60,,0,,,,,,,,0.601,-1,,,,,,130,WORD,"ID",50,stupid,STUPID,m,,,,,,0.444444444,-0.314814843,0,0,0,,0,152,152,69,1,
,,,,,,,,,,,,,,,,,,5edac97f977d9018109447a4,2020-08-10_13h04.39.018,lexical_decision_task_MP,2020.1.3,Linux armv7l,60,,0,0.452777778,-0.318518575,1,0,0,0.6256,button_right,0.6256,1,,,,,,13,WORD,UN,50,almost,STRIVE,m,,,,,,0.452777778,-0.318518575,1,0,0,,0,153,153,192,1,
,,,,,,,,,,,,,,,,,,5edac97f977d9018109447a4,2020-08-10_13h04.39.018,lexical_decision_task_MP,2020.1.3,Linux armv7l,60,,0,0.455555556,-0.318518575,1,0,0,0.7389,button_right,0.7389,1,,,,,,122,WORD,"ID",50,linger,LINGER,m,,,,,,0.455555556,-0.318518575,1,0,0,,0,154,154,61,1,
,,,,,,,,,,,,,,,,,,5edac97f977d9018109447a4,2020-08-10_13h04.39.018,lexical_decision_task_MP,2020.1.3,Linux armv7l,60,,0,0.443518575,-0.293518575,1,0,0,0.9323,button_right,0.9323,1,,,,,,226,WORD,UN,33,flower,CASINO,m,,,,,,0.443518575,-0.293518575,1,0,0,,0,155,155,165,1,
,,,,,,,,,,,,,,,,,,5edac97f977d9018109447a4,2020-08-10_13h04.39.018,lexical_decision_task_MP,2020.1.3,Linux armv7l,60,,0,0.427777778,-0.307407464,1,0,0,0.6165,button_right,0.6165,1,,,,,,106,WORD,"ID",33,ransom,RANSOM,m,,,,,,0.427777778,-0.307407464,1,0,0,,0,156,156,45,1,
,,,,,,,,,,,,,,,,,,5edac97f977d9018109447a4,2020-08-10_13h04.39.018,lexical_decision_task_MP,2020.1.3,Linux armv7l,60,,0,-0.415740712,-0.341666667,1,0,0,0.6893,button_left,0.6893,1,,,,,,365,NW,"ID",50,guairt,GUAIRT,z,,,,,,-0.415740712,-0.341666667,1,0,0,,0,157,157,304,1,
,,,,,,,,,,,,,,,,,,5edac97f977d9018109447a4,2020-08-10_13h04.39.018,lexical_decision_task_MP,2020.1.3,Linux armv7l,60,,0,0.45,-0.321296353,1,0,0,0.8619,button_right,0.8619,0,,,,,,330,NW,"ID",33,kensom,KENSOM,z,,,,,,0.45,-0.321296353,1,0,0,,0,158,158,269,1,
,,,,,,,,,,,,,,,,,,5edac97f977d9018109447a4,2020-08-10_13h04.39.018,lexical_decision_task_MP,2020.1.3,Linux armv7l,60,,0,-0.389814801,-0.357407464,1,0,0,0.8139,button_left,0.8139,1,,,,,,274,NW,UN,50,sleirt,FUMBLO,z,,,,,,-0.389814801,-0.357407464,1,0,0,,0,159,159,453,1,
,,,,,,,,,,,,,,,,,,5edac97f977d9018109447a4,2020-08-10_13h04.39.018,lexical_decision_task_MP,2020.1.3,Linux armv7l,60,,0,0.458333333,-0.321296353,1,0,0,0.5714,button_right,0.5714,1,,,,,,71,WORD,"ID",33,garden,GARDEN,m,,,,,,0.458333333,-0.321296353,1,0,0,,0,160,160,10,1,
,,,,,,,,,,,,,,,,,,5edac97f977d9018109447a4,2020-08-10_13h04.39.018,lexical_decision_task_MP,2020.1.3,Linux armv7l,60,,0,-0.404629601,-0.325925954,1,0,0,0.8375,button_left,0.8375,0,,,,,,184,WORD,UN,33,bother,SLEAZY,m,,,,,,-0.404629601,-0.325925954,1,0,0,,0,161,161,123,1,
,,,,,,,,,,,,,,,,,,5edac97f977d9018109447a4,2020-08-10_13h04.39.018,lexical_decision_task_MP,2020.1.3,Linux armv7l,60,,0,0.447222222,-0.322222222,1,0,0,0.6674,button_right,0.6674,1,,,,,,156,WORD,"ID",50,cradle,CRADLE,m,,,,,,0.447222222,-0.322222222,1,0,0,,0,162,162,95,1,
,,,,,,,,,,,,,,,,,,5edac97f977d9018109447a4,2020-08-10_13h04.39.018,lexical_decision_task_MP,2020.1.3,Linux armv7l,60,,0,0.443518575,-0.320370399,1,0,0,0.9811,button_right,0.9811,1,,,,,,181,WORD,UN,33,winter,GLANCE,m,,,,,,0.443518575,-0.320370399,1,0,0,,0,163,163,120,1,
,,,,,,,,,,,,,,,,,,5edac97f977d9018109447a4,2020-08-10_13h04.39.018,lexical_decision_task_MP,2020.1.3,Linux armv7l,60,,0,-0.398148134,-0.332407464,1,0,0,0.7459,button_left,0.7459,1,,,,,,254,NW,UN,50,apight,VAROSH,z,,,,,,-0.398148134,-0.332407464,1,0,0,,0,164,164,433,1,
,,,,,,,,,,,,,,,,,,5edac97f977d9018109447a4,2020-08-10_13h04.39.018,lexical_decision_task_MP,2020.1.3,Linux armv7l,60,,0,0.45,-0.315740797,1,0,0,0.6164,button_right,0.6164,1,,,,,,93,WORD,"ID",33,public,PUBLIC,m,,,,,,0.45,-0.315740797,1,0,0,,0,165,165,32,1,
,,,,,,,,,,,,,,,,,,5edac97f977d9018109447a4,2020-08-10_13h04.39.018,lexical_decision_task_MP,2020.1.3,Linux armv7l,60,,0,-0.363888889,-0.313888889,1,0,0,0.7441,button_left,0.7441,1,,,,,,403,NW,"ID",50,bruats,BRUATS,z,,,,,,-0.363888889,-0.313888889,1,0,0,,0,166,166,342,1,
,,,,,,,,,,,,,,,,,,5edac97f977d9018109447a4,2020-08-10_13h04.39.018,lexical_decision_task_MP,2020.1.3,Linux armv7l,60,,0,-0.40370369,-0.332407464,1,0,0,0.8313,button_left,0.8313,1,,,,,,300,NW,UN,50,smenco,YARION,z,,,,,,-0.40370369,-0.332407464,1,0,0,,0,167,167,479,1,
,,,,,,,,,,,,,,,,,,5edac97f977d9018109447a4,2020-08-10_13h04.39.018,lexical_decision_task_MP,2020.1.3,Linux armv7l,60,,0,0.45648151,-0.314814843,1,0,0,0.7002,button_right,0.7002,1,,,,,,86,WORD,"ID",33,rodent,RODENT,m,,,,,,0.45648151,-0.314814843,1,0,0,,0,168,168,25,1,
,,,,,,,,,,,,,,,,,,5edac97f977d9018109447a4,2020-08-10_13h04.39.018,lexical_decision_task_MP,2020.1.3,Linux armv7l,60,,0,0.435185242,-0.332407464,1,0,0,0.9361,button_right,0.9361,1,,,,,,234,WORD,UN,33,poster,CLUMSY,m,,,,,,0.435185242,-0.332407464,1,0,0,,0,169,169,173,1,
,,,,,,,,,,,,,,,,,,5edac97f977d9018109447a4,2020-08-10_13h04.39.018,lexical_decision_task_MP,2020.1.3,Linux armv7l,60,,0,0.449074131,-0.323148176,1,0,0,0.6945,button_right,0.6945,1,,,,,,196,WORD,UN,33,stream,CREDIT,m,,,,,,0.449074131,-0.323148176,1,0,0,,0,170,170,135,1,
,,,,,,,,,,,,,,,,,,5edac97f977d9018109447a4,2020-08-10_13h04.39.018,lexical_decision_task_MP,2020.1.3,Linux armv7l,60,,0,-0.363888889,-0.320370399,1,0,0,0.69,button_left,0.69,1,,,,,,288,NW,UN,50,starby,YACEUP,z,,,,,,-0.363888889,-0.320370399,1,0,0,,0,171,171,467,1,
,,,,,,,,,,,,,,,,,,5edac97f977d9018109447a4,2020-08-10_13h04.39.018,lexical_decision_task_MP,2020.1.3,Linux armv7l,60,,0,0.443518575,-0.330555556,1,0,0,0.5879,button_right,0.5879,1,,,,,,123,WORD,"ID",50,strike,STRIKE,m,,,,,,0.443518575,-0.330555556,1,0,0,,0,172,172,62,1,
,,,,,,,,,,,,,,,,,,5edac97f977d9018109447a4,2020-08-10_13h04.39.018,lexical_decision_task_MP,2020.1.3,Linux armv7l,60,,0,0.434259288,-0.323148176,1,0,0,0.7623,button_right,0.7623,1,,,,,,19,WORD,UN,50,breast,PATRON,m,,,,,,0.434259288,-0.323148176,1,0,0,,0,173,173,198,1,
,,,,,,,,,,,,,,,,,,5edac97f977d9018109447a4,2020-08-10_13h04.39.018,lexical_decision_task_MP,2020.1.3,Linux armv7l,60,,0,-0.379629601,-0.315740797,1,0,0,0.7914,button_left,0.7914,1,,,,,,374,NW,"ID",50,sliant,SLIANT,z,,,,,,-0.379629601,-0.315740797,1,0,0,,0,174,174,313,1,
,,,,,,,,,,,,,,,,,,5edac97f977d9018109447a4,2020-08-10_13h04.39.018,lexical_decision_task_MP,2020.1.3,Linux armv7l,60,,0,0.433333333,-0.323148176,1,0,0,0.6134,button_right,0.6134,1,,,,,,98,WORD,"ID",33,belong,BELONG,m,,,,,,0.433333333,-0.323148176,1,0,0,,0,175,175,37,1,
,,,,,,,,,,,,,,,,,,5edac97f977d9018109447a4,2020-08-10_13h04.39.018,lexical_decision_task_MP,2020.1.3,Linux armv7l,60,,0,-0.377777778,-0.323148176,1,0,0,0.7043,button_left,0.7043,1,,,,,,346,NW,"ID",33,saudic,SAUDIC,z,,,,,,-0.377777778,-0.323148176,1,0,0,,0,176,176,285,1,
,,,,,,,,,,,,,,,,,,5edac97f977d9018109447a4,2020-08-10_13h04.39.018,lexical_decision_task_MP,2020.1.3,Linux armv7l,60,,0,0.458333333,-0.308333333,1,0,0,0.6886,button_right,0.6886,1,,,,,,89,WORD,"ID",33,permit,PERMIT,m,,,,,,0.458333333,-0.308333333,1,0,0,,0,177,177,28,1,
,,,,,,,,,,,,,,,,,,5edac97f977d9018109447a4,2020-08-10_13h04.39.018,lexical_decision_task_MP,2020.1.3,Linux armv7l,60,,0,-0.375,-0.319444444,1,0,0,0.8399,button_left,0.8399,0,,,,,,59,WORD,UN,50,pencil,SPLINT,m,,,,,,-0.375,-0.319444444,1,0,0,,0,178,178,238,1,
,,,,,,,,,,,,,,,,,,5edac97f977d9018109447a4,2020-08-10_13h04.39.018,lexical_decision_task_MP,2020.1.3,Linux armv7l,60,,0,0.460185242,-0.314814843,1,0,0,0.588,button_right,0.588,1,,,,,,151,WORD,"ID",50,mystic,MYSTIC,m,,,,,,0.460185242,-0.314814843,1,0,0,,0,179,179,90,1,
,,,,,,,,,,,,,,,,,,5edac97f977d9018109447a4,2020-08-10_13h04.39.018,lexical_decision_task_MP,2020.1.3,Linux armv7l,60,,0,-0.379629601,-0.325925954,1,0,0,0.8173,button_left,0.8173,1,,,,,,315,NW,"ID",33,laston,LASTON,z,,,,,,-0.379629601,-0.325925954,1,0,0,,0,180,180,254,1,
,,,,,,,,,,,,,,,,,,5edac97f977d9018109447a4,2020-08-10_13h04.39.018,lexical_decision_task_MP,2020.1.3,Linux armv7l,60,,0,0.448148176,-0.316666667,1,0,0,0.6023,button_right,0.6023,1,,,,,,15,WORD,UN,50,faucet,AMOUNT,m,,,,,,0.448148176,-0.316666667,1,0,0,,0,181,181,194,1,
,,,,,,,,,,,,,,,,,,5edac97f977d9018109447a4,2020-08-10_13h04.39.018,lexical_decision_task_MP,2020.1.3,Linux armv7l,60,,0,0.452777778,-0.321296353,1,0,0,0.7965,button_right,0.7965,0,,,,,,418,NW,"ID",50,suidle,SUIDLE,z,,,,,,0.452777778,-0.321296353,1,0,0,,0,182,182,357,1,
,,,,,,,,,,,,,,,,,,5edac97f977d9018109447a4,2020-08-10_13h04.39.018,lexical_decision_task_MP,2020.1.3,Linux armv7l,60,,0,0.442592621,-0.316666667,1,0,0,0.6742,button_right,0.6742,1,,,,,,208,WORD,UN,33,search,HOCKEY,m,,,,,,0.442592621,-0.316666667,1,0,0,,0,183,183,147,1,
,,,,,,,,,,,,,,,,,,5edac97f977d9018109447a4,2020-08-10_13h04.39.018,lexical_decision_task_MP,2020.1.3,Linux armv7l,60,,0,0.451851908,-0.314814843,1,0,0,0.6094,button_right,0.6094,1,,,,,,179,WORD,"ID",50,basket,BASKET,m,,,,,,0.451851908,-0.314814843,1,0,0,,0,184,184,118,1,
,,,,,,,,,,,,,,,,,,5edac97f977d9018109447a4,2020-08-10_13h04.39.018,lexical_decision_task_MP,2020.1.3,Linux armv7l,60,,0,-0.385185157,-0.333333333,1,0,0,0.7281,button_left,0.7281,1,,,,,,247,NW,UN,50,strole,BLARGE,z,,,,,,-0.385185157,-0.333333333,1,0,0,,0,185,185,426,1,
,,,,,,,,,,,,,,,,,,5edac97f977d9018109447a4,2020-08-10_13h04.39.018,lexical_decision_task_MP,2020.1.3,Linux armv7l,60,,0,0.444444444,-0.325,1,0,0,0.6434,button_right,0.6434,0,,,,,,395,NW,"ID",50,colury,COLURY,z,,,,,,0.444444444,-0.325,1,0,0,,0,186,186,334,1,
,,,,,,,,,,,,,,,,,,5edac97f977d9018109447a4,2020-08-10_13h04.39.018,lexical_decision_task_MP,2020.1.3,Linux armv7l,60,,0,-0.373148134,-0.332407464,1,0,0,0.815,button_left,0.815,1,,,,,,451,NW,UN,33,surden,CAINKY,z,,,,,,-0.373148134,-0.332407464,1,0,0,,0,187,187,390,1,
,,,,,,,,,,,,,,,,,,5edac97f977d9018109447a4,2020-08-10_13h04.39.018,lexical_decision_task_MP,2020.1.3,Linux armv7l,60,,0,-0.380555556,-0.325,1,0,0,0.7102,button_left,0.7102,1,,,,,,280,NW,UN,50,melaty,CURBOL,z,,,,,,-0.380555556,-0.325,1,0,0,,0,188,188,459,1,
,,,,,,,,,,,,,,,,,,5edac97f977d9018109447a4,2020-08-10_13h04.39.018,lexical_decision_task_MP,2020.1.3,Linux armv7l,60,,0,0.43148151,-0.332407464,1,0,0,0.8614,button_right,0.8614,1,,,,,,99,WORD,"ID",33,fluent,FLUENT,m,,,,,,0.43148151,-0.332407464,1,0,0,,0,189,189,38,1,
,,,,,,,,,,,,,,,,,,5edac97f977d9018109447a4,2020-08-10_13h04.39.018,lexical_decision_task_MP,2020.1.3,Linux armv7l,60,,0,0.407407464,-0.320370399,1,0,0,0.5919,button_right,0.5919,1,,,,,,238,WORD,UN,33,behalf,FLOWER,m,,,,,,0.407407464,-0.320370399,1,0,0,,0,190,190,177,1,
,,,,,,,,,,,,,,,,,,5edac97f977d9018109447a4,2020-08-10_13h04.39.018,lexical_decision_task_MP,2020.1.3,Linux armv7l,60,,0,-0.400925912,-0.330555556,1,0,0,0.7983,button_left,0.7983,1,,,,,,383,NW,"ID",50,aungre,AUNGRE,z,,,,,,-0.400925912,-0.330555556,1,0,0,,0,191,191,322,1,
,,,,,,,,,,,,,,,,,,5edac97f977d9018109447a4,2020-08-10_13h04.39.018,lexical_decision_task_MP,2020.1.3,Linux armv7l,60,,0,0.440740797,-0.308333333,1,0,0,1.4866,button_right,1.4866,0,,,,,,306,NW,"ID",33,sounge,SOUNGE,z,,,,,,0.440740797,-0.308333333,1,0,0,,0,192,192,245,1,
,,,,,,,,,,,,,,,,,,5edac97f977d9018109447a4,2020-08-10_13h04.39.018,lexical_decision_task_MP,2020.1.3,Linux armv7l,60,,0,0.462963019,-0.311111111,1,0,0,0.6999,button_right,0.6999,0,,,,,,343,NW,"ID",33,aimosy,AIMOSY,z,,,,,,0.462963019,-0.311111111,1,0,0,,0,193,193,282,1,
,,,,,,,,,,,,,,,,,,5edac97f977d9018109447a4,2020-08-10_13h04.39.018,lexical_decision_task_MP,2020.1.3,Linux armv7l,60,,0,0.453703732,-0.318518575,1,0,0,0.7121,button_right,0.7121,0,,,,,,266,NW,UN,50,pasink,VARMIT,z,,,,,,0.453703732,-0.318518575,1,0,0,,0,194,194,445,1,
,,,,,,,,,,,,,,,,,,5edac97f977d9018109447a4,2020-08-10_13h04.39.018,lexical_decision_task_MP,2020.1.3,Linux armv7l,60,,0,-0.377777778,-0.319444444,1,0,0,0.7498,button_left,0.7498,1,,,,,,457,NW,UN,33,barcet,WANIGH,z,,,,,,-0.377777778,-0.319444444,1,0,0,,0,195,195,396,1,
,,,,,,,,,,,,,,,,,,5edac97f977d9018109447a4,2020-08-10_13h04.39.018,lexical_decision_task_MP,2020.1.3,Linux armv7l,60,,0,-0.374074046,-0.320370399,1,0,0,0.8078,button_left,0.8078,1,,,,,,341,NW,"ID",33,myrtie,MYRTIE,z,,,,,,-0.374074046,-0.320370399,1,0,0,,0,196,196,280,1,
,,,,,,,,,,,,,,,,,,5edac97f977d9018109447a4,2020-08-10_13h04.39.018,lexical_decision_task_MP,2020.1.3,Linux armv7l,60,,0,0.455555556,-0.316666667,1,0,0,0.5991,button_right,0.5991,1,,,,,,231,WORD,UN,33,inject,EXPORT,m,,,,,,0.455555556,-0.316666667,1,0,0,,0,197,197,170,1,
,,,,,,,,,,,,,,,,,,5edac97f977d9018109447a4,2020-08-10_13h04.39.018,lexical_decision_task_MP,2020.1.3,Linux armv7l,60,,0,0.437037065,-0.318518575,1,0,0,0.8169,button_right,0.8169,1,,,,,,193,WORD,UN,33,mildew,OBJECT,m,,,,,,0.437037065,-0.318518575,1,0,0,,0,198,198,132,1,
,,,,,,,,,,,,,,,,,,5edac97f977d9018109447a4,2020-08-10_13h04.39.018,lexical_decision_task_MP,2020.1.3,Linux armv7l,60,,0,0.448148176,-0.317592621,1,0,0,1.0739,button_right,1.0739,1,,,,,,67,WORD,"ID",33,policy,POLICY,m,,,,,,0.448148176,-0.317592621,1,0,0,,0,199,199,6,1,
,,,,,,,,,,,,,,,,,,5edac97f977d9018109447a4,2020-08-10_13h04.39.018,lexical_decision_task_MP,2020.1.3,Linux armv7l,60,,0,-0.385185157,-0.324074131,1,0,0,0.7655,button_left,0.7655,1,,,,,,367,NW,"ID",50,slique,SLIQUE,z,,,,,,-0.385185157,-0.324074131,1,0,0,,0,200,200,306,1,
,,,,,,,,,,,,,,,,,,5edac97f977d9018109447a4,2020-08-10_13h04.39.018,lexical_decision_task_MP,2020.1.3,Linux armv7l,60,,0,0.444444444,-0.326851908,1,0,0,0.6534,button_right,0.6534,1,,,,,,9,WORD,UN,50,bridge,HUSTLE,m,,,,,,0.444444444,-0.326851908,1,0,0,,0,201,201,188,1,
,,,,,,,,,,,,,,,,,,5edac97f977d9018109447a4,2020-08-10_13h04.39.018,lexical_decision_task_MP,2020.1.3,Linux armv7l,60,,0,0.449074131,-0.321296353,1,0,0,0.6938,button_right,0.6938,1,,,,,,105,WORD,"ID",33,number,NUMBER,m,,,,,,0.449074131,-0.321296353,1,0,0,,0,202,202,44,1,
,,,,,,,,,,,,,,,,,,5edac97f977d9018109447a4,2020-08-10_13h04.39.018,lexical_decision_task_MP,2020.1.3,Linux armv7l,60,,0,0.448148176,-0.321296353,1,0,0,0.9689,button_right,0.9689,1,,,,,,218,WORD,UN,33,bucket,SHRINK,m,,,,,,0.448148176,-0.321296353,1,0,0,,0,203,203,157,1,
,,,,,,,,,,,,,,,,,,5edac97f977d9018109447a4,2020-08-10_13h04.39.018,lexical_decision_task_MP,2020.1.3,Linux armv7l,60,,0,-0.37870369,-0.318518575,1,0,0,0.7116,button_left,0.7116,1,,,,,,393,NW,"ID",50,ganous,GANOUS,z,,,,,,-0.37870369,-0.318518575,1,0,0,,0,204,204,332,1,
,,,,,,,,,,,,,,,,,,5edac97f977d9018109447a4,2020-08-10_13h04.39.018,lexical_decision_task_MP,2020.1.3,Linux armv7l,60,,0,-0.376851824,-0.329629686,1,0,0,0.8428,button_left,0.8428,1,,,,,,381,NW,"ID",50,huniek,HUNIEK,z,,,,,,-0.376851824,-0.329629686,1,0,0,,0,205,205,320,1,
,,,,,,,,,,,,,,,,,,5edac97f977d9018109447a4,2020-08-10_13h04.39.018,lexical_decision_task_MP,2020.1.3,Linux armv7l,60,,0,-0.381481467,-0.330555556,1,0,0,0.7967,button_left,0.7967,1,,,,,,438,NW,UN,33,limpor,BAITCH,z,,,,,,-0.381481467,-0.330555556,1,0,0,,0,206,206,377,1,
,,,,,,,,,,,,,,,,,,5edac97f977d9018109447a4,2020-08-10_13h04.39.018,lexical_decision_task_MP,2020.1.3,Linux armv7l,60,,0,0.402777778,-0.326851908,1,0,0,0.6369,button_right,0.6369,1,,,,,,195,WORD,UN,33,credit,RESIGN,m,,,,,,0.402777778,-0.326851908,1,0,0,,0,207,207,134,1,
,,,,,,,,,,,,,,,,,,5edac97f977d9018109447a4,2020-08-10_13h04.39.018,lexical_decision_task_MP,2020.1.3,Linux armv7l,60,,0,0.405555556,-0.328703732,1,0,0,0.769,button_right,0.769,1,,,,,,239,WORD,UN,33,forest,LUMBER,m,,,,,,0.405555556,-0.328703732,1,0,0,,0,208,208,178,1,
,,,,,,,,,,,,,,,,,,5edac97f977d9018109447a4,2020-08-10_13h04.39.018,lexical_decision_task_MP,2020.1.3,Linux armv7l,60,,0,0.429629686,-0.330555556,1,0,0,0.6108,button_right,0.6108,1,,,,,,203,WORD,UN,33,burden,PHRASE,m,,,,,,0.429629686,-0.330555556,1,0,0,,0,209,209,142,1,
,,,,,,,,,,,,,,,,,,5edac97f977d9018109447a4,2020-08-10_13h04.39.018,lexical_decision_task_MP,2020.1.3,Linux armv7l,60,,0,0.439814843,-0.324074131,1,0,0,0.6702,button_right,0.6702,0,,,,,,376,NW,"ID",50,iguare,IGUARE,z,,,,,,0.439814843,-0.324074131,1,0,0,,0,210,210,315,1,
,,,,,,,,,,,,,,,,,,5edac97f977d9018109447a4,2020-08-10_13h04.39.018,lexical_decision_task_MP,2020.1.3,Linux armv7l,60,,0,0.409259288,-0.324074131,1,0,0,0.6592,button_right,0.6592,0,,,,,,470,NW,UN,33,nobest,CRUDIO,z,,,,,,0.409259288,-0.324074131,1,0,0,,0,211,211,409,1,
,,,,,,,,,,,,,,,,,,5edac97f977d9018109447a4,2020-08-10_13h04.39.018,lexical_decision_task_MP,2020.1.3,Linux armv7l,60,,0,-0.374074046,-0.325,1,0,0,0.7153,button_left,0.7153,1,,,,,,413,NW,"ID",50,equats,EQUATS,z,,,,,,-0.374074046,-0.325,1,0,0,,0,212,212,352,1,
,,,,,,,,,,,,,,,,,,5edac97f977d9018109447a4,2020-08-10_13h04.39.018,lexical_decision_task_MP,2020.1.3,Linux armv7l,60,,0,0.429629686,-0.324074131,1,0,0,0.6195,button_right,0.6195,1,,,,,,232,WORD,UN,33,nature,INJECT,m,,,,,,0.429629686,-0.324074131,1,0,0,,0,213,213,171,1,
,,,,,,,,,,,,,,,,,,5edac97f977d9018109447a4,2020-08-10_13h04.39.018,lexical_decision_task_MP,2020.1.3,Linux armv7l,60,,0,0.438888889,-0.322222222,1,0,0,0.7059,button_right,0.7059,1,,,,,,73,WORD,"ID",33,source,SOURCE,m,,,,,,0.438888889,-0.322222222,1,0,0,,0,214,214,12,1,
,,,,,,,,,,,,,,,,,,5edac97f977d9018109447a4,2020-08-10_13h04.39.018,lexical_decision_task_MP,2020.1.3,Linux armv7l,60,,0,0.408333333,-0.312037065,1,0,0,0.6187,button_right,0.6187,1,,,,,,62,WORD,"ID",33,region,REGION,m,,,,,,0.408333333,-0.312037065,1,0,0,,0,215,215,1,1,
,,,,,,,,,,,,,,,,,,5edac97f977d9018109447a4,2020-08-10_13h04.39.018,lexical_decision_task_MP,2020.1.3,Linux armv7l,60,,0,-0.37870369,-0.324074131,1,0,0,0.7557,button_left,0.7557,1,,,,,,292,NW,UN,50,swance,ABLINT,z,,,,,,-0.37870369,-0.324074131,1,0,0,,0,216,216,471,1,
,,,,,,,,,,,,,,,,,,5edac97f977d9018109447a4,2020-08-10_13h04.39.018,lexical_decision_task_MP,2020.1.3,Linux armv7l,60,,0,-0.387037023,-0.332407464,1,0,0,0.8178,button_left,0.8178,1,,,,,,465,NW,UN,33,bafent,WHIVEX,z,,,,,,-0.387037023,-0.332407464,1,0,0,,0,217,217,404,1,
,,,,,,,,,,,,,,,,,,5edac97f977d9018109447a4,2020-08-10_13h04.39.018,lexical_decision_task_MP,2020.1.3,Linux armv7l,60,,0,0.435185242,-0.317592621,1,0,0,0.5428,button_right,0.5428,1,,,,,,143,WORD,"ID",50,reason,REASON,m,,,,,,0.435185242,-0.317592621,1,0,0,,0,218,218,82,1,
,,,,,,,,,,,,,,,,,,5edac97f977d9018109447a4,2020-08-10_13h04.39.018,lexical_decision_task_MP,2020.1.3,Linux armv7l,60,,0,0.410185242,-0.315740797,1,0,0,0.6458,button_right,0.6458,1,,,,,,214,WORD,UN,33,phobia,INTAKE,m,,,,,,0.410185242,-0.315740797,1,0,0,,0,219,219,153,1,
,,,,,,,,,,,,,,,,,,5edac97f977d9018109447a4,2020-08-10_13h04.39.018,lexical_decision_task_MP,2020.1.3,Linux armv7l,60,,0,0.412963019,-0.311111111,1,0,0,0.6297,button_right,0.6297,1,,,,,,172,WORD,"ID",50,patrol,PATROL,m,,,,,,0.412963019,-0.311111111,1,0,0,,0,220,220,111,1,
,,,,,,,,,,,,,,,,,,5edac97f977d9018109447a4,2020-08-10_13h04.39.018,lexical_decision_task_MP,2020.1.3,Linux armv7l,60,,0,0.43148151,-0.315740797,1,0,0,0.6042,button_right,0.6042,1,,,,,,165,WORD,"ID",50,invest,INVEST,m,,,,,,0.43148151,-0.315740797,1,0,0,,0,221,221,104,1,
,,,,,,,,,,,,,,,,,,5edac97f977d9018109447a4,2020-08-10_13h04.39.018,lexical_decision_task_MP,2020.1.3,Linux armv7l,60,,0,-0.376851824,-0.328703732,1,0,0,0.7483,button_left,0.7483,1,,,,,,419,NW,"ID",50,slount,SLOUNT,z,,,,,,-0.376851824,-0.328703732,1,0,0,,0,222,222,358,1,
,,,,,,,,,,,,,,,,,,5edac97f977d9018109447a4,2020-08-10_13h04.39.018,lexical_decision_task_MP,2020.1.3,Linux armv7l,60,,0,0.436111111,-0.322222222,1,0,0,0.729,button_right,0.729,0,,,,,,281,NW,UN,50,porlex,MELATY,z,,,,,,0.436111111,-0.322222222,1,0,0,,0,223,223,460,1,
,,,,,,,,,,,,,,,,,,5edac97f977d9018109447a4,2020-08-10_13h04.39.018,lexical_decision_task_MP,2020.1.3,Linux armv7l,60,,0,0.442592621,-0.314814843,1,0,0,0.606,button_right,0.606,0,,,,,,271,NW,UN,50,damilt,AUBRID,z,,,,,,0.442592621,-0.314814843,1,0,0,,0,224,224,450,1,
,,,,,,,,,,,,,,,,,,5edac97f977d9018109447a4,2020-08-10_13h04.39.018,lexical_decision_task_MP,2020.1.3,Linux armv7l,60,,0,-0.380555556,-0.310185242,1,0,0,0.701,button_left,0.701,1,,,,,,442,NW,UN,33,dorsex,ABOUNE,z,,,,,,-0.380555556,-0.310185242,1,0,0,,0,225,225,381,1,
,,,,,,,,,,,,,,,,,,5edac97f977d9018109447a4,2020-08-10_13h04.39.018,lexical_decision_task_MP,2020.1.3,Linux armv7l,60,,0,-0.37870369,-0.319444444,1,0,0,0.7172,button_left,0.7172,1,,,,,,405,NW,"ID",50,flumni,FLUMNI,z,,,,,,-0.37870369,-0.319444444,1,0,0,,0,226,226,344,1,
,,,,,,,,,,,,,,,,,,5edac97f977d9018109447a4,2020-08-10_13h04.39.018,lexical_decision_task_MP,2020.1.3,Linux armv7l,60,,0,0.43148151,-0.330555556,1,0,0,0.6206,button_right,0.6206,1,,,,,,199,WORD,UN,33,plague,INVOKE,m,,,,,,0.43148151,-0.330555556,1,0,0,,0,227,227,138,1,
,,,,,,,,,,,,,,,,,,5edac97f977d9018109447a4,2020-08-10_13h04.39.018,lexical_decision_task_MP,2020.1.3,Linux armv7l,60,,0,0.439814843,-0.322222222,1,0,0,0.6487,button_right,0.6487,1,,,,,,116,WORD,"ID",33,tumble,TUMBLE,m,,,,,,0.439814843,-0.322222222,1,0,0,,0,228,228,55,1,
,,,,,,,,,,,,,,,,,,5edac97f977d9018109447a4,2020-08-10_13h04.39.018,lexical_decision_task_MP,2020.1.3,Linux armv7l,60,,0,-0.373148134,-0.315740797,1,0,0,0.6467,button_left,0.6467,1,,,,,,401,NW,"ID",50,mustil,MUSTIL,z,,,,,,-0.373148134,-0.315740797,1,0,0,,0,229,229,340,1,
,,,,,,,,,,,,,,,,,,5edac97f977d9018109447a4,2020-08-10_13h04.39.018,lexical_decision_task_MP,2020.1.3,Linux armv7l,60,,0,-0.380555556,-0.328703732,1,0,0,0.7835,button_left,0.7835,1,,,,,,359,NW,"ID",33,fonver,FONVER,z,,,,,,-0.380555556,-0.328703732,1,0,0,,0,230,230,298,1,
,,,,,,,,,,,,,,,,,,5edac97f977d9018109447a4,2020-08-10_13h04.39.018,lexical_decision_task_MP,2020.1.3,Linux armv7l,60,,0,0.441666667,-0.325925954,1,0,0,0.6872,button_right,0.6872,1,,,,,,197,WORD,UN,33,wicked,STREAM,m,,,,,,0.441666667,-0.325925954,1,0,0,,0,231,231,136,1,
,,,,,,,,,,,,,,,,,,5edac97f977d9018109447a4,2020-08-10_13h04.39.018,lexical_decision_task_MP,2020.1.3,Linux armv7l,60,,0,-0.373148134,-0.318518575,1,0,0,0.8572,button_left,0.8572,1,,,,,,342,NW,"ID",33,randow,RANDOW,z,,,,,,-0.373148134,-0.318518575,1,0,0,,0,232,232,281,1,
,,,,,,,,,,,,,,,,,,5edac97f977d9018109447a4,2020-08-10_13h04.39.018,lexical_decision_task_MP,2020.1.3,Linux armv7l,60,,0,0.445370399,-0.316666667,1,0,0,0.6183,button_right,0.6183,1,,,,,,44,WORD,UN,50,clergy,DANGER,m,,,,,,0.445370399,-0.316666667,1,0,0,,0,233,233,223,1,
,,,,,,,,,,,,,,,,,,5edac97f977d9018109447a4,2020-08-10_13h04.39.018,lexical_decision_task_MP,2020.1.3,Linux armv7l,60,,0,0.433333333,-0.322222222,1,0,0,0.6267,button_right,0.6267,1,,,,,,12,WORD,UN,50,strive,ORANGE,m,,,,,,0.433333333,-0.322222222,1,0,0,,0,234,234,191,1,
,,,,,,,,,,,,,,,,,,5edac97f977d9018109447a4,2020-08-10_13h04.39.018,lexical_decision_task_MP,2020.1.3,Linux armv7l,60,,0,0.441666667,-0.310185242,1,0,0,0.6064,button_right,0.6064,1,,,,,,22,WORD,UN,50,wealth,JOCKEY,m,,,,,,0.441666667,-0.310185242,1,0,0,,0,235,235,201,1,
,,,,,,,,,,,,,,,,,,5edac97f977d9018109447a4,2020-08-10_13h04.39.018,lexical_decision_task_MP,2020.1.3,Linux armv7l,60,,0,0.448148176,-0.310185242,1,0,0,0.6104,button_right,0.6104,1,,,,,,140,WORD,"ID",50,prince,PRINCE,m,,,,,,0.448148176,-0.310185242,1,0,0,,0,236,236,79,1,
,,,,,,,,,,,,,,,,,,5edac97f977d9018109447a4,2020-08-10_13h04.39.018,lexical_decision_task_MP,2020.1.3,Linux armv7l,60,,0,0.438888889,-0.303703732,1,0,0,0.7152,button_right,0.7152,1,,,,,,216,WORD,UN,33,liquor,BEHALF,m,,,,,,0.438888889,-0.303703732,1,0,0,,0,237,237,155,1,
,,,,,,,,,,,,,,,,,,5edac97f977d9018109447a4,2020-08-10_13h04.39.018,lexical_decision_task_MP,2020.1.3,Linux armv7l,60,,0,-0.375,-0.299074131,1,0,0,0.9848,button_left,0.9848,1,,,,,,323,NW,"ID",33,rosail,ROSAIL,z,,,,,,-0.375,-0.299074131,1,0,0,,0,238,238,262,1,
,,,,,,,,,,,,,,,,,,5edac97f977d9018109447a4,2020-08-10_13h04.39.018,lexical_decision_task_MP,2020.1.3,Linux armv7l,60,,0,0.440740797,-0.311111111,1,0,0,0.5787,button_right,0.5787,0,,,,,,458,NW,UN,33,hocite,BARCET,z,,,,,,0.440740797,-0.311111111,1,0,0,,0,239,239,397,1,
,,,,,,,,,,,,,,,,,,5edac97f977d9018109447a4,2020-08-10_13h04.39.018,lexical_decision_task_MP,2020.1.3,Linux armv7l,60,,0,0.424074131,-0.313888889,1,0,0,0.7267,button_right,0.7267,0,,,,,,428,NW,UN,33,funtle,TANDLY,z,,,,,,0.424074131,-0.313888889,1,0,0,,0,240,240,367,1,
,,,,,,,,,,,,,,,,,,5edac97f977d9018109447a4,2020-08-10_13h04.39.018,lexical_decision_task_MP,2020.1.3,Linux armv7l,60,,0,0.438888889,-0.299074131,1,0,0,0.6384,button_right,0.6384,1,,,,,,17,WORD,UN,50,humble,CHARGE,m,,,,,,-0.087962935,-0.388888889,1,0,0,,0,241,241,196,1,break_done_button
,,,,,,,,,,,,,,,,,,5edac97f977d9018109447a4,2020-08-10_13h04.39.018,lexical_decision_task_MP,2020.1.3,Linux armv7l,60,,0,0.468518575,-0.300925954,1,0,0,0.6936,button_right,0.6936,0,,,,,,415,NW,"ID",50,higsta,HIGSTA,z,,,,,,0.468518575,-0.300925954,1,0,0,,0,242,242,354,1,
,,,,,,,,,,,,,,,,,,5edac97f977d9018109447a4,2020-08-10_13h04.39.018,lexical_decision_task_MP,2020.1.3,Linux armv7l,60,,0,0.462963019,-0.315740797,1,0,0,0.4764,button_right,0.4764,1,,,,,,110,WORD,"ID",33,polite,POLITE,m,,,,,,0.462963019,-0.315740797,1,0,0,,0,243,243,49,1,
,,,,,,,,,,,,,,,,,,5edac97f977d9018109447a4,2020-08-10_13h04.39.018,lexical_decision_task_MP,2020.1.3,Linux armv7l,60,,0,0.475925954,-0.311111111,1,0,0,0.6188,button_right,0.6188,1,,,,,,185,WORD,UN,33,portal,BOTHER,m,,,,,,0.475925954,-0.311111111,1,0,0,,0,244,244,124,1,
,,,,,,,,,,,,,,,,,,5edac97f977d9018109447a4,2020-08-10_13h04.39.018,lexical_decision_task_MP,2020.1.3,Linux armv7l,60,,0,0.453703732,-0.314814843,1,0,0,0.748,button_right,0.748,1,,,,,,183,WORD,UN,33,sleazy,MILDEW,m,,,,,,0.453703732,-0.314814843,1,0,0,,0,245,245,122,1,
,,,,,,,,,,,,,,,,,,5edac97f977d9018109447a4,2020-08-10_13h04.39.018,lexical_decision_task_MP,2020.1.3,Linux armv7l,60,,0,-0.366666667,-0.350925954,1,0,0,0.6344,button_left,0.6344,1,,,,,,389,NW,"ID",50,witmer,WITMER,z,,,,,,-0.366666667,-0.350925954,1,0,0,,0,246,246,328,1,
,,,,,,,,,,,,,,,,,,5edac97f977d9018109447a4,2020-08-10_13h04.39.018,lexical_decision_task_MP,2020.1.3,Linux armv7l,60,,0,0.448148176,-0.321296353,1,0,0,0.6524,button_right,0.6524,1,,,,,,63,WORD,"ID",33,launch,LAUNCH,m,,,,,,0.448148176,-0.321296353,1,0,0,,0,247,247,2,1,
,,,,,,,,,,,,,,,,,,5edac97f977d9018109447a4,2020-08-10_13h04.39.018,lexical_decision_task_MP,2020.1.3,Linux armv7l,60,,0,,,,,,,,0.6524,-1,,,,,,309,NW,"ID",33,amiloy,AMILOY,z,,,,,,-0.360185157,-0.312037065,1,0,0,,0,248,248,248,1,
,,,,,,,,,,,,,,,,,,5edac97f977d9018109447a4,2020-08-10_13h04.39.018,lexical_decision_task_MP,2020.1.3,Linux armv7l,60,,0,0.458333333,-0.311111111,1,0,0,0.5336,button_right,0.5336,1,,,,,,70,WORD,"ID",33,square,SQUARE,m,,,,,,0.458333333,-0.311111111,1,0,0,,0,249,249,9,1,
,,,,,,,,,,,,,,,,,,5edac97f977d9018109447a4,2020-08-10_13h04.39.018,lexical_decision_task_MP,2020.1.3,Linux armv7l,60,,0,-0.362962935,-0.304629686,1,0,0,0.8431,button_left,0.8431,1,,,,,,294,NW,UN,50,gleath,INHORT,z,,,,,,-0.362962935,-0.304629686,1,0,0,,0,250,250,473,1,
,,,,,,,,,,,,,,,,,,5edac97f977d9018109447a4,2020-08-10_13h04.39.018,lexical_decision_task_MP,2020.1.3,Linux armv7l,60,,0,0.435185242,-0.320370399,1,0,0,0.6005,button_right,0.6005,1,,,,,,206,WORD,UN,33,wreath,TAILOR,m,,,,,,0.435185242,-0.320370399,1,0,0,,0,251,251,145,1,
,,,,,,,,,,,,,,,,,,5edac97f977d9018109447a4,2020-08-10_13h04.39.018,lexical_decision_task_MP,2020.1.3,Linux armv7l,60,,0,-0.358333333,-0.322222222,1,0,0,0.7525,button_left,0.7525,1,,,,,,463,NW,UN,33,chaite,KISPEL,z,,,,,,-0.358333333,-0.322222222,1,0,0,,0,252,252,402,1,
,,,,,,,,,,,,,,,,,,5edac97f977d9018109447a4,2020-08-10_13h04.39.018,lexical_decision_task_MP,2020.1.3,Linux armv7l,60,,0,-0.379629601,-0.294444444,1,0,0,0.728,button_left,0.728,1,,,,,,466,NW,UN,33,robuly,HOCITE,z,,,,,,-0.379629601,-0.294444444,1,0,0,,0,253,253,405,1,
,,,,,,,,,,,,,,,,,,5edac97f977d9018109447a4,2020-08-10_13h04.39.018,lexical_decision_task_MP,2020.1.3,Linux armv7l,60,,0,-0.380555556,-0.355555556,1,0,0,0.7209,button_left,0.7209,1,,,,,,412,NW,"ID",50,jiluer,JILUER,z,,,,,,-0.380555556,-0.355555556,1,0,0,,0,254,254,351,1,
,,,,,,,,,,,,,,,,,,5edac97f977d9018109447a4,2020-08-10_13h04.39.018,lexical_decision_task_MP,2020.1.3,Linux armv7l,60,,0,,,,,,,,0.7209,-1,,,,,,35,WORD,UN,50,vanish,SOCKET,m,,,,,,0.430555556,-0.317592621,0,0,0,,0,255,255,214,1,
,,,,,,,,,,,,,,,,,,5edac97f977d9018109447a4,2020-08-10_13h04.39.018,lexical_decision_task_MP,2020.1.3,Linux armv7l,60,,0,-0.372222222,-0.325925954,1,0,0,0.8136,button_left,0.8136,1,,,,,,357,NW,"ID",33,derain,DERAIN,z,,,,,,-0.372222222,-0.325925954,1,0,0,,0,256,256,296,1,
,,,,,,,,,,,,,,,,,,5edac97f977d9018109447a4,2020-08-10_13h04.39.018,lexical_decision_task_MP,2020.1.3,Linux armv7l,60,,0,-0.365740712,-0.326851908,1,0,0,0.8384,button_left,0.8384,1,,,,,,264,NW,UN,50,distar,VACKEL,z,,,,,,-0.365740712,-0.326851908,1,0,0,,0,257,257,443,1,
,,,,,,,,,,,,,,,,,,5edac97f977d9018109447a4,2020-08-10_13h04.39.018,lexical_decision_task_MP,2020.1.3,Linux armv7l,60,,0,,,,,,,,0.8384,-1,,,,,,91,WORD,"ID",33,expand,EXPAND,m,,,,,,-0.365740712,-0.326851908,1,0,0,,0,258,258,30,1,
,,,,,,,,,,,,,,,,,,5edac97f977d9018109447a4,2020-08-10_13h04.39.018,lexical_decision_task_MP,2020.1.3,Linux armv7l,60,,0,-0.377777778,-0.28148151,1,0,0,0.8019,button_left,0.8019,1,,,,,,388,NW,"ID",50,cragin,CRAGIN,z,,,,,,-0.377777778,-0.28148151,1,0,0,,0,259,259,327,1,
,,,,,,,,,,,,,,,,,,5edac97f977d9018109447a4,2020-08-10_13h04.39.018,lexical_decision_task_MP,2020.1.3,Linux armv7l,60,,0,0.4,-0.290740797,1,0,0,0.5728,button_right,0.5728,1,,,,,,102,WORD,"ID",33,direct,DIRECT,m,,,,,,0.4,-0.290740797,1,0,0,,0,260,260,41,1,
,,,,,,,,,,,,,,,,,,5edac97f977d9018109447a4,2020-08-10_13h04.39.018,lexical_decision_task_MP,2020.1.3,Linux armv7l,60,,0,-0.377777778,-0.314814843,1,0,0,0.9566,button_left,0.9566,1,,,,,,471,NW,UN,33,cigney,NOBEST,z,,,,,,-0.377777778,-0.314814843,1,0,0,,0,261,261,410,1,
,,,,,,,,,,,,,,,,,,5edac97f977d9018109447a4,2020-08-10_13h04.39.018,lexical_decision_task_MP,2020.1.3,Linux armv7l,60,,0,0.384259288,-0.327777778,1,0,0,0.6523,button_right,0.6523,1,,,,,,30,WORD,UN,50,weapon,ORIENT,m,,,,,,0.384259288,-0.327777778,1,0,0,,0,262,262,209,1,
,,,,,,,,,,,,,,,,,,5edac97f977d9018109447a4,2020-08-10_13h04.39.018,lexical_decision_task_MP,2020.1.3,Linux armv7l,60,,0,0.391666667,-0.326851908,1,0,0,0.68,button_right,0.68,0,,,,,,377,NW,"ID",50,injore,INJORE,z,,,,,,0.391666667,-0.326851908,1,0,0,,0,263,263,316,1,
,,,,,,,,,,,,,,,,,,5edac97f977d9018109447a4,2020-08-10_13h04.39.018,lexical_decision_task_MP,2020.1.3,Linux armv7l,60,,0,0.395370399,-0.321296353,1,0,0,0.5952,button_right,0.5952,0,,,,,,461,NW,UN,33,absult,JUSTRE,z,,,,,,0.395370399,-0.321296353,1,0,0,,0,264,264,400,1,
,,,,,,,,,,,,,,,,,,5edac97f977d9018109447a4,2020-08-10_13h04.39.018,lexical_decision_task_MP,2020.1.3,Linux armv7l,60,,0,-0.35370369,-0.302777778,1,0,0,0.6976,button_left,0.6976,1,,,,,,302,NW,"ID",33,miluer,MILUER,z,,,,,,-0.35370369,-0.302777778,1,0,0,,0,265,265,241,1,
,,,,,,,,,,,,,,,,,,5edac97f977d9018109447a4,2020-08-10_13h04.39.018,lexical_decision_task_MP,2020.1.3,Linux armv7l,60,,0,0.452777778,-0.297222222,1,0,0,0.7819,button_right,0.7819,1,,,,,,111,WORD,"ID",33,induce,INDUCE,m,,,,,,0.452777778,-0.297222222,1,0,0,,0,266,266,50,1,
,,,,,,,,,,,,,,,,,,5edac97f977d9018109447a4,2020-08-10_13h04.39.018,lexical_decision_task_MP,2020.1.3,Linux armv7l,60,,0,-0.319444444,-0.311111111,1,0,0,0.6688,button_left,0.6688,0,,,,,,8,WORD,UN,50,hustle,ABRUPT,m,,,,,,-0.319444444,-0.311111111,1,0,0,,0,267,267,187,1,
,,,,,,,,,,,,,,,,,,5edac97f977d9018109447a4,2020-08-10_13h04.39.018,lexical_decision_task_MP,2020.1.3,Linux armv7l,60,,0,0.436111111,-0.319444444,1,0,0,0.5833,button_right,0.5833,1,,,,,,3,WORD,UN,50,trench,KNIGHT,m,,,,,,0.436111111,-0.319444444,1,0,0,,0,268,268,182,1,
,,,,,,,,,,,,,,,,,,5edac97f977d9018109447a4,2020-08-10_13h04.39.018,lexical_decision_task_MP,2020.1.3,Linux armv7l,60,,0,0.428703732,-0.325,1,0,0,0.6954,button_right,0.6954,1,,,,,,188,WORD,UN,33,censor,SOCIAL,m,,,,,,0.428703732,-0.325,1,0,0,,0,269,269,127,1,
,,,,,,,,,,,,,,,,,,5edac97f977d9018109447a4,2020-08-10_13h04.39.018,lexical_decision_task_MP,2020.1.3,Linux armv7l,60,,0,,,,,,,,0.6954,-1,,,,,,235,WORD,UN,33,pirate,GRUMPY,m,,,,,,0.425925954,-0.325,0,0,0,,0,270,270,174,1,
,,,,,,,,,,,,,,,,,,5edac97f977d9018109447a4,2020-08-10_13h04.39.018,lexical_decision_task_MP,2020.1.3,Linux armv7l,60,,0,0.40648151,-0.316666667,1,0,0,0.6902,button_right,0.6902,0,,,,,,459,NW,UN,33,mingar,BAFENT,z,,,,,,0.40648151,-0.316666667,1,0,0,,0,271,271,398,1,
,,,,,,,,,,,,,,,,,,5edac97f977d9018109447a4,2020-08-10_13h04.39.018,lexical_decision_task_MP,2020.1.3,Linux armv7l,60,,0,-0.333333333,-0.3,1,0,0,0.7363,button_left,0.7363,1,,,,,,399,NW,"ID",50,fouret,FOURET,z,,,,,,-0.333333333,-0.3,1,0,0,,0,272,272,338,1,
,,,,,,,,,,,,,,,,,,5edac97f977d9018109447a4,2020-08-10_13h04.39.018,lexical_decision_task_MP,2020.1.3,Linux armv7l,60,,0,-0.348148134,-0.314814843,1,0,0,0.8301,button_left,0.8301,1,,,,,,467,NW,UN,33,wictor,GORBIE,z,,,,,,-0.348148134,-0.314814843,1,0,0,,0,273,273,406,1,
,,,,,,,,,,,,,,,,,,5edac97f977d9018109447a4,2020-08-10_13h04.39.018,lexical_decision_task_MP,2020.1.3,Linux armv7l,60,,0,0.407407464,-0.329629686,1,0,0,0.7229,button_right,0.7229,1,,,,,,51,WORD,UN,50,impose,HUNGRY,m,,,,,,0.407407464,-0.329629686,1,0,0,,0,274,274,230,1,
,,,,,,,,,,,,,,,,,,5edac97f977d9018109447a4,2020-08-10_13h04.39.018,lexical_decision_task_MP,2020.1.3,Linux armv7l,60,,0,-0.339814801,-0.274074131,1,0,0,0.8256,button_left,0.8256,1,,,,,,297,NW,UN,50,piergy,FERTIC,z,,,,,,-0.339814801,-0.274074131,1,0,0,,0,275,275,476,1,
,,,,,,,,,,,,,,,,,,5edac97f977d9018109447a4,2020-08-10_13h04.39.018,lexical_decision_task_MP,2020.1.3,Linux armv7l,60,,0,0.388888889,-0.318518575,1,0,0,0.6017,button_right,0.6017,1,,,,,,161,WORD,"ID",50,pastor,PASTOR,m,,,,,,0.388888889,-0.318518575,1,0,0,,0,276,276,100,1,
,,,,,,,,,,,,,,,,,,5edac97f977d9018109447a4,2020-08-10_13h04.39.018,lexical_decision_task_MP,2020.1.3,Linux armv7l,60,,0,-0.34351849,-0.303703732,1,0,0,0.7233,button_left,0.7233,1,,,,,,436,NW,UN,33,snapel,FRUTAN,z,,,,,,-0.34351849,-0.303703732,1,0,0,,0,277,277,375,1,
,,,,,,,,,,,,,,,,,,5edac97f977d9018109447a4,2020-08-10_13h04.39.018,lexical_decision_task_MP,2020.1.3,Linux armv7l,60,,0,0.400925954,-0.321296353,1,0,0,0.5808,button_right,0.5808,1,,,,,,26,WORD,UN,50,butler,SPRINT,m,,,,,,0.400925954,-0.321296353,1,0,0,,0,278,278,205,1,
,,,,,,,,,,,,,,,,,,5edac97f977d9018109447a4,2020-08-10_13h04.39.018,lexical_decision_task_MP,2020.1.3,Linux armv7l,60,,0,-0.35370369,-0.328703732,1,0,0,0.672,button_left,0.672,1,,,,,,339,NW,"ID",33,fachow,FACHOW,z,,,,,,-0.35370369,-0.328703732,1,0,0,,0,279,279,278,1,
,,,,,,,,,,,,,,,,,,5edac97f977d9018109447a4,2020-08-10_13h04.39.018,lexical_decision_task_MP,2020.1.3,Linux armv7l,60,,0,-0.370370356,-0.320370399,1,0,0,0.8046,button_left,0.8046,0,,,,,,227,WORD,UN,33,master,SELDOM,m,,,,,,-0.370370356,-0.320370399,1,0,0,,0,280,280,166,1,
,,,,,,,,,,,,,,,,,,5edac97f977d9018109447a4,2020-08-10_13h04.39.018,lexical_decision_task_MP,2020.1.3,Linux armv7l,60,,0,-0.358333333,-0.320370399,1,0,0,1.7018,button_left,1.7018,1,,,,,,453,NW,UN,33,scouge,BOLVIS,z,,,,,,-0.358333333,-0.320370399,1,0,0,,0,281,281,392,1,
,,,,,,,,,,,,,,,,,,5edac97f977d9018109447a4,2020-08-10_13h04.39.018,lexical_decision_task_MP,2020.1.3,Linux armv7l,60,,0,-0.367592578,-0.328703732,1,0,0,0.9357,button_left,0.9357,1,,,,,,251,NW,UN,50,stapod,LUPICT,z,,,,,,-0.367592578,-0.328703732,1,0,0,,0,282,282,430,1,
,,,,,,,,,,,,,,,,,,5edac97f977d9018109447a4,2020-08-10_13h04.39.018,lexical_decision_task_MP,2020.1.3,Linux armv7l,60,,0,-0.355555556,-0.324074131,1,0,0,0.7931,button_left,0.7931,1,,,,,,305,NW,"ID",33,forgle,FORGLE,z,,,,,,-0.355555556,-0.324074131,1,0,0,,0,283,283,244,1,
,,,,,,,,,,,,,,,,,,5edac97f977d9018109447a4,2020-08-10_13h04.39.018,lexical_decision_task_MP,2020.1.3,Linux armv7l,60,,0,-0.355555556,-0.307407464,1,0,0,0.7099,button_left,0.7099,1,,,,,,391,NW,"ID",50,theldy,THELDY,z,,,,,,-0.355555556,-0.307407464,1,0,0,,0,284,284,330,1,
,,,,,,,,,,,,,,,,,,5edac97f977d9018109447a4,2020-08-10_13h04.39.018,lexical_decision_task_MP,2020.1.3,Linux armv7l,60,,0,-0.356481467,-0.322222222,1,0,0,0.7271,button_left,0.7271,1,,,,,,303,NW,"ID",33,fiream,FIREAM,z,,,,,,-0.356481467,-0.322222222,1,0,0,,0,285,285,242,1,
,,,,,,,,,,,,,,,,,,5edac97f977d9018109447a4,2020-08-10_13h04.39.018,lexical_decision_task_MP,2020.1.3,Linux armv7l,60,,0,-0.35,-0.313888889,1,0,0,0.7086,button_left,0.7086,1,,,,,,324,NW,"ID",33,steikh,STEIKH,z,,,,,,-0.35,-0.313888889,1,0,0,,0,286,286,263,1,
,,,,,,,,,,,,,,,,,,5edac97f977d9018109447a4,2020-08-10_13h04.39.018,lexical_decision_task_MP,2020.1.3,Linux armv7l,60,,0,-0.355555556,-0.318518575,1,0,0,1.1855,button_left,1.1855,0,,,,,,48,WORD,UN,50,survey,WALNUT,m,,,,,,-0.355555556,-0.318518575,1,0,0,,0,287,287,227,1,
,,,,,,,,,,,,,,,,,,5edac97f977d9018109447a4,2020-08-10_13h04.39.018,lexical_decision_task_MP,2020.1.3,Linux armv7l,60,,0,0.387963019,-0.325925954,1,0,0,0.9239,button_right,0.9239,1,,,,,,141,WORD,"ID",50,orphan,ORPHAN,m,,,,,,0.387963019,-0.325925954,1,0,0,,0,288,288,80,1,
,,,,,,,,,,,,,,,,,,5edac97f977d9018109447a4,2020-08-10_13h04.39.018,lexical_decision_task_MP,2020.1.3,Linux armv7l,60,,0,-0.34351849,-0.310185242,1,0,0,0.7282,button_left,0.7282,1,,,,,,338,NW,"ID",33,wreash,WREASH,z,,,,,,-0.34351849,-0.310185242,1,0,0,,0,289,289,277,1,
,,,,,,,,,,,,,,,,,,5edac97f977d9018109447a4,2020-08-10_13h04.39.018,lexical_decision_task_MP,2020.1.3,Linux armv7l,60,,0,-0.348148134,-0.317592621,1,0,0,1.8455,button_left,1.8455,1,,,,,,293,NW,UN,50,inhort,SWANCE,z,,,,,,-0.348148134,-0.317592621,1,0,0,,0,290,290,472,1,
,,,,,,,,,,,,,,,,,,5edac97f977d9018109447a4,2020-08-10_13h04.39.018,lexical_decision_task_MP,2020.1.3,Linux armv7l,60,,0,,,,,,,,1.8455,-1,,,,,,336,NW,"ID",33,ghodus,GHODUS,z,,,,,,-0.32870369,-0.325,0,0,0,,0,291,291,275,1,
,,,,,,,,,,,,,,,,,,5edac97f977d9018109447a4,2020-08-10_13h04.39.018,lexical_decision_task_MP,2020.1.3,Linux armv7l,60,,0,-0.354629601,-0.315740797,1,0,0,0.743,button_left,0.743,1,,,,,,477,NW,UN,33,lobush,PHOTIE,z,,,,,,-0.354629601,-0.315740797,1,0,0,,0,292,292,416,1,
,,,,,,,,,,,,,,,,,,5edac97f977d9018109447a4,2020-08-10_13h04.39.018,lexical_decision_task_MP,2020.1.3,Linux armv7l,60,,0,-0.338888889,-0.3,1,0,0,0.673,button_left,0.673,1,,,,,,402,NW,"ID",50,syntic,SYNTIC,z,,,,,,-0.338888889,-0.3,1,0,0,,0,293,293,341,1,
,,,,,,,,,,,,,,,,,,5edac97f977d9018109447a4,2020-08-10_13h04.39.018,lexical_decision_task_MP,2020.1.3,Linux armv7l,60,,0,-0.349074046,-0.293518575,1,0,0,1.0951,button_left,1.0951,1,,,,,,312,NW,"ID",33,nerawl,NERAWL,z,,,,,,-0.349074046,-0.293518575,1,0,0,,0,294,294,251,1,
,,,,,,,,,,,,,,,,,,5edac97f977d9018109447a4,2020-08-10_13h04.39.018,lexical_decision_task_MP,2020.1.3,Linux armv7l,60,,0,0.430555556,-0.321296353,1,0,0,0.6825,button_right,0.6825,1,,,,,,42,WORD,UN,50,tongue,CHAPEL,m,,,,,,0.430555556,-0.321296353,1,0,0,,0,295,295,221,1,
,,,,,,,,,,,,,,,,,,5edac97f977d9018109447a4,2020-08-10_13h04.39.018,lexical_decision_task_MP,2020.1.3,Linux armv7l,60,,0,-0.346296268,-0.323148176,1,0,0,1.24,button_left,1.24,1,,,,,,404,NW,"ID",50,cluirm,CLUIRM,z,,,,,,-0.346296268,-0.323148176,1,0,0,,0,296,296,343,1,
,,,,,,,,,,,,,,,,,,5edac97f977d9018109447a4,2020-08-10_13h04.39.018,lexical_decision_task_MP,2020.1.3,Linux armv7l,60,,0,,,,,,,,1.24,-1,,,,,,394,NW,"ID",50,spaqux,SPAQUX,z,,,,,,-0.337962935,-0.309259288,0,0,0,,0,297,297,333,1,
,,,,,,,,,,,,,,,,,,5edac97f977d9018109447a4,2020-08-10_13h04.39.018,lexical_decision_task_MP,2020.1.3,Linux armv7l,60,,0,0.391666667,-0.279629686,1,0,0,0.6839,button_right,0.6839,1,,,,,,88,WORD,"ID",33,hunger,HUNGER,m,,,,,,0.391666667,-0.279629686,1,0,0,,0,298,298,27,1,
,,,,,,,,,,,,,,,,,,5edac97f977d9018109447a4,2020-08-10_13h04.39.018,lexical_decision_task_MP,2020.1.3,Linux armv7l,60,,0,0.390740797,-0.314814843,1,0,0,0.7835,button_right,0.7835,1,,,,,,101,WORD,"ID",33,wrench,WRENCH,m,,,,,,0.390740797,-0.314814843,1,0,0,,0,299,299,40,1,
,,,,,,,,,,,,,,,,,,5edac97f977d9018109447a4,2020-08-10_13h04.39.018,lexical_decision_task_MP,2020.1.3,Linux armv7l,60,,0,-0.35,-0.314814843,1,0,0,0.759,button_left,0.759,1,,,,,,435,NW,UN,33,frutan,IMPURB,z,,,,,,-0.35,-0.314814843,1,0,0,,0,300,300,374,1,
,,,,,,,,,,,,,,,,,,5edac97f977d9018109447a4,2020-08-10_13h04.39.018,lexical_decision_task_MP,2020.1.3,Linux armv7l,60,,0,-0.32870369,-0.311111111,1,0,0,0.8074,button_left,0.8074,1,,,,,,253,NW,UN,50,varosh,RESAIT,z,,,,,,-0.32870369,-0.311111111,1,0,0,,0,301,301,432,1,
,,,,,,,,,,,,,,,,,,5edac97f977d9018109447a4,2020-08-10_13h04.39.018,lexical_decision_task_MP,2020.1.3,Linux armv7l,60,,0,,,,,,,,0.8074,-1,,,,,,304,NW,"ID",33,cludie,CLUDIE,z,,,,,,0.387963019,-0.309259288,0,0,0,,0,302,302,243,1,
,,,,,,,,,,,,,,,,,,5edac97f977d9018109447a4,2020-08-10_13h04.39.018,lexical_decision_task_MP,2020.1.3,Linux armv7l,60,,0,0.373148176,-0.319444444,1,0,0,0.6832,button_right,0.6832,1,,,,,,74,WORD,"ID",33,plaque,PLAQUE,m,,,,,,0.373148176,-0.319444444,1,0,0,,0,303,303,13,1,
,,,,,,,,,,,,,,,,,,5edac97f977d9018109447a4,2020-08-10_13h04.39.018,lexical_decision_task_MP,2020.1.3,Linux armv7l,60,,0,-0.334259245,-0.292592621,1,0,0,0.7554,button_left,0.7554,1,,,,,,316,NW,"ID",33,scregm,SCREGM,z,,,,,,-0.334259245,-0.292592621,1,0,0,,0,304,304,255,1,
,,,,,,,,,,,,,,,,,,5edac97f977d9018109447a4,2020-08-10_13h04.39.018,lexical_decision_task_MP,2020.1.3,Linux armv7l,60,,0,0.387963019,-0.325,1,0,0,0.7595,button_right,0.7595,1,,,,,,177,WORD,"ID",50,advent,ADVENT,m,,,,,,0.387963019,-0.325,1,0,0,,0,305,305,116,1,
,,,,,,,,,,,,,,,,,,5edac97f977d9018109447a4,2020-08-10_13h04.39.018,lexical_decision_task_MP,2020.1.3,Linux armv7l,60,,0,-0.346296268,-0.305555556,1,0,0,0.8229,button_left,0.8229,1,,,,,,476,NW,UN,33,photie,JOSTED,z,,,,,,-0.346296268,-0.305555556,1,0,0,,0,306,306,415,1,
,,,,,,,,,,,,,,,,,,5edac97f977d9018109447a4,2020-08-10_13h04.39.018,lexical_decision_task_MP,2020.1.3,Linux armv7l,60,,0,,,,,,,,0.8229,-1,,,,,,1,WORD,UN,50,ethnic,FRIGHT,m,,,,,,-0.346296268,-0.305555556,0,0,0,,0,307,307,180,1,
,,,,,,,,,,,,,,,,,,5edac97f977d9018109447a4,2020-08-10_13h04.39.018,lexical_decision_task_MP,2020.1.3,Linux armv7l,60,,0,,,,,,,,0.8229,-1,,,,,,262,NW,UN,50,dolica,QUILEW,z,,,,,,-0.346296268,-0.305555556,0,0,0,,0,308,308,441,1,
,,,,,,,,,,,,,,,,,,5edac97f977d9018109447a4,2020-08-10_13h04.39.018,lexical_decision_task_MP,2020.1.3,Linux armv7l,60,,0,,,,,,,,0.8229,-1,,,,,,240,WORD,UN,33,seldom,FOREST,m,,,,,,-0.346296268,-0.305555556,0,0,0,,0,309,309,179,1,
,,,,,,,,,,,,,,,,,,5edac97f977d9018109447a4,2020-08-10_13h04.39.018,lexical_decision_task_MP,2020.1.3,Linux armv7l,60,,0,,,,,,,,0.8229,-1,,,,,,429,NW,UN,33,caroey,FUNTLE,z,,,,,,-0.346296268,-0.305555556,0,0,0,,0,310,310,368,1,
,,,,,,,,,,,,,,,,,,5edac97f977d9018109447a4,2020-08-10_13h04.39.018,lexical_decision_task_MP,2020.1.3,Linux armv7l,60,,0,,,,,,,,0.8229,-1,,,,,,128,WORD,"ID",50,senior,SENIOR,m,,,,,,-0.346296268,-0.305555556,0,0,0,,0,311,311,67,1,
,,,,,,,,,,,,,,,,,,5edac97f977d9018109447a4,2020-08-10_13h04.39.018,lexical_decision_task_MP,2020.1.3,Linux armv7l,60,,0,,,,,,,,0.8229,-1,,,,,,427,NW,UN,33,tandly,SCHIND,z,,,,,,0.390740797,-0.318518575,1,0,0,,0,312,312,366,1,
,,,,,,,,,,,,,,,,,,5edac97f977d9018109447a4,2020-08-10_13h04.39.018,lexical_decision_task_MP,2020.1.3,Linux armv7l,60,,0,,,,,,,,0.8229,-1,,,,,,446,NW,UN,33,gircue,RUNAMO,z,,,,,,-0.337037023,-0.287037065,0,0,0,,0,313,313,385,1,
,,,,,,,,,,,,,,,,,,5edac97f977d9018109447a4,2020-08-10_13h04.39.018,lexical_decision_task_MP,2020.1.3,Linux armv7l,60,,0,,,,,,,,0.8229,-1,,,,,,178,WORD,"ID",50,inform,INFORM,m,,,,,,-0.337037023,-0.287037065,0,0,0,,0,314,314,117,1,
,,,,,,,,,,,,,,,,,,5edac97f977d9018109447a4,2020-08-10_13h04.39.018,lexical_decision_task_MP,2020.1.3,Linux armv7l,60,,0,,,,,,,,0.8229,-1,,,,,,348,NW,"ID",33,dumple,DUMPLE,z,,,,,,-0.337037023,-0.287037065,0,0,0,,0,315,315,287,1,
,,,,,,,,,,,,,,,,,,5edac97f977d9018109447a4,2020-08-10_13h04.39.018,lexical_decision_task_MP,2020.1.3,Linux armv7l,60,,0,,,,,,,,0.8229,-1,,,,,,445,NW,UN,33,runamo,MINKEL,z,,,,,,-0.337037023,-0.287037065,0,0,0,,0,316,316,384,1,
,,,,,,,,,,,,,,,,,,5edac97f977d9018109447a4,2020-08-10_13h04.39.018,lexical_decision_task_MP,2020.1.3,Linux armv7l,60,,0,0.378703732,-0.308333333,1,0,0,1.5312,button_right,1.5312,1,,,,,,152,WORD,"ID",50,rocket,ROCKET,m,,,,,,0.378703732,-0.308333333,1,0,0,,0,317,317,91,1,
,,,,,,,,,,,,,,,,,,5edac97f977d9018109447a4,2020-08-10_13h04.39.018,lexical_decision_task_MP,2020.1.3,Linux armv7l,60,,0,,,,,,,,1.5312,-1,,,,,,241,NW,UN,50,unwert,SMENCO,z,,,,,,-0.362037023,-0.302777778,0,0,0,,0,318,318,420,1,
,,,,,,,,,,,,,,,,,,5edac97f977d9018109447a4,2020-08-10_13h04.39.018,lexical_decision_task_MP,2020.1.3,Linux armv7l,60,,0,0.380555556,-0.323148176,1,0,0,0.1258,button_right,0.1258,1,,,,,,230,WORD,UN,33,mother,FRINGE,m,,,,,,0.380555556,-0.323148176,1,0,0,,0,319,319,169,1,
,,,,,,,,,,,,,,,,,,5edac97f977d9018109447a4,2020-08-10_13h04.39.018,lexical_decision_task_MP,2020.1.3,Linux armv7l,60,,0,0.383333333,-0.33148151,1,0,0,0.6588,button_right,0.6588,1,,,,,,164,WORD,"ID",50,market,MARKET,m,,,,,,0.383333333,-0.33148151,1,0,0,,0,320,320,103,1,
,,,,,,,,,,,,,,,,,,5edac97f977d9018109447a4,2020-08-10_13h04.39.018,lexical_decision_task_MP,2020.1.3,Linux armv7l,60,,0,-0.388888889,-0.296296353,1,0,0,0.714,button_left,0.714,1,,,,,,361,NW,"ID",50,pauche,PAUCHE,z,,,,,,-0.388888889,-0.296296353,1,0,0,,0,321,321,300,1,
,,,,,,,,,,,,,,,,,,5edac97f977d9018109447a4,2020-08-10_13h04.39.018,lexical_decision_task_MP,2020.1.3,Linux armv7l,60,,0,-0.355555556,-0.339814843,1,0,0,0.8191,button_left,0.8191,1,,,,,,322,NW,"ID",33,slanch,SLANCH,z,,,,,,-0.355555556,-0.339814843,1,0,0,,0,322,322,261,1,
,,,,,,,,,,,,,,,,,,5edac97f977d9018109447a4,2020-08-10_13h04.39.018,lexical_decision_task_MP,2020.1.3,Linux armv7l,60,,0,0.390740797,-0.329629686,1,0,0,0.6433,button_right,0.6433,1,,,,,,121,WORD,"ID",50,thrive,THRIVE,m,,,,,,0.390740797,-0.329629686,1,0,0,,0,323,323,60,1,
,,,,,,,,,,,,,,,,,,5edac97f977d9018109447a4,2020-08-10_13h04.39.018,lexical_decision_task_MP,2020.1.3,Linux armv7l,60,,0,-0.375925912,-0.326851908,1,0,0,0.6898,button_left,0.6898,1,,,,,,430,NW,UN,33,chrums,CAROEY,z,,,,,,-0.375925912,-0.326851908,1,0,0,,0,324,324,369,1,
,,,,,,,,,,,,,,,,,,5edac97f977d9018109447a4,2020-08-10_13h04.39.018,lexical_decision_task_MP,2020.1.3,Linux armv7l,60,,0,,,,,,,,0.6898,-1,,,,,,434,NW,UN,33,impurb,PITROM,z,,,,,,-0.375925912,-0.326851908,0,0,0,,0,325,325,373,1,
,,,,,,,,,,,,,,,,,,5edac97f977d9018109447a4,2020-08-10_13h04.39.018,lexical_decision_task_MP,2020.1.3,Linux armv7l,60,,0,,,,,,,,0.6898,-1,,,,,,360,NW,"ID",33,desory,DESORY,z,,,,,,-0.375925912,-0.326851908,0,0,0,,0,326,326,299,1,
,,,,,,,,,,,,,,,,,,5edac97f977d9018109447a4,2020-08-10_13h04.39.018,lexical_decision_task_MP,2020.1.3,Linux armv7l,60,,0,-0.349074046,-0.30648151,1,0,0,1.4304,button_left,1.4304,0,,,,,,145,WORD,"ID",50,parish,PARISH,m,,,,,,-0.349074046,-0.30648151,1,0,0,,0,327,327,84,1,
,,,,,,,,,,,,,,,,,,5edac97f977d9018109447a4,2020-08-10_13h04.39.018,lexical_decision_task_MP,2020.1.3,Linux armv7l,60,,0,,,,,,,,1.4304,-1,,,,,,23,WORD,UN,50,praise,WEALTH,m,,,,,,0.459325427,-0.354166667,0,0,0,,0,328,328,202,1,
,,,,,,,,,,,,,,,,,,5edac97f977d9018109447a4,2020-08-10_13h04.39.018,lexical_decision_task_MP,2020.1.3,Linux armv7l,60,,0,-0.386904762,-0.316468284,1,0,0,0.8038,button_left,0.8038,1,,,,,,286,NW,UN,50,nymbel,RELDON,z,,,,,,-0.386904762,-0.316468284,1,0,0,,0,329,329,465,1,
,,,,,,,,,,,,,,,,,,5edac97f977d9018109447a4,2020-08-10_13h04.39.018,lexical_decision_task_MP,2020.1.3,Linux armv7l,60,,0,-0.382936478,-0.324404762,1,0,0,0.6067,button_left,0.6067,1,,,,,,307,NW,"ID",33,kirafe,KIRAFE,z,,,,,,-0.382936478,-0.324404762,1,0,0,,0,330,330,246,1,
,,,,,,,,,,,,,,,,,,5edac97f977d9018109447a4,2020-08-10_13h04.39.018,lexical_decision_task_MP,2020.1.3,Linux armv7l,60,,0,-0.391865049,-0.316468284,1,0,0,1.4068,button_left,1.4068,1,,,,,,443,NW,UN,33,jaunce,DORSEX,z,,,,,,-0.391865049,-0.316468284,1,0,0,,0,331,331,382,1,
,,,,,,,,,,,,,,,,,,5edac97f977d9018109447a4,2020-08-10_13h04.39.018,lexical_decision_task_MP,2020.1.3,Linux armv7l,60,,0,0.43452381,-0.339285714,1,0,0,0.4853,button_right,0.4853,1,,,,,,159,WORD,"ID",50,detail,DETAIL,m,,,,,,0.43452381,-0.339285714,1,0,0,,0,332,332,98,1,
,,,,,,,,,,,,,,,,,,5edac97f977d9018109447a4,2020-08-10_13h04.39.018,lexical_decision_task_MP,2020.1.3,Linux armv7l,60,,0,0.420634951,-0.342261905,1,0,0,0.6912,button_right,0.6912,1,,,,,,157,WORD,"ID",50,dragon,DRAGON,m,,,,,,0.420634951,-0.342261905,1,0,0,,0,333,333,96,1,
,,,,,,,,,,,,,,,,,,5edac97f977d9018109447a4,2020-08-10_13h04.39.018,lexical_decision_task_MP,2020.1.3,Linux armv7l,60,,0,0.418650854,-0.32936514,1,0,0,0.6797,button_right,0.6797,1,,,,,,233,WORD,UN,33,clumsy,NATURE,m,,,,,,0.418650854,-0.32936514,1,0,0,,0,334,334,172,1,
,,,,,,,,,,,,,,,,,,5edac97f977d9018109447a4,2020-08-10_13h04.39.018,lexical_decision_task_MP,2020.1.3,Linux armv7l,60,,0,-0.385912668,-0.31547619,1,0,0,0.8218,button_left,0.8218,0,,,,,,220,WORD,UN,33,mascot,VOYAGE,m,,,,,,-0.385912668,-0.31547619,1,0,0,,0,335,335,159,1,
,,,,,,,,,,,,,,,,,,5edac97f977d9018109447a4,2020-08-10_13h04.39.018,lexical_decision_task_MP,2020.1.3,Linux armv7l,60,,0,0.409722283,-0.314484188,1,0,0,0.5461,button_right,0.5461,1,,,,,,135,WORD,"ID",50,import,IMPORT,m,,,,,,0.409722283,-0.314484188,1,0,0,,0,336,336,74,1,
,,,,,,,,,,,,,,,,,,5edac97f977d9018109447a4,2020-08-10_13h04.39.018,lexical_decision_task_MP,2020.1.3,Linux armv7l,60,,0,0.407738095,-0.328373046,1,0,0,0.6492,button_right,0.6492,0,,,,,,345,NW,"ID",33,absend,ABSEND,z,,,,,,0.407738095,-0.328373046,1,0,0,,0,337,337,284,1,
,,,,,,,,,,,,,,,,,,5edac97f977d9018109447a4,2020-08-10_13h04.39.018,lexical_decision_task_MP,2020.1.3,Linux armv7l,60,,0,0.409722283,-0.328373046,1,0,0,0.5718,button_right,0.5718,1,,,,,,69,WORD,"ID",33,plenty,PLENTY,m,,,,,,0.409722283,-0.328373046,1,0,0,,0,338,338,8,1,
,,,,,,,,,,,,,,,,,,5edac97f977d9018109447a4,2020-08-10_13h04.39.018,lexical_decision_task_MP,2020.1.3,Linux armv7l,60,,0,0.418650854,-0.339285714,1,0,0,0.3055,button_right,0.3055,0,,,,,,296,NW,UN,50,fertic,BEINCH,z,,,,,,0.418650854,-0.339285714,1,0,0,,0,339,339,475,1,
,,,,,,,,,,,,,,,,,,5edac97f977d9018109447a4,2020-08-10_13h04.39.018,lexical_decision_task_MP,2020.1.3,Linux armv7l,60,,0,-0.416666667,-0.365079426,1,0,0,0.7388,button_left,0.7388,1,,,,,,392,NW,"ID",50,rouncy,ROUNCY,z,,,,,,-0.416666667,-0.365079426,1,0,0,,0,340,340,331,1,
,,,,,,,,,,,,,,,,,,5edac97f977d9018109447a4,2020-08-10_13h04.39.018,lexical_decision_task_MP,2020.1.3,Linux armv7l,60,,0,-0.402777763,-0.344246092,1,0,0,0.6694,button_left,0.6694,1,,,,,,444,NW,UN,33,minkel,JAUNCE,z,,,,,,-0.402777763,-0.344246092,1,0,0,,0,341,341,383,1,
,,,,,,,,,,,,,,,,,,5edac97f977d9018109447a4,2020-08-10_13h04.39.018,lexical_decision_task_MP,2020.1.3,Linux armv7l,60,,0,-0.404761905,-0.337301618,1,0,0,0.6466,button_left,0.6466,0,,,,,,82,WORD,"ID",33,stigma,STIGMA,m,,,,,,-0.404761905,-0.337301618,1,0,0,,0,342,342,21,1,
,,,,,,,,,,,,,,,,,,5edac97f977d9018109447a4,2020-08-10_13h04.39.018,lexical_decision_task_MP,2020.1.3,Linux armv7l,60,,0,0.408730189,-0.339285714,1,0,0,0.6201,button_right,0.6201,1,,,,,,14,WORD,UN,50,orange,ALMOST,m,,,,,,0.408730189,-0.339285714,1,0,0,,0,343,343,193,1,
,,,,,,,,,,,,,,,,,,5edac97f977d9018109447a4,2020-08-10_13h04.39.018,lexical_decision_task_MP,2020.1.3,Linux armv7l,60,,0,0.407738095,-0.33234133,1,0,0,1.0913,button_right,1.0913,1,,,,,,4,WORD,UN,50,plunge,TRENCH,m,,,,,,0.407738095,-0.33234133,1,0,0,,0,344,344,183,1,
,,,,,,,,,,,,,,,,,,5edac97f977d9018109447a4,2020-08-10_13h04.39.018,lexical_decision_task_MP,2020.1.3,Linux armv7l,60,,0,-0.430555525,-0.325396856,1,0,0,0.7437,button_left,0.7437,1,,,,,,472,NW,UN,33,gorbie,CIGNEY,z,,,,,,-0.430555525,-0.325396856,1,0,0,,0,345,345,411,1,
,,,,,,,,,,,,,,,,,,5edac97f977d9018109447a4,2020-08-10_13h04.39.018,lexical_decision_task_MP,2020.1.3,Linux armv7l,60,,0,0.420634951,-0.322420665,1,0,0,0.7444,button_right,0.7444,1,,,,,,40,WORD,UN,50,spring,CONVEY,m,,,,,,0.420634951,-0.322420665,1,0,0,,0,346,346,219,1,
,,,,,,,,,,,,,,,,,,5edac97f977d9018109447a4,2020-08-10_13h04.39.018,lexical_decision_task_MP,2020.1.3,Linux armv7l,60,,0,0.402777808,-0.324404762,1,0,0,0.7071,button_right,0.7071,0,,,,,,320,NW,"ID",33,jockal,JOCKAL,z,,,,,,0.402777808,-0.324404762,1,0,0,,0,347,347,259,1,
