counterbalancing_condition,instr_done_keyboard.keys,instr_done_keyboard.rt,instr_done_touch.x,instr_done_touch.y,instr_done_touch.leftButton,instr_done_touch.midButton,instr_done_touch.rightButton,instruction_pages.thisRepN,instruction_pages.thisTrialN,instruction_pages.thisN,instruction_pages.thisIndex,instruction_pages.ran,pageN,phase,instruct_text,has_image,instruct_image,participant,date,expName,psychopyVersion,OS,frameRate,response.keys,response.corr,response.rt,touch_resp.x,touch_resp.y,touch_resp.leftButton,touch_resp.midButton,touch_resp.rightButton,touch_resp.time,touch_resp.clicked_name,rt,corr,practice_trials.thisRepN,practice_trials.thisTrialN,practice_trials.thisN,practice_trials.thisIndex,practice_trials.ran,TrialID,StimulusType,Condition,PrimeDuration,Prime,Target,corrAns,end_of_practice_trials_pages.thisRepN,end_of_practice_trials_pages.thisTrialN,end_of_practice_trials_pages.thisN,end_of_practice_trials_pages.thisIndex,end_of_practice_trials_pages.ran,break_done_touch.x,break_done_touch.y,break_done_touch.leftButton,break_done_touch.midButton,break_done_touch.rightButton,break_done_keyboard.keys,trials.thisRepN,trials.thisTrialN,trials.thisN,trials.thisIndex,trials.ran,break_done_keyboard.rt
0,space,13.165725,0.153645833,-0.209635417,0,0,0,0,0,0,0,1,1,instructions,"INSTRUCTIONS
At the start of each trial, look at the hash marks (######) in the center of the screen. After a moment, a string of letters will appear. Your task is to indicate if the letter string forms a word or not (i.e., if it is a nonword). For example, AUTHOR is a word while AUTHON is a nonword.

Press the space bar or touch the button below to continue.",0,,5eda87309c985569eb4cb2e0,2020-08-10_18h21.37.687,lexical_decision_task_MP,2020.1.3,Win32,60,,,,,,,,,,,,,,,,,,,,,,,,,,,,,,,,,,,,,,,,,
,space,10.03781,0.153645833,-0.209635417,0,0,0,0,1,1,1,1,2,instructions,"If your device has a keyboard, press the 'Z' key for nonwords and the 'M' key for words.





Press the space bar or touch the button below to continue.",1,keyboard-example.gif,5eda87309c985569eb4cb2e0,2020-08-10_18h21.37.687,lexical_decision_task_MP,2020.1.3,Win32,60,,,,,,,,,,,,,,,,,,,,,,,,,,,,,,,,,,,,,,,,,
,space,4.618885,0.153645833,-0.209635417,0,0,0,0,2,2,2,1,3,instructions,"If you are using a touchscreen only device, use the buttons on the screen. Do not use the mouse.





Press the space bar or touch the button below to continue.",1,touchscreen-example.gif,5eda87309c985569eb4cb2e0,2020-08-10_18h21.37.687,lexical_decision_task_MP,2020.1.3,Win32,60,,,,,,,,,,,,,,,,,,,,,,,,,,,,,,,,,,,,,,,,,
,space,3.439455,0.153645833,-0.209635417,0,0,0,0,3,3,3,1,4,instructions,"It is very important that you respond as quickly and accurately as possible, as each letter string will only be on the screen for two seconds. If you do not respond within this time, the message 'Too slow!' will be displayed and the experiment will progress to the next letter string. The first 20 trials will be practice trials and you will receive feedback on your answers. 

Press the space bar or touch the button below to start the practice trials.",0,,5eda87309c985569eb4cb2e0,2020-08-10_18h21.37.687,lexical_decision_task_MP,2020.1.3,Win32,60,,,,,,,,,,,,,,,,,,,,,,,,,,,,,,,,,,,,,,,,,
,,,,,,,,,,,,,,,,,,5eda87309c985569eb4cb2e0,2020-08-10_18h21.37.687,lexical_decision_task_MP,2020.1.3,Win32,60,z,1,1.37938,,,,,,,,1.37938,1,0,0,0,10,1,1011,NW,"ID",50,inlade,INLADE,z,,,,,,,,,,,,,,,,,
,,,,,,,,,,,,,,,,,,5eda87309c985569eb4cb2e0,2020-08-10_18h21.37.687,lexical_decision_task_MP,2020.1.3,Win32,60,m,1,1.148055,,,,,,,,1.148055,1,0,1,1,0,1,1001,WORD,"ID",33,utopia,UTOPIA,m,,,,,,,,,,,,,,,,,
,,,,,,,,,,,,,,,,,,5eda87309c985569eb4cb2e0,2020-08-10_18h21.37.687,lexical_decision_task_MP,2020.1.3,Win32,60,z,1,1.022075,,,,,,,,1.022075,1,0,2,2,8,1,1009,NW,"ID",33,aslert,ASLERT,z,,,,,,,,,,,,,,,,,
,,,,,,,,,,,,,,,,,,5eda87309c985569eb4cb2e0,2020-08-10_18h21.37.687,lexical_decision_task_MP,2020.1.3,Win32,60,z,1,0.787515,,,,,,,,0.787515,1,0,3,3,11,1,1012,NW,"ID",50,rashet,RASHET,z,,,,,,,,,,,,,,,,,
,,,,,,,,,,,,,,,,,,5eda87309c985569eb4cb2e0,2020-08-10_18h21.37.687,lexical_decision_task_MP,2020.1.3,Win32,60,z,1,0.951095,,,,,,,,0.951095,1,0,4,4,14,1,1015,NW,UN,50,miaber,THRALE,z,,,,,,,,,,,,,,,,,
,,,,,,,,,,,,,,,,,,5eda87309c985569eb4cb2e0,2020-08-10_18h21.37.687,lexical_decision_task_MP,2020.1.3,Win32,60,m,1,0.56236,,,,,,,,0.56236,1,0,5,5,1,1,1002,WORD,"ID",33,adjust,ADJUST,m,,,,,,,,,,,,,,,,,
,,,,,,,,,,,,,,,,,,5eda87309c985569eb4cb2e0,2020-08-10_18h21.37.687,lexical_decision_task_MP,2020.1.3,Win32,60,z,1,0.66647,,,,,,,,0.66647,1,0,6,6,15,1,1016,NW,UN,50,mushed,WHAISE,z,,,,,,,,,,,,,,,,,
,,,,,,,,,,,,,,,,,,5eda87309c985569eb4cb2e0,2020-08-10_18h21.37.687,lexical_decision_task_MP,2020.1.3,Win32,60,z,1,0.650005,,,,,,,,0.650005,1,0,7,7,13,1,1014,NW,UN,33,winfer,ROUPET,z,,,,,,,,,,,,,,,,,
,,,,,,,,,,,,,,,,,,5eda87309c985569eb4cb2e0,2020-08-10_18h21.37.687,lexical_decision_task_MP,2020.1.3,Win32,60,m,1,0.577025,,,,,,,,0.577025,1,0,8,8,6,1,1007,WORD,UN,50,tropic,ZOMBIE,m,,,,,,,,,,,,,,,,,
,,,,,,,,,,,,,,,,,,5eda87309c985569eb4cb2e0,2020-08-10_18h21.37.687,lexical_decision_task_MP,2020.1.3,Win32,60,m,1,0.514605,,,,,,,,0.514605,1,0,9,9,4,1,1005,WORD,UN,33,abound,SQUEAK,m,,,,,,,,,,,,,,,,,
,,,,,,,,,,,,,,,,,,5eda87309c985569eb4cb2e0,2020-08-10_18h21.37.687,lexical_decision_task_MP,2020.1.3,Win32,60,m,1,0.58683,,,,,,,,0.58683,1,0,10,10,7,1,1008,WORD,UN,50,hurdle,VOLUME,m,,,,,,,,,,,,,,,,,
,,,,,,,,,,,,,,,,,,5eda87309c985569eb4cb2e0,2020-08-10_18h21.37.687,lexical_decision_task_MP,2020.1.3,Win32,60,m,1,0.53088,,,,,,,,0.53088,1,0,11,11,5,1,1006,WORD,UN,33,frenzy,OBTAIN,m,,,,,,,,,,,,,,,,,
,,,,,,,,,,,,,,,,,,5eda87309c985569eb4cb2e0,2020-08-10_18h21.37.687,lexical_decision_task_MP,2020.1.3,Win32,60,m,1,0.482615,,,,,,,,0.482615,1,0,12,12,2,1,1003,WORD,"ID",50,almond,ALMOND,m,,,,,,,,,,,,,,,,,
,,,,,,,,,,,,,,,,,,5eda87309c985569eb4cb2e0,2020-08-10_18h21.37.687,lexical_decision_task_MP,2020.1.3,Win32,60,z,1,0.72048,,,,,,,,0.72048,1,0,13,13,9,1,1010,NW,"ID",33,fariny,FARINY,z,,,,,,,,,,,,,,,,,
,,,,,,,,,,,,,,,,,,5eda87309c985569eb4cb2e0,2020-08-10_18h21.37.687,lexical_decision_task_MP,2020.1.3,Win32,60,m,1,0.565935,,,,,,,,0.565935,1,0,14,14,3,1,1004,WORD,"ID",50,matrix,MATRIX,m,,,,,,,,,,,,,,,,,
,,,,,,,,,,,,,,,,,,5eda87309c985569eb4cb2e0,2020-08-10_18h21.37.687,lexical_decision_task_MP,2020.1.3,Win32,60,z,1,0.67544,,,,,,,,0.67544,1,0,15,15,12,1,1013,NW,UN,33,adveil,SPRINY,z,,,,,,,,,,,,,,,,,
,space,24.74536,0.153645833,-0.209635417,0,0,0,,,,,,1,end_of_practice,"You have completed the practice trials. During the experimental trials, you will not receive feedback, but it is very important that you respond as quickly and accurately as possible. 
Before you begin, please ensure that you are in a comfortable and quiet location and will not be disturbed for about 15 minutes, as we cannot use your data if you do not complete all the trials. 
There will be opportunities to take breaks at regular intervals during the experiment. When you are ready to start the experimental trials, please press space or touch the button below.",,,5eda87309c985569eb4cb2e0,2020-08-10_18h21.37.687,lexical_decision_task_MP,2020.1.3,Win32,60,,,,,,,,,,,,,,,,,,,,,,,,,0,0,0,0,1,,,,,,,,,,,,
,,,,,,,,,,,,,,,,,,5eda87309c985569eb4cb2e0,2020-08-10_18h21.37.687,lexical_decision_task_MP,2020.1.3,Win32,60,m,1,0.667465,,,,,,,,0.667465,1,,,,,,98,WORD,UN,33,fluent,BELONG,m,,,,,,0.153645833,-0.209635417,0,0,0,,0,0,0,157,1,
,,,,,,,,,,,,,,,,,,5eda87309c985569eb4cb2e0,2020-08-10_18h21.37.687,lexical_decision_task_MP,2020.1.3,Win32,60,z,1,0.59725,,,,,,,,0.59725,1,,,,,,346,NW,UN,33,kerift,SAUDIC,z,,,,,,0.153645833,-0.209635417,0,0,0,,0,1,1,405,1,
,,,,,,,,,,,,,,,,,,5eda87309c985569eb4cb2e0,2020-08-10_18h21.37.687,lexical_decision_task_MP,2020.1.3,Win32,60,m,1,0.57565,,,,,,,,0.57565,1,,,,,,133,WORD,UN,50,staple,CHROME,m,,,,,,0.153645833,-0.209635417,0,0,0,,0,2,2,192,1,
,,,,,,,,,,,,,,,,,,5eda87309c985569eb4cb2e0,2020-08-10_18h21.37.687,lexical_decision_task_MP,2020.1.3,Win32,60,m,1,0.859415,,,,,,,,0.859415,1,,,,,,125,WORD,UN,50,enough,NICKEL,m,,,,,,0.153645833,-0.209635417,0,0,0,,0,3,3,184,1,
,,,,,,,,,,,,,,,,,,5eda87309c985569eb4cb2e0,2020-08-10_18h21.37.687,lexical_decision_task_MP,2020.1.3,Win32,60,m,1,0.534455,,,,,,,,0.534455,1,,,,,,11,WORD,"ID",50,cruise,CRUISE,m,,,,,,0.153645833,-0.209635417,0,0,0,,0,4,4,70,1,
,,,,,,,,,,,,,,,,,,5eda87309c985569eb4cb2e0,2020-08-10_18h21.37.687,lexical_decision_task_MP,2020.1.3,Win32,60,z,1,0.596465,,,,,,,,0.596465,1,,,,,,259,NW,"ID",50,soudal,SOUDAL,z,,,,,,0.153645833,-0.209635417,0,0,0,,0,5,5,318,1,
,,,,,,,,,,,,,,,,,,5eda87309c985569eb4cb2e0,2020-08-10_18h21.37.687,lexical_decision_task_MP,2020.1.3,Win32,60,m,1,0.543775,,,,,,,,0.543775,1,,,,,,56,WORD,"ID",50,ambush,AMBUSH,m,,,,,,0.153645833,-0.209635417,0,0,0,,0,6,6,115,1,
,,,,,,,,,,,,,,,,,,5eda87309c985569eb4cb2e0,2020-08-10_18h21.37.687,lexical_decision_task_MP,2020.1.3,Win32,60,m,1,0.570015,,,,,,,,0.570015,1,,,,,,74,WORD,UN,33,trophy,PLAQUE,m,,,,,,0.153645833,-0.209635417,0,0,0,,0,7,7,133,1,
,,,,,,,,,,,,,,,,,,5eda87309c985569eb4cb2e0,2020-08-10_18h21.37.687,lexical_decision_task_MP,2020.1.3,Win32,60,m,1,0.52685,,,,,,,,0.52685,1,,,,,,237,WORD,"ID",33,poster,POSTER,m,,,,,,0.153645833,-0.209635417,0,0,0,,0,8,8,56,1,
,,,,,,,,,,,,,,,,,,5eda87309c985569eb4cb2e0,2020-08-10_18h21.37.687,lexical_decision_task_MP,2020.1.3,Win32,60,m,1,0.48682,,,,,,,,0.48682,1,,,,,,95,WORD,UN,33,ignore,THREAD,m,,,,,,0.153645833,-0.209635417,0,0,0,,0,9,9,154,1,
,,,,,,,,,,,,,,,,,,5eda87309c985569eb4cb2e0,2020-08-10_18h21.37.687,lexical_decision_task_MP,2020.1.3,Win32,60,m,1,0.47797,,,,,,,,0.47797,1,,,,,,7,WORD,"ID",50,anchor,ANCHOR,m,,,,,,0.153645833,-0.209635417,0,0,0,,0,10,10,66,1,
,,,,,,,,,,,,,,,,,,5eda87309c985569eb4cb2e0,2020-08-10_18h21.37.687,lexical_decision_task_MP,2020.1.3,Win32,60,z,1,0.584295,,,,,,,,0.584295,1,,,,,,310,NW,UN,33,sproly,DANIET,z,,,,,,0.153645833,-0.209635417,0,0,0,,0,11,11,369,1,
,,,,,,,,,,,,,,,,,,5eda87309c985569eb4cb2e0,2020-08-10_18h21.37.687,lexical_decision_task_MP,2020.1.3,Win32,60,z,1,0.582975,,,,,,,,0.582975,1,,,,,,321,NW,UN,33,slanch,MIATOR,z,,,,,,0.153645833,-0.209635417,0,0,0,,0,12,12,380,1,
,,,,,,,,,,,,,,,,,,5eda87309c985569eb4cb2e0,2020-08-10_18h21.37.687,lexical_decision_task_MP,2020.1.3,Win32,60,z,1,0.75035,,,,,,,,0.75035,1,,,,,,423,NW,"ID",33,streld,STRELD,z,,,,,,0.153645833,-0.209635417,0,0,0,,0,13,13,242,1,
,,,,,,,,,,,,,,,,,,5eda87309c985569eb4cb2e0,2020-08-10_18h21.37.687,lexical_decision_task_MP,2020.1.3,Win32,60,m,1,0.62854,,,,,,,,0.62854,1,,,,,,116,WORD,UN,33,branch,TUMBLE,m,,,,,,0.153645833,-0.209635417,0,0,0,,0,14,14,175,1,
,,,,,,,,,,,,,,,,,,5eda87309c985569eb4cb2e0,2020-08-10_18h21.37.687,lexical_decision_task_MP,2020.1.3,Win32,60,m,1,0.53312,,,,,,,,0.53312,1,,,,,,127,WORD,UN,50,senior,CASTLE,m,,,,,,0.153645833,-0.209635417,0,0,0,,0,15,15,186,1,
,,,,,,,,,,,,,,,,,,5eda87309c985569eb4cb2e0,2020-08-10_18h21.37.687,lexical_decision_task_MP,2020.1.3,Win32,60,m,1,0.54101,,,,,,,,0.54101,1,,,,,,190,WORD,"ID",33,backup,BACKUP,m,,,,,,0.153645833,-0.209635417,0,0,0,,0,16,16,9,1,
,,,,,,,,,,,,,,,,,,5eda87309c985569eb4cb2e0,2020-08-10_18h21.37.687,lexical_decision_task_MP,2020.1.3,Win32,60,m,0,0.55905,,,,,,,,0.55905,0,,,,,,303,NW,UN,33,cludie,FIREAM,z,,,,,,0.153645833,-0.209635417,0,0,0,,0,17,17,362,1,
,,,,,,,,,,,,,,,,,,5eda87309c985569eb4cb2e0,2020-08-10_18h21.37.687,lexical_decision_task_MP,2020.1.3,Win32,60,m,1,0.58333,,,,,,,,0.58333,1,,,,,,97,WORD,UN,33,belong,CLIENT,m,,,,,,0.153645833,-0.209635417,0,0,0,,0,18,18,156,1,
,,,,,,,,,,,,,,,,,,5eda87309c985569eb4cb2e0,2020-08-10_18h21.37.687,lexical_decision_task_MP,2020.1.3,Win32,60,m,1,0.57993,,,,,,,,0.57993,1,,,,,,147,WORD,UN,50,custom,GARLIC,m,,,,,,0.153645833,-0.209635417,0,0,0,,0,19,19,206,1,
,,,,,,,,,,,,,,,,,,5eda87309c985569eb4cb2e0,2020-08-10_18h21.37.687,lexical_decision_task_MP,2020.1.3,Win32,60,m,1,0.506505,,,,,,,,0.506505,1,,,,,,24,WORD,"ID",50,praise,PRAISE,m,,,,,,0.153645833,-0.209635417,0,0,0,,0,20,20,83,1,
,,,,,,,,,,,,,,,,,,5eda87309c985569eb4cb2e0,2020-08-10_18h21.37.687,lexical_decision_task_MP,2020.1.3,Win32,60,z,1,0.58288,,,,,,,,0.58288,1,,,,,,292,NW,"ID",50,ablint,ABLINT,z,,,,,,0.153645833,-0.209635417,0,0,0,,0,21,21,351,1,
,,,,,,,,,,,,,,,,,,5eda87309c985569eb4cb2e0,2020-08-10_18h21.37.687,lexical_decision_task_MP,2020.1.3,Win32,60,z,1,0.60451,,,,,,,,0.60451,1,,,,,,293,NW,"ID",50,swance,SWANCE,z,,,,,,0.153645833,-0.209635417,0,0,0,,0,22,22,352,1,
,,,,,,,,,,,,,,,,,,5eda87309c985569eb4cb2e0,2020-08-10_18h21.37.687,lexical_decision_task_MP,2020.1.3,Win32,60,z,1,0.57024,,,,,,,,0.57024,1,,,,,,252,NW,"ID",50,stapod,STAPOD,z,,,,,,0.153645833,-0.209635417,0,0,0,,0,23,23,311,1,
,,,,,,,,,,,,,,,,,,5eda87309c985569eb4cb2e0,2020-08-10_18h21.37.687,lexical_decision_task_MP,2020.1.3,Win32,60,m,1,0.50924,,,,,,,,0.50924,1,,,,,,1,WORD,"ID",50,fright,FRIGHT,m,,,,,,0.153645833,-0.209635417,0,0,0,,0,24,24,60,1,
,,,,,,,,,,,,,,,,,,5eda87309c985569eb4cb2e0,2020-08-10_18h21.37.687,lexical_decision_task_MP,2020.1.3,Win32,60,m,1,0.56075,,,,,,,,0.56075,1,,,,,,48,WORD,"ID",50,walnut,WALNUT,m,,,,,,0.153645833,-0.209635417,0,0,0,,0,25,25,107,1,
,,,,,,,,,,,,,,,,,,5eda87309c985569eb4cb2e0,2020-08-10_18h21.37.687,lexical_decision_task_MP,2020.1.3,Win32,60,m,1,0.705155,,,,,,,,0.705155,1,,,,,,183,WORD,"ID",33,mildew,MILDEW,m,,,,,,0.153645833,-0.209635417,0,0,0,,0,26,26,2,1,
,,,,,,,,,,,,,,,,,,5eda87309c985569eb4cb2e0,2020-08-10_18h21.37.687,lexical_decision_task_MP,2020.1.3,Win32,60,m,1,0.518915,,,,,,,,0.518915,1,,,,,,103,WORD,UN,33,studio,BOUNCE,m,,,,,,0.153645833,-0.209635417,0,0,0,,0,27,27,162,1,
,,,,,,,,,,,,,,,,,,5eda87309c985569eb4cb2e0,2020-08-10_18h21.37.687,lexical_decision_task_MP,2020.1.3,Win32,60,z,1,0.569395,,,,,,,,0.569395,1,,,,,,467,NW,"ID",33,gorbie,GORBIE,z,,,,,,0.153645833,-0.209635417,0,0,0,,0,28,28,286,1,
,,,,,,,,,,,,,,,,,,5eda87309c985569eb4cb2e0,2020-08-10_18h21.37.687,lexical_decision_task_MP,2020.1.3,Win32,60,m,1,0.80841,,,,,,,,0.80841,1,,,,,,184,WORD,"ID",33,sleazy,SLEAZY,m,,,,,,0.153645833,-0.209635417,0,0,0,,0,29,29,3,1,
,,,,,,,,,,,,,,,,,,5eda87309c985569eb4cb2e0,2020-08-10_18h21.37.687,lexical_decision_task_MP,2020.1.3,Win32,60,z,1,0.57753,,,,,,,,0.57753,1,,,,,,283,NW,"ID",50,veralf,VERALF,z,,,,,,0.153645833,-0.209635417,0,0,0,,0,30,30,342,1,
,,,,,,,,,,,,,,,,,,5eda87309c985569eb4cb2e0,2020-08-10_18h21.37.687,lexical_decision_task_MP,2020.1.3,Win32,60,m,1,0.556405,,,,,,,,0.556405,1,,,,,,130,WORD,UN,50,quench,STUPID,m,,,,,,0.153645833,-0.209635417,0,0,0,,0,31,31,189,1,
,,,,,,,,,,,,,,,,,,5eda87309c985569eb4cb2e0,2020-08-10_18h21.37.687,lexical_decision_task_MP,2020.1.3,Win32,60,m,1,0.51233,,,,,,,,0.51233,1,,,,,,124,WORD,UN,50,nickel,BLOUSE,m,,,,,,0.153645833,-0.209635417,0,0,0,,0,32,32,183,1,
,,,,,,,,,,,,,,,,,,5eda87309c985569eb4cb2e0,2020-08-10_18h21.37.687,lexical_decision_task_MP,2020.1.3,Win32,60,m,1,0.50951,,,,,,,,0.50951,1,,,,,,86,WORD,UN,33,filter,RODENT,m,,,,,,0.153645833,-0.209635417,0,0,0,,0,33,33,145,1,
,,,,,,,,,,,,,,,,,,5eda87309c985569eb4cb2e0,2020-08-10_18h21.37.687,lexical_decision_task_MP,2020.1.3,Win32,60,z,1,0.5664,,,,,,,,0.5664,1,,,,,,429,NW,"ID",33,funtle,FUNTLE,z,,,,,,0.153645833,-0.209635417,0,0,0,,0,34,34,248,1,
,,,,,,,,,,,,,,,,,,5eda87309c985569eb4cb2e0,2020-08-10_18h21.37.687,lexical_decision_task_MP,2020.1.3,Win32,60,z,1,0.76645,,,,,,,,0.76645,1,,,,,,362,NW,UN,50,breali,TIREAU,z,,,,,,0.153645833,-0.209635417,0,0,0,,0,35,35,421,1,
,,,,,,,,,,,,,,,,,,5eda87309c985569eb4cb2e0,2020-08-10_18h21.37.687,lexical_decision_task_MP,2020.1.3,Win32,60,z,1,0.57846,,,,,,,,0.57846,1,,,,,,367,NW,UN,50,hornal,SLIQUE,z,,,,,,0.153645833,-0.209635417,0,0,0,,0,36,36,426,1,
,,,,,,,,,,,,,,,,,,5eda87309c985569eb4cb2e0,2020-08-10_18h21.37.687,lexical_decision_task_MP,2020.1.3,Win32,60,z,1,0.739625,,,,,,,,0.739625,1,,,,,,316,NW,UN,33,worbal,SCREGM,z,,,,,,0.153645833,-0.209635417,0,0,0,,0,37,37,375,1,
,,,,,,,,,,,,,,,,,,5eda87309c985569eb4cb2e0,2020-08-10_18h21.37.687,lexical_decision_task_MP,2020.1.3,Win32,60,z,1,0.670535,,,,,,,,0.670535,1,,,,,,468,NW,"ID",33,wictor,WICTOR,z,,,,,,0.153645833,-0.209635417,0,0,0,,0,38,38,287,1,
,,,,,,,,,,,,,,,,,,5eda87309c985569eb4cb2e0,2020-08-10_18h21.37.687,lexical_decision_task_MP,2020.1.3,Win32,60,m,1,0.76774,,,,,,,,0.76774,1,,,,,,5,WORD,"ID",50,plunge,PLUNGE,m,,,,,,0.153645833,-0.209635417,0,0,0,,0,39,39,64,1,
,,,,,,,,,,,,,,,,,,5eda87309c985569eb4cb2e0,2020-08-10_18h21.37.687,lexical_decision_task_MP,2020.1.3,Win32,60,m,1,0.568295,,,,,,,,0.568295,1,,,,,,227,WORD,"ID",33,seldom,SELDOM,m,,,,,,0.153645833,-0.209635417,0,0,0,,0,40,40,46,1,
,,,,,,,,,,,,,,,,,,5eda87309c985569eb4cb2e0,2020-08-10_18h21.37.687,lexical_decision_task_MP,2020.1.3,Win32,60,z,1,0.529615,,,,,,,,0.529615,1,,,,,,403,NW,UN,50,cluirm,BRUATS,z,,,,,,0.153645833,-0.209635417,0,0,0,,0,41,41,462,1,
,,,,,,,,,,,,,,,,,,5eda87309c985569eb4cb2e0,2020-08-10_18h21.37.687,lexical_decision_task_MP,2020.1.3,Win32,60,z,1,0.6293,,,,,,,,0.6293,1,,,,,,258,NW,"ID",50,poluth,POLUTH,z,,,,,,0.153645833,-0.209635417,0,0,0,,0,42,42,317,1,
,,,,,,,,,,,,,,,,,,5eda87309c985569eb4cb2e0,2020-08-10_18h21.37.687,lexical_decision_task_MP,2020.1.3,Win32,60,z,1,0.749455,,,,,,,,0.749455,1,,,,,,299,NW,"ID",50,sturch,STURCH,z,,,,,,0.153645833,-0.209635417,0,0,0,,0,43,43,358,1,
,,,,,,,,,,,,,,,,,,5eda87309c985569eb4cb2e0,2020-08-10_18h21.37.687,lexical_decision_task_MP,2020.1.3,Win32,60,m,1,0.556415,,,,,,,,0.556415,1,,,,,,167,WORD,UN,50,answer,DESIGN,m,,,,,,0.153645833,-0.209635417,0,0,0,,0,44,44,226,1,
,,,,,,,,,,,,,,,,,,5eda87309c985569eb4cb2e0,2020-08-10_18h21.37.687,lexical_decision_task_MP,2020.1.3,Win32,60,z,1,0.57448,,,,,,,,0.57448,1,,,,,,400,NW,UN,50,mustil,WEAROX,z,,,,,,0.153645833,-0.209635417,0,0,0,,0,45,45,459,1,
,,,,,,,,,,,,,,,,,,5eda87309c985569eb4cb2e0,2020-08-10_18h21.37.687,lexical_decision_task_MP,2020.1.3,Win32,60,z,1,0.501955,,,,,,,,0.501955,1,,,,,,472,NW,"ID",33,cigney,CIGNEY,z,,,,,,0.153645833,-0.209635417,0,0,0,,0,46,46,291,1,
,,,,,,,,,,,,,,,,,,5eda87309c985569eb4cb2e0,2020-08-10_18h21.37.687,lexical_decision_task_MP,2020.1.3,Win32,60,z,1,0.5663,,,,,,,,0.5663,1,,,,,,279,NW,"ID",50,celond,CELOND,z,,,,,,0.153645833,-0.209635417,0,0,0,,0,47,47,338,1,
,,,,,,,,,,,,,,,,,,5eda87309c985569eb4cb2e0,2020-08-10_18h21.37.687,lexical_decision_task_MP,2020.1.3,Win32,60,z,1,0.519405,,,,,,,,0.519405,1,,,,,,249,NW,"ID",50,batrol,BATROL,z,,,,,,0.153645833,-0.209635417,0,0,0,,0,48,48,308,1,
,,,,,,,,,,,,,,,,,,5eda87309c985569eb4cb2e0,2020-08-10_18h21.37.687,lexical_decision_task_MP,2020.1.3,Win32,60,z,1,0.599385,,,,,,,,0.599385,1,,,,,,257,NW,"ID",50,veniod,VENIOD,z,,,,,,0.153645833,-0.209635417,0,0,0,,0,49,49,316,1,
,,,,,,,,,,,,,,,,,,5eda87309c985569eb4cb2e0,2020-08-10_18h21.37.687,lexical_decision_task_MP,2020.1.3,Win32,60,z,1,0.701575,,,,,,,,0.701575,1,,,,,,435,NW,"ID",33,impurb,IMPURB,z,,,,,,0.153645833,-0.209635417,0,0,0,,0,50,50,254,1,
,,,,,,,,,,,,,,,,,,5eda87309c985569eb4cb2e0,2020-08-10_18h21.37.687,lexical_decision_task_MP,2020.1.3,Win32,60,z,1,0.42229,,,,,,,,0.42229,1,,,,,,281,NW,"ID",50,melaty,MELATY,z,,,,,,0.153645833,-0.209635417,0,0,0,,0,51,51,340,1,
,,,,,,,,,,,,,,,,,,5eda87309c985569eb4cb2e0,2020-08-10_18h21.37.687,lexical_decision_task_MP,2020.1.3,Win32,60,m,1,0.521655,,,,,,,,0.521655,1,,,,,,55,WORD,"ID",50,stroke,STROKE,m,,,,,,0.153645833,-0.209635417,0,0,0,,0,52,52,114,1,
,,,,,,,,,,,,,,,,,,5eda87309c985569eb4cb2e0,2020-08-10_18h21.37.687,lexical_decision_task_MP,2020.1.3,Win32,60,z,1,0.586425,,,,,,,,0.586425,1,,,,,,344,NW,UN,33,absend,SCRILY,z,,,,,,0.153645833,-0.209635417,0,0,0,,0,53,53,403,1,
,,,,,,,,,,,,,,,,,,5eda87309c985569eb4cb2e0,2020-08-10_18h21.37.687,lexical_decision_task_MP,2020.1.3,Win32,60,m,1,0.52636,,,,,,,,0.52636,1,,,,,,140,WORD,UN,50,chrome,PRINCE,m,,,,,,0.153645833,-0.209635417,0,0,0,,0,54,54,199,1,
,,,,,,,,,,,,,,,,,,5eda87309c985569eb4cb2e0,2020-08-10_18h21.37.687,lexical_decision_task_MP,2020.1.3,Win32,60,m,1,0.57147,,,,,,,,0.57147,1,,,,,,152,WORD,UN,50,behold,ROCKET,m,,,,,,0.153645833,-0.209635417,0,0,0,,0,55,55,211,1,
,,,,,,,,,,,,,,,,,,5eda87309c985569eb4cb2e0,2020-08-10_18h21.37.687,lexical_decision_task_MP,2020.1.3,Win32,60,z,1,0.62428,,,,,,,,0.62428,1,,,,,,364,NW,UN,50,guairt,IMPOTE,z,,,,,,0.153645833,-0.209635417,0,0,0,,0,56,56,423,1,
,,,,,,,,,,,,,,,,,,5eda87309c985569eb4cb2e0,2020-08-10_18h21.37.687,lexical_decision_task_MP,2020.1.3,Win32,60,m,1,0.535155,,,,,,,,0.535155,1,,,,,,178,WORD,UN,50,basket,INFORM,m,,,,,,0.153645833,-0.209635417,0,0,0,,0,57,57,237,1,
,,,,,,,,,,,,,,,,,,5eda87309c985569eb4cb2e0,2020-08-10_18h21.37.687,lexical_decision_task_MP,2020.1.3,Win32,60,z,1,0.555535,,,,,,,,0.555535,1,,,,,,395,NW,UN,50,flengy,COLURY,z,,,,,,0.153645833,-0.209635417,0,0,0,,0,58,58,454,1,
,,,,,,,,,,,,,,,,,,5eda87309c985569eb4cb2e0,2020-08-10_18h21.37.687,lexical_decision_task_MP,2020.1.3,Win32,60,m,1,0.48757,,,,,,,,0.48757,1,,,,,,216,WORD,"ID",33,behalf,BEHALF,m,,,,,,0.153645833,-0.209635417,0,0,0,,0,59,59,35,1,
,,,,,,,,,,,,,,,,,,5eda87309c985569eb4cb2e0,2020-08-10_18h21.37.687,lexical_decision_task_MP,2020.1.3,Win32,60,m,1,0.498155,,,,,,,,0.498155,1,,,,,,180,WORD,UN,50,thrive,SILENT,m,,,,,,0.153645833,-0.209635417,0,0,0,,0,60,60,239,1,
,,,,,,,,,,,,,,,,,,5eda87309c985569eb4cb2e0,2020-08-10_18h21.37.687,lexical_decision_task_MP,2020.1.3,Win32,60,m,1,0.40393,,,,,,,,0.40393,1,,,,,,3,WORD,"ID",50,knight,KNIGHT,m,,,,,,0.153645833,-0.209635417,0,0,0,,0,61,61,62,1,
,,,,,,,,,,,,,,,,,,5eda87309c985569eb4cb2e0,2020-08-10_18h21.37.687,lexical_decision_task_MP,2020.1.3,Win32,60,m,1,0.467285,,,,,,,,0.467285,1,,,,,,105,WORD,UN,33,ransom,NUMBER,m,,,,,,0.153645833,-0.209635417,0,0,0,,0,62,62,164,1,
,,,,,,,,,,,,,,,,,,5eda87309c985569eb4cb2e0,2020-08-10_18h21.37.687,lexical_decision_task_MP,2020.1.3,Win32,60,z,1,0.636685,,,,,,,,0.636685,1,,,,,,320,NW,UN,33,miator,JOCKAL,z,,,,,,0.153645833,-0.209635417,0,0,0,,0,63,63,379,1,
,,,,,,,,,,,,,,,,,,5eda87309c985569eb4cb2e0,2020-08-10_18h21.37.687,lexical_decision_task_MP,2020.1.3,Win32,60,z,1,0.532715,,,,,,,,0.532715,1,,,,,,456,NW,"ID",33,broget,BROGET,z,,,,,,0.153645833,-0.209635417,0,0,0,,0,64,64,275,1,
,,,,,,,,,,,,,,,,,,5eda87309c985569eb4cb2e0,2020-08-10_18h21.37.687,lexical_decision_task_MP,2020.1.3,Win32,60,m,1,0.50684,,,,,,,,0.50684,1,,,,,,120,WORD,UN,33,ponder,STRAIN,m,,,,,,0.153645833,-0.209635417,0,0,0,,0,65,65,179,1,
,,,,,,,,,,,,,,,,,,5eda87309c985569eb4cb2e0,2020-08-10_18h21.37.687,lexical_decision_task_MP,2020.1.3,Win32,60,z,1,0.5149,,,,,,,,0.5149,1,,,,,,339,NW,UN,33,fiatch,FACHOW,z,,,,,,0.153645833,-0.209635417,0,0,0,,0,66,66,398,1,
,,,,,,,,,,,,,,,,,,5eda87309c985569eb4cb2e0,2020-08-10_18h21.37.687,lexical_decision_task_MP,2020.1.3,Win32,60,z,1,0.47598,,,,,,,,0.47598,1,,,,,,366,NW,UN,50,slique,TOSHEL,z,,,,,,0.153645833,-0.209635417,0,0,0,,0,67,67,425,1,
,,,,,,,,,,,,,,,,,,5eda87309c985569eb4cb2e0,2020-08-10_18h21.37.687,lexical_decision_task_MP,2020.1.3,Win32,60,m,1,0.66697,,,,,,,,0.66697,1,,,,,,6,WORD,"ID",50,bundle,BUNDLE,m,,,,,,0.153645833,-0.209635417,0,0,0,,0,68,68,65,1,
,,,,,,,,,,,,,,,,,,5eda87309c985569eb4cb2e0,2020-08-10_18h21.37.687,lexical_decision_task_MP,2020.1.3,Win32,60,z,1,0.50012,,,,,,,,0.50012,1,,,,,,251,NW,"ID",50,lupict,LUPICT,z,,,,,,0.153645833,-0.209635417,0,0,0,,0,69,69,310,1,
,,,,,,,,,,,,,,,,,,5eda87309c985569eb4cb2e0,2020-08-10_18h21.37.687,lexical_decision_task_MP,2020.1.3,Win32,60,m,1,0.41907,,,,,,,,0.41907,1,,,,,,80,WORD,UN,33,friend,FAMILY,m,,,,,,0.153645833,-0.209635417,0,0,0,,0,70,70,139,1,
,,,,,,,,,,,,,,,,,,5eda87309c985569eb4cb2e0,2020-08-10_18h21.37.687,lexical_decision_task_MP,2020.1.3,Win32,60,z,1,0.518405,,,,,,,,0.518405,1,,,,,,434,NW,"ID",33,pitrom,PITROM,z,,,,,,0.153645833,-0.209635417,0,0,0,,0,71,71,253,1,
,,,,,,,,,,,,,,,,,,5eda87309c985569eb4cb2e0,2020-08-10_18h21.37.687,lexical_decision_task_MP,2020.1.3,Win32,60,m,1,0.610765,,,,,,,,0.610765,1,,,,,,181,WORD,"ID",33,glance,GLANCE,m,,,,,,0.153645833,-0.209635417,0,0,0,,0,72,72,0,1,
,,,,,,,,,,,,,,,,,,5eda87309c985569eb4cb2e0,2020-08-10_18h21.37.687,lexical_decision_task_MP,2020.1.3,Win32,60,m,1,0.48247,,,,,,,,0.48247,1,,,,,,162,WORD,UN,50,string,CANDLE,m,,,,,,0.153645833,-0.209635417,0,0,0,,0,73,73,221,1,
,,,,,,,,,,,,,,,,,,5eda87309c985569eb4cb2e0,2020-08-10_18h21.37.687,lexical_decision_task_MP,2020.1.3,Win32,60,m,1,0.490825,,,,,,,,0.490825,1,,,,,,59,WORD,"ID",50,splint,SPLINT,m,,,,,,0.153645833,-0.209635417,0,0,0,,0,74,74,118,1,
,,,,,,,,,,,,,,,,,,5eda87309c985569eb4cb2e0,2020-08-10_18h21.37.687,lexical_decision_task_MP,2020.1.3,Win32,60,m,1,0.76649,,,,,,,,0.76649,1,,,,,,92,WORD,UN,33,public,STRAND,m,,,,,,0.153645833,-0.209635417,0,0,0,,0,75,75,151,1,
,,,,,,,,,,,,,,,,,,5eda87309c985569eb4cb2e0,2020-08-10_18h21.37.687,lexical_decision_task_MP,2020.1.3,Win32,60,z,1,0.531155,,,,,,,,0.531155,1,,,,,,452,NW,"ID",33,surden,SURDEN,z,,,,,,0.153645833,-0.209635417,0,0,0,,0,76,76,271,1,
,,,,,,,,,,,,,,,,,,5eda87309c985569eb4cb2e0,2020-08-10_18h21.37.687,lexical_decision_task_MP,2020.1.3,Win32,60,z,1,0.53422,,,,,,,,0.53422,1,,,,,,416,NW,UN,50,earoud,PATHEL,z,,,,,,0.153645833,-0.209635417,0,0,0,,0,77,77,475,1,
,,,,,,,,,,,,,,,,,,5eda87309c985569eb4cb2e0,2020-08-10_18h21.37.687,lexical_decision_task_MP,2020.1.3,Win32,60,z,1,0.74241,,,,,,,,0.74241,1,,,,,,244,NW,"ID",50,eatric,EATRIC,z,,,,,,0.153645833,-0.209635417,0,0,0,,0,78,78,303,1,
,,,,,,,,,,,,,,,,,,5eda87309c985569eb4cb2e0,2020-08-10_18h21.37.687,lexical_decision_task_MP,2020.1.3,Win32,60,m,1,0.505255,,,,,,,,0.505255,1,,,,,,108,WORD,UN,33,wonder,RECKON,m,,,,,,0.153645833,-0.209635417,0,0,0,,0,79,79,167,1,
,,,,,,,,,,,,,,,,,,5eda87309c985569eb4cb2e0,2020-08-10_18h21.37.687,lexical_decision_task_MP,2020.1.3,Win32,60,m,1,0.585055,,,,,,,,0.585055,1,,,,,,222,WORD,"ID",33,hinder,HINDER,m,,,,,,0.153645833,-0.209635417,0,0,0,,0,80,80,41,1,
,,,,,,,,,,,,,,,,,,5eda87309c985569eb4cb2e0,2020-08-10_18h21.37.687,lexical_decision_task_MP,2020.1.3,Win32,60,m,0,0.497645,,,,,,,,0.497645,0,,,,,,314,NW,UN,33,laston,SPRINE,z,,,,,,0.153645833,-0.209635417,0,0,0,,0,81,81,373,1,
,,,,,,,,,,,,,,,,,,5eda87309c985569eb4cb2e0,2020-08-10_18h21.37.687,lexical_decision_task_MP,2020.1.3,Win32,60,m,1,0.57137,,,,,,,,0.57137,1,,,,,,44,WORD,"ID",50,danger,DANGER,m,,,,,,0.153645833,-0.209635417,0,0,0,,0,82,82,103,1,
,,,,,,,,,,,,,,,,,,5eda87309c985569eb4cb2e0,2020-08-10_18h21.37.687,lexical_decision_task_MP,2020.1.3,Win32,60,z,1,0.43195,,,,,,,,0.43195,1,,,,,,254,NW,"ID",50,varosh,VAROSH,z,,,,,,0.153645833,-0.209635417,0,0,0,,0,83,83,313,1,
,,,,,,,,,,,,,,,,,,5eda87309c985569eb4cb2e0,2020-08-10_18h21.37.687,lexical_decision_task_MP,2020.1.3,Win32,60,z,1,0.53204,,,,,,,,0.53204,1,,,,,,255,NW,"ID",50,apight,APIGHT,z,,,,,,0.153645833,-0.209635417,0,0,0,,0,84,84,314,1,
,,,,,,,,,,,,,,,,,,5eda87309c985569eb4cb2e0,2020-08-10_18h21.37.687,lexical_decision_task_MP,2020.1.3,Win32,60,m,1,0.688275,,,,,,,,0.688275,1,,,,,,221,WORD,"ID",33,mascot,MASCOT,m,,,,,,0.153645833,-0.209635417,0,0,0,,0,85,85,40,1,
,,,,,,,,,,,,,,,,,,5eda87309c985569eb4cb2e0,2020-08-10_18h21.37.687,lexical_decision_task_MP,2020.1.3,Win32,60,z,1,0.46922,,,,,,,,0.46922,1,,,,,,300,NW,"ID",50,yarion,YARION,z,,,,,,0.153645833,-0.209635417,0,0,0,,0,86,86,359,1,
,,,,,,,,,,,,,,,,,,5eda87309c985569eb4cb2e0,2020-08-10_18h21.37.687,lexical_decision_task_MP,2020.1.3,Win32,60,z,1,0.50244,,,,,,,,0.50244,1,,,,,,439,NW,"ID",33,limpor,LIMPOR,z,,,,,,0.153645833,-0.209635417,0,0,0,,0,87,87,258,1,
,,,,,,,,,,,,,,,,,,5eda87309c985569eb4cb2e0,2020-08-10_18h21.37.687,lexical_decision_task_MP,2020.1.3,Win32,60,z,0,0.465935,,,,,,,,0.465935,0,,,,,,99,WORD,UN,33,carbon,FLUENT,m,,,,,,0.153645833,-0.209635417,0,0,0,,0,88,88,158,1,
,,,,,,,,,,,,,,,,,,5eda87309c985569eb4cb2e0,2020-08-10_18h21.37.687,lexical_decision_task_MP,2020.1.3,Win32,60,m,1,0.76948,,,,,,,,0.76948,1,,,,,,155,WORD,UN,50,cradle,LIZARD,m,,,,,,0.153645833,-0.209635417,0,0,0,,0,89,89,214,1,
,,,,,,,,,,,,,,,,,,5eda87309c985569eb4cb2e0,2020-08-10_18h21.37.687,lexical_decision_task_MP,2020.1.3,Win32,60,m,1,0.599945,,,,,,,,0.599945,1,,,,,,61,WORD,UN,33,region,PONDER,m,,,,,,0.153645833,-0.209635417,0,0,0,,0,90,90,120,1,
,,,,,,,,,,,,,,,,,,5eda87309c985569eb4cb2e0,2020-08-10_18h21.37.687,lexical_decision_task_MP,2020.1.3,Win32,60,z,1,0.64946,,,,,,,,0.64946,1,,,,,,289,NW,"ID",50,starby,STARBY,z,,,,,,0.153645833,-0.209635417,0,0,0,,0,91,91,348,1,
,,,,,,,,,,,,,,,,,,5eda87309c985569eb4cb2e0,2020-08-10_18h21.37.687,lexical_decision_task_MP,2020.1.3,Win32,60,m,1,0.482595,,,,,,,,0.482595,1,,,,,,18,WORD,"ID",50,humble,HUMBLE,m,,,,,,0.153645833,-0.209635417,0,0,0,,0,92,92,77,1,
,,,,,,,,,,,,,,,,,,5eda87309c985569eb4cb2e0,2020-08-10_18h21.37.687,lexical_decision_task_MP,2020.1.3,Win32,60,z,1,1.09322,,,,,,,,1.09322,1,,,,,,284,NW,"ID",50,shaple,SHAPLE,z,,,,,,0.153645833,-0.209635417,0,0,0,,0,93,93,343,1,
,,,,,,,,,,,,,,,,,,5eda87309c985569eb4cb2e0,2020-08-10_18h21.37.687,lexical_decision_task_MP,2020.1.3,Win32,60,z,1,0.60042,,,,,,,,0.60042,1,,,,,,464,NW,"ID",33,chaite,CHAITE,z,,,,,,0.153645833,-0.209635417,0,0,0,,0,94,94,283,1,
,,,,,,,,,,,,,,,,,,5eda87309c985569eb4cb2e0,2020-08-10_18h21.37.687,lexical_decision_task_MP,2020.1.3,Win32,60,m,1,0.49932,,,,,,,,0.49932,1,,,,,,70,WORD,UN,33,garden,SQUARE,m,,,,,,0.153645833,-0.209635417,0,0,0,,0,95,95,129,1,
,,,,,,,,,,,,,,,,,,5eda87309c985569eb4cb2e0,2020-08-10_18h21.37.687,lexical_decision_task_MP,2020.1.3,Win32,60,z,1,0.549405,,,,,,,,0.549405,1,,,,,,326,NW,UN,33,plenac,IGUADE,z,,,,,,0.153645833,-0.209635417,0,0,0,,0,96,96,385,1,
,,,,,,,,,,,,,,,,,,5eda87309c985569eb4cb2e0,2020-08-10_18h21.37.687,lexical_decision_task_MP,2020.1.3,Win32,60,m,1,0.56804,,,,,,,,0.56804,1,,,,,,73,WORD,UN,33,plaque,SOURCE,m,,,,,,0.153645833,-0.209635417,0,0,0,,0,97,97,132,1,
,,,,,,,,,,,,,,,,,,5eda87309c985569eb4cb2e0,2020-08-10_18h21.37.687,lexical_decision_task_MP,2020.1.3,Win32,60,m,1,0.566475,,,,,,,,0.566475,1,,,,,,77,WORD,UN,33,column,RACKET,m,,,,,,0.153645833,-0.209635417,0,0,0,,0,98,98,136,1,
,,,,,,,,,,,,,,,,,,5eda87309c985569eb4cb2e0,2020-08-10_18h21.37.687,lexical_decision_task_MP,2020.1.3,Win32,60,z,1,0.54981,,,,,,,,0.54981,1,,,,,,410,NW,UN,50,orchin,TUNORY,z,,,,,,0.153645833,-0.209635417,0,0,0,,0,99,99,469,1,
,,,,,,,,,,,,,,,,,,5eda87309c985569eb4cb2e0,2020-08-10_18h21.37.687,lexical_decision_task_MP,2020.1.3,Win32,60,m,1,0.53796,,,,,,,,0.53796,1,,,,,,210,WORD,"ID",33,monkey,MONKEY,m,,,,,,0.153645833,-0.209635417,0,0,0,,0,100,100,29,1,
,,,,,,,,,,,,,,,,,,5eda87309c985569eb4cb2e0,2020-08-10_18h21.37.687,lexical_decision_task_MP,2020.1.3,Win32,60,m,1,0.64782,,,,,,,,0.64782,1,,,,,,176,WORD,UN,50,advent,STRIFE,m,,,,,,0.153645833,-0.209635417,0,0,0,,0,101,101,235,1,
,,,,,,,,,,,,,,,,,,5eda87309c985569eb4cb2e0,2020-08-10_18h21.37.687,lexical_decision_task_MP,2020.1.3,Win32,60,z,1,0.6032,,,,,,,,0.6032,1,,,,,,318,NW,UN,33,zomber,REAGLY,z,,,,,,0.153645833,-0.209635417,0,0,0,,0,102,102,377,1,
,,,,,,,,,,,,,,,,,,5eda87309c985569eb4cb2e0,2020-08-10_18h21.37.687,lexical_decision_task_MP,2020.1.3,Win32,60,m,1,0.536015,,,,,,,,0.536015,1,,,,,,142,WORD,UN,50,reason,SPRUCE,m,,,,,,0.153645833,-0.209635417,0,0,0,,0,103,103,201,1,
,,,,,,,,,,,,,,,,,,5eda87309c985569eb4cb2e0,2020-08-10_18h21.37.687,lexical_decision_task_MP,2020.1.3,Win32,60,z,1,0.73268,,,,,,,,0.73268,1,,,,,,286,NW,"ID",50,reldon,RELDON,z,,,,,,0.153645833,-0.209635417,0,0,0,,0,104,104,345,1,
,,,,,,,,,,,,,,,,,,5eda87309c985569eb4cb2e0,2020-08-10_18h21.37.687,lexical_decision_task_MP,2020.1.3,Win32,60,m,1,0.53654,,,,,,,,0.53654,1,,,,,,109,WORD,UN,33,polite,WONDER,m,,,,,,0.153645833,-0.209635417,0,0,0,,0,105,105,168,1,
,,,,,,,,,,,,,,,,,,5eda87309c985569eb4cb2e0,2020-08-10_18h21.37.687,lexical_decision_task_MP,2020.1.3,Win32,60,m,1,0.65108,,,,,,,,0.65108,1,,,,,,83,WORD,UN,33,mortal,RESULT,m,,,,,,0.153645833,-0.209635417,0,0,0,,0,106,106,142,1,
,,,,,,,,,,,,,,,,,,5eda87309c985569eb4cb2e0,2020-08-10_18h21.37.687,lexical_decision_task_MP,2020.1.3,Win32,60,m,1,0.44951,,,,,,,,0.44951,1,,,,,,214,WORD,"ID",33,intake,INTAKE,m,,,,,,0.153645833,-0.209635417,0,0,0,,0,107,107,33,1,
,,,,,,,,,,,,,,,,,,5eda87309c985569eb4cb2e0,2020-08-10_18h21.37.687,lexical_decision_task_MP,2020.1.3,Win32,60,m,1,0.474075,,,,,,,,0.474075,1,,,,,,32,WORD,"ID",50,buckle,BUCKLE,m,,,,,,0.153645833,-0.209635417,0,0,0,,0,108,108,91,1,
,,,,,,,,,,,,,,,,,,5eda87309c985569eb4cb2e0,2020-08-10_18h21.37.687,lexical_decision_task_MP,2020.1.3,Win32,60,z,1,0.54583,,,,,,,,0.54583,1,,,,,,280,NW,"ID",50,curbol,CURBOL,z,,,,,,0.153645833,-0.209635417,0,0,0,,0,109,109,339,1,
,,,,,,,,,,,,,,,,,,5eda87309c985569eb4cb2e0,2020-08-10_18h21.37.687,lexical_decision_task_MP,2020.1.3,Win32,60,z,1,0.56363,,,,,,,,0.56363,1,,,,,,393,NW,UN,50,spaqux,GANOUS,z,,,,,,0.153645833,-0.209635417,0,0,0,,0,110,110,452,1,
,,,,,,,,,,,,,,,,,,5eda87309c985569eb4cb2e0,2020-08-10_18h21.37.687,lexical_decision_task_MP,2020.1.3,Win32,60,m,0,0.822085,,,,,,,,0.822085,0,,,,,,291,NW,"ID",50,pretch,PRETCH,z,,,,,,0.153645833,-0.209635417,0,0,0,,0,111,111,350,1,
,,,,,,,,,,,,,,,,,,5eda87309c985569eb4cb2e0,2020-08-10_18h21.37.687,lexical_decision_task_MP,2020.1.3,Win32,60,z,1,0.755475,,,,,,,,0.755475,1,,,,,,262,NW,"ID",50,quilew,QUILEW,z,,,,,,0.153645833,-0.209635417,0,0,0,,0,112,112,321,1,
,,,,,,,,,,,,,,,,,,5eda87309c985569eb4cb2e0,2020-08-10_18h21.37.687,lexical_decision_task_MP,2020.1.3,Win32,60,m,1,0.43249,,,,,,,,0.43249,1,,,,,,29,WORD,"ID",50,sketch,SKETCH,m,,,,,,0.153645833,-0.209635417,0,0,0,,0,113,113,88,1,
,,,,,,,,,,,,,,,,,,5eda87309c985569eb4cb2e0,2020-08-10_18h21.37.687,lexical_decision_task_MP,2020.1.3,Win32,60,z,1,0.6376,,,,,,,,0.6376,1,,,,,,351,NW,UN,33,tringe,TIESCH,z,,,,,,0.153645833,-0.209635417,0,0,0,,0,114,114,410,1,
,,,,,,,,,,,,,,,,,,5eda87309c985569eb4cb2e0,2020-08-10_18h21.37.687,lexical_decision_task_MP,2020.1.3,Win32,60,m,1,0.51458,,,,,,,,0.51458,1,,,,,,213,WORD,"ID",33,squeal,SQUEAL,m,,,,,,0.153645833,-0.209635417,0,0,0,,0,115,115,32,1,
,,,,,,,,,,,,,,,,,,5eda87309c985569eb4cb2e0,2020-08-10_18h21.37.687,lexical_decision_task_MP,2020.1.3,Win32,60,m,1,0.449755,,,,,,,,0.449755,1,,,,,,220,WORD,"ID",33,voyage,VOYAGE,m,,,,,,0.153645833,-0.209635417,0,0,0,,0,116,116,39,1,
,,,,,,,,,,,,,,,,,,5eda87309c985569eb4cb2e0,2020-08-10_18h21.37.687,lexical_decision_task_MP,2020.1.3,Win32,60,z,1,0.6345,,,,,,,,0.6345,1,,,,,,242,NW,"ID",50,unwert,UNWERT,z,,,,,,0.153645833,-0.209635417,0,0,0,,0,117,117,301,1,
,,,,,,,,,,,,,,,,,,5eda87309c985569eb4cb2e0,2020-08-10_18h21.37.687,lexical_decision_task_MP,2020.1.3,Win32,60,z,1,0.51324,,,,,,,,0.51324,1,,,,,,340,NW,UN,33,myrtie,FIATCH,z,,,,,,0.153645833,-0.209635417,0,0,0,,0,118,118,399,1,
,,,,,,,,,,,,,,,,,,5eda87309c985569eb4cb2e0,2020-08-10_18h21.37.687,lexical_decision_task_MP,2020.1.3,Win32,60,m,1,0.51941,,,,,,,,0.51941,1,,,,,,113,WORD,UN,33,placid,CHORUS,m,,,,,,0.153645833,-0.209635417,0,0,0,,0,119,119,172,1,
,,,,,,,,,,,,,,,,,,5eda87309c985569eb4cb2e0,2020-08-10_18h21.37.687,lexical_decision_task_MP,2020.1.3,Win32,60,m,1,0.592095,,,,,,,,0.592095,1,,,,,,75,WORD,UN,33,exotic,TROPHY,m,,,,,,0.153645833,-0.209635417,0,0,0,space,0,120,120,134,1,13.868005
,,,,,,,,,,,,,,,,,,5eda87309c985569eb4cb2e0,2020-08-10_18h21.37.687,lexical_decision_task_MP,2020.1.3,Win32,60,m,1,0.50005,,,,,,,,0.50005,1,,,,,,42,WORD,"ID",50,chapel,CHAPEL,m,,,,,,0.153645833,-0.209635417,0,0,0,,0,121,121,101,1,
,,,,,,,,,,,,,,,,,,5eda87309c985569eb4cb2e0,2020-08-10_18h21.37.687,lexical_decision_task_MP,2020.1.3,Win32,60,z,1,0.506405,,,,,,,,0.506405,1,,,,,,347,NW,UN,33,dumple,KERIFT,z,,,,,,0.153645833,-0.209635417,0,0,0,,0,122,122,406,1,
,,,,,,,,,,,,,,,,,,5eda87309c985569eb4cb2e0,2020-08-10_18h21.37.687,lexical_decision_task_MP,2020.1.3,Win32,60,m,1,0.60859,,,,,,,,0.60859,1,,,,,,107,WORD,UN,33,reckon,SLOGAN,m,,,,,,0.153645833,-0.209635417,0,0,0,,0,123,123,166,1,
,,,,,,,,,,,,,,,,,,5eda87309c985569eb4cb2e0,2020-08-10_18h21.37.687,lexical_decision_task_MP,2020.1.3,Win32,60,m,0,0.41409,,,,,,,,0.41409,0,,,,,,269,NW,"ID",50,orchet,ORCHET,z,,,,,,0.153645833,-0.209635417,0,0,0,,0,124,124,328,1,
,,,,,,,,,,,,,,,,,,5eda87309c985569eb4cb2e0,2020-08-10_18h21.37.687,lexical_decision_task_MP,2020.1.3,Win32,60,m,1,0.53524,,,,,,,,0.53524,1,,,,,,81,WORD,UN,33,stigma,FRIEND,m,,,,,,0.153645833,-0.209635417,0,0,0,,0,125,125,140,1,
,,,,,,,,,,,,,,,,,,5eda87309c985569eb4cb2e0,2020-08-10_18h21.37.687,lexical_decision_task_MP,2020.1.3,Win32,60,m,1,0.657735,,,,,,,,0.657735,1,,,,,,240,WORD,"ID",33,forest,FOREST,m,,,,,,0.153645833,-0.209635417,0,0,0,,0,126,126,59,1,
,,,,,,,,,,,,,,,,,,5eda87309c985569eb4cb2e0,2020-08-10_18h21.37.687,lexical_decision_task_MP,2020.1.3,Win32,60,z,1,0.56553,,,,,,,,0.56553,1,,,,,,290,NW,"ID",50,splino,SPLINO,z,,,,,,0.153645833,-0.209635417,0,0,0,,0,127,127,349,1,
,,,,,,,,,,,,,,,,,,5eda87309c985569eb4cb2e0,2020-08-10_18h21.37.687,lexical_decision_task_MP,2020.1.3,Win32,60,m,1,0.46537,,,,,,,,0.46537,1,,,,,,2,WORD,"ID",50,bridge,BRIDGE,m,,,,,,0.153645833,-0.209635417,0,0,0,,0,128,128,61,1,
,,,,,,,,,,,,,,,,,,5eda87309c985569eb4cb2e0,2020-08-10_18h21.37.687,lexical_decision_task_MP,2020.1.3,Win32,60,m,1,0.425,,,,,,,,0.425,1,,,,,,182,WORD,"ID",33,winter,WINTER,m,,,,,,0.153645833,-0.209635417,0,0,0,,0,129,129,1,1,
,,,,,,,,,,,,,,,,,,5eda87309c985569eb4cb2e0,2020-08-10_18h21.37.687,lexical_decision_task_MP,2020.1.3,Win32,60,z,1,0.496555,,,,,,,,0.496555,1,,,,,,276,NW,"ID",50,yarmon,YARMON,z,,,,,,0.153645833,-0.209635417,0,0,0,,0,130,130,335,1,
,,,,,,,,,,,,,,,,,,5eda87309c985569eb4cb2e0,2020-08-10_18h21.37.687,lexical_decision_task_MP,2020.1.3,Win32,60,m,1,0.42325,,,,,,,,0.42325,1,,,,,,174,WORD,UN,50,fabric,TURKEY,m,,,,,,0.153645833,-0.209635417,0,0,0,,0,131,131,233,1,
,,,,,,,,,,,,,,,,,,5eda87309c985569eb4cb2e0,2020-08-10_18h21.37.687,lexical_decision_task_MP,2020.1.3,Win32,60,m,1,0.75041,,,,,,,,0.75041,1,,,,,,160,WORD,UN,50,pastor,VIOLET,m,,,,,,0.153645833,-0.209635417,0,0,0,,0,132,132,219,1,
,,,,,,,,,,,,,,,,,,5eda87309c985569eb4cb2e0,2020-08-10_18h21.37.687,lexical_decision_task_MP,2020.1.3,Win32,60,m,1,0.580375,,,,,,,,0.580375,1,,,,,,45,WORD,"ID",50,clergy,CLERGY,m,,,,,,0.153645833,-0.209635417,0,0,0,,0,133,133,104,1,
,,,,,,,,,,,,,,,,,,5eda87309c985569eb4cb2e0,2020-08-10_18h21.37.687,lexical_decision_task_MP,2020.1.3,Win32,60,m,1,0.464195,,,,,,,,0.464195,1,,,,,,71,WORD,UN,33,bright,GARDEN,m,,,,,,0.153645833,-0.209635417,0,0,0,,0,134,134,130,1,
,,,,,,,,,,,,,,,,,,5eda87309c985569eb4cb2e0,2020-08-10_18h21.37.687,lexical_decision_task_MP,2020.1.3,Win32,60,z,1,0.6228,,,,,,,,0.6228,1,,,,,,462,NW,"ID",33,absult,ABSULT,z,,,,,,0.153645833,-0.209635417,0,0,0,,0,135,135,281,1,
,,,,,,,,,,,,,,,,,,5eda87309c985569eb4cb2e0,2020-08-10_18h21.37.687,lexical_decision_task_MP,2020.1.3,Win32,60,z,1,0.55232,,,,,,,,0.55232,1,,,,,,315,NW,UN,33,scregm,LASTON,z,,,,,,0.153645833,-0.209635417,0,0,0,,0,136,136,374,1,
,,,,,,,,,,,,,,,,,,5eda87309c985569eb4cb2e0,2020-08-10_18h21.37.687,lexical_decision_task_MP,2020.1.3,Win32,60,m,0,0.562925,,,,,,,,0.562925,0,,,,,,397,NW,UN,50,blunde,CAMBLE,z,,,,,,0.153645833,-0.209635417,0,0,0,,0,137,137,456,1,
,,,,,,,,,,,,,,,,,,5eda87309c985569eb4cb2e0,2020-08-10_18h21.37.687,lexical_decision_task_MP,2020.1.3,Win32,60,z,1,0.76983,,,,,,,,0.76983,1,,,,,,474,NW,"ID",33,hablin,HABLIN,z,,,,,,0.153645833,-0.209635417,0,0,0,,0,138,138,293,1,
,,,,,,,,,,,,,,,,,,5eda87309c985569eb4cb2e0,2020-08-10_18h21.37.687,lexical_decision_task_MP,2020.1.3,Win32,60,z,1,0.524695,,,,,,,,0.524695,1,,,,,,408,NW,UN,50,elopia,HURNIA,z,,,,,,0.153645833,-0.209635417,0,0,0,,0,139,139,467,1,
,,,,,,,,,,,,,,,,,,5eda87309c985569eb4cb2e0,2020-08-10_18h21.37.687,lexical_decision_task_MP,2020.1.3,Win32,60,z,1,0.53338,,,,,,,,0.53338,1,,,,,,331,NW,UN,33,vangue,GILFEW,z,,,,,,0.153645833,-0.209635417,0,0,0,,0,140,140,390,1,
,,,,,,,,,,,,,,,,,,5eda87309c985569eb4cb2e0,2020-08-10_18h21.37.687,lexical_decision_task_MP,2020.1.3,Win32,60,z,1,0.67636,,,,,,,,0.67636,1,,,,,,317,NW,UN,33,reagly,WORBAL,z,,,,,,0.153645833,-0.209635417,0,0,0,,0,141,141,376,1,
,,,,,,,,,,,,,,,,,,5eda87309c985569eb4cb2e0,2020-08-10_18h21.37.687,lexical_decision_task_MP,2020.1.3,Win32,60,z,1,0.524735,,,,,,,,0.524735,1,,,,,,245,NW,"ID",50,anougs,ANOUGS,z,,,,,,0.153645833,-0.209635417,0,0,0,,0,142,142,304,1,
,,,,,,,,,,,,,,,,,,5eda87309c985569eb4cb2e0,2020-08-10_18h21.37.687,lexical_decision_task_MP,2020.1.3,Win32,60,z,1,0.565705,,,,,,,,0.565705,1,,,,,,305,NW,UN,33,sounge,FORGLE,z,,,,,,0.153645833,-0.209635417,0,0,0,,0,143,143,364,1,
,,,,,,,,,,,,,,,,,,5eda87309c985569eb4cb2e0,2020-08-10_18h21.37.687,lexical_decision_task_MP,2020.1.3,Win32,60,m,1,0.514145,,,,,,,,0.514145,1,,,,,,63,WORD,UN,33,throne,LAUNCH,m,,,,,,0.153645833,-0.209635417,0,0,0,,0,144,144,122,1,
,,,,,,,,,,,,,,,,,,5eda87309c985569eb4cb2e0,2020-08-10_18h21.37.687,lexical_decision_task_MP,2020.1.3,Win32,60,z,1,0.54765,,,,,,,,0.54765,1,,,,,,356,NW,UN,33,derain,OTHNIS,z,,,,,,0.153645833,-0.209635417,0,0,0,,0,145,145,415,1,
,,,,,,,,,,,,,,,,,,5eda87309c985569eb4cb2e0,2020-08-10_18h21.37.687,lexical_decision_task_MP,2020.1.3,Win32,60,m,1,0.508775,,,,,,,,0.508775,1,,,,,,172,WORD,UN,50,shower,PATROL,m,,,,,,0.153645833,-0.209635417,0,0,0,,0,146,146,231,1,
,,,,,,,,,,,,,,,,,,5eda87309c985569eb4cb2e0,2020-08-10_18h21.37.687,lexical_decision_task_MP,2020.1.3,Win32,60,z,1,0.58138,,,,,,,,0.58138,1,,,,,,349,NW,UN,33,nagurs,ASYLEN,z,,,,,,0.153645833,-0.209635417,0,0,0,,0,147,147,408,1,
,,,,,,,,,,,,,,,,,,5eda87309c985569eb4cb2e0,2020-08-10_18h21.37.687,lexical_decision_task_MP,2020.1.3,Win32,60,z,1,0.58241,,,,,,,,0.58241,1,,,,,,368,NW,UN,50,wronch,HORNAL,z,,,,,,0.153645833,-0.209635417,0,0,0,,0,148,148,427,1,
,,,,,,,,,,,,,,,,,,5eda87309c985569eb4cb2e0,2020-08-10_18h21.37.687,lexical_decision_task_MP,2020.1.3,Win32,60,m,1,0.455595,,,,,,,,0.455595,1,,,,,,112,WORD,UN,33,chorus,BREATH,m,,,,,,0.153645833,-0.209635417,0,0,0,,0,149,149,171,1,
,,,,,,,,,,,,,,,,,,5eda87309c985569eb4cb2e0,2020-08-10_18h21.37.687,lexical_decision_task_MP,2020.1.3,Win32,60,m,1,0.566025,,,,,,,,0.566025,1,,,,,,128,WORD,UN,50,marvel,SENIOR,m,,,,,,0.153645833,-0.209635417,0,0,0,,0,150,150,187,1,
,,,,,,,,,,,,,,,,,,5eda87309c985569eb4cb2e0,2020-08-10_18h21.37.687,lexical_decision_task_MP,2020.1.3,Win32,60,m,1,0.395895,,,,,,,,0.395895,1,,,,,,207,WORD,"ID",33,wreath,WREATH,m,,,,,,0.153645833,-0.209635417,0,0,0,,0,151,151,26,1,
,,,,,,,,,,,,,,,,,,5eda87309c985569eb4cb2e0,2020-08-10_18h21.37.687,lexical_decision_task_MP,2020.1.3,Win32,60,m,1,0.51701,,,,,,,,0.51701,1,,,,,,111,WORD,UN,33,breath,INDUCE,m,,,,,,0.153645833,-0.209635417,0,0,0,,0,152,152,170,1,
,,,,,,,,,,,,,,,,,,5eda87309c985569eb4cb2e0,2020-08-10_18h21.37.687,lexical_decision_task_MP,2020.1.3,Win32,60,z,1,0.844895,,,,,,,,0.844895,1,,,,,,295,NW,"ID",50,gleath,GLEATH,z,,,,,,0.153645833,-0.209635417,0,0,0,,0,153,153,354,1,
,,,,,,,,,,,,,,,,,,5eda87309c985569eb4cb2e0,2020-08-10_18h21.37.687,lexical_decision_task_MP,2020.1.3,Win32,60,z,1,0.46913,,,,,,,,0.46913,1,,,,,,371,NW,UN,50,ramily,GEILOY,z,,,,,,0.153645833,-0.209635417,0,0,0,,0,154,154,430,1,
,,,,,,,,,,,,,,,,,,5eda87309c985569eb4cb2e0,2020-08-10_18h21.37.687,lexical_decision_task_MP,2020.1.3,Win32,60,m,1,0.437915,,,,,,,,0.437915,1,,,,,,12,WORD,"ID",50,orange,ORANGE,m,,,,,,0.153645833,-0.209635417,0,0,0,,0,155,155,71,1,
,,,,,,,,,,,,,,,,,,5eda87309c985569eb4cb2e0,2020-08-10_18h21.37.687,lexical_decision_task_MP,2020.1.3,Win32,60,z,1,0.598625,,,,,,,,0.598625,1,,,,,,282,NW,"ID",50,porlex,PORLEX,z,,,,,,0.153645833,-0.209635417,0,0,0,,0,156,156,341,1,
,,,,,,,,,,,,,,,,,,5eda87309c985569eb4cb2e0,2020-08-10_18h21.37.687,lexical_decision_task_MP,2020.1.3,Win32,60,z,1,0.50243,,,,,,,,0.50243,1,,,,,,414,NW,UN,50,higsta,SERBOL,z,,,,,,0.153645833,-0.209635417,0,0,0,,0,157,157,473,1,
,,,,,,,,,,,,,,,,,,5eda87309c985569eb4cb2e0,2020-08-10_18h21.37.687,lexical_decision_task_MP,2020.1.3,Win32,60,m,1,0.47618,,,,,,,,0.47618,1,,,,,,38,WORD,"ID",50,powder,POWDER,m,,,,,,0.153645833,-0.209635417,0,0,0,,0,158,158,97,1,
,,,,,,,,,,,,,,,,,,5eda87309c985569eb4cb2e0,2020-08-10_18h21.37.687,lexical_decision_task_MP,2020.1.3,Win32,60,m,1,0.459485,,,,,,,,0.459485,1,,,,,,192,WORD,"ID",33,plague,PLAGUE,m,,,,,,0.153645833,-0.209635417,0,0,0,,0,159,159,11,1,
,,,,,,,,,,,,,,,,,,5eda87309c985569eb4cb2e0,2020-08-10_18h21.37.687,lexical_decision_task_MP,2020.1.3,Win32,60,m,1,0.403855,,,,,,,,0.403855,1,,,,,,46,WORD,"ID",50,single,SINGLE,m,,,,,,0.153645833,-0.209635417,0,0,0,,0,160,160,105,1,
,,,,,,,,,,,,,,,,,,5eda87309c985569eb4cb2e0,2020-08-10_18h21.37.687,lexical_decision_task_MP,2020.1.3,Win32,60,m,1,0.41534,,,,,,,,0.41534,1,,,,,,164,WORD,UN,50,invest,MARKET,m,,,,,,0.153645833,-0.209635417,0,0,0,,0,161,161,223,1,
,,,,,,,,,,,,,,,,,,5eda87309c985569eb4cb2e0,2020-08-10_18h21.37.687,lexical_decision_task_MP,2020.1.3,Win32,60,z,1,0.68209,,,,,,,,0.68209,1,,,,,,374,NW,UN,50,yorque,SLIANT,z,,,,,,0.153645833,-0.209635417,0,0,0,,0,162,162,433,1,
,,,,,,,,,,,,,,,,,,5eda87309c985569eb4cb2e0,2020-08-10_18h21.37.687,lexical_decision_task_MP,2020.1.3,Win32,60,z,1,0.69018,,,,,,,,0.69018,1,,,,,,271,NW,"ID",50,aubrid,AUBRID,z,,,,,,0.153645833,-0.209635417,0,0,0,,0,163,163,330,1,
,,,,,,,,,,,,,,,,,,5eda87309c985569eb4cb2e0,2020-08-10_18h21.37.687,lexical_decision_task_MP,2020.1.3,Win32,60,m,1,0.48758,,,,,,,,0.48758,1,,,,,,173,WORD,UN,50,turkey,SHOWER,m,,,,,,0.153645833,-0.209635417,0,0,0,,0,164,164,232,1,
,,,,,,,,,,,,,,,,,,5eda87309c985569eb4cb2e0,2020-08-10_18h21.37.687,lexical_decision_task_MP,2020.1.3,Win32,60,m,1,0.471325,,,,,,,,0.471325,1,,,,,,146,WORD,UN,50,garlic,COUPLE,m,,,,,,0.153645833,-0.209635417,0,0,0,,0,165,165,205,1,
,,,,,,,,,,,,,,,,,,5eda87309c985569eb4cb2e0,2020-08-10_18h21.37.687,lexical_decision_task_MP,2020.1.3,Win32,60,z,1,0.734265,,,,,,,,0.734265,1,,,,,,437,NW,"ID",33,snapel,SNAPEL,z,,,,,,0.153645833,-0.209635417,0,0,0,,0,166,166,256,1,
,,,,,,,,,,,,,,,,,,5eda87309c985569eb4cb2e0,2020-08-10_18h21.37.687,lexical_decision_task_MP,2020.1.3,Win32,60,m,1,0.5163,,,,,,,,0.5163,1,,,,,,65,WORD,UN,33,gospel,SYMBOL,m,,,,,,0.153645833,-0.209635417,0,0,0,,0,167,167,124,1,
,,,,,,,,,,,,,,,,,,5eda87309c985569eb4cb2e0,2020-08-10_18h21.37.687,lexical_decision_task_MP,2020.1.3,Win32,60,m,1,0.39974,,,,,,,,0.39974,1,,,,,,15,WORD,"ID",50,amount,AMOUNT,m,,,,,,0.153645833,-0.209635417,0,0,0,,0,168,168,74,1,
,,,,,,,,,,,,,,,,,,5eda87309c985569eb4cb2e0,2020-08-10_18h21.37.687,lexical_decision_task_MP,2020.1.3,Win32,60,m,1,0.49966,,,,,,,,0.49966,1,,,,,,201,WORD,"ID",33,admire,ADMIRE,m,,,,,,0.153645833,-0.209635417,0,0,0,,0,169,169,20,1,
,,,,,,,,,,,,,,,,,,5eda87309c985569eb4cb2e0,2020-08-10_18h21.37.687,lexical_decision_task_MP,2020.1.3,Win32,60,z,1,0.53439,,,,,,,,0.53439,1,,,,,,382,NW,UN,50,aungre,SARLEY,z,,,,,,0.153645833,-0.209635417,0,0,0,,0,170,170,441,1,
,,,,,,,,,,,,,,,,,,5eda87309c985569eb4cb2e0,2020-08-10_18h21.37.687,lexical_decision_task_MP,2020.1.3,Win32,60,z,1,0.50094,,,,,,,,0.50094,1,,,,,,264,NW,"ID",50,vackel,VACKEL,z,,,,,,0.153645833,-0.209635417,0,0,0,,0,171,171,323,1,
,,,,,,,,,,,,,,,,,,5eda87309c985569eb4cb2e0,2020-08-10_18h21.37.687,lexical_decision_task_MP,2020.1.3,Win32,60,z,1,0.89807,,,,,,,,0.89807,1,,,,,,342,NW,UN,33,aimosy,RANDOW,z,,,,,,0.153645833,-0.209635417,0,0,0,,0,172,172,401,1,
,,,,,,,,,,,,,,,,,,5eda87309c985569eb4cb2e0,2020-08-10_18h21.37.687,lexical_decision_task_MP,2020.1.3,Win32,60,z,1,0.574625,,,,,,,,0.574625,1,,,,,,337,NW,UN,33,wreash,REJOLS,z,,,,,,0.153645833,-0.209635417,0,0,0,,0,173,173,396,1,
,,,,,,,,,,,,,,,,,,5eda87309c985569eb4cb2e0,2020-08-10_18h21.37.687,lexical_decision_task_MP,2020.1.3,Win32,60,m,1,0.431845,,,,,,,,0.431845,1,,,,,,31,WORD,"ID",50,weapon,WEAPON,m,,,,,,0.153645833,-0.209635417,0,0,0,,0,174,174,90,1,
,,,,,,,,,,,,,,,,,,5eda87309c985569eb4cb2e0,2020-08-10_18h21.37.687,lexical_decision_task_MP,2020.1.3,Win32,60,z,1,0.65787,,,,,,,,0.65787,1,,,,,,324,NW,UN,33,thruse,STEIKH,z,,,,,,0.153645833,-0.209635417,0,0,0,,0,175,175,383,1,
,,,,,,,,,,,,,,,,,,5eda87309c985569eb4cb2e0,2020-08-10_18h21.37.687,lexical_decision_task_MP,2020.1.3,Win32,60,m,1,0.384685,,,,,,,,0.384685,1,,,,,,22,WORD,"ID",50,jockey,JOCKEY,m,,,,,,0.153645833,-0.209635417,0,0,0,,0,176,176,81,1,
,,,,,,,,,,,,,,,,,,5eda87309c985569eb4cb2e0,2020-08-10_18h21.37.687,lexical_decision_task_MP,2020.1.3,Win32,60,m,1,0.43236,,,,,,,,0.43236,1,,,,,,154,WORD,UN,50,lizard,AUTHOR,m,,,,,,0.153645833,-0.209635417,0,0,0,,0,177,177,213,1,
,,,,,,,,,,,,,,,,,,5eda87309c985569eb4cb2e0,2020-08-10_18h21.37.687,lexical_decision_task_MP,2020.1.3,Win32,60,z,1,0.6069,,,,,,,,0.6069,1,,,,,,477,NW,"ID",33,photie,PHOTIE,z,,,,,,0.153645833,-0.209635417,0,0,0,,0,178,178,296,1,
,,,,,,,,,,,,,,,,,,5eda87309c985569eb4cb2e0,2020-08-10_18h21.37.687,lexical_decision_task_MP,2020.1.3,Win32,60,z,1,0.510535,,,,,,,,0.510535,1,,,,,,365,NW,UN,50,toshel,GUAIRT,z,,,,,,0.153645833,-0.209635417,0,0,0,,0,179,179,424,1,
,,,,,,,,,,,,,,,,,,5eda87309c985569eb4cb2e0,2020-08-10_18h21.37.687,lexical_decision_task_MP,2020.1.3,Win32,60,z,1,0.518485,,,,,,,,0.518485,1,,,,,,466,NW,"ID",33,hocite,HOCITE,z,,,,,,0.153645833,-0.209635417,0,0,0,,0,180,180,285,1,
,,,,,,,,,,,,,,,,,,5eda87309c985569eb4cb2e0,2020-08-10_18h21.37.687,lexical_decision_task_MP,2020.1.3,Win32,60,z,1,0.916935,,,,,,,,0.916935,1,,,,,,272,NW,"ID",50,damilt,DAMILT,z,,,,,,0.153645833,-0.209635417,0,0,0,,0,181,181,331,1,
,,,,,,,,,,,,,,,,,,5eda87309c985569eb4cb2e0,2020-08-10_18h21.37.687,lexical_decision_task_MP,2020.1.3,Win32,60,z,1,0.558775,,,,,,,,0.558775,1,,,,,,406,NW,UN,50,suiver,NOUPLY,z,,,,,,0.153645833,-0.209635417,0,0,0,,0,182,182,465,1,
,,,,,,,,,,,,,,,,,,5eda87309c985569eb4cb2e0,2020-08-10_18h21.37.687,lexical_decision_task_MP,2020.1.3,Win32,60,z,1,0.42647,,,,,,,,0.42647,1,,,,,,450,NW,"ID",33,phrect,PHRECT,z,,,,,,0.153645833,-0.209635417,0,0,0,,0,183,183,269,1,
,,,,,,,,,,,,,,,,,,5eda87309c985569eb4cb2e0,2020-08-10_18h21.37.687,lexical_decision_task_MP,2020.1.3,Win32,60,z,1,0.478775,,,,,,,,0.478775,1,,,,,,336,NW,UN,33,rejols,GHODUS,z,,,,,,0.153645833,-0.209635417,0,0,0,,0,184,184,395,1,
,,,,,,,,,,,,,,,,,,5eda87309c985569eb4cb2e0,2020-08-10_18h21.37.687,lexical_decision_task_MP,2020.1.3,Win32,60,m,1,0.56615,,,,,,,,0.56615,1,,,,,,186,WORD,"ID",33,portal,PORTAL,m,,,,,,0.153645833,-0.209635417,0,0,0,,0,185,185,5,1,
,,,,,,,,,,,,,,,,,,5eda87309c985569eb4cb2e0,2020-08-10_18h21.37.687,lexical_decision_task_MP,2020.1.3,Win32,60,z,1,0.603425,,,,,,,,0.603425,1,,,,,,454,NW,"ID",33,scouge,SCOUGE,z,,,,,,0.153645833,-0.209635417,0,0,0,,0,186,186,273,1,
,,,,,,,,,,,,,,,,,,5eda87309c985569eb4cb2e0,2020-08-10_18h21.37.687,lexical_decision_task_MP,2020.1.3,Win32,60,z,1,0.46611,,,,,,,,0.46611,1,,,,,,426,NW,"ID",33,urivel,URIVEL,z,,,,,,0.153645833,-0.209635417,0,0,0,,0,187,187,245,1,
,,,,,,,,,,,,,,,,,,5eda87309c985569eb4cb2e0,2020-08-10_18h21.37.687,lexical_decision_task_MP,2020.1.3,Win32,60,m,1,0.518135,,,,,,,,0.518135,1,,,,,,134,WORD,UN,50,import,STAPLE,m,,,,,,0.153645833,-0.209635417,0,0,0,,0,188,188,193,1,
,,,,,,,,,,,,,,,,,,5eda87309c985569eb4cb2e0,2020-08-10_18h21.37.687,lexical_decision_task_MP,2020.1.3,Win32,60,z,1,0.449565,,,,,,,,0.449565,1,,,,,,355,NW,UN,33,othnis,ZINGLY,z,,,,,,0.153645833,-0.209635417,0,0,0,,0,189,189,414,1,
,,,,,,,,,,,,,,,,,,5eda87309c985569eb4cb2e0,2020-08-10_18h21.37.687,lexical_decision_task_MP,2020.1.3,Win32,60,z,1,0.498875,,,,,,,,0.498875,1,,,,,,380,NW,UN,50,huniek,CAVORY,z,,,,,,0.153645833,-0.209635417,0,0,0,,0,190,190,439,1,
,,,,,,,,,,,,,,,,,,5eda87309c985569eb4cb2e0,2020-08-10_18h21.37.687,lexical_decision_task_MP,2020.1.3,Win32,60,z,1,0.675265,,,,,,,,0.675265,1,,,,,,298,NW,"ID",50,piergy,PIERGY,z,,,,,,0.153645833,-0.209635417,0,0,0,,0,191,191,357,1,
,,,,,,,,,,,,,,,,,,5eda87309c985569eb4cb2e0,2020-08-10_18h21.37.687,lexical_decision_task_MP,2020.1.3,Win32,60,m,1,0.77127,,,,,,,,0.77127,1,,,,,,139,WORD,UN,50,prince,DEBRIS,m,,,,,,0.153645833,-0.209635417,0,0,0,,0,192,192,198,1,
,,,,,,,,,,,,,,,,,,5eda87309c985569eb4cb2e0,2020-08-10_18h21.37.687,lexical_decision_task_MP,2020.1.3,Win32,60,m,1,0.541885,,,,,,,,0.541885,1,,,,,,62,WORD,UN,33,launch,REGION,m,,,,,,0.153645833,-0.209635417,0,0,0,,0,193,193,121,1,
,,,,,,,,,,,,,,,,,,5eda87309c985569eb4cb2e0,2020-08-10_18h21.37.687,lexical_decision_task_MP,2020.1.3,Win32,60,z,1,0.468795,,,,,,,,0.468795,1,,,,,,436,NW,"ID",33,frutan,FRUTAN,z,,,,,,0.153645833,-0.209635417,0,0,0,,0,194,194,255,1,
,,,,,,,,,,,,,,,,,,5eda87309c985569eb4cb2e0,2020-08-10_18h21.37.687,lexical_decision_task_MP,2020.1.3,Win32,60,m,1,0.538615,,,,,,,,0.538615,1,,,,,,234,WORD,"ID",33,clumsy,CLUMSY,m,,,,,,0.153645833,-0.209635417,0,0,0,,0,195,195,53,1,
,,,,,,,,,,,,,,,,,,5eda87309c985569eb4cb2e0,2020-08-10_18h21.37.687,lexical_decision_task_MP,2020.1.3,Win32,60,m,1,0.536925,,,,,,,,0.536925,1,,,,,,161,WORD,UN,50,candle,PASTOR,m,,,,,,0.153645833,-0.209635417,0,0,0,,0,196,196,220,1,
,,,,,,,,,,,,,,,,,,5eda87309c985569eb4cb2e0,2020-08-10_18h21.37.687,lexical_decision_task_MP,2020.1.3,Win32,60,m,1,0.48278,,,,,,,,0.48278,1,,,,,,136,WORD,UN,50,finger,BLEACH,m,,,,,,0.153645833,-0.209635417,0,0,0,,0,197,197,195,1,
,,,,,,,,,,,,,,,,,,5eda87309c985569eb4cb2e0,2020-08-10_18h21.37.687,lexical_decision_task_MP,2020.1.3,Win32,60,z,1,0.579935,,,,,,,,0.579935,1,,,,,,297,NW,"ID",50,fertic,FERTIC,z,,,,,,0.153645833,-0.209635417,0,0,0,,0,198,198,356,1,
,,,,,,,,,,,,,,,,,,5eda87309c985569eb4cb2e0,2020-08-10_18h21.37.687,lexical_decision_task_MP,2020.1.3,Win32,60,z,1,0.580295,,,,,,,,0.580295,1,,,,,,304,NW,UN,33,forgle,CLUDIE,z,,,,,,0.153645833,-0.209635417,0,0,0,,0,199,199,363,1,
,,,,,,,,,,,,,,,,,,5eda87309c985569eb4cb2e0,2020-08-10_18h21.37.687,lexical_decision_task_MP,2020.1.3,Win32,60,z,1,0.503995,,,,,,,,0.503995,1,,,,,,375,NW,UN,50,iguare,YORQUE,z,,,,,,0.153645833,-0.209635417,0,0,0,,0,200,200,434,1,
,,,,,,,,,,,,,,,,,,5eda87309c985569eb4cb2e0,2020-08-10_18h21.37.687,lexical_decision_task_MP,2020.1.3,Win32,60,m,1,0.500975,,,,,,,,0.500975,1,,,,,,96,WORD,UN,33,client,IGNORE,m,,,,,,0.153645833,-0.209635417,0,0,0,,0,201,201,155,1,
,,,,,,,,,,,,,,,,,,5eda87309c985569eb4cb2e0,2020-08-10_18h21.37.687,lexical_decision_task_MP,2020.1.3,Win32,60,z,1,0.50057,,,,,,,,0.50057,1,,,,,,451,NW,"ID",33,cainky,CAINKY,z,,,,,,0.153645833,-0.209635417,0,0,0,,0,202,202,270,1,
,,,,,,,,,,,,,,,,,,5eda87309c985569eb4cb2e0,2020-08-10_18h21.37.687,lexical_decision_task_MP,2020.1.3,Win32,60,m,1,0.5859,,,,,,,,0.5859,1,,,,,,102,WORD,UN,33,bounce,DIRECT,m,,,,,,0.153645833,-0.209635417,0,0,0,,0,203,203,161,1,
,,,,,,,,,,,,,,,,,,5eda87309c985569eb4cb2e0,2020-08-10_18h21.37.687,lexical_decision_task_MP,2020.1.3,Win32,60,m,1,0.418565,,,,,,,,0.418565,1,,,,,,202,WORD,"ID",33,factor,FACTOR,m,,,,,,0.153645833,-0.209635417,0,0,0,,0,204,204,21,1,
,,,,,,,,,,,,,,,,,,5eda87309c985569eb4cb2e0,2020-08-10_18h21.37.687,lexical_decision_task_MP,2020.1.3,Win32,60,z,1,0.58392,,,,,,,,0.58392,1,,,,,,458,NW,"ID",33,barcet,BARCET,z,,,,,,0.153645833,-0.209635417,0,0,0,,0,205,205,277,1,
,,,,,,,,,,,,,,,,,,5eda87309c985569eb4cb2e0,2020-08-10_18h21.37.687,lexical_decision_task_MP,2020.1.3,Win32,60,z,1,0.59583,,,,,,,,0.59583,1,,,,,,243,NW,"ID",50,musied,MUSIED,z,,,,,,0.153645833,-0.209635417,0,0,0,,0,206,206,302,1,
,,,,,,,,,,,,,,,,,,5eda87309c985569eb4cb2e0,2020-08-10_18h21.37.687,lexical_decision_task_MP,2020.1.3,Win32,60,z,1,0.45152,,,,,,,,0.45152,1,,,,,,294,NW,"ID",50,inhort,INHORT,z,,,,,,0.153645833,-0.209635417,0,0,0,,0,207,207,353,1,
,,,,,,,,,,,,,,,,,,5eda87309c985569eb4cb2e0,2020-08-10_18h21.37.687,lexical_decision_task_MP,2020.1.3,Win32,60,z,1,0.48298,,,,,,,,0.48298,1,,,,,,444,NW,"ID",33,jaunce,JAUNCE,z,,,,,,0.153645833,-0.209635417,0,0,0,,0,208,208,263,1,
,,,,,,,,,,,,,,,,,,5eda87309c985569eb4cb2e0,2020-08-10_18h21.37.687,lexical_decision_task_MP,2020.1.3,Win32,60,m,1,0.531455,,,,,,,,0.531455,1,,,,,,93,WORD,UN,33,travel,PUBLIC,m,,,,,,0.153645833,-0.209635417,0,0,0,,0,209,209,152,1,
,,,,,,,,,,,,,,,,,,5eda87309c985569eb4cb2e0,2020-08-10_18h21.37.687,lexical_decision_task_MP,2020.1.3,Win32,60,z,1,0.59379,,,,,,,,0.59379,1,,,,,,386,NW,UN,50,gronce,ANCUST,z,,,,,,0.153645833,-0.209635417,0,0,0,,0,210,210,445,1,
,,,,,,,,,,,,,,,,,,5eda87309c985569eb4cb2e0,2020-08-10_18h21.37.687,lexical_decision_task_MP,2020.1.3,Win32,60,z,1,0.56685,,,,,,,,0.56685,1,,,,,,376,NW,UN,50,veigma,IGUARE,z,,,,,,0.153645833,-0.209635417,0,0,0,,0,211,211,435,1,
,,,,,,,,,,,,,,,,,,5eda87309c985569eb4cb2e0,2020-08-10_18h21.37.687,lexical_decision_task_MP,2020.1.3,Win32,60,m,1,0.36614,,,,,,,,0.36614,1,,,,,,27,WORD,"ID",50,scream,SCREAM,m,,,,,,0.153645833,-0.209635417,0,0,0,,0,212,212,86,1,
,,,,,,,,,,,,,,,,,,5eda87309c985569eb4cb2e0,2020-08-10_18h21.37.687,lexical_decision_task_MP,2020.1.3,Win32,60,m,1,0.449345,,,,,,,,0.449345,1,,,,,,223,WORD,"ID",33,kidney,KIDNEY,m,,,,,,0.153645833,-0.209635417,0,0,0,,0,213,213,42,1,
,,,,,,,,,,,,,,,,,,5eda87309c985569eb4cb2e0,2020-08-10_18h21.37.687,lexical_decision_task_MP,2020.1.3,Win32,60,m,1,0.485095,,,,,,,,0.485095,1,,,,,,233,WORD,"ID",33,nature,NATURE,m,,,,,,0.153645833,-0.209635417,0,0,0,,0,214,214,52,1,
,,,,,,,,,,,,,,,,,,5eda87309c985569eb4cb2e0,2020-08-10_18h21.37.687,lexical_decision_task_MP,2020.1.3,Win32,60,m,1,0.451055,,,,,,,,0.451055,1,,,,,,163,WORD,UN,50,market,STRING,m,,,,,,0.153645833,-0.209635417,0,0,0,,0,215,215,222,1,
,,,,,,,,,,,,,,,,,,5eda87309c985569eb4cb2e0,2020-08-10_18h21.37.687,lexical_decision_task_MP,2020.1.3,Win32,60,z,1,0.640275,,,,,,,,0.640275,1,,,,,,288,NW,"ID",50,yaceup,YACEUP,z,,,,,,0.153645833,-0.209635417,0,0,0,,0,216,216,347,1,
,,,,,,,,,,,,,,,,,,5eda87309c985569eb4cb2e0,2020-08-10_18h21.37.687,lexical_decision_task_MP,2020.1.3,Win32,60,m,0,0.52649,,,,,,,,0.52649,0,,,,,,345,NW,UN,33,saudic,ABSEND,z,,,,,,0.153645833,-0.209635417,0,0,0,,0,217,217,404,1,
,,,,,,,,,,,,,,,,,,5eda87309c985569eb4cb2e0,2020-08-10_18h21.37.687,lexical_decision_task_MP,2020.1.3,Win32,60,z,1,0.48588,,,,,,,,0.48588,1,,,,,,357,NW,UN,33,fleack,DERAIN,z,,,,,,0.153645833,-0.209635417,0,0,0,,0,218,218,416,1,
,,,,,,,,,,,,,,,,,,5eda87309c985569eb4cb2e0,2020-08-10_18h21.37.687,lexical_decision_task_MP,2020.1.3,Win32,60,m,1,0.48605,,,,,,,,0.48605,1,,,,,,26,WORD,"ID",50,sprint,SPRINT,m,,,,,,0.153645833,-0.209635417,0,0,0,,0,219,219,85,1,
,,,,,,,,,,,,,,,,,,5eda87309c985569eb4cb2e0,2020-08-10_18h21.37.687,lexical_decision_task_MP,2020.1.3,Win32,60,z,1,0.53676,,,,,,,,0.53676,1,,,,,,266,NW,"ID",50,varmit,VARMIT,z,,,,,,0.153645833,-0.209635417,0,0,0,,0,220,220,325,1,
,,,,,,,,,,,,,,,,,,5eda87309c985569eb4cb2e0,2020-08-10_18h21.37.687,lexical_decision_task_MP,2020.1.3,Win32,60,z,1,0.486575,,,,,,,,0.486575,1,,,,,,322,NW,UN,33,rosail,SLANCH,z,,,,,,0.153645833,-0.209635417,0,0,0,,0,221,221,381,1,
,,,,,,,,,,,,,,,,,,5eda87309c985569eb4cb2e0,2020-08-10_18h21.37.687,lexical_decision_task_MP,2020.1.3,Win32,60,z,1,0.4342,,,,,,,,0.4342,1,,,,,,413,NW,UN,50,serbol,EQUATS,z,,,,,,0.153645833,-0.209635417,0,0,0,,0,222,222,472,1,
,,,,,,,,,,,,,,,,,,5eda87309c985569eb4cb2e0,2020-08-10_18h21.37.687,lexical_decision_task_MP,2020.1.3,Win32,60,m,1,0.54857,,,,,,,,0.54857,1,,,,,,217,WORD,"ID",33,liquor,LIQUOR,m,,,,,,0.153645833,-0.209635417,0,0,0,,0,223,223,36,1,
,,,,,,,,,,,,,,,,,,5eda87309c985569eb4cb2e0,2020-08-10_18h21.37.687,lexical_decision_task_MP,2020.1.3,Win32,60,m,1,0.74912,,,,,,,,0.74912,1,,,,,,145,WORD,UN,50,couple,PARISH,m,,,,,,0.153645833,-0.209635417,0,0,0,,0,224,224,204,1,
,,,,,,,,,,,,,,,,,,5eda87309c985569eb4cb2e0,2020-08-10_18h21.37.687,lexical_decision_task_MP,2020.1.3,Win32,60,z,1,0.503865,,,,,,,,0.503865,1,,,,,,442,NW,"ID",33,aboune,ABOUNE,z,,,,,,0.153645833,-0.209635417,0,0,0,,0,225,225,261,1,
,,,,,,,,,,,,,,,,,,5eda87309c985569eb4cb2e0,2020-08-10_18h21.37.687,lexical_decision_task_MP,2020.1.3,Win32,60,z,1,0.435305,,,,,,,,0.435305,1,,,,,,350,NW,UN,33,tiesch,NAGURS,z,,,,,,0.153645833,-0.209635417,0,0,0,,0,226,226,409,1,
,,,,,,,,,,,,,,,,,,5eda87309c985569eb4cb2e0,2020-08-10_18h21.37.687,lexical_decision_task_MP,2020.1.3,Win32,60,z,1,0.539805,,,,,,,,0.539805,1,,,,,,274,NW,"ID",50,fumblo,FUMBLO,z,,,,,,0.153645833,-0.209635417,0,0,0,,0,227,227,333,1,
,,,,,,,,,,,,,,,,,,5eda87309c985569eb4cb2e0,2020-08-10_18h21.37.687,lexical_decision_task_MP,2020.1.3,Win32,60,m,1,0.473255,,,,,,,,0.473255,1,,,,,,17,WORD,"ID",50,charge,CHARGE,m,,,,,,0.153645833,-0.209635417,0,0,0,,0,228,228,76,1,
,,,,,,,,,,,,,,,,,,5eda87309c985569eb4cb2e0,2020-08-10_18h21.37.687,lexical_decision_task_MP,2020.1.3,Win32,60,z,1,0.539645,,,,,,,,0.539645,1,,,,,,404,NW,UN,50,flumni,CLUIRM,z,,,,,,0.153645833,-0.209635417,0,0,0,,0,229,229,463,1,
,,,,,,,,,,,,,,,,,,5eda87309c985569eb4cb2e0,2020-08-10_18h21.37.687,lexical_decision_task_MP,2020.1.3,Win32,60,m,1,0.58643,,,,,,,,0.58643,1,,,,,,66,WORD,UN,33,policy,GOSPEL,m,,,,,,0.153645833,-0.209635417,0,0,0,,0,230,230,125,1,
,,,,,,,,,,,,,,,,,,5eda87309c985569eb4cb2e0,2020-08-10_18h21.37.687,lexical_decision_task_MP,2020.1.3,Win32,60,m,0,0.45162,,,,,,,,0.45162,0,,,,,,285,NW,"ID",50,prudge,PRUDGE,z,,,,,,0.153645833,-0.209635417,0,0,0,,0,231,231,344,1,
,,,,,,,,,,,,,,,,,,5eda87309c985569eb4cb2e0,2020-08-10_18h21.37.687,lexical_decision_task_MP,2020.1.3,Win32,60,m,1,0.430455,,,,,,,,0.430455,1,,,,,,135,WORD,UN,50,bleach,IMPORT,m,,,,,,0.153645833,-0.209635417,0,0,0,,0,232,232,194,1,
,,,,,,,,,,,,,,,,,,5eda87309c985569eb4cb2e0,2020-08-10_18h21.37.687,lexical_decision_task_MP,2020.1.3,Win32,60,z,1,0.65506,,,,,,,,0.65506,1,,,,,,372,NW,UN,50,bigent,RAMILY,z,,,,,,0.153645833,-0.209635417,0,0,0,,0,233,233,431,1,
,,,,,,,,,,,,,,,,,,5eda87309c985569eb4cb2e0,2020-08-10_18h21.37.687,lexical_decision_task_MP,2020.1.3,Win32,60,z,0,0.56737,,,,,,,,0.56737,0,,,,,,200,WORD,"ID",33,beacon,BEACON,m,,,,,,0.153645833,-0.209635417,0,0,0,,0,234,234,19,1,
,,,,,,,,,,,,,,,,,,5eda87309c985569eb4cb2e0,2020-08-10_18h21.37.687,lexical_decision_task_MP,2020.1.3,Win32,60,m,1,0.419375,,,,,,,,0.419375,1,,,,,,238,WORD,"ID",33,flower,FLOWER,m,,,,,,0.153645833,-0.209635417,0,0,0,,0,235,235,57,1,
,,,,,,,,,,,,,,,,,,5eda87309c985569eb4cb2e0,2020-08-10_18h21.37.687,lexical_decision_task_MP,2020.1.3,Win32,60,m,1,0.384695,,,,,,,,0.384695,1,,,,,,35,WORD,"ID",50,socket,SOCKET,m,,,,,,0.153645833,-0.209635417,0,0,0,,0,236,236,94,1,
,,,,,,,,,,,,,,,,,,5eda87309c985569eb4cb2e0,2020-08-10_18h21.37.687,lexical_decision_task_MP,2020.1.3,Win32,60,m,1,0.43982,,,,,,,,0.43982,1,,,,,,72,WORD,UN,33,source,BRIGHT,m,,,,,,0.153645833,-0.209635417,0,0,0,,0,237,237,131,1,
,,,,,,,,,,,,,,,,,,5eda87309c985569eb4cb2e0,2020-08-10_18h21.37.687,lexical_decision_task_MP,2020.1.3,Win32,60,m,1,0.888455,,,,,,,,0.888455,1,,,,,,189,WORD,"ID",33,censor,CENSOR,m,,,,,,0.153645833,-0.209635417,0,0,0,,0,238,238,8,1,
,,,,,,,,,,,,,,,,,,5eda87309c985569eb4cb2e0,2020-08-10_18h21.37.687,lexical_decision_task_MP,2020.1.3,Win32,60,m,1,0.52956,,,,,,,,0.52956,1,,,,,,79,WORD,UN,33,family,THEORY,m,,,,,,0.153645833,-0.209635417,0,0,0,,0,239,239,138,1,
,,,,,,,,,,,,,,,,,,5eda87309c985569eb4cb2e0,2020-08-10_18h21.37.687,lexical_decision_task_MP,2020.1.3,Win32,60,z,1,0.7343,,,,,,,,0.7343,1,,,,,,475,NW,"ID",33,pebric,PEBRIC,z,,,,,,0.153645833,-0.209635417,0,0,0,,0,240,240,294,1,
,,,,,,,,,,,,,,,,,,5eda87309c985569eb4cb2e0,2020-08-10_18h21.37.687,lexical_decision_task_MP,2020.1.3,Win32,60,z,1,0.53432,,,,,,,,0.53432,1,,,,,,430,NW,"ID",33,caroey,CAROEY,z,,,,,,0.153645833,-0.209635417,0,0,0,space,0,241,241,249,1,25.8429
,,,,,,,,,,,,,,,,,,5eda87309c985569eb4cb2e0,2020-08-10_18h21.37.687,lexical_decision_task_MP,2020.1.3,Win32,60,m,1,0.625605,,,,,,,,0.625605,1,,,,,,114,WORD,UN,33,guitar,PLACID,m,,,,,,0.153645833,-0.209635417,0,0,0,,0,242,242,173,1,
,,,,,,,,,,,,,,,,,,5eda87309c985569eb4cb2e0,2020-08-10_18h21.37.687,lexical_decision_task_MP,2020.1.3,Win32,60,m,1,0.45397,,,,,,,,0.45397,1,,,,,,106,WORD,UN,33,slogan,RANSOM,m,,,,,,0.153645833,-0.209635417,0,0,0,,0,243,243,165,1,
,,,,,,,,,,,,,,,,,,5eda87309c985569eb4cb2e0,2020-08-10_18h21.37.687,lexical_decision_task_MP,2020.1.3,Win32,60,m,1,0.32092,,,,,,,,0.32092,1,,,,,,34,WORD,"ID",50,jungle,JUNGLE,m,,,,,,0.153645833,-0.209635417,0,0,0,,0,244,244,93,1,
,,,,,,,,,,,,,,,,,,5eda87309c985569eb4cb2e0,2020-08-10_18h21.37.687,lexical_decision_task_MP,2020.1.3,Win32,60,z,1,0.63343,,,,,,,,0.63343,1,,,,,,369,NW,UN,50,sleact,WRONCH,z,,,,,,0.153645833,-0.209635417,0,0,0,,0,245,245,428,1,
,,,,,,,,,,,,,,,,,,5eda87309c985569eb4cb2e0,2020-08-10_18h21.37.687,lexical_decision_task_MP,2020.1.3,Win32,60,m,1,0.482525,,,,,,,,0.482525,1,,,,,,69,WORD,UN,33,square,PLENTY,m,,,,,,0.153645833,-0.209635417,0,0,0,,0,246,246,128,1,
,,,,,,,,,,,,,,,,,,5eda87309c985569eb4cb2e0,2020-08-10_18h21.37.687,lexical_decision_task_MP,2020.1.3,Win32,60,z,1,0.463325,,,,,,,,0.463325,1,,,,,,385,NW,UN,50,ancust,VEIGMA,z,,,,,,0.153645833,-0.209635417,0,0,0,,0,247,247,444,1,
,,,,,,,,,,,,,,,,,,5eda87309c985569eb4cb2e0,2020-08-10_18h21.37.687,lexical_decision_task_MP,2020.1.3,Win32,60,z,1,0.500035,,,,,,,,0.500035,1,,,,,,270,NW,"ID",50,wrimsy,WRIMSY,z,,,,,,0.153645833,-0.209635417,0,0,0,,0,248,248,329,1,
,,,,,,,,,,,,,,,,,,5eda87309c985569eb4cb2e0,2020-08-10_18h21.37.687,lexical_decision_task_MP,2020.1.3,Win32,60,m,0,0.494485,,,,,,,,0.494485,0,,,,,,478,NW,"ID",33,acrise,ACRISE,z,,,,,,0.153645833,-0.209635417,0,0,0,,0,249,249,297,1,
,,,,,,,,,,,,,,,,,,5eda87309c985569eb4cb2e0,2020-08-10_18h21.37.687,lexical_decision_task_MP,2020.1.3,Win32,60,m,1,0.390135,,,,,,,,0.390135,1,,,,,,51,WORD,"ID",50,hungry,HUNGRY,m,,,,,,0.153645833,-0.209635417,0,0,0,,0,250,250,110,1,
,,,,,,,,,,,,,,,,,,5eda87309c985569eb4cb2e0,2020-08-10_18h21.37.687,lexical_decision_task_MP,2020.1.3,Win32,60,z,1,0.399595,,,,,,,,0.399595,1,,,,,,360,NW,UN,33,fainch,DESORY,z,,,,,,0.153645833,-0.209635417,0,0,0,,0,251,251,419,1,
,,,,,,,,,,,,,,,,,,5eda87309c985569eb4cb2e0,2020-08-10_18h21.37.687,lexical_decision_task_MP,2020.1.3,Win32,60,m,1,0.436585,,,,,,,,0.436585,1,,,,,,43,WORD,"ID",50,tongue,TONGUE,m,,,,,,0.153645833,-0.209635417,0,0,0,,0,252,252,102,1,
,,,,,,,,,,,,,,,,,,5eda87309c985569eb4cb2e0,2020-08-10_18h21.37.687,lexical_decision_task_MP,2020.1.3,Win32,60,m,1,0.559175,,,,,,,,0.559175,1,,,,,,8,WORD,"ID",50,abrupt,ABRUPT,m,,,,,,0.153645833,-0.209635417,0,0,0,,0,253,253,67,1,
,,,,,,,,,,,,,,,,,,5eda87309c985569eb4cb2e0,2020-08-10_18h21.37.687,lexical_decision_task_MP,2020.1.3,Win32,60,m,1,0.46056,,,,,,,,0.46056,1,,,,,,224,WORD,"ID",33,period,PERIOD,m,,,,,,0.153645833,-0.209635417,0,0,0,,0,254,254,43,1,
,,,,,,,,,,,,,,,,,,5eda87309c985569eb4cb2e0,2020-08-10_18h21.37.687,lexical_decision_task_MP,2020.1.3,Win32,60,z,1,0.523025,,,,,,,,0.523025,1,,,,,,334,NW,UN,33,desion,WATMEG,z,,,,,,0.153645833,-0.209635417,0,0,0,,0,255,255,393,1,
,,,,,,,,,,,,,,,,,,5eda87309c985569eb4cb2e0,2020-08-10_18h21.37.687,lexical_decision_task_MP,2020.1.3,Win32,60,z,0,0.43209,,,,,,,,0.43209,0,,,,,,87,WORD,UN,33,sprawl,FILTER,m,,,,,,0.153645833,-0.209635417,0,0,0,,0,256,256,146,1,
,,,,,,,,,,,,,,,,,,5eda87309c985569eb4cb2e0,2020-08-10_18h21.37.687,lexical_decision_task_MP,2020.1.3,Win32,60,m,1,0.44202,,,,,,,,0.44202,1,,,,,,232,WORD,"ID",33,inject,INJECT,m,,,,,,0.153645833,-0.209635417,0,0,0,,0,257,257,51,1,
,,,,,,,,,,,,,,,,,,5eda87309c985569eb4cb2e0,2020-08-10_18h21.37.687,lexical_decision_task_MP,2020.1.3,Win32,60,z,1,0.80837,,,,,,,,0.80837,1,,,,,,260,NW,"ID",50,unject,UNJECT,z,,,,,,0.153645833,-0.209635417,0,0,0,,0,258,258,319,1,
,,,,,,,,,,,,,,,,,,5eda87309c985569eb4cb2e0,2020-08-10_18h21.37.687,lexical_decision_task_MP,2020.1.3,Win32,60,z,0,0.489465,,,,,,,,0.489465,0,,,,,,115,WORD,UN,33,tumble,GUITAR,m,,,,,,0.153645833,-0.209635417,0,0,0,,0,259,259,174,1,
,,,,,,,,,,,,,,,,,,5eda87309c985569eb4cb2e0,2020-08-10_18h21.37.687,lexical_decision_task_MP,2020.1.3,Win32,60,z,1,0.55256,,,,,,,,0.55256,1,,,,,,247,NW,"ID",50,blarge,BLARGE,z,,,,,,0.153645833,-0.209635417,0,0,0,,0,260,260,306,1,
,,,,,,,,,,,,,,,,,,5eda87309c985569eb4cb2e0,2020-08-10_18h21.37.687,lexical_decision_task_MP,2020.1.3,Win32,60,m,1,0.44893,,,,,,,,0.44893,1,,,,,,137,WORD,UN,50,melody,FINGER,m,,,,,,0.153645833,-0.209635417,0,0,0,,0,261,261,196,1,
,,,,,,,,,,,,,,,,,,5eda87309c985569eb4cb2e0,2020-08-10_18h21.37.687,lexical_decision_task_MP,2020.1.3,Win32,60,z,1,0.618765,,,,,,,,0.618765,1,,,,,,338,NW,UN,33,fachow,WREASH,z,,,,,,0.153645833,-0.209635417,0,0,0,,0,262,262,397,1,
,,,,,,,,,,,,,,,,,,5eda87309c985569eb4cb2e0,2020-08-10_18h21.37.687,lexical_decision_task_MP,2020.1.3,Win32,60,z,1,0.56021,,,,,,,,0.56021,1,,,,,,352,NW,UN,33,clurey,TRINGE,z,,,,,,0.153645833,-0.209635417,0,0,0,,0,263,263,411,1,
,,,,,,,,,,,,,,,,,,5eda87309c985569eb4cb2e0,2020-08-10_18h21.37.687,lexical_decision_task_MP,2020.1.3,Win32,60,m,1,0.52284,,,,,,,,0.52284,1,,,,,,158,WORD,UN,50,detail,ISLAND,m,,,,,,0.153645833,-0.209635417,0,0,0,,0,264,264,217,1,
,,,,,,,,,,,,,,,,,,5eda87309c985569eb4cb2e0,2020-08-10_18h21.37.687,lexical_decision_task_MP,2020.1.3,Win32,60,z,1,0.578755,,,,,,,,0.578755,1,,,,,,306,NW,UN,33,kirafe,SOUNGE,z,,,,,,0.153645833,-0.209635417,0,0,0,,0,265,265,365,1,
,,,,,,,,,,,,,,,,,,5eda87309c985569eb4cb2e0,2020-08-10_18h21.37.687,lexical_decision_task_MP,2020.1.3,Win32,60,z,1,0.44969,,,,,,,,0.44969,1,,,,,,447,NW,"ID",33,gircue,GIRCUE,z,,,,,,0.153645833,-0.209635417,0,0,0,,0,266,266,266,1,
,,,,,,,,,,,,,,,,,,5eda87309c985569eb4cb2e0,2020-08-10_18h21.37.687,lexical_decision_task_MP,2020.1.3,Win32,60,z,1,0.57114,,,,,,,,0.57114,1,,,,,,460,NW,"ID",33,mingar,MINGAR,z,,,,,,0.153645833,-0.209635417,0,0,0,,0,267,267,279,1,
,,,,,,,,,,,,,,,,,,5eda87309c985569eb4cb2e0,2020-08-10_18h21.37.687,lexical_decision_task_MP,2020.1.3,Win32,60,m,1,0.53212,,,,,,,,0.53212,1,,,,,,191,WORD,"ID",33,stable,STABLE,m,,,,,,0.153645833,-0.209635417,0,0,0,,0,268,268,10,1,
,,,,,,,,,,,,,,,,,,5eda87309c985569eb4cb2e0,2020-08-10_18h21.37.687,lexical_decision_task_MP,2020.1.3,Win32,60,m,1,0.47948,,,,,,,,0.47948,1,,,,,,170,WORD,UN,50,dragon,POUNCE,m,,,,,,0.153645833,-0.209635417,0,0,0,,0,269,269,229,1,
,,,,,,,,,,,,,,,,,,5eda87309c985569eb4cb2e0,2020-08-10_18h21.37.687,lexical_decision_task_MP,2020.1.3,Win32,60,z,1,0.76898,,,,,,,,0.76898,1,,,,,,301,NW,UN,33,miluer,FAINCH,z,,,,,,0.153645833,-0.209635417,0,0,0,,0,270,270,360,1,
,,,,,,,,,,,,,,,,,,5eda87309c985569eb4cb2e0,2020-08-10_18h21.37.687,lexical_decision_task_MP,2020.1.3,Win32,60,m,1,0.52447,,,,,,,,0.52447,1,,,,,,206,WORD,"ID",33,tailor,TAILOR,m,,,,,,0.153645833,-0.209635417,0,0,0,,0,271,271,25,1,
,,,,,,,,,,,,,,,,,,5eda87309c985569eb4cb2e0,2020-08-10_18h21.37.687,lexical_decision_task_MP,2020.1.3,Win32,60,z,1,0.604545,,,,,,,,0.604545,1,,,,,,431,NW,"ID",33,chrums,CHRUMS,z,,,,,,0.153645833,-0.209635417,0,0,0,,0,272,272,250,1,
,,,,,,,,,,,,,,,,,,5eda87309c985569eb4cb2e0,2020-08-10_18h21.37.687,lexical_decision_task_MP,2020.1.3,Win32,60,m,1,0.48142,,,,,,,,0.48142,1,,,,,,90,WORD,UN,33,expand,RELISH,m,,,,,,0.153645833,-0.209635417,0,0,0,,0,273,273,149,1,
,,,,,,,,,,,,,,,,,,5eda87309c985569eb4cb2e0,2020-08-10_18h21.37.687,lexical_decision_task_MP,2020.1.3,Win32,60,m,1,0.39976,,,,,,,,0.39976,1,,,,,,157,WORD,UN,50,island,DRAGON,m,,,,,,0.153645833,-0.209635417,0,0,0,,0,274,274,216,1,
,,,,,,,,,,,,,,,,,,5eda87309c985569eb4cb2e0,2020-08-10_18h21.37.687,lexical_decision_task_MP,2020.1.3,Win32,60,m,1,0.418375,,,,,,,,0.418375,1,,,,,,235,WORD,"ID",33,grumpy,GRUMPY,m,,,,,,0.153645833,-0.209635417,0,0,0,,0,275,275,54,1,
,,,,,,,,,,,,,,,,,,5eda87309c985569eb4cb2e0,2020-08-10_18h21.37.687,lexical_decision_task_MP,2020.1.3,Win32,60,z,1,0.502075,,,,,,,,0.502075,1,,,,,,438,NW,"ID",33,baitch,BAITCH,z,,,,,,0.153645833,-0.209635417,0,0,0,,0,276,276,257,1,
,,,,,,,,,,,,,,,,,,5eda87309c985569eb4cb2e0,2020-08-10_18h21.37.687,lexical_decision_task_MP,2020.1.3,Win32,60,m,1,0.45725,,,,,,,,0.45725,1,,,,,,215,WORD,"ID",33,phobia,PHOBIA,m,,,,,,0.153645833,-0.209635417,0,0,0,,0,277,277,34,1,
,,,,,,,,,,,,,,,,,,5eda87309c985569eb4cb2e0,2020-08-10_18h21.37.687,lexical_decision_task_MP,2020.1.3,Win32,60,m,0,0.56414,,,,,,,,0.56414,0,,,,,,418,NW,UN,50,slount,SUIDLE,z,,,,,,0.153645833,-0.209635417,0,0,0,,0,278,278,477,1,
,,,,,,,,,,,,,,,,,,5eda87309c985569eb4cb2e0,2020-08-10_18h21.37.687,lexical_decision_task_MP,2020.1.3,Win32,60,z,1,0.539815,,,,,,,,0.539815,1,,,,,,412,NW,UN,50,equats,JILUER,z,,,,,,0.153645833,-0.209635417,0,0,0,,0,279,279,471,1,
,,,,,,,,,,,,,,,,,,5eda87309c985569eb4cb2e0,2020-08-10_18h21.37.687,lexical_decision_task_MP,2020.1.3,Win32,60,z,1,0.49913,,,,,,,,0.49913,1,,,,,,405,NW,UN,50,nouply,FLUMNI,z,,,,,,0.153645833,-0.209635417,0,0,0,,0,280,280,464,1,
,,,,,,,,,,,,,,,,,,5eda87309c985569eb4cb2e0,2020-08-10_18h21.37.687,lexical_decision_task_MP,2020.1.3,Win32,60,z,1,0.657,,,,,,,,0.657,1,,,,,,246,NW,"ID",50,piaton,PIATON,z,,,,,,0.153645833,-0.209635417,0,0,0,,0,281,281,305,1,
,,,,,,,,,,,,,,,,,,5eda87309c985569eb4cb2e0,2020-08-10_18h21.37.687,lexical_decision_task_MP,2020.1.3,Win32,60,m,0,0.417065,,,,,,,,0.417065,0,,,,,,358,NW,UN,33,fonver,FLEACK,z,,,,,,0.153645833,-0.209635417,0,0,0,,0,282,282,417,1,
,,,,,,,,,,,,,,,,,,5eda87309c985569eb4cb2e0,2020-08-10_18h21.37.687,lexical_decision_task_MP,2020.1.3,Win32,60,m,1,0.45713,,,,,,,,0.45713,1,,,,,,60,WORD,"ID",50,pencil,PENCIL,m,,,,,,0.153645833,-0.209635417,0,0,0,,0,283,283,119,1,
,,,,,,,,,,,,,,,,,,5eda87309c985569eb4cb2e0,2020-08-10_18h21.37.687,lexical_decision_task_MP,2020.1.3,Win32,60,m,1,0.402335,,,,,,,,0.402335,1,,,,,,188,WORD,"ID",33,social,SOCIAL,m,,,,,,0.153645833,-0.209635417,0,0,0,,0,284,284,7,1,
,,,,,,,,,,,,,,,,,,5eda87309c985569eb4cb2e0,2020-08-10_18h21.37.687,lexical_decision_task_MP,2020.1.3,Win32,60,z,1,0.45683,,,,,,,,0.45683,1,,,,,,480,NW,"ID",33,robuly,ROBULY,z,,,,,,0.153645833,-0.209635417,0,0,0,,0,285,285,299,1,
,,,,,,,,,,,,,,,,,,5eda87309c985569eb4cb2e0,2020-08-10_18h21.37.687,lexical_decision_task_MP,2020.1.3,Win32,60,m,1,0.47987,,,,,,,,0.47987,1,,,,,,14,WORD,"ID",50,almost,ALMOST,m,,,,,,0.153645833,-0.209635417,0,0,0,,0,286,286,73,1,
,,,,,,,,,,,,,,,,,,5eda87309c985569eb4cb2e0,2020-08-10_18h21.37.687,lexical_decision_task_MP,2020.1.3,Win32,60,z,1,0.636225,,,,,,,,0.636225,1,,,,,,341,NW,UN,33,randow,MYRTIE,z,,,,,,0.153645833,-0.209635417,0,0,0,,0,287,287,400,1,
,,,,,,,,,,,,,,,,,,5eda87309c985569eb4cb2e0,2020-08-10_18h21.37.687,lexical_decision_task_MP,2020.1.3,Win32,60,z,0,0.53813,,,,,,,,0.53813,0,,,,,,171,WORD,UN,50,patrol,DEPART,m,,,,,,0.153645833,-0.209635417,0,0,0,,0,288,288,230,1,
,,,,,,,,,,,,,,,,,,5eda87309c985569eb4cb2e0,2020-08-10_18h21.37.687,lexical_decision_task_MP,2020.1.3,Win32,60,m,1,0.481375,,,,,,,,0.481375,1,,,,,,212,WORD,"ID",33,verify,VERIFY,m,,,,,,0.153645833,-0.209635417,0,0,0,,0,289,289,31,1,
,,,,,,,,,,,,,,,,,,5eda87309c985569eb4cb2e0,2020-08-10_18h21.37.687,lexical_decision_task_MP,2020.1.3,Win32,60,z,1,0.64964,,,,,,,,0.64964,1,,,,,,455,NW,"ID",33,tondle,TONDLE,z,,,,,,0.153645833,-0.209635417,0,0,0,,0,290,290,274,1,
,,,,,,,,,,,,,,,,,,5eda87309c985569eb4cb2e0,2020-08-10_18h21.37.687,lexical_decision_task_MP,2020.1.3,Win32,60,z,1,0.526385,,,,,,,,0.526385,1,,,,,,479,NW,"ID",33,lobush,LOBUSH,z,,,,,,0.153645833,-0.209635417,0,0,0,,0,291,291,298,1,
,,,,,,,,,,,,,,,,,,5eda87309c985569eb4cb2e0,2020-08-10_18h21.37.687,lexical_decision_task_MP,2020.1.3,Win32,60,z,1,0.471815,,,,,,,,0.471815,1,,,,,,312,NW,UN,33,paurse,NERAWL,z,,,,,,0.153645833,-0.209635417,0,0,0,,0,292,292,371,1,
,,,,,,,,,,,,,,,,,,5eda87309c985569eb4cb2e0,2020-08-10_18h21.37.687,lexical_decision_task_MP,2020.1.3,Win32,60,z,1,0.483535,,,,,,,,0.483535,1,,,,,,471,NW,"ID",33,nobest,NOBEST,z,,,,,,0.153645833,-0.209635417,0,0,0,,0,293,293,290,1,
,,,,,,,,,,,,,,,,,,5eda87309c985569eb4cb2e0,2020-08-10_18h21.37.687,lexical_decision_task_MP,2020.1.3,Win32,60,m,0,0.382715,,,,,,,,0.382715,0,,,,,,422,NW,"ID",33,alcoud,ALCOUD,z,,,,,,0.153645833,-0.209635417,0,0,0,,0,294,294,241,1,
,,,,,,,,,,,,,,,,,,5eda87309c985569eb4cb2e0,2020-08-10_18h21.37.687,lexical_decision_task_MP,2020.1.3,Win32,60,z,1,0.749365,,,,,,,,0.749365,1,,,,,,328,NW,UN,33,yarike,BROAKE,z,,,,,,0.153645833,-0.209635417,0,0,0,,0,295,295,387,1,
,,,,,,,,,,,,,,,,,,5eda87309c985569eb4cb2e0,2020-08-10_18h21.37.687,lexical_decision_task_MP,2020.1.3,Win32,60,m,1,0.45025,,,,,,,,0.45025,1,,,,,,193,WORD,"ID",33,object,OBJECT,m,,,,,,0.153645833,-0.209635417,0,0,0,,0,296,296,12,1,
,,,,,,,,,,,,,,,,,,5eda87309c985569eb4cb2e0,2020-08-10_18h21.37.687,lexical_decision_task_MP,2020.1.3,Win32,60,m,1,0.46497,,,,,,,,0.46497,1,,,,,,228,WORD,"ID",33,master,MASTER,m,,,,,,0.153645833,-0.209635417,0,0,0,,0,297,297,47,1,
,,,,,,,,,,,,,,,,,,5eda87309c985569eb4cb2e0,2020-08-10_18h21.37.687,lexical_decision_task_MP,2020.1.3,Win32,60,m,1,0.46665,,,,,,,,0.46665,1,,,,,,126,WORD,UN,50,castle,ENOUGH,m,,,,,,0.153645833,-0.209635417,0,0,0,,0,298,298,185,1,
,,,,,,,,,,,,,,,,,,5eda87309c985569eb4cb2e0,2020-08-10_18h21.37.687,lexical_decision_task_MP,2020.1.3,Win32,60,m,1,0.540325,,,,,,,,0.540325,1,,,,,,33,WORD,"ID",50,butler,BUTLER,m,,,,,,0.153645833,-0.209635417,0,0,0,,0,299,299,92,1,
,,,,,,,,,,,,,,,,,,5eda87309c985569eb4cb2e0,2020-08-10_18h21.37.687,lexical_decision_task_MP,2020.1.3,Win32,60,z,1,0.506295,,,,,,,,0.506295,1,,,,,,411,NW,UN,50,jiluer,ORCHIN,z,,,,,,0.153645833,-0.209635417,0,0,0,,0,300,300,470,1,
,,,,,,,,,,,,,,,,,,5eda87309c985569eb4cb2e0,2020-08-10_18h21.37.687,lexical_decision_task_MP,2020.1.3,Win32,60,m,1,0.77296,,,,,,,,0.77296,1,,,,,,25,WORD,"ID",50,domain,DOMAIN,m,,,,,,0.153645833,-0.209635417,0,0,0,,0,301,301,84,1,
,,,,,,,,,,,,,,,,,,5eda87309c985569eb4cb2e0,2020-08-10_18h21.37.687,lexical_decision_task_MP,2020.1.3,Win32,60,z,1,0.51572,,,,,,,,0.51572,1,,,,,,427,NW,"ID",33,schind,SCHIND,z,,,,,,0.153645833,-0.209635417,0,0,0,,0,302,302,246,1,
,,,,,,,,,,,,,,,,,,5eda87309c985569eb4cb2e0,2020-08-10_18h21.37.687,lexical_decision_task_MP,2020.1.3,Win32,60,m,1,0.50777,,,,,,,,0.50777,1,,,,,,131,WORD,UN,50,strong,QUENCH,m,,,,,,0.153645833,-0.209635417,0,0,0,,0,303,303,190,1,
,,,,,,,,,,,,,,,,,,5eda87309c985569eb4cb2e0,2020-08-10_18h21.37.687,lexical_decision_task_MP,2020.1.3,Win32,60,z,1,0.648045,,,,,,,,0.648045,1,,,,,,332,NW,UN,33,catrie,VANGUE,z,,,,,,0.153645833,-0.209635417,0,0,0,,0,304,304,391,1,
,,,,,,,,,,,,,,,,,,5eda87309c985569eb4cb2e0,2020-08-10_18h21.37.687,lexical_decision_task_MP,2020.1.3,Win32,60,z,1,0.49212,,,,,,,,0.49212,1,,,,,,420,NW,UN,50,pauche,GUSHOP,z,,,,,,0.153645833,-0.209635417,0,0,0,,0,305,305,479,1,
,,,,,,,,,,,,,,,,,,5eda87309c985569eb4cb2e0,2020-08-10_18h21.37.687,lexical_decision_task_MP,2020.1.3,Win32,60,z,1,0.471205,,,,,,,,0.471205,1,,,,,,273,NW,"ID",50,sortel,SORTEL,z,,,,,,0.153645833,-0.209635417,0,0,0,,0,306,306,332,1,
,,,,,,,,,,,,,,,,,,5eda87309c985569eb4cb2e0,2020-08-10_18h21.37.687,lexical_decision_task_MP,2020.1.3,Win32,60,m,1,0.699785,,,,,,,,0.699785,1,,,,,,39,WORD,"ID",50,insect,INSECT,m,,,,,,0.153645833,-0.209635417,0,0,0,,0,307,307,98,1,
,,,,,,,,,,,,,,,,,,5eda87309c985569eb4cb2e0,2020-08-10_18h21.37.687,lexical_decision_task_MP,2020.1.3,Win32,60,z,1,0.567,,,,,,,,0.567,1,,,,,,461,NW,"ID",33,justre,JUSTRE,z,,,,,,0.153645833,-0.209635417,0,0,0,,0,308,308,280,1,
,,,,,,,,,,,,,,,,,,5eda87309c985569eb4cb2e0,2020-08-10_18h21.37.687,lexical_decision_task_MP,2020.1.3,Win32,60,z,1,0.633815,,,,,,,,0.633815,1,,,,,,268,NW,"ID",50,packes,PACKES,z,,,,,,0.153645833,-0.209635417,0,0,0,,0,309,309,327,1,
,,,,,,,,,,,,,,,,,,5eda87309c985569eb4cb2e0,2020-08-10_18h21.37.687,lexical_decision_task_MP,2020.1.3,Win32,60,z,1,0.532225,,,,,,,,0.532225,1,,,,,,388,NW,UN,50,witmer,CRAGIN,z,,,,,,0.153645833,-0.209635417,0,0,0,,0,310,310,447,1,
,,,,,,,,,,,,,,,,,,5eda87309c985569eb4cb2e0,2020-08-10_18h21.37.687,lexical_decision_task_MP,2020.1.3,Win32,60,z,1,0.502385,,,,,,,,0.502385,1,,,,,,353,NW,UN,33,virlex,CLUREY,z,,,,,,0.153645833,-0.209635417,0,0,0,,0,311,311,412,1,
,,,,,,,,,,,,,,,,,,5eda87309c985569eb4cb2e0,2020-08-10_18h21.37.687,lexical_decision_task_MP,2020.1.3,Win32,60,m,1,0.4978,,,,,,,,0.4978,1,,,,,,89,WORD,UN,33,relish,PERMIT,m,,,,,,0.153645833,-0.209635417,0,0,0,,0,312,312,148,1,
,,,,,,,,,,,,,,,,,,5eda87309c985569eb4cb2e0,2020-08-10_18h21.37.687,lexical_decision_task_MP,2020.1.3,Win32,60,z,1,0.56595,,,,,,,,0.56595,1,,,,,,443,NW,"ID",33,dorsex,DORSEX,z,,,,,,0.153645833,-0.209635417,0,0,0,,0,313,313,262,1,
,,,,,,,,,,,,,,,,,,5eda87309c985569eb4cb2e0,2020-08-10_18h21.37.687,lexical_decision_task_MP,2020.1.3,Win32,60,z,1,0.518525,,,,,,,,0.518525,1,,,,,,250,NW,"ID",50,milted,MILTED,z,,,,,,0.153645833,-0.209635417,0,0,0,,0,314,314,309,1,
,,,,,,,,,,,,,,,,,,5eda87309c985569eb4cb2e0,2020-08-10_18h21.37.687,lexical_decision_task_MP,2020.1.3,Win32,60,z,1,0.48227,,,,,,,,0.48227,1,,,,,,417,NW,UN,50,suidle,EAROUD,z,,,,,,0.153645833,-0.209635417,0,0,0,,0,315,315,476,1,
,,,,,,,,,,,,,,,,,,5eda87309c985569eb4cb2e0,2020-08-10_18h21.37.687,lexical_decision_task_MP,2020.1.3,Win32,60,m,1,0.643175,,,,,,,,0.643175,1,,,,,,54,WORD,"ID",50,ramble,RAMBLE,m,,,,,,0.153645833,-0.209635417,0,0,0,,0,316,316,113,1,
,,,,,,,,,,,,,,,,,,5eda87309c985569eb4cb2e0,2020-08-10_18h21.37.687,lexical_decision_task_MP,2020.1.3,Win32,60,m,1,0.566425,,,,,,,,0.566425,1,,,,,,204,WORD,"ID",33,burden,BURDEN,m,,,,,,0.153645833,-0.209635417,0,0,0,,0,317,317,23,1,
,,,,,,,,,,,,,,,,,,5eda87309c985569eb4cb2e0,2020-08-10_18h21.37.687,lexical_decision_task_MP,2020.1.3,Win32,60,m,1,0.48445,,,,,,,,0.48445,1,,,,,,195,WORD,"ID",33,resign,RESIGN,m,,,,,,0.153645833,-0.209635417,0,0,0,,0,318,318,14,1,
,,,,,,,,,,,,,,,,,,5eda87309c985569eb4cb2e0,2020-08-10_18h21.37.687,lexical_decision_task_MP,2020.1.3,Win32,60,z,1,0.55291,,,,,,,,0.55291,1,,,,,,391,NW,UN,50,rouncy,THELDY,z,,,,,,0.153645833,-0.209635417,0,0,0,,0,319,319,450,1,
,,,,,,,,,,,,,,,,,,5eda87309c985569eb4cb2e0,2020-08-10_18h21.37.687,lexical_decision_task_MP,2020.1.3,Win32,60,z,1,0.481615,,,,,,,,0.481615,1,,,,,,373,NW,UN,50,sliant,BIGENT,z,,,,,,0.153645833,-0.209635417,0,0,0,,0,320,320,432,1,
,,,,,,,,,,,,,,,,,,5eda87309c985569eb4cb2e0,2020-08-10_18h21.37.687,lexical_decision_task_MP,2020.1.3,Win32,60,z,1,0.456655,,,,,,,,0.456655,1,,,,,,463,NW,"ID",33,kispel,KISPEL,z,,,,,,0.153645833,-0.209635417,0,0,0,,0,321,321,282,1,
,,,,,,,,,,,,,,,,,,5eda87309c985569eb4cb2e0,2020-08-10_18h21.37.687,lexical_decision_task_MP,2020.1.3,Win32,60,z,1,0.533515,,,,,,,,0.533515,1,,,,,,325,NW,UN,33,iguade,THRUSE,z,,,,,,0.153645833,-0.209635417,0,0,0,,0,322,322,384,1,
,,,,,,,,,,,,,,,,,,5eda87309c985569eb4cb2e0,2020-08-10_18h21.37.687,lexical_decision_task_MP,2020.1.3,Win32,60,m,1,0.43415,,,,,,,,0.43415,1,,,,,,21,WORD,"ID",50,simple,SIMPLE,m,,,,,,0.153645833,-0.209635417,0,0,0,,0,323,323,80,1,
,,,,,,,,,,,,,,,,,,5eda87309c985569eb4cb2e0,2020-08-10_18h21.37.687,lexical_decision_task_MP,2020.1.3,Win32,60,m,1,0.40454,,,,,,,,0.40454,1,,,,,,47,WORD,"ID",50,income,INCOME,m,,,,,,0.153645833,-0.209635417,0,0,0,,0,324,324,106,1,
,,,,,,,,,,,,,,,,,,5eda87309c985569eb4cb2e0,2020-08-10_18h21.37.687,lexical_decision_task_MP,2020.1.3,Win32,60,z,1,0.86977,,,,,,,,0.86977,1,,,,,,253,NW,"ID",50,resait,RESAIT,z,,,,,,0.153645833,-0.209635417,0,0,0,,0,325,325,312,1,
,,,,,,,,,,,,,,,,,,5eda87309c985569eb4cb2e0,2020-08-10_18h21.37.687,lexical_decision_task_MP,2020.1.3,Win32,60,m,1,0.550515,,,,,,,,0.550515,1,,,,,,100,WORD,UN,33,wrench,CARBON,m,,,,,,0.153645833,-0.209635417,0,0,0,,0,326,326,159,1,
,,,,,,,,,,,,,,,,,,5eda87309c985569eb4cb2e0,2020-08-10_18h21.37.687,lexical_decision_task_MP,2020.1.3,Win32,60,m,1,0.64935,,,,,,,,0.64935,1,,,,,,68,WORD,UN,33,plenty,FUMBLE,m,,,,,,0.153645833,-0.209635417,0,0,0,,0,327,327,127,1,
,,,,,,,,,,,,,,,,,,5eda87309c985569eb4cb2e0,2020-08-10_18h21.37.687,lexical_decision_task_MP,2020.1.3,Win32,60,z,1,0.471195,,,,,,,,0.471195,1,,,,,,459,NW,"ID",33,bafent,BAFENT,z,,,,,,0.153645833,-0.209635417,0,0,0,,0,328,328,278,1,
,,,,,,,,,,,,,,,,,,5eda87309c985569eb4cb2e0,2020-08-10_18h21.37.687,lexical_decision_task_MP,2020.1.3,Win32,60,z,1,0.48184,,,,,,,,0.48184,1,,,,,,241,NW,"ID",50,smenco,SMENCO,z,,,,,,0.153645833,-0.209635417,0,0,0,,0,329,329,300,1,
,,,,,,,,,,,,,,,,,,5eda87309c985569eb4cb2e0,2020-08-10_18h21.37.687,lexical_decision_task_MP,2020.1.3,Win32,60,z,1,0.558795,,,,,,,,0.558795,1,,,,,,330,NW,UN,33,gilfew,KENSOM,z,,,,,,0.153645833,-0.209635417,0,0,0,,0,330,330,389,1,
,,,,,,,,,,,,,,,,,,5eda87309c985569eb4cb2e0,2020-08-10_18h21.37.687,lexical_decision_task_MP,2020.1.3,Win32,60,m,1,0.5223,,,,,,,,0.5223,1,,,,,,230,WORD,"ID",33,fringe,FRINGE,m,,,,,,0.153645833,-0.209635417,0,0,0,,0,331,331,49,1,
,,,,,,,,,,,,,,,,,,5eda87309c985569eb4cb2e0,2020-08-10_18h21.37.687,lexical_decision_task_MP,2020.1.3,Win32,60,m,1,0.51752,,,,,,,,0.51752,1,,,,,,118,WORD,UN,33,spider,FLIGHT,m,,,,,,0.153645833,-0.209635417,0,0,0,,0,332,332,177,1,
,,,,,,,,,,,,,,,,,,5eda87309c985569eb4cb2e0,2020-08-10_18h21.37.687,lexical_decision_task_MP,2020.1.3,Win32,60,m,1,0.484075,,,,,,,,0.484075,1,,,,,,144,WORD,UN,50,parish,SPONGE,m,,,,,,0.153645833,-0.209635417,0,0,0,,0,333,333,203,1,
,,,,,,,,,,,,,,,,,,5eda87309c985569eb4cb2e0,2020-08-10_18h21.37.687,lexical_decision_task_MP,2020.1.3,Win32,60,z,1,0.47823,,,,,,,,0.47823,1,,,,,,428,NW,"ID",33,tandly,TANDLY,z,,,,,,0.153645833,-0.209635417,0,0,0,,0,334,334,247,1,
,,,,,,,,,,,,,,,,,,5eda87309c985569eb4cb2e0,2020-08-10_18h21.37.687,lexical_decision_task_MP,2020.1.3,Win32,60,m,1,0.58178,,,,,,,,0.58178,1,,,,,,121,WORD,UN,50,linger,THRIVE,m,,,,,,0.153645833,-0.209635417,0,0,0,,0,335,335,180,1,
,,,,,,,,,,,,,,,,,,5eda87309c985569eb4cb2e0,2020-08-10_18h21.37.687,lexical_decision_task_MP,2020.1.3,Win32,60,z,1,0.54881,,,,,,,,0.54881,1,,,,,,440,NW,"ID",33,saride,SARIDE,z,,,,,,0.153645833,-0.209635417,0,0,0,,0,336,336,259,1,
,,,,,,,,,,,,,,,,,,5eda87309c985569eb4cb2e0,2020-08-10_18h21.37.687,lexical_decision_task_MP,2020.1.3,Win32,60,m,1,0.5831,,,,,,,,0.5831,1,,,,,,40,WORD,"ID",50,convey,CONVEY,m,,,,,,0.153645833,-0.209635417,0,0,0,,0,337,337,99,1,
,,,,,,,,,,,,,,,,,,5eda87309c985569eb4cb2e0,2020-08-10_18h21.37.687,lexical_decision_task_MP,2020.1.3,Win32,60,m,1,0.440495,,,,,,,,0.440495,1,,,,,,187,WORD,"ID",33,course,COURSE,m,,,,,,0.153645833,-0.209635417,0,0,0,,0,338,338,6,1,
,,,,,,,,,,,,,,,,,,5eda87309c985569eb4cb2e0,2020-08-10_18h21.37.687,lexical_decision_task_MP,2020.1.3,Win32,60,m,0,0.45697,,,,,,,,0.45697,0,,,,,,261,NW,"ID",50,stunch,STUNCH,z,,,,,,0.153645833,-0.209635417,0,0,0,,0,339,339,320,1,
,,,,,,,,,,,,,,,,,,5eda87309c985569eb4cb2e0,2020-08-10_18h21.37.687,lexical_decision_task_MP,2020.1.3,Win32,60,m,1,0.449245,,,,,,,,0.449245,1,,,,,,19,WORD,"ID",50,patron,PATRON,m,,,,,,0.153645833,-0.209635417,0,0,0,,0,340,340,78,1,
,,,,,,,,,,,,,,,,,,5eda87309c985569eb4cb2e0,2020-08-10_18h21.37.687,lexical_decision_task_MP,2020.1.3,Win32,60,m,1,0.470575,,,,,,,,0.470575,1,,,,,,13,WORD,"ID",50,strive,STRIVE,m,,,,,,0.153645833,-0.209635417,0,0,0,,0,341,341,72,1,
,,,,,,,,,,,,,,,,,,5eda87309c985569eb4cb2e0,2020-08-10_18h21.37.687,lexical_decision_task_MP,2020.1.3,Win32,60,z,1,0.46958,,,,,,,,0.46958,1,,,,,,390,NW,UN,50,theldy,HATRUS,z,,,,,,0.153645833,-0.209635417,0,0,0,,0,342,342,449,1,
,,,,,,,,,,,,,,,,,,5eda87309c985569eb4cb2e0,2020-08-10_18h21.37.687,lexical_decision_task_MP,2020.1.3,Win32,60,m,1,0.523515,,,,,,,,0.523515,1,,,,,,169,WORD,UN,50,pounce,GENIUS,m,,,,,,0.153645833,-0.209635417,0,0,0,,0,343,343,228,1,
,,,,,,,,,,,,,,,,,,5eda87309c985569eb4cb2e0,2020-08-10_18h21.37.687,lexical_decision_task_MP,2020.1.3,Win32,60,z,1,0.475475,,,,,,,,0.475475,1,,,,,,323,NW,UN,33,steikh,ROSAIL,z,,,,,,0.153645833,-0.209635417,0,0,0,,0,344,344,382,1,
,,,,,,,,,,,,,,,,,,5eda87309c985569eb4cb2e0,2020-08-10_18h21.37.687,lexical_decision_task_MP,2020.1.3,Win32,60,m,1,0.41748,,,,,,,,0.41748,1,,,,,,36,WORD,"ID",50,vanish,VANISH,m,,,,,,0.153645833,-0.209635417,0,0,0,,0,345,345,95,1,
,,,,,,,,,,,,,,,,,,5eda87309c985569eb4cb2e0,2020-08-10_18h21.37.687,lexical_decision_task_MP,2020.1.3,Win32,60,m,1,0.56692,,,,,,,,0.56692,1,,,,,,199,WORD,"ID",33,invoke,INVOKE,m,,,,,,0.153645833,-0.209635417,0,0,0,,0,346,346,18,1,
,,,,,,,,,,,,,,,,,,5eda87309c985569eb4cb2e0,2020-08-10_18h21.37.687,lexical_decision_task_MP,2020.1.3,Win32,60,z,1,0.53598,,,,,,,,0.53598,1,,,,,,446,NW,"ID",33,runamo,RUNAMO,z,,,,,,0.153645833,-0.209635417,0,0,0,,0,347,347,265,1,
,,,,,,,,,,,,,,,,,,5eda87309c985569eb4cb2e0,2020-08-10_18h21.37.687,lexical_decision_task_MP,2020.1.3,Win32,60,z,1,0.489685,,,,,,,,0.489685,1,,,,,,309,NW,UN,33,daniet,AMILOY,z,,,,,,0.153645833,-0.209635417,0,0,0,,0,348,348,368,1,
,,,,,,,,,,,,,,,,,,5eda87309c985569eb4cb2e0,2020-08-10_18h21.37.687,lexical_decision_task_MP,2020.1.3,Win32,60,m,1,0.449975,,,,,,,,0.449975,1,,,,,,231,WORD,"ID",33,export,EXPORT,m,,,,,,0.153645833,-0.209635417,0,0,0,,0,349,349,50,1,
,,,,,,,,,,,,,,,,,,5eda87309c985569eb4cb2e0,2020-08-10_18h21.37.687,lexical_decision_task_MP,2020.1.3,Win32,60,z,1,0.514995,,,,,,,,0.514995,1,,,,,,343,NW,UN,33,scrily,AIMOSY,z,,,,,,0.153645833,-0.209635417,0,0,0,,0,350,350,402,1,
,,,,,,,,,,,,,,,,,,5eda87309c985569eb4cb2e0,2020-08-10_18h21.37.687,lexical_decision_task_MP,2020.1.3,Win32,60,m,1,0.5017,,,,,,,,0.5017,1,,,,,,143,WORD,UN,50,sponge,REASON,m,,,,,,0.153645833,-0.209635417,0,0,0,,0,351,351,202,1,
,,,,,,,,,,,,,,,,,,5eda87309c985569eb4cb2e0,2020-08-10_18h21.37.687,lexical_decision_task_MP,2020.1.3,Win32,60,m,1,0.501155,,,,,,,,0.501155,1,,,,,,203,WORD,"ID",33,phrase,PHRASE,m,,,,,,0.153645833,-0.209635417,0,0,0,,0,352,352,22,1,
,,,,,,,,,,,,,,,,,,5eda87309c985569eb4cb2e0,2020-08-10_18h21.37.687,lexical_decision_task_MP,2020.1.3,Win32,60,m,1,0.541895,,,,,,,,0.541895,1,,,,,,30,WORD,"ID",50,orient,ORIENT,m,,,,,,0.153645833,-0.209635417,0,0,0,,0,353,353,89,1,
,,,,,,,,,,,,,,,,,,5eda87309c985569eb4cb2e0,2020-08-10_18h21.37.687,lexical_decision_task_MP,2020.1.3,Win32,60,z,1,0.53347,,,,,,,,0.53347,1,,,,,,424,NW,"ID",33,praile,PRAILE,z,,,,,,0.153645833,-0.209635417,0,0,0,,0,354,354,243,1,
,,,,,,,,,,,,,,,,,,5eda87309c985569eb4cb2e0,2020-08-10_18h21.37.687,lexical_decision_task_MP,2020.1.3,Win32,60,z,1,0.537155,,,,,,,,0.537155,1,,,,,,421,NW,"ID",33,knisma,KNISMA,z,,,,,,0.153645833,-0.209635417,0,0,0,,0,355,355,240,1,
,,,,,,,,,,,,,,,,,,5eda87309c985569eb4cb2e0,2020-08-10_18h21.37.687,lexical_decision_task_MP,2020.1.3,Win32,60,m,1,0.44965,,,,,,,,0.44965,1,,,,,,50,WORD,"ID",50,snatch,SNATCH,m,,,,,,0.153645833,-0.209635417,0,0,0,,0,356,356,109,1,
,,,,,,,,,,,,,,,,,,5eda87309c985569eb4cb2e0,2020-08-10_18h21.37.687,lexical_decision_task_MP,2020.1.3,Win32,60,z,1,0.539025,,,,,,,,0.539025,1,,,,,,275,NW,"ID",50,sleirt,SLEIRT,z,,,,,,0.153645833,-0.209635417,0,0,0,,0,357,357,334,1,
,,,,,,,,,,,,,,,,,,5eda87309c985569eb4cb2e0,2020-08-10_18h21.37.687,lexical_decision_task_MP,2020.1.3,Win32,60,z,0,0.416205,,,,,,,,0.416205,0,,,,,,82,WORD,UN,33,result,STIGMA,m,,,,,,0.153645833,-0.209635417,0,0,0,,0,358,358,141,1,
,,,,,,,,,,,,,,,,,,5eda87309c985569eb4cb2e0,2020-08-10_18h21.37.687,lexical_decision_task_MP,2020.1.3,Win32,60,z,1,0.65594,,,,,,,,0.65594,1,,,,,,409,NW,UN,50,tunory,ELOPIA,z,,,,,,0.153645833,-0.209635417,0,0,0,,0,359,359,468,1,
,,,,,,,,,,,,,,,,,,5eda87309c985569eb4cb2e0,2020-08-10_18h21.37.687,lexical_decision_task_MP,2020.1.3,Win32,60,m,1,0.50019,,,,,,,,0.50019,1,,,,,,84,WORD,UN,33,strand,MORTAL,m,,,,,,0.153645833,-0.209635417,0,0,0,,0,360,360,143,1,
,,,,,,,,,,,,,,,,,,5eda87309c985569eb4cb2e0,2020-08-10_18h21.37.687,lexical_decision_task_MP,2020.1.3,Win32,60,m,1,0.40047,,,,,,,,0.40047,1,,,,,,198,WORD,"ID",33,wicked,WICKED,m,,,,,,0.153645833,-0.209635417,0,0,0,,0,361,361,17,1,
,,,,,,,,,,,,,,,,,,5eda87309c985569eb4cb2e0,2020-08-10_18h21.37.687,lexical_decision_task_MP,2020.1.3,Win32,60,z,1,0.487765,,,,,,,,0.487765,1,,,,,,287,NW,"ID",50,nymbel,NYMBEL,z,,,,,,0.153645833,-0.209635417,0,0,0,space,0,362,362,346,1,1.013945
,,,,,,,,,,,,,,,,,,5eda87309c985569eb4cb2e0,2020-08-10_18h21.37.687,lexical_decision_task_MP,2020.1.3,Win32,60,z,1,0.49778,,,,,,,,0.49778,1,,,,,,308,NW,UN,33,amiloy,PSETCH,z,,,,,,0.153645833,-0.209635417,0,0,0,,0,363,363,367,1,
,,,,,,,,,,,,,,,,,,5eda87309c985569eb4cb2e0,2020-08-10_18h21.37.687,lexical_decision_task_MP,2020.1.3,Win32,60,m,1,0.506895,,,,,,,,0.506895,1,,,,,,226,WORD,"ID",33,casino,CASINO,m,,,,,,0.153645833,-0.209635417,0,0,0,,0,364,364,45,1,
,,,,,,,,,,,,,,,,,,5eda87309c985569eb4cb2e0,2020-08-10_18h21.37.687,lexical_decision_task_MP,2020.1.3,Win32,60,m,1,0.40733,,,,,,,,0.40733,1,,,,,,156,WORD,UN,50,depart,CRADLE,m,,,,,,0.153645833,-0.209635417,0,0,0,,0,365,365,215,1,
,,,,,,,,,,,,,,,,,,5eda87309c985569eb4cb2e0,2020-08-10_18h21.37.687,lexical_decision_task_MP,2020.1.3,Win32,60,m,0,0.46588,,,,,,,,0.46588,0,,,,,,433,NW,"ID",33,drance,DRANCE,z,,,,,,0.153645833,-0.209635417,0,0,0,,0,366,366,252,1,
,,,,,,,,,,,,,,,,,,5eda87309c985569eb4cb2e0,2020-08-10_18h21.37.687,lexical_decision_task_MP,2020.1.3,Win32,60,m,1,0.53762,,,,,,,,0.53762,1,,,,,,177,WORD,UN,50,inform,ADVENT,m,,,,,,0.153645833,-0.209635417,0,0,0,,0,367,367,236,1,
,,,,,,,,,,,,,,,,,,5eda87309c985569eb4cb2e0,2020-08-10_18h21.37.687,lexical_decision_task_MP,2020.1.3,Win32,60,z,1,0.56714,,,,,,,,0.56714,1,,,,,,277,NW,"ID",50,petain,PETAIN,z,,,,,,0.153645833,-0.209635417,0,0,0,,0,368,368,336,1,
,,,,,,,,,,,,,,,,,,5eda87309c985569eb4cb2e0,2020-08-10_18h21.37.687,lexical_decision_task_MP,2020.1.3,Win32,60,m,1,0.565815,,,,,,,,0.565815,1,,,,,,10,WORD,"ID",50,ethnic,ETHNIC,m,,,,,,0.153645833,-0.209635417,0,0,0,,0,369,369,69,1,
,,,,,,,,,,,,,,,,,,5eda87309c985569eb4cb2e0,2020-08-10_18h21.37.687,lexical_decision_task_MP,2020.1.3,Win32,60,z,1,0.599915,,,,,,,,0.599915,1,,,,,,401,NW,UN,50,syntic,MUSTIL,z,,,,,,0.153645833,-0.209635417,0,0,0,,0,370,370,460,1,
,,,,,,,,,,,,,,,,,,5eda87309c985569eb4cb2e0,2020-08-10_18h21.37.687,lexical_decision_task_MP,2020.1.3,Win32,60,z,1,0.649505,,,,,,,,0.649505,1,,,,,,396,NW,UN,50,camble,FLENGY,z,,,,,,0.153645833,-0.209635417,0,0,0,,0,371,371,455,1,
,,,,,,,,,,,,,,,,,,5eda87309c985569eb4cb2e0,2020-08-10_18h21.37.687,lexical_decision_task_MP,2020.1.3,Win32,60,z,1,0.57945,,,,,,,,0.57945,1,,,,,,370,NW,UN,50,geiloy,SLEACT,z,,,,,,0.153645833,-0.209635417,0,0,0,,0,372,372,429,1,
,,,,,,,,,,,,,,,,,,5eda87309c985569eb4cb2e0,2020-08-10_18h21.37.687,lexical_decision_task_MP,2020.1.3,Win32,60,m,0,0.471795,,,,,,,,0.471795,0,,,,,,398,NW,UN,50,fouret,BLUNDE,z,,,,,,0.153645833,-0.209635417,0,0,0,,0,373,373,457,1,
,,,,,,,,,,,,,,,,,,5eda87309c985569eb4cb2e0,2020-08-10_18h21.37.687,lexical_decision_task_MP,2020.1.3,Win32,60,m,1,0.436895,,,,,,,,0.436895,1,,,,,,58,WORD,"ID",50,foster,FOSTER,m,,,,,,0.153645833,-0.209635417,0,0,0,,0,374,374,117,1,
,,,,,,,,,,,,,,,,,,5eda87309c985569eb4cb2e0,2020-08-10_18h21.37.687,lexical_decision_task_MP,2020.1.3,Win32,60,m,1,0.417175,,,,,,,,0.417175,1,,,,,,239,WORD,"ID",33,lumber,LUMBER,m,,,,,,0.153645833,-0.209635417,0,0,0,,0,375,375,58,1,
,,,,,,,,,,,,,,,,,,5eda87309c985569eb4cb2e0,2020-08-10_18h21.37.687,lexical_decision_task_MP,2020.1.3,Win32,60,m,1,0.42258,,,,,,,,0.42258,1,,,,,,166,WORD,UN,50,design,STARCH,m,,,,,,0.153645833,-0.209635417,0,0,0,,0,376,376,225,1,
,,,,,,,,,,,,,,,,,,5eda87309c985569eb4cb2e0,2020-08-10_18h21.37.687,lexical_decision_task_MP,2020.1.3,Win32,60,m,1,0.46508,,,,,,,,0.46508,1,,,,,,88,WORD,UN,33,permit,HUNGER,m,,,,,,0.153645833,-0.209635417,0,0,0,,0,377,377,147,1,
,,,,,,,,,,,,,,,,,,5eda87309c985569eb4cb2e0,2020-08-10_18h21.37.687,lexical_decision_task_MP,2020.1.3,Win32,60,z,1,0.4935,,,,,,,,0.4935,1,,,,,,387,NW,UN,50,cragin,GRONCE,z,,,,,,0.153645833,-0.209635417,0,0,0,,0,378,378,446,1,
,,,,,,,,,,,,,,,,,,5eda87309c985569eb4cb2e0,2020-08-10_18h21.37.687,lexical_decision_task_MP,2020.1.3,Win32,60,m,1,0.584385,,,,,,,,0.584385,1,,,,,,4,WORD,"ID",50,trench,TRENCH,m,,,,,,0.153645833,-0.209635417,0,0,0,,0,379,379,63,1,
,,,,,,,,,,,,,,,,,,5eda87309c985569eb4cb2e0,2020-08-10_18h21.37.687,lexical_decision_task_MP,2020.1.3,Win32,60,m,1,0.371265,,,,,,,,0.371265,1,,,,,,229,WORD,"ID",33,mother,MOTHER,m,,,,,,0.153645833,-0.209635417,0,0,0,,0,380,380,48,1,
,,,,,,,,,,,,,,,,,,5eda87309c985569eb4cb2e0,2020-08-10_18h21.37.687,lexical_decision_task_MP,2020.1.3,Win32,60,m,1,0.590755,,,,,,,,0.590755,1,,,,,,149,WORD,UN,50,random,INVADE,m,,,,,,0.153645833,-0.209635417,0,0,0,,0,381,381,208,1,
,,,,,,,,,,,,,,,,,,5eda87309c985569eb4cb2e0,2020-08-10_18h21.37.687,lexical_decision_task_MP,2020.1.3,Win32,60,m,1,0.486805,,,,,,,,0.486805,1,,,,,,28,WORD,"ID",50,comedy,COMEDY,m,,,,,,0.153645833,-0.209635417,0,0,0,,0,382,382,87,1,
,,,,,,,,,,,,,,,,,,5eda87309c985569eb4cb2e0,2020-08-10_18h21.37.687,lexical_decision_task_MP,2020.1.3,Win32,60,z,1,0.64727,,,,,,,,0.64727,1,,,,,,333,NW,UN,33,watmeg,CATRIE,z,,,,,,0.153645833,-0.209635417,0,0,0,,0,383,383,392,1,
,,,,,,,,,,,,,,,,,,5eda87309c985569eb4cb2e0,2020-08-10_18h21.37.687,lexical_decision_task_MP,2020.1.3,Win32,60,m,1,0.50454,,,,,,,,0.50454,1,,,,,,129,WORD,UN,50,stupid,MARVEL,m,,,,,,0.153645833,-0.209635417,0,0,0,,0,384,384,188,1,
,,,,,,,,,,,,,,,,,,5eda87309c985569eb4cb2e0,2020-08-10_18h21.37.687,lexical_decision_task_MP,2020.1.3,Win32,60,m,0,0.468165,,,,,,,,0.468165,0,,,,,,445,NW,"ID",33,minkel,MINKEL,z,,,,,,0.153645833,-0.209635417,0,0,0,,0,385,385,264,1,
,,,,,,,,,,,,,,,,,,5eda87309c985569eb4cb2e0,2020-08-10_18h21.37.687,lexical_decision_task_MP,2020.1.3,Win32,60,z,1,0.521795,,,,,,,,0.521795,1,,,,,,402,NW,UN,50,bruats,SYNTIC,z,,,,,,0.153645833,-0.209635417,0,0,0,,0,386,386,461,1,
,,,,,,,,,,,,,,,,,,5eda87309c985569eb4cb2e0,2020-08-10_18h21.37.687,lexical_decision_task_MP,2020.1.3,Win32,60,z,1,0.78431,,,,,,,,0.78431,1,,,,,,399,NW,UN,50,wearox,FOURET,z,,,,,,0.153645833,-0.209635417,0,0,0,,0,387,387,458,1,
,,,,,,,,,,,,,,,,,,5eda87309c985569eb4cb2e0,2020-08-10_18h21.37.687,lexical_decision_task_MP,2020.1.3,Win32,60,z,1,0.502,,,,,,,,0.502,1,,,,,,327,NW,UN,33,broake,PLENAC,z,,,,,,0.153645833,-0.209635417,0,0,0,,0,388,388,386,1,
,,,,,,,,,,,,,,,,,,5eda87309c985569eb4cb2e0,2020-08-10_18h21.37.687,lexical_decision_task_MP,2020.1.3,Win32,60,m,1,0.70023,,,,,,,,0.70023,1,,,,,,91,WORD,UN,33,hunger,EXPAND,m,,,,,,0.153645833,-0.209635417,0,0,0,,0,389,389,150,1,
,,,,,,,,,,,,,,,,,,5eda87309c985569eb4cb2e0,2020-08-10_18h21.37.687,lexical_decision_task_MP,2020.1.3,Win32,60,z,0,0.45193,,,,,,,,0.45193,0,,,,,,76,WORD,UN,33,racket,EXOTIC,m,,,,,,0.153645833,-0.209635417,0,0,0,,0,390,390,135,1,
,,,,,,,,,,,,,,,,,,5eda87309c985569eb4cb2e0,2020-08-10_18h21.37.687,lexical_decision_task_MP,2020.1.3,Win32,60,m,0,0.45482,,,,,,,,0.45482,0,,,,,,313,NW,UN,33,sprine,PAURSE,z,,,,,,0.153645833,-0.209635417,0,0,0,,0,391,391,372,1,
,,,,,,,,,,,,,,,,,,5eda87309c985569eb4cb2e0,2020-08-10_18h21.37.687,lexical_decision_task_MP,2020.1.3,Win32,60,m,1,0.604885,,,,,,,,0.604885,1,,,,,,110,WORD,UN,33,induce,POLITE,m,,,,,,0.153645833,-0.209635417,0,0,0,,0,392,392,169,1,
,,,,,,,,,,,,,,,,,,5eda87309c985569eb4cb2e0,2020-08-10_18h21.37.687,lexical_decision_task_MP,2020.1.3,Win32,60,z,1,0.50848,,,,,,,,0.50848,1,,,,,,465,NW,"ID",33,whivex,WHIVEX,z,,,,,,0.153645833,-0.209635417,0,0,0,,0,393,393,284,1,
,,,,,,,,,,,,,,,,,,5eda87309c985569eb4cb2e0,2020-08-10_18h21.37.687,lexical_decision_task_MP,2020.1.3,Win32,60,m,1,0.52236,,,,,,,,0.52236,1,,,,,,52,WORD,"ID",50,impose,IMPOSE,m,,,,,,0.153645833,-0.209635417,0,0,0,,0,394,394,111,1,
,,,,,,,,,,,,,,,,,,5eda87309c985569eb4cb2e0,2020-08-10_18h21.37.687,lexical_decision_task_MP,2020.1.3,Win32,60,m,1,0.6525,,,,,,,,0.6525,1,,,,,,122,WORD,UN,50,strike,LINGER,m,,,,,,0.153645833,-0.209635417,0,0,0,,0,395,395,181,1,
,,,,,,,,,,,,,,,,,,5eda87309c985569eb4cb2e0,2020-08-10_18h21.37.687,lexical_decision_task_MP,2020.1.3,Win32,60,m,1,0.42762,,,,,,,,0.42762,1,,,,,,9,WORD,"ID",50,hustle,HUSTLE,m,,,,,,0.153645833,-0.209635417,0,0,0,,0,396,396,68,1,
,,,,,,,,,,,,,,,,,,5eda87309c985569eb4cb2e0,2020-08-10_18h21.37.687,lexical_decision_task_MP,2020.1.3,Win32,60,m,1,0.454865,,,,,,,,0.454865,1,,,,,,150,WORD,UN,50,mystic,RANDOM,m,,,,,,0.153645833,-0.209635417,0,0,0,,0,397,397,209,1,
,,,,,,,,,,,,,,,,,,5eda87309c985569eb4cb2e0,2020-08-10_18h21.37.687,lexical_decision_task_MP,2020.1.3,Win32,60,m,1,0.46453,,,,,,,,0.46453,1,,,,,,236,WORD,"ID",33,pirate,PIRATE,m,,,,,,0.153645833,-0.209635417,0,0,0,,0,398,398,55,1,
,,,,,,,,,,,,,,,,,,5eda87309c985569eb4cb2e0,2020-08-10_18h21.37.687,lexical_decision_task_MP,2020.1.3,Win32,60,z,1,0.487885,,,,,,,,0.487885,1,,,,,,256,NW,"ID",50,inlors,INLORS,z,,,,,,0.153645833,-0.209635417,0,0,0,,0,399,399,315,1,
,,,,,,,,,,,,,,,,,,5eda87309c985569eb4cb2e0,2020-08-10_18h21.37.687,lexical_decision_task_MP,2020.1.3,Win32,60,m,1,0.723585,,,,,,,,0.723585,1,,,,,,165,WORD,UN,50,starch,INVEST,m,,,,,,0.153645833,-0.209635417,0,0,0,,0,400,400,224,1,
,,,,,,,,,,,,,,,,,,5eda87309c985569eb4cb2e0,2020-08-10_18h21.37.687,lexical_decision_task_MP,2020.1.3,Win32,60,m,1,0.40774,,,,,,,,0.40774,1,,,,,,197,WORD,"ID",33,stream,STREAM,m,,,,,,0.153645833,-0.209635417,0,0,0,,0,401,401,16,1,
,,,,,,,,,,,,,,,,,,5eda87309c985569eb4cb2e0,2020-08-10_18h21.37.687,lexical_decision_task_MP,2020.1.3,Win32,60,m,1,0.453725,,,,,,,,0.453725,1,,,,,,153,WORD,UN,50,author,BEHOLD,m,,,,,,0.153645833,-0.209635417,0,0,0,,0,402,402,212,1,
,,,,,,,,,,,,,,,,,,5eda87309c985569eb4cb2e0,2020-08-10_18h21.37.687,lexical_decision_task_MP,2020.1.3,Win32,60,z,1,0.43651,,,,,,,,0.43651,1,,,,,,361,NW,UN,50,tireau,PAUCHE,z,,,,,,0.153645833,-0.209635417,0,0,0,,0,403,403,420,1,
,,,,,,,,,,,,,,,,,,5eda87309c985569eb4cb2e0,2020-08-10_18h21.37.687,lexical_decision_task_MP,2020.1.3,Win32,60,z,1,0.443585,,,,,,,,0.443585,1,,,,,,383,NW,UN,50,guesco,AUNGRE,z,,,,,,0.153645833,-0.209635417,0,0,0,,0,404,404,442,1,
