counterbalancing_condition,instr_done_keyboard.keys,instr_done_keyboard.rt,instr_done_touch.x,instr_done_touch.y,instr_done_touch.leftButton,instr_done_touch.midButton,instr_done_touch.rightButton,instruction_pages.thisRepN,instruction_pages.thisTrialN,instruction_pages.thisN,instruction_pages.thisIndex,instruction_pages.ran,pageN,phase,instruct_text,has_image,instruct_image,participant,date,expName,psychopyVersion,OS,frameRate,response.keys,response.corr,response.rt,touch_resp.x,touch_resp.y,touch_resp.leftButton,touch_resp.midButton,touch_resp.rightButton,touch_resp.time,touch_resp.clicked_name,rt,corr,practice_trials.thisRepN,practice_trials.thisTrialN,practice_trials.thisN,practice_trials.thisIndex,practice_trials.ran,TrialID,StimulusType,Condition,PrimeDuration,Prime,Target,corrAns,end_of_practice_trials_pages.thisRepN,end_of_practice_trials_pages.thisTrialN,end_of_practice_trials_pages.thisN,end_of_practice_trials_pages.thisIndex,end_of_practice_trials_pages.ran,break_done_touch.x,break_done_touch.y,break_done_touch.leftButton,break_done_touch.midButton,break_done_touch.rightButton,break_done_keyboard.keys,trials.thisRepN,trials.thisTrialN,trials.thisN,trials.thisIndex,trials.ran,break_done_keyboard.rt
3,space,7.333495,-0.052044271,-0.054192708,0,0,0,0,0,0,0,1,1,instructions,"INSTRUCTIONS
At the start of each trial, look at the hash marks (######) in the center of the screen. After a moment, a string of letters will appear. Your task is to indicate if the letter string forms a word or not (i.e., if it is a nonword). For example, AUTHOR is a word while AUTHON is a nonword.

Press the space bar or touch the button below to continue.",0,,5edea84a36d2b814cfce6116,2020-08-10_12h09.59.072,lexical_decision_task_MP,2020.1.3,MacIntel,60,,,,,,,,,,,,,,,,,,,,,,,,,,,,,,,,,,,,,,,,,
,space,7.557605,-0.052044271,-0.054192708,0,0,0,0,1,1,1,1,2,instructions,"If your device has a keyboard, press the 'Z' key for nonwords and the 'M' key for words.





Press the space bar or touch the button below to continue.",1,keyboard-example.gif,5edea84a36d2b814cfce6116,2020-08-10_12h09.59.072,lexical_decision_task_MP,2020.1.3,MacIntel,60,,,,,,,,,,,,,,,,,,,,,,,,,,,,,,,,,,,,,,,,,
,space,2.955905,-0.052044271,-0.054192708,0,0,0,0,2,2,2,1,3,instructions,"If you are using a touchscreen only device, use the buttons on the screen. Do not use the mouse.





Press the space bar or touch the button below to continue.",1,touchscreen-example.gif,5edea84a36d2b814cfce6116,2020-08-10_12h09.59.072,lexical_decision_task_MP,2020.1.3,MacIntel,60,,,,,,,,,,,,,,,,,,,,,,,,,,,,,,,,,,,,,,,,,
,space,4.44831,-0.052044271,-0.054192708,0,0,0,0,3,3,3,1,4,instructions,"It is very important that you respond as quickly and accurately as possible, as each letter string will only be on the screen for two seconds. If you do not respond within this time, the message 'Too slow!' will be displayed and the experiment will progress to the next letter string. The first 20 trials will be practice trials and you will receive feedback on your answers. 

Press the space bar or touch the button below to start the practice trials.",0,,5edea84a36d2b814cfce6116,2020-08-10_12h09.59.072,lexical_decision_task_MP,2020.1.3,MacIntel,60,,,,,,,,,,,,,,,,,,,,,,,,,,,,,,,,,,,,,,,,,
,,,,,,,,,,,,,,,,,,5edea84a36d2b814cfce6116,2020-08-10_12h09.59.072,lexical_decision_task_MP,2020.1.3,MacIntel,60,m,1,0.83541,,,,,,,,0.83541,1,0,0,0,2,1,1003,WORD,"ID",50,almond,ALMOND,m,,,,,,,,,,,,,,,,,
,,,,,,,,,,,,,,,,,,5edea84a36d2b814cfce6116,2020-08-10_12h09.59.072,lexical_decision_task_MP,2020.1.3,MacIntel,60,z,1,1.0215,,,,,,,,1.0215,1,0,1,1,14,1,1015,NW,UN,50,miaber,THRALE,z,,,,,,,,,,,,,,,,,
,,,,,,,,,,,,,,,,,,5edea84a36d2b814cfce6116,2020-08-10_12h09.59.072,lexical_decision_task_MP,2020.1.3,MacIntel,60,z,1,0.92662,,,,,,,,0.92662,1,0,2,2,12,1,1013,NW,UN,33,adveil,SPRINY,z,,,,,,,,,,,,,,,,,
,,,,,,,,,,,,,,,,,,5edea84a36d2b814cfce6116,2020-08-10_12h09.59.072,lexical_decision_task_MP,2020.1.3,MacIntel,60,z,1,0.72017,,,,,,,,0.72017,1,0,3,3,10,1,1011,NW,"ID",50,inlade,INLADE,z,,,,,,,,,,,,,,,,,
,,,,,,,,,,,,,,,,,,5edea84a36d2b814cfce6116,2020-08-10_12h09.59.072,lexical_decision_task_MP,2020.1.3,MacIntel,60,z,1,0.753805,,,,,,,,0.753805,1,0,4,4,11,1,1012,NW,"ID",50,rashet,RASHET,z,,,,,,,,,,,,,,,,,
,,,,,,,,,,,,,,,,,,5edea84a36d2b814cfce6116,2020-08-10_12h09.59.072,lexical_decision_task_MP,2020.1.3,MacIntel,60,m,0,0.57509,,,,,,,,0.57509,0,0,5,5,15,1,1016,NW,UN,50,mushed,WHAISE,z,,,,,,,,,,,,,,,,,
,,,,,,,,,,,,,,,,,,5edea84a36d2b814cfce6116,2020-08-10_12h09.59.072,lexical_decision_task_MP,2020.1.3,MacIntel,60,m,1,0.556275,,,,,,,,0.556275,1,0,6,6,3,1,1004,WORD,"ID",50,matrix,MATRIX,m,,,,,,,,,,,,,,,,,
,,,,,,,,,,,,,,,,,,5edea84a36d2b814cfce6116,2020-08-10_12h09.59.072,lexical_decision_task_MP,2020.1.3,MacIntel,60,z,1,0.63222,,,,,,,,0.63222,1,0,7,7,13,1,1014,NW,UN,33,winfer,ROUPET,z,,,,,,,,,,,,,,,,,
,,,,,,,,,,,,,,,,,,5edea84a36d2b814cfce6116,2020-08-10_12h09.59.072,lexical_decision_task_MP,2020.1.3,MacIntel,60,m,1,0.97201,,,,,,,,0.97201,1,0,8,8,7,1,1008,WORD,UN,50,hurdle,VOLUME,m,,,,,,,,,,,,,,,,,
,,,,,,,,,,,,,,,,,,5edea84a36d2b814cfce6116,2020-08-10_12h09.59.072,lexical_decision_task_MP,2020.1.3,MacIntel,60,z,1,0.665875,,,,,,,,0.665875,1,0,9,9,9,1,1010,NW,"ID",33,fariny,FARINY,z,,,,,,,,,,,,,,,,,
,,,,,,,,,,,,,,,,,,5edea84a36d2b814cfce6116,2020-08-10_12h09.59.072,lexical_decision_task_MP,2020.1.3,MacIntel,60,m,1,0.75789,,,,,,,,0.75789,1,0,10,10,0,1,1001,WORD,"ID",33,utopia,UTOPIA,m,,,,,,,,,,,,,,,,,
,,,,,,,,,,,,,,,,,,5edea84a36d2b814cfce6116,2020-08-10_12h09.59.072,lexical_decision_task_MP,2020.1.3,MacIntel,60,m,1,0.63408,,,,,,,,0.63408,1,0,11,11,5,1,1006,WORD,UN,33,frenzy,OBTAIN,m,,,,,,,,,,,,,,,,,
,,,,,,,,,,,,,,,,,,5edea84a36d2b814cfce6116,2020-08-10_12h09.59.072,lexical_decision_task_MP,2020.1.3,MacIntel,60,m,1,0.552255,,,,,,,,0.552255,1,0,12,12,1,1,1002,WORD,"ID",33,adjust,ADJUST,m,,,,,,,,,,,,,,,,,
,,,,,,,,,,,,,,,,,,5edea84a36d2b814cfce6116,2020-08-10_12h09.59.072,lexical_decision_task_MP,2020.1.3,MacIntel,60,z,0,0.5674,,,,,,,,0.5674,0,0,13,13,6,1,1007,WORD,UN,50,tropic,ZOMBIE,m,,,,,,,,,,,,,,,,,
,,,,,,,,,,,,,,,,,,5edea84a36d2b814cfce6116,2020-08-10_12h09.59.072,lexical_decision_task_MP,2020.1.3,MacIntel,60,m,1,0.61994,,,,,,,,0.61994,1,0,14,14,4,1,1005,WORD,UN,33,abound,SQUEAK,m,,,,,,,,,,,,,,,,,
,,,,,,,,,,,,,,,,,,5edea84a36d2b814cfce6116,2020-08-10_12h09.59.072,lexical_decision_task_MP,2020.1.3,MacIntel,60,z,1,0.64851,,,,,,,,0.64851,1,0,15,15,8,1,1009,NW,"ID",33,aslert,ASLERT,z,,,,,,,,,,,,,,,,,
,space,6.1636,-0.052044271,-0.054192708,0,0,0,,,,,,1,end_of_practice,"You have completed the practice trials. During the experimental trials, you will not receive feedback, but it is very important that you respond as quickly and accurately as possible. 
Before you begin, please ensure that you are in a comfortable and quiet location and will not be disturbed for about 15 minutes, as we cannot use your data if you do not complete all the trials. 
There will be opportunities to take breaks at regular intervals during the experiment. When you are ready to start the experimental trials, please press space or touch the button below.",,,5edea84a36d2b814cfce6116,2020-08-10_12h09.59.072,lexical_decision_task_MP,2020.1.3,MacIntel,60,,,,,,,,,,,,,,,,,,,,,,,,,0,0,0,0,1,,,,,,,,,,,,
,,,,,,,,,,,,,,,,,,5edea84a36d2b814cfce6116,2020-08-10_12h09.59.072,lexical_decision_task_MP,2020.1.3,MacIntel,60,m,1,0.988785,,,,,,,,0.988785,1,,,,,,120,WORD,"ID",33,strain,STRAIN,m,,,,,,-0.052044271,-0.054192708,0,0,0,,0,0,0,59,1,
,,,,,,,,,,,,,,,,,,5edea84a36d2b814cfce6116,2020-08-10_12h09.59.072,lexical_decision_task_MP,2020.1.3,MacIntel,60,m,1,0.57078,,,,,,,,0.57078,1,,,,,,213,WORD,UN,33,intake,SQUEAL,m,,,,,,-0.052044271,-0.054192708,0,0,0,,0,1,1,152,1,
,,,,,,,,,,,,,,,,,,5edea84a36d2b814cfce6116,2020-08-10_12h09.59.072,lexical_decision_task_MP,2020.1.3,MacIntel,60,m,1,0.50632,,,,,,,,0.50632,1,,,,,,193,WORD,UN,33,mildew,OBJECT,m,,,,,,-0.052044271,-0.054192708,0,0,0,,0,2,2,132,1,
,,,,,,,,,,,,,,,,,,5edea84a36d2b814cfce6116,2020-08-10_12h09.59.072,lexical_decision_task_MP,2020.1.3,MacIntel,60,m,1,0.63831,,,,,,,,0.63831,1,,,,,,234,WORD,UN,33,poster,CLUMSY,m,,,,,,-0.052044271,-0.054192708,0,0,0,,0,3,3,173,1,
,,,,,,,,,,,,,,,,,,5edea84a36d2b814cfce6116,2020-08-10_12h09.59.072,lexical_decision_task_MP,2020.1.3,MacIntel,60,m,1,0.700875,,,,,,,,0.700875,1,,,,,,16,WORD,UN,50,charge,FAUCET,m,,,,,,-0.052044271,-0.054192708,0,0,0,,0,4,4,195,1,
,,,,,,,,,,,,,,,,,,5edea84a36d2b814cfce6116,2020-08-10_12h09.59.072,lexical_decision_task_MP,2020.1.3,MacIntel,60,z,1,0.770825,,,,,,,,0.770825,1,,,,,,461,NW,UN,33,absult,JUSTRE,z,,,,,,-0.052044271,-0.054192708,0,0,0,,0,5,5,400,1,
,,,,,,,,,,,,,,,,,,5edea84a36d2b814cfce6116,2020-08-10_12h09.59.072,lexical_decision_task_MP,2020.1.3,MacIntel,60,z,1,0.69975,,,,,,,,0.69975,1,,,,,,259,NW,UN,50,unject,SOUDAL,z,,,,,,-0.052044271,-0.054192708,0,0,0,,0,6,6,438,1,
,,,,,,,,,,,,,,,,,,5edea84a36d2b814cfce6116,2020-08-10_12h09.59.072,lexical_decision_task_MP,2020.1.3,MacIntel,60,z,1,0.521005,,,,,,,,0.521005,1,,,,,,392,NW,"ID",50,rouncy,ROUNCY,z,,,,,,-0.052044271,-0.054192708,0,0,0,,0,7,7,331,1,
,,,,,,,,,,,,,,,,,,5edea84a36d2b814cfce6116,2020-08-10_12h09.59.072,lexical_decision_task_MP,2020.1.3,MacIntel,60,z,1,0.817135,,,,,,,,0.817135,1,,,,,,276,NW,UN,50,petain,YARMON,z,,,,,,-0.052044271,-0.054192708,0,0,0,,0,8,8,455,1,
,,,,,,,,,,,,,,,,,,5edea84a36d2b814cfce6116,2020-08-10_12h09.59.072,lexical_decision_task_MP,2020.1.3,MacIntel,60,z,1,0.58529,,,,,,,,0.58529,1,,,,,,378,NW,"ID",50,shrile,SHRILE,z,,,,,,-0.052044271,-0.054192708,0,0,0,,0,9,9,317,1,
,,,,,,,,,,,,,,,,,,5edea84a36d2b814cfce6116,2020-08-10_12h09.59.072,lexical_decision_task_MP,2020.1.3,MacIntel,60,z,1,0.49153,,,,,,,,0.49153,1,,,,,,406,NW,"ID",50,nouply,NOUPLY,z,,,,,,-0.052044271,-0.054192708,0,0,0,,0,10,10,345,1,
,,,,,,,,,,,,,,,,,,5edea84a36d2b814cfce6116,2020-08-10_12h09.59.072,lexical_decision_task_MP,2020.1.3,MacIntel,60,m,1,0.56752,,,,,,,,0.56752,1,,,,,,236,WORD,UN,33,grumpy,PIRATE,m,,,,,,-0.052044271,-0.054192708,0,0,0,,0,11,11,175,1,
,,,,,,,,,,,,,,,,,,5edea84a36d2b814cfce6116,2020-08-10_12h09.59.072,lexical_decision_task_MP,2020.1.3,MacIntel,60,m,1,0.51636,,,,,,,,0.51636,1,,,,,,210,WORD,UN,33,infect,MONKEY,m,,,,,,-0.052044271,-0.054192708,0,0,0,,0,12,12,149,1,
,,,,,,,,,,,,,,,,,,5edea84a36d2b814cfce6116,2020-08-10_12h09.59.072,lexical_decision_task_MP,2020.1.3,MacIntel,60,m,1,0.53159,,,,,,,,0.53159,1,,,,,,240,WORD,UN,33,seldom,FOREST,m,,,,,,-0.052044271,-0.054192708,0,0,0,,0,13,13,179,1,
,,,,,,,,,,,,,,,,,,5edea84a36d2b814cfce6116,2020-08-10_12h09.59.072,lexical_decision_task_MP,2020.1.3,MacIntel,60,z,1,0.533685,,,,,,,,0.533685,1,,,,,,287,NW,UN,50,yaceup,NYMBEL,z,,,,,,-0.052044271,-0.054192708,0,0,0,,0,14,14,466,1,
,,,,,,,,,,,,,,,,,,5edea84a36d2b814cfce6116,2020-08-10_12h09.59.072,lexical_decision_task_MP,2020.1.3,MacIntel,60,m,1,0.632675,,,,,,,,0.632675,1,,,,,,89,WORD,"ID",33,permit,PERMIT,m,,,,,,-0.052044271,-0.054192708,0,0,0,,0,15,15,28,1,
,,,,,,,,,,,,,,,,,,5edea84a36d2b814cfce6116,2020-08-10_12h09.59.072,lexical_decision_task_MP,2020.1.3,MacIntel,60,z,1,0.59917,,,,,,,,0.59917,1,,,,,,445,NW,UN,33,runamo,MINKEL,z,,,,,,-0.052044271,-0.054192708,0,0,0,,0,16,16,384,1,
,,,,,,,,,,,,,,,,,,5edea84a36d2b814cfce6116,2020-08-10_12h09.59.072,lexical_decision_task_MP,2020.1.3,MacIntel,60,z,1,0.792,,,,,,,,0.792,1,,,,,,409,NW,"ID",50,elopia,ELOPIA,z,,,,,,-0.052044271,-0.054192708,0,0,0,,0,17,17,348,1,
,,,,,,,,,,,,,,,,,,5edea84a36d2b814cfce6116,2020-08-10_12h09.59.072,lexical_decision_task_MP,2020.1.3,MacIntel,60,z,1,0.540925,,,,,,,,0.540925,1,,,,,,400,NW,"ID",50,wearox,WEAROX,z,,,,,,-0.052044271,-0.054192708,0,0,0,,0,18,18,339,1,
,,,,,,,,,,,,,,,,,,5edea84a36d2b814cfce6116,2020-08-10_12h09.59.072,lexical_decision_task_MP,2020.1.3,MacIntel,60,z,1,0.667725,,,,,,,,0.667725,1,,,,,,448,NW,UN,33,brunge,SADENT,z,,,,,,-0.052044271,-0.054192708,0,0,0,,0,19,19,387,1,
,,,,,,,,,,,,,,,,,,5edea84a36d2b814cfce6116,2020-08-10_12h09.59.072,lexical_decision_task_MP,2020.1.3,MacIntel,60,m,1,0.48772,,,,,,,,0.48772,1,,,,,,109,WORD,"ID",33,wonder,WONDER,m,,,,,,-0.052044271,-0.054192708,0,0,0,,0,20,20,48,1,
,,,,,,,,,,,,,,,,,,5edea84a36d2b814cfce6116,2020-08-10_12h09.59.072,lexical_decision_task_MP,2020.1.3,MacIntel,60,z,1,0.512715,,,,,,,,0.512715,1,,,,,,330,NW,"ID",33,kensom,KENSOM,z,,,,,,-0.052044271,-0.054192708,0,0,0,,0,21,21,269,1,
,,,,,,,,,,,,,,,,,,5edea84a36d2b814cfce6116,2020-08-10_12h09.59.072,lexical_decision_task_MP,2020.1.3,MacIntel,60,m,1,0.57159,,,,,,,,0.57159,1,,,,,,205,WORD,UN,33,tailor,LOUNGE,m,,,,,,-0.052044271,-0.054192708,0,0,0,,0,22,22,144,1,
,,,,,,,,,,,,,,,,,,5edea84a36d2b814cfce6116,2020-08-10_12h09.59.072,lexical_decision_task_MP,2020.1.3,MacIntel,60,m,1,0.72287,,,,,,,,0.72287,1,,,,,,216,WORD,UN,33,liquor,BEHALF,m,,,,,,-0.052044271,-0.054192708,0,0,0,,0,23,23,155,1,
,,,,,,,,,,,,,,,,,,5edea84a36d2b814cfce6116,2020-08-10_12h09.59.072,lexical_decision_task_MP,2020.1.3,MacIntel,60,z,1,0.586755,,,,,,,,0.586755,1,,,,,,438,NW,UN,33,limpor,BAITCH,z,,,,,,-0.052044271,-0.054192708,0,0,0,,0,24,24,377,1,
,,,,,,,,,,,,,,,,,,5edea84a36d2b814cfce6116,2020-08-10_12h09.59.072,lexical_decision_task_MP,2020.1.3,MacIntel,60,z,1,0.822855,,,,,,,,0.822855,1,,,,,,398,NW,"ID",50,blunde,BLUNDE,z,,,,,,-0.052044271,-0.054192708,0,0,0,,0,25,25,337,1,
,,,,,,,,,,,,,,,,,,5edea84a36d2b814cfce6116,2020-08-10_12h09.59.072,lexical_decision_task_MP,2020.1.3,MacIntel,60,m,1,0.485385,,,,,,,,0.485385,1,,,,,,147,WORD,"ID",50,garlic,GARLIC,m,,,,,,-0.052044271,-0.054192708,0,0,0,,0,26,26,86,1,
,,,,,,,,,,,,,,,,,,5edea84a36d2b814cfce6116,2020-08-10_12h09.59.072,lexical_decision_task_MP,2020.1.3,MacIntel,60,m,1,0.516235,,,,,,,,0.516235,1,,,,,,60,WORD,UN,50,fright,PENCIL,m,,,,,,-0.052044271,-0.054192708,0,0,0,,0,27,27,239,1,
,,,,,,,,,,,,,,,,,,5edea84a36d2b814cfce6116,2020-08-10_12h09.59.072,lexical_decision_task_MP,2020.1.3,MacIntel,60,m,1,0.583285,,,,,,,,0.583285,1,,,,,,49,WORD,UN,50,snatch,SURVEY,m,,,,,,-0.052044271,-0.054192708,0,0,0,,0,28,28,228,1,
,,,,,,,,,,,,,,,,,,5edea84a36d2b814cfce6116,2020-08-10_12h09.59.072,lexical_decision_task_MP,2020.1.3,MacIntel,60,z,1,0.73902,,,,,,,,0.73902,1,,,,,,437,NW,UN,33,baitch,SNAPEL,z,,,,,,-0.052044271,-0.054192708,0,0,0,,0,29,29,376,1,
,,,,,,,,,,,,,,,,,,5edea84a36d2b814cfce6116,2020-08-10_12h09.59.072,lexical_decision_task_MP,2020.1.3,MacIntel,60,z,1,0.65428,,,,,,,,0.65428,1,,,,,,368,NW,"ID",50,hornal,HORNAL,z,,,,,,-0.052044271,-0.054192708,0,0,0,,0,30,30,307,1,
,,,,,,,,,,,,,,,,,,5edea84a36d2b814cfce6116,2020-08-10_12h09.59.072,lexical_decision_task_MP,2020.1.3,MacIntel,60,z,1,0.518785,,,,,,,,0.518785,1,,,,,,468,NW,UN,33,padifs,WICTOR,z,,,,,,-0.052044271,-0.054192708,0,0,0,,0,31,31,407,1,
,,,,,,,,,,,,,,,,,,5edea84a36d2b814cfce6116,2020-08-10_12h09.59.072,lexical_decision_task_MP,2020.1.3,MacIntel,60,m,1,0.668755,,,,,,,,0.668755,1,,,,,,46,WORD,UN,50,income,SINGLE,m,,,,,,-0.052044271,-0.054192708,0,0,0,,0,32,32,225,1,
,,,,,,,,,,,,,,,,,,5edea84a36d2b814cfce6116,2020-08-10_12h09.59.072,lexical_decision_task_MP,2020.1.3,MacIntel,60,z,1,0.53911,,,,,,,,0.53911,1,,,,,,299,NW,UN,50,yarion,STURCH,z,,,,,,-0.052044271,-0.054192708,0,0,0,,0,33,33,478,1,
,,,,,,,,,,,,,,,,,,5edea84a36d2b814cfce6116,2020-08-10_12h09.59.072,lexical_decision_task_MP,2020.1.3,MacIntel,60,z,1,0.50246,,,,,,,,0.50246,1,,,,,,383,NW,"ID",50,aungre,AUNGRE,z,,,,,,-0.052044271,-0.054192708,0,0,0,,0,34,34,322,1,
,,,,,,,,,,,,,,,,,,5edea84a36d2b814cfce6116,2020-08-10_12h09.59.072,lexical_decision_task_MP,2020.1.3,MacIntel,60,z,1,0.574405,,,,,,,,0.574405,1,,,,,,313,NW,"ID",33,paurse,PAURSE,z,,,,,,-0.052044271,-0.054192708,0,0,0,,0,35,35,252,1,
,,,,,,,,,,,,,,,,,,5edea84a36d2b814cfce6116,2020-08-10_12h09.59.072,lexical_decision_task_MP,2020.1.3,MacIntel,60,z,1,0.485985,,,,,,,,0.485985,1,,,,,,280,NW,UN,50,melaty,CURBOL,z,,,,,,-0.052044271,-0.054192708,0,0,0,,0,36,36,459,1,
,,,,,,,,,,,,,,,,,,5edea84a36d2b814cfce6116,2020-08-10_12h09.59.072,lexical_decision_task_MP,2020.1.3,MacIntel,60,m,1,0.63565,,,,,,,,0.63565,1,,,,,,69,WORD,"ID",33,plenty,PLENTY,m,,,,,,-0.052044271,-0.054192708,0,0,0,,0,37,37,8,1,
,,,,,,,,,,,,,,,,,,5edea84a36d2b814cfce6116,2020-08-10_12h09.59.072,lexical_decision_task_MP,2020.1.3,MacIntel,60,z,1,0.51985,,,,,,,,0.51985,1,,,,,,442,NW,UN,33,dorsex,ABOUNE,z,,,,,,-0.052044271,-0.054192708,0,0,0,,0,38,38,381,1,
,,,,,,,,,,,,,,,,,,5edea84a36d2b814cfce6116,2020-08-10_12h09.59.072,lexical_decision_task_MP,2020.1.3,MacIntel,60,m,1,0.671625,,,,,,,,0.671625,1,,,,,,8,WORD,UN,50,hustle,ABRUPT,m,,,,,,-0.052044271,-0.054192708,0,0,0,,0,39,39,187,1,
,,,,,,,,,,,,,,,,,,5edea84a36d2b814cfce6116,2020-08-10_12h09.59.072,lexical_decision_task_MP,2020.1.3,MacIntel,60,z,1,0.834705,,,,,,,,0.834705,1,,,,,,327,NW,"ID",33,plenac,PLENAC,z,,,,,,-0.052044271,-0.054192708,0,0,0,,0,40,40,266,1,
,,,,,,,,,,,,,,,,,,5edea84a36d2b814cfce6116,2020-08-10_12h09.59.072,lexical_decision_task_MP,2020.1.3,MacIntel,60,m,1,0.53384,,,,,,,,0.53384,1,,,,,,70,WORD,"ID",33,square,SQUARE,m,,,,,,-0.052044271,-0.054192708,0,0,0,,0,41,41,9,1,
,,,,,,,,,,,,,,,,,,5edea84a36d2b814cfce6116,2020-08-10_12h09.59.072,lexical_decision_task_MP,2020.1.3,MacIntel,60,m,1,0.53225,,,,,,,,0.53225,1,,,,,,63,WORD,"ID",33,launch,LAUNCH,m,,,,,,-0.052044271,-0.054192708,0,0,0,,0,42,42,2,1,
,,,,,,,,,,,,,,,,,,5edea84a36d2b814cfce6116,2020-08-10_12h09.59.072,lexical_decision_task_MP,2020.1.3,MacIntel,60,m,1,0.618625,,,,,,,,0.618625,1,,,,,,50,WORD,UN,50,hungry,SNATCH,m,,,,,,-0.052044271,-0.054192708,0,0,0,,0,43,43,229,1,
,,,,,,,,,,,,,,,,,,5edea84a36d2b814cfce6116,2020-08-10_12h09.59.072,lexical_decision_task_MP,2020.1.3,MacIntel,60,m,1,0.535175,,,,,,,,0.535175,1,,,,,,155,WORD,"ID",50,lizard,LIZARD,m,,,,,,-0.052044271,-0.054192708,0,0,0,,0,44,44,94,1,
,,,,,,,,,,,,,,,,,,5edea84a36d2b814cfce6116,2020-08-10_12h09.59.072,lexical_decision_task_MP,2020.1.3,MacIntel,60,z,1,0.51851,,,,,,,,0.51851,1,,,,,,361,NW,"ID",50,pauche,PAUCHE,z,,,,,,-0.052044271,-0.054192708,0,0,0,,0,45,45,300,1,
,,,,,,,,,,,,,,,,,,5edea84a36d2b814cfce6116,2020-08-10_12h09.59.072,lexical_decision_task_MP,2020.1.3,MacIntel,60,z,1,0.519655,,,,,,,,0.519655,1,,,,,,356,NW,"ID",33,othnis,OTHNIS,z,,,,,,-0.052044271,-0.054192708,0,0,0,,0,46,46,295,1,
,,,,,,,,,,,,,,,,,,5edea84a36d2b814cfce6116,2020-08-10_12h09.59.072,lexical_decision_task_MP,2020.1.3,MacIntel,60,m,1,0.594455,,,,,,,,0.594455,1,,,,,,119,WORD,"ID",33,spider,SPIDER,m,,,,,,-0.052044271,-0.054192708,0,0,0,,0,47,47,58,1,
,,,,,,,,,,,,,,,,,,5edea84a36d2b814cfce6116,2020-08-10_12h09.59.072,lexical_decision_task_MP,2020.1.3,MacIntel,60,m,1,0.60189,,,,,,,,0.60189,1,,,,,,230,WORD,UN,33,mother,FRINGE,m,,,,,,-0.052044271,-0.054192708,0,0,0,,0,48,48,169,1,
,,,,,,,,,,,,,,,,,,5edea84a36d2b814cfce6116,2020-08-10_12h09.59.072,lexical_decision_task_MP,2020.1.3,MacIntel,60,z,1,0.56675,,,,,,,,0.56675,1,,,,,,470,NW,UN,33,nobest,CRUDIO,z,,,,,,-0.052044271,-0.054192708,0,0,0,,0,49,49,409,1,
,,,,,,,,,,,,,,,,,,5edea84a36d2b814cfce6116,2020-08-10_12h09.59.072,lexical_decision_task_MP,2020.1.3,MacIntel,60,z,1,0.508435,,,,,,,,0.508435,1,,,,,,474,NW,UN,33,acrise,HABLIN,z,,,,,,-0.052044271,-0.054192708,0,0,0,,0,50,50,413,1,
,,,,,,,,,,,,,,,,,,5edea84a36d2b814cfce6116,2020-08-10_12h09.59.072,lexical_decision_task_MP,2020.1.3,MacIntel,60,z,1,0.536285,,,,,,,,0.536285,1,,,,,,443,NW,UN,33,jaunce,DORSEX,z,,,,,,-0.052044271,-0.054192708,0,0,0,,0,51,51,382,1,
,,,,,,,,,,,,,,,,,,5edea84a36d2b814cfce6116,2020-08-10_12h09.59.072,lexical_decision_task_MP,2020.1.3,MacIntel,60,m,1,0.57053,,,,,,,,0.57053,1,,,,,,6,WORD,UN,50,anchor,BUNDLE,m,,,,,,-0.052044271,-0.054192708,0,0,0,,0,52,52,185,1,
,,,,,,,,,,,,,,,,,,5edea84a36d2b814cfce6116,2020-08-10_12h09.59.072,lexical_decision_task_MP,2020.1.3,MacIntel,60,m,1,0.50175,,,,,,,,0.50175,1,,,,,,220,WORD,UN,33,mascot,VOYAGE,m,,,,,,-0.052044271,-0.054192708,0,0,0,,0,53,53,159,1,
,,,,,,,,,,,,,,,,,,5edea84a36d2b814cfce6116,2020-08-10_12h09.59.072,lexical_decision_task_MP,2020.1.3,MacIntel,60,z,0,0.569755,,,,,,,,0.569755,0,,,,,,183,WORD,UN,33,sleazy,MILDEW,m,,,,,,-0.052044271,-0.054192708,0,0,0,,0,54,54,122,1,
,,,,,,,,,,,,,,,,,,5edea84a36d2b814cfce6116,2020-08-10_12h09.59.072,lexical_decision_task_MP,2020.1.3,MacIntel,60,m,1,0.48618,,,,,,,,0.48618,1,,,,,,187,WORD,UN,33,social,COURSE,m,,,,,,-0.052044271,-0.054192708,0,0,0,,0,55,55,126,1,
,,,,,,,,,,,,,,,,,,5edea84a36d2b814cfce6116,2020-08-10_12h09.59.072,lexical_decision_task_MP,2020.1.3,MacIntel,60,m,1,0.617365,,,,,,,,0.617365,1,,,,,,7,WORD,UN,50,abrupt,ANCHOR,m,,,,,,-0.052044271,-0.054192708,0,0,0,,0,56,56,186,1,
,,,,,,,,,,,,,,,,,,5edea84a36d2b814cfce6116,2020-08-10_12h09.59.072,lexical_decision_task_MP,2020.1.3,MacIntel,60,m,1,0.567535,,,,,,,,0.567535,1,,,,,,133,WORD,"ID",50,chrome,CHROME,m,,,,,,-0.052044271,-0.054192708,0,0,0,,0,57,57,72,1,
,,,,,,,,,,,,,,,,,,5edea84a36d2b814cfce6116,2020-08-10_12h09.59.072,lexical_decision_task_MP,2020.1.3,MacIntel,60,m,1,0.533015,,,,,,,,0.533015,1,,,,,,223,WORD,UN,33,period,KIDNEY,m,,,,,,-0.052044271,-0.054192708,0,0,0,,0,58,58,162,1,
,,,,,,,,,,,,,,,,,,5edea84a36d2b814cfce6116,2020-08-10_12h09.59.072,lexical_decision_task_MP,2020.1.3,MacIntel,60,m,1,0.514645,,,,,,,,0.514645,1,,,,,,235,WORD,UN,33,pirate,GRUMPY,m,,,,,,-0.052044271,-0.054192708,0,0,0,,0,59,59,174,1,
,,,,,,,,,,,,,,,,,,5edea84a36d2b814cfce6116,2020-08-10_12h09.59.072,lexical_decision_task_MP,2020.1.3,MacIntel,60,z,1,0.40149,,,,,,,,0.40149,1,,,,,,296,NW,UN,50,fertic,BEINCH,z,,,,,,-0.052044271,-0.054192708,0,0,0,,0,60,60,475,1,
,,,,,,,,,,,,,,,,,,5edea84a36d2b814cfce6116,2020-08-10_12h09.59.072,lexical_decision_task_MP,2020.1.3,MacIntel,60,z,1,0.4818,,,,,,,,0.4818,1,,,,,,314,NW,"ID",33,sprine,SPRINE,z,,,,,,-0.052044271,-0.054192708,0,0,0,,0,61,61,253,1,
,,,,,,,,,,,,,,,,,,5edea84a36d2b814cfce6116,2020-08-10_12h09.59.072,lexical_decision_task_MP,2020.1.3,MacIntel,60,m,0,0.45916,,,,,,,,0.45916,0,,,,,,305,NW,"ID",33,forgle,FORGLE,z,,,,,,-0.052044271,-0.054192708,0,0,0,,0,62,62,244,1,
,,,,,,,,,,,,,,,,,,5edea84a36d2b814cfce6116,2020-08-10_12h09.59.072,lexical_decision_task_MP,2020.1.3,MacIntel,60,z,0,0.950585,,,,,,,,0.950585,0,,,,,,59,WORD,UN,50,pencil,SPLINT,m,,,,,,-0.052044271,-0.054192708,0,0,0,,0,63,63,238,1,
,,,,,,,,,,,,,,,,,,5edea84a36d2b814cfce6116,2020-08-10_12h09.59.072,lexical_decision_task_MP,2020.1.3,MacIntel,60,z,1,0.48113,,,,,,,,0.48113,1,,,,,,342,NW,"ID",33,randow,RANDOW,z,,,,,,-0.052044271,-0.054192708,0,0,0,,0,64,64,281,1,
,,,,,,,,,,,,,,,,,,5edea84a36d2b814cfce6116,2020-08-10_12h09.59.072,lexical_decision_task_MP,2020.1.3,MacIntel,60,m,1,0.536645,,,,,,,,0.536645,1,,,,,,101,WORD,"ID",33,wrench,WRENCH,m,,,,,,-0.052044271,-0.054192708,0,0,0,,0,65,65,40,1,
,,,,,,,,,,,,,,,,,,5edea84a36d2b814cfce6116,2020-08-10_12h09.59.072,lexical_decision_task_MP,2020.1.3,MacIntel,60,m,1,0.467875,,,,,,,,0.467875,1,,,,,,164,WORD,"ID",50,market,MARKET,m,,,,,,-0.052044271,-0.054192708,0,0,0,,0,66,66,103,1,
,,,,,,,,,,,,,,,,,,5edea84a36d2b814cfce6116,2020-08-10_12h09.59.072,lexical_decision_task_MP,2020.1.3,MacIntel,60,z,1,0.58423,,,,,,,,0.58423,1,,,,,,332,NW,"ID",33,vangue,VANGUE,z,,,,,,-0.052044271,-0.054192708,0,0,0,,0,67,67,271,1,
,,,,,,,,,,,,,,,,,,5edea84a36d2b814cfce6116,2020-08-10_12h09.59.072,lexical_decision_task_MP,2020.1.3,MacIntel,60,m,1,0.467745,,,,,,,,0.467745,1,,,,,,98,WORD,"ID",33,belong,BELONG,m,,,,,,-0.052044271,-0.054192708,0,0,0,,0,68,68,37,1,
,,,,,,,,,,,,,,,,,,5edea84a36d2b814cfce6116,2020-08-10_12h09.59.072,lexical_decision_task_MP,2020.1.3,MacIntel,60,z,0,0.474085,,,,,,,,0.474085,0,,,,,,195,WORD,UN,33,credit,RESIGN,m,,,,,,-0.052044271,-0.054192708,0,0,0,,0,69,69,134,1,
,,,,,,,,,,,,,,,,,,5edea84a36d2b814cfce6116,2020-08-10_12h09.59.072,lexical_decision_task_MP,2020.1.3,MacIntel,60,m,1,1.004,,,,,,,,1.004,1,,,,,,24,WORD,UN,50,domain,PRAISE,m,,,,,,-0.052044271,-0.054192708,0,0,0,,0,70,70,203,1,
,,,,,,,,,,,,,,,,,,5edea84a36d2b814cfce6116,2020-08-10_12h09.59.072,lexical_decision_task_MP,2020.1.3,MacIntel,60,m,1,0.41924,,,,,,,,0.41924,1,,,,,,79,WORD,"ID",33,theory,THEORY,m,,,,,,-0.052044271,-0.054192708,0,0,0,,0,71,71,18,1,
,,,,,,,,,,,,,,,,,,5edea84a36d2b814cfce6116,2020-08-10_12h09.59.072,lexical_decision_task_MP,2020.1.3,MacIntel,60,z,1,0.558605,,,,,,,,0.558605,1,,,,,,466,NW,UN,33,robuly,HOCITE,z,,,,,,-0.052044271,-0.054192708,0,0,0,,0,72,72,405,1,
,,,,,,,,,,,,,,,,,,5edea84a36d2b814cfce6116,2020-08-10_12h09.59.072,lexical_decision_task_MP,2020.1.3,MacIntel,60,m,1,0.58289,,,,,,,,0.58289,1,,,,,,212,WORD,UN,33,squeal,VERIFY,m,,,,,,-0.052044271,-0.054192708,0,0,0,,0,73,73,151,1,
,,,,,,,,,,,,,,,,,,5edea84a36d2b814cfce6116,2020-08-10_12h09.59.072,lexical_decision_task_MP,2020.1.3,MacIntel,60,m,1,0.566605,,,,,,,,0.566605,1,,,,,,189,WORD,UN,33,backup,CENSOR,m,,,,,,-0.052044271,-0.054192708,0,0,0,,0,74,74,128,1,
,,,,,,,,,,,,,,,,,,5edea84a36d2b814cfce6116,2020-08-10_12h09.59.072,lexical_decision_task_MP,2020.1.3,MacIntel,60,m,1,0.47014,,,,,,,,0.47014,1,,,,,,53,WORD,UN,50,ramble,POLICE,m,,,,,,-0.052044271,-0.054192708,0,0,0,,0,75,75,232,1,
,,,,,,,,,,,,,,,,,,5edea84a36d2b814cfce6116,2020-08-10_12h09.59.072,lexical_decision_task_MP,2020.1.3,MacIntel,60,z,1,0.56582,,,,,,,,0.56582,1,,,,,,407,NW,"ID",50,suiver,SUIVER,z,,,,,,-0.052044271,-0.054192708,0,0,0,,0,76,76,346,1,
,,,,,,,,,,,,,,,,,,5edea84a36d2b814cfce6116,2020-08-10_12h09.59.072,lexical_decision_task_MP,2020.1.3,MacIntel,60,m,1,0.752645,,,,,,,,0.752645,1,,,,,,182,WORD,UN,33,absent,WINTER,m,,,,,,-0.052044271,-0.054192708,0,0,0,,0,77,77,121,1,
,,,,,,,,,,,,,,,,,,5edea84a36d2b814cfce6116,2020-08-10_12h09.59.072,lexical_decision_task_MP,2020.1.3,MacIntel,60,z,1,0.665775,,,,,,,,0.665775,1,,,,,,388,NW,"ID",50,cragin,CRAGIN,z,,,,,,-0.052044271,-0.054192708,0,0,0,,0,78,78,327,1,
,,,,,,,,,,,,,,,,,,5edea84a36d2b814cfce6116,2020-08-10_12h09.59.072,lexical_decision_task_MP,2020.1.3,MacIntel,60,m,1,0.466875,,,,,,,,0.466875,1,,,,,,94,WORD,"ID",33,travel,TRAVEL,m,,,,,,-0.052044271,-0.054192708,0,0,0,,0,79,79,33,1,
,,,,,,,,,,,,,,,,,,5edea84a36d2b814cfce6116,2020-08-10_12h09.59.072,lexical_decision_task_MP,2020.1.3,MacIntel,60,z,1,0.47061,,,,,,,,0.47061,1,,,,,,351,NW,"ID",33,tiesch,TIESCH,z,,,,,,-0.052044271,-0.054192708,0,0,0,,0,80,80,290,1,
,,,,,,,,,,,,,,,,,,5edea84a36d2b814cfce6116,2020-08-10_12h09.59.072,lexical_decision_task_MP,2020.1.3,MacIntel,60,m,1,0.56782,,,,,,,,0.56782,1,,,,,,86,WORD,"ID",33,rodent,RODENT,m,,,,,,-0.052044271,-0.054192708,0,0,0,,0,81,81,25,1,
,,,,,,,,,,,,,,,,,,5edea84a36d2b814cfce6116,2020-08-10_12h09.59.072,lexical_decision_task_MP,2020.1.3,MacIntel,60,z,1,0.551755,,,,,,,,0.551755,1,,,,,,387,NW,"ID",50,gronce,GRONCE,z,,,,,,-0.052044271,-0.054192708,0,0,0,,0,82,82,326,1,
,,,,,,,,,,,,,,,,,,5edea84a36d2b814cfce6116,2020-08-10_12h09.59.072,lexical_decision_task_MP,2020.1.3,MacIntel,60,z,1,0.65309,,,,,,,,0.65309,1,,,,,,375,NW,"ID",50,yorque,YORQUE,z,,,,,,-0.052044271,-0.054192708,0,0,0,,0,83,83,314,1,
,,,,,,,,,,,,,,,,,,5edea84a36d2b814cfce6116,2020-08-10_12h09.59.072,lexical_decision_task_MP,2020.1.3,MacIntel,60,m,1,0.55037,,,,,,,,0.55037,1,,,,,,80,WORD,"ID",33,family,FAMILY,m,,,,,,-0.052044271,-0.054192708,0,0,0,,0,84,84,19,1,
,,,,,,,,,,,,,,,,,,5edea84a36d2b814cfce6116,2020-08-10_12h09.59.072,lexical_decision_task_MP,2020.1.3,MacIntel,60,m,1,0.42491,,,,,,,,0.42491,1,,,,,,62,WORD,"ID",33,region,REGION,m,,,,,,-0.052044271,-0.054192708,0,0,0,,0,85,85,1,1,
,,,,,,,,,,,,,,,,,,5edea84a36d2b814cfce6116,2020-08-10_12h09.59.072,lexical_decision_task_MP,2020.1.3,MacIntel,60,m,1,0.639265,,,,,,,,0.639265,1,,,,,,144,WORD,"ID",50,sponge,SPONGE,m,,,,,,-0.052044271,-0.054192708,0,0,0,,0,86,86,83,1,
,,,,,,,,,,,,,,,,,,5edea84a36d2b814cfce6116,2020-08-10_12h09.59.072,lexical_decision_task_MP,2020.1.3,MacIntel,60,z,1,0.58406,,,,,,,,0.58406,1,,,,,,301,NW,"ID",33,fainch,FAINCH,z,,,,,,-0.052044271,-0.054192708,0,0,0,,0,87,87,240,1,
,,,,,,,,,,,,,,,,,,5edea84a36d2b814cfce6116,2020-08-10_12h09.59.072,lexical_decision_task_MP,2020.1.3,MacIntel,60,z,1,0.490725,,,,,,,,0.490725,1,,,,,,370,NW,"ID",50,sleact,SLEACT,z,,,,,,-0.052044271,-0.054192708,0,0,0,,0,88,88,309,1,
,,,,,,,,,,,,,,,,,,5edea84a36d2b814cfce6116,2020-08-10_12h09.59.072,lexical_decision_task_MP,2020.1.3,MacIntel,60,m,1,0.50305,,,,,,,,0.50305,1,,,,,,102,WORD,"ID",33,direct,DIRECT,m,,,,,,-0.052044271,-0.054192708,0,0,0,,0,89,89,41,1,
,,,,,,,,,,,,,,,,,,5edea84a36d2b814cfce6116,2020-08-10_12h09.59.072,lexical_decision_task_MP,2020.1.3,MacIntel,60,m,1,0.471105,,,,,,,,0.471105,1,,,,,,160,WORD,"ID",50,violet,VIOLET,m,,,,,,-0.052044271,-0.054192708,0,0,0,,0,90,90,99,1,
,,,,,,,,,,,,,,,,,,5edea84a36d2b814cfce6116,2020-08-10_12h09.59.072,lexical_decision_task_MP,2020.1.3,MacIntel,60,z,1,0.517665,,,,,,,,0.517665,1,,,,,,382,NW,"ID",50,sarley,SARLEY,z,,,,,,-0.052044271,-0.054192708,0,0,0,,0,91,91,321,1,
,,,,,,,,,,,,,,,,,,5edea84a36d2b814cfce6116,2020-08-10_12h09.59.072,lexical_decision_task_MP,2020.1.3,MacIntel,60,m,1,0.504755,,,,,,,,0.504755,1,,,,,,201,WORD,UN,33,factor,ADMIRE,m,,,,,,-0.052044271,-0.054192708,0,0,0,,0,92,92,140,1,
,,,,,,,,,,,,,,,,,,5edea84a36d2b814cfce6116,2020-08-10_12h09.59.072,lexical_decision_task_MP,2020.1.3,MacIntel,60,z,0,0.43686,,,,,,,,0.43686,0,,,,,,22,WORD,UN,50,wealth,JOCKEY,m,,,,,,-0.052044271,-0.054192708,0,0,0,,0,93,93,201,1,
,,,,,,,,,,,,,,,,,,5edea84a36d2b814cfce6116,2020-08-10_12h09.59.072,lexical_decision_task_MP,2020.1.3,MacIntel,60,m,1,0.506955,,,,,,,,0.506955,1,,,,,,25,WORD,UN,50,sprint,DOMAIN,m,,,,,,-0.052044271,-0.054192708,0,0,0,,0,94,94,204,1,
,,,,,,,,,,,,,,,,,,5edea84a36d2b814cfce6116,2020-08-10_12h09.59.072,lexical_decision_task_MP,2020.1.3,MacIntel,60,z,1,0.58629,,,,,,,,0.58629,1,,,,,,245,NW,UN,50,piaton,ANOUGS,z,,,,,,-0.052044271,-0.054192708,0,0,0,,0,95,95,424,1,
,,,,,,,,,,,,,,,,,,5edea84a36d2b814cfce6116,2020-08-10_12h09.59.072,lexical_decision_task_MP,2020.1.3,MacIntel,60,z,1,0.617535,,,,,,,,0.617535,1,,,,,,295,NW,UN,50,beinch,GLEATH,z,,,,,,-0.052044271,-0.054192708,0,0,0,,0,96,96,474,1,
,,,,,,,,,,,,,,,,,,5edea84a36d2b814cfce6116,2020-08-10_12h09.59.072,lexical_decision_task_MP,2020.1.3,MacIntel,60,m,1,0.499655,,,,,,,,0.499655,1,,,,,,73,WORD,"ID",33,source,SOURCE,m,,,,,,-0.052044271,-0.054192708,0,0,0,,0,97,97,12,1,
,,,,,,,,,,,,,,,,,,5edea84a36d2b814cfce6116,2020-08-10_12h09.59.072,lexical_decision_task_MP,2020.1.3,MacIntel,60,m,1,0.73233,,,,,,,,0.73233,1,,,,,,55,WORD,UN,50,ambush,STROKE,m,,,,,,-0.052044271,-0.054192708,0,0,0,,0,98,98,234,1,
,,,,,,,,,,,,,,,,,,5edea84a36d2b814cfce6116,2020-08-10_12h09.59.072,lexical_decision_task_MP,2020.1.3,MacIntel,60,m,1,0.584775,,,,,,,,0.584775,1,,,,,,148,WORD,"ID",50,custom,CUSTOM,m,,,,,,-0.052044271,-0.054192708,0,0,0,,0,99,99,87,1,
,,,,,,,,,,,,,,,,,,5edea84a36d2b814cfce6116,2020-08-10_12h09.59.072,lexical_decision_task_MP,2020.1.3,MacIntel,60,m,1,0.649605,,,,,,,,0.649605,1,,,,,,33,WORD,UN,50,jungle,BUTLER,m,,,,,,-0.052044271,-0.054192708,0,0,0,,0,100,100,212,1,
,,,,,,,,,,,,,,,,,,5edea84a36d2b814cfce6116,2020-08-10_12h09.59.072,lexical_decision_task_MP,2020.1.3,MacIntel,60,m,1,0.607275,,,,,,,,0.607275,1,,,,,,56,WORD,UN,50,change,AMBUSH,m,,,,,,-0.052044271,-0.054192708,0,0,0,,0,101,101,235,1,
,,,,,,,,,,,,,,,,,,5edea84a36d2b814cfce6116,2020-08-10_12h09.59.072,lexical_decision_task_MP,2020.1.3,MacIntel,60,z,1,0.60299,,,,,,,,0.60299,1,,,,,,340,NW,"ID",33,fiatch,FIATCH,z,,,,,,-0.052044271,-0.054192708,0,0,0,,0,102,102,279,1,
,,,,,,,,,,,,,,,,,,5edea84a36d2b814cfce6116,2020-08-10_12h09.59.072,lexical_decision_task_MP,2020.1.3,MacIntel,60,z,1,0.557515,,,,,,,,0.557515,1,,,,,,472,NW,UN,33,gorbie,CIGNEY,z,,,,,,-0.052044271,-0.054192708,0,0,0,,0,103,103,411,1,
,,,,,,,,,,,,,,,,,,5edea84a36d2b814cfce6116,2020-08-10_12h09.59.072,lexical_decision_task_MP,2020.1.3,MacIntel,60,z,0,0.53768,,,,,,,,0.53768,0,,,,,,239,WORD,UN,33,forest,LUMBER,m,,,,,,-0.052044271,-0.054192708,0,0,0,,0,104,104,178,1,
,,,,,,,,,,,,,,,,,,5edea84a36d2b814cfce6116,2020-08-10_12h09.59.072,lexical_decision_task_MP,2020.1.3,MacIntel,60,m,0,0.503195,,,,,,,,0.503195,0,,,,,,285,NW,UN,50,reldon,PRUDGE,z,,,,,,-0.052044271,-0.054192708,0,0,0,,0,105,105,464,1,
,,,,,,,,,,,,,,,,,,5edea84a36d2b814cfce6116,2020-08-10_12h09.59.072,lexical_decision_task_MP,2020.1.3,MacIntel,60,m,1,0.585775,,,,,,,,0.585775,1,,,,,,143,WORD,"ID",50,reason,REASON,m,,,,,,-0.052044271,-0.054192708,0,0,0,,0,106,106,82,1,
,,,,,,,,,,,,,,,,,,5edea84a36d2b814cfce6116,2020-08-10_12h09.59.072,lexical_decision_task_MP,2020.1.3,MacIntel,60,z,1,0.870165,,,,,,,,0.870165,1,,,,,,355,NW,"ID",33,zingly,ZINGLY,z,,,,,,-0.052044271,-0.054192708,0,0,0,,0,107,107,294,1,
,,,,,,,,,,,,,,,,,,5edea84a36d2b814cfce6116,2020-08-10_12h09.59.072,lexical_decision_task_MP,2020.1.3,MacIntel,60,z,1,0.55851,,,,,,,,0.55851,1,,,,,,339,NW,"ID",33,fachow,FACHOW,z,,,,,,-0.052044271,-0.054192708,0,0,0,,0,108,108,278,1,
,,,,,,,,,,,,,,,,,,5edea84a36d2b814cfce6116,2020-08-10_12h09.59.072,lexical_decision_task_MP,2020.1.3,MacIntel,60,m,1,0.668395,,,,,,,,0.668395,1,,,,,,36,WORD,UN,50,insult,VANISH,m,,,,,,-0.052044271,-0.054192708,0,0,0,,0,109,109,215,1,
,,,,,,,,,,,,,,,,,,5edea84a36d2b814cfce6116,2020-08-10_12h09.59.072,lexical_decision_task_MP,2020.1.3,MacIntel,60,z,1,0.522395,,,,,,,,0.522395,1,,,,,,324,NW,"ID",33,steikh,STEIKH,z,,,,,,-0.052044271,-0.054192708,0,0,0,,0,110,110,263,1,
,,,,,,,,,,,,,,,,,,5edea84a36d2b814cfce6116,2020-08-10_12h09.59.072,lexical_decision_task_MP,2020.1.3,MacIntel,60,m,1,0.5521,,,,,,,,0.5521,1,,,,,,117,WORD,"ID",33,branch,BRANCH,m,,,,,,-0.052044271,-0.054192708,0,0,0,,0,111,111,56,1,
,,,,,,,,,,,,,,,,,,5edea84a36d2b814cfce6116,2020-08-10_12h09.59.072,lexical_decision_task_MP,2020.1.3,MacIntel,60,m,1,0.62241,,,,,,,,0.62241,1,,,,,,211,WORD,UN,33,verify,INFECT,m,,,,,,-0.052044271,-0.054192708,0,0,0,,0,112,112,150,1,
,,,,,,,,,,,,,,,,,,5edea84a36d2b814cfce6116,2020-08-10_12h09.59.072,lexical_decision_task_MP,2020.1.3,MacIntel,60,m,1,0.63728,,,,,,,,0.63728,1,,,,,,4,WORD,UN,50,plunge,TRENCH,m,,,,,,-0.052044271,-0.054192708,0,0,0,,0,113,113,183,1,
,,,,,,,,,,,,,,,,,,5edea84a36d2b814cfce6116,2020-08-10_12h09.59.072,lexical_decision_task_MP,2020.1.3,MacIntel,60,m,1,0.408,,,,,,,,0.408,1,,,,,,128,WORD,"ID",50,senior,SENIOR,m,,,,,,-0.052044271,-0.054192708,0,0,0,,0,114,114,67,1,
,,,,,,,,,,,,,,,,,,5edea84a36d2b814cfce6116,2020-08-10_12h09.59.072,lexical_decision_task_MP,2020.1.3,MacIntel,60,z,1,0.5489,,,,,,,,0.5489,1,,,,,,459,NW,UN,33,mingar,BAFENT,z,,,,,,-0.052044271,-0.054192708,0,0,0,,0,115,115,398,1,
,,,,,,,,,,,,,,,,,,5edea84a36d2b814cfce6116,2020-08-10_12h09.59.072,lexical_decision_task_MP,2020.1.3,MacIntel,60,z,1,0.58306,,,,,,,,0.58306,1,,,,,,426,NW,UN,33,schind,URIVEL,z,,,,,,-0.052044271,-0.054192708,0,0,0,,0,116,116,365,1,
,,,,,,,,,,,,,,,,,,5edea84a36d2b814cfce6116,2020-08-10_12h09.59.072,lexical_decision_task_MP,2020.1.3,MacIntel,60,m,1,0.49941,,,,,,,,0.49941,1,,,,,,151,WORD,"ID",50,mystic,MYSTIC,m,,,,,,-0.052044271,-0.054192708,0,0,0,,0,117,117,90,1,
,,,,,,,,,,,,,,,,,,5edea84a36d2b814cfce6116,2020-08-10_12h09.59.072,lexical_decision_task_MP,2020.1.3,MacIntel,60,m,1,0.801905,,,,,,,,0.801905,1,,,,,,191,WORD,UN,33,beacon,STABLE,m,,,,,,-0.052044271,-0.054192708,0,0,0,,0,118,118,130,1,
,,,,,,,,,,,,,,,,,,5edea84a36d2b814cfce6116,2020-08-10_12h09.59.072,lexical_decision_task_MP,2020.1.3,MacIntel,60,m,1,0.44188,,,,,,,,0.44188,1,,,,,,13,WORD,UN,50,almost,STRIVE,m,,,,,,-0.052044271,-0.054192708,0,0,0,,0,119,119,192,1,
,,,,,,,,,,,,,,,,,,5edea84a36d2b814cfce6116,2020-08-10_12h09.59.072,lexical_decision_task_MP,2020.1.3,MacIntel,60,m,1,0.488735,,,,,,,,0.488735,1,,,,,,232,WORD,UN,33,nature,INJECT,m,,,,,,-0.052044271,-0.054192708,0,0,0,space,0,120,120,171,1,38.054845
,,,,,,,,,,,,,,,,,,5edea84a36d2b814cfce6116,2020-08-10_12h09.59.072,lexical_decision_task_MP,2020.1.3,MacIntel,60,z,1,0.988165,,,,,,,,0.988165,1,,,,,,458,NW,UN,33,hocite,BARCET,z,,,,,,-0.052044271,-0.054192708,0,0,0,,0,121,121,397,1,
,,,,,,,,,,,,,,,,,,5edea84a36d2b814cfce6116,2020-08-10_12h09.59.072,lexical_decision_task_MP,2020.1.3,MacIntel,60,z,1,0.68491,,,,,,,,0.68491,1,,,,,,348,NW,"ID",33,dumple,DUMPLE,z,,,,,,-0.052044271,-0.054192708,0,0,0,,0,122,122,287,1,
,,,,,,,,,,,,,,,,,,5edea84a36d2b814cfce6116,2020-08-10_12h09.59.072,lexical_decision_task_MP,2020.1.3,MacIntel,60,m,1,0.524,,,,,,,,0.524,1,,,,,,178,WORD,"ID",50,inform,INFORM,m,,,,,,-0.052044271,-0.054192708,0,0,0,,0,123,123,117,1,
,,,,,,,,,,,,,,,,,,5edea84a36d2b814cfce6116,2020-08-10_12h09.59.072,lexical_decision_task_MP,2020.1.3,MacIntel,60,m,1,0.51632,,,,,,,,0.51632,1,,,,,,124,WORD,"ID",50,blouse,BLOUSE,m,,,,,,-0.052044271,-0.054192708,0,0,0,,0,124,124,63,1,
,,,,,,,,,,,,,,,,,,5edea84a36d2b814cfce6116,2020-08-10_12h09.59.072,lexical_decision_task_MP,2020.1.3,MacIntel,60,m,1,0.537585,,,,,,,,0.537585,1,,,,,,3,WORD,UN,50,trench,KNIGHT,m,,,,,,-0.052044271,-0.054192708,0,0,0,,0,125,125,182,1,
,,,,,,,,,,,,,,,,,,5edea84a36d2b814cfce6116,2020-08-10_12h09.59.072,lexical_decision_task_MP,2020.1.3,MacIntel,60,z,1,0.5672,,,,,,,,0.5672,1,,,,,,308,NW,"ID",33,psetch,PSETCH,z,,,,,,-0.052044271,-0.054192708,0,0,0,,0,126,126,247,1,
,,,,,,,,,,,,,,,,,,5edea84a36d2b814cfce6116,2020-08-10_12h09.59.072,lexical_decision_task_MP,2020.1.3,MacIntel,60,z,1,0.53217,,,,,,,,0.53217,1,,,,,,302,NW,"ID",33,miluer,MILUER,z,,,,,,-0.052044271,-0.054192708,0,0,0,,0,127,127,241,1,
,,,,,,,,,,,,,,,,,,5edea84a36d2b814cfce6116,2020-08-10_12h09.59.072,lexical_decision_task_MP,2020.1.3,MacIntel,60,z,1,0.748255,,,,,,,,0.748255,1,,,,,,260,NW,UN,50,stunch,UNJECT,z,,,,,,-0.052044271,-0.054192708,0,0,0,,0,128,128,439,1,
,,,,,,,,,,,,,,,,,,5edea84a36d2b814cfce6116,2020-08-10_12h09.59.072,lexical_decision_task_MP,2020.1.3,MacIntel,60,z,1,0.469065,,,,,,,,0.469065,1,,,,,,349,NW,"ID",33,asylen,ASYLEN,z,,,,,,-0.052044271,-0.054192708,0,0,0,,0,129,129,288,1,
,,,,,,,,,,,,,,,,,,5edea84a36d2b814cfce6116,2020-08-10_12h09.59.072,lexical_decision_task_MP,2020.1.3,MacIntel,60,z,1,0.451255,,,,,,,,0.451255,1,,,,,,247,NW,UN,50,strole,BLARGE,z,,,,,,-0.052044271,-0.054192708,0,0,0,,0,130,130,426,1,
,,,,,,,,,,,,,,,,,,5edea84a36d2b814cfce6116,2020-08-10_12h09.59.072,lexical_decision_task_MP,2020.1.3,MacIntel,60,m,1,0.54155,,,,,,,,0.54155,1,,,,,,208,WORD,UN,33,search,HOCKEY,m,,,,,,-0.052044271,-0.054192708,0,0,0,,0,131,131,147,1,
,,,,,,,,,,,,,,,,,,5edea84a36d2b814cfce6116,2020-08-10_12h09.59.072,lexical_decision_task_MP,2020.1.3,MacIntel,60,z,1,0.48287,,,,,,,,0.48287,1,,,,,,262,NW,UN,50,dolica,QUILEW,z,,,,,,-0.052044271,-0.054192708,0,0,0,,0,132,132,441,1,
,,,,,,,,,,,,,,,,,,5edea84a36d2b814cfce6116,2020-08-10_12h09.59.072,lexical_decision_task_MP,2020.1.3,MacIntel,60,z,1,0.48506,,,,,,,,0.48506,1,,,,,,251,NW,UN,50,stapod,LUPICT,z,,,,,,-0.052044271,-0.054192708,0,0,0,,0,133,133,430,1,
,,,,,,,,,,,,,,,,,,5edea84a36d2b814cfce6116,2020-08-10_12h09.59.072,lexical_decision_task_MP,2020.1.3,MacIntel,60,z,1,0.46946,,,,,,,,0.46946,1,,,,,,344,NW,"ID",33,scrily,SCRILY,z,,,,,,-0.052044271,-0.054192708,0,0,0,,0,134,134,283,1,
,,,,,,,,,,,,,,,,,,5edea84a36d2b814cfce6116,2020-08-10_12h09.59.072,lexical_decision_task_MP,2020.1.3,MacIntel,60,z,1,0.4217,,,,,,,,0.4217,1,,,,,,268,NW,UN,50,orchet,PACKES,z,,,,,,-0.052044271,-0.054192708,0,0,0,,0,135,135,447,1,
,,,,,,,,,,,,,,,,,,5edea84a36d2b814cfce6116,2020-08-10_12h09.59.072,lexical_decision_task_MP,2020.1.3,MacIntel,60,m,1,0.455705,,,,,,,,0.455705,1,,,,,,81,WORD,"ID",33,friend,FRIEND,m,,,,,,-0.052044271,-0.054192708,0,0,0,,0,136,136,20,1,
,,,,,,,,,,,,,,,,,,5edea84a36d2b814cfce6116,2020-08-10_12h09.59.072,lexical_decision_task_MP,2020.1.3,MacIntel,60,m,1,0.47023,,,,,,,,0.47023,1,,,,,,130,WORD,"ID",50,stupid,STUPID,m,,,,,,-0.052044271,-0.054192708,0,0,0,,0,137,137,69,1,
,,,,,,,,,,,,,,,,,,5edea84a36d2b814cfce6116,2020-08-10_12h09.59.072,lexical_decision_task_MP,2020.1.3,MacIntel,60,m,1,0.456095,,,,,,,,0.456095,1,,,,,,168,WORD,"ID",50,answer,ANSWER,m,,,,,,-0.052044271,-0.054192708,0,0,0,,0,138,138,107,1,
,,,,,,,,,,,,,,,,,,5edea84a36d2b814cfce6116,2020-08-10_12h09.59.072,lexical_decision_task_MP,2020.1.3,MacIntel,60,z,1,0.5227,,,,,,,,0.5227,1,,,,,,255,NW,UN,50,inlors,APIGHT,z,,,,,,-0.052044271,-0.054192708,0,0,0,,0,139,139,434,1,
,,,,,,,,,,,,,,,,,,5edea84a36d2b814cfce6116,2020-08-10_12h09.59.072,lexical_decision_task_MP,2020.1.3,MacIntel,60,m,1,0.487575,,,,,,,,0.487575,1,,,,,,113,WORD,"ID",33,chorus,CHORUS,m,,,,,,-0.052044271,-0.054192708,0,0,0,,0,140,140,52,1,
,,,,,,,,,,,,,,,,,,5edea84a36d2b814cfce6116,2020-08-10_12h09.59.072,lexical_decision_task_MP,2020.1.3,MacIntel,60,m,1,0.457135,,,,,,,,0.457135,1,,,,,,146,WORD,"ID",50,couple,COUPLE,m,,,,,,-0.052044271,-0.054192708,0,0,0,,0,141,141,85,1,
,,,,,,,,,,,,,,,,,,5edea84a36d2b814cfce6116,2020-08-10_12h09.59.072,lexical_decision_task_MP,2020.1.3,MacIntel,60,z,1,0.473755,,,,,,,,0.473755,1,,,,,,242,NW,UN,50,musied,UNWERT,z,,,,,,-0.052044271,-0.054192708,0,0,0,,0,142,142,421,1,
,,,,,,,,,,,,,,,,,,5edea84a36d2b814cfce6116,2020-08-10_12h09.59.072,lexical_decision_task_MP,2020.1.3,MacIntel,60,m,1,0.65578,,,,,,,,0.65578,1,,,,,,15,WORD,UN,50,faucet,AMOUNT,m,,,,,,-0.052044271,-0.054192708,0,0,0,,0,143,143,194,1,
,,,,,,,,,,,,,,,,,,5edea84a36d2b814cfce6116,2020-08-10_12h09.59.072,lexical_decision_task_MP,2020.1.3,MacIntel,60,z,1,0.4984,,,,,,,,0.4984,1,,,,,,288,NW,UN,50,starby,YACEUP,z,,,,,,-0.052044271,-0.054192708,0,0,0,,0,144,144,467,1,
,,,,,,,,,,,,,,,,,,5edea84a36d2b814cfce6116,2020-08-10_12h09.59.072,lexical_decision_task_MP,2020.1.3,MacIntel,60,m,1,0.71605,,,,,,,,0.71605,1,,,,,,100,WORD,"ID",33,carbon,CARBON,m,,,,,,-0.052044271,-0.054192708,0,0,0,,0,145,145,39,1,
,,,,,,,,,,,,,,,,,,5edea84a36d2b814cfce6116,2020-08-10_12h09.59.072,lexical_decision_task_MP,2020.1.3,MacIntel,60,z,1,0.585765,,,,,,,,0.585765,1,,,,,,385,NW,"ID",50,veigma,VEIGMA,z,,,,,,-0.052044271,-0.054192708,0,0,0,,0,146,146,324,1,
,,,,,,,,,,,,,,,,,,5edea84a36d2b814cfce6116,2020-08-10_12h09.59.072,lexical_decision_task_MP,2020.1.3,MacIntel,60,z,1,0.707775,,,,,,,,0.707775,1,,,,,,307,NW,"ID",33,kirafe,KIRAFE,z,,,,,,-0.052044271,-0.054192708,0,0,0,,0,147,147,246,1,
,,,,,,,,,,,,,,,,,,5edea84a36d2b814cfce6116,2020-08-10_12h09.59.072,lexical_decision_task_MP,2020.1.3,MacIntel,60,m,1,0.70305,,,,,,,,0.70305,1,,,,,,19,WORD,UN,50,breast,PATRON,m,,,,,,-0.052044271,-0.054192708,0,0,0,,0,148,148,198,1,
,,,,,,,,,,,,,,,,,,5edea84a36d2b814cfce6116,2020-08-10_12h09.59.072,lexical_decision_task_MP,2020.1.3,MacIntel,60,m,1,0.58871,,,,,,,,0.58871,1,,,,,,118,WORD,"ID",33,flight,FLIGHT,m,,,,,,-0.052044271,-0.054192708,0,0,0,,0,149,149,57,1,
,,,,,,,,,,,,,,,,,,5edea84a36d2b814cfce6116,2020-08-10_12h09.59.072,lexical_decision_task_MP,2020.1.3,MacIntel,60,m,1,0.848225,,,,,,,,0.848225,1,,,,,,200,WORD,UN,33,admire,BEACON,m,,,,,,-0.052044271,-0.054192708,0,0,0,,0,150,150,139,1,
,,,,,,,,,,,,,,,,,,5edea84a36d2b814cfce6116,2020-08-10_12h09.59.072,lexical_decision_task_MP,2020.1.3,MacIntel,60,m,1,0.55031,,,,,,,,0.55031,1,,,,,,1,WORD,UN,50,ethnic,FRIGHT,m,,,,,,-0.052044271,-0.054192708,0,0,0,,0,151,151,180,1,
,,,,,,,,,,,,,,,,,,5edea84a36d2b814cfce6116,2020-08-10_12h09.59.072,lexical_decision_task_MP,2020.1.3,MacIntel,60,z,1,0.633315,,,,,,,,0.633315,1,,,,,,293,NW,UN,50,inhort,SWANCE,z,,,,,,-0.052044271,-0.054192708,0,0,0,,0,152,152,472,1,
,,,,,,,,,,,,,,,,,,5edea84a36d2b814cfce6116,2020-08-10_12h09.59.072,lexical_decision_task_MP,2020.1.3,MacIntel,60,m,1,0.516725,,,,,,,,0.516725,1,,,,,,91,WORD,"ID",33,expand,EXPAND,m,,,,,,-0.052044271,-0.054192708,0,0,0,,0,153,153,30,1,
,,,,,,,,,,,,,,,,,,5edea84a36d2b814cfce6116,2020-08-10_12h09.59.072,lexical_decision_task_MP,2020.1.3,MacIntel,60,z,1,0.582035,,,,,,,,0.582035,1,,,,,,464,NW,UN,33,whivex,CHAITE,z,,,,,,-0.052044271,-0.054192708,0,0,0,,0,154,154,403,1,
,,,,,,,,,,,,,,,,,,5edea84a36d2b814cfce6116,2020-08-10_12h09.59.072,lexical_decision_task_MP,2020.1.3,MacIntel,60,z,1,0.62645,,,,,,,,0.62645,1,,,,,,364,NW,"ID",50,impote,IMPOTE,z,,,,,,-0.052044271,-0.054192708,0,0,0,,0,155,155,303,1,
,,,,,,,,,,,,,,,,,,5edea84a36d2b814cfce6116,2020-08-10_12h09.59.072,lexical_decision_task_MP,2020.1.3,MacIntel,60,m,1,0.489365,,,,,,,,0.489365,1,,,,,,28,WORD,UN,50,sketch,COMEDY,m,,,,,,-0.052044271,-0.054192708,0,0,0,,0,156,156,207,1,
,,,,,,,,,,,,,,,,,,5edea84a36d2b814cfce6116,2020-08-10_12h09.59.072,lexical_decision_task_MP,2020.1.3,MacIntel,60,m,1,0.68029,,,,,,,,0.68029,1,,,,,,218,WORD,UN,33,bucket,SHRINK,m,,,,,,-0.052044271,-0.054192708,0,0,0,,0,157,157,157,1,
,,,,,,,,,,,,,,,,,,5edea84a36d2b814cfce6116,2020-08-10_12h09.59.072,lexical_decision_task_MP,2020.1.3,MacIntel,60,z,1,0.55121,,,,,,,,0.55121,1,,,,,,366,NW,"ID",50,toshel,TOSHEL,z,,,,,,-0.052044271,-0.054192708,0,0,0,,0,158,158,305,1,
,,,,,,,,,,,,,,,,,,5edea84a36d2b814cfce6116,2020-08-10_12h09.59.072,lexical_decision_task_MP,2020.1.3,MacIntel,60,m,1,0.492395,,,,,,,,0.492395,1,,,,,,231,WORD,UN,33,inject,EXPORT,m,,,,,,-0.052044271,-0.054192708,0,0,0,,0,159,159,170,1,
,,,,,,,,,,,,,,,,,,5edea84a36d2b814cfce6116,2020-08-10_12h09.59.072,lexical_decision_task_MP,2020.1.3,MacIntel,60,z,1,0.48817,,,,,,,,0.48817,1,,,,,,347,NW,"ID",33,kerift,KERIFT,z,,,,,,-0.052044271,-0.054192708,0,0,0,,0,160,160,286,1,
,,,,,,,,,,,,,,,,,,5edea84a36d2b814cfce6116,2020-08-10_12h09.59.072,lexical_decision_task_MP,2020.1.3,MacIntel,60,m,1,0.524385,,,,,,,,0.524385,1,,,,,,97,WORD,"ID",33,client,CLIENT,m,,,,,,-0.052044271,-0.054192708,0,0,0,,0,161,161,36,1,
,,,,,,,,,,,,,,,,,,5edea84a36d2b814cfce6116,2020-08-10_12h09.59.072,lexical_decision_task_MP,2020.1.3,MacIntel,60,m,1,0.586825,,,,,,,,0.586825,1,,,,,,45,WORD,UN,50,single,CLERGY,m,,,,,,-0.052044271,-0.054192708,0,0,0,,0,162,162,224,1,
,,,,,,,,,,,,,,,,,,5edea84a36d2b814cfce6116,2020-08-10_12h09.59.072,lexical_decision_task_MP,2020.1.3,MacIntel,60,m,1,0.633695,,,,,,,,0.633695,1,,,,,,181,WORD,UN,33,winter,GLANCE,m,,,,,,-0.052044271,-0.054192708,0,0,0,,0,163,163,120,1,
,,,,,,,,,,,,,,,,,,5edea84a36d2b814cfce6116,2020-08-10_12h09.59.072,lexical_decision_task_MP,2020.1.3,MacIntel,60,m,1,0.589655,,,,,,,,0.589655,1,,,,,,82,WORD,"ID",33,stigma,STIGMA,m,,,,,,-0.052044271,-0.054192708,0,0,0,,0,164,164,21,1,
,,,,,,,,,,,,,,,,,,5edea84a36d2b814cfce6116,2020-08-10_12h09.59.072,lexical_decision_task_MP,2020.1.3,MacIntel,60,z,1,0.58599,,,,,,,,0.58599,1,,,,,,341,NW,"ID",33,myrtie,MYRTIE,z,,,,,,-0.052044271,-0.054192708,0,0,0,,0,165,165,280,1,
,,,,,,,,,,,,,,,,,,5edea84a36d2b814cfce6116,2020-08-10_12h09.59.072,lexical_decision_task_MP,2020.1.3,MacIntel,60,z,1,0.541275,,,,,,,,0.541275,1,,,,,,267,NW,UN,50,packes,PASINK,z,,,,,,-0.052044271,-0.054192708,0,0,0,,0,166,166,446,1,
,,,,,,,,,,,,,,,,,,5edea84a36d2b814cfce6116,2020-08-10_12h09.59.072,lexical_decision_task_MP,2020.1.3,MacIntel,60,z,1,0.590245,,,,,,,,0.590245,1,,,,,,393,NW,"ID",50,ganous,GANOUS,z,,,,,,-0.052044271,-0.054192708,0,0,0,,0,167,167,332,1,
,,,,,,,,,,,,,,,,,,5edea84a36d2b814cfce6116,2020-08-10_12h09.59.072,lexical_decision_task_MP,2020.1.3,MacIntel,60,m,1,0.699035,,,,,,,,0.699035,1,,,,,,92,WORD,"ID",33,strand,STRAND,m,,,,,,-0.052044271,-0.054192708,0,0,0,,0,168,168,31,1,
,,,,,,,,,,,,,,,,,,5edea84a36d2b814cfce6116,2020-08-10_12h09.59.072,lexical_decision_task_MP,2020.1.3,MacIntel,60,z,1,0.687985,,,,,,,,0.687985,1,,,,,,444,NW,UN,33,minkel,JAUNCE,z,,,,,,-0.052044271,-0.054192708,0,0,0,,0,169,169,383,1,
,,,,,,,,,,,,,,,,,,5edea84a36d2b814cfce6116,2020-08-10_12h09.59.072,lexical_decision_task_MP,2020.1.3,MacIntel,60,z,1,1.21867,,,,,,,,1.21867,1,,,,,,249,NW,UN,50,milted,BATROL,z,,,,,,-0.052044271,-0.054192708,0,0,0,,0,170,170,428,1,
,,,,,,,,,,,,,,,,,,5edea84a36d2b814cfce6116,2020-08-10_12h09.59.072,lexical_decision_task_MP,2020.1.3,MacIntel,60,m,1,0.653075,,,,,,,,0.653075,1,,,,,,222,WORD,UN,33,export,HINDER,m,,,,,,-0.052044271,-0.054192708,0,0,0,,0,171,171,161,1,
,,,,,,,,,,,,,,,,,,5edea84a36d2b814cfce6116,2020-08-10_12h09.59.072,lexical_decision_task_MP,2020.1.3,MacIntel,60,m,1,0.50193,,,,,,,,0.50193,1,,,,,,136,WORD,"ID",50,bleach,BLEACH,m,,,,,,-0.052044271,-0.054192708,0,0,0,,0,172,172,75,1,
,,,,,,,,,,,,,,,,,,5edea84a36d2b814cfce6116,2020-08-10_12h09.59.072,lexical_decision_task_MP,2020.1.3,MacIntel,60,z,0,0.632245,,,,,,,,0.632245,0,,,,,,145,WORD,"ID",50,parish,PARISH,m,,,,,,-0.052044271,-0.054192708,0,0,0,,0,173,173,84,1,
,,,,,,,,,,,,,,,,,,5edea84a36d2b814cfce6116,2020-08-10_12h09.59.072,lexical_decision_task_MP,2020.1.3,MacIntel,60,m,1,0.52344,,,,,,,,0.52344,1,,,,,,169,WORD,"ID",50,genius,GENIUS,m,,,,,,-0.052044271,-0.054192708,0,0,0,,0,174,174,108,1,
,,,,,,,,,,,,,,,,,,5edea84a36d2b814cfce6116,2020-08-10_12h09.59.072,lexical_decision_task_MP,2020.1.3,MacIntel,60,m,1,0.606105,,,,,,,,0.606105,1,,,,,,111,WORD,"ID",33,induce,INDUCE,m,,,,,,-0.052044271,-0.054192708,0,0,0,,0,175,175,50,1,
,,,,,,,,,,,,,,,,,,5edea84a36d2b814cfce6116,2020-08-10_12h09.59.072,lexical_decision_task_MP,2020.1.3,MacIntel,60,m,1,0.47439,,,,,,,,0.47439,1,,,,,,137,WORD,"ID",50,finger,FINGER,m,,,,,,-0.052044271,-0.054192708,0,0,0,,0,176,176,76,1,
,,,,,,,,,,,,,,,,,,5edea84a36d2b814cfce6116,2020-08-10_12h09.59.072,lexical_decision_task_MP,2020.1.3,MacIntel,60,z,1,0.741025,,,,,,,,0.741025,1,,,,,,322,NW,"ID",33,slanch,SLANCH,z,,,,,,-0.052044271,-0.054192708,0,0,0,,0,177,177,261,1,
,,,,,,,,,,,,,,,,,,5edea84a36d2b814cfce6116,2020-08-10_12h09.59.072,lexical_decision_task_MP,2020.1.3,MacIntel,60,z,1,0.515965,,,,,,,,0.515965,1,,,,,,456,NW,UN,33,wanigh,BROGET,z,,,,,,-0.052044271,-0.054192708,0,0,0,,0,178,178,395,1,
,,,,,,,,,,,,,,,,,,5edea84a36d2b814cfce6116,2020-08-10_12h09.59.072,lexical_decision_task_MP,2020.1.3,MacIntel,60,z,1,0.565545,,,,,,,,0.565545,1,,,,,,298,NW,UN,50,sturch,PIERGY,z,,,,,,-0.052044271,-0.054192708,0,0,0,,0,179,179,477,1,
,,,,,,,,,,,,,,,,,,5edea84a36d2b814cfce6116,2020-08-10_12h09.59.072,lexical_decision_task_MP,2020.1.3,MacIntel,60,m,1,0.486105,,,,,,,,0.486105,1,,,,,,152,WORD,"ID",50,rocket,ROCKET,m,,,,,,-0.052044271,-0.054192708,0,0,0,,0,180,180,91,1,
,,,,,,,,,,,,,,,,,,5edea84a36d2b814cfce6116,2020-08-10_12h09.59.072,lexical_decision_task_MP,2020.1.3,MacIntel,60,m,1,0.46837,,,,,,,,0.46837,1,,,,,,153,WORD,"ID",50,behold,BEHOLD,m,,,,,,-0.052044271,-0.054192708,0,0,0,,0,181,181,92,1,
,,,,,,,,,,,,,,,,,,5edea84a36d2b814cfce6116,2020-08-10_12h09.59.072,lexical_decision_task_MP,2020.1.3,MacIntel,60,m,1,0.43575,,,,,,,,0.43575,1,,,,,,173,WORD,"ID",50,shower,SHOWER,m,,,,,,-0.052044271,-0.054192708,0,0,0,,0,182,182,112,1,
,,,,,,,,,,,,,,,,,,5edea84a36d2b814cfce6116,2020-08-10_12h09.59.072,lexical_decision_task_MP,2020.1.3,MacIntel,60,z,1,0.660255,,,,,,,,0.660255,1,,,,,,306,NW,"ID",33,sounge,SOUNGE,z,,,,,,-0.052044271,-0.054192708,0,0,0,,0,183,183,245,1,
,,,,,,,,,,,,,,,,,,5edea84a36d2b814cfce6116,2020-08-10_12h09.59.072,lexical_decision_task_MP,2020.1.3,MacIntel,60,m,1,0.68259,,,,,,,,0.68259,1,,,,,,47,WORD,UN,50,walnut,INCOME,m,,,,,,-0.052044271,-0.054192708,0,0,0,,0,184,184,226,1,
,,,,,,,,,,,,,,,,,,5edea84a36d2b814cfce6116,2020-08-10_12h09.59.072,lexical_decision_task_MP,2020.1.3,MacIntel,60,z,1,0.618475,,,,,,,,0.618475,1,,,,,,473,NW,UN,33,hablin,CRIBLE,z,,,,,,-0.052044271,-0.054192708,0,0,0,,0,185,185,412,1,
,,,,,,,,,,,,,,,,,,5edea84a36d2b814cfce6116,2020-08-10_12h09.59.072,lexical_decision_task_MP,2020.1.3,MacIntel,60,z,1,1.01645,,,,,,,,1.01645,1,,,,,,319,NW,"ID",33,zomber,ZOMBER,z,,,,,,-0.052044271,-0.054192708,0,0,0,,0,186,186,258,1,
,,,,,,,,,,,,,,,,,,5edea84a36d2b814cfce6116,2020-08-10_12h09.59.072,lexical_decision_task_MP,2020.1.3,MacIntel,60,m,1,0.754725,,,,,,,,0.754725,1,,,,,,115,WORD,"ID",33,guitar,GUITAR,m,,,,,,-0.052044271,-0.054192708,0,0,0,,0,187,187,54,1,
,,,,,,,,,,,,,,,,,,5edea84a36d2b814cfce6116,2020-08-10_12h09.59.072,lexical_decision_task_MP,2020.1.3,MacIntel,60,z,1,0.64166,,,,,,,,0.64166,1,,,,,,318,NW,"ID",33,reagly,REAGLY,z,,,,,,-0.052044271,-0.054192708,0,0,0,,0,188,188,257,1,
,,,,,,,,,,,,,,,,,,5edea84a36d2b814cfce6116,2020-08-10_12h09.59.072,lexical_decision_task_MP,2020.1.3,MacIntel,60,m,1,0.566845,,,,,,,,0.566845,1,,,,,,206,WORD,UN,33,wreath,TAILOR,m,,,,,,-0.052044271,-0.054192708,0,0,0,,0,189,189,145,1,
,,,,,,,,,,,,,,,,,,5edea84a36d2b814cfce6116,2020-08-10_12h09.59.072,lexical_decision_task_MP,2020.1.3,MacIntel,60,m,1,0.574,,,,,,,,0.574,1,,,,,,209,WORD,UN,33,monkey,SEARCH,m,,,,,,-0.052044271,-0.054192708,0,0,0,,0,190,190,148,1,
,,,,,,,,,,,,,,,,,,5edea84a36d2b814cfce6116,2020-08-10_12h09.59.072,lexical_decision_task_MP,2020.1.3,MacIntel,60,z,1,0.482895,,,,,,,,0.482895,1,,,,,,300,NW,UN,50,smenco,YARION,z,,,,,,-0.052044271,-0.054192708,0,0,0,,0,191,191,479,1,
,,,,,,,,,,,,,,,,,,5edea84a36d2b814cfce6116,2020-08-10_12h09.59.072,lexical_decision_task_MP,2020.1.3,MacIntel,60,z,1,0.505505,,,,,,,,0.505505,1,,,,,,446,NW,UN,33,gircue,RUNAMO,z,,,,,,-0.052044271,-0.054192708,0,0,0,,0,192,192,385,1,
,,,,,,,,,,,,,,,,,,5edea84a36d2b814cfce6116,2020-08-10_12h09.59.072,lexical_decision_task_MP,2020.1.3,MacIntel,60,z,1,0.450685,,,,,,,,0.450685,1,,,,,,265,NW,UN,50,varmit,DISTAR,z,,,,,,-0.052044271,-0.054192708,0,0,0,,0,193,193,444,1,
,,,,,,,,,,,,,,,,,,5edea84a36d2b814cfce6116,2020-08-10_12h09.59.072,lexical_decision_task_MP,2020.1.3,MacIntel,60,z,1,0.453595,,,,,,,,0.453595,1,,,,,,371,NW,"ID",50,geiloy,GEILOY,z,,,,,,-0.052044271,-0.054192708,0,0,0,,0,194,194,310,1,
,,,,,,,,,,,,,,,,,,5edea84a36d2b814cfce6116,2020-08-10_12h09.59.072,lexical_decision_task_MP,2020.1.3,MacIntel,60,z,1,0.484615,,,,,,,,0.484615,1,,,,,,292,NW,UN,50,swance,ABLINT,z,,,,,,-0.052044271,-0.054192708,0,0,0,,0,195,195,471,1,
,,,,,,,,,,,,,,,,,,5edea84a36d2b814cfce6116,2020-08-10_12h09.59.072,lexical_decision_task_MP,2020.1.3,MacIntel,60,z,1,0.39994,,,,,,,,0.39994,1,,,,,,357,NW,"ID",33,derain,DERAIN,z,,,,,,-0.052044271,-0.054192708,0,0,0,,0,196,196,296,1,
,,,,,,,,,,,,,,,,,,5edea84a36d2b814cfce6116,2020-08-10_12h09.59.072,lexical_decision_task_MP,2020.1.3,MacIntel,60,m,1,0.774055,,,,,,,,0.774055,1,,,,,,177,WORD,"ID",50,advent,ADVENT,m,,,,,,-0.052044271,-0.054192708,0,0,0,,0,197,197,116,1,
,,,,,,,,,,,,,,,,,,5edea84a36d2b814cfce6116,2020-08-10_12h09.59.072,lexical_decision_task_MP,2020.1.3,MacIntel,60,z,1,0.57042,,,,,,,,0.57042,1,,,,,,358,NW,"ID",33,fleack,FLEACK,z,,,,,,-0.052044271,-0.054192708,0,0,0,,0,198,198,297,1,
,,,,,,,,,,,,,,,,,,5edea84a36d2b814cfce6116,2020-08-10_12h09.59.072,lexical_decision_task_MP,2020.1.3,MacIntel,60,m,1,0.556805,,,,,,,,0.556805,1,,,,,,207,WORD,UN,33,hockey,WREATH,m,,,,,,-0.052044271,-0.054192708,0,0,0,,0,199,199,146,1,
,,,,,,,,,,,,,,,,,,5edea84a36d2b814cfce6116,2020-08-10_12h09.59.072,lexical_decision_task_MP,2020.1.3,MacIntel,60,z,1,0.468605,,,,,,,,0.468605,1,,,,,,310,NW,"ID",33,daniet,DANIET,z,,,,,,-0.052044271,-0.054192708,0,0,0,,0,200,200,249,1,
,,,,,,,,,,,,,,,,,,5edea84a36d2b814cfce6116,2020-08-10_12h09.59.072,lexical_decision_task_MP,2020.1.3,MacIntel,60,m,1,0.650855,,,,,,,,0.650855,1,,,,,,224,WORD,UN,33,vulgar,PERIOD,m,,,,,,-0.052044271,-0.054192708,0,0,0,,0,201,201,163,1,
,,,,,,,,,,,,,,,,,,5edea84a36d2b814cfce6116,2020-08-10_12h09.59.072,lexical_decision_task_MP,2020.1.3,MacIntel,60,m,1,0.68766,,,,,,,,0.68766,1,,,,,,99,WORD,"ID",33,fluent,FLUENT,m,,,,,,-0.052044271,-0.054192708,0,0,0,,0,202,202,38,1,
,,,,,,,,,,,,,,,,,,5edea84a36d2b814cfce6116,2020-08-10_12h09.59.072,lexical_decision_task_MP,2020.1.3,MacIntel,60,z,1,0.58527,,,,,,,,0.58527,1,,,,,,431,NW,UN,33,lunker,CHRUMS,z,,,,,,-0.052044271,-0.054192708,0,0,0,,0,203,203,370,1,
,,,,,,,,,,,,,,,,,,5edea84a36d2b814cfce6116,2020-08-10_12h09.59.072,lexical_decision_task_MP,2020.1.3,MacIntel,60,m,1,0.50454,,,,,,,,0.50454,1,,,,,,158,WORD,"ID",50,island,ISLAND,m,,,,,,-0.052044271,-0.054192708,0,0,0,,0,204,204,97,1,
,,,,,,,,,,,,,,,,,,5edea84a36d2b814cfce6116,2020-08-10_12h09.59.072,lexical_decision_task_MP,2020.1.3,MacIntel,60,z,1,0.56706,,,,,,,,0.56706,1,,,,,,272,NW,UN,50,sortel,DAMILT,z,,,,,,-0.052044271,-0.054192708,0,0,0,,0,205,205,451,1,
,,,,,,,,,,,,,,,,,,5edea84a36d2b814cfce6116,2020-08-10_12h09.59.072,lexical_decision_task_MP,2020.1.3,MacIntel,60,m,1,0.699155,,,,,,,,0.699155,1,,,,,,52,WORD,UN,50,police,IMPOSE,m,,,,,,-0.052044271,-0.054192708,0,0,0,,0,206,206,231,1,
,,,,,,,,,,,,,,,,,,5edea84a36d2b814cfce6116,2020-08-10_12h09.59.072,lexical_decision_task_MP,2020.1.3,MacIntel,60,z,1,0.768865,,,,,,,,0.768865,1,,,,,,405,NW,"ID",50,flumni,FLUMNI,z,,,,,,-0.052044271,-0.054192708,0,0,0,,0,207,207,344,1,
,,,,,,,,,,,,,,,,,,5edea84a36d2b814cfce6116,2020-08-10_12h09.59.072,lexical_decision_task_MP,2020.1.3,MacIntel,60,m,1,0.609435,,,,,,,,0.609435,1,,,,,,87,WORD,"ID",33,filter,FILTER,m,,,,,,-0.052044271,-0.054192708,0,0,0,,0,208,208,26,1,
,,,,,,,,,,,,,,,,,,5edea84a36d2b814cfce6116,2020-08-10_12h09.59.072,lexical_decision_task_MP,2020.1.3,MacIntel,60,m,1,0.849965,,,,,,,,0.849965,1,,,,,,65,WORD,"ID",33,symbol,SYMBOL,m,,,,,,-0.052044271,-0.054192708,0,0,0,,0,209,209,4,1,
,,,,,,,,,,,,,,,,,,5edea84a36d2b814cfce6116,2020-08-10_12h09.59.072,lexical_decision_task_MP,2020.1.3,MacIntel,60,m,1,0.88503,,,,,,,,0.88503,1,,,,,,138,WORD,"ID",50,melody,MELODY,m,,,,,,-0.052044271,-0.054192708,0,0,0,,0,210,210,77,1,
,,,,,,,,,,,,,,,,,,5edea84a36d2b814cfce6116,2020-08-10_12h09.59.072,lexical_decision_task_MP,2020.1.3,MacIntel,60,m,1,0.77097,,,,,,,,0.77097,1,,,,,,108,WORD,"ID",33,reckon,RECKON,m,,,,,,-0.052044271,-0.054192708,0,0,0,,0,211,211,47,1,
,,,,,,,,,,,,,,,,,,5edea84a36d2b814cfce6116,2020-08-10_12h09.59.072,lexical_decision_task_MP,2020.1.3,MacIntel,60,z,1,0.79941,,,,,,,,0.79941,1,,,,,,408,NW,"ID",50,hurnia,HURNIA,z,,,,,,-0.052044271,-0.054192708,0,0,0,,0,212,212,347,1,
,,,,,,,,,,,,,,,,,,5edea84a36d2b814cfce6116,2020-08-10_12h09.59.072,lexical_decision_task_MP,2020.1.3,MacIntel,60,m,1,0.538185,,,,,,,,0.538185,1,,,,,,198,WORD,UN,33,invoke,WICKED,m,,,,,,-0.052044271,-0.054192708,0,0,0,,0,213,213,137,1,
,,,,,,,,,,,,,,,,,,5edea84a36d2b814cfce6116,2020-08-10_12h09.59.072,lexical_decision_task_MP,2020.1.3,MacIntel,60,z,1,1.25722,,,,,,,,1.25722,1,,,,,,254,NW,UN,50,apight,VAROSH,z,,,,,,-0.052044271,-0.054192708,0,0,0,,0,214,214,433,1,
,,,,,,,,,,,,,,,,,,5edea84a36d2b814cfce6116,2020-08-10_12h09.59.072,lexical_decision_task_MP,2020.1.3,MacIntel,60,z,1,0.71775,,,,,,,,0.71775,1,,,,,,457,NW,UN,33,barcet,WANIGH,z,,,,,,-0.052044271,-0.054192708,0,0,0,,0,215,215,396,1,
,,,,,,,,,,,,,,,,,,5edea84a36d2b814cfce6116,2020-08-10_12h09.59.072,lexical_decision_task_MP,2020.1.3,MacIntel,60,z,1,0.63835,,,,,,,,0.63835,1,,,,,,379,NW,"ID",50,auting,AUTING,z,,,,,,-0.052044271,-0.054192708,0,0,0,,0,216,216,318,1,
,,,,,,,,,,,,,,,,,,5edea84a36d2b814cfce6116,2020-08-10_12h09.59.072,lexical_decision_task_MP,2020.1.3,MacIntel,60,m,1,0.63503,,,,,,,,0.63503,1,,,,,,122,WORD,"ID",50,linger,LINGER,m,,,,,,-0.030355903,-0.238420139,0,0,0,,0,217,217,61,1,
,,,,,,,,,,,,,,,,,,5edea84a36d2b814cfce6116,2020-08-10_12h09.59.072,lexical_decision_task_MP,2020.1.3,MacIntel,60,z,1,0.61745,,,,,,,,0.61745,1,,,,,,420,NW,"ID",50,gushop,GUSHOP,z,,,,,,-0.030355903,-0.238420139,0,0,0,,0,218,218,359,1,
,,,,,,,,,,,,,,,,,,5edea84a36d2b814cfce6116,2020-08-10_12h09.59.072,lexical_decision_task_MP,2020.1.3,MacIntel,60,z,1,0.550215,,,,,,,,0.550215,1,,,,,,436,NW,UN,33,snapel,FRUTAN,z,,,,,,-0.030355903,-0.238420139,0,0,0,,0,219,219,375,1,
,,,,,,,,,,,,,,,,,,5edea84a36d2b814cfce6116,2020-08-10_12h09.59.072,lexical_decision_task_MP,2020.1.3,MacIntel,60,z,1,0.505805,,,,,,,,0.505805,1,,,,,,261,NW,UN,50,quilew,STUNCH,z,,,,,,-0.030355903,-0.238420139,0,0,0,,0,220,220,440,1,
,,,,,,,,,,,,,,,,,,5edea84a36d2b814cfce6116,2020-08-10_12h09.59.072,lexical_decision_task_MP,2020.1.3,MacIntel,60,m,1,0.80057,,,,,,,,0.80057,1,,,,,,30,WORD,UN,50,weapon,ORIENT,m,,,,,,-0.030355903,-0.238420139,0,0,0,,0,221,221,209,1,
,,,,,,,,,,,,,,,,,,5edea84a36d2b814cfce6116,2020-08-10_12h09.59.072,lexical_decision_task_MP,2020.1.3,MacIntel,60,m,1,0.601015,,,,,,,,0.601015,1,,,,,,157,WORD,"ID",50,dragon,DRAGON,m,,,,,,-0.030355903,-0.238420139,0,0,0,,0,222,222,96,1,
,,,,,,,,,,,,,,,,,,5edea84a36d2b814cfce6116,2020-08-10_12h09.59.072,lexical_decision_task_MP,2020.1.3,MacIntel,60,m,1,0.71793,,,,,,,,0.71793,1,,,,,,170,WORD,"ID",50,pounce,POUNCE,m,,,,,,-0.030355903,-0.238420139,0,0,0,,0,223,223,109,1,
,,,,,,,,,,,,,,,,,,5edea84a36d2b814cfce6116,2020-08-10_12h09.59.072,lexical_decision_task_MP,2020.1.3,MacIntel,60,m,1,0.56629,,,,,,,,0.56629,1,,,,,,238,WORD,UN,33,behalf,FLOWER,m,,,,,,-0.030355903,-0.238420139,0,0,0,,0,224,224,177,1,
,,,,,,,,,,,,,,,,,,5edea84a36d2b814cfce6116,2020-08-10_12h09.59.072,lexical_decision_task_MP,2020.1.3,MacIntel,60,m,1,0.52041,,,,,,,,0.52041,1,,,,,,41,WORD,UN,50,chapel,SPRING,m,,,,,,-0.030355903,-0.238420139,0,0,0,,0,225,225,220,1,
,,,,,,,,,,,,,,,,,,5edea84a36d2b814cfce6116,2020-08-10_12h09.59.072,lexical_decision_task_MP,2020.1.3,MacIntel,60,m,1,0.466435,,,,,,,,0.466435,1,,,,,,125,WORD,"ID",50,nickel,NICKEL,m,,,,,,-0.030355903,-0.238420139,0,0,0,,0,226,226,64,1,
,,,,,,,,,,,,,,,,,,5edea84a36d2b814cfce6116,2020-08-10_12h09.59.072,lexical_decision_task_MP,2020.1.3,MacIntel,60,m,1,0.48535,,,,,,,,0.48535,1,,,,,,226,WORD,UN,33,flower,CASINO,m,,,,,,-0.030355903,-0.238420139,0,0,0,,0,227,227,165,1,
,,,,,,,,,,,,,,,,,,5edea84a36d2b814cfce6116,2020-08-10_12h09.59.072,lexical_decision_task_MP,2020.1.3,MacIntel,60,m,1,0.38248,,,,,,,,0.38248,1,,,,,,106,WORD,"ID",33,ransom,RANSOM,m,,,,,,-0.030355903,-0.238420139,0,0,0,,0,228,228,45,1,
,,,,,,,,,,,,,,,,,,5edea84a36d2b814cfce6116,2020-08-10_12h09.59.072,lexical_decision_task_MP,2020.1.3,MacIntel,60,m,1,0.416045,,,,,,,,0.416045,1,,,,,,88,WORD,"ID",33,hunger,HUNGER,m,,,,,,-0.030355903,-0.238420139,0,0,0,,0,229,229,27,1,
,,,,,,,,,,,,,,,,,,5edea84a36d2b814cfce6116,2020-08-10_12h09.59.072,lexical_decision_task_MP,2020.1.3,MacIntel,60,m,1,0.283605,,,,,,,,0.283605,1,,,,,,174,WORD,"ID",50,turkey,TURKEY,m,,,,,,-0.030355903,-0.238420139,0,0,0,,0,230,230,113,1,
,,,,,,,,,,,,,,,,,,5edea84a36d2b814cfce6116,2020-08-10_12h09.59.072,lexical_decision_task_MP,2020.1.3,MacIntel,60,m,0,0.410285,,,,,,,,0.410285,0,,,,,,399,NW,"ID",50,fouret,FOURET,z,,,,,,-0.030355903,-0.238420139,0,0,0,,0,231,231,338,1,
,,,,,,,,,,,,,,,,,,5edea84a36d2b814cfce6116,2020-08-10_12h09.59.072,lexical_decision_task_MP,2020.1.3,MacIntel,60,z,1,0.549615,,,,,,,,0.549615,1,,,,,,377,NW,"ID",50,injore,INJORE,z,,,,,,-0.030355903,-0.238420139,0,0,0,,0,232,232,316,1,
,,,,,,,,,,,,,,,,,,5edea84a36d2b814cfce6116,2020-08-10_12h09.59.072,lexical_decision_task_MP,2020.1.3,MacIntel,60,z,1,0.503415,,,,,,,,0.503415,1,,,,,,417,NW,"ID",50,earoud,EAROUD,z,,,,,,-0.030355903,-0.238420139,0,0,0,,0,233,233,356,1,
,,,,,,,,,,,,,,,,,,5edea84a36d2b814cfce6116,2020-08-10_12h09.59.072,lexical_decision_task_MP,2020.1.3,MacIntel,60,z,1,0.49128,,,,,,,,0.49128,1,,,,,,423,NW,UN,33,praile,STRELD,z,,,,,,-0.030355903,-0.238420139,0,0,0,,0,234,234,362,1,
,,,,,,,,,,,,,,,,,,5edea84a36d2b814cfce6116,2020-08-10_12h09.59.072,lexical_decision_task_MP,2020.1.3,MacIntel,60,z,0,0.41942,,,,,,,,0.41942,0,,,,,,114,WORD,"ID",33,placid,PLACID,m,,,,,,-0.030355903,-0.238420139,0,0,0,,0,235,235,53,1,
,,,,,,,,,,,,,,,,,,5edea84a36d2b814cfce6116,2020-08-10_12h09.59.072,lexical_decision_task_MP,2020.1.3,MacIntel,60,z,1,0.3852,,,,,,,,0.3852,1,,,,,,454,NW,UN,33,tondle,SCOUGE,z,,,,,,-0.030355903,-0.238420139,0,0,0,,0,236,236,393,1,
,,,,,,,,,,,,,,,,,,5edea84a36d2b814cfce6116,2020-08-10_12h09.59.072,lexical_decision_task_MP,2020.1.3,MacIntel,60,z,1,0.319855,,,,,,,,0.319855,1,,,,,,329,NW,"ID",33,yarike,YARIKE,z,,,,,,-0.030355903,-0.238420139,0,0,0,,0,237,237,268,1,
,,,,,,,,,,,,,,,,,,5edea84a36d2b814cfce6116,2020-08-10_12h09.59.072,lexical_decision_task_MP,2020.1.3,MacIntel,60,z,0,0.337535,,,,,,,,0.337535,0,,,,,,140,WORD,"ID",50,prince,PRINCE,m,,,,,,-0.030355903,-0.238420139,0,0,0,,0,238,238,79,1,
,,,,,,,,,,,,,,,,,,5edea84a36d2b814cfce6116,2020-08-10_12h09.59.072,lexical_decision_task_MP,2020.1.3,MacIntel,60,m,1,0.45004,,,,,,,,0.45004,1,,,,,,162,WORD,"ID",50,candle,CANDLE,m,,,,,,-0.030355903,-0.238420139,0,0,0,,0,239,239,101,1,
,,,,,,,,,,,,,,,,,,5edea84a36d2b814cfce6116,2020-08-10_12h09.59.072,lexical_decision_task_MP,2020.1.3,MacIntel,60,z,1,0.537805,,,,,,,,0.537805,1,,,,,,465,NW,UN,33,bafent,WHIVEX,z,,,,,,-0.030355903,-0.238420139,0,0,0,,0,240,240,404,1,
,,,,,,,,,,,,,,,,,,5edea84a36d2b814cfce6116,2020-08-10_12h09.59.072,lexical_decision_task_MP,2020.1.3,MacIntel,60,z,1,0.90125,,,,,,,,0.90125,1,,,,,,416,NW,"ID",50,pathel,PATHEL,z,,,,,,-0.030355903,-0.238420139,0,0,0,space,0,241,241,355,1,2.17222
,,,,,,,,,,,,,,,,,,5edea84a36d2b814cfce6116,2020-08-10_12h09.59.072,lexical_decision_task_MP,2020.1.3,MacIntel,60,z,1,0.68782,,,,,,,,0.68782,1,,,,,,469,NW,UN,33,crudio,PADIFS,z,,,,,,-0.030355903,-0.238420139,0,0,0,,0,242,242,408,1,
,,,,,,,,,,,,,,,,,,5edea84a36d2b814cfce6116,2020-08-10_12h09.59.072,lexical_decision_task_MP,2020.1.3,MacIntel,60,z,0,0.519445,,,,,,,,0.519445,0,,,,,,10,WORD,UN,50,cruise,ETHNIC,m,,,,,,-0.030355903,-0.238420139,0,0,0,,0,243,243,189,1,
,,,,,,,,,,,,,,,,,,5edea84a36d2b814cfce6116,2020-08-10_12h09.59.072,lexical_decision_task_MP,2020.1.3,MacIntel,60,z,1,1.284735,,,,,,,,1.284735,1,,,,,,410,NW,"ID",50,tunory,TUNORY,z,,,,,,-0.030355903,-0.238420139,0,0,0,,0,244,244,349,1,
,,,,,,,,,,,,,,,,,,5edea84a36d2b814cfce6116,2020-08-10_12h09.59.072,lexical_decision_task_MP,2020.1.3,MacIntel,60,z,1,0.73594,,,,,,,,0.73594,1,,,,,,418,NW,"ID",50,suidle,SUIDLE,z,,,,,,-0.030355903,-0.238420139,0,0,0,,0,245,245,357,1,
,,,,,,,,,,,,,,,,,,5edea84a36d2b814cfce6116,2020-08-10_12h09.59.072,lexical_decision_task_MP,2020.1.3,MacIntel,60,m,1,0.73865,,,,,,,,0.73865,1,,,,,,139,WORD,"ID",50,debris,DEBRIS,m,,,,,,-0.030355903,-0.238420139,0,0,0,,0,246,246,78,1,
,,,,,,,,,,,,,,,,,,5edea84a36d2b814cfce6116,2020-08-10_12h09.59.072,lexical_decision_task_MP,2020.1.3,MacIntel,60,z,1,0.650475,,,,,,,,0.650475,1,,,,,,297,NW,UN,50,piergy,FERTIC,z,,,,,,-0.030355903,-0.238420139,0,0,0,,0,247,247,476,1,
,,,,,,,,,,,,,,,,,,5edea84a36d2b814cfce6116,2020-08-10_12h09.59.072,lexical_decision_task_MP,2020.1.3,MacIntel,60,z,1,0.783935,,,,,,,,0.783935,1,,,,,,449,NW,UN,33,phrect,BRUNGE,z,,,,,,-0.030355903,-0.238420139,0,0,0,,0,248,248,388,1,
,,,,,,,,,,,,,,,,,,5edea84a36d2b814cfce6116,2020-08-10_12h09.59.072,lexical_decision_task_MP,2020.1.3,MacIntel,60,m,1,1.11735,,,,,,,,1.11735,1,,,,,,76,WORD,"ID",33,exotic,EXOTIC,m,,,,,,-0.030355903,-0.238420139,0,0,0,,0,249,249,15,1,
,,,,,,,,,,,,,,,,,,5edea84a36d2b814cfce6116,2020-08-10_12h09.59.072,lexical_decision_task_MP,2020.1.3,MacIntel,60,m,1,0.775735,,,,,,,,0.775735,1,,,,,,184,WORD,UN,33,bother,SLEAZY,m,,,,,,-0.030355903,-0.238420139,0,0,0,,0,250,250,123,1,
,,,,,,,,,,,,,,,,,,5edea84a36d2b814cfce6116,2020-08-10_12h09.59.072,lexical_decision_task_MP,2020.1.3,MacIntel,60,m,1,0.81912,,,,,,,,0.81912,1,,,,,,229,WORD,UN,33,fringe,MOTHER,m,,,,,,-0.030355903,-0.238420139,0,0,0,,0,251,251,168,1,
,,,,,,,,,,,,,,,,,,5edea84a36d2b814cfce6116,2020-08-10_12h09.59.072,lexical_decision_task_MP,2020.1.3,MacIntel,60,z,1,0.715885,,,,,,,,0.715885,1,,,,,,477,NW,UN,33,lobush,PHOTIE,z,,,,,,-0.030355903,-0.238420139,0,0,0,,0,252,252,416,1,
,,,,,,,,,,,,,,,,,,5edea84a36d2b814cfce6116,2020-08-10_12h09.59.072,lexical_decision_task_MP,2020.1.3,MacIntel,60,m,1,0.604125,,,,,,,,0.604125,1,,,,,,74,WORD,"ID",33,plaque,PLAQUE,m,,,,,,-0.030355903,-0.238420139,0,0,0,,0,253,253,13,1,
,,,,,,,,,,,,,,,,,,5edea84a36d2b814cfce6116,2020-08-10_12h09.59.072,lexical_decision_task_MP,2020.1.3,MacIntel,60,z,1,0.954485,,,,,,,,0.954485,1,,,,,,289,NW,UN,50,splino,STARBY,z,,,,,,-0.030355903,-0.238420139,0,0,0,,0,254,254,468,1,
,,,,,,,,,,,,,,,,,,5edea84a36d2b814cfce6116,2020-08-10_12h09.59.072,lexical_decision_task_MP,2020.1.3,MacIntel,60,z,1,0.6381,,,,,,,,0.6381,1,,,,,,421,NW,UN,33,alcoud,KNISMA,z,,,,,,-0.030355903,-0.238420139,0,0,0,,0,255,255,360,1,
,,,,,,,,,,,,,,,,,,5edea84a36d2b814cfce6116,2020-08-10_12h09.59.072,lexical_decision_task_MP,2020.1.3,MacIntel,60,m,1,0.648435,,,,,,,,0.648435,1,,,,,,104,WORD,"ID",33,studio,STUDIO,m,,,,,,-0.030355903,-0.238420139,0,0,0,,0,256,256,43,1,
,,,,,,,,,,,,,,,,,,5edea84a36d2b814cfce6116,2020-08-10_12h09.59.072,lexical_decision_task_MP,2020.1.3,MacIntel,60,m,1,1.2157,,,,,,,,1.2157,1,,,,,,39,WORD,UN,50,convey,INSECT,m,,,,,,-0.030355903,-0.238420139,0,0,0,,0,257,257,218,1,
,,,,,,,,,,,,,,,,,,5edea84a36d2b814cfce6116,2020-08-10_12h09.59.072,lexical_decision_task_MP,2020.1.3,MacIntel,60,z,1,0.655925,,,,,,,,0.655925,1,,,,,,441,NW,UN,33,aboune,RASTOE,z,,,,,,-0.030355903,-0.238420139,0,0,0,,0,258,258,380,1,
,,,,,,,,,,,,,,,,,,5edea84a36d2b814cfce6116,2020-08-10_12h09.59.072,lexical_decision_task_MP,2020.1.3,MacIntel,60,m,1,0.940105,,,,,,,,0.940105,1,,,,,,127,WORD,"ID",50,castle,CASTLE,m,,,,,,-0.030355903,-0.238420139,0,0,0,,0,259,259,66,1,
,,,,,,,,,,,,,,,,,,5edea84a36d2b814cfce6116,2020-08-10_12h09.59.072,lexical_decision_task_MP,2020.1.3,MacIntel,60,z,1,1.074395,,,,,,,,1.074395,1,,,,,,433,NW,UN,33,pitrom,DRANCE,z,,,,,,-0.030355903,-0.238420139,0,0,0,,0,260,260,372,1,
,,,,,,,,,,,,,,,,,,5edea84a36d2b814cfce6116,2020-08-10_12h09.59.072,lexical_decision_task_MP,2020.1.3,MacIntel,60,m,1,0.58305,,,,,,,,0.58305,1,,,,,,103,WORD,"ID",33,bounce,BOUNCE,m,,,,,,-0.030355903,-0.238420139,0,0,0,,0,261,261,42,1,
,,,,,,,,,,,,,,,,,,5edea84a36d2b814cfce6116,2020-08-10_12h09.59.072,lexical_decision_task_MP,2020.1.3,MacIntel,60,m,1,0.62367,,,,,,,,0.62367,1,,,,,,186,WORD,UN,33,course,PORTAL,m,,,,,,-0.030355903,-0.238420139,0,0,0,,0,262,262,125,1,
,,,,,,,,,,,,,,,,,,5edea84a36d2b814cfce6116,2020-08-10_12h09.59.072,lexical_decision_task_MP,2020.1.3,MacIntel,60,m,1,0.535395,,,,,,,,0.535395,1,,,,,,21,WORD,UN,50,jockey,SIMPLE,m,,,,,,-0.030355903,-0.238420139,0,0,0,,0,263,263,200,1,
,,,,,,,,,,,,,,,,,,5edea84a36d2b814cfce6116,2020-08-10_12h09.59.072,lexical_decision_task_MP,2020.1.3,MacIntel,60,m,1,0.501905,,,,,,,,0.501905,1,,,,,,48,WORD,UN,50,survey,WALNUT,m,,,,,,-0.030355903,-0.238420139,0,0,0,,0,264,264,227,1,
,,,,,,,,,,,,,,,,,,5edea84a36d2b814cfce6116,2020-08-10_12h09.59.072,lexical_decision_task_MP,2020.1.3,MacIntel,60,z,1,0.80392,,,,,,,,0.80392,1,,,,,,253,NW,UN,50,varosh,RESAIT,z,,,,,,-0.030355903,-0.238420139,0,0,0,,0,265,265,432,1,
,,,,,,,,,,,,,,,,,,5edea84a36d2b814cfce6116,2020-08-10_12h09.59.072,lexical_decision_task_MP,2020.1.3,MacIntel,60,z,0,0.5655,,,,,,,,0.5655,0,,,,,,126,WORD,"ID",50,enough,ENOUGH,m,,,,,,-0.030355903,-0.238420139,0,0,0,,0,266,266,65,1,
,,,,,,,,,,,,,,,,,,5edea84a36d2b814cfce6116,2020-08-10_12h09.59.072,lexical_decision_task_MP,2020.1.3,MacIntel,60,m,1,0.550075,,,,,,,,0.550075,1,,,,,,237,WORD,UN,33,glance,POSTER,m,,,,,,-0.030355903,-0.238420139,0,0,0,,0,267,267,176,1,
,,,,,,,,,,,,,,,,,,5edea84a36d2b814cfce6116,2020-08-10_12h09.59.072,lexical_decision_task_MP,2020.1.3,MacIntel,60,m,1,0.617715,,,,,,,,0.617715,1,,,,,,225,WORD,UN,33,casino,VULGAR,m,,,,,,-0.030355903,-0.238420139,0,0,0,,0,268,268,164,1,
,,,,,,,,,,,,,,,,,,5edea84a36d2b814cfce6116,2020-08-10_12h09.59.072,lexical_decision_task_MP,2020.1.3,MacIntel,60,m,1,0.53226,,,,,,,,0.53226,1,,,,,,34,WORD,UN,50,socket,JUNGLE,m,,,,,,-0.030355903,-0.238420139,0,0,0,,0,269,269,213,1,
,,,,,,,,,,,,,,,,,,5edea84a36d2b814cfce6116,2020-08-10_12h09.59.072,lexical_decision_task_MP,2020.1.3,MacIntel,60,m,1,0.53833,,,,,,,,0.53833,1,,,,,,12,WORD,UN,50,strive,ORANGE,m,,,,,,-0.030355903,-0.238420139,0,0,0,,0,270,270,191,1,
,,,,,,,,,,,,,,,,,,5edea84a36d2b814cfce6116,2020-08-10_12h09.59.072,lexical_decision_task_MP,2020.1.3,MacIntel,60,z,1,0.582365,,,,,,,,0.582365,1,,,,,,394,NW,"ID",50,spaqux,SPAQUX,z,,,,,,-0.030355903,-0.238420139,0,0,0,,0,271,271,333,1,
,,,,,,,,,,,,,,,,,,5edea84a36d2b814cfce6116,2020-08-10_12h09.59.072,lexical_decision_task_MP,2020.1.3,MacIntel,60,z,1,0.875055,,,,,,,,0.875055,1,,,,,,252,NW,UN,50,resait,STAPOD,z,,,,,,-0.030355903,-0.238420139,0,0,0,,0,272,272,431,1,
,,,,,,,,,,,,,,,,,,5edea84a36d2b814cfce6116,2020-08-10_12h09.59.072,lexical_decision_task_MP,2020.1.3,MacIntel,60,z,1,0.63882,,,,,,,,0.63882,1,,,,,,323,NW,"ID",33,rosail,ROSAIL,z,,,,,,-0.030355903,-0.238420139,0,0,0,,0,273,273,262,1,
,,,,,,,,,,,,,,,,,,5edea84a36d2b814cfce6116,2020-08-10_12h09.59.072,lexical_decision_task_MP,2020.1.3,MacIntel,60,z,1,1.01546,,,,,,,,1.01546,1,,,,,,269,NW,UN,50,wrimsy,ORCHET,z,,,,,,-0.030355903,-0.238420139,0,0,0,,0,274,274,448,1,
,,,,,,,,,,,,,,,,,,5edea84a36d2b814cfce6116,2020-08-10_12h09.59.072,lexical_decision_task_MP,2020.1.3,MacIntel,60,m,0,0.600265,,,,,,,,0.600265,0,,,,,,384,NW,"ID",50,guesco,GUESCO,z,,,,,,-0.030355903,-0.238420139,0,0,0,,0,275,275,323,1,
,,,,,,,,,,,,,,,,,,5edea84a36d2b814cfce6116,2020-08-10_12h09.59.072,lexical_decision_task_MP,2020.1.3,MacIntel,60,z,1,0.54881,,,,,,,,0.54881,1,,,,,,241,NW,UN,50,unwert,SMENCO,z,,,,,,-0.030355903,-0.238420139,0,0,0,,0,276,276,420,1,
,,,,,,,,,,,,,,,,,,5edea84a36d2b814cfce6116,2020-08-10_12h09.59.072,lexical_decision_task_MP,2020.1.3,MacIntel,60,z,1,0.39255,,,,,,,,0.39255,1,,,,,,480,NW,UN,33,knisma,ROBULY,z,,,,,,-0.030355903,-0.238420139,0,0,0,,0,277,277,419,1,
,,,,,,,,,,,,,,,,,,5edea84a36d2b814cfce6116,2020-08-10_12h09.59.072,lexical_decision_task_MP,2020.1.3,MacIntel,60,z,1,0.454315,,,,,,,,0.454315,1,,,,,,415,NW,"ID",50,higsta,HIGSTA,z,,,,,,-0.030355903,-0.238420139,0,0,0,,0,278,278,354,1,
,,,,,,,,,,,,,,,,,,5edea84a36d2b814cfce6116,2020-08-10_12h09.59.072,lexical_decision_task_MP,2020.1.3,MacIntel,60,m,1,0.48312,,,,,,,,0.48312,1,,,,,,105,WORD,"ID",33,number,NUMBER,m,,,,,,-0.030355903,-0.238420139,0,0,0,,0,279,279,44,1,
,,,,,,,,,,,,,,,,,,5edea84a36d2b814cfce6116,2020-08-10_12h09.59.072,lexical_decision_task_MP,2020.1.3,MacIntel,60,m,1,0.459465,,,,,,,,0.459465,1,,,,,,14,WORD,UN,50,orange,ALMOST,m,,,,,,-0.030355903,-0.238420139,0,0,0,,0,280,280,193,1,
,,,,,,,,,,,,,,,,,,5edea84a36d2b814cfce6116,2020-08-10_12h09.59.072,lexical_decision_task_MP,2020.1.3,MacIntel,60,m,1,0.733715,,,,,,,,0.733715,1,,,,,,142,WORD,"ID",50,spruce,SPRUCE,m,,,,,,-0.030355903,-0.238420139,0,0,0,,0,281,281,81,1,
,,,,,,,,,,,,,,,,,,5edea84a36d2b814cfce6116,2020-08-10_12h09.59.072,lexical_decision_task_MP,2020.1.3,MacIntel,60,z,1,0.47038,,,,,,,,0.47038,1,,,,,,414,NW,"ID",50,serbol,SERBOL,z,,,,,,-0.030355903,-0.238420139,0,0,0,,0,282,282,353,1,
,,,,,,,,,,,,,,,,,,5edea84a36d2b814cfce6116,2020-08-10_12h09.59.072,lexical_decision_task_MP,2020.1.3,MacIntel,60,z,1,0.48657,,,,,,,,0.48657,1,,,,,,286,NW,UN,50,nymbel,RELDON,z,,,,,,-0.030355903,-0.238420139,0,0,0,,0,283,283,465,1,
,,,,,,,,,,,,,,,,,,5edea84a36d2b814cfce6116,2020-08-10_12h09.59.072,lexical_decision_task_MP,2020.1.3,MacIntel,60,z,1,0.54223,,,,,,,,0.54223,1,,,,,,271,NW,UN,50,damilt,AUBRID,z,,,,,,-0.030355903,-0.238420139,0,0,0,,0,284,284,450,1,
,,,,,,,,,,,,,,,,,,5edea84a36d2b814cfce6116,2020-08-10_12h09.59.072,lexical_decision_task_MP,2020.1.3,MacIntel,60,m,1,0.67482,,,,,,,,0.67482,1,,,,,,163,WORD,"ID",50,string,STRING,m,,,,,,-0.030355903,-0.238420139,0,0,0,,0,285,285,102,1,
,,,,,,,,,,,,,,,,,,5edea84a36d2b814cfce6116,2020-08-10_12h09.59.072,lexical_decision_task_MP,2020.1.3,MacIntel,60,z,1,0.605705,,,,,,,,0.605705,1,,,,,,360,NW,"ID",33,desory,DESORY,z,,,,,,-0.030355903,-0.238420139,0,0,0,,0,286,286,299,1,
,,,,,,,,,,,,,,,,,,5edea84a36d2b814cfce6116,2020-08-10_12h09.59.072,lexical_decision_task_MP,2020.1.3,MacIntel,60,m,1,0.566655,,,,,,,,0.566655,1,,,,,,64,WORD,"ID",33,throne,THRONE,m,,,,,,-0.030355903,-0.238420139,0,0,0,,0,287,287,3,1,
,,,,,,,,,,,,,,,,,,5edea84a36d2b814cfce6116,2020-08-10_12h09.59.072,lexical_decision_task_MP,2020.1.3,MacIntel,60,z,1,0.553955,,,,,,,,0.553955,1,,,,,,363,NW,"ID",50,breali,BREALI,z,,,,,,-0.030355903,-0.238420139,0,0,0,,0,288,288,302,1,
,,,,,,,,,,,,,,,,,,5edea84a36d2b814cfce6116,2020-08-10_12h09.59.072,lexical_decision_task_MP,2020.1.3,MacIntel,60,z,1,0.65196,,,,,,,,0.65196,1,,,,,,429,NW,UN,33,caroey,FUNTLE,z,,,,,,-0.030355903,-0.238420139,0,0,0,,0,289,289,368,1,
,,,,,,,,,,,,,,,,,,5edea84a36d2b814cfce6116,2020-08-10_12h09.59.072,lexical_decision_task_MP,2020.1.3,MacIntel,60,m,1,0.521395,,,,,,,,0.521395,1,,,,,,110,WORD,"ID",33,polite,POLITE,m,,,,,,-0.030355903,-0.238420139,0,0,0,,0,290,290,49,1,
,,,,,,,,,,,,,,,,,,5edea84a36d2b814cfce6116,2020-08-10_12h09.59.072,lexical_decision_task_MP,2020.1.3,MacIntel,60,m,1,0.51817,,,,,,,,0.51817,1,,,,,,96,WORD,"ID",33,ignore,IGNORE,m,,,,,,-0.030355903,-0.238420139,0,0,0,,0,291,291,35,1,
,,,,,,,,,,,,,,,,,,5edea84a36d2b814cfce6116,2020-08-10_12h09.59.072,lexical_decision_task_MP,2020.1.3,MacIntel,60,m,0,0.48693,,,,,,,,0.48693,0,,,,,,425,NW,UN,33,urivel,FRUDGE,z,,,,,,-0.030355903,-0.238420139,0,0,0,,0,292,292,364,1,
,,,,,,,,,,,,,,,,,,5edea84a36d2b814cfce6116,2020-08-10_12h09.59.072,lexical_decision_task_MP,2020.1.3,MacIntel,60,m,1,0.625785,,,,,,,,0.625785,1,,,,,,199,WORD,UN,33,plague,INVOKE,m,,,,,,-0.030355903,-0.238420139,0,0,0,,0,293,293,138,1,
,,,,,,,,,,,,,,,,,,5edea84a36d2b814cfce6116,2020-08-10_12h09.59.072,lexical_decision_task_MP,2020.1.3,MacIntel,60,m,1,0.536585,,,,,,,,0.536585,1,,,,,,165,WORD,"ID",50,invest,INVEST,m,,,,,,-0.030355903,-0.238420139,0,0,0,,0,294,294,104,1,
,,,,,,,,,,,,,,,,,,5edea84a36d2b814cfce6116,2020-08-10_12h09.59.072,lexical_decision_task_MP,2020.1.3,MacIntel,60,z,1,0.70515,,,,,,,,0.70515,1,,,,,,294,NW,UN,50,gleath,INHORT,z,,,,,,-0.030355903,-0.238420139,0,0,0,,0,295,295,473,1,
,,,,,,,,,,,,,,,,,,5edea84a36d2b814cfce6116,2020-08-10_12h09.59.072,lexical_decision_task_MP,2020.1.3,MacIntel,60,m,1,0.54959,,,,,,,,0.54959,1,,,,,,121,WORD,"ID",50,thrive,THRIVE,m,,,,,,-0.030355903,-0.238420139,0,0,0,,0,296,296,60,1,
,,,,,,,,,,,,,,,,,,5edea84a36d2b814cfce6116,2020-08-10_12h09.59.072,lexical_decision_task_MP,2020.1.3,MacIntel,60,z,1,0.50403,,,,,,,,0.50403,1,,,,,,435,NW,UN,33,frutan,IMPURB,z,,,,,,-0.030355903,-0.238420139,0,0,0,,0,297,297,374,1,
,,,,,,,,,,,,,,,,,,5edea84a36d2b814cfce6116,2020-08-10_12h09.59.072,lexical_decision_task_MP,2020.1.3,MacIntel,60,z,1,0.552505,,,,,,,,0.552505,1,,,,,,463,NW,UN,33,chaite,KISPEL,z,,,,,,-0.030355903,-0.238420139,0,0,0,,0,298,298,402,1,
,,,,,,,,,,,,,,,,,,5edea84a36d2b814cfce6116,2020-08-10_12h09.59.072,lexical_decision_task_MP,2020.1.3,MacIntel,60,z,1,0.558105,,,,,,,,0.558105,1,,,,,,476,NW,UN,33,photie,JOSTED,z,,,,,,-0.030355903,-0.238420139,0,0,0,,0,299,299,415,1,
,,,,,,,,,,,,,,,,,,5edea84a36d2b814cfce6116,2020-08-10_12h09.59.072,lexical_decision_task_MP,2020.1.3,MacIntel,60,m,1,0.532435,,,,,,,,0.532435,1,,,,,,31,WORD,UN,50,buckle,WEAPON,m,,,,,,-0.030355903,-0.238420139,0,0,0,,0,300,300,210,1,
,,,,,,,,,,,,,,,,,,5edea84a36d2b814cfce6116,2020-08-10_12h09.59.072,lexical_decision_task_MP,2020.1.3,MacIntel,60,z,1,0.467815,,,,,,,,0.467815,1,,,,,,450,NW,UN,33,cainky,PHRECT,z,,,,,,-0.030355903,-0.238420139,0,0,0,,0,301,301,389,1,
,,,,,,,,,,,,,,,,,,5edea84a36d2b814cfce6116,2020-08-10_12h09.59.072,lexical_decision_task_MP,2020.1.3,MacIntel,60,z,1,0.486175,,,,,,,,0.486175,1,,,,,,374,NW,"ID",50,sliant,SLIANT,z,,,,,,-0.030355903,-0.238420139,0,0,0,,0,302,302,313,1,
,,,,,,,,,,,,,,,,,,5edea84a36d2b814cfce6116,2020-08-10_12h09.59.072,lexical_decision_task_MP,2020.1.3,MacIntel,60,z,1,0.60783,,,,,,,,0.60783,1,,,,,,447,NW,UN,33,sadent,GIRCUE,z,,,,,,-0.030355903,-0.238420139,0,0,0,,0,303,303,386,1,
,,,,,,,,,,,,,,,,,,5edea84a36d2b814cfce6116,2020-08-10_12h09.59.072,lexical_decision_task_MP,2020.1.3,MacIntel,60,z,0,0.49921,,,,,,,,0.49921,0,,,,,,35,WORD,UN,50,vanish,SOCKET,m,,,,,,-0.030355903,-0.238420139,0,0,0,,0,304,304,214,1,
,,,,,,,,,,,,,,,,,,5edea84a36d2b814cfce6116,2020-08-10_12h09.59.072,lexical_decision_task_MP,2020.1.3,MacIntel,60,z,1,0.468575,,,,,,,,0.468575,1,,,,,,328,NW,"ID",33,broake,BROAKE,z,,,,,,-0.030355903,-0.238420139,0,0,0,,0,305,305,267,1,
,,,,,,,,,,,,,,,,,,5edea84a36d2b814cfce6116,2020-08-10_12h09.59.072,lexical_decision_task_MP,2020.1.3,MacIntel,60,z,1,0.70978,,,,,,,,0.70978,1,,,,,,304,NW,"ID",33,cludie,CLUDIE,z,,,,,,-0.030355903,-0.238420139,0,0,0,,0,306,306,243,1,
,,,,,,,,,,,,,,,,,,5edea84a36d2b814cfce6116,2020-08-10_12h09.59.072,lexical_decision_task_MP,2020.1.3,MacIntel,60,z,1,0.567115,,,,,,,,0.567115,1,,,,,,369,NW,"ID",50,wronch,WRONCH,z,,,,,,-0.030355903,-0.238420139,0,0,0,,0,307,307,308,1,
,,,,,,,,,,,,,,,,,,5edea84a36d2b814cfce6116,2020-08-10_12h09.59.072,lexical_decision_task_MP,2020.1.3,MacIntel,60,z,1,0.53609,,,,,,,,0.53609,1,,,,,,246,NW,UN,50,blarge,PIATON,z,,,,,,-0.030355903,-0.238420139,0,0,0,,0,308,308,425,1,
,,,,,,,,,,,,,,,,,,5edea84a36d2b814cfce6116,2020-08-10_12h09.59.072,lexical_decision_task_MP,2020.1.3,MacIntel,60,z,1,0.39937,,,,,,,,0.39937,1,,,,,,395,NW,"ID",50,colury,COLURY,z,,,,,,-0.030355903,-0.238420139,0,0,0,,0,309,309,334,1,
,,,,,,,,,,,,,,,,,,5edea84a36d2b814cfce6116,2020-08-10_12h09.59.072,lexical_decision_task_MP,2020.1.3,MacIntel,60,m,1,0.543395,,,,,,,,0.543395,1,,,,,,135,WORD,"ID",50,import,IMPORT,m,,,,,,-0.030355903,-0.238420139,0,0,0,,0,310,310,74,1,
,,,,,,,,,,,,,,,,,,5edea84a36d2b814cfce6116,2020-08-10_12h09.59.072,lexical_decision_task_MP,2020.1.3,MacIntel,60,m,1,0.7846,,,,,,,,0.7846,1,,,,,,54,WORD,UN,50,stroke,RAMBLE,m,,,,,,-0.030355903,-0.238420139,0,0,0,,0,311,311,233,1,
,,,,,,,,,,,,,,,,,,5edea84a36d2b814cfce6116,2020-08-10_12h09.59.072,lexical_decision_task_MP,2020.1.3,MacIntel,60,z,1,0.59077,,,,,,,,0.59077,1,,,,,,248,NW,UN,50,batrol,STROLE,z,,,,,,-0.030355903,-0.238420139,0,0,0,,0,312,312,427,1,
,,,,,,,,,,,,,,,,,,5edea84a36d2b814cfce6116,2020-08-10_12h09.59.072,lexical_decision_task_MP,2020.1.3,MacIntel,60,z,1,0.63244,,,,,,,,0.63244,1,,,,,,353,NW,"ID",33,clurey,CLUREY,z,,,,,,-0.030355903,-0.238420139,0,0,0,,0,313,313,292,1,
,,,,,,,,,,,,,,,,,,5edea84a36d2b814cfce6116,2020-08-10_12h09.59.072,lexical_decision_task_MP,2020.1.3,MacIntel,60,z,1,0.705765,,,,,,,,0.705765,1,,,,,,257,NW,UN,50,poluth,VENIOD,z,,,,,,-0.030355903,-0.238420139,0,0,0,,0,314,314,436,1,
,,,,,,,,,,,,,,,,,,5edea84a36d2b814cfce6116,2020-08-10_12h09.59.072,lexical_decision_task_MP,2020.1.3,MacIntel,60,m,1,0.46792,,,,,,,,0.46792,1,,,,,,5,WORD,UN,50,bundle,PLUNGE,m,,,,,,-0.030355903,-0.238420139,0,0,0,,0,315,315,184,1,
,,,,,,,,,,,,,,,,,,5edea84a36d2b814cfce6116,2020-08-10_12h09.59.072,lexical_decision_task_MP,2020.1.3,MacIntel,60,z,1,0.535795,,,,,,,,0.535795,1,,,,,,320,NW,"ID",33,jockal,JOCKAL,z,,,,,,-0.030355903,-0.238420139,0,0,0,,0,316,316,259,1,
,,,,,,,,,,,,,,,,,,5edea84a36d2b814cfce6116,2020-08-10_12h09.59.072,lexical_decision_task_MP,2020.1.3,MacIntel,60,z,1,0.588485,,,,,,,,0.588485,1,,,,,,277,NW,UN,50,unighs,PETAIN,z,,,,,,-0.030355903,-0.238420139,0,0,0,,0,317,317,456,1,
,,,,,,,,,,,,,,,,,,5edea84a36d2b814cfce6116,2020-08-10_12h09.59.072,lexical_decision_task_MP,2020.1.3,MacIntel,60,m,1,0.484465,,,,,,,,0.484465,1,,,,,,154,WORD,"ID",50,author,AUTHOR,m,,,,,,-0.030355903,-0.238420139,0,0,0,,0,318,318,93,1,
,,,,,,,,,,,,,,,,,,5edea84a36d2b814cfce6116,2020-08-10_12h09.59.072,lexical_decision_task_MP,2020.1.3,MacIntel,60,z,1,0.56854,,,,,,,,0.56854,1,,,,,,430,NW,UN,33,chrums,CAROEY,z,,,,,,-0.030355903,-0.238420139,0,0,0,,0,319,319,369,1,
,,,,,,,,,,,,,,,,,,5edea84a36d2b814cfce6116,2020-08-10_12h09.59.072,lexical_decision_task_MP,2020.1.3,MacIntel,60,z,1,0.451405,,,,,,,,0.451405,1,,,,,,244,NW,UN,50,anougs,EATRIC,z,,,,,,-0.030355903,-0.238420139,0,0,0,,0,320,320,423,1,
,,,,,,,,,,,,,,,,,,5edea84a36d2b814cfce6116,2020-08-10_12h09.59.072,lexical_decision_task_MP,2020.1.3,MacIntel,60,z,1,0.617945,,,,,,,,0.617945,1,,,,,,316,NW,"ID",33,scregm,SCREGM,z,,,,,,-0.030355903,-0.238420139,0,0,0,,0,321,321,255,1,
,,,,,,,,,,,,,,,,,,5edea84a36d2b814cfce6116,2020-08-10_12h09.59.072,lexical_decision_task_MP,2020.1.3,MacIntel,60,m,1,0.55261,,,,,,,,0.55261,1,,,,,,2,WORD,UN,50,knight,BRIDGE,m,,,,,,-0.030355903,-0.238420139,0,0,0,,0,322,322,181,1,
,,,,,,,,,,,,,,,,,,5edea84a36d2b814cfce6116,2020-08-10_12h09.59.072,lexical_decision_task_MP,2020.1.3,MacIntel,60,m,1,0.564455,,,,,,,,0.564455,1,,,,,,90,WORD,"ID",33,relish,RELISH,m,,,,,,-0.030355903,-0.238420139,0,0,0,,0,323,323,29,1,
,,,,,,,,,,,,,,,,,,5edea84a36d2b814cfce6116,2020-08-10_12h09.59.072,lexical_decision_task_MP,2020.1.3,MacIntel,60,z,1,0.507855,,,,,,,,0.507855,1,,,,,,460,NW,UN,33,justre,MINGAR,z,,,,,,-0.030355903,-0.238420139,0,0,0,,0,324,324,399,1,
,,,,,,,,,,,,,,,,,,5edea84a36d2b814cfce6116,2020-08-10_12h09.59.072,lexical_decision_task_MP,2020.1.3,MacIntel,60,z,1,0.50943,,,,,,,,0.50943,1,,,,,,467,NW,UN,33,wictor,GORBIE,z,,,,,,-0.030355903,-0.238420139,0,0,0,,0,325,325,406,1,
,,,,,,,,,,,,,,,,,,5edea84a36d2b814cfce6116,2020-08-10_12h09.59.072,lexical_decision_task_MP,2020.1.3,MacIntel,60,z,1,0.453545,,,,,,,,0.453545,1,,,,,,462,NW,UN,33,kispel,ABSULT,z,,,,,,-0.030355903,-0.238420139,0,0,0,,0,326,326,401,1,
,,,,,,,,,,,,,,,,,,5edea84a36d2b814cfce6116,2020-08-10_12h09.59.072,lexical_decision_task_MP,2020.1.3,MacIntel,60,z,1,0.43281,,,,,,,,0.43281,1,,,,,,315,NW,"ID",33,laston,LASTON,z,,,,,,-0.030355903,-0.238420139,0,0,0,,0,327,327,254,1,
,,,,,,,,,,,,,,,,,,5edea84a36d2b814cfce6116,2020-08-10_12h09.59.072,lexical_decision_task_MP,2020.1.3,MacIntel,60,z,1,0.550525,,,,,,,,0.550525,1,,,,,,396,NW,"ID",50,flengy,FLENGY,z,,,,,,-0.030355903,-0.238420139,0,0,0,,0,328,328,335,1,
,,,,,,,,,,,,,,,,,,5edea84a36d2b814cfce6116,2020-08-10_12h09.59.072,lexical_decision_task_MP,2020.1.3,MacIntel,60,z,1,0.402655,,,,,,,,0.402655,1,,,,,,264,NW,UN,50,distar,VACKEL,z,,,,,,-0.030355903,-0.238420139,0,0,0,,0,329,329,443,1,
,,,,,,,,,,,,,,,,,,5edea84a36d2b814cfce6116,2020-08-10_12h09.59.072,lexical_decision_task_MP,2020.1.3,MacIntel,60,z,1,0.568535,,,,,,,,0.568535,1,,,,,,367,NW,"ID",50,slique,SLIQUE,z,,,,,,-0.030355903,-0.238420139,0,0,0,,0,330,330,306,1,
,,,,,,,,,,,,,,,,,,5edea84a36d2b814cfce6116,2020-08-10_12h09.59.072,lexical_decision_task_MP,2020.1.3,MacIntel,60,z,1,0.366935,,,,,,,,0.366935,1,,,,,,451,NW,UN,33,surden,CAINKY,z,,,,,,-0.030355903,-0.238420139,0,0,0,,0,331,331,390,1,
,,,,,,,,,,,,,,,,,,5edea84a36d2b814cfce6116,2020-08-10_12h09.59.072,lexical_decision_task_MP,2020.1.3,MacIntel,60,z,1,0.35082,,,,,,,,0.35082,1,,,,,,424,NW,UN,33,frudge,PRAILE,z,,,,,,-0.030355903,-0.238420139,0,0,0,,0,332,332,363,1,
,,,,,,,,,,,,,,,,,,5edea84a36d2b814cfce6116,2020-08-10_12h09.59.072,lexical_decision_task_MP,2020.1.3,MacIntel,60,z,1,0.35403,,,,,,,,0.35403,1,,,,,,346,NW,"ID",33,saudic,SAUDIC,z,,,,,,-0.030355903,-0.238420139,0,0,0,,0,333,333,285,1,
,,,,,,,,,,,,,,,,,,5edea84a36d2b814cfce6116,2020-08-10_12h09.59.072,lexical_decision_task_MP,2020.1.3,MacIntel,60,z,1,0.355905,,,,,,,,0.355905,1,,,,,,475,NW,UN,33,josted,PEBRIC,z,,,,,,-0.030355903,-0.238420139,0,0,0,,0,334,334,414,1,
,,,,,,,,,,,,,,,,,,5edea84a36d2b814cfce6116,2020-08-10_12h09.59.072,lexical_decision_task_MP,2020.1.3,MacIntel,60,z,1,0.450425,,,,,,,,0.450425,1,,,,,,317,NW,"ID",33,worbal,WORBAL,z,,,,,,-0.030355903,-0.238420139,0,0,0,,0,335,335,256,1,
,,,,,,,,,,,,,,,,,,5edea84a36d2b814cfce6116,2020-08-10_12h09.59.072,lexical_decision_task_MP,2020.1.3,MacIntel,60,m,1,0.752825,,,,,,,,0.752825,1,,,,,,215,WORD,UN,33,lumber,PHOBIA,m,,,,,,-0.030355903,-0.238420139,0,0,0,,0,336,336,154,1,
,,,,,,,,,,,,,,,,,,5edea84a36d2b814cfce6116,2020-08-10_12h09.59.072,lexical_decision_task_MP,2020.1.3,MacIntel,60,m,1,0.638115,,,,,,,,0.638115,1,,,,,,77,WORD,"ID",33,racket,RACKET,m,,,,,,-0.030355903,-0.238420139,0,0,0,,0,337,337,16,1,
,,,,,,,,,,,,,,,,,,5edea84a36d2b814cfce6116,2020-08-10_12h09.59.072,lexical_decision_task_MP,2020.1.3,MacIntel,60,z,0,0.455765,,,,,,,,0.455765,0,,,,,,221,WORD,UN,33,hinder,MASCOT,m,,,,,,-0.030355903,-0.238420139,0,0,0,,0,338,338,160,1,
,,,,,,,,,,,,,,,,,,5edea84a36d2b814cfce6116,2020-08-10_12h09.59.072,lexical_decision_task_MP,2020.1.3,MacIntel,60,z,1,0.53812,,,,,,,,0.53812,1,,,,,,412,NW,"ID",50,jiluer,JILUER,z,,,,,,-0.030355903,-0.238420139,0,0,0,,0,339,339,351,1,
,,,,,,,,,,,,,,,,,,5edea84a36d2b814cfce6116,2020-08-10_12h09.59.072,lexical_decision_task_MP,2020.1.3,MacIntel,60,z,1,0.58394,,,,,,,,0.58394,1,,,,,,266,NW,UN,50,pasink,VARMIT,z,,,,,,-0.030355903,-0.238420139,0,0,0,,0,340,340,445,1,
,,,,,,,,,,,,,,,,,,5edea84a36d2b814cfce6116,2020-08-10_12h09.59.072,lexical_decision_task_MP,2020.1.3,MacIntel,60,z,1,0.5555,,,,,,,,0.5555,1,,,,,,281,NW,UN,50,porlex,MELATY,z,,,,,,-0.030355903,-0.238420139,0,0,0,,0,341,341,460,1,
,,,,,,,,,,,,,,,,,,5edea84a36d2b814cfce6116,2020-08-10_12h09.59.072,lexical_decision_task_MP,2020.1.3,MacIntel,60,z,1,0.401555,,,,,,,,0.401555,1,,,,,,333,NW,"ID",33,catrie,CATRIE,z,,,,,,-0.030355903,-0.238420139,0,0,0,,0,342,342,272,1,
,,,,,,,,,,,,,,,,,,5edea84a36d2b814cfce6116,2020-08-10_12h09.59.072,lexical_decision_task_MP,2020.1.3,MacIntel,60,z,1,0.43163,,,,,,,,0.43163,1,,,,,,359,NW,"ID",33,fonver,FONVER,z,,,,,,-0.030355903,-0.238420139,0,0,0,,0,343,343,298,1,
,,,,,,,,,,,,,,,,,,5edea84a36d2b814cfce6116,2020-08-10_12h09.59.072,lexical_decision_task_MP,2020.1.3,MacIntel,60,z,1,0.38739,,,,,,,,0.38739,1,,,,,,403,NW,"ID",50,bruats,BRUATS,z,,,,,,-0.030355903,-0.238420139,0,0,0,,0,344,344,342,1,
,,,,,,,,,,,,,,,,,,5edea84a36d2b814cfce6116,2020-08-10_12h09.59.072,lexical_decision_task_MP,2020.1.3,MacIntel,60,z,1,0.370485,,,,,,,,0.370485,1,,,,,,389,NW,"ID",50,witmer,WITMER,z,,,,,,-0.030355903,-0.238420139,0,0,0,,0,345,345,328,1,
,,,,,,,,,,,,,,,,,,5edea84a36d2b814cfce6116,2020-08-10_12h09.59.072,lexical_decision_task_MP,2020.1.3,MacIntel,60,z,0,0.55498,,,,,,,,0.55498,0,,,,,,185,WORD,UN,33,portal,BOTHER,m,,,,,,-0.030355903,-0.238420139,0,0,0,,0,346,346,124,1,
,,,,,,,,,,,,,,,,,,5edea84a36d2b814cfce6116,2020-08-10_12h09.59.072,lexical_decision_task_MP,2020.1.3,MacIntel,60,z,0,0.503125,,,,,,,,0.503125,0,,,,,,166,WORD,"ID",50,starch,STARCH,m,,,,,,-0.030355903,-0.238420139,0,0,0,,0,347,347,105,1,
,,,,,,,,,,,,,,,,,,5edea84a36d2b814cfce6116,2020-08-10_12h09.59.072,lexical_decision_task_MP,2020.1.3,MacIntel,60,m,1,0.48352,,,,,,,,0.48352,1,,,,,,131,WORD,"ID",50,quench,QUENCH,m,,,,,,-0.030355903,-0.238420139,0,0,0,,0,348,348,70,1,
,,,,,,,,,,,,,,,,,,5edea84a36d2b814cfce6116,2020-08-10_12h09.59.072,lexical_decision_task_MP,2020.1.3,MacIntel,60,m,1,0.43338,,,,,,,,0.43338,1,,,,,,179,WORD,"ID",50,basket,BASKET,m,,,,,,-0.030355903,-0.238420139,0,0,0,,0,349,349,118,1,
,,,,,,,,,,,,,,,,,,5edea84a36d2b814cfce6116,2020-08-10_12h09.59.072,lexical_decision_task_MP,2020.1.3,MacIntel,60,m,0,0.4529,,,,,,,,0.4529,0,,,,,,397,NW,"ID",50,camble,CAMBLE,z,,,,,,-0.030355903,-0.238420139,0,0,0,,0,350,350,336,1,
,,,,,,,,,,,,,,,,,,5edea84a36d2b814cfce6116,2020-08-10_12h09.59.072,lexical_decision_task_MP,2020.1.3,MacIntel,60,m,1,0.61652,,,,,,,,0.61652,1,,,,,,83,WORD,"ID",33,result,RESULT,m,,,,,,-0.030355903,-0.238420139,0,0,0,,0,351,351,22,1,
,,,,,,,,,,,,,,,,,,5edea84a36d2b814cfce6116,2020-08-10_12h09.59.072,lexical_decision_task_MP,2020.1.3,MacIntel,60,m,1,0.501555,,,,,,,,0.501555,1,,,,,,67,WORD,"ID",33,policy,POLICY,m,,,,,,-0.030355903,-0.238420139,0,0,0,,0,352,352,6,1,
,,,,,,,,,,,,,,,,,,5edea84a36d2b814cfce6116,2020-08-10_12h09.59.072,lexical_decision_task_MP,2020.1.3,MacIntel,60,z,1,0.60418,,,,,,,,0.60418,1,,,,,,372,NW,"ID",50,ramily,RAMILY,z,,,,,,-0.030355903,-0.238420139,0,0,0,,0,353,353,311,1,
,,,,,,,,,,,,,,,,,,5edea84a36d2b814cfce6116,2020-08-10_12h09.59.072,lexical_decision_task_MP,2020.1.3,MacIntel,60,m,1,0.61684,,,,,,,,0.61684,1,,,,,,214,WORD,UN,33,phobia,INTAKE,m,,,,,,-0.030355903,-0.238420139,0,0,0,,0,354,354,153,1,
,,,,,,,,,,,,,,,,,,5edea84a36d2b814cfce6116,2020-08-10_12h09.59.072,lexical_decision_task_MP,2020.1.3,MacIntel,60,z,1,0.96616,,,,,,,,0.96616,1,,,,,,334,NW,"ID",33,watmeg,WATMEG,z,,,,,,-0.030355903,-0.238420139,0,0,0,,0,355,355,273,1,
,,,,,,,,,,,,,,,,,,5edea84a36d2b814cfce6116,2020-08-10_12h09.59.072,lexical_decision_task_MP,2020.1.3,MacIntel,60,z,1,0.608645,,,,,,,,0.608645,1,,,,,,434,NW,UN,33,impurb,PITROM,z,,,,,,-0.030355903,-0.238420139,0,0,0,,0,356,356,373,1,
,,,,,,,,,,,,,,,,,,5edea84a36d2b814cfce6116,2020-08-10_12h09.59.072,lexical_decision_task_MP,2020.1.3,MacIntel,60,m,1,0.5682,,,,,,,,0.5682,1,,,,,,217,WORD,UN,33,shrink,LIQUOR,m,,,,,,-0.030355903,-0.238420139,0,0,0,,0,357,357,156,1,
,,,,,,,,,,,,,,,,,,5edea84a36d2b814cfce6116,2020-08-10_12h09.59.072,lexical_decision_task_MP,2020.1.3,MacIntel,60,m,1,0.632895,,,,,,,,0.632895,1,,,,,,57,WORD,UN,50,danger,CHANGE,m,,,,,,-0.030355903,-0.238420139,0,0,0,,0,358,358,236,1,
,,,,,,,,,,,,,,,,,,5edea84a36d2b814cfce6116,2020-08-10_12h09.59.072,lexical_decision_task_MP,2020.1.3,MacIntel,60,z,1,0.48843,,,,,,,,0.48843,1,,,,,,282,NW,UN,50,veralf,PORLEX,z,,,,,,-0.030355903,-0.238420139,0,0,0,,0,359,359,461,1,
,,,,,,,,,,,,,,,,,,5edea84a36d2b814cfce6116,2020-08-10_12h09.59.072,lexical_decision_task_MP,2020.1.3,MacIntel,60,z,1,0.621055,,,,,,,,0.621055,1,,,,,,278,NW,UN,50,celond,UNIGHS,z,,,,,,-0.030355903,-0.238420139,0,0,0,,0,360,360,457,1,
,,,,,,,,,,,,,,,,,,5edea84a36d2b814cfce6116,2020-08-10_12h09.59.072,lexical_decision_task_MP,2020.1.3,MacIntel,60,m,1,0.426755,,,,,,,,0.426755,1,,,,,,93,WORD,"ID",33,public,PUBLIC,m,,,,,,-0.030355903,-0.238420139,0,0,0,,0,361,361,32,1,
,,,,,,,,,,,,,,,,,,5edea84a36d2b814cfce6116,2020-08-10_12h09.59.072,lexical_decision_task_MP,2020.1.3,MacIntel,60,m,1,0.584165,,,,,,,,0.584165,1,,,,,,40,WORD,UN,50,spring,CONVEY,m,,,,,,-0.030355903,-0.238420139,0,0,0,space,0,362,362,219,1,40.30036
,,,,,,,,,,,,,,,,,,5edea84a36d2b814cfce6116,2020-08-10_12h09.59.072,lexical_decision_task_MP,2020.1.3,MacIntel,60,z,1,1.03913,,,,,,,,1.03913,1,,,,,,274,NW,UN,50,sleirt,FUMBLO,z,,,,,,-0.030355903,-0.238420139,0,0,0,,0,363,363,453,1,
,,,,,,,,,,,,,,,,,,5edea84a36d2b814cfce6116,2020-08-10_12h09.59.072,lexical_decision_task_MP,2020.1.3,MacIntel,60,m,1,0.503005,,,,,,,,0.503005,1,,,,,,175,WORD,"ID",50,fabric,FABRIC,m,,,,,,-0.030355903,-0.238420139,0,0,0,,0,364,364,114,1,
,,,,,,,,,,,,,,,,,,5edea84a36d2b814cfce6116,2020-08-10_12h09.59.072,lexical_decision_task_MP,2020.1.3,MacIntel,60,z,1,0.48312,,,,,,,,0.48312,1,,,,,,321,NW,"ID",33,miator,MIATOR,z,,,,,,-0.030355903,-0.238420139,0,0,0,,0,365,365,260,1,
,,,,,,,,,,,,,,,,,,5edea84a36d2b814cfce6116,2020-08-10_12h09.59.072,lexical_decision_task_MP,2020.1.3,MacIntel,60,z,1,0.440425,,,,,,,,0.440425,1,,,,,,303,NW,"ID",33,fiream,FIREAM,z,,,,,,-0.030355903,-0.238420139,0,0,0,,0,366,366,242,1,
,,,,,,,,,,,,,,,,,,5edea84a36d2b814cfce6116,2020-08-10_12h09.59.072,lexical_decision_task_MP,2020.1.3,MacIntel,60,z,1,0.58351,,,,,,,,0.58351,1,,,,,,479,NW,UN,33,crible,LOBUSH,z,,,,,,-0.030355903,-0.238420139,0,0,0,,0,367,367,418,1,
,,,,,,,,,,,,,,,,,,5edea84a36d2b814cfce6116,2020-08-10_12h09.59.072,lexical_decision_task_MP,2020.1.3,MacIntel,60,m,1,0.901645,,,,,,,,0.901645,1,,,,,,204,WORD,UN,33,lounge,BURDEN,m,,,,,,-0.030355903,-0.238420139,0,0,0,,0,368,368,143,1,
,,,,,,,,,,,,,,,,,,5edea84a36d2b814cfce6116,2020-08-10_12h09.59.072,lexical_decision_task_MP,2020.1.3,MacIntel,60,z,1,0.681085,,,,,,,,0.681085,1,,,,,,284,NW,UN,50,prudge,SHAPLE,z,,,,,,-0.030355903,-0.238420139,0,0,0,,0,369,369,463,1,
,,,,,,,,,,,,,,,,,,5edea84a36d2b814cfce6116,2020-08-10_12h09.59.072,lexical_decision_task_MP,2020.1.3,MacIntel,60,z,1,0.537885,,,,,,,,0.537885,1,,,,,,432,NW,UN,33,drance,LUNKER,z,,,,,,-0.030355903,-0.238420139,0,0,0,,0,370,370,371,1,
,,,,,,,,,,,,,,,,,,5edea84a36d2b814cfce6116,2020-08-10_12h09.59.072,lexical_decision_task_MP,2020.1.3,MacIntel,60,m,1,0.487735,,,,,,,,0.487735,1,,,,,,27,WORD,UN,50,comedy,SCREAM,m,,,,,,-0.030355903,-0.238420139,0,0,0,,0,371,371,206,1,
,,,,,,,,,,,,,,,,,,5edea84a36d2b814cfce6116,2020-08-10_12h09.59.072,lexical_decision_task_MP,2020.1.3,MacIntel,60,m,1,0.52436,,,,,,,,0.52436,1,,,,,,194,WORD,UN,33,resign,ABSENT,m,,,,,,-0.030355903,-0.238420139,0,0,0,,0,372,372,133,1,
,,,,,,,,,,,,,,,,,,5edea84a36d2b814cfce6116,2020-08-10_12h09.59.072,lexical_decision_task_MP,2020.1.3,MacIntel,60,m,1,0.469085,,,,,,,,0.469085,1,,,,,,188,WORD,UN,33,censor,SOCIAL,m,,,,,,-0.030355903,-0.238420139,0,0,0,,0,373,373,127,1,
,,,,,,,,,,,,,,,,,,5edea84a36d2b814cfce6116,2020-08-10_12h09.59.072,lexical_decision_task_MP,2020.1.3,MacIntel,60,m,1,0.96821,,,,,,,,0.96821,1,,,,,,156,WORD,"ID",50,cradle,CRADLE,m,,,,,,-0.030355903,-0.238420139,0,0,0,,0,374,374,95,1,
,,,,,,,,,,,,,,,,,,5edea84a36d2b814cfce6116,2020-08-10_12h09.59.072,lexical_decision_task_MP,2020.1.3,MacIntel,60,z,1,0.557175,,,,,,,,0.557175,1,,,,,,440,NW,UN,33,rastoe,SARIDE,z,,,,,,-0.030355903,-0.238420139,0,0,0,,0,375,375,379,1,
,,,,,,,,,,,,,,,,,,5edea84a36d2b814cfce6116,2020-08-10_12h09.59.072,lexical_decision_task_MP,2020.1.3,MacIntel,60,m,1,0.65398,,,,,,,,0.65398,1,,,,,,112,WORD,"ID",33,breath,BREATH,m,,,,,,-0.030355903,-0.238420139,0,0,0,,0,376,376,51,1,
,,,,,,,,,,,,,,,,,,5edea84a36d2b814cfce6116,2020-08-10_12h09.59.072,lexical_decision_task_MP,2020.1.3,MacIntel,60,m,1,1.059085,,,,,,,,1.059085,1,,,,,,172,WORD,"ID",50,patrol,PATROL,m,,,,,,-0.030355903,-0.238420139,0,0,0,,0,377,377,111,1,
,,,,,,,,,,,,,,,,,,5edea84a36d2b814cfce6116,2020-08-10_12h09.59.072,lexical_decision_task_MP,2020.1.3,MacIntel,60,z,1,0.50445,,,,,,,,0.50445,1,,,,,,422,NW,UN,33,streld,ALCOUD,z,,,,,,-0.030355903,-0.238420139,0,0,0,,0,378,378,361,1,
,,,,,,,,,,,,,,,,,,5edea84a36d2b814cfce6116,2020-08-10_12h09.59.072,lexical_decision_task_MP,2020.1.3,MacIntel,60,m,1,1.049645,,,,,,,,1.049645,1,,,,,,149,WORD,"ID",50,invade,INVADE,m,,,,,,-0.030355903,-0.238420139,0,0,0,,0,379,379,88,1,
,,,,,,,,,,,,,,,,,,5edea84a36d2b814cfce6116,2020-08-10_12h09.59.072,lexical_decision_task_MP,2020.1.3,MacIntel,60,z,1,0.5192,,,,,,,,0.5192,1,,,,,,453,NW,UN,33,scouge,BOLVIS,z,,,,,,-0.030355903,-0.238420139,0,0,0,,0,380,380,392,1,
,,,,,,,,,,,,,,,,,,5edea84a36d2b814cfce6116,2020-08-10_12h09.59.072,lexical_decision_task_MP,2020.1.3,MacIntel,60,z,1,0.450255,,,,,,,,0.450255,1,,,,,,258,NW,UN,50,soudal,POLUTH,z,,,,,,-0.030355903,-0.238420139,0,0,0,,0,381,381,437,1,
,,,,,,,,,,,,,,,,,,5edea84a36d2b814cfce6116,2020-08-10_12h09.59.072,lexical_decision_task_MP,2020.1.3,MacIntel,60,z,1,0.51888,,,,,,,,0.51888,1,,,,,,343,NW,"ID",33,aimosy,AIMOSY,z,,,,,,-0.030355903,-0.238420139,0,0,0,,0,382,382,282,1,
,,,,,,,,,,,,,,,,,,5edea84a36d2b814cfce6116,2020-08-10_12h09.59.072,lexical_decision_task_MP,2020.1.3,MacIntel,60,z,1,0.467645,,,,,,,,0.467645,1,,,,,,335,NW,"ID",33,desion,DESION,z,,,,,,-0.030355903,-0.238420139,0,0,0,,0,383,383,274,1,
,,,,,,,,,,,,,,,,,,5edea84a36d2b814cfce6116,2020-08-10_12h09.59.072,lexical_decision_task_MP,2020.1.3,MacIntel,60,z,1,0.383015,,,,,,,,0.383015,1,,,,,,312,NW,"ID",33,nerawl,NERAWL,z,,,,,,-0.030355903,-0.238420139,0,0,0,,0,384,384,251,1,
,,,,,,,,,,,,,,,,,,5edea84a36d2b814cfce6116,2020-08-10_12h09.59.072,lexical_decision_task_MP,2020.1.3,MacIntel,60,z,1,0.55321,,,,,,,,0.55321,1,,,,,,250,NW,UN,50,lupict,MILTED,z,,,,,,-0.030355903,-0.238420139,0,0,0,,0,385,385,429,1,
,,,,,,,,,,,,,,,,,,5edea84a36d2b814cfce6116,2020-08-10_12h09.59.072,lexical_decision_task_MP,2020.1.3,MacIntel,60,z,1,0.46643,,,,,,,,0.46643,1,,,,,,411,NW,"ID",50,orchin,ORCHIN,z,,,,,,-0.030355903,-0.238420139,0,0,0,,0,386,386,350,1,
,,,,,,,,,,,,,,,,,,5edea84a36d2b814cfce6116,2020-08-10_12h09.59.072,lexical_decision_task_MP,2020.1.3,MacIntel,60,m,1,0.517925,,,,,,,,0.517925,1,,,,,,192,WORD,UN,33,object,PLAGUE,m,,,,,,-0.030355903,-0.238420139,0,0,0,,0,387,387,131,1,
,,,,,,,,,,,,,,,,,,5edea84a36d2b814cfce6116,2020-08-10_12h09.59.072,lexical_decision_task_MP,2020.1.3,MacIntel,60,z,1,0.46829,,,,,,,,0.46829,1,,,,,,273,NW,UN,50,fumblo,SORTEL,z,,,,,,-0.030355903,-0.238420139,0,0,0,,0,388,388,452,1,
,,,,,,,,,,,,,,,,,,5edea84a36d2b814cfce6116,2020-08-10_12h09.59.072,lexical_decision_task_MP,2020.1.3,MacIntel,60,m,0,0.489125,,,,,,,,0.489125,0,,,,,,402,NW,"ID",50,syntic,SYNTIC,z,,,,,,-0.030355903,-0.238420139,0,0,0,,0,389,389,341,1,
,,,,,,,,,,,,,,,,,,5edea84a36d2b814cfce6116,2020-08-10_12h09.59.072,lexical_decision_task_MP,2020.1.3,MacIntel,60,z,1,0.437795,,,,,,,,0.437795,1,,,,,,270,NW,UN,50,aubrid,WRIMSY,z,,,,,,-0.030355903,-0.238420139,0,0,0,,0,390,390,449,1,
,,,,,,,,,,,,,,,,,,5edea84a36d2b814cfce6116,2020-08-10_12h09.59.072,lexical_decision_task_MP,2020.1.3,MacIntel,60,m,1,0.62275,,,,,,,,0.62275,1,,,,,,72,WORD,"ID",33,bright,BRIGHT,m,,,,,,-0.030355903,-0.238420139,0,0,0,,0,391,391,11,1,
,,,,,,,,,,,,,,,,,,5edea84a36d2b814cfce6116,2020-08-10_12h09.59.072,lexical_decision_task_MP,2020.1.3,MacIntel,60,m,1,0.467405,,,,,,,,0.467405,1,,,,,,20,WORD,UN,50,simple,BREAST,m,,,,,,-0.030355903,-0.238420139,0,0,0,,0,392,392,199,1,
,,,,,,,,,,,,,,,,,,5edea84a36d2b814cfce6116,2020-08-10_12h09.59.072,lexical_decision_task_MP,2020.1.3,MacIntel,60,z,1,0.66883,,,,,,,,0.66883,1,,,,,,345,NW,"ID",33,absend,ABSEND,z,,,,,,-0.030355903,-0.238420139,0,0,0,,0,393,393,284,1,
,,,,,,,,,,,,,,,,,,5edea84a36d2b814cfce6116,2020-08-10_12h09.59.072,lexical_decision_task_MP,2020.1.3,MacIntel,60,m,1,0.4706,,,,,,,,0.4706,1,,,,,,75,WORD,"ID",33,trophy,TROPHY,m,,,,,,-0.030355903,-0.238420139,0,0,0,,0,394,394,14,1,
,,,,,,,,,,,,,,,,,,5edea84a36d2b814cfce6116,2020-08-10_12h09.59.072,lexical_decision_task_MP,2020.1.3,MacIntel,60,m,1,0.55241,,,,,,,,0.55241,1,,,,,,132,WORD,"ID",50,strong,STRONG,m,,,,,,-0.030355903,-0.238420139,0,0,0,,0,395,395,71,1,
,,,,,,,,,,,,,,,,,,5edea84a36d2b814cfce6116,2020-08-10_12h09.59.072,lexical_decision_task_MP,2020.1.3,MacIntel,60,z,1,0.49965,,,,,,,,0.49965,1,,,,,,331,NW,"ID",33,gilfew,GILFEW,z,,,,,,-0.030355903,-0.238420139,0,0,0,,0,396,396,270,1,
,,,,,,,,,,,,,,,,,,5edea84a36d2b814cfce6116,2020-08-10_12h09.59.072,lexical_decision_task_MP,2020.1.3,MacIntel,60,z,1,0.524965,,,,,,,,0.524965,1,,,,,,373,NW,"ID",50,bigent,BIGENT,z,,,,,,-0.030355903,-0.238420139,0,0,0,,0,397,397,312,1,
