counterbalancing_condition,instr_done_keyboard.keys,instr_done_keyboard.rt,instr_done_touch.x,instr_done_touch.y,instr_done_touch.leftButton,instr_done_touch.midButton,instr_done_touch.rightButton,instruction_pages.thisRepN,instruction_pages.thisTrialN,instruction_pages.thisN,instruction_pages.thisIndex,instruction_pages.ran,pageN,phase,instruct_text,has_image,instruct_image,participant,date,expName,psychopyVersion,OS,frameRate,response.keys,response.corr,touch_resp.x,touch_resp.y,touch_resp.leftButton,touch_resp.midButton,touch_resp.rightButton,touch_resp.time,touch_resp.clicked_name,rt,corr,practice_trials.thisRepN,practice_trials.thisTrialN,practice_trials.thisN,practice_trials.thisIndex,practice_trials.ran,TrialID,StimulusType,Condition,PrimeDuration,Prime,Target,corrAns,response.rt,instr_done_touch.clicked_name,end_of_practice_trials_pages.thisRepN,end_of_practice_trials_pages.thisTrialN,end_of_practice_trials_pages.thisN,end_of_practice_trials_pages.thisIndex,end_of_practice_trials_pages.ran,break_done_touch.x,break_done_touch.y,break_done_touch.leftButton,break_done_touch.midButton,break_done_touch.rightButton,break_done_keyboard.keys,trials.thisRepN,trials.thisTrialN,trials.thisN,trials.thisIndex,trials.ran,break_done_touch.clicked_name
1,space,19.45779,0.1484375,-0.21484375,0,0,0,0,0,0,0,1,1,instructions,"INSTRUCTIONS
At the start of each trial, look at the hash marks (######) in the center of the screen. After a moment, a string of letters will appear. Your task is to indicate if the letter string forms a word or not (i.e., if it is a nonword). For example, AUTHOR is a word while AUTHON is a nonword.

Press the space bar or touch the button below to continue.",0,,5ee33ce832efb54e45adc345,2020-08-10_09h23.09.641,lexical_decision_task_MP,2020.1.3,Win32,60,,,,,,,,,,,,,,,,,,,,,,,,,,,,,,,,,,,,,,,,,,
,space,7.960955,0.1484375,-0.21484375,0,0,0,0,1,1,1,1,2,instructions,"If your device has a keyboard, press the 'Z' key for nonwords and the 'M' key for words.





Press the space bar or touch the button below to continue.",1,keyboard-example.gif,5ee33ce832efb54e45adc345,2020-08-10_09h23.09.641,lexical_decision_task_MP,2020.1.3,Win32,60,,,,,,,,,,,,,,,,,,,,,,,,,,,,,,,,,,,,,,,,,,
,space,3.059495,0.1484375,-0.21484375,0,0,0,0,2,2,2,1,3,instructions,"If you are using a touchscreen only device, use the buttons on the screen. Do not use the mouse.





Press the space bar or touch the button below to continue.",1,touchscreen-example.gif,5ee33ce832efb54e45adc345,2020-08-10_09h23.09.641,lexical_decision_task_MP,2020.1.3,Win32,60,,,,,,,,,,,,,,,,,,,,,,,,,,,,,,,,,,,,,,,,,,
,space,4.695725,0.1484375,-0.21484375,0,0,0,0,3,3,3,1,4,instructions,"It is very important that you respond as quickly and accurately as possible, as each letter string will only be on the screen for two seconds. If you do not respond within this time, the message 'Too slow!' will be displayed and the experiment will progress to the next letter string. The first 20 trials will be practice trials and you will receive feedback on your answers. 

Press the space bar or touch the button below to start the practice trials.",0,,5ee33ce832efb54e45adc345,2020-08-10_09h23.09.641,lexical_decision_task_MP,2020.1.3,Win32,60,,,,,,,,,,,,,,,,,,,,,,,,,,,,,,,,,,,,,,,,,,
,,,,,,,,,,,,,,,,,,5ee33ce832efb54e45adc345,2020-08-10_09h23.09.641,lexical_decision_task_MP,2020.1.3,Win32,60,,0,,,,,,,,,-1,0,0,0,8,1,1009,NW,"ID",33,aslert,ASLERT,z,,,,,,,,,,,,,,,,,,,
,,,,,,,,,,,,,,,,,,5ee33ce832efb54e45adc345,2020-08-10_09h23.09.641,lexical_decision_task_MP,2020.1.3,Win32,60,m,1,,,,,,,,0.784215,1,0,1,1,6,1,1007,WORD,UN,50,tropic,ZOMBIE,m,0.784215,,,,,,,,,,,,,,,,,,
,,,,,,,,,,,,,,,,,,5ee33ce832efb54e45adc345,2020-08-10_09h23.09.641,lexical_decision_task_MP,2020.1.3,Win32,60,m,0,,,,,,,,0.587305,0,0,2,2,10,1,1011,NW,"ID",50,inlade,INLADE,z,0.587305,,,,,,,,,,,,,,,,,,
,,,,,,,,,,,,,,,,,,5ee33ce832efb54e45adc345,2020-08-10_09h23.09.641,lexical_decision_task_MP,2020.1.3,Win32,60,m,0,,,,,,,,0.613405,0,0,3,3,11,1,1012,NW,"ID",50,rashet,RASHET,z,0.613405,,,,,,,,,,,,,,,,,,
,,,,,,,,,,,,,,,,,,5ee33ce832efb54e45adc345,2020-08-10_09h23.09.641,lexical_decision_task_MP,2020.1.3,Win32,60,m,1,,,,,,,,0.615025,1,0,4,4,4,1,1005,WORD,UN,33,abound,SQUEAK,m,0.615025,,,,,,,,,,,,,,,,,,
,,,,,,,,,,,,,,,,,,5ee33ce832efb54e45adc345,2020-08-10_09h23.09.641,lexical_decision_task_MP,2020.1.3,Win32,60,z,1,,,,,,,,1.867525,1,0,5,5,9,1,1010,NW,"ID",33,fariny,FARINY,z,1.867525,,,,,,,,,,,,,,,,,,
,,,,,,,,,,,,,,,,,,5ee33ce832efb54e45adc345,2020-08-10_09h23.09.641,lexical_decision_task_MP,2020.1.3,Win32,60,z,1,,,,,,,,0.74959,1,0,6,6,12,1,1013,NW,UN,33,adveil,SPRINY,z,0.74959,,,,,,,,,,,,,,,,,,
,,,,,,,,,,,,,,,,,,5ee33ce832efb54e45adc345,2020-08-10_09h23.09.641,lexical_decision_task_MP,2020.1.3,Win32,60,z,1,,,,,,,,0.79387,1,0,7,7,15,1,1016,NW,UN,50,mushed,WHAISE,z,0.79387,,,,,,,,,,,,,,,,,,
,,,,,,,,,,,,,,,,,,5ee33ce832efb54e45adc345,2020-08-10_09h23.09.641,lexical_decision_task_MP,2020.1.3,Win32,60,m,1,,,,,,,,0.532735,1,0,8,8,5,1,1006,WORD,UN,33,frenzy,OBTAIN,m,0.532735,,,,,,,,,,,,,,,,,,
,,,,,,,,,,,,,,,,,,5ee33ce832efb54e45adc345,2020-08-10_09h23.09.641,lexical_decision_task_MP,2020.1.3,Win32,60,m,1,,,,,,,,0.506835,1,0,9,9,7,1,1008,WORD,UN,50,hurdle,VOLUME,m,0.506835,,,,,,,,,,,,,,,,,,
,,,,,,,,,,,,,,,,,,5ee33ce832efb54e45adc345,2020-08-10_09h23.09.641,lexical_decision_task_MP,2020.1.3,Win32,60,z,1,,,,,,,,0.62831,1,0,10,10,13,1,1014,NW,UN,33,winfer,ROUPET,z,0.62831,,,,,,,,,,,,,,,,,,
,,,,,,,,,,,,,,,,,,5ee33ce832efb54e45adc345,2020-08-10_09h23.09.641,lexical_decision_task_MP,2020.1.3,Win32,60,m,1,,,,,,,,1.307305,1,0,11,11,1,1,1002,WORD,"ID",33,adjust,ADJUST,m,1.307305,,,,,,,,,,,,,,,,,,
,,,,,,,,,,,,,,,,,,5ee33ce832efb54e45adc345,2020-08-10_09h23.09.641,lexical_decision_task_MP,2020.1.3,Win32,60,m,1,,,,,,,,0.73651,1,0,12,12,2,1,1003,WORD,"ID",50,almond,ALMOND,m,0.73651,,,,,,,,,,,,,,,,,,
,,,,,,,,,,,,,,,,,,5ee33ce832efb54e45adc345,2020-08-10_09h23.09.641,lexical_decision_task_MP,2020.1.3,Win32,60,z,1,,,,,,,,0.70385,1,0,13,13,14,1,1015,NW,UN,50,miaber,THRALE,z,0.70385,,,,,,,,,,,,,,,,,,
,,,,,,,,,,,,,,,,,,5ee33ce832efb54e45adc345,2020-08-10_09h23.09.641,lexical_decision_task_MP,2020.1.3,Win32,60,m,1,,,,,,,,0.61757,1,0,14,14,3,1,1004,WORD,"ID",50,matrix,MATRIX,m,0.61757,,,,,,,,,,,,,,,,,,
,,,,,,,,,,,,,,,,,,5ee33ce832efb54e45adc345,2020-08-10_09h23.09.641,lexical_decision_task_MP,2020.1.3,Win32,60,z,0,,,,,,,,0.838585,0,0,15,15,0,1,1001,WORD,"ID",33,utopia,UTOPIA,m,0.838585,,,,,,,,,,,,,,,,,,
,,,0.061197917,-0.4140625,1,0,0,,,,,,1,end_of_practice,"You have completed the practice trials. During the experimental trials, you will not receive feedback, but it is very important that you respond as quickly and accurately as possible. 
Before you begin, please ensure that you are in a comfortable and quiet location and will not be disturbed for about 15 minutes, as we cannot use your data if you do not complete all the trials. 
There will be opportunities to take breaks at regular intervals during the experiment. When you are ready to start the experimental trials, please press space or touch the button below.",,,5ee33ce832efb54e45adc345,2020-08-10_09h23.09.641,lexical_decision_task_MP,2020.1.3,Win32,60,,,,,,,,,,,,,,,,,,,,,,,,,instr_done_button,0,0,0,0,1,,,,,,,,,,,,
,,,,,,,,,,,,,,,,,,5ee33ce832efb54e45adc345,2020-08-10_09h23.09.641,lexical_decision_task_MP,2020.1.3,Win32,60,m,1,,,,,,,,1.262945,1,,,,,,137,WORD,UN,33,melody,FINGER,m,1.262945,,,,,,,0.061197917,-0.4140625,0,0,0,,0,0,0,136,1,
,,,,,,,,,,,,,,,,,,5ee33ce832efb54e45adc345,2020-08-10_09h23.09.641,lexical_decision_task_MP,2020.1.3,Win32,60,z,1,,,,,,,,0.999775,1,,,,,,467,NW,UN,50,wictor,GORBIE,z,0.999775,,,,,,,0.061197917,-0.4140625,0,0,0,,0,1,1,466,1,
,,,,,,,,,,,,,,,,,,5ee33ce832efb54e45adc345,2020-08-10_09h23.09.641,lexical_decision_task_MP,2020.1.3,Win32,60,z,1,,,,,,,,0.747845,1,,,,,,302,NW,"ID",50,miluer,MILUER,z,0.747845,,,,,,,0.061197917,-0.4140625,0,0,0,,0,2,2,301,1,
,,,,,,,,,,,,,,,,,,5ee33ce832efb54e45adc345,2020-08-10_09h23.09.641,lexical_decision_task_MP,2020.1.3,Win32,60,z,1,,,,,,,,0.79241,1,,,,,,278,NW,"ID",33,unighs,UNIGHS,z,0.79241,,,,,,,0.061197917,-0.4140625,0,0,0,,0,3,3,277,1,
,,,,,,,,,,,,,,,,,,5ee33ce832efb54e45adc345,2020-08-10_09h23.09.641,lexical_decision_task_MP,2020.1.3,Win32,60,z,1,,,,,,,,0.743855,1,,,,,,376,NW,UN,33,sliant,IGUARE,z,0.743855,,,,,,,0.061197917,-0.4140625,0,0,0,,0,4,4,375,1,
,,,,,,,,,,,,,,,,,,5ee33ce832efb54e45adc345,2020-08-10_09h23.09.641,lexical_decision_task_MP,2020.1.3,Win32,60,z,1,,,,,,,,1.466145,1,,,,,,245,NW,"ID",33,anougs,ANOUGS,z,1.466145,,,,,,,0.061197917,-0.4140625,0,0,0,,0,5,5,244,1,
,,,,,,,,,,,,,,,,,,5ee33ce832efb54e45adc345,2020-08-10_09h23.09.641,lexical_decision_task_MP,2020.1.3,Win32,60,m,1,,,,,,,,0.492505,1,,,,,,110,WORD,"ID",50,polite,POLITE,m,0.492505,,,,,,,0.061197917,-0.4140625,0,0,0,,0,6,6,109,1,
,,,,,,,,,,,,,,,,,,5ee33ce832efb54e45adc345,2020-08-10_09h23.09.641,lexical_decision_task_MP,2020.1.3,Win32,60,m,1,,,,,,,,0.41347,1,,,,,,63,WORD,"ID",50,launch,LAUNCH,m,0.41347,,,,,,,0.061197917,-0.4140625,0,0,0,,0,7,7,62,1,
,,,,,,,,,,,,,,,,,,5ee33ce832efb54e45adc345,2020-08-10_09h23.09.641,lexical_decision_task_MP,2020.1.3,Win32,60,z,1,,,,,,,,0.57705,1,,,,,,464,NW,UN,50,whivex,CHAITE,z,0.57705,,,,,,,0.061197917,-0.4140625,0,0,0,,0,8,8,463,1,
,,,,,,,,,,,,,,,,,,5ee33ce832efb54e45adc345,2020-08-10_09h23.09.641,lexical_decision_task_MP,2020.1.3,Win32,60,z,1,,,,,,,,0.95554,1,,,,,,260,NW,"ID",33,unject,UNJECT,z,0.95554,,,,,,,0.061197917,-0.4140625,0,0,0,,0,9,9,259,1,
,,,,,,,,,,,,,,,,,,5ee33ce832efb54e45adc345,2020-08-10_09h23.09.641,lexical_decision_task_MP,2020.1.3,Win32,60,m,1,,,,,,,,0.769565,1,,,,,,3,WORD,"ID",33,knight,KNIGHT,m,0.769565,,,,,,,0.061197917,-0.4140625,0,0,0,,0,10,10,2,1,
,,,,,,,,,,,,,,,,,,5ee33ce832efb54e45adc345,2020-08-10_09h23.09.641,lexical_decision_task_MP,2020.1.3,Win32,60,m,1,,,,,,,,0.53021,1,,,,,,203,WORD,UN,50,burden,PHRASE,m,0.53021,,,,,,,0.061197917,-0.4140625,0,0,0,,0,11,11,202,1,
,,,,,,,,,,,,,,,,,,5ee33ce832efb54e45adc345,2020-08-10_09h23.09.641,lexical_decision_task_MP,2020.1.3,Win32,60,m,1,,,,,,,,0.48289,1,,,,,,68,WORD,"ID",50,fumble,FUMBLE,m,0.48289,,,,,,,0.061197917,-0.4140625,0,0,0,,0,12,12,67,1,
,,,,,,,,,,,,,,,,,,5ee33ce832efb54e45adc345,2020-08-10_09h23.09.641,lexical_decision_task_MP,2020.1.3,Win32,60,m,1,,,,,,,,0.46569,1,,,,,,202,WORD,UN,50,phrase,FACTOR,m,0.46569,,,,,,,0.061197917,-0.4140625,0,0,0,,0,13,13,201,1,
,,,,,,,,,,,,,,,,,,5ee33ce832efb54e45adc345,2020-08-10_09h23.09.641,lexical_decision_task_MP,2020.1.3,Win32,60,z,1,,,,,,,,0.643235,1,,,,,,398,NW,UN,33,fouret,BLUNDE,z,0.643235,,,,,,,0.061197917,-0.4140625,0,0,0,,0,14,14,397,1,
,,,,,,,,,,,,,,,,,,5ee33ce832efb54e45adc345,2020-08-10_09h23.09.641,lexical_decision_task_MP,2020.1.3,Win32,60,z,1,,,,,,,,0.62697,1,,,,,,434,NW,UN,50,impurb,PITROM,z,0.62697,,,,,,,0.061197917,-0.4140625,0,0,0,,0,15,15,433,1,
,,,,,,,,,,,,,,,,,,5ee33ce832efb54e45adc345,2020-08-10_09h23.09.641,lexical_decision_task_MP,2020.1.3,Win32,60,z,1,,,,,,,,0.63187,1,,,,,,329,NW,"ID",50,yarike,YARIKE,z,0.63187,,,,,,,0.061197917,-0.4140625,0,0,0,,0,16,16,328,1,
,,,,,,,,,,,,,,,,,,5ee33ce832efb54e45adc345,2020-08-10_09h23.09.641,lexical_decision_task_MP,2020.1.3,Win32,60,z,1,,,,,,,,0.901075,1,,,,,,378,NW,UN,33,auting,SHRILE,z,0.901075,,,,,,,0.061197917,-0.4140625,0,0,0,,0,17,17,377,1,
,,,,,,,,,,,,,,,,,,5ee33ce832efb54e45adc345,2020-08-10_09h23.09.641,lexical_decision_task_MP,2020.1.3,Win32,60,z,1,,,,,,,,0.9182,1,,,,,,427,NW,UN,50,tandly,SCHIND,z,0.9182,,,,,,,0.061197917,-0.4140625,0,0,0,,0,18,18,426,1,
,,,,,,,,,,,,,,,,,,5ee33ce832efb54e45adc345,2020-08-10_09h23.09.641,lexical_decision_task_MP,2020.1.3,Win32,60,m,1,,,,,,,,1.46316,1,,,,,,28,WORD,"ID",33,comedy,COMEDY,m,1.46316,,,,,,,0.061197917,-0.4140625,0,0,0,,0,19,19,27,1,
,,,,,,,,,,,,,,,,,,5ee33ce832efb54e45adc345,2020-08-10_09h23.09.641,lexical_decision_task_MP,2020.1.3,Win32,60,m,1,,,,,,,,0.55922,1,,,,,,150,WORD,UN,33,mystic,RANDOM,m,0.55922,,,,,,,0.061197917,-0.4140625,0,0,0,,0,20,20,149,1,
,,,,,,,,,,,,,,,,,,5ee33ce832efb54e45adc345,2020-08-10_09h23.09.641,lexical_decision_task_MP,2020.1.3,Win32,60,z,1,,,,,,,,0.676705,1,,,,,,364,NW,UN,33,guairt,IMPOTE,z,0.676705,,,,,,,0.061197917,-0.4140625,0,0,0,,0,21,21,363,1,
,,,,,,,,,,,,,,,,,,5ee33ce832efb54e45adc345,2020-08-10_09h23.09.641,lexical_decision_task_MP,2020.1.3,Win32,60,m,0,,,,,,,,0.699515,0,,,,,,300,NW,"ID",33,yarion,YARION,z,0.699515,,,,,,,0.061197917,-0.4140625,0,0,0,,0,22,22,299,1,
,,,,,,,,,,,,,,,,,,5ee33ce832efb54e45adc345,2020-08-10_09h23.09.641,lexical_decision_task_MP,2020.1.3,Win32,60,z,1,,,,,,,,1.4921,1,,,,,,445,NW,UN,50,runamo,MINKEL,z,1.4921,,,,,,,0.061197917,-0.4140625,0,0,0,,0,23,23,444,1,
,,,,,,,,,,,,,,,,,,5ee33ce832efb54e45adc345,2020-08-10_09h23.09.641,lexical_decision_task_MP,2020.1.3,Win32,60,z,1,,,,,,,,0.63934,1,,,,,,439,NW,UN,50,saride,LIMPOR,z,0.63934,,,,,,,0.061197917,-0.4140625,0,0,0,,0,24,24,438,1,
,,,,,,,,,,,,,,,,,,5ee33ce832efb54e45adc345,2020-08-10_09h23.09.641,lexical_decision_task_MP,2020.1.3,Win32,60,m,1,,,,,,,,0.67057,1,,,,,,210,WORD,UN,50,infect,MONKEY,m,0.67057,,,,,,,0.061197917,-0.4140625,0,0,0,,0,25,25,209,1,
,,,,,,,,,,,,,,,,,,5ee33ce832efb54e45adc345,2020-08-10_09h23.09.641,lexical_decision_task_MP,2020.1.3,Win32,60,z,1,,,,,,,,0.56372,1,,,,,,400,NW,UN,33,mustil,WEAROX,z,0.56372,,,,,,,0.061197917,-0.4140625,0,0,0,,0,26,26,399,1,
,,,,,,,,,,,,,,,,,,5ee33ce832efb54e45adc345,2020-08-10_09h23.09.641,lexical_decision_task_MP,2020.1.3,Win32,60,z,1,,,,,,,,0.55046,1,,,,,,358,NW,"ID",50,fleack,FLEACK,z,0.55046,,,,,,,0.061197917,-0.4140625,0,0,0,,0,27,27,357,1,
,,,,,,,,,,,,,,,,,,5ee33ce832efb54e45adc345,2020-08-10_09h23.09.641,lexical_decision_task_MP,2020.1.3,Win32,60,m,1,,,,,,,,0.58474,1,,,,,,82,WORD,"ID",50,stigma,STIGMA,m,0.58474,,,,,,,0.061197917,-0.4140625,0,0,0,,0,28,28,81,1,
,,,,,,,,,,,,,,,,,,5ee33ce832efb54e45adc345,2020-08-10_09h23.09.641,lexical_decision_task_MP,2020.1.3,Win32,60,z,1,,,,,,,,0.554775,1,,,,,,261,NW,"ID",33,stunch,STUNCH,z,0.554775,,,,,,,0.061197917,-0.4140625,0,0,0,,0,29,29,260,1,
,,,,,,,,,,,,,,,,,,5ee33ce832efb54e45adc345,2020-08-10_09h23.09.641,lexical_decision_task_MP,2020.1.3,Win32,60,z,1,,,,,,,,0.601025,1,,,,,,283,NW,"ID",33,veralf,VERALF,z,0.601025,,,,,,,0.061197917,-0.4140625,0,0,0,,0,30,30,282,1,
,,,,,,,,,,,,,,,,,,5ee33ce832efb54e45adc345,2020-08-10_09h23.09.641,lexical_decision_task_MP,2020.1.3,Win32,60,z,1,,,,,,,,0.683105,1,,,,,,274,NW,"ID",33,fumblo,FUMBLO,z,0.683105,,,,,,,0.061197917,-0.4140625,0,0,0,,0,31,31,273,1,
,,,,,,,,,,,,,,,,,,5ee33ce832efb54e45adc345,2020-08-10_09h23.09.641,lexical_decision_task_MP,2020.1.3,Win32,60,m,1,,,,,,,,0.72934,1,,,,,,114,WORD,"ID",50,placid,PLACID,m,0.72934,,,,,,,0.061197917,-0.4140625,0,0,0,,0,32,32,113,1,
,,,,,,,,,,,,,,,,,,5ee33ce832efb54e45adc345,2020-08-10_09h23.09.641,lexical_decision_task_MP,2020.1.3,Win32,60,m,1,,,,,,,,0.59811,1,,,,,,61,WORD,"ID",50,ponder,PONDER,m,0.59811,,,,,,,0.061197917,-0.4140625,0,0,0,,0,33,33,60,1,
,,,,,,,,,,,,,,,,,,5ee33ce832efb54e45adc345,2020-08-10_09h23.09.641,lexical_decision_task_MP,2020.1.3,Win32,60,z,1,,,,,,,,0.502765,1,,,,,,356,NW,"ID",50,othnis,OTHNIS,z,0.502765,,,,,,,0.061197917,-0.4140625,0,0,0,,0,34,34,355,1,
,,,,,,,,,,,,,,,,,,5ee33ce832efb54e45adc345,2020-08-10_09h23.09.641,lexical_decision_task_MP,2020.1.3,Win32,60,z,1,,,,,,,,1.41529,1,,,,,,382,NW,UN,33,aungre,SARLEY,z,1.41529,,,,,,,0.061197917,-0.4140625,0,0,0,,0,35,35,381,1,
,,,,,,,,,,,,,,,,,,5ee33ce832efb54e45adc345,2020-08-10_09h23.09.641,lexical_decision_task_MP,2020.1.3,Win32,60,z,1,,,,,,,,1.242645,1,,,,,,394,NW,UN,33,colury,SPAQUX,z,1.242645,,,,,,,0.061197917,-0.4140625,0,0,0,,0,36,36,393,1,
,,,,,,,,,,,,,,,,,,5ee33ce832efb54e45adc345,2020-08-10_09h23.09.641,lexical_decision_task_MP,2020.1.3,Win32,60,m,1,,,,,,,,0.59202,1,,,,,,159,WORD,UN,33,violet,DETAIL,m,0.59202,,,,,,,0.061197917,-0.4140625,0,0,0,,0,37,37,158,1,
,,,,,,,,,,,,,,,,,,5ee33ce832efb54e45adc345,2020-08-10_09h23.09.641,lexical_decision_task_MP,2020.1.3,Win32,60,m,1,,,,,,,,0.632355,1,,,,,,174,WORD,UN,33,fabric,TURKEY,m,0.632355,,,,,,,0.061197917,-0.4140625,0,0,0,,0,38,38,173,1,
,,,,,,,,,,,,,,,,,,5ee33ce832efb54e45adc345,2020-08-10_09h23.09.641,lexical_decision_task_MP,2020.1.3,Win32,60,m,1,,,,,,,,0.59727,1,,,,,,10,WORD,"ID",33,ethnic,ETHNIC,m,0.59727,,,,,,,0.061197917,-0.4140625,0,0,0,,0,39,39,9,1,
,,,,,,,,,,,,,,,,,,5ee33ce832efb54e45adc345,2020-08-10_09h23.09.641,lexical_decision_task_MP,2020.1.3,Win32,60,z,1,,,,,,,,1.41096,1,,,,,,397,NW,UN,33,blunde,CAMBLE,z,1.41096,,,,,,,0.061197917,-0.4140625,0,0,0,,0,40,40,396,1,
,,,,,,,,,,,,,,,,,,5ee33ce832efb54e45adc345,2020-08-10_09h23.09.641,lexical_decision_task_MP,2020.1.3,Win32,60,z,1,,,,,,,,0.93767,1,,,,,,254,NW,"ID",33,varosh,VAROSH,z,0.93767,,,,,,,0.061197917,-0.4140625,0,0,0,,0,41,41,253,1,
,,,,,,,,,,,,,,,,,,5ee33ce832efb54e45adc345,2020-08-10_09h23.09.641,lexical_decision_task_MP,2020.1.3,Win32,60,m,1,,,,,,,,0.789505,1,,,,,,164,WORD,UN,33,invest,MARKET,m,0.789505,,,,,,,0.061197917,-0.4140625,0,0,0,,0,42,42,163,1,
,,,,,,,,,,,,,,,,,,5ee33ce832efb54e45adc345,2020-08-10_09h23.09.641,lexical_decision_task_MP,2020.1.3,Win32,60,,0,,,,,,,,0.789505,-1,,,,,,218,WORD,UN,50,bucket,SHRINK,m,,,,,,,,0.061197917,-0.4140625,0,0,0,,0,43,43,217,1,
,,,,,,,,,,,,,,,,,,5ee33ce832efb54e45adc345,2020-08-10_09h23.09.641,lexical_decision_task_MP,2020.1.3,Win32,60,z,1,,,,,,,,0.636145,1,,,,,,341,NW,"ID",50,myrtie,MYRTIE,z,0.636145,,,,,,,0.061197917,-0.4140625,0,0,0,,0,44,44,340,1,
,,,,,,,,,,,,,,,,,,5ee33ce832efb54e45adc345,2020-08-10_09h23.09.641,lexical_decision_task_MP,2020.1.3,Win32,60,z,1,,,,,,,,0.598355,1,,,,,,436,NW,UN,50,snapel,FRUTAN,z,0.598355,,,,,,,0.061197917,-0.4140625,0,0,0,,0,45,45,435,1,
,,,,,,,,,,,,,,,,,,5ee33ce832efb54e45adc345,2020-08-10_09h23.09.641,lexical_decision_task_MP,2020.1.3,Win32,60,z,0,,,,,,,,0.65078,0,,,,,,183,WORD,UN,50,sleazy,MILDEW,m,0.65078,,,,,,,0.061197917,-0.4140625,0,0,0,,0,46,46,182,1,
,,,,,,,,,,,,,,,,,,5ee33ce832efb54e45adc345,2020-08-10_09h23.09.641,lexical_decision_task_MP,2020.1.3,Win32,60,z,1,,,,,,,,0.583285,1,,,,,,375,NW,UN,33,iguare,YORQUE,z,0.583285,,,,,,,0.061197917,-0.4140625,0,0,0,,0,47,47,374,1,
,,,,,,,,,,,,,,,,,,5ee33ce832efb54e45adc345,2020-08-10_09h23.09.641,lexical_decision_task_MP,2020.1.3,Win32,60,m,0,,,,,,,,0.608125,0,,,,,,285,NW,"ID",33,prudge,PRUDGE,z,0.608125,,,,,,,0.061197917,-0.4140625,0,0,0,,0,48,48,284,1,
,,,,,,,,,,,,,,,,,,5ee33ce832efb54e45adc345,2020-08-10_09h23.09.641,lexical_decision_task_MP,2020.1.3,Win32,60,m,0,,,,,,,,0.555925,0,,,,,,433,NW,UN,50,pitrom,DRANCE,z,0.555925,,,,,,,0.061197917,-0.4140625,0,0,0,,0,49,49,432,1,
,,,,,,,,,,,,,,,,,,5ee33ce832efb54e45adc345,2020-08-10_09h23.09.641,lexical_decision_task_MP,2020.1.3,Win32,60,z,1,,,,,,,,0.730585,1,,,,,,476,NW,UN,50,photie,JOSTED,z,0.730585,,,,,,,0.061197917,-0.4140625,0,0,0,,0,50,50,475,1,
,,,,,,,,,,,,,,,,,,5ee33ce832efb54e45adc345,2020-08-10_09h23.09.641,lexical_decision_task_MP,2020.1.3,Win32,60,z,1,,,,,,,,0.74118,1,,,,,,276,NW,"ID",33,yarmon,YARMON,z,0.74118,,,,,,,0.061197917,-0.4140625,0,0,0,,0,51,51,275,1,
,,,,,,,,,,,,,,,,,,5ee33ce832efb54e45adc345,2020-08-10_09h23.09.641,lexical_decision_task_MP,2020.1.3,Win32,60,m,1,,,,,,,,0.41813,1,,,,,,143,WORD,UN,33,sponge,REASON,m,0.41813,,,,,,,0.061197917,-0.4140625,0,0,0,,0,52,52,142,1,
,,,,,,,,,,,,,,,,,,5ee33ce832efb54e45adc345,2020-08-10_09h23.09.641,lexical_decision_task_MP,2020.1.3,Win32,60,m,1,,,,,,,,0.56814,1,,,,,,117,WORD,"ID",50,branch,BRANCH,m,0.56814,,,,,,,0.061197917,-0.4140625,0,0,0,,0,53,53,116,1,
,,,,,,,,,,,,,,,,,,5ee33ce832efb54e45adc345,2020-08-10_09h23.09.641,lexical_decision_task_MP,2020.1.3,Win32,60,z,1,,,,,,,,0.57236,1,,,,,,428,NW,UN,50,chrums,TANDLY,z,0.57236,,,,,,,0.061197917,-0.4140625,0,0,0,,0,54,54,427,1,
,,,,,,,,,,,,,,,,,,5ee33ce832efb54e45adc345,2020-08-10_09h23.09.641,lexical_decision_task_MP,2020.1.3,Win32,60,m,1,,,,,,,,0.7682,1,,,,,,227,WORD,UN,50,master,SELDOM,m,0.7682,,,,,,,0.061197917,-0.4140625,0,0,0,,0,55,55,226,1,
,,,,,,,,,,,,,,,,,,5ee33ce832efb54e45adc345,2020-08-10_09h23.09.641,lexical_decision_task_MP,2020.1.3,Win32,60,m,1,,,,,,,,0.667175,1,,,,,,177,WORD,UN,33,inform,ADVENT,m,0.667175,,,,,,,0.061197917,-0.4140625,0,0,0,,0,56,56,176,1,
,,,,,,,,,,,,,,,,,,5ee33ce832efb54e45adc345,2020-08-10_09h23.09.641,lexical_decision_task_MP,2020.1.3,Win32,60,z,1,,,,,,,,0.53834,1,,,,,,472,NW,UN,50,crible,CIGNEY,z,0.53834,,,,,,,0.061197917,-0.4140625,0,0,0,,0,57,57,471,1,
,,,,,,,,,,,,,,,,,,5ee33ce832efb54e45adc345,2020-08-10_09h23.09.641,lexical_decision_task_MP,2020.1.3,Win32,60,z,1,,,,,,,,0.63508,1,,,,,,316,NW,"ID",50,scregm,SCREGM,z,0.63508,,,,,,,0.061197917,-0.4140625,0,0,0,,0,58,58,315,1,
,,,,,,,,,,,,,,,,,,5ee33ce832efb54e45adc345,2020-08-10_09h23.09.641,lexical_decision_task_MP,2020.1.3,Win32,60,m,0,,,,,,,,0.742545,0,,,,,,256,NW,"ID",33,inlors,INLORS,z,0.742545,,,,,,,0.061197917,-0.4140625,0,0,0,,0,59,59,255,1,
,,,,,,,,,,,,,,,,,,5ee33ce832efb54e45adc345,2020-08-10_09h23.09.641,lexical_decision_task_MP,2020.1.3,Win32,60,m,1,,,,,,,,0.527025,1,,,,,,104,WORD,"ID",50,studio,STUDIO,m,0.527025,,,,,,,0.061197917,-0.4140625,0,0,0,,0,60,60,103,1,
,,,,,,,,,,,,,,,,,,5ee33ce832efb54e45adc345,2020-08-10_09h23.09.641,lexical_decision_task_MP,2020.1.3,Win32,60,z,1,,,,,,,,0.52602,1,,,,,,323,NW,"ID",50,rosail,ROSAIL,z,0.52602,,,,,,,0.061197917,-0.4140625,0,0,0,,0,61,61,322,1,
,,,,,,,,,,,,,,,,,,5ee33ce832efb54e45adc345,2020-08-10_09h23.09.641,lexical_decision_task_MP,2020.1.3,Win32,60,m,1,,,,,,,,0.54151,1,,,,,,190,WORD,UN,50,stable,BACKUP,m,0.54151,,,,,,,0.061197917,-0.4140625,0,0,0,,0,62,62,189,1,
,,,,,,,,,,,,,,,,,,5ee33ce832efb54e45adc345,2020-08-10_09h23.09.641,lexical_decision_task_MP,2020.1.3,Win32,60,z,1,,,,,,,,0.63255,1,,,,,,320,NW,"ID",50,jockal,JOCKAL,z,0.63255,,,,,,,0.061197917,-0.4140625,0,0,0,,0,63,63,319,1,
,,,,,,,,,,,,,,,,,,5ee33ce832efb54e45adc345,2020-08-10_09h23.09.641,lexical_decision_task_MP,2020.1.3,Win32,60,m,1,,,,,,,,0.50177,1,,,,,,228,WORD,UN,50,inject,MASTER,m,0.50177,,,,,,,0.061197917,-0.4140625,0,0,0,,0,64,64,227,1,
,,,,,,,,,,,,,,,,,,5ee33ce832efb54e45adc345,2020-08-10_09h23.09.641,lexical_decision_task_MP,2020.1.3,Win32,60,m,1,,,,,,,,0.59395,1,,,,,,135,WORD,UN,33,chrome,IMPORT,m,0.59395,,,,,,,0.061197917,-0.4140625,0,0,0,,0,65,65,134,1,
,,,,,,,,,,,,,,,,,,5ee33ce832efb54e45adc345,2020-08-10_09h23.09.641,lexical_decision_task_MP,2020.1.3,Win32,60,z,1,,,,,,,,0.76004,1,,,,,,477,NW,UN,50,acrise,PHOTIE,z,0.76004,,,,,,,0.061197917,-0.4140625,0,0,0,,0,66,66,476,1,
,,,,,,,,,,,,,,,,,,5ee33ce832efb54e45adc345,2020-08-10_09h23.09.641,lexical_decision_task_MP,2020.1.3,Win32,60,m,1,,,,,,,,1.70738,1,,,,,,176,WORD,UN,33,advent,STRIFE,m,1.70738,,,,,,,0.061197917,-0.4140625,0,0,0,,0,67,67,175,1,
,,,,,,,,,,,,,,,,,,5ee33ce832efb54e45adc345,2020-08-10_09h23.09.641,lexical_decision_task_MP,2020.1.3,Win32,60,z,0,,,,,,,,0.633415,0,,,,,,4,WORD,"ID",33,trench,TRENCH,m,0.633415,,,,,,,0.061197917,-0.4140625,0,0,0,,0,68,68,3,1,
,,,,,,,,,,,,,,,,,,5ee33ce832efb54e45adc345,2020-08-10_09h23.09.641,lexical_decision_task_MP,2020.1.3,Win32,60,m,1,,,,,,,,0.68602,1,,,,,,73,WORD,"ID",50,source,SOURCE,m,0.68602,,,,,,,0.061197917,-0.4140625,0,0,0,,0,69,69,72,1,
,,,,,,,,,,,,,,,,,,5ee33ce832efb54e45adc345,2020-08-10_09h23.09.641,lexical_decision_task_MP,2020.1.3,Win32,60,z,1,,,,,,,,0.7534,1,,,,,,405,NW,UN,33,nouply,FLUMNI,z,0.7534,,,,,,,0.061197917,-0.4140625,0,0,0,,0,70,70,404,1,
,,,,,,,,,,,,,,,,,,5ee33ce832efb54e45adc345,2020-08-10_09h23.09.641,lexical_decision_task_MP,2020.1.3,Win32,60,z,1,,,,,,,,1.1499,1,,,,,,420,NW,UN,33,pauche,GUSHOP,z,1.1499,,,,,,,0.061197917,-0.4140625,0,0,0,,0,71,71,419,1,
,,,,,,,,,,,,,,,,,,5ee33ce832efb54e45adc345,2020-08-10_09h23.09.641,lexical_decision_task_MP,2020.1.3,Win32,60,m,1,,,,,,,,0.622375,1,,,,,,189,WORD,UN,50,backup,CENSOR,m,0.622375,,,,,,,0.061197917,-0.4140625,0,0,0,,0,72,72,188,1,
,,,,,,,,,,,,,,,,,,5ee33ce832efb54e45adc345,2020-08-10_09h23.09.641,lexical_decision_task_MP,2020.1.3,Win32,60,z,1,,,,,,,,0.666755,1,,,,,,460,NW,UN,50,justre,MINGAR,z,0.666755,,,,,,,0.061197917,-0.4140625,0,0,0,,0,73,73,459,1,
,,,,,,,,,,,,,,,,,,5ee33ce832efb54e45adc345,2020-08-10_09h23.09.641,lexical_decision_task_MP,2020.1.3,Win32,60,m,1,,,,,,,,0.70128,1,,,,,,123,WORD,UN,33,enough,STRIKE,m,0.70128,,,,,,,0.061197917,-0.4140625,0,0,0,,0,74,74,122,1,
,,,,,,,,,,,,,,,,,,5ee33ce832efb54e45adc345,2020-08-10_09h23.09.641,lexical_decision_task_MP,2020.1.3,Win32,60,m,1,,,,,,,,0.62154,1,,,,,,12,WORD,"ID",33,orange,ORANGE,m,0.62154,,,,,,,0.061197917,-0.4140625,0,0,0,,0,75,75,11,1,
,,,,,,,,,,,,,,,,,,5ee33ce832efb54e45adc345,2020-08-10_09h23.09.641,lexical_decision_task_MP,2020.1.3,Win32,60,z,1,,,,,,,,0.667035,1,,,,,,353,NW,"ID",50,clurey,CLUREY,z,0.667035,,,,,,,0.061197917,-0.4140625,0,0,0,,0,76,76,352,1,
,,,,,,,,,,,,,,,,,,5ee33ce832efb54e45adc345,2020-08-10_09h23.09.641,lexical_decision_task_MP,2020.1.3,Win32,60,z,1,,,,,,,,0.69954,1,,,,,,312,NW,"ID",50,nerawl,NERAWL,z,0.69954,,,,,,,0.061197917,-0.4140625,0,0,0,,0,77,77,311,1,
,,,,,,,,,,,,,,,,,,5ee33ce832efb54e45adc345,2020-08-10_09h23.09.641,lexical_decision_task_MP,2020.1.3,Win32,60,z,1,,,,,,,,0.579745,1,,,,,,359,NW,"ID",50,fonver,FONVER,z,0.579745,,,,,,,0.061197917,-0.4140625,0,0,0,,0,78,78,358,1,
,,,,,,,,,,,,,,,,,,5ee33ce832efb54e45adc345,2020-08-10_09h23.09.641,lexical_decision_task_MP,2020.1.3,Win32,60,m,1,,,,,,,,0.51907,1,,,,,,83,WORD,"ID",50,result,RESULT,m,0.51907,,,,,,,0.061197917,-0.4140625,0,0,0,,0,79,79,82,1,
,,,,,,,,,,,,,,,,,,5ee33ce832efb54e45adc345,2020-08-10_09h23.09.641,lexical_decision_task_MP,2020.1.3,Win32,60,z,1,,,,,,,,0.642275,1,,,,,,331,NW,"ID",50,gilfew,GILFEW,z,0.642275,,,,,,,0.061197917,-0.4140625,0,0,0,,0,80,80,330,1,
,,,,,,,,,,,,,,,,,,5ee33ce832efb54e45adc345,2020-08-10_09h23.09.641,lexical_decision_task_MP,2020.1.3,Win32,60,m,1,,,,,,,,0.610625,1,,,,,,5,WORD,"ID",33,plunge,PLUNGE,m,0.610625,,,,,,,0.061197917,-0.4140625,0,0,0,,0,81,81,4,1,
,,,,,,,,,,,,,,,,,,5ee33ce832efb54e45adc345,2020-08-10_09h23.09.641,lexical_decision_task_MP,2020.1.3,Win32,60,m,1,,,,,,,,0.55523,1,,,,,,197,WORD,UN,50,wicked,STREAM,m,0.55523,,,,,,,0.061197917,-0.4140625,0,0,0,,0,82,82,196,1,
,,,,,,,,,,,,,,,,,,5ee33ce832efb54e45adc345,2020-08-10_09h23.09.641,lexical_decision_task_MP,2020.1.3,Win32,60,z,1,,,,,,,,0.63671,1,,,,,,293,NW,"ID",33,swance,SWANCE,z,0.63671,,,,,,,0.061197917,-0.4140625,0,0,0,,0,83,83,292,1,
,,,,,,,,,,,,,,,,,,5ee33ce832efb54e45adc345,2020-08-10_09h23.09.641,lexical_decision_task_MP,2020.1.3,Win32,60,m,1,,,,,,,,0.639455,1,,,,,,53,WORD,"ID",33,police,POLICE,m,0.639455,,,,,,,0.061197917,-0.4140625,0,0,0,,0,84,84,52,1,
,,,,,,,,,,,,,,,,,,5ee33ce832efb54e45adc345,2020-08-10_09h23.09.641,lexical_decision_task_MP,2020.1.3,Win32,60,z,1,,,,,,,,0.63862,1,,,,,,426,NW,UN,50,frudge,URIVEL,z,0.63862,,,,,,,0.061197917,-0.4140625,0,0,0,,0,85,85,425,1,
,,,,,,,,,,,,,,,,,,5ee33ce832efb54e45adc345,2020-08-10_09h23.09.641,lexical_decision_task_MP,2020.1.3,Win32,60,z,1,,,,,,,,0.98283,1,,,,,,474,NW,UN,50,gorbie,HABLIN,z,0.98283,,,,,,,0.061197917,-0.4140625,0,0,0,,0,86,86,473,1,
,,,,,,,,,,,,,,,,,,5ee33ce832efb54e45adc345,2020-08-10_09h23.09.641,lexical_decision_task_MP,2020.1.3,Win32,60,m,1,,,,,,,,0.45615,1,,,,,,67,WORD,"ID",50,policy,POLICY,m,0.45615,,,,,,,0.061197917,-0.4140625,0,0,0,,0,87,87,66,1,
,,,,,,,,,,,,,,,,,,5ee33ce832efb54e45adc345,2020-08-10_09h23.09.641,lexical_decision_task_MP,2020.1.3,Win32,60,z,1,,,,,,,,0.555175,1,,,,,,328,NW,"ID",50,broake,BROAKE,z,0.555175,,,,,,,0.061197917,-0.4140625,0,0,0,,0,88,88,327,1,
,,,,,,,,,,,,,,,,,,5ee33ce832efb54e45adc345,2020-08-10_09h23.09.641,lexical_decision_task_MP,2020.1.3,Win32,60,m,1,,,,,,,,0.704945,1,,,,,,145,WORD,UN,33,couple,PARISH,m,0.704945,,,,,,,0.061197917,-0.4140625,0,0,0,,0,89,89,144,1,
,,,,,,,,,,,,,,,,,,5ee33ce832efb54e45adc345,2020-08-10_09h23.09.641,lexical_decision_task_MP,2020.1.3,Win32,60,z,0,,,,,,,,0.607525,0,,,,,,54,WORD,"ID",33,ramble,RAMBLE,m,0.607525,,,,,,,0.061197917,-0.4140625,0,0,0,,0,90,90,53,1,
,,,,,,,,,,,,,,,,,,5ee33ce832efb54e45adc345,2020-08-10_09h23.09.641,lexical_decision_task_MP,2020.1.3,Win32,60,m,1,,,,,,,,0.548775,1,,,,,,78,WORD,"ID",50,column,COLUMN,m,0.548775,,,,,,,0.061197917,-0.4140625,0,0,0,,0,91,91,77,1,
,,,,,,,,,,,,,,,,,,5ee33ce832efb54e45adc345,2020-08-10_09h23.09.641,lexical_decision_task_MP,2020.1.3,Win32,60,m,1,,,,,,,,0.591445,1,,,,,,232,WORD,UN,50,nature,INJECT,m,0.591445,,,,,,,0.061197917,-0.4140625,0,0,0,,0,92,92,231,1,
,,,,,,,,,,,,,,,,,,5ee33ce832efb54e45adc345,2020-08-10_09h23.09.641,lexical_decision_task_MP,2020.1.3,Win32,60,m,1,,,,,,,,0.574495,1,,,,,,26,WORD,"ID",33,sprint,SPRINT,m,0.574495,,,,,,,0.061197917,-0.4140625,0,0,0,,0,93,93,25,1,
,,,,,,,,,,,,,,,,,,5ee33ce832efb54e45adc345,2020-08-10_09h23.09.641,lexical_decision_task_MP,2020.1.3,Win32,60,z,1,,,,,,,,0.643695,1,,,,,,284,NW,"ID",33,shaple,SHAPLE,z,0.643695,,,,,,,0.061197917,-0.4140625,0,0,0,,0,94,94,283,1,
,,,,,,,,,,,,,,,,,,5ee33ce832efb54e45adc345,2020-08-10_09h23.09.641,lexical_decision_task_MP,2020.1.3,Win32,60,z,1,,,,,,,,1.06165,1,,,,,,304,NW,"ID",50,cludie,CLUDIE,z,1.06165,,,,,,,0.061197917,-0.4140625,0,0,0,,0,95,95,303,1,
,,,,,,,,,,,,,,,,,,5ee33ce832efb54e45adc345,2020-08-10_09h23.09.641,lexical_decision_task_MP,2020.1.3,Win32,60,z,1,,,,,,,,0.65981,1,,,,,,336,NW,"ID",50,ghodus,GHODUS,z,0.65981,,,,,,,0.061197917,-0.4140625,0,0,0,,0,96,96,335,1,
,,,,,,,,,,,,,,,,,,5ee33ce832efb54e45adc345,2020-08-10_09h23.09.641,lexical_decision_task_MP,2020.1.3,Win32,60,z,1,,,,,,,,0.49676,1,,,,,,440,NW,UN,50,cainky,SARIDE,z,0.49676,,,,,,,0.061197917,-0.4140625,0,0,0,,0,97,97,439,1,
,,,,,,,,,,,,,,,,,,5ee33ce832efb54e45adc345,2020-08-10_09h23.09.641,lexical_decision_task_MP,2020.1.3,Win32,60,m,1,,,,,,,,1.600705,1,,,,,,124,WORD,UN,33,nickel,BLOUSE,m,1.600705,,,,,,,0.061197917,-0.4140625,0,0,0,,0,98,98,123,1,
,,,,,,,,,,,,,,,,,,5ee33ce832efb54e45adc345,2020-08-10_09h23.09.641,lexical_decision_task_MP,2020.1.3,Win32,60,m,1,,,,,,,,0.578255,1,,,,,,34,WORD,"ID",33,jungle,JUNGLE,m,0.578255,,,,,,,0.061197917,-0.4140625,0,0,0,,0,99,99,33,1,
,,,,,,,,,,,,,,,,,,5ee33ce832efb54e45adc345,2020-08-10_09h23.09.641,lexical_decision_task_MP,2020.1.3,Win32,60,z,1,,,,,,,,1.257235,1,,,,,,310,NW,"ID",50,daniet,DANIET,z,1.257235,,,,,,,0.061197917,-0.4140625,0,0,0,,0,100,100,309,1,
,,,,,,,,,,,,,,,,,,5ee33ce832efb54e45adc345,2020-08-10_09h23.09.641,lexical_decision_task_MP,2020.1.3,Win32,60,m,1,,,,,,,,0.48614,1,,,,,,98,WORD,"ID",50,belong,BELONG,m,0.48614,,,,,,,0.061197917,-0.4140625,0,0,0,,0,101,101,97,1,
,,,,,,,,,,,,,,,,,,5ee33ce832efb54e45adc345,2020-08-10_09h23.09.641,lexical_decision_task_MP,2020.1.3,Win32,60,m,1,,,,,,,,0.57094,1,,,,,,76,WORD,"ID",50,exotic,EXOTIC,m,0.57094,,,,,,,0.061197917,-0.4140625,0,0,0,,0,102,102,75,1,
,,,,,,,,,,,,,,,,,,5ee33ce832efb54e45adc345,2020-08-10_09h23.09.641,lexical_decision_task_MP,2020.1.3,Win32,60,m,1,,,,,,,,0.70079,1,,,,,,23,WORD,"ID",33,wealth,WEALTH,m,0.70079,,,,,,,0.061197917,-0.4140625,0,0,0,,0,103,103,22,1,
,,,,,,,,,,,,,,,,,,5ee33ce832efb54e45adc345,2020-08-10_09h23.09.641,lexical_decision_task_MP,2020.1.3,Win32,60,z,1,,,,,,,,0.638425,1,,,,,,461,NW,UN,50,absult,JUSTRE,z,0.638425,,,,,,,0.061197917,-0.4140625,0,0,0,,0,104,104,460,1,
,,,,,,,,,,,,,,,,,,5ee33ce832efb54e45adc345,2020-08-10_09h23.09.641,lexical_decision_task_MP,2020.1.3,Win32,60,z,1,,,,,,,,1.037635,1,,,,,,371,NW,UN,33,ramily,GEILOY,z,1.037635,,,,,,,0.061197917,-0.4140625,0,0,0,,0,105,105,370,1,
,,,,,,,,,,,,,,,,,,5ee33ce832efb54e45adc345,2020-08-10_09h23.09.641,lexical_decision_task_MP,2020.1.3,Win32,60,m,1,,,,,,,,0.476715,1,,,,,,236,WORD,UN,50,poster,PIRATE,m,0.476715,,,,,,,0.061197917,-0.4140625,0,0,0,,0,106,106,235,1,
,,,,,,,,,,,,,,,,,,5ee33ce832efb54e45adc345,2020-08-10_09h23.09.641,lexical_decision_task_MP,2020.1.3,Win32,60,m,1,,,,,,,,0.7851,1,,,,,,69,WORD,"ID",50,plenty,PLENTY,m,0.7851,,,,,,,0.061197917,-0.4140625,0,0,0,,0,107,107,68,1,
,,,,,,,,,,,,,,,,,,5ee33ce832efb54e45adc345,2020-08-10_09h23.09.641,lexical_decision_task_MP,2020.1.3,Win32,60,z,1,,,,,,,,0.54074,1,,,,,,290,NW,"ID",33,splino,SPLINO,z,0.54074,,,,,,,0.061197917,-0.4140625,0,0,0,,0,108,108,289,1,
,,,,,,,,,,,,,,,,,,5ee33ce832efb54e45adc345,2020-08-10_09h23.09.641,lexical_decision_task_MP,2020.1.3,Win32,60,m,1,,,,,,,,1.56937,1,,,,,,107,WORD,"ID",50,slogan,SLOGAN,m,1.56937,,,,,,,0.061197917,-0.4140625,0,0,0,,0,109,109,106,1,
,,,,,,,,,,,,,,,,,,5ee33ce832efb54e45adc345,2020-08-10_09h23.09.641,lexical_decision_task_MP,2020.1.3,Win32,60,z,1,,,,,,,,0.584085,1,,,,,,345,NW,"ID",50,absend,ABSEND,z,0.584085,,,,,,,0.061197917,-0.4140625,0,0,0,,0,110,110,344,1,
,,,,,,,,,,,,,,,,,,5ee33ce832efb54e45adc345,2020-08-10_09h23.09.641,lexical_decision_task_MP,2020.1.3,Win32,60,z,1,,,,,,,,0.54928,1,,,,,,299,NW,"ID",33,sturch,STURCH,z,0.54928,,,,,,,0.061197917,-0.4140625,0,0,0,,0,111,111,298,1,
,,,,,,,,,,,,,,,,,,5ee33ce832efb54e45adc345,2020-08-10_09h23.09.641,lexical_decision_task_MP,2020.1.3,Win32,60,z,1,,,,,,,,0.648765,1,,,,,,255,NW,"ID",33,apight,APIGHT,z,0.648765,,,,,,,0.061197917,-0.4140625,0,0,0,,0,112,112,254,1,
,,,,,,,,,,,,,,,,,,5ee33ce832efb54e45adc345,2020-08-10_09h23.09.641,lexical_decision_task_MP,2020.1.3,Win32,60,m,1,,,,,,,,0.53543,1,,,,,,206,WORD,UN,50,wreath,TAILOR,m,0.53543,,,,,,,0.061197917,-0.4140625,0,0,0,,0,113,113,205,1,
,,,,,,,,,,,,,,,,,,5ee33ce832efb54e45adc345,2020-08-10_09h23.09.641,lexical_decision_task_MP,2020.1.3,Win32,60,m,1,,,,,,,,0.666375,1,,,,,,72,WORD,"ID",50,bright,BRIGHT,m,0.666375,,,,,,,0.061197917,-0.4140625,0,0,0,,0,114,114,71,1,
,,,,,,,,,,,,,,,,,,5ee33ce832efb54e45adc345,2020-08-10_09h23.09.641,lexical_decision_task_MP,2020.1.3,Win32,60,z,1,,,,,,,,0.50001,1,,,,,,367,NW,UN,33,hornal,SLIQUE,z,0.50001,,,,,,,0.061197917,-0.4140625,0,0,0,,0,115,115,366,1,
,,,,,,,,,,,,,,,,,,5ee33ce832efb54e45adc345,2020-08-10_09h23.09.641,lexical_decision_task_MP,2020.1.3,Win32,60,m,1,,,,,,,,0.68524,1,,,,,,134,WORD,UN,33,import,STAPLE,m,0.68524,,,,,,,0.061197917,-0.4140625,0,0,0,,0,116,116,133,1,
,,,,,,,,,,,,,,,,,,5ee33ce832efb54e45adc345,2020-08-10_09h23.09.641,lexical_decision_task_MP,2020.1.3,Win32,60,z,0,,,,,,,,0.944065,0,,,,,,147,WORD,UN,33,custom,GARLIC,m,0.944065,,,,,,,0.061197917,-0.4140625,0,0,0,,0,117,117,146,1,
,,,,,,,,,,,,,,,,,,5ee33ce832efb54e45adc345,2020-08-10_09h23.09.641,lexical_decision_task_MP,2020.1.3,Win32,60,z,1,,,,,,,,0.554385,1,,,,,,463,NW,UN,50,bafent,KISPEL,z,0.554385,,,,,,,0.061197917,-0.4140625,0,0,0,,0,118,118,462,1,
,,,,,,,,,,,,,,,,,,5ee33ce832efb54e45adc345,2020-08-10_09h23.09.641,lexical_decision_task_MP,2020.1.3,Win32,60,m,1,,,,,,,,0.489585,1,,,,,,87,WORD,"ID",50,filter,FILTER,m,0.489585,,,,,,,0.061197917,-0.4140625,0,0,0,,0,119,119,86,1,
,,,,,,,,,,,,,,,,,,5ee33ce832efb54e45adc345,2020-08-10_09h23.09.641,lexical_decision_task_MP,2020.1.3,Win32,60,m,1,,,,,,,,0.570235,1,,,,,,170,WORD,UN,33,depart,POUNCE,m,0.570235,,,,,,,0.003007519,-0.397744361,1,0,0,,0,120,120,169,1,break_done_button
,,,,,,,,,,,,,,,,,,5ee33ce832efb54e45adc345,2020-08-10_09h23.09.641,lexical_decision_task_MP,2020.1.3,Win32,60,m,1,,,,,,,,1.63703,1,,,,,,103,WORD,"ID",50,bounce,BOUNCE,m,1.63703,,,,,,,-0.696240602,0.408270677,0,0,0,,0,121,121,102,1,
,,,,,,,,,,,,,,,,,,5ee33ce832efb54e45adc345,2020-08-10_09h23.09.641,lexical_decision_task_MP,2020.1.3,Win32,60,m,1,,,,,,,,0.530035,1,,,,,,66,WORD,"ID",50,gospel,GOSPEL,m,0.530035,,,,,,,-0.696240602,0.408270677,0,0,0,,0,122,122,65,1,
,,,,,,,,,,,,,,,,,,5ee33ce832efb54e45adc345,2020-08-10_09h23.09.641,lexical_decision_task_MP,2020.1.3,Win32,60,z,1,,,,,,,,0.527235,1,,,,,,281,NW,"ID",33,melaty,MELATY,z,0.527235,,,,,,,-0.696240602,0.408270677,0,0,0,,0,123,123,280,1,
,,,,,,,,,,,,,,,,,,5ee33ce832efb54e45adc345,2020-08-10_09h23.09.641,lexical_decision_task_MP,2020.1.3,Win32,60,m,1,,,,,,,,0.5663,1,,,,,,211,WORD,UN,50,verify,INFECT,m,0.5663,,,,,,,-0.696240602,0.408270677,0,0,0,,0,124,124,210,1,
,,,,,,,,,,,,,,,,,,5ee33ce832efb54e45adc345,2020-08-10_09h23.09.641,lexical_decision_task_MP,2020.1.3,Win32,60,z,1,,,,,,,,0.6361,1,,,,,,380,NW,UN,33,huniek,CAVORY,z,0.6361,,,,,,,-0.696240602,0.408270677,0,0,0,,0,125,125,379,1,
,,,,,,,,,,,,,,,,,,5ee33ce832efb54e45adc345,2020-08-10_09h23.09.641,lexical_decision_task_MP,2020.1.3,Win32,60,m,0,,,,,,,,0.66623,0,,,,,,455,NW,UN,50,broget,TONDLE,z,0.66623,,,,,,,-0.696240602,0.408270677,0,0,0,,0,126,126,454,1,
,,,,,,,,,,,,,,,,,,5ee33ce832efb54e45adc345,2020-08-10_09h23.09.641,lexical_decision_task_MP,2020.1.3,Win32,60,m,1,,,,,,,,0.68475,1,,,,,,151,WORD,UN,33,rocket,MYSTIC,m,0.68475,,,,,,,-0.696240602,0.408270677,0,0,0,,0,127,127,150,1,
,,,,,,,,,,,,,,,,,,5ee33ce832efb54e45adc345,2020-08-10_09h23.09.641,lexical_decision_task_MP,2020.1.3,Win32,60,m,1,,,,,,,,0.51622,1,,,,,,56,WORD,"ID",33,ambush,AMBUSH,m,0.51622,,,,,,,-0.696240602,0.408270677,0,0,0,,0,128,128,55,1,
,,,,,,,,,,,,,,,,,,5ee33ce832efb54e45adc345,2020-08-10_09h23.09.641,lexical_decision_task_MP,2020.1.3,Win32,60,m,1,,,,,,,,0.88124,1,,,,,,234,WORD,UN,50,lumber,CLUMSY,m,0.88124,,,,,,,-0.696240602,0.408270677,0,0,0,,0,129,129,233,1,
,,,,,,,,,,,,,,,,,,5ee33ce832efb54e45adc345,2020-08-10_09h23.09.641,lexical_decision_task_MP,2020.1.3,Win32,60,z,1,,,,,,,,0.58223,1,,,,,,269,NW,"ID",33,orchet,ORCHET,z,0.58223,,,,,,,-0.696240602,0.408270677,0,0,0,,0,130,130,268,1,
,,,,,,,,,,,,,,,,,,5ee33ce832efb54e45adc345,2020-08-10_09h23.09.641,lexical_decision_task_MP,2020.1.3,Win32,60,m,1,,,,,,,,0.580835,1,,,,,,144,WORD,UN,33,parish,SPONGE,m,0.580835,,,,,,,-0.696240602,0.408270677,0,0,0,,0,131,131,143,1,
,,,,,,,,,,,,,,,,,,5ee33ce832efb54e45adc345,2020-08-10_09h23.09.641,lexical_decision_task_MP,2020.1.3,Win32,60,m,1,,,,,,,,0.465215,1,,,,,,168,WORD,UN,33,genius,ANSWER,m,0.465215,,,,,,,-0.696240602,0.408270677,0,0,0,,0,132,132,167,1,
,,,,,,,,,,,,,,,,,,5ee33ce832efb54e45adc345,2020-08-10_09h23.09.641,lexical_decision_task_MP,2020.1.3,Win32,60,z,1,,,,,,,,0.444005,1,,,,,,248,NW,"ID",33,strole,STROLE,z,0.444005,,,,,,,-0.696240602,0.408270677,0,0,0,,0,133,133,247,1,
,,,,,,,,,,,,,,,,,,5ee33ce832efb54e45adc345,2020-08-10_09h23.09.641,lexical_decision_task_MP,2020.1.3,Win32,60,z,1,,,,,,,,0.574245,1,,,,,,262,NW,"ID",33,quilew,QUILEW,z,0.574245,,,,,,,-0.696240602,0.408270677,0,0,0,,0,134,134,261,1,
,,,,,,,,,,,,,,,,,,5ee33ce832efb54e45adc345,2020-08-10_09h23.09.641,lexical_decision_task_MP,2020.1.3,Win32,60,m,1,,,,,,,,0.539175,1,,,,,,157,WORD,UN,33,island,DRAGON,m,0.539175,,,,,,,-0.696240602,0.408270677,0,0,0,,0,135,135,156,1,
,,,,,,,,,,,,,,,,,,5ee33ce832efb54e45adc345,2020-08-10_09h23.09.641,lexical_decision_task_MP,2020.1.3,Win32,60,z,1,,,,,,,,0.6005,1,,,,,,273,NW,"ID",33,sortel,SORTEL,z,0.6005,,,,,,,-0.696240602,0.408270677,0,0,0,,0,136,136,272,1,
,,,,,,,,,,,,,,,,,,5ee33ce832efb54e45adc345,2020-08-10_09h23.09.641,lexical_decision_task_MP,2020.1.3,Win32,60,z,0,,,,,,,,1.22244,0,,,,,,92,WORD,"ID",50,strand,STRAND,m,1.22244,,,,,,,-0.696240602,0.408270677,0,0,0,,0,137,137,91,1,
,,,,,,,,,,,,,,,,,,5ee33ce832efb54e45adc345,2020-08-10_09h23.09.641,lexical_decision_task_MP,2020.1.3,Win32,60,z,1,,,,,,,,0.814175,1,,,,,,253,NW,"ID",33,resait,RESAIT,z,0.814175,,,,,,,-0.696240602,0.408270677,0,0,0,,0,138,138,252,1,
,,,,,,,,,,,,,,,,,,5ee33ce832efb54e45adc345,2020-08-10_09h23.09.641,lexical_decision_task_MP,2020.1.3,Win32,60,z,1,,,,,,,,1.14164,1,,,,,,458,NW,UN,50,chaite,BARCET,z,1.14164,,,,,,,-0.696240602,0.408270677,0,0,0,,0,139,139,457,1,
,,,,,,,,,,,,,,,,,,5ee33ce832efb54e45adc345,2020-08-10_09h23.09.641,lexical_decision_task_MP,2020.1.3,Win32,60,z,0,,,,,,,,0.837565,0,,,,,,90,WORD,"ID",50,relish,RELISH,m,0.837565,,,,,,,-0.696240602,0.408270677,0,0,0,,0,140,140,89,1,
,,,,,,,,,,,,,,,,,,5ee33ce832efb54e45adc345,2020-08-10_09h23.09.641,lexical_decision_task_MP,2020.1.3,Win32,60,m,1,,,,,,,,0.709755,1,,,,,,187,WORD,UN,50,social,COURSE,m,0.709755,,,,,,,-0.696240602,0.408270677,0,0,0,,0,141,141,186,1,
,,,,,,,,,,,,,,,,,,5ee33ce832efb54e45adc345,2020-08-10_09h23.09.641,lexical_decision_task_MP,2020.1.3,Win32,60,z,1,,,,,,,,1.53148,1,,,,,,408,NW,UN,33,flumni,HURNIA,z,1.53148,,,,,,,-0.696240602,0.408270677,0,0,0,,0,142,142,407,1,
,,,,,,,,,,,,,,,,,,5ee33ce832efb54e45adc345,2020-08-10_09h23.09.641,lexical_decision_task_MP,2020.1.3,Win32,60,z,0,,,,,,,,0.632045,0,,,,,,192,WORD,UN,50,object,PLAGUE,m,0.632045,,,,,,,-0.696240602,0.408270677,0,0,0,,0,143,143,191,1,
,,,,,,,,,,,,,,,,,,5ee33ce832efb54e45adc345,2020-08-10_09h23.09.641,lexical_decision_task_MP,2020.1.3,Win32,60,z,1,,,,,,,,1.845605,1,,,,,,340,NW,"ID",50,fiatch,FIATCH,z,1.845605,,,,,,,-0.696240602,0.408270677,0,0,0,,0,144,144,339,1,
,,,,,,,,,,,,,,,,,,5ee33ce832efb54e45adc345,2020-08-10_09h23.09.641,lexical_decision_task_MP,2020.1.3,Win32,60,z,1,,,,,,,,0.86206,1,,,,,,437,NW,UN,50,baitch,SNAPEL,z,0.86206,,,,,,,-0.696240602,0.408270677,0,0,0,,0,145,145,436,1,
,,,,,,,,,,,,,,,,,,5ee33ce832efb54e45adc345,2020-08-10_09h23.09.641,lexical_decision_task_MP,2020.1.3,Win32,60,m,1,,,,,,,,1.000535,1,,,,,,39,WORD,"ID",33,insect,INSECT,m,1.000535,,,,,,,-0.696240602,0.408270677,0,0,0,,0,146,146,38,1,
,,,,,,,,,,,,,,,,,,5ee33ce832efb54e45adc345,2020-08-10_09h23.09.641,lexical_decision_task_MP,2020.1.3,Win32,60,z,1,,,,,,,,0.60616,1,,,,,,446,NW,UN,50,gircue,RUNAMO,z,0.60616,,,,,,,-0.696240602,0.408270677,0,0,0,,0,147,147,445,1,
,,,,,,,,,,,,,,,,,,5ee33ce832efb54e45adc345,2020-08-10_09h23.09.641,lexical_decision_task_MP,2020.1.3,Win32,60,m,1,,,,,,,,0.55747,1,,,,,,81,WORD,"ID",50,friend,FRIEND,m,0.55747,,,,,,,-0.696240602,0.408270677,0,0,0,,0,148,148,80,1,
,,,,,,,,,,,,,,,,,,5ee33ce832efb54e45adc345,2020-08-10_09h23.09.641,lexical_decision_task_MP,2020.1.3,Win32,60,z,0,,,,,,,,0.93755,0,,,,,,207,WORD,UN,50,hockey,WREATH,m,0.93755,,,,,,,-0.696240602,0.408270677,0,0,0,,0,149,149,206,1,
,,,,,,,,,,,,,,,,,,5ee33ce832efb54e45adc345,2020-08-10_09h23.09.641,lexical_decision_task_MP,2020.1.3,Win32,60,m,1,,,,,,,,0.49792,1,,,,,,17,WORD,"ID",33,charge,CHARGE,m,0.49792,,,,,,,-0.696240602,0.408270677,0,0,0,,0,150,150,16,1,
,,,,,,,,,,,,,,,,,,5ee33ce832efb54e45adc345,2020-08-10_09h23.09.641,lexical_decision_task_MP,2020.1.3,Win32,60,z,1,,,,,,,,0.70174,1,,,,,,413,NW,UN,33,serbol,EQUATS,z,0.70174,,,,,,,-0.696240602,0.408270677,0,0,0,,0,151,151,412,1,
,,,,,,,,,,,,,,,,,,5ee33ce832efb54e45adc345,2020-08-10_09h23.09.641,lexical_decision_task_MP,2020.1.3,Win32,60,z,1,,,,,,,,0.619095,1,,,,,,287,NW,"ID",33,nymbel,NYMBEL,z,0.619095,,,,,,,-0.696240602,0.408270677,0,0,0,,0,152,152,286,1,
,,,,,,,,,,,,,,,,,,5ee33ce832efb54e45adc345,2020-08-10_09h23.09.641,lexical_decision_task_MP,2020.1.3,Win32,60,z,1,,,,,,,,0.768255,1,,,,,,242,NW,"ID",33,unwert,UNWERT,z,0.768255,,,,,,,-0.696240602,0.408270677,0,0,0,,0,153,153,241,1,
,,,,,,,,,,,,,,,,,,5ee33ce832efb54e45adc345,2020-08-10_09h23.09.641,lexical_decision_task_MP,2020.1.3,Win32,60,m,1,,,,,,,,0.51399,1,,,,,,97,WORD,"ID",50,client,CLIENT,m,0.51399,,,,,,,-0.696240602,0.408270677,0,0,0,,0,154,154,96,1,
,,,,,,,,,,,,,,,,,,5ee33ce832efb54e45adc345,2020-08-10_09h23.09.641,lexical_decision_task_MP,2020.1.3,Win32,60,m,1,,,,,,,,0.60173,1,,,,,,226,WORD,UN,50,flower,CASINO,m,0.60173,,,,,,,-0.696240602,0.408270677,0,0,0,,0,155,155,225,1,
,,,,,,,,,,,,,,,,,,5ee33ce832efb54e45adc345,2020-08-10_09h23.09.641,lexical_decision_task_MP,2020.1.3,Win32,60,m,1,,,,,,,,1.166525,1,,,,,,111,WORD,"ID",50,induce,INDUCE,m,1.166525,,,,,,,-0.696240602,0.408270677,0,0,0,,0,156,156,110,1,
,,,,,,,,,,,,,,,,,,5ee33ce832efb54e45adc345,2020-08-10_09h23.09.641,lexical_decision_task_MP,2020.1.3,Win32,60,z,1,,,,,,,,0.66124,1,,,,,,406,NW,UN,33,suiver,NOUPLY,z,0.66124,,,,,,,-0.696240602,0.408270677,0,0,0,,0,157,157,405,1,
,,,,,,,,,,,,,,,,,,5ee33ce832efb54e45adc345,2020-08-10_09h23.09.641,lexical_decision_task_MP,2020.1.3,Win32,60,z,1,,,,,,,,0.583835,1,,,,,,277,NW,"ID",33,petain,PETAIN,z,0.583835,,,,,,,-0.696240602,0.408270677,0,0,0,,0,158,158,276,1,
,,,,,,,,,,,,,,,,,,5ee33ce832efb54e45adc345,2020-08-10_09h23.09.641,lexical_decision_task_MP,2020.1.3,Win32,60,z,1,,,,,,,,0.720925,1,,,,,,389,NW,UN,33,hatrus,WITMER,z,0.720925,,,,,,,-0.696240602,0.408270677,0,0,0,,0,159,159,388,1,
,,,,,,,,,,,,,,,,,,5ee33ce832efb54e45adc345,2020-08-10_09h23.09.641,lexical_decision_task_MP,2020.1.3,Win32,60,z,1,,,,,,,,0.71827,1,,,,,,291,NW,"ID",33,pretch,PRETCH,z,0.71827,,,,,,,-0.696240602,0.408270677,0,0,0,,0,160,160,290,1,
,,,,,,,,,,,,,,,,,,5ee33ce832efb54e45adc345,2020-08-10_09h23.09.641,lexical_decision_task_MP,2020.1.3,Win32,60,m,0,,,,,,,,0.61558,0,,,,,,275,NW,"ID",33,sleirt,SLEIRT,z,0.61558,,,,,,,-0.696240602,0.408270677,0,0,0,,0,161,161,274,1,
,,,,,,,,,,,,,,,,,,5ee33ce832efb54e45adc345,2020-08-10_09h23.09.641,lexical_decision_task_MP,2020.1.3,Win32,60,z,1,,,,,,,,0.50034,1,,,,,,334,NW,"ID",50,watmeg,WATMEG,z,0.50034,,,,,,,-0.696240602,0.408270677,0,0,0,,0,162,162,333,1,
,,,,,,,,,,,,,,,,,,5ee33ce832efb54e45adc345,2020-08-10_09h23.09.641,lexical_decision_task_MP,2020.1.3,Win32,60,z,1,,,,,,,,0.666225,1,,,,,,372,NW,UN,33,bigent,RAMILY,z,0.666225,,,,,,,-0.696240602,0.408270677,0,0,0,,0,163,163,371,1,
,,,,,,,,,,,,,,,,,,5ee33ce832efb54e45adc345,2020-08-10_09h23.09.641,lexical_decision_task_MP,2020.1.3,Win32,60,z,1,,,,,,,,0.60047,1,,,,,,301,NW,"ID",50,fainch,FAINCH,z,0.60047,,,,,,,-0.696240602,0.408270677,0,0,0,,0,164,164,300,1,
,,,,,,,,,,,,,,,,,,5ee33ce832efb54e45adc345,2020-08-10_09h23.09.641,lexical_decision_task_MP,2020.1.3,Win32,60,z,1,,,,,,,,0.508205,1,,,,,,263,NW,"ID",33,dolica,DOLICA,z,0.508205,,,,,,,-0.696240602,0.408270677,0,0,0,,0,165,165,262,1,
,,,,,,,,,,,,,,,,,,5ee33ce832efb54e45adc345,2020-08-10_09h23.09.641,lexical_decision_task_MP,2020.1.3,Win32,60,z,1,,,,,,,,0.490565,1,,,,,,257,NW,"ID",33,veniod,VENIOD,z,0.490565,,,,,,,-0.696240602,0.408270677,0,0,0,,0,166,166,256,1,
,,,,,,,,,,,,,,,,,,5ee33ce832efb54e45adc345,2020-08-10_09h23.09.641,lexical_decision_task_MP,2020.1.3,Win32,60,m,1,,,,,,,,0.469435,1,,,,,,204,WORD,UN,50,lounge,BURDEN,m,0.469435,,,,,,,-0.696240602,0.408270677,0,0,0,,0,167,167,203,1,
,,,,,,,,,,,,,,,,,,5ee33ce832efb54e45adc345,2020-08-10_09h23.09.641,lexical_decision_task_MP,2020.1.3,Win32,60,m,0,,,,,,,,0.49006,0,,,,,,289,NW,"ID",33,starby,STARBY,z,0.49006,,,,,,,-0.696240602,0.408270677,0,0,0,,0,168,168,288,1,
,,,,,,,,,,,,,,,,,,5ee33ce832efb54e45adc345,2020-08-10_09h23.09.641,lexical_decision_task_MP,2020.1.3,Win32,60,m,1,,,,,,,,0.471365,1,,,,,,91,WORD,"ID",50,expand,EXPAND,m,0.471365,,,,,,,-0.696240602,0.408270677,0,0,0,,0,169,169,90,1,
,,,,,,,,,,,,,,,,,,5ee33ce832efb54e45adc345,2020-08-10_09h23.09.641,lexical_decision_task_MP,2020.1.3,Win32,60,z,0,,,,,,,,0.591065,0,,,,,,239,WORD,UN,50,forest,LUMBER,m,0.591065,,,,,,,-0.696240602,0.408270677,0,0,0,,0,170,170,238,1,
,,,,,,,,,,,,,,,,,,5ee33ce832efb54e45adc345,2020-08-10_09h23.09.641,lexical_decision_task_MP,2020.1.3,Win32,60,z,1,,,,,,,,0.570325,1,,,,,,322,NW,"ID",50,slanch,SLANCH,z,0.570325,,,,,,,-0.696240602,0.408270677,0,0,0,,0,171,171,321,1,
,,,,,,,,,,,,,,,,,,5ee33ce832efb54e45adc345,2020-08-10_09h23.09.641,lexical_decision_task_MP,2020.1.3,Win32,60,m,0,,,,,,,,0.448865,0,,,,,,396,NW,UN,33,camble,FLENGY,z,0.448865,,,,,,,-0.696240602,0.408270677,0,0,0,,0,172,172,395,1,
,,,,,,,,,,,,,,,,,,5ee33ce832efb54e45adc345,2020-08-10_09h23.09.641,lexical_decision_task_MP,2020.1.3,Win32,60,m,0,,,,,,,,0.707415,0,,,,,,368,NW,UN,33,wronch,HORNAL,z,0.707415,,,,,,,-0.696240602,0.408270677,0,0,0,,0,173,173,367,1,
,,,,,,,,,,,,,,,,,,5ee33ce832efb54e45adc345,2020-08-10_09h23.09.641,lexical_decision_task_MP,2020.1.3,Win32,60,m,1,,,,,,,,0.76523,1,,,,,,48,WORD,"ID",33,walnut,WALNUT,m,0.76523,,,,,,,-0.696240602,0.408270677,0,0,0,,0,174,174,47,1,
,,,,,,,,,,,,,,,,,,5ee33ce832efb54e45adc345,2020-08-10_09h23.09.641,lexical_decision_task_MP,2020.1.3,Win32,60,m,1,,,,,,,,0.683385,1,,,,,,112,WORD,"ID",50,breath,BREATH,m,0.683385,,,,,,,-0.696240602,0.408270677,0,0,0,,0,175,175,111,1,
,,,,,,,,,,,,,,,,,,5ee33ce832efb54e45adc345,2020-08-10_09h23.09.641,lexical_decision_task_MP,2020.1.3,Win32,60,z,1,,,,,,,,0.51103,1,,,,,,362,NW,UN,33,breali,TIREAU,z,0.51103,,,,,,,-0.696240602,0.408270677,0,0,0,,0,176,176,361,1,
,,,,,,,,,,,,,,,,,,5ee33ce832efb54e45adc345,2020-08-10_09h23.09.641,lexical_decision_task_MP,2020.1.3,Win32,60,m,1,,,,,,,,0.504815,1,,,,,,7,WORD,"ID",33,anchor,ANCHOR,m,0.504815,,,,,,,-0.696240602,0.408270677,0,0,0,,0,177,177,6,1,
,,,,,,,,,,,,,,,,,,5ee33ce832efb54e45adc345,2020-08-10_09h23.09.641,lexical_decision_task_MP,2020.1.3,Win32,60,z,1,,,,,,,,0.719685,1,,,,,,279,NW,"ID",33,celond,CELOND,z,0.719685,,,,,,,-0.696240602,0.408270677,0,0,0,,0,178,178,278,1,
,,,,,,,,,,,,,,,,,,5ee33ce832efb54e45adc345,2020-08-10_09h23.09.641,lexical_decision_task_MP,2020.1.3,Win32,60,m,0,,,,,,,,0.417895,0,,,,,,325,NW,"ID",50,thruse,THRUSE,z,0.417895,,,,,,,-0.696240602,0.408270677,0,0,0,,0,179,179,324,1,
,,,,,,,,,,,,,,,,,,5ee33ce832efb54e45adc345,2020-08-10_09h23.09.641,lexical_decision_task_MP,2020.1.3,Win32,60,m,1,,,,,,,,0.865825,1,,,,,,173,WORD,UN,33,turkey,SHOWER,m,0.865825,,,,,,,-0.696240602,0.408270677,0,0,0,,0,180,180,172,1,
,,,,,,,,,,,,,,,,,,5ee33ce832efb54e45adc345,2020-08-10_09h23.09.641,lexical_decision_task_MP,2020.1.3,Win32,60,m,1,,,,,,,,0.489175,1,,,,,,100,WORD,"ID",50,carbon,CARBON,m,0.489175,,,,,,,-0.696240602,0.408270677,0,0,0,,0,181,181,99,1,
,,,,,,,,,,,,,,,,,,5ee33ce832efb54e45adc345,2020-08-10_09h23.09.641,lexical_decision_task_MP,2020.1.3,Win32,60,z,1,,,,,,,,0.687755,1,,,,,,444,NW,UN,50,minkel,JAUNCE,z,0.687755,,,,,,,-0.696240602,0.408270677,0,0,0,,0,182,182,443,1,
,,,,,,,,,,,,,,,,,,5ee33ce832efb54e45adc345,2020-08-10_09h23.09.641,lexical_decision_task_MP,2020.1.3,Win32,60,m,1,,,,,,,,0.390645,1,,,,,,37,WORD,"ID",33,insult,INSULT,m,0.390645,,,,,,,-0.696240602,0.408270677,0,0,0,,0,183,183,36,1,
,,,,,,,,,,,,,,,,,,5ee33ce832efb54e45adc345,2020-08-10_09h23.09.641,lexical_decision_task_MP,2020.1.3,Win32,60,m,1,,,,,,,,0.63254,1,,,,,,131,WORD,UN,33,strong,QUENCH,m,0.63254,,,,,,,-0.696240602,0.408270677,0,0,0,,0,184,184,130,1,
,,,,,,,,,,,,,,,,,,5ee33ce832efb54e45adc345,2020-08-10_09h23.09.641,lexical_decision_task_MP,2020.1.3,Win32,60,m,1,,,,,,,,0.47633,1,,,,,,224,WORD,UN,50,vulgar,PERIOD,m,0.47633,,,,,,,-0.696240602,0.408270677,0,0,0,,0,185,185,223,1,
,,,,,,,,,,,,,,,,,,5ee33ce832efb54e45adc345,2020-08-10_09h23.09.641,lexical_decision_task_MP,2020.1.3,Win32,60,,0,,,,,,,,0.47633,-1,,,,,,309,NW,"ID",50,amiloy,AMILOY,z,,,,,,,,-0.696240602,0.408270677,0,0,0,,0,186,186,308,1,
,,,,,,,,,,,,,,,,,,5ee33ce832efb54e45adc345,2020-08-10_09h23.09.641,lexical_decision_task_MP,2020.1.3,Win32,60,m,1,,,,,,,,0.467905,1,,,,,,102,WORD,"ID",50,direct,DIRECT,m,0.467905,,,,,,,-0.696240602,0.408270677,0,0,0,,0,187,187,101,1,
,,,,,,,,,,,,,,,,,,5ee33ce832efb54e45adc345,2020-08-10_09h23.09.641,lexical_decision_task_MP,2020.1.3,Win32,60,m,1,,,,,,,,0.574645,1,,,,,,42,WORD,"ID",33,chapel,CHAPEL,m,0.574645,,,,,,,-0.696240602,0.408270677,0,0,0,,0,188,188,41,1,
,,,,,,,,,,,,,,,,,,5ee33ce832efb54e45adc345,2020-08-10_09h23.09.641,lexical_decision_task_MP,2020.1.3,Win32,60,z,1,,,,,,,,0.505915,1,,,,,,271,NW,"ID",33,aubrid,AUBRID,z,0.505915,,,,,,,-0.696240602,0.408270677,0,0,0,,0,189,189,270,1,
,,,,,,,,,,,,,,,,,,5ee33ce832efb54e45adc345,2020-08-10_09h23.09.641,lexical_decision_task_MP,2020.1.3,Win32,60,m,1,,,,,,,,0.85262,1,,,,,,237,WORD,UN,50,seldom,POSTER,m,0.85262,,,,,,,-0.696240602,0.408270677,0,0,0,,0,190,190,236,1,
,,,,,,,,,,,,,,,,,,5ee33ce832efb54e45adc345,2020-08-10_09h23.09.641,lexical_decision_task_MP,2020.1.3,Win32,60,z,1,,,,,,,,0.554425,1,,,,,,337,NW,"ID",50,rejols,REJOLS,z,0.554425,,,,,,,-0.696240602,0.408270677,0,0,0,,0,191,191,336,1,
,,,,,,,,,,,,,,,,,,5ee33ce832efb54e45adc345,2020-08-10_09h23.09.641,lexical_decision_task_MP,2020.1.3,Win32,60,m,1,,,,,,,,0.44213,1,,,,,,219,WORD,UN,50,voyage,BUCKET,m,0.44213,,,,,,,-0.696240602,0.408270677,0,0,0,,0,192,192,218,1,
,,,,,,,,,,,,,,,,,,5ee33ce832efb54e45adc345,2020-08-10_09h23.09.641,lexical_decision_task_MP,2020.1.3,Win32,60,m,1,,,,,,,,0.59776,1,,,,,,163,WORD,UN,33,market,STRING,m,0.59776,,,,,,,-0.696240602,0.408270677,0,0,0,,0,193,193,162,1,
,,,,,,,,,,,,,,,,,,5ee33ce832efb54e45adc345,2020-08-10_09h23.09.641,lexical_decision_task_MP,2020.1.3,Win32,60,m,1,,,,,,,,0.513345,1,,,,,,122,WORD,UN,33,strike,LINGER,m,0.513345,,,,,,,-0.696240602,0.408270677,0,0,0,,0,194,194,121,1,
,,,,,,,,,,,,,,,,,,5ee33ce832efb54e45adc345,2020-08-10_09h23.09.641,lexical_decision_task_MP,2020.1.3,Win32,60,m,1,,,,,,,,0.48671,1,,,,,,233,WORD,UN,50,clumsy,NATURE,m,0.48671,,,,,,,-0.696240602,0.408270677,0,0,0,,0,195,195,232,1,
,,,,,,,,,,,,,,,,,,5ee33ce832efb54e45adc345,2020-08-10_09h23.09.641,lexical_decision_task_MP,2020.1.3,Win32,60,m,1,,,,,,,,0.50399,1,,,,,,13,WORD,"ID",33,strive,STRIVE,m,0.50399,,,,,,,-0.696240602,0.408270677,0,0,0,,0,196,196,12,1,
,,,,,,,,,,,,,,,,,,5ee33ce832efb54e45adc345,2020-08-10_09h23.09.641,lexical_decision_task_MP,2020.1.3,Win32,60,z,1,,,,,,,,0.586255,1,,,,,,365,NW,UN,33,toshel,GUAIRT,z,0.586255,,,,,,,-0.696240602,0.408270677,0,0,0,,0,197,197,364,1,
,,,,,,,,,,,,,,,,,,5ee33ce832efb54e45adc345,2020-08-10_09h23.09.641,lexical_decision_task_MP,2020.1.3,Win32,60,m,1,,,,,,,,0.541565,1,,,,,,25,WORD,"ID",33,domain,DOMAIN,m,0.541565,,,,,,,-0.696240602,0.408270677,0,0,0,,0,198,198,24,1,
,,,,,,,,,,,,,,,,,,5ee33ce832efb54e45adc345,2020-08-10_09h23.09.641,lexical_decision_task_MP,2020.1.3,Win32,60,m,1,,,,,,,,0.583745,1,,,,,,105,WORD,"ID",50,number,NUMBER,m,0.583745,,,,,,,-0.696240602,0.408270677,0,0,0,,0,199,199,104,1,
,,,,,,,,,,,,,,,,,,5ee33ce832efb54e45adc345,2020-08-10_09h23.09.641,lexical_decision_task_MP,2020.1.3,Win32,60,m,1,,,,,,,,0.48467,1,,,,,,186,WORD,UN,50,course,PORTAL,m,0.48467,,,,,,,-0.696240602,0.408270677,0,0,0,,0,200,200,185,1,
,,,,,,,,,,,,,,,,,,5ee33ce832efb54e45adc345,2020-08-10_09h23.09.641,lexical_decision_task_MP,2020.1.3,Win32,60,z,1,,,,,,,,0.691285,1,,,,,,388,NW,UN,33,witmer,CRAGIN,z,0.691285,,,,,,,-0.696240602,0.408270677,0,0,0,,0,201,201,387,1,
,,,,,,,,,,,,,,,,,,5ee33ce832efb54e45adc345,2020-08-10_09h23.09.641,lexical_decision_task_MP,2020.1.3,Win32,60,m,1,,,,,,,,0.47357,1,,,,,,36,WORD,"ID",33,vanish,VANISH,m,0.47357,,,,,,,-0.696240602,0.408270677,0,0,0,,0,202,202,35,1,
,,,,,,,,,,,,,,,,,,5ee33ce832efb54e45adc345,2020-08-10_09h23.09.641,lexical_decision_task_MP,2020.1.3,Win32,60,m,1,,,,,,,,0.448535,1,,,,,,35,WORD,"ID",33,socket,SOCKET,m,0.448535,,,,,,,-0.696240602,0.408270677,0,0,0,,0,203,203,34,1,
,,,,,,,,,,,,,,,,,,5ee33ce832efb54e45adc345,2020-08-10_09h23.09.641,lexical_decision_task_MP,2020.1.3,Win32,60,m,1,,,,,,,,0.50811,1,,,,,,130,WORD,UN,33,quench,STUPID,m,0.50811,,,,,,,-0.696240602,0.408270677,0,0,0,,0,204,204,129,1,
,,,,,,,,,,,,,,,,,,5ee33ce832efb54e45adc345,2020-08-10_09h23.09.641,lexical_decision_task_MP,2020.1.3,Win32,60,z,1,,,,,,,,0.53335,1,,,,,,259,NW,"ID",33,soudal,SOUDAL,z,0.53335,,,,,,,-0.696240602,0.408270677,0,0,0,,0,205,205,258,1,
,,,,,,,,,,,,,,,,,,5ee33ce832efb54e45adc345,2020-08-10_09h23.09.641,lexical_decision_task_MP,2020.1.3,Win32,60,z,1,,,,,,,,0.672145,1,,,,,,401,NW,UN,33,elopia,MUSTIL,z,0.672145,,,,,,,-0.696240602,0.408270677,0,0,0,,0,206,206,400,1,
,,,,,,,,,,,,,,,,,,5ee33ce832efb54e45adc345,2020-08-10_09h23.09.641,lexical_decision_task_MP,2020.1.3,Win32,60,m,1,,,,,,,,0.55207,1,,,,,,223,WORD,UN,50,period,KIDNEY,m,0.55207,,,,,,,-0.696240602,0.408270677,0,0,0,,0,207,207,222,1,
,,,,,,,,,,,,,,,,,,5ee33ce832efb54e45adc345,2020-08-10_09h23.09.641,lexical_decision_task_MP,2020.1.3,Win32,60,z,1,,,,,,,,0.6483,1,,,,,,430,NW,UN,50,funtle,CAROEY,z,0.6483,,,,,,,-0.696240602,0.408270677,0,0,0,,0,208,208,429,1,
,,,,,,,,,,,,,,,,,,5ee33ce832efb54e45adc345,2020-08-10_09h23.09.641,lexical_decision_task_MP,2020.1.3,Win32,60,m,0,,,,,,,,1.07927,0,,,,,,399,NW,UN,33,wearox,FOURET,z,1.07927,,,,,,,-0.696240602,0.408270677,0,0,0,,0,209,209,398,1,
,,,,,,,,,,,,,,,,,,5ee33ce832efb54e45adc345,2020-08-10_09h23.09.641,lexical_decision_task_MP,2020.1.3,Win32,60,z,1,,,,,,,,0.51997,1,,,,,,267,NW,"ID",33,pasink,PASINK,z,0.51997,,,,,,,-0.696240602,0.408270677,0,0,0,,0,210,210,266,1,
,,,,,,,,,,,,,,,,,,5ee33ce832efb54e45adc345,2020-08-10_09h23.09.641,lexical_decision_task_MP,2020.1.3,Win32,60,m,1,,,,,,,,0.69568,1,,,,,,221,WORD,UN,50,hinder,MASCOT,m,0.69568,,,,,,,-0.696240602,0.408270677,0,0,0,,0,211,211,220,1,
,,,,,,,,,,,,,,,,,,5ee33ce832efb54e45adc345,2020-08-10_09h23.09.641,lexical_decision_task_MP,2020.1.3,Win32,60,m,1,,,,,,,,0.44792,1,,,,,,80,WORD,"ID",50,family,FAMILY,m,0.44792,,,,,,,-0.696240602,0.408270677,0,0,0,,0,212,212,79,1,
,,,,,,,,,,,,,,,,,,5ee33ce832efb54e45adc345,2020-08-10_09h23.09.641,lexical_decision_task_MP,2020.1.3,Win32,60,m,1,,,,,,,,0.47327,1,,,,,,95,WORD,"ID",50,thread,THREAD,m,0.47327,,,,,,,-0.696240602,0.408270677,0,0,0,,0,213,213,94,1,
,,,,,,,,,,,,,,,,,,5ee33ce832efb54e45adc345,2020-08-10_09h23.09.641,lexical_decision_task_MP,2020.1.3,Win32,60,z,1,,,,,,,,0.53266,1,,,,,,415,NW,UN,33,pathel,HIGSTA,z,0.53266,,,,,,,-0.696240602,0.408270677,0,0,0,,0,214,214,414,1,
,,,,,,,,,,,,,,,,,,5ee33ce832efb54e45adc345,2020-08-10_09h23.09.641,lexical_decision_task_MP,2020.1.3,Win32,60,m,1,,,,,,,,0.6149,1,,,,,,24,WORD,"ID",33,praise,PRAISE,m,0.6149,,,,,,,-0.696240602,0.408270677,0,0,0,,0,215,215,23,1,
,,,,,,,,,,,,,,,,,,5ee33ce832efb54e45adc345,2020-08-10_09h23.09.641,lexical_decision_task_MP,2020.1.3,Win32,60,m,0,,,,,,,,0.54173,0,,,,,,468,NW,UN,50,padifs,WICTOR,z,0.54173,,,,,,,-0.696240602,0.408270677,0,0,0,,0,216,216,467,1,
,,,,,,,,,,,,,,,,,,5ee33ce832efb54e45adc345,2020-08-10_09h23.09.641,lexical_decision_task_MP,2020.1.3,Win32,60,z,1,,,,,,,,0.648285,1,,,,,,343,NW,"ID",50,aimosy,AIMOSY,z,0.648285,,,,,,,-0.696240602,0.408270677,0,0,0,,0,217,217,342,1,
,,,,,,,,,,,,,,,,,,5ee33ce832efb54e45adc345,2020-08-10_09h23.09.641,lexical_decision_task_MP,2020.1.3,Win32,60,m,1,,,,,,,,0.58327,1,,,,,,155,WORD,UN,33,cradle,LIZARD,m,0.58327,,,,,,,-0.696240602,0.408270677,0,0,0,,0,218,218,154,1,
,,,,,,,,,,,,,,,,,,5ee33ce832efb54e45adc345,2020-08-10_09h23.09.641,lexical_decision_task_MP,2020.1.3,Win32,60,z,1,,,,,,,,0.83708,1,,,,,,422,NW,UN,50,streld,ALCOUD,z,0.83708,,,,,,,-0.696240602,0.408270677,0,0,0,,0,219,219,421,1,
,,,,,,,,,,,,,,,,,,5ee33ce832efb54e45adc345,2020-08-10_09h23.09.641,lexical_decision_task_MP,2020.1.3,Win32,60,m,1,,,,,,,,0.48165,1,,,,,,141,WORD,UN,33,spruce,ORPHAN,m,0.48165,,,,,,,-0.696240602,0.408270677,0,0,0,,0,220,220,140,1,
,,,,,,,,,,,,,,,,,,5ee33ce832efb54e45adc345,2020-08-10_09h23.09.641,lexical_decision_task_MP,2020.1.3,Win32,60,m,1,,,,,,,,0.453335,1,,,,,,181,WORD,UN,50,winter,GLANCE,m,0.453335,,,,,,,-0.696240602,0.408270677,0,0,0,,0,221,221,180,1,
,,,,,,,,,,,,,,,,,,5ee33ce832efb54e45adc345,2020-08-10_09h23.09.641,lexical_decision_task_MP,2020.1.3,Win32,60,z,1,,,,,,,,0.53489,1,,,,,,360,NW,"ID",50,desory,DESORY,z,0.53489,,,,,,,-0.696240602,0.408270677,0,0,0,,0,222,222,359,1,
,,,,,,,,,,,,,,,,,,5ee33ce832efb54e45adc345,2020-08-10_09h23.09.641,lexical_decision_task_MP,2020.1.3,Win32,60,m,1,,,,,,,,0.428065,1,,,,,,222,WORD,UN,50,casino,HINDER,m,0.428065,,,,,,,-0.696240602,0.408270677,0,0,0,,0,223,223,221,1,
,,,,,,,,,,,,,,,,,,5ee33ce832efb54e45adc345,2020-08-10_09h23.09.641,lexical_decision_task_MP,2020.1.3,Win32,60,m,0,,,,,,,,0.80903,0,,,,,,402,NW,UN,33,bruats,SYNTIC,z,0.80903,,,,,,,-0.696240602,0.408270677,0,0,0,,0,224,224,401,1,
,,,,,,,,,,,,,,,,,,5ee33ce832efb54e45adc345,2020-08-10_09h23.09.641,lexical_decision_task_MP,2020.1.3,Win32,60,m,1,,,,,,,,0.502475,1,,,,,,215,WORD,UN,50,behalf,PHOBIA,m,0.502475,,,,,,,-0.696240602,0.408270677,0,0,0,,0,225,225,214,1,
,,,,,,,,,,,,,,,,,,5ee33ce832efb54e45adc345,2020-08-10_09h23.09.641,lexical_decision_task_MP,2020.1.3,Win32,60,m,1,,,,,,,,0.487865,1,,,,,,231,WORD,UN,50,mother,EXPORT,m,0.487865,,,,,,,-0.696240602,0.408270677,0,0,0,,0,226,226,230,1,
,,,,,,,,,,,,,,,,,,5ee33ce832efb54e45adc345,2020-08-10_09h23.09.641,lexical_decision_task_MP,2020.1.3,Win32,60,m,1,,,,,,,,0.52269,1,,,,,,71,WORD,"ID",50,garden,GARDEN,m,0.52269,,,,,,,-0.696240602,0.408270677,0,0,0,,0,227,227,70,1,
,,,,,,,,,,,,,,,,,,5ee33ce832efb54e45adc345,2020-08-10_09h23.09.641,lexical_decision_task_MP,2020.1.3,Win32,60,m,0,,,,,,,,0.91707,0,,,,,,338,NW,"ID",50,wreash,WREASH,z,0.91707,,,,,,,-0.696240602,0.408270677,0,0,0,,0,228,228,337,1,
,,,,,,,,,,,,,,,,,,5ee33ce832efb54e45adc345,2020-08-10_09h23.09.641,lexical_decision_task_MP,2020.1.3,Win32,60,z,1,,,,,,,,0.637,1,,,,,,475,NW,UN,50,robuly,PEBRIC,z,0.637,,,,,,,-0.696240602,0.408270677,0,0,0,,0,229,229,474,1,
,,,,,,,,,,,,,,,,,,5ee33ce832efb54e45adc345,2020-08-10_09h23.09.641,lexical_decision_task_MP,2020.1.3,Win32,60,m,1,,,,,,,,0.574655,1,,,,,,84,WORD,"ID",50,mortal,MORTAL,m,0.574655,,,,,,,-0.696240602,0.408270677,0,0,0,,0,230,230,83,1,
,,,,,,,,,,,,,,,,,,5ee33ce832efb54e45adc345,2020-08-10_09h23.09.641,lexical_decision_task_MP,2020.1.3,Win32,60,z,1,,,,,,,,0.90758,1,,,,,,351,NW,"ID",50,tiesch,TIESCH,z,0.90758,,,,,,,-0.696240602,0.408270677,0,0,0,,0,231,231,350,1,
,,,,,,,,,,,,,,,,,,5ee33ce832efb54e45adc345,2020-08-10_09h23.09.641,lexical_decision_task_MP,2020.1.3,Win32,60,m,0,,,,,,,,0.866395,0,,,,,,352,NW,"ID",50,tringe,TRINGE,z,0.866395,,,,,,,-0.696240602,0.408270677,0,0,0,,0,232,232,351,1,
,,,,,,,,,,,,,,,,,,5ee33ce832efb54e45adc345,2020-08-10_09h23.09.641,lexical_decision_task_MP,2020.1.3,Win32,60,m,0,,,,,,,,0.732075,0,,,,,,303,NW,"ID",50,fiream,FIREAM,z,0.732075,,,,,,,-0.696240602,0.408270677,0,0,0,,0,233,233,302,1,
,,,,,,,,,,,,,,,,,,5ee33ce832efb54e45adc345,2020-08-10_09h23.09.641,lexical_decision_task_MP,2020.1.3,Win32,60,m,1,,,,,,,,0.597815,1,,,,,,160,WORD,UN,33,dragon,VIOLET,m,0.597815,,,,,,,-0.696240602,0.408270677,0,0,0,,0,234,234,159,1,
,,,,,,,,,,,,,,,,,,5ee33ce832efb54e45adc345,2020-08-10_09h23.09.641,lexical_decision_task_MP,2020.1.3,Win32,60,z,1,,,,,,,,0.600495,1,,,,,,298,NW,"ID",33,piergy,PIERGY,z,0.600495,,,,,,,-0.696240602,0.408270677,0,0,0,,0,235,235,297,1,
,,,,,,,,,,,,,,,,,,5ee33ce832efb54e45adc345,2020-08-10_09h23.09.641,lexical_decision_task_MP,2020.1.3,Win32,60,m,1,,,,,,,,0.63392,1,,,,,,32,WORD,"ID",33,buckle,BUCKLE,m,0.63392,,,,,,,-0.696240602,0.408270677,0,0,0,,0,236,236,31,1,
,,,,,,,,,,,,,,,,,,5ee33ce832efb54e45adc345,2020-08-10_09h23.09.641,lexical_decision_task_MP,2020.1.3,Win32,60,m,1,,,,,,,,0.84468,1,,,,,,162,WORD,UN,33,string,CANDLE,m,0.84468,,,,,,,-0.696240602,0.408270677,0,0,0,,0,237,237,161,1,
,,,,,,,,,,,,,,,,,,5ee33ce832efb54e45adc345,2020-08-10_09h23.09.641,lexical_decision_task_MP,2020.1.3,Win32,60,m,1,,,,,,,,0.58389,1,,,,,,229,WORD,UN,50,fringe,MOTHER,m,0.58389,,,,,,,-0.696240602,0.408270677,0,0,0,,0,238,238,228,1,
,,,,,,,,,,,,,,,,,,5ee33ce832efb54e45adc345,2020-08-10_09h23.09.641,lexical_decision_task_MP,2020.1.3,Win32,60,m,1,,,,,,,,0.51118,1,,,,,,106,WORD,"ID",50,ransom,RANSOM,m,0.51118,,,,,,,-0.696240602,0.408270677,0,0,0,,0,239,239,105,1,
,,,,,,,,,,,,,,,,,,5ee33ce832efb54e45adc345,2020-08-10_09h23.09.641,lexical_decision_task_MP,2020.1.3,Win32,60,z,1,,,,,,,,0.65026,1,,,,,,407,NW,UN,33,hurnia,SUIVER,z,0.65026,,,,,,,-0.696240602,0.408270677,0,0,0,,0,240,240,406,1,
,,,,,,,,,,,,,,,,,,5ee33ce832efb54e45adc345,2020-08-10_09h23.09.641,lexical_decision_task_MP,2020.1.3,Win32,60,m,1,,,,,,,,0.542955,1,,,,,,195,WORD,UN,50,credit,RESIGN,m,0.542955,,,,,,,-0.022556391,-0.387218045,1,0,0,,0,241,241,194,1,break_done_button
,,,,,,,,,,,,,,,,,,5ee33ce832efb54e45adc345,2020-08-10_09h23.09.641,lexical_decision_task_MP,2020.1.3,Win32,60,m,1,,,,,,,,1.62375,1,,,,,,55,WORD,"ID",33,stroke,STROKE,m,1.62375,,,,,,,-0.022556391,-0.387218045,0,0,0,,0,242,242,54,1,
,,,,,,,,,,,,,,,,,,5ee33ce832efb54e45adc345,2020-08-10_09h23.09.641,lexical_decision_task_MP,2020.1.3,Win32,60,z,1,,,,,,,,0.647085,1,,,,,,391,NW,UN,33,rouncy,THELDY,z,0.647085,,,,,,,-0.022556391,-0.387218045,0,0,0,,0,243,243,390,1,
,,,,,,,,,,,,,,,,,,5ee33ce832efb54e45adc345,2020-08-10_09h23.09.641,lexical_decision_task_MP,2020.1.3,Win32,60,z,1,,,,,,,,0.598385,1,,,,,,423,NW,UN,50,praile,STRELD,z,0.598385,,,,,,,-0.022556391,-0.387218045,0,0,0,,0,244,244,422,1,
,,,,,,,,,,,,,,,,,,5ee33ce832efb54e45adc345,2020-08-10_09h23.09.641,lexical_decision_task_MP,2020.1.3,Win32,60,z,1,,,,,,,,0.584095,1,,,,,,294,NW,"ID",33,inhort,INHORT,z,0.584095,,,,,,,-0.022556391,-0.387218045,0,0,0,,0,245,245,293,1,
,,,,,,,,,,,,,,,,,,5ee33ce832efb54e45adc345,2020-08-10_09h23.09.641,lexical_decision_task_MP,2020.1.3,Win32,60,m,1,,,,,,,,0.66668,1,,,,,,136,WORD,UN,33,finger,BLEACH,m,0.66668,,,,,,,-0.022556391,-0.387218045,0,0,0,,0,246,246,135,1,
,,,,,,,,,,,,,,,,,,5ee33ce832efb54e45adc345,2020-08-10_09h23.09.641,lexical_decision_task_MP,2020.1.3,Win32,60,m,1,,,,,,,,0.575565,1,,,,,,74,WORD,"ID",50,plaque,PLAQUE,m,0.575565,,,,,,,-0.022556391,-0.387218045,0,0,0,,0,247,247,73,1,
,,,,,,,,,,,,,,,,,,5ee33ce832efb54e45adc345,2020-08-10_09h23.09.641,lexical_decision_task_MP,2020.1.3,Win32,60,z,0,,,,,,,,0.58519,0,,,,,,230,WORD,UN,50,export,FRINGE,m,0.58519,,,,,,,-0.022556391,-0.387218045,0,0,0,,0,248,248,229,1,
,,,,,,,,,,,,,,,,,,5ee33ce832efb54e45adc345,2020-08-10_09h23.09.641,lexical_decision_task_MP,2020.1.3,Win32,60,m,1,,,,,,,,0.47409,1,,,,,,21,WORD,"ID",33,simple,SIMPLE,m,0.47409,,,,,,,-0.022556391,-0.387218045,0,0,0,,0,249,249,20,1,
,,,,,,,,,,,,,,,,,,5ee33ce832efb54e45adc345,2020-08-10_09h23.09.641,lexical_decision_task_MP,2020.1.3,Win32,60,z,1,,,,,,,,0.55586,1,,,,,,355,NW,"ID",50,zingly,ZINGLY,z,0.55586,,,,,,,-0.022556391,-0.387218045,0,0,0,,0,250,250,354,1,
,,,,,,,,,,,,,,,,,,5ee33ce832efb54e45adc345,2020-08-10_09h23.09.641,lexical_decision_task_MP,2020.1.3,Win32,60,m,0,,,,,,,,0.615275,0,,,,,,342,NW,"ID",50,randow,RANDOW,z,0.615275,,,,,,,-0.022556391,-0.387218045,0,0,0,,0,251,251,341,1,
,,,,,,,,,,,,,,,,,,5ee33ce832efb54e45adc345,2020-08-10_09h23.09.641,lexical_decision_task_MP,2020.1.3,Win32,60,m,1,,,,,,,,0.70281,1,,,,,,86,WORD,"ID",50,rodent,RODENT,m,0.70281,,,,,,,-0.022556391,-0.387218045,0,0,0,,0,252,252,85,1,
,,,,,,,,,,,,,,,,,,5ee33ce832efb54e45adc345,2020-08-10_09h23.09.641,lexical_decision_task_MP,2020.1.3,Win32,60,z,1,,,,,,,,0.569265,1,,,,,,244,NW,"ID",33,eatric,EATRIC,z,0.569265,,,,,,,-0.022556391,-0.387218045,0,0,0,,0,253,253,243,1,
,,,,,,,,,,,,,,,,,,5ee33ce832efb54e45adc345,2020-08-10_09h23.09.641,lexical_decision_task_MP,2020.1.3,Win32,60,z,1,,,,,,,,0.566225,1,,,,,,451,NW,UN,50,surden,CAINKY,z,0.566225,,,,,,,-0.022556391,-0.387218045,0,0,0,,0,254,254,450,1,
,,,,,,,,,,,,,,,,,,5ee33ce832efb54e45adc345,2020-08-10_09h23.09.641,lexical_decision_task_MP,2020.1.3,Win32,60,m,1,,,,,,,,0.602465,1,,,,,,79,WORD,"ID",50,theory,THEORY,m,0.602465,,,,,,,-0.022556391,-0.387218045,0,0,0,,0,255,255,78,1,
,,,,,,,,,,,,,,,,,,5ee33ce832efb54e45adc345,2020-08-10_09h23.09.641,lexical_decision_task_MP,2020.1.3,Win32,60,z,1,,,,,,,,0.66565,1,,,,,,459,NW,UN,50,mingar,BAFENT,z,0.66565,,,,,,,-0.022556391,-0.387218045,0,0,0,,0,256,256,458,1,
,,,,,,,,,,,,,,,,,,5ee33ce832efb54e45adc345,2020-08-10_09h23.09.641,lexical_decision_task_MP,2020.1.3,Win32,60,m,1,,,,,,,,0.61856,1,,,,,,1,WORD,"ID",33,fright,FRIGHT,m,0.61856,,,,,,,-0.022556391,-0.387218045,0,0,0,,0,257,257,0,1,
,,,,,,,,,,,,,,,,,,5ee33ce832efb54e45adc345,2020-08-10_09h23.09.641,lexical_decision_task_MP,2020.1.3,Win32,60,m,1,,,,,,,,0.534565,1,,,,,,57,WORD,"ID",33,change,CHANGE,m,0.534565,,,,,,,-0.022556391,-0.387218045,0,0,0,,0,258,258,56,1,
,,,,,,,,,,,,,,,,,,5ee33ce832efb54e45adc345,2020-08-10_09h23.09.641,lexical_decision_task_MP,2020.1.3,Win32,60,z,1,,,,,,,,0.540825,1,,,,,,421,NW,UN,50,alcoud,KNISMA,z,0.540825,,,,,,,-0.022556391,-0.387218045,0,0,0,,0,259,259,420,1,
,,,,,,,,,,,,,,,,,,5ee33ce832efb54e45adc345,2020-08-10_09h23.09.641,lexical_decision_task_MP,2020.1.3,Win32,60,z,1,,,,,,,,0.63262,1,,,,,,390,NW,UN,33,theldy,HATRUS,z,0.63262,,,,,,,-0.022556391,-0.387218045,0,0,0,,0,260,260,389,1,
,,,,,,,,,,,,,,,,,,5ee33ce832efb54e45adc345,2020-08-10_09h23.09.641,lexical_decision_task_MP,2020.1.3,Win32,60,m,1,,,,,,,,0.583025,1,,,,,,182,WORD,UN,50,basket,WINTER,m,0.583025,,,,,,,-0.022556391,-0.387218045,0,0,0,,0,261,261,181,1,
,,,,,,,,,,,,,,,,,,5ee33ce832efb54e45adc345,2020-08-10_09h23.09.641,lexical_decision_task_MP,2020.1.3,Win32,60,z,1,,,,,,,,0.634845,1,,,,,,447,NW,UN,50,sadent,GIRCUE,z,0.634845,,,,,,,-0.022556391,-0.387218045,0,0,0,,0,262,262,446,1,
,,,,,,,,,,,,,,,,,,5ee33ce832efb54e45adc345,2020-08-10_09h23.09.641,lexical_decision_task_MP,2020.1.3,Win32,60,z,1,,,,,,,,1.133915,1,,,,,,456,NW,UN,50,wanigh,BROGET,z,1.133915,,,,,,,-0.022556391,-0.387218045,0,0,0,,0,263,263,455,1,
,,,,,,,,,,,,,,,,,,5ee33ce832efb54e45adc345,2020-08-10_09h23.09.641,lexical_decision_task_MP,2020.1.3,Win32,60,z,1,,,,,,,,0.589675,1,,,,,,416,NW,UN,33,earoud,PATHEL,z,0.589675,,,,,,,-0.022556391,-0.387218045,0,0,0,,0,264,264,415,1,
,,,,,,,,,,,,,,,,,,5ee33ce832efb54e45adc345,2020-08-10_09h23.09.641,lexical_decision_task_MP,2020.1.3,Win32,60,m,1,,,,,,,,0.48452,1,,,,,,29,WORD,"ID",33,sketch,SKETCH,m,0.48452,,,,,,,-0.022556391,-0.387218045,0,0,0,,0,265,265,28,1,
,,,,,,,,,,,,,,,,,,5ee33ce832efb54e45adc345,2020-08-10_09h23.09.641,lexical_decision_task_MP,2020.1.3,Win32,60,m,1,,,,,,,,0.47136,1,,,,,,51,WORD,"ID",33,hungry,HUNGRY,m,0.47136,,,,,,,-0.022556391,-0.387218045,0,0,0,,0,266,266,50,1,
,,,,,,,,,,,,,,,,,,5ee33ce832efb54e45adc345,2020-08-10_09h23.09.641,lexical_decision_task_MP,2020.1.3,Win32,60,z,1,,,,,,,,0.484505,1,,,,,,354,NW,"ID",50,virlex,VIRLEX,z,0.484505,,,,,,,-0.022556391,-0.387218045,0,0,0,,0,267,267,353,1,
,,,,,,,,,,,,,,,,,,5ee33ce832efb54e45adc345,2020-08-10_09h23.09.641,lexical_decision_task_MP,2020.1.3,Win32,60,m,0,,,,,,,,0.733575,0,,,,,,295,NW,"ID",33,gleath,GLEATH,z,0.733575,,,,,,,-0.022556391,-0.387218045,0,0,0,,0,268,268,294,1,
,,,,,,,,,,,,,,,,,,5ee33ce832efb54e45adc345,2020-08-10_09h23.09.641,lexical_decision_task_MP,2020.1.3,Win32,60,m,0,,,,,,,,1.001655,0,,,,,,247,NW,"ID",33,blarge,BLARGE,z,1.001655,,,,,,,-0.022556391,-0.387218045,0,0,0,,0,269,269,246,1,
,,,,,,,,,,,,,,,,,,5ee33ce832efb54e45adc345,2020-08-10_09h23.09.641,lexical_decision_task_MP,2020.1.3,Win32,60,z,1,,,,,,,,0.76647,1,,,,,,249,NW,"ID",33,batrol,BATROL,z,0.76647,,,,,,,-0.022556391,-0.387218045,0,0,0,,0,270,270,248,1,
,,,,,,,,,,,,,,,,,,5ee33ce832efb54e45adc345,2020-08-10_09h23.09.641,lexical_decision_task_MP,2020.1.3,Win32,60,m,1,,,,,,,,0.5322,1,,,,,,30,WORD,"ID",33,orient,ORIENT,m,0.5322,,,,,,,-0.022556391,-0.387218045,0,0,0,,0,271,271,29,1,
,,,,,,,,,,,,,,,,,,5ee33ce832efb54e45adc345,2020-08-10_09h23.09.641,lexical_decision_task_MP,2020.1.3,Win32,60,z,1,,,,,,,,0.57586,1,,,,,,280,NW,"ID",33,curbol,CURBOL,z,0.57586,,,,,,,-0.022556391,-0.387218045,0,0,0,,0,272,272,279,1,
,,,,,,,,,,,,,,,,,,5ee33ce832efb54e45adc345,2020-08-10_09h23.09.641,lexical_decision_task_MP,2020.1.3,Win32,60,m,0,,,,,,,,0.620385,0,,,,,,452,NW,UN,50,bolvis,SURDEN,z,0.620385,,,,,,,-0.022556391,-0.387218045,0,0,0,,0,273,273,451,1,
,,,,,,,,,,,,,,,,,,5ee33ce832efb54e45adc345,2020-08-10_09h23.09.641,lexical_decision_task_MP,2020.1.3,Win32,60,z,0,,,,,,,,0.43599,0,,,,,,198,WORD,UN,50,invoke,WICKED,m,0.43599,,,,,,,-0.022556391,-0.387218045,0,0,0,,0,274,274,197,1,
,,,,,,,,,,,,,,,,,,5ee33ce832efb54e45adc345,2020-08-10_09h23.09.641,lexical_decision_task_MP,2020.1.3,Win32,60,z,1,,,,,,,,0.673905,1,,,,,,250,NW,"ID",33,milted,MILTED,z,0.673905,,,,,,,-0.022556391,-0.387218045,0,0,0,,0,275,275,249,1,
,,,,,,,,,,,,,,,,,,5ee33ce832efb54e45adc345,2020-08-10_09h23.09.641,lexical_decision_task_MP,2020.1.3,Win32,60,m,0,,,,,,,,0.854215,0,,,,,,314,NW,"ID",50,sprine,SPRINE,z,0.854215,,,,,,,-0.022556391,-0.387218045,0,0,0,,0,276,276,313,1,
,,,,,,,,,,,,,,,,,,5ee33ce832efb54e45adc345,2020-08-10_09h23.09.641,lexical_decision_task_MP,2020.1.3,Win32,60,z,1,,,,,,,,0.732095,1,,,,,,392,NW,UN,33,ganous,ROUNCY,z,0.732095,,,,,,,-0.022556391,-0.387218045,0,0,0,,0,277,277,391,1,
,,,,,,,,,,,,,,,,,,5ee33ce832efb54e45adc345,2020-08-10_09h23.09.641,lexical_decision_task_MP,2020.1.3,Win32,60,z,1,,,,,,,,0.651415,1,,,,,,373,NW,UN,33,injore,BIGENT,z,0.651415,,,,,,,-0.022556391,-0.387218045,0,0,0,,0,278,278,372,1,
,,,,,,,,,,,,,,,,,,5ee33ce832efb54e45adc345,2020-08-10_09h23.09.641,lexical_decision_task_MP,2020.1.3,Win32,60,m,1,,,,,,,,0.84751,1,,,,,,16,WORD,"ID",33,faucet,FAUCET,m,0.84751,,,,,,,-0.022556391,-0.387218045,0,0,0,,0,279,279,15,1,
,,,,,,,,,,,,,,,,,,5ee33ce832efb54e45adc345,2020-08-10_09h23.09.641,lexical_decision_task_MP,2020.1.3,Win32,60,z,1,,,,,,,,0.72216,1,,,,,,457,NW,UN,50,barcet,WANIGH,z,0.72216,,,,,,,-0.022556391,-0.387218045,0,0,0,,0,280,280,456,1,
,,,,,,,,,,,,,,,,,,5ee33ce832efb54e45adc345,2020-08-10_09h23.09.641,lexical_decision_task_MP,2020.1.3,Win32,60,m,1,,,,,,,,0.52155,1,,,,,,41,WORD,"ID",33,spring,SPRING,m,0.52155,,,,,,,-0.022556391,-0.387218045,0,0,0,,0,281,281,40,1,
,,,,,,,,,,,,,,,,,,5ee33ce832efb54e45adc345,2020-08-10_09h23.09.641,lexical_decision_task_MP,2020.1.3,Win32,60,z,1,,,,,,,,0.705265,1,,,,,,315,NW,"ID",50,laston,LASTON,z,0.705265,,,,,,,-0.022556391,-0.387218045,0,0,0,,0,282,282,314,1,
,,,,,,,,,,,,,,,,,,5ee33ce832efb54e45adc345,2020-08-10_09h23.09.641,lexical_decision_task_MP,2020.1.3,Win32,60,z,1,,,,,,,,0.71846,1,,,,,,432,NW,UN,50,drance,LUNKER,z,0.71846,,,,,,,-0.022556391,-0.387218045,0,0,0,,0,283,283,431,1,
,,,,,,,,,,,,,,,,,,5ee33ce832efb54e45adc345,2020-08-10_09h23.09.641,lexical_decision_task_MP,2020.1.3,Win32,60,m,1,,,,,,,,0.5798,1,,,,,,64,WORD,"ID",50,throne,THRONE,m,0.5798,,,,,,,-0.022556391,-0.387218045,0,0,0,,0,284,284,63,1,
,,,,,,,,,,,,,,,,,,5ee33ce832efb54e45adc345,2020-08-10_09h23.09.641,lexical_decision_task_MP,2020.1.3,Win32,60,m,1,,,,,,,,0.53666,1,,,,,,205,WORD,UN,50,tailor,LOUNGE,m,0.53666,,,,,,,-0.022556391,-0.387218045,0,0,0,,0,285,285,204,1,
,,,,,,,,,,,,,,,,,,5ee33ce832efb54e45adc345,2020-08-10_09h23.09.641,lexical_decision_task_MP,2020.1.3,Win32,60,m,0,,,,,,,,0.490155,0,,,,,,332,NW,"ID",50,vangue,VANGUE,z,0.490155,,,,,,,-0.022556391,-0.387218045,0,0,0,,0,286,286,331,1,
,,,,,,,,,,,,,,,,,,5ee33ce832efb54e45adc345,2020-08-10_09h23.09.641,lexical_decision_task_MP,2020.1.3,Win32,60,m,0,,,,,,,,0.536355,0,,,,,,317,NW,"ID",50,worbal,WORBAL,z,0.536355,,,,,,,-0.022556391,-0.387218045,0,0,0,,0,287,287,316,1,
,,,,,,,,,,,,,,,,,,5ee33ce832efb54e45adc345,2020-08-10_09h23.09.641,lexical_decision_task_MP,2020.1.3,Win32,60,z,1,,,,,,,,0.645845,1,,,,,,453,NW,UN,50,scouge,BOLVIS,z,0.645845,,,,,,,-0.022556391,-0.387218045,0,0,0,,0,288,288,452,1,
,,,,,,,,,,,,,,,,,,5ee33ce832efb54e45adc345,2020-08-10_09h23.09.641,lexical_decision_task_MP,2020.1.3,Win32,60,m,1,,,,,,,,0.5323,1,,,,,,19,WORD,"ID",33,patron,PATRON,m,0.5323,,,,,,,-0.022556391,-0.387218045,0,0,0,,0,289,289,18,1,
,,,,,,,,,,,,,,,,,,5ee33ce832efb54e45adc345,2020-08-10_09h23.09.641,lexical_decision_task_MP,2020.1.3,Win32,60,z,1,,,,,,,,0.56064,1,,,,,,252,NW,"ID",33,stapod,STAPOD,z,0.56064,,,,,,,-0.022556391,-0.387218045,0,0,0,,0,290,290,251,1,
,,,,,,,,,,,,,,,,,,5ee33ce832efb54e45adc345,2020-08-10_09h23.09.641,lexical_decision_task_MP,2020.1.3,Win32,60,m,1,,,,,,,,1.4926,1,,,,,,220,WORD,UN,50,mascot,VOYAGE,m,1.4926,,,,,,,-0.022556391,-0.387218045,0,0,0,,0,291,291,219,1,
,,,,,,,,,,,,,,,,,,5ee33ce832efb54e45adc345,2020-08-10_09h23.09.641,lexical_decision_task_MP,2020.1.3,Win32,60,m,1,,,,,,,,0.59959,1,,,,,,2,WORD,"ID",33,bridge,BRIDGE,m,0.59959,,,,,,,-0.022556391,-0.387218045,0,0,0,,0,292,292,1,1,
,,,,,,,,,,,,,,,,,,5ee33ce832efb54e45adc345,2020-08-10_09h23.09.641,lexical_decision_task_MP,2020.1.3,Win32,60,z,1,,,,,,,,0.5204,1,,,,,,425,NW,UN,50,schind,FRUDGE,z,0.5204,,,,,,,-0.022556391,-0.387218045,0,0,0,,0,293,293,424,1,
,,,,,,,,,,,,,,,,,,5ee33ce832efb54e45adc345,2020-08-10_09h23.09.641,lexical_decision_task_MP,2020.1.3,Win32,60,z,1,,,,,,,,0.76691,1,,,,,,435,NW,UN,50,frutan,IMPURB,z,0.76691,,,,,,,-0.022556391,-0.387218045,0,0,0,,0,294,294,434,1,
,,,,,,,,,,,,,,,,,,5ee33ce832efb54e45adc345,2020-08-10_09h23.09.641,lexical_decision_task_MP,2020.1.3,Win32,60,m,1,,,,,,,,0.488055,1,,,,,,20,WORD,"ID",33,breast,BREAST,m,0.488055,,,,,,,-0.022556391,-0.387218045,0,0,0,,0,295,295,19,1,
,,,,,,,,,,,,,,,,,,5ee33ce832efb54e45adc345,2020-08-10_09h23.09.641,lexical_decision_task_MP,2020.1.3,Win32,60,m,1,,,,,,,,0.684715,1,,,,,,6,WORD,"ID",33,bundle,BUNDLE,m,0.684715,,,,,,,-0.022556391,-0.387218045,0,0,0,,0,296,296,5,1,
,,,,,,,,,,,,,,,,,,5ee33ce832efb54e45adc345,2020-08-10_09h23.09.641,lexical_decision_task_MP,2020.1.3,Win32,60,z,1,,,,,,,,0.52502,1,,,,,,350,NW,"ID",50,nagurs,NAGURS,z,0.52502,,,,,,,-0.022556391,-0.387218045,0,0,0,,0,297,297,349,1,
,,,,,,,,,,,,,,,,,,5ee33ce832efb54e45adc345,2020-08-10_09h23.09.641,lexical_decision_task_MP,2020.1.3,Win32,60,z,1,,,,,,,,0.572475,1,,,,,,251,NW,"ID",33,lupict,LUPICT,z,0.572475,,,,,,,-0.022556391,-0.387218045,0,0,0,,0,298,298,250,1,
,,,,,,,,,,,,,,,,,,5ee33ce832efb54e45adc345,2020-08-10_09h23.09.641,lexical_decision_task_MP,2020.1.3,Win32,60,z,1,,,,,,,,0.551455,1,,,,,,465,NW,UN,50,hocite,WHIVEX,z,0.551455,,,,,,,-0.022556391,-0.387218045,0,0,0,,0,299,299,464,1,
,,,,,,,,,,,,,,,,,,5ee33ce832efb54e45adc345,2020-08-10_09h23.09.641,lexical_decision_task_MP,2020.1.3,Win32,60,m,1,,,,,,,,0.7705,1,,,,,,70,WORD,"ID",50,square,SQUARE,m,0.7705,,,,,,,-0.022556391,-0.387218045,0,0,0,,0,300,300,69,1,
,,,,,,,,,,,,,,,,,,5ee33ce832efb54e45adc345,2020-08-10_09h23.09.641,lexical_decision_task_MP,2020.1.3,Win32,60,z,1,,,,,,,,0.633115,1,,,,,,377,NW,UN,33,shrile,INJORE,z,0.633115,,,,,,,-0.022556391,-0.387218045,0,0,0,,0,301,301,376,1,
,,,,,,,,,,,,,,,,,,5ee33ce832efb54e45adc345,2020-08-10_09h23.09.641,lexical_decision_task_MP,2020.1.3,Win32,60,z,1,,,,,,,,0.704655,1,,,,,,417,NW,UN,33,suidle,EAROUD,z,0.704655,,,,,,,-0.022556391,-0.387218045,0,0,0,,0,302,302,416,1,
,,,,,,,,,,,,,,,,,,5ee33ce832efb54e45adc345,2020-08-10_09h23.09.641,lexical_decision_task_MP,2020.1.3,Win32,60,z,1,,,,,,,,0.92247,1,,,,,,370,NW,UN,33,geiloy,SLEACT,z,0.92247,,,,,,,-0.022556391,-0.387218045,0,0,0,,0,303,303,369,1,
,,,,,,,,,,,,,,,,,,5ee33ce832efb54e45adc345,2020-08-10_09h23.09.641,lexical_decision_task_MP,2020.1.3,Win32,60,z,0,,,,,,,,0.911185,0,,,,,,184,WORD,UN,50,bother,SLEAZY,m,0.911185,,,,,,,-0.022556391,-0.387218045,0,0,0,,0,304,304,183,1,
,,,,,,,,,,,,,,,,,,5ee33ce832efb54e45adc345,2020-08-10_09h23.09.641,lexical_decision_task_MP,2020.1.3,Win32,60,m,1,,,,,,,,0.568615,1,,,,,,171,WORD,UN,33,patrol,DEPART,m,0.568615,,,,,,,-0.022556391,-0.387218045,0,0,0,,0,305,305,170,1,
,,,,,,,,,,,,,,,,,,5ee33ce832efb54e45adc345,2020-08-10_09h23.09.641,lexical_decision_task_MP,2020.1.3,Win32,60,m,1,,,,,,,,0.667105,1,,,,,,149,WORD,UN,33,random,INVADE,m,0.667105,,,,,,,-0.022556391,-0.387218045,0,0,0,,0,306,306,148,1,
,,,,,,,,,,,,,,,,,,5ee33ce832efb54e45adc345,2020-08-10_09h23.09.641,lexical_decision_task_MP,2020.1.3,Win32,60,z,0,,,,,,,,0.49704,0,,,,,,139,WORD,UN,33,prince,DEBRIS,m,0.49704,,,,,,,-0.022556391,-0.387218045,0,0,0,,0,307,307,138,1,
,,,,,,,,,,,,,,,,,,5ee33ce832efb54e45adc345,2020-08-10_09h23.09.641,lexical_decision_task_MP,2020.1.3,Win32,60,z,1,,,,,,,,0.665845,1,,,,,,282,NW,"ID",33,porlex,PORLEX,z,0.665845,,,,,,,-0.022556391,-0.387218045,0,0,0,,0,308,308,281,1,
,,,,,,,,,,,,,,,,,,5ee33ce832efb54e45adc345,2020-08-10_09h23.09.641,lexical_decision_task_MP,2020.1.3,Win32,60,m,1,,,,,,,,0.45822,1,,,,,,199,WORD,UN,50,beacon,INVOKE,m,0.45822,,,,,,,-0.022556391,-0.387218045,0,0,0,,0,309,309,198,1,
,,,,,,,,,,,,,,,,,,5ee33ce832efb54e45adc345,2020-08-10_09h23.09.641,lexical_decision_task_MP,2020.1.3,Win32,60,m,1,,,,,,,,0.772775,1,,,,,,201,WORD,UN,50,factor,ADMIRE,m,0.772775,,,,,,,-0.022556391,-0.387218045,0,0,0,,0,310,310,200,1,
,,,,,,,,,,,,,,,,,,5ee33ce832efb54e45adc345,2020-08-10_09h23.09.641,lexical_decision_task_MP,2020.1.3,Win32,60,m,1,,,,,,,,0.485605,1,,,,,,94,WORD,"ID",50,travel,TRAVEL,m,0.485605,,,,,,,-0.022556391,-0.387218045,0,0,0,,0,311,311,93,1,
,,,,,,,,,,,,,,,,,,5ee33ce832efb54e45adc345,2020-08-10_09h23.09.641,lexical_decision_task_MP,2020.1.3,Win32,60,m,1,,,,,,,,0.633115,1,,,,,,128,WORD,UN,33,marvel,SENIOR,m,0.633115,,,,,,,-0.022556391,-0.387218045,0,0,0,,0,312,312,127,1,
,,,,,,,,,,,,,,,,,,5ee33ce832efb54e45adc345,2020-08-10_09h23.09.641,lexical_decision_task_MP,2020.1.3,Win32,60,m,1,,,,,,,,1.54992,1,,,,,,216,WORD,UN,50,liquor,BEHALF,m,1.54992,,,,,,,-0.022556391,-0.387218045,0,0,0,,0,313,313,215,1,
,,,,,,,,,,,,,,,,,,5ee33ce832efb54e45adc345,2020-08-10_09h23.09.641,lexical_decision_task_MP,2020.1.3,Win32,60,m,1,,,,,,,,0.891945,1,,,,,,8,WORD,"ID",33,abrupt,ABRUPT,m,0.891945,,,,,,,-0.022556391,-0.387218045,0,0,0,,0,314,314,7,1,
,,,,,,,,,,,,,,,,,,5ee33ce832efb54e45adc345,2020-08-10_09h23.09.641,lexical_decision_task_MP,2020.1.3,Win32,60,m,1,,,,,,,,0.65264,1,,,,,,240,WORD,UN,50,glance,FOREST,m,0.65264,,,,,,,-0.022556391,-0.387218045,0,0,0,,0,315,315,239,1,
,,,,,,,,,,,,,,,,,,5ee33ce832efb54e45adc345,2020-08-10_09h23.09.641,lexical_decision_task_MP,2020.1.3,Win32,60,m,1,,,,,,,,0.75698,1,,,,,,14,WORD,"ID",33,almost,ALMOST,m,0.75698,,,,,,,-0.022556391,-0.387218045,0,0,0,,0,316,316,13,1,
,,,,,,,,,,,,,,,,,,5ee33ce832efb54e45adc345,2020-08-10_09h23.09.641,lexical_decision_task_MP,2020.1.3,Win32,60,z,1,,,,,,,,0.63173,1,,,,,,344,NW,"ID",50,scrily,SCRILY,z,0.63173,,,,,,,-0.022556391,-0.387218045,0,0,0,,0,317,317,343,1,
,,,,,,,,,,,,,,,,,,5ee33ce832efb54e45adc345,2020-08-10_09h23.09.641,lexical_decision_task_MP,2020.1.3,Win32,60,m,1,,,,,,,,0.81749,1,,,,,,127,WORD,UN,33,senior,CASTLE,m,0.81749,,,,,,,-0.022556391,-0.387218045,0,0,0,,0,318,318,126,1,
,,,,,,,,,,,,,,,,,,5ee33ce832efb54e45adc345,2020-08-10_09h23.09.641,lexical_decision_task_MP,2020.1.3,Win32,60,z,1,,,,,,,,0.741305,1,,,,,,288,NW,"ID",33,yaceup,YACEUP,z,0.741305,,,,,,,-0.022556391,-0.387218045,0,0,0,,0,319,319,287,1,
,,,,,,,,,,,,,,,,,,5ee33ce832efb54e45adc345,2020-08-10_09h23.09.641,lexical_decision_task_MP,2020.1.3,Win32,60,z,1,,,,,,,,1.03605,1,,,,,,429,NW,UN,50,caroey,FUNTLE,z,1.03605,,,,,,,-0.022556391,-0.387218045,0,0,0,,0,320,320,428,1,
,,,,,,,,,,,,,,,,,,5ee33ce832efb54e45adc345,2020-08-10_09h23.09.641,lexical_decision_task_MP,2020.1.3,Win32,60,m,1,,,,,,,,1.638195,1,,,,,,116,WORD,"ID",50,tumble,TUMBLE,m,1.638195,,,,,,,-0.022556391,-0.387218045,0,0,0,,0,321,321,115,1,
,,,,,,,,,,,,,,,,,,5ee33ce832efb54e45adc345,2020-08-10_09h23.09.641,lexical_decision_task_MP,2020.1.3,Win32,60,m,0,,,,,,,,0.74779,0,,,,,,411,NW,UN,33,jiluer,ORCHIN,z,0.74779,,,,,,,-0.022556391,-0.387218045,0,0,0,,0,322,322,410,1,
,,,,,,,,,,,,,,,,,,5ee33ce832efb54e45adc345,2020-08-10_09h23.09.641,lexical_decision_task_MP,2020.1.3,Win32,60,m,1,,,,,,,,0.64997,1,,,,,,88,WORD,"ID",50,hunger,HUNGER,m,0.64997,,,,,,,-0.022556391,-0.387218045,0,0,0,,0,323,323,87,1,
,,,,,,,,,,,,,,,,,,5ee33ce832efb54e45adc345,2020-08-10_09h23.09.641,lexical_decision_task_MP,2020.1.3,Win32,60,m,1,,,,,,,,1.23998,1,,,,,,169,WORD,UN,33,pounce,GENIUS,m,1.23998,,,,,,,-0.022556391,-0.387218045,0,0,0,,0,324,324,168,1,
,,,,,,,,,,,,,,,,,,5ee33ce832efb54e45adc345,2020-08-10_09h23.09.641,lexical_decision_task_MP,2020.1.3,Win32,60,z,1,,,,,,,,0.71286,1,,,,,,478,NW,UN,50,lobush,ACRISE,z,0.71286,,,,,,,-0.022556391,-0.387218045,0,0,0,,0,325,325,477,1,
,,,,,,,,,,,,,,,,,,5ee33ce832efb54e45adc345,2020-08-10_09h23.09.641,lexical_decision_task_MP,2020.1.3,Win32,60,m,1,,,,,,,,0.47097,1,,,,,,15,WORD,"ID",33,amount,AMOUNT,m,0.47097,,,,,,,-0.022556391,-0.387218045,0,0,0,,0,326,326,14,1,
,,,,,,,,,,,,,,,,,,5ee33ce832efb54e45adc345,2020-08-10_09h23.09.641,lexical_decision_task_MP,2020.1.3,Win32,60,z,1,,,,,,,,0.646365,1,,,,,,385,NW,UN,33,ancust,VEIGMA,z,0.646365,,,,,,,-0.022556391,-0.387218045,0,0,0,,0,327,327,384,1,
,,,,,,,,,,,,,,,,,,5ee33ce832efb54e45adc345,2020-08-10_09h23.09.641,lexical_decision_task_MP,2020.1.3,Win32,60,m,1,,,,,,,,0.605235,1,,,,,,108,WORD,"ID",50,reckon,RECKON,m,0.605235,,,,,,,-0.022556391,-0.387218045,0,0,0,,0,328,328,107,1,
,,,,,,,,,,,,,,,,,,5ee33ce832efb54e45adc345,2020-08-10_09h23.09.641,lexical_decision_task_MP,2020.1.3,Win32,60,z,1,,,,,,,,0.58464,1,,,,,,296,NW,"ID",33,beinch,BEINCH,z,0.58464,,,,,,,-0.022556391,-0.387218045,0,0,0,,0,329,329,295,1,
,,,,,,,,,,,,,,,,,,5ee33ce832efb54e45adc345,2020-08-10_09h23.09.641,lexical_decision_task_MP,2020.1.3,Win32,60,m,1,,,,,,,,0.52074,1,,,,,,132,WORD,UN,33,bleach,STRONG,m,0.52074,,,,,,,-0.022556391,-0.387218045,0,0,0,,0,330,330,131,1,
,,,,,,,,,,,,,,,,,,5ee33ce832efb54e45adc345,2020-08-10_09h23.09.641,lexical_decision_task_MP,2020.1.3,Win32,60,z,1,,,,,,,,0.58241,1,,,,,,471,NW,UN,50,cigney,NOBEST,z,0.58241,,,,,,,-0.022556391,-0.387218045,0,0,0,,0,331,331,470,1,
,,,,,,,,,,,,,,,,,,5ee33ce832efb54e45adc345,2020-08-10_09h23.09.641,lexical_decision_task_MP,2020.1.3,Win32,60,z,1,,,,,,,,0.587155,1,,,,,,412,NW,UN,33,equats,JILUER,z,0.587155,,,,,,,-0.022556391,-0.387218045,0,0,0,,0,332,332,411,1,
,,,,,,,,,,,,,,,,,,5ee33ce832efb54e45adc345,2020-08-10_09h23.09.641,lexical_decision_task_MP,2020.1.3,Win32,60,z,1,,,,,,,,0.599975,1,,,,,,305,NW,"ID",50,forgle,FORGLE,z,0.599975,,,,,,,-0.022556391,-0.387218045,0,0,0,,0,333,333,304,1,
,,,,,,,,,,,,,,,,,,5ee33ce832efb54e45adc345,2020-08-10_09h23.09.641,lexical_decision_task_MP,2020.1.3,Win32,60,m,1,,,,,,,,0.53268,1,,,,,,44,WORD,"ID",33,danger,DANGER,m,0.53268,,,,,,,-0.022556391,-0.387218045,0,0,0,,0,334,334,43,1,
,,,,,,,,,,,,,,,,,,5ee33ce832efb54e45adc345,2020-08-10_09h23.09.641,lexical_decision_task_MP,2020.1.3,Win32,60,m,1,,,,,,,,0.592495,1,,,,,,65,WORD,"ID",50,symbol,SYMBOL,m,0.592495,,,,,,,-0.022556391,-0.387218045,0,0,0,,0,335,335,64,1,
,,,,,,,,,,,,,,,,,,5ee33ce832efb54e45adc345,2020-08-10_09h23.09.641,lexical_decision_task_MP,2020.1.3,Win32,60,m,1,,,,,,,,0.590405,1,,,,,,212,WORD,UN,50,squeal,VERIFY,m,0.590405,,,,,,,-0.022556391,-0.387218045,0,0,0,,0,336,336,211,1,
,,,,,,,,,,,,,,,,,,5ee33ce832efb54e45adc345,2020-08-10_09h23.09.641,lexical_decision_task_MP,2020.1.3,Win32,60,m,1,,,,,,,,0.49854,1,,,,,,22,WORD,"ID",33,jockey,JOCKEY,m,0.49854,,,,,,,-0.022556391,-0.387218045,0,0,0,,0,337,337,21,1,
,,,,,,,,,,,,,,,,,,5ee33ce832efb54e45adc345,2020-08-10_09h23.09.641,lexical_decision_task_MP,2020.1.3,Win32,60,z,1,,,,,,,,0.521775,1,,,,,,363,NW,UN,33,impote,BREALI,z,0.521775,,,,,,,-0.022556391,-0.387218045,0,0,0,,0,338,338,362,1,
,,,,,,,,,,,,,,,,,,5ee33ce832efb54e45adc345,2020-08-10_09h23.09.641,lexical_decision_task_MP,2020.1.3,Win32,60,m,1,,,,,,,,0.73817,1,,,,,,126,WORD,UN,33,castle,ENOUGH,m,0.73817,,,,,,,-0.022556391,-0.387218045,0,0,0,,0,339,339,125,1,
,,,,,,,,,,,,,,,,,,5ee33ce832efb54e45adc345,2020-08-10_09h23.09.641,lexical_decision_task_MP,2020.1.3,Win32,60,z,1,,,,,,,,0.5433,1,,,,,,384,NW,UN,33,veigma,GUESCO,z,0.5433,,,,,,,-0.022556391,-0.387218045,0,0,0,,0,340,340,383,1,
,,,,,,,,,,,,,,,,,,5ee33ce832efb54e45adc345,2020-08-10_09h23.09.641,lexical_decision_task_MP,2020.1.3,Win32,60,m,0,,,,,,,,1.54486,0,,,,,,473,NW,UN,50,hablin,CRIBLE,z,1.54486,,,,,,,-0.022556391,-0.387218045,0,0,0,,0,341,341,472,1,
,,,,,,,,,,,,,,,,,,5ee33ce832efb54e45adc345,2020-08-10_09h23.09.641,lexical_decision_task_MP,2020.1.3,Win32,60,z,0,,,,,,,,0.60181,0,,,,,,101,WORD,"ID",50,wrench,WRENCH,m,0.60181,,,,,,,-0.022556391,-0.387218045,0,0,0,,0,342,342,100,1,
,,,,,,,,,,,,,,,,,,5ee33ce832efb54e45adc345,2020-08-10_09h23.09.641,lexical_decision_task_MP,2020.1.3,Win32,60,m,1,,,,,,,,0.44503,1,,,,,,47,WORD,"ID",33,income,INCOME,m,0.44503,,,,,,,-0.022556391,-0.387218045,0,0,0,,0,343,343,46,1,
,,,,,,,,,,,,,,,,,,5ee33ce832efb54e45adc345,2020-08-10_09h23.09.641,lexical_decision_task_MP,2020.1.3,Win32,60,z,1,,,,,,,,0.619855,1,,,,,,258,NW,"ID",33,poluth,POLUTH,z,0.619855,,,,,,,-0.022556391,-0.387218045,0,0,0,,0,344,344,257,1,
,,,,,,,,,,,,,,,,,,5ee33ce832efb54e45adc345,2020-08-10_09h23.09.641,lexical_decision_task_MP,2020.1.3,Win32,60,m,1,,,,,,,,0.67486,1,,,,,,121,WORD,UN,33,linger,THRIVE,m,0.67486,,,,,,,-0.022556391,-0.387218045,0,0,0,,0,345,345,120,1,
,,,,,,,,,,,,,,,,,,5ee33ce832efb54e45adc345,2020-08-10_09h23.09.641,lexical_decision_task_MP,2020.1.3,Win32,60,z,1,,,,,,,,1.01912,1,,,,,,292,NW,"ID",33,ablint,ABLINT,z,1.01912,,,,,,,-0.022556391,-0.387218045,0,0,0,,0,346,346,291,1,
,,,,,,,,,,,,,,,,,,5ee33ce832efb54e45adc345,2020-08-10_09h23.09.641,lexical_decision_task_MP,2020.1.3,Win32,60,m,1,,,,,,,,0.99896,1,,,,,,33,WORD,"ID",33,butler,BUTLER,m,0.99896,,,,,,,-0.022556391,-0.387218045,0,0,0,,0,347,347,32,1,
,,,,,,,,,,,,,,,,,,5ee33ce832efb54e45adc345,2020-08-10_09h23.09.641,lexical_decision_task_MP,2020.1.3,Win32,60,z,1,,,,,,,,0.632835,1,,,,,,366,NW,UN,33,slique,TOSHEL,z,0.632835,,,,,,,-0.022556391,-0.387218045,0,0,0,,0,348,348,365,1,
,,,,,,,,,,,,,,,,,,5ee33ce832efb54e45adc345,2020-08-10_09h23.09.641,lexical_decision_task_MP,2020.1.3,Win32,60,z,1,,,,,,,,0.90856,1,,,,,,462,NW,UN,50,kispel,ABSULT,z,0.90856,,,,,,,-0.022556391,-0.387218045,0,0,0,,0,349,349,461,1,
,,,,,,,,,,,,,,,,,,5ee33ce832efb54e45adc345,2020-08-10_09h23.09.641,lexical_decision_task_MP,2020.1.3,Win32,60,m,1,,,,,,,,0.56736,1,,,,,,115,WORD,"ID",50,guitar,GUITAR,m,0.56736,,,,,,,-0.022556391,-0.387218045,0,0,0,,0,350,350,114,1,
,,,,,,,,,,,,,,,,,,5ee33ce832efb54e45adc345,2020-08-10_09h23.09.641,lexical_decision_task_MP,2020.1.3,Win32,60,z,1,,,,,,,,0.94013,1,,,,,,319,NW,"ID",50,zomber,ZOMBER,z,0.94013,,,,,,,-0.022556391,-0.387218045,0,0,0,,0,351,351,318,1,
,,,,,,,,,,,,,,,,,,5ee33ce832efb54e45adc345,2020-08-10_09h23.09.641,lexical_decision_task_MP,2020.1.3,Win32,60,m,1,,,,,,,,0.49807,1,,,,,,62,WORD,"ID",50,region,REGION,m,0.49807,,,,,,,-0.022556391,-0.387218045,0,0,0,,0,352,352,61,1,
,,,,,,,,,,,,,,,,,,5ee33ce832efb54e45adc345,2020-08-10_09h23.09.641,lexical_decision_task_MP,2020.1.3,Win32,60,m,1,,,,,,,,0.48756,1,,,,,,161,WORD,UN,33,candle,PASTOR,m,0.48756,,,,,,,-0.022556391,-0.387218045,0,0,0,,0,353,353,160,1,
,,,,,,,,,,,,,,,,,,5ee33ce832efb54e45adc345,2020-08-10_09h23.09.641,lexical_decision_task_MP,2020.1.3,Win32,60,m,1,,,,,,,,0.49081,1,,,,,,27,WORD,"ID",33,scream,SCREAM,m,0.49081,,,,,,,-0.022556391,-0.387218045,0,0,0,,0,354,354,26,1,
,,,,,,,,,,,,,,,,,,5ee33ce832efb54e45adc345,2020-08-10_09h23.09.641,lexical_decision_task_MP,2020.1.3,Win32,60,m,1,,,,,,,,0.545145,1,,,,,,193,WORD,UN,50,plague,OBJECT,m,0.545145,,,,,,,-0.022556391,-0.387218045,0,0,0,,0,355,355,192,1,
,,,,,,,,,,,,,,,,,,5ee33ce832efb54e45adc345,2020-08-10_09h23.09.641,lexical_decision_task_MP,2020.1.3,Win32,60,m,1,,,,,,,,0.482105,1,,,,,,140,WORD,UN,33,reason,PRINCE,m,0.482105,,,,,,,-0.022556391,-0.387218045,0,0,0,,0,356,356,139,1,
,,,,,,,,,,,,,,,,,,5ee33ce832efb54e45adc345,2020-08-10_09h23.09.641,lexical_decision_task_MP,2020.1.3,Win32,60,m,1,,,,,,,,0.500035,1,,,,,,165,WORD,UN,33,starch,INVEST,m,0.500035,,,,,,,-0.022556391,-0.387218045,0,0,0,,0,357,357,164,1,
,,,,,,,,,,,,,,,,,,5ee33ce832efb54e45adc345,2020-08-10_09h23.09.641,lexical_decision_task_MP,2020.1.3,Win32,60,z,1,,,,,,,,0.761355,1,,,,,,395,NW,UN,33,flengy,COLURY,z,0.761355,,,,,,,-0.022556391,-0.387218045,0,0,0,,0,358,358,394,1,
,,,,,,,,,,,,,,,,,,5ee33ce832efb54e45adc345,2020-08-10_09h23.09.641,lexical_decision_task_MP,2020.1.3,Win32,60,z,1,,,,,,,,0.55426,1,,,,,,349,NW,"ID",50,asylen,ASYLEN,z,0.55426,,,,,,,-0.022556391,-0.387218045,0,0,0,,0,359,359,348,1,
,,,,,,,,,,,,,,,,,,5ee33ce832efb54e45adc345,2020-08-10_09h23.09.641,lexical_decision_task_MP,2020.1.3,Win32,60,z,1,,,,,,,,1.297875,1,,,,,,313,NW,"ID",50,paurse,PAURSE,z,1.297875,,,,,,,-0.022556391,-0.387218045,0,0,0,,0,360,360,312,1,
,,,,,,,,,,,,,,,,,,5ee33ce832efb54e45adc345,2020-08-10_09h23.09.641,lexical_decision_task_MP,2020.1.3,Win32,60,m,1,,,,,,,,1.11026,1,,,,,,99,WORD,"ID",50,fluent,FLUENT,m,1.11026,,,,,,,-0.022556391,-0.387218045,0,0,0,,0,361,361,98,1,
,,,,,,,,,,,,,,,,,,5ee33ce832efb54e45adc345,2020-08-10_09h23.09.641,lexical_decision_task_MP,2020.1.3,Win32,60,z,1,,,,,,,,0.71044,1,,,,,,326,NW,"ID",50,iguade,IGUADE,z,0.71044,,,,,,,-0.076691729,-0.378195489,1,0,0,,0,362,362,325,1,break_done_button
,,,,,,,,,,,,,,,,,,5ee33ce832efb54e45adc345,2020-08-10_09h23.09.641,lexical_decision_task_MP,2020.1.3,Win32,60,z,1,,,,,,,,1.335565,1,,,,,,264,NW,"ID",33,vackel,VACKEL,z,1.335565,,,,,,,-0.076691729,-0.378195489,0,0,0,,0,363,363,263,1,
,,,,,,,,,,,,,,,,,,5ee33ce832efb54e45adc345,2020-08-10_09h23.09.641,lexical_decision_task_MP,2020.1.3,Win32,60,m,1,,,,,,,,0.65096,1,,,,,,200,WORD,UN,50,admire,BEACON,m,0.65096,,,,,,,-0.076691729,-0.378195489,0,0,0,,0,364,364,199,1,
,,,,,,,,,,,,,,,,,,5ee33ce832efb54e45adc345,2020-08-10_09h23.09.641,lexical_decision_task_MP,2020.1.3,Win32,60,m,1,,,,,,,,0.428615,1,,,,,,93,WORD,"ID",50,public,PUBLIC,m,0.428615,,,,,,,-0.076691729,-0.378195489,0,0,0,,0,365,365,92,1,
,,,,,,,,,,,,,,,,,,5ee33ce832efb54e45adc345,2020-08-10_09h23.09.641,lexical_decision_task_MP,2020.1.3,Win32,60,z,1,,,,,,,,0.723295,1,,,,,,470,NW,UN,50,nobest,CRUDIO,z,0.723295,,,,,,,-0.076691729,-0.378195489,0,0,0,,0,366,366,469,1,
,,,,,,,,,,,,,,,,,,5ee33ce832efb54e45adc345,2020-08-10_09h23.09.641,lexical_decision_task_MP,2020.1.3,Win32,60,m,1,,,,,,,,0.564305,1,,,,,,208,WORD,UN,50,search,HOCKEY,m,0.564305,,,,,,,-0.076691729,-0.378195489,0,0,0,,0,367,367,207,1,
,,,,,,,,,,,,,,,,,,5ee33ce832efb54e45adc345,2020-08-10_09h23.09.641,lexical_decision_task_MP,2020.1.3,Win32,60,z,1,,,,,,,,0.482455,1,,,,,,443,NW,UN,50,jaunce,DORSEX,z,0.482455,,,,,,,-0.076691729,-0.378195489,0,0,0,,0,368,368,442,1,
,,,,,,,,,,,,,,,,,,5ee33ce832efb54e45adc345,2020-08-10_09h23.09.641,lexical_decision_task_MP,2020.1.3,Win32,60,m,1,,,,,,,,0.53788,1,,,,,,188,WORD,UN,50,censor,SOCIAL,m,0.53788,,,,,,,-0.076691729,-0.378195489,0,0,0,,0,369,369,187,1,
,,,,,,,,,,,,,,,,,,5ee33ce832efb54e45adc345,2020-08-10_09h23.09.641,lexical_decision_task_MP,2020.1.3,Win32,60,m,1,,,,,,,,0.585325,1,,,,,,85,WORD,"ID",50,sprawl,SPRAWL,m,0.585325,,,,,,,-0.076691729,-0.378195489,0,0,0,,0,370,370,84,1,
,,,,,,,,,,,,,,,,,,5ee33ce832efb54e45adc345,2020-08-10_09h23.09.641,lexical_decision_task_MP,2020.1.3,Win32,60,z,1,,,,,,,,0.84562,1,,,,,,268,NW,"ID",33,packes,PACKES,z,0.84562,,,,,,,-0.076691729,-0.378195489,0,0,0,,0,371,371,267,1,
,,,,,,,,,,,,,,,,,,5ee33ce832efb54e45adc345,2020-08-10_09h23.09.641,lexical_decision_task_MP,2020.1.3,Win32,60,m,0,,,,,,,,0.58296,0,,,,,,335,NW,"ID",50,desion,DESION,z,0.58296,,,,,,,-0.076691729,-0.378195489,0,0,0,,0,372,372,334,1,
,,,,,,,,,,,,,,,,,,5ee33ce832efb54e45adc345,2020-08-10_09h23.09.641,lexical_decision_task_MP,2020.1.3,Win32,60,m,1,,,,,,,,0.50282,1,,,,,,209,WORD,UN,50,monkey,SEARCH,m,0.50282,,,,,,,-0.076691729,-0.378195489,0,0,0,,0,373,373,208,1,
,,,,,,,,,,,,,,,,,,5ee33ce832efb54e45adc345,2020-08-10_09h23.09.641,lexical_decision_task_MP,2020.1.3,Win32,60,m,1,,,,,,,,0.72065,1,,,,,,194,WORD,UN,50,resign,ABSENT,m,0.72065,,,,,,,-0.076691729,-0.378195489,0,0,0,,0,374,374,193,1,
,,,,,,,,,,,,,,,,,,5ee33ce832efb54e45adc345,2020-08-10_09h23.09.641,lexical_decision_task_MP,2020.1.3,Win32,60,m,1,,,,,,,,0.73862,1,,,,,,180,WORD,UN,33,thrive,SILENT,m,0.73862,,,,,,,-0.076691729,-0.378195489,0,0,0,,0,375,375,179,1,
,,,,,,,,,,,,,,,,,,5ee33ce832efb54e45adc345,2020-08-10_09h23.09.641,lexical_decision_task_MP,2020.1.3,Win32,60,m,1,,,,,,,,0.622205,1,,,,,,11,WORD,"ID",33,cruise,CRUISE,m,0.622205,,,,,,,-0.076691729,-0.378195489,0,0,0,,0,376,376,10,1,
,,,,,,,,,,,,,,,,,,5ee33ce832efb54e45adc345,2020-08-10_09h23.09.641,lexical_decision_task_MP,2020.1.3,Win32,60,z,1,,,,,,,,0.595205,1,,,,,,321,NW,"ID",50,miator,MIATOR,z,0.595205,,,,,,,-0.076691729,-0.378195489,0,0,0,,0,377,377,320,1,
,,,,,,,,,,,,,,,,,,5ee33ce832efb54e45adc345,2020-08-10_09h23.09.641,lexical_decision_task_MP,2020.1.3,Win32,60,m,1,,,,,,,,0.441225,1,,,,,,89,WORD,"ID",50,permit,PERMIT,m,0.441225,,,,,,,-0.076691729,-0.378195489,0,0,0,,0,378,378,88,1,
,,,,,,,,,,,,,,,,,,5ee33ce832efb54e45adc345,2020-08-10_09h23.09.641,lexical_decision_task_MP,2020.1.3,Win32,60,m,1,,,,,,,,0.45648,1,,,,,,46,WORD,"ID",33,single,SINGLE,m,0.45648,,,,,,,-0.076691729,-0.378195489,0,0,0,,0,379,379,45,1,
,,,,,,,,,,,,,,,,,,5ee33ce832efb54e45adc345,2020-08-10_09h23.09.641,lexical_decision_task_MP,2020.1.3,Win32,60,m,1,,,,,,,,0.46596,1,,,,,,45,WORD,"ID",33,clergy,CLERGY,m,0.46596,,,,,,,-0.076691729,-0.378195489,0,0,0,,0,380,380,44,1,
,,,,,,,,,,,,,,,,,,5ee33ce832efb54e45adc345,2020-08-10_09h23.09.641,lexical_decision_task_MP,2020.1.3,Win32,60,m,1,,,,,,,,0.47041,1,,,,,,153,WORD,UN,33,author,BEHOLD,m,0.47041,,,,,,,-0.076691729,-0.378195489,0,0,0,,0,381,381,152,1,
,,,,,,,,,,,,,,,,,,5ee33ce832efb54e45adc345,2020-08-10_09h23.09.641,lexical_decision_task_MP,2020.1.3,Win32,60,z,1,,,,,,,,0.5386,1,,,,,,308,NW,"ID",50,psetch,PSETCH,z,0.5386,,,,,,,-0.076691729,-0.378195489,0,0,0,,0,382,382,307,1,
,,,,,,,,,,,,,,,,,,5ee33ce832efb54e45adc345,2020-08-10_09h23.09.641,lexical_decision_task_MP,2020.1.3,Win32,60,z,1,,,,,,,,0.873155,1,,,,,,361,NW,UN,33,tireau,PAUCHE,z,0.873155,,,,,,,-0.076691729,-0.378195489,0,0,0,,0,383,383,360,1,
,,,,,,,,,,,,,,,,,,5ee33ce832efb54e45adc345,2020-08-10_09h23.09.641,lexical_decision_task_MP,2020.1.3,Win32,60,m,1,,,,,,,,0.519945,1,,,,,,113,WORD,"ID",50,chorus,CHORUS,m,0.519945,,,,,,,-0.076691729,-0.378195489,0,0,0,,0,384,384,112,1,
,,,,,,,,,,,,,,,,,,5ee33ce832efb54e45adc345,2020-08-10_09h23.09.641,lexical_decision_task_MP,2020.1.3,Win32,60,m,1,,,,,,,,0.53276,1,,,,,,60,WORD,"ID",33,pencil,PENCIL,m,0.53276,,,,,,,-0.076691729,-0.378195489,0,0,0,,0,385,385,59,1,
,,,,,,,,,,,,,,,,,,5ee33ce832efb54e45adc345,2020-08-10_09h23.09.641,lexical_decision_task_MP,2020.1.3,Win32,60,z,1,,,,,,,,0.65464,1,,,,,,393,NW,UN,33,spaqux,GANOUS,z,0.65464,,,,,,,-0.076691729,-0.378195489,0,0,0,,0,386,386,392,1,
,,,,,,,,,,,,,,,,,,5ee33ce832efb54e45adc345,2020-08-10_09h23.09.641,lexical_decision_task_MP,2020.1.3,Win32,60,m,1,,,,,,,,0.7067,1,,,,,,156,WORD,UN,33,pastor,CRADLE,m,0.7067,,,,,,,-0.076691729,-0.378195489,0,0,0,,0,387,387,155,1,
,,,,,,,,,,,,,,,,,,5ee33ce832efb54e45adc345,2020-08-10_09h23.09.641,lexical_decision_task_MP,2020.1.3,Win32,60,z,1,,,,,,,,0.634675,1,,,,,,441,NW,UN,50,aboune,RASTOE,z,0.634675,,,,,,,-0.076691729,-0.378195489,0,0,0,,0,388,388,440,1,
,,,,,,,,,,,,,,,,,,5ee33ce832efb54e45adc345,2020-08-10_09h23.09.641,lexical_decision_task_MP,2020.1.3,Win32,60,z,1,,,,,,,,0.73407,1,,,,,,387,NW,UN,33,cragin,GRONCE,z,0.73407,,,,,,,-0.076691729,-0.378195489,0,0,0,,0,389,389,386,1,
,,,,,,,,,,,,,,,,,,5ee33ce832efb54e45adc345,2020-08-10_09h23.09.641,lexical_decision_task_MP,2020.1.3,Win32,60,z,1,,,,,,,,0.506615,1,,,,,,414,NW,UN,33,higsta,SERBOL,z,0.506615,,,,,,,-0.076691729,-0.378195489,0,0,0,,0,390,390,413,1,
,,,,,,,,,,,,,,,,,,5ee33ce832efb54e45adc345,2020-08-10_09h23.09.641,lexical_decision_task_MP,2020.1.3,Win32,60,z,1,,,,,,,,0.49152,1,,,,,,369,NW,UN,33,sleact,WRONCH,z,0.49152,,,,,,,-0.076691729,-0.378195489,0,0,0,,0,391,391,368,1,
,,,,,,,,,,,,,,,,,,5ee33ce832efb54e45adc345,2020-08-10_09h23.09.641,lexical_decision_task_MP,2020.1.3,Win32,60,m,1,,,,,,,,0.66947,1,,,,,,120,WORD,"ID",50,strain,STRAIN,m,0.66947,,,,,,,-0.076691729,-0.378195489,0,0,0,,0,392,392,119,1,
,,,,,,,,,,,,,,,,,,5ee33ce832efb54e45adc345,2020-08-10_09h23.09.641,lexical_decision_task_MP,2020.1.3,Win32,60,m,1,,,,,,,,0.62664,1,,,,,,225,WORD,UN,50,kidney,VULGAR,m,0.62664,,,,,,,-0.076691729,-0.378195489,0,0,0,,0,393,393,224,1,
,,,,,,,,,,,,,,,,,,5ee33ce832efb54e45adc345,2020-08-10_09h23.09.641,lexical_decision_task_MP,2020.1.3,Win32,60,m,1,,,,,,,,0.44176,1,,,,,,9,WORD,"ID",33,hustle,HUSTLE,m,0.44176,,,,,,,-0.076691729,-0.378195489,0,0,0,,0,394,394,8,1,
,,,,,,,,,,,,,,,,,,5ee33ce832efb54e45adc345,2020-08-10_09h23.09.641,lexical_decision_task_MP,2020.1.3,Win32,60,z,1,,,,,,,,0.75924,1,,,,,,327,NW,"ID",50,plenac,PLENAC,z,0.75924,,,,,,,-0.076691729,-0.378195489,0,0,0,,0,395,395,326,1,
,,,,,,,,,,,,,,,,,,5ee33ce832efb54e45adc345,2020-08-10_09h23.09.641,lexical_decision_task_MP,2020.1.3,Win32,60,z,1,,,,,,,,0.936675,1,,,,,,324,NW,"ID",50,steikh,STEIKH,z,0.936675,,,,,,,-0.076691729,-0.378195489,0,0,0,,0,396,396,323,1,
,,,,,,,,,,,,,,,,,,5ee33ce832efb54e45adc345,2020-08-10_09h23.09.641,lexical_decision_task_MP,2020.1.3,Win32,60,z,1,,,,,,,,1.85205,1,,,,,,383,NW,UN,33,guesco,AUNGRE,z,1.85205,,,,,,,-0.076691729,-0.378195489,0,0,0,,0,397,397,382,1,
,,,,,,,,,,,,,,,,,,5ee33ce832efb54e45adc345,2020-08-10_09h23.09.641,lexical_decision_task_MP,2020.1.3,Win32,60,,0,,,,,,,,1.85205,-1,,,,,,466,NW,UN,50,pebric,HOCITE,z,,,,,,,,-0.076691729,-0.378195489,0,0,0,,0,398,398,465,1,
,,,,,,,,,,,,,,,,,,5ee33ce832efb54e45adc345,2020-08-10_09h23.09.641,lexical_decision_task_MP,2020.1.3,Win32,60,m,1,,,,,,,,1.123405,1,,,,,,154,WORD,UN,33,lizard,AUTHOR,m,1.123405,,,,,,,-0.076691729,-0.378195489,0,0,0,,0,399,399,153,1,
,,,,,,,,,,,,,,,,,,5ee33ce832efb54e45adc345,2020-08-10_09h23.09.641,lexical_decision_task_MP,2020.1.3,Win32,60,z,1,,,,,,,,1.821885,1,,,,,,266,NW,"ID",33,varmit,VARMIT,z,1.821885,,,,,,,-0.076691729,-0.378195489,0,0,0,,0,400,400,265,1,
,,,,,,,,,,,,,,,,,,5ee33ce832efb54e45adc345,2020-08-10_09h23.09.641,lexical_decision_task_MP,2020.1.3,Win32,60,z,1,,,,,,,,0.599505,1,,,,,,381,NW,UN,33,sarley,HUNIEK,z,0.599505,,,,,,,-0.076691729,-0.378195489,0,0,0,,0,401,401,380,1,
,,,,,,,,,,,,,,,,,,5ee33ce832efb54e45adc345,2020-08-10_09h23.09.641,lexical_decision_task_MP,2020.1.3,Win32,60,m,1,,,,,,,,0.677115,1,,,,,,158,WORD,UN,33,detail,ISLAND,m,0.677115,,,,,,,-0.076691729,-0.378195489,0,0,0,,0,402,402,157,1,
