counterbalancing_condition,instr_done_keyboard.keys,instr_done_touch.x,instr_done_touch.y,instr_done_touch.leftButton,instr_done_touch.midButton,instr_done_touch.rightButton,instr_done_touch.clicked_name,instruction_pages.thisRepN,instruction_pages.thisTrialN,instruction_pages.thisN,instruction_pages.thisIndex,instruction_pages.ran,pageN,phase,instruct_text,has_image,instruct_image,participant,date,expName,psychopyVersion,OS,frameRate,instr_done_keyboard.rt,response.keys,response.corr,response.rt,touch_resp.x,touch_resp.y,touch_resp.leftButton,touch_resp.midButton,touch_resp.rightButton,touch_resp.time,touch_resp.clicked_name,rt,corr,practice_trials.thisRepN,practice_trials.thisTrialN,practice_trials.thisN,practice_trials.thisIndex,practice_trials.ran,TrialID,StimulusType,Condition,PrimeDuration,Prime,Target,corrAns,end_of_practice_trials_pages.thisRepN,end_of_practice_trials_pages.thisTrialN,end_of_practice_trials_pages.thisN,end_of_practice_trials_pages.thisIndex,end_of_practice_trials_pages.ran,break_done_touch.x,break_done_touch.y,break_done_touch.leftButton,break_done_touch.midButton,break_done_touch.rightButton,break_done_keyboard.keys,trials.thisRepN,trials.thisTrialN,trials.thisN,trials.thisIndex,trials.ran,break_done_keyboard.rt
1,,0.023148162,-0.386111181,1,0,0,instr_done_button,0,0,0,0,1,1,instructions,"INSTRUCTIONS
At the start of each trial, look at the hash marks (######) in the center of the screen. After a moment, a string of letters will appear. Your task is to indicate if the letter string forms a word or not (i.e., if it is a nonword). For example, AUTHOR is a word while AUTHON is a nonword.

Press the space bar or touch the button below to continue.",0,,5ee4aab1232e9d1b4d791bae,2020-08-10_16h23.36.107,lexical_decision_task_MP,2020.1.3,Win32,60,,,,,,,,,,,,,,,,,,,,,,,,,,,,,,,,,,,,,,,,,,
,space,0.133333349,-0.40000007,0,0,0,,0,1,1,1,1,2,instructions,"If your device has a keyboard, press the 'Z' key for nonwords and the 'M' key for words.





Press the space bar or touch the button below to continue.",1,keyboard-example.gif,5ee4aab1232e9d1b4d791bae,2020-08-10_16h23.36.107,lexical_decision_task_MP,2020.1.3,Win32,60,6.623875,,,,,,,,,,,,,,,,,,,,,,,,,,,,,,,,,,,,,,,,,
,space,0.350926057,-0.328703716,0,0,0,,0,2,2,2,1,3,instructions,"If you are using a touchscreen only device, use the buttons on the screen. Do not use the mouse.





Press the space bar or touch the button below to continue.",1,touchscreen-example.gif,5ee4aab1232e9d1b4d791bae,2020-08-10_16h23.36.107,lexical_decision_task_MP,2020.1.3,Win32,60,5.042955,,,,,,,,,,,,,,,,,,,,,,,,,,,,,,,,,,,,,,,,,
,space,0.350926057,-0.328703716,0,0,0,,0,3,3,3,1,4,instructions,"It is very important that you respond as quickly and accurately as possible, as each letter string will only be on the screen for two seconds. If you do not respond within this time, the message 'Too slow!' will be displayed and the experiment will progress to the next letter string. The first 20 trials will be practice trials and you will receive feedback on your answers. 

Press the space bar or touch the button below to start the practice trials.",0,,5ee4aab1232e9d1b4d791bae,2020-08-10_16h23.36.107,lexical_decision_task_MP,2020.1.3,Win32,60,4.99359,,,,,,,,,,,,,,,,,,,,,,,,,,,,,,,,,,,,,,,,,
,,,,,,,,,,,,,,,,,,5ee4aab1232e9d1b4d791bae,2020-08-10_16h23.36.107,lexical_decision_task_MP,2020.1.3,Win32,60,,z,1,1.95608,,,,,,,,1.95608,1,0,0,0,8,1,1009,NW,"ID",33,aslert,ASLERT,z,,,,,,,,,,,,,,,,,
,,,,,,,,,,,,,,,,,,5ee4aab1232e9d1b4d791bae,2020-08-10_16h23.36.107,lexical_decision_task_MP,2020.1.3,Win32,60,,m,1,0.83758,,,,,,,,0.83758,1,0,1,1,7,1,1008,WORD,UN,50,hurdle,VOLUME,m,,,,,,,,,,,,,,,,,
,,,,,,,,,,,,,,,,,,5ee4aab1232e9d1b4d791bae,2020-08-10_16h23.36.107,lexical_decision_task_MP,2020.1.3,Win32,60,,m,1,0.61591,,,,,,,,0.61591,1,0,2,2,0,1,1001,WORD,"ID",33,utopia,UTOPIA,m,,,,,,,,,,,,,,,,,
,,,,,,,,,,,,,,,,,,5ee4aab1232e9d1b4d791bae,2020-08-10_16h23.36.107,lexical_decision_task_MP,2020.1.3,Win32,60,,z,1,1.124895,,,,,,,,1.124895,1,0,3,3,10,1,1011,NW,"ID",50,inlade,INLADE,z,,,,,,,,,,,,,,,,,
,,,,,,,,,,,,,,,,,,5ee4aab1232e9d1b4d791bae,2020-08-10_16h23.36.107,lexical_decision_task_MP,2020.1.3,Win32,60,,z,1,0.99596,,,,,,,,0.99596,1,0,4,4,15,1,1016,NW,UN,50,mushed,WHAISE,z,,,,,,,,,,,,,,,,,
,,,,,,,,,,,,,,,,,,5ee4aab1232e9d1b4d791bae,2020-08-10_16h23.36.107,lexical_decision_task_MP,2020.1.3,Win32,60,,m,1,0.48979,,,,,,,,0.48979,1,0,5,5,2,1,1003,WORD,"ID",50,almond,ALMOND,m,,,,,,,,,,,,,,,,,
,,,,,,,,,,,,,,,,,,5ee4aab1232e9d1b4d791bae,2020-08-10_16h23.36.107,lexical_decision_task_MP,2020.1.3,Win32,60,,m,1,0.51816,,,,,,,,0.51816,1,0,6,6,6,1,1007,WORD,UN,50,tropic,ZOMBIE,m,,,,,,,,,,,,,,,,,
,,,,,,,,,,,,,,,,,,5ee4aab1232e9d1b4d791bae,2020-08-10_16h23.36.107,lexical_decision_task_MP,2020.1.3,Win32,60,,m,1,0.516075,,,,,,,,0.516075,1,0,7,7,3,1,1004,WORD,"ID",50,matrix,MATRIX,m,,,,,,,,,,,,,,,,,
,,,,,,,,,,,,,,,,,,5ee4aab1232e9d1b4d791bae,2020-08-10_16h23.36.107,lexical_decision_task_MP,2020.1.3,Win32,60,,m,1,0.513115,,,,,,,,0.513115,1,0,8,8,5,1,1006,WORD,UN,33,frenzy,OBTAIN,m,,,,,,,,,,,,,,,,,
,,,,,,,,,,,,,,,,,,5ee4aab1232e9d1b4d791bae,2020-08-10_16h23.36.107,lexical_decision_task_MP,2020.1.3,Win32,60,,z,1,0.633435,,,,,,,,0.633435,1,0,9,9,13,1,1014,NW,UN,33,winfer,ROUPET,z,,,,,,,,,,,,,,,,,
,,,,,,,,,,,,,,,,,,5ee4aab1232e9d1b4d791bae,2020-08-10_16h23.36.107,lexical_decision_task_MP,2020.1.3,Win32,60,,z,1,0.69707,,,,,,,,0.69707,1,0,10,10,14,1,1015,NW,UN,50,miaber,THRALE,z,,,,,,,,,,,,,,,,,
,,,,,,,,,,,,,,,,,,5ee4aab1232e9d1b4d791bae,2020-08-10_16h23.36.107,lexical_decision_task_MP,2020.1.3,Win32,60,,z,1,0.77313,,,,,,,,0.77313,1,0,11,11,9,1,1010,NW,"ID",33,fariny,FARINY,z,,,,,,,,,,,,,,,,,
,,,,,,,,,,,,,,,,,,5ee4aab1232e9d1b4d791bae,2020-08-10_16h23.36.107,lexical_decision_task_MP,2020.1.3,Win32,60,,z,1,0.716585,,,,,,,,0.716585,1,0,12,12,12,1,1013,NW,UN,33,adveil,SPRINY,z,,,,,,,,,,,,,,,,,
,,,,,,,,,,,,,,,,,,5ee4aab1232e9d1b4d791bae,2020-08-10_16h23.36.107,lexical_decision_task_MP,2020.1.3,Win32,60,,m,1,0.49817,,,,,,,,0.49817,1,0,13,13,1,1,1002,WORD,"ID",33,adjust,ADJUST,m,,,,,,,,,,,,,,,,,
,,,,,,,,,,,,,,,,,,5ee4aab1232e9d1b4d791bae,2020-08-10_16h23.36.107,lexical_decision_task_MP,2020.1.3,Win32,60,,m,1,0.566145,,,,,,,,0.566145,1,0,14,14,4,1,1005,WORD,UN,33,abound,SQUEAK,m,,,,,,,,,,,,,,,,,
,,,,,,,,,,,,,,,,,,5ee4aab1232e9d1b4d791bae,2020-08-10_16h23.36.107,lexical_decision_task_MP,2020.1.3,Win32,60,,z,1,0.901005,,,,,,,,0.901005,1,0,15,15,11,1,1012,NW,"ID",50,rashet,RASHET,z,,,,,,,,,,,,,,,,,
,space,0.350926057,-0.328703716,0,0,0,,,,,,,1,end_of_practice,"You have completed the practice trials. During the experimental trials, you will not receive feedback, but it is very important that you respond as quickly and accurately as possible. 
Before you begin, please ensure that you are in a comfortable and quiet location and will not be disturbed for about 15 minutes, as we cannot use your data if you do not complete all the trials. 
There will be opportunities to take breaks at regular intervals during the experiment. When you are ready to start the experimental trials, please press space or touch the button below.",,,5ee4aab1232e9d1b4d791bae,2020-08-10_16h23.36.107,lexical_decision_task_MP,2020.1.3,Win32,60,1.24767,,,,,,,,,,,,,,,,,,,,,,,,,0,0,0,0,1,,,,,,,,,,,,
,,,,,,,,,,,,,,,,,,5ee4aab1232e9d1b4d791bae,2020-08-10_16h23.36.107,lexical_decision_task_MP,2020.1.3,Win32,60,,m,1,1.26976,,,,,,,,1.26976,1,,,,,,12,WORD,"ID",33,orange,ORANGE,m,,,,,,0.350926057,-0.328703716,0,0,0,,0,0,0,11,1,
,,,,,,,,,,,,,,,,,,5ee4aab1232e9d1b4d791bae,2020-08-10_16h23.36.107,lexical_decision_task_MP,2020.1.3,Win32,60,,m,1,0.738545,,,,,,,,0.738545,1,,,,,,69,WORD,"ID",50,plenty,PLENTY,m,,,,,,0.350926057,-0.328703716,0,0,0,,0,1,1,68,1,
,,,,,,,,,,,,,,,,,,5ee4aab1232e9d1b4d791bae,2020-08-10_16h23.36.107,lexical_decision_task_MP,2020.1.3,Win32,60,,z,1,1.15497,,,,,,,,1.15497,1,,,,,,388,NW,UN,33,witmer,CRAGIN,z,,,,,,0.350926057,-0.328703716,0,0,0,,0,2,2,387,1,
,,,,,,,,,,,,,,,,,,5ee4aab1232e9d1b4d791bae,2020-08-10_16h23.36.107,lexical_decision_task_MP,2020.1.3,Win32,60,,m,1,1.210055,,,,,,,,1.210055,1,,,,,,234,WORD,UN,50,lumber,CLUMSY,m,,,,,,0.350926057,-0.328703716,0,0,0,,0,3,3,233,1,
,,,,,,,,,,,,,,,,,,5ee4aab1232e9d1b4d791bae,2020-08-10_16h23.36.107,lexical_decision_task_MP,2020.1.3,Win32,60,,z,1,0.937255,,,,,,,,0.937255,1,,,,,,278,NW,"ID",33,unighs,UNIGHS,z,,,,,,0.350926057,-0.328703716,0,0,0,,0,4,4,277,1,
,,,,,,,,,,,,,,,,,,5ee4aab1232e9d1b4d791bae,2020-08-10_16h23.36.107,lexical_decision_task_MP,2020.1.3,Win32,60,,z,1,0.866755,,,,,,,,0.866755,1,,,,,,466,NW,UN,50,pebric,HOCITE,z,,,,,,0.350926057,-0.328703716,0,0,0,,0,5,5,465,1,
,,,,,,,,,,,,,,,,,,5ee4aab1232e9d1b4d791bae,2020-08-10_16h23.36.107,lexical_decision_task_MP,2020.1.3,Win32,60,,m,1,0.651615,,,,,,,,0.651615,1,,,,,,22,WORD,"ID",33,jockey,JOCKEY,m,,,,,,0.350926057,-0.328703716,0,0,0,,0,6,6,21,1,
,,,,,,,,,,,,,,,,,,5ee4aab1232e9d1b4d791bae,2020-08-10_16h23.36.107,lexical_decision_task_MP,2020.1.3,Win32,60,,m,1,0.58528,,,,,,,,0.58528,1,,,,,,151,WORD,UN,33,rocket,MYSTIC,m,,,,,,0.350926057,-0.328703716,0,0,0,,0,7,7,150,1,
,,,,,,,,,,,,,,,,,,5ee4aab1232e9d1b4d791bae,2020-08-10_16h23.36.107,lexical_decision_task_MP,2020.1.3,Win32,60,,z,1,0.622745,,,,,,,,0.622745,1,,,,,,394,NW,UN,33,colury,SPAQUX,z,,,,,,0.350926057,-0.328703716,0,0,0,,0,8,8,393,1,
,,,,,,,,,,,,,,,,,,5ee4aab1232e9d1b4d791bae,2020-08-10_16h23.36.107,lexical_decision_task_MP,2020.1.3,Win32,60,,m,1,0.59423,,,,,,,,0.59423,1,,,,,,156,WORD,UN,33,pastor,CRADLE,m,,,,,,0.350926057,-0.328703716,0,0,0,,0,9,9,155,1,
,,,,,,,,,,,,,,,,,,5ee4aab1232e9d1b4d791bae,2020-08-10_16h23.36.107,lexical_decision_task_MP,2020.1.3,Win32,60,,m,1,0.504835,,,,,,,,0.504835,1,,,,,,179,WORD,UN,33,silent,BASKET,m,,,,,,0.350926057,-0.328703716,0,0,0,,0,10,10,178,1,
,,,,,,,,,,,,,,,,,,5ee4aab1232e9d1b4d791bae,2020-08-10_16h23.36.107,lexical_decision_task_MP,2020.1.3,Win32,60,,m,1,0.482005,,,,,,,,0.482005,1,,,,,,29,WORD,"ID",33,sketch,SKETCH,m,,,,,,0.350926057,-0.328703716,0,0,0,,0,11,11,28,1,
,,,,,,,,,,,,,,,,,,5ee4aab1232e9d1b4d791bae,2020-08-10_16h23.36.107,lexical_decision_task_MP,2020.1.3,Win32,60,,z,1,0.75643,,,,,,,,0.75643,1,,,,,,392,NW,UN,33,ganous,ROUNCY,z,,,,,,0.350926057,-0.328703716,0,0,0,,0,12,12,391,1,
,,,,,,,,,,,,,,,,,,5ee4aab1232e9d1b4d791bae,2020-08-10_16h23.36.107,lexical_decision_task_MP,2020.1.3,Win32,60,,z,1,0.866825,,,,,,,,0.866825,1,,,,,,373,NW,UN,33,injore,BIGENT,z,,,,,,0.350926057,-0.328703716,0,0,0,,0,13,13,372,1,
,,,,,,,,,,,,,,,,,,5ee4aab1232e9d1b4d791bae,2020-08-10_16h23.36.107,lexical_decision_task_MP,2020.1.3,Win32,60,,m,1,0.748755,,,,,,,,0.748755,1,,,,,,109,WORD,"ID",50,wonder,WONDER,m,,,,,,0.350926057,-0.328703716,0,0,0,,0,14,14,108,1,
,,,,,,,,,,,,,,,,,,5ee4aab1232e9d1b4d791bae,2020-08-10_16h23.36.107,lexical_decision_task_MP,2020.1.3,Win32,60,,z,1,1.84848,,,,,,,,1.84848,1,,,,,,480,NW,UN,50,knisma,ROBULY,z,,,,,,0.350926057,-0.328703716,0,0,0,,0,15,15,479,1,
,,,,,,,,,,,,,,,,,,5ee4aab1232e9d1b4d791bae,2020-08-10_16h23.36.107,lexical_decision_task_MP,2020.1.3,Win32,60,,m,1,0.814525,,,,,,,,0.814525,1,,,,,,144,WORD,UN,33,parish,SPONGE,m,,,,,,0.350926057,-0.328703716,0,0,0,,0,16,16,143,1,
,,,,,,,,,,,,,,,,,,5ee4aab1232e9d1b4d791bae,2020-08-10_16h23.36.107,lexical_decision_task_MP,2020.1.3,Win32,60,,z,1,0.67625,,,,,,,,0.67625,1,,,,,,290,NW,"ID",33,splino,SPLINO,z,,,,,,0.350926057,-0.328703716,0,0,0,,0,17,17,289,1,
,,,,,,,,,,,,,,,,,,5ee4aab1232e9d1b4d791bae,2020-08-10_16h23.36.107,lexical_decision_task_MP,2020.1.3,Win32,60,,z,1,0.894415,,,,,,,,0.894415,1,,,,,,441,NW,UN,50,aboune,RASTOE,z,,,,,,0.350926057,-0.328703716,0,0,0,,0,18,18,440,1,
,,,,,,,,,,,,,,,,,,5ee4aab1232e9d1b4d791bae,2020-08-10_16h23.36.107,lexical_decision_task_MP,2020.1.3,Win32,60,,m,1,0.689405,,,,,,,,0.689405,1,,,,,,223,WORD,UN,50,period,KIDNEY,m,,,,,,0.350926057,-0.328703716,0,0,0,,0,19,19,222,1,
,,,,,,,,,,,,,,,,,,5ee4aab1232e9d1b4d791bae,2020-08-10_16h23.36.107,lexical_decision_task_MP,2020.1.3,Win32,60,,z,1,0.590245,,,,,,,,0.590245,1,,,,,,469,NW,UN,50,crudio,PADIFS,z,,,,,,0.350926057,-0.328703716,0,0,0,,0,20,20,468,1,
,,,,,,,,,,,,,,,,,,5ee4aab1232e9d1b4d791bae,2020-08-10_16h23.36.107,lexical_decision_task_MP,2020.1.3,Win32,60,,z,1,0.63156,,,,,,,,0.63156,1,,,,,,276,NW,"ID",33,yarmon,YARMON,z,,,,,,0.350926057,-0.328703716,0,0,0,,0,21,21,275,1,
,,,,,,,,,,,,,,,,,,5ee4aab1232e9d1b4d791bae,2020-08-10_16h23.36.107,lexical_decision_task_MP,2020.1.3,Win32,60,,z,1,0.57519,,,,,,,,0.57519,1,,,,,,348,NW,"ID",50,dumple,DUMPLE,z,,,,,,0.350926057,-0.328703716,0,0,0,,0,22,22,347,1,
,,,,,,,,,,,,,,,,,,5ee4aab1232e9d1b4d791bae,2020-08-10_16h23.36.107,lexical_decision_task_MP,2020.1.3,Win32,60,,m,1,0.684965,,,,,,,,0.684965,1,,,,,,232,WORD,UN,50,nature,INJECT,m,,,,,,0.350926057,-0.328703716,0,0,0,,0,23,23,231,1,
,,,,,,,,,,,,,,,,,,5ee4aab1232e9d1b4d791bae,2020-08-10_16h23.36.107,lexical_decision_task_MP,2020.1.3,Win32,60,,m,1,0.48589,,,,,,,,0.48589,1,,,,,,140,WORD,UN,33,reason,PRINCE,m,,,,,,0.350926057,-0.328703716,0,0,0,,0,24,24,139,1,
,,,,,,,,,,,,,,,,,,5ee4aab1232e9d1b4d791bae,2020-08-10_16h23.36.107,lexical_decision_task_MP,2020.1.3,Win32,60,,m,1,0.537685,,,,,,,,0.537685,1,,,,,,124,WORD,UN,33,nickel,BLOUSE,m,,,,,,0.350926057,-0.328703716,0,0,0,,0,25,25,123,1,
,,,,,,,,,,,,,,,,,,5ee4aab1232e9d1b4d791bae,2020-08-10_16h23.36.107,lexical_decision_task_MP,2020.1.3,Win32,60,,z,1,0.53577,,,,,,,,0.53577,1,,,,,,428,NW,UN,50,chrums,TANDLY,z,,,,,,0.350926057,-0.328703716,0,0,0,,0,26,26,427,1,
,,,,,,,,,,,,,,,,,,5ee4aab1232e9d1b4d791bae,2020-08-10_16h23.36.107,lexical_decision_task_MP,2020.1.3,Win32,60,,z,1,0.83232,,,,,,,,0.83232,1,,,,,,463,NW,UN,50,bafent,KISPEL,z,,,,,,0.350926057,-0.328703716,0,0,0,,0,27,27,462,1,
,,,,,,,,,,,,,,,,,,5ee4aab1232e9d1b4d791bae,2020-08-10_16h23.36.107,lexical_decision_task_MP,2020.1.3,Win32,60,,m,1,1.001125,,,,,,,,1.001125,1,,,,,,31,WORD,"ID",33,weapon,WEAPON,m,,,,,,0.350926057,-0.328703716,0,0,0,,0,28,28,30,1,
,,,,,,,,,,,,,,,,,,5ee4aab1232e9d1b4d791bae,2020-08-10_16h23.36.107,lexical_decision_task_MP,2020.1.3,Win32,60,,z,1,0.83196,,,,,,,,0.83196,1,,,,,,467,NW,UN,50,wictor,GORBIE,z,,,,,,0.350926057,-0.328703716,0,0,0,,0,29,29,466,1,
,,,,,,,,,,,,,,,,,,5ee4aab1232e9d1b4d791bae,2020-08-10_16h23.36.107,lexical_decision_task_MP,2020.1.3,Win32,60,,z,1,0.58953,,,,,,,,0.58953,1,,,,,,339,NW,"ID",50,fachow,FACHOW,z,,,,,,0.350926057,-0.328703716,0,0,0,,0,30,30,338,1,
,,,,,,,,,,,,,,,,,,5ee4aab1232e9d1b4d791bae,2020-08-10_16h23.36.107,lexical_decision_task_MP,2020.1.3,Win32,60,,m,1,0.616845,,,,,,,,0.616845,1,,,,,,17,WORD,"ID",33,charge,CHARGE,m,,,,,,0.350926057,-0.328703716,0,0,0,,0,31,31,16,1,
,,,,,,,,,,,,,,,,,,5ee4aab1232e9d1b4d791bae,2020-08-10_16h23.36.107,lexical_decision_task_MP,2020.1.3,Win32,60,,m,1,0.98817,,,,,,,,0.98817,1,,,,,,111,WORD,"ID",50,induce,INDUCE,m,,,,,,0.350926057,-0.328703716,0,0,0,,0,32,32,110,1,
,,,,,,,,,,,,,,,,,,5ee4aab1232e9d1b4d791bae,2020-08-10_16h23.36.107,lexical_decision_task_MP,2020.1.3,Win32,60,,m,1,1.072135,,,,,,,,1.072135,1,,,,,,186,WORD,UN,50,course,PORTAL,m,,,,,,0.350926057,-0.328703716,0,0,0,,0,33,33,185,1,
,,,,,,,,,,,,,,,,,,5ee4aab1232e9d1b4d791bae,2020-08-10_16h23.36.107,lexical_decision_task_MP,2020.1.3,Win32,60,,z,1,0.648575,,,,,,,,0.648575,1,,,,,,372,NW,UN,33,bigent,RAMILY,z,,,,,,0.350926057,-0.328703716,0,0,0,,0,34,34,371,1,
,,,,,,,,,,,,,,,,,,5ee4aab1232e9d1b4d791bae,2020-08-10_16h23.36.107,lexical_decision_task_MP,2020.1.3,Win32,60,,m,1,0.751975,,,,,,,,0.751975,1,,,,,,211,WORD,UN,50,verify,INFECT,m,,,,,,0.350926057,-0.328703716,0,0,0,,0,35,35,210,1,
,,,,,,,,,,,,,,,,,,5ee4aab1232e9d1b4d791bae,2020-08-10_16h23.36.107,lexical_decision_task_MP,2020.1.3,Win32,60,,z,1,0.79834,,,,,,,,0.79834,1,,,,,,402,NW,UN,33,bruats,SYNTIC,z,,,,,,0.350926057,-0.328703716,0,0,0,,0,36,36,401,1,
,,,,,,,,,,,,,,,,,,5ee4aab1232e9d1b4d791bae,2020-08-10_16h23.36.107,lexical_decision_task_MP,2020.1.3,Win32,60,,m,1,0.546095,,,,,,,,0.546095,1,,,,,,21,WORD,"ID",33,simple,SIMPLE,m,,,,,,0.350926057,-0.328703716,0,0,0,,0,37,37,20,1,
,,,,,,,,,,,,,,,,,,5ee4aab1232e9d1b4d791bae,2020-08-10_16h23.36.107,lexical_decision_task_MP,2020.1.3,Win32,60,,z,1,0.837925,,,,,,,,0.837925,1,,,,,,319,NW,"ID",50,zomber,ZOMBER,z,,,,,,0.350926057,-0.328703716,0,0,0,,0,38,38,318,1,
,,,,,,,,,,,,,,,,,,5ee4aab1232e9d1b4d791bae,2020-08-10_16h23.36.107,lexical_decision_task_MP,2020.1.3,Win32,60,,z,1,0.692775,,,,,,,,0.692775,1,,,,,,326,NW,"ID",50,iguade,IGUADE,z,,,,,,0.350926057,-0.328703716,0,0,0,,0,39,39,325,1,
,,,,,,,,,,,,,,,,,,5ee4aab1232e9d1b4d791bae,2020-08-10_16h23.36.107,lexical_decision_task_MP,2020.1.3,Win32,60,,z,1,0.48766,,,,,,,,0.48766,1,,,,,,351,NW,"ID",50,tiesch,TIESCH,z,,,,,,0.350926057,-0.328703716,0,0,0,,0,40,40,350,1,
,,,,,,,,,,,,,,,,,,5ee4aab1232e9d1b4d791bae,2020-08-10_16h23.36.107,lexical_decision_task_MP,2020.1.3,Win32,60,,z,0,0.53133,,,,,,,,0.53133,0,,,,,,40,WORD,"ID",33,convey,CONVEY,m,,,,,,0.350926057,-0.328703716,0,0,0,,0,41,41,39,1,
,,,,,,,,,,,,,,,,,,5ee4aab1232e9d1b4d791bae,2020-08-10_16h23.36.107,lexical_decision_task_MP,2020.1.3,Win32,60,,z,1,1.32137,,,,,,,,1.32137,1,,,,,,345,NW,"ID",50,absend,ABSEND,z,,,,,,0.350926057,-0.328703716,0,0,0,,0,42,42,344,1,
,,,,,,,,,,,,,,,,,,5ee4aab1232e9d1b4d791bae,2020-08-10_16h23.36.107,lexical_decision_task_MP,2020.1.3,Win32,60,,z,1,0.755885,,,,,,,,0.755885,1,,,,,,350,NW,"ID",50,nagurs,NAGURS,z,,,,,,0.350926057,-0.328703716,0,0,0,,0,43,43,349,1,
,,,,,,,,,,,,,,,,,,5ee4aab1232e9d1b4d791bae,2020-08-10_16h23.36.107,lexical_decision_task_MP,2020.1.3,Win32,60,,z,1,0.66569,,,,,,,,0.66569,1,,,,,,410,NW,UN,33,orchin,TUNORY,z,,,,,,0.350926057,-0.328703716,0,0,0,,0,44,44,409,1,
,,,,,,,,,,,,,,,,,,5ee4aab1232e9d1b4d791bae,2020-08-10_16h23.36.107,lexical_decision_task_MP,2020.1.3,Win32,60,,z,1,0.710355,,,,,,,,0.710355,1,,,,,,342,NW,"ID",50,randow,RANDOW,z,,,,,,0.350926057,-0.328703716,0,0,0,,0,45,45,341,1,
,,,,,,,,,,,,,,,,,,5ee4aab1232e9d1b4d791bae,2020-08-10_16h23.36.107,lexical_decision_task_MP,2020.1.3,Win32,60,,m,1,0.573195,,,,,,,,0.573195,1,,,,,,64,WORD,"ID",50,throne,THRONE,m,,,,,,0.350926057,-0.328703716,0,0,0,,0,46,46,63,1,
,,,,,,,,,,,,,,,,,,5ee4aab1232e9d1b4d791bae,2020-08-10_16h23.36.107,lexical_decision_task_MP,2020.1.3,Win32,60,,z,1,0.71819,,,,,,,,0.71819,1,,,,,,389,NW,UN,33,hatrus,WITMER,z,,,,,,0.350926057,-0.328703716,0,0,0,,0,47,47,388,1,
,,,,,,,,,,,,,,,,,,5ee4aab1232e9d1b4d791bae,2020-08-10_16h23.36.107,lexical_decision_task_MP,2020.1.3,Win32,60,,m,1,0.87275,,,,,,,,0.87275,1,,,,,,139,WORD,UN,33,prince,DEBRIS,m,,,,,,0.350926057,-0.328703716,0,0,0,,0,48,48,138,1,
,,,,,,,,,,,,,,,,,,5ee4aab1232e9d1b4d791bae,2020-08-10_16h23.36.107,lexical_decision_task_MP,2020.1.3,Win32,60,,m,1,0.588335,,,,,,,,0.588335,1,,,,,,128,WORD,UN,33,marvel,SENIOR,m,,,,,,0.350926057,-0.328703716,0,0,0,,0,49,49,127,1,
,,,,,,,,,,,,,,,,,,5ee4aab1232e9d1b4d791bae,2020-08-10_16h23.36.107,lexical_decision_task_MP,2020.1.3,Win32,60,,z,1,0.75131,,,,,,,,0.75131,1,,,,,,247,NW,"ID",33,blarge,BLARGE,z,,,,,,0.350926057,-0.328703716,0,0,0,,0,50,50,246,1,
,,,,,,,,,,,,,,,,,,5ee4aab1232e9d1b4d791bae,2020-08-10_16h23.36.107,lexical_decision_task_MP,2020.1.3,Win32,60,,m,1,0.66977,,,,,,,,0.66977,1,,,,,,205,WORD,UN,50,tailor,LOUNGE,m,,,,,,0.350926057,-0.328703716,0,0,0,,0,51,51,204,1,
,,,,,,,,,,,,,,,,,,5ee4aab1232e9d1b4d791bae,2020-08-10_16h23.36.107,lexical_decision_task_MP,2020.1.3,Win32,60,,m,1,0.650235,,,,,,,,0.650235,1,,,,,,146,WORD,UN,33,garlic,COUPLE,m,,,,,,0.350926057,-0.328703716,0,0,0,,0,52,52,145,1,
,,,,,,,,,,,,,,,,,,5ee4aab1232e9d1b4d791bae,2020-08-10_16h23.36.107,lexical_decision_task_MP,2020.1.3,Win32,60,,z,1,1.033665,,,,,,,,1.033665,1,,,,,,294,NW,"ID",33,inhort,INHORT,z,,,,,,0.350926057,-0.328703716,0,0,0,,0,53,53,293,1,
,,,,,,,,,,,,,,,,,,5ee4aab1232e9d1b4d791bae,2020-08-10_16h23.36.107,lexical_decision_task_MP,2020.1.3,Win32,60,,m,1,1.003275,,,,,,,,1.003275,1,,,,,,24,WORD,"ID",33,praise,PRAISE,m,,,,,,0.350926057,-0.328703716,0,0,0,,0,54,54,23,1,
,,,,,,,,,,,,,,,,,,5ee4aab1232e9d1b4d791bae,2020-08-10_16h23.36.107,lexical_decision_task_MP,2020.1.3,Win32,60,,z,1,1.352075,,,,,,,,1.352075,1,,,,,,323,NW,"ID",50,rosail,ROSAIL,z,,,,,,0.350926057,-0.328703716,0,0,0,,0,55,55,322,1,
,,,,,,,,,,,,,,,,,,5ee4aab1232e9d1b4d791bae,2020-08-10_16h23.36.107,lexical_decision_task_MP,2020.1.3,Win32,60,,m,1,0.715225,,,,,,,,0.715225,1,,,,,,212,WORD,UN,50,squeal,VERIFY,m,,,,,,0.350926057,-0.328703716,0,0,0,,0,56,56,211,1,
,,,,,,,,,,,,,,,,,,5ee4aab1232e9d1b4d791bae,2020-08-10_16h23.36.107,lexical_decision_task_MP,2020.1.3,Win32,60,,m,1,0.69812,,,,,,,,0.69812,1,,,,,,71,WORD,"ID",50,garden,GARDEN,m,,,,,,0.350926057,-0.328703716,0,0,0,,0,57,57,70,1,
,,,,,,,,,,,,,,,,,,5ee4aab1232e9d1b4d791bae,2020-08-10_16h23.36.107,lexical_decision_task_MP,2020.1.3,Win32,60,,z,1,0.60182,,,,,,,,0.60182,1,,,,,,258,NW,"ID",33,poluth,POLUTH,z,,,,,,0.350926057,-0.328703716,0,0,0,,0,58,58,257,1,
,,,,,,,,,,,,,,,,,,5ee4aab1232e9d1b4d791bae,2020-08-10_16h23.36.107,lexical_decision_task_MP,2020.1.3,Win32,60,,z,1,0.667645,,,,,,,,0.667645,1,,,,,,261,NW,"ID",33,stunch,STUNCH,z,,,,,,0.350926057,-0.328703716,0,0,0,,0,59,59,260,1,
,,,,,,,,,,,,,,,,,,5ee4aab1232e9d1b4d791bae,2020-08-10_16h23.36.107,lexical_decision_task_MP,2020.1.3,Win32,60,,z,1,0.634145,,,,,,,,0.634145,1,,,,,,293,NW,"ID",33,swance,SWANCE,z,,,,,,0.350926057,-0.328703716,0,0,0,,0,60,60,292,1,
,,,,,,,,,,,,,,,,,,5ee4aab1232e9d1b4d791bae,2020-08-10_16h23.36.107,lexical_decision_task_MP,2020.1.3,Win32,60,,m,1,0.525715,,,,,,,,0.525715,1,,,,,,169,WORD,UN,33,pounce,GENIUS,m,,,,,,0.350926057,-0.328703716,0,0,0,,0,61,61,168,1,
,,,,,,,,,,,,,,,,,,5ee4aab1232e9d1b4d791bae,2020-08-10_16h23.36.107,lexical_decision_task_MP,2020.1.3,Win32,60,,m,1,0.53984,,,,,,,,0.53984,1,,,,,,193,WORD,UN,50,plague,OBJECT,m,,,,,,0.350926057,-0.328703716,0,0,0,,0,62,62,192,1,
,,,,,,,,,,,,,,,,,,5ee4aab1232e9d1b4d791bae,2020-08-10_16h23.36.107,lexical_decision_task_MP,2020.1.3,Win32,60,,z,1,0.642505,,,,,,,,0.642505,1,,,,,,315,NW,"ID",50,laston,LASTON,z,,,,,,0.350926057,-0.328703716,0,0,0,,0,63,63,314,1,
,,,,,,,,,,,,,,,,,,5ee4aab1232e9d1b4d791bae,2020-08-10_16h23.36.107,lexical_decision_task_MP,2020.1.3,Win32,60,,m,1,0.76599,,,,,,,,0.76599,1,,,,,,10,WORD,"ID",33,ethnic,ETHNIC,m,,,,,,0.350926057,-0.328703716,0,0,0,,0,64,64,9,1,
,,,,,,,,,,,,,,,,,,5ee4aab1232e9d1b4d791bae,2020-08-10_16h23.36.107,lexical_decision_task_MP,2020.1.3,Win32,60,,z,1,0.677105,,,,,,,,0.677105,1,,,,,,242,NW,"ID",33,unwert,UNWERT,z,,,,,,0.350926057,-0.328703716,0,0,0,,0,65,65,241,1,
,,,,,,,,,,,,,,,,,,5ee4aab1232e9d1b4d791bae,2020-08-10_16h23.36.107,lexical_decision_task_MP,2020.1.3,Win32,60,,m,1,0.50639,,,,,,,,0.50639,1,,,,,,47,WORD,"ID",33,income,INCOME,m,,,,,,0.350926057,-0.328703716,0,0,0,,0,66,66,46,1,
,,,,,,,,,,,,,,,,,,5ee4aab1232e9d1b4d791bae,2020-08-10_16h23.36.107,lexical_decision_task_MP,2020.1.3,Win32,60,,z,1,0.770285,,,,,,,,0.770285,1,,,,,,252,NW,"ID",33,stapod,STAPOD,z,,,,,,0.350926057,-0.328703716,0,0,0,,0,67,67,251,1,
,,,,,,,,,,,,,,,,,,5ee4aab1232e9d1b4d791bae,2020-08-10_16h23.36.107,lexical_decision_task_MP,2020.1.3,Win32,60,,m,1,0.593615,,,,,,,,0.593615,1,,,,,,119,WORD,"ID",50,spider,SPIDER,m,,,,,,0.350926057,-0.328703716,0,0,0,,0,68,68,118,1,
,,,,,,,,,,,,,,,,,,5ee4aab1232e9d1b4d791bae,2020-08-10_16h23.36.107,lexical_decision_task_MP,2020.1.3,Win32,60,,m,1,0.73678,,,,,,,,0.73678,1,,,,,,112,WORD,"ID",50,breath,BREATH,m,,,,,,0.350926057,-0.328703716,0,0,0,,0,69,69,111,1,
,,,,,,,,,,,,,,,,,,5ee4aab1232e9d1b4d791bae,2020-08-10_16h23.36.107,lexical_decision_task_MP,2020.1.3,Win32,60,,m,1,0.5592,,,,,,,,0.5592,1,,,,,,115,WORD,"ID",50,guitar,GUITAR,m,,,,,,0.350926057,-0.328703716,0,0,0,,0,70,70,114,1,
,,,,,,,,,,,,,,,,,,5ee4aab1232e9d1b4d791bae,2020-08-10_16h23.36.107,lexical_decision_task_MP,2020.1.3,Win32,60,,z,1,0.61644,,,,,,,,0.61644,1,,,,,,311,NW,"ID",50,sproly,SPROLY,z,,,,,,0.350926057,-0.328703716,0,0,0,,0,71,71,310,1,
,,,,,,,,,,,,,,,,,,5ee4aab1232e9d1b4d791bae,2020-08-10_16h23.36.107,lexical_decision_task_MP,2020.1.3,Win32,60,,m,1,0.649505,,,,,,,,0.649505,1,,,,,,104,WORD,"ID",50,studio,STUDIO,m,,,,,,0.350926057,-0.328703716,0,0,0,,0,72,72,103,1,
,,,,,,,,,,,,,,,,,,5ee4aab1232e9d1b4d791bae,2020-08-10_16h23.36.107,lexical_decision_task_MP,2020.1.3,Win32,60,,z,1,0.603585,,,,,,,,0.603585,1,,,,,,246,NW,"ID",33,piaton,PIATON,z,,,,,,0.350926057,-0.328703716,0,0,0,,0,73,73,245,1,
,,,,,,,,,,,,,,,,,,5ee4aab1232e9d1b4d791bae,2020-08-10_16h23.36.107,lexical_decision_task_MP,2020.1.3,Win32,60,,z,1,1.48181,,,,,,,,1.48181,1,,,,,,420,NW,UN,33,pauche,GUSHOP,z,,,,,,0.350926057,-0.328703716,0,0,0,,0,74,74,419,1,
,,,,,,,,,,,,,,,,,,5ee4aab1232e9d1b4d791bae,2020-08-10_16h23.36.107,lexical_decision_task_MP,2020.1.3,Win32,60,,m,1,0.62518,,,,,,,,0.62518,1,,,,,,52,WORD,"ID",33,impose,IMPOSE,m,,,,,,0.350926057,-0.328703716,0,0,0,,0,75,75,51,1,
,,,,,,,,,,,,,,,,,,5ee4aab1232e9d1b4d791bae,2020-08-10_16h23.36.107,lexical_decision_task_MP,2020.1.3,Win32,60,,z,1,0.77889,,,,,,,,0.77889,1,,,,,,306,NW,"ID",50,sounge,SOUNGE,z,,,,,,0.350926057,-0.328703716,0,0,0,,0,76,76,305,1,
,,,,,,,,,,,,,,,,,,5ee4aab1232e9d1b4d791bae,2020-08-10_16h23.36.107,lexical_decision_task_MP,2020.1.3,Win32,60,,z,0,0.78251,,,,,,,,0.78251,0,,,,,,88,WORD,"ID",50,hunger,HUNGER,m,,,,,,0.350926057,-0.328703716,0,0,0,,0,77,77,87,1,
,,,,,,,,,,,,,,,,,,5ee4aab1232e9d1b4d791bae,2020-08-10_16h23.36.107,lexical_decision_task_MP,2020.1.3,Win32,60,,z,1,1.483315,,,,,,,,1.483315,1,,,,,,253,NW,"ID",33,resait,RESAIT,z,,,,,,0.350926057,-0.328703716,0,0,0,,0,78,78,252,1,
,,,,,,,,,,,,,,,,,,5ee4aab1232e9d1b4d791bae,2020-08-10_16h23.36.107,lexical_decision_task_MP,2020.1.3,Win32,60,,z,1,1.074685,,,,,,,,1.074685,1,,,,,,426,NW,UN,50,frudge,URIVEL,z,,,,,,0.350926057,-0.328703716,0,0,0,,0,79,79,425,1,
,,,,,,,,,,,,,,,,,,5ee4aab1232e9d1b4d791bae,2020-08-10_16h23.36.107,lexical_decision_task_MP,2020.1.3,Win32,60,,m,1,0.503645,,,,,,,,0.503645,1,,,,,,5,WORD,"ID",33,plunge,PLUNGE,m,,,,,,0.350926057,-0.328703716,0,0,0,,0,80,80,4,1,
,,,,,,,,,,,,,,,,,,5ee4aab1232e9d1b4d791bae,2020-08-10_16h23.36.107,lexical_decision_task_MP,2020.1.3,Win32,60,,z,1,0.70725,,,,,,,,0.70725,1,,,,,,359,NW,"ID",50,fonver,FONVER,z,,,,,,0.350926057,-0.328703716,0,0,0,,0,81,81,358,1,
,,,,,,,,,,,,,,,,,,5ee4aab1232e9d1b4d791bae,2020-08-10_16h23.36.107,lexical_decision_task_MP,2020.1.3,Win32,60,,m,1,0.72247,,,,,,,,0.72247,1,,,,,,2,WORD,"ID",33,bridge,BRIDGE,m,,,,,,0.350926057,-0.328703716,0,0,0,,0,82,82,1,1,
,,,,,,,,,,,,,,,,,,5ee4aab1232e9d1b4d791bae,2020-08-10_16h23.36.107,lexical_decision_task_MP,2020.1.3,Win32,60,,z,1,0.74966,,,,,,,,0.74966,1,,,,,,437,NW,UN,50,baitch,SNAPEL,z,,,,,,0.350926057,-0.328703716,0,0,0,,0,83,83,436,1,
,,,,,,,,,,,,,,,,,,5ee4aab1232e9d1b4d791bae,2020-08-10_16h23.36.107,lexical_decision_task_MP,2020.1.3,Win32,60,,m,1,0.642575,,,,,,,,0.642575,1,,,,,,121,WORD,UN,33,linger,THRIVE,m,,,,,,0.350926057,-0.328703716,0,0,0,,0,84,84,120,1,
,,,,,,,,,,,,,,,,,,5ee4aab1232e9d1b4d791bae,2020-08-10_16h23.36.107,lexical_decision_task_MP,2020.1.3,Win32,60,,z,1,1.08337,,,,,,,,1.08337,1,,,,,,285,NW,"ID",33,prudge,PRUDGE,z,,,,,,0.350926057,-0.328703716,0,0,0,,0,85,85,284,1,
,,,,,,,,,,,,,,,,,,5ee4aab1232e9d1b4d791bae,2020-08-10_16h23.36.107,lexical_decision_task_MP,2020.1.3,Win32,60,,z,1,0.99861,,,,,,,,0.99861,1,,,,,,283,NW,"ID",33,veralf,VERALF,z,,,,,,0.350926057,-0.328703716,0,0,0,,0,86,86,282,1,
,,,,,,,,,,,,,,,,,,5ee4aab1232e9d1b4d791bae,2020-08-10_16h23.36.107,lexical_decision_task_MP,2020.1.3,Win32,60,,z,1,0.7806,,,,,,,,0.7806,1,,,,,,297,NW,"ID",33,fertic,FERTIC,z,,,,,,0.350926057,-0.328703716,0,0,0,,0,87,87,296,1,
,,,,,,,,,,,,,,,,,,5ee4aab1232e9d1b4d791bae,2020-08-10_16h23.36.107,lexical_decision_task_MP,2020.1.3,Win32,60,,m,1,0.693375,,,,,,,,0.693375,1,,,,,,18,WORD,"ID",33,humble,HUMBLE,m,,,,,,0.350926057,-0.328703716,0,0,0,,0,88,88,17,1,
,,,,,,,,,,,,,,,,,,5ee4aab1232e9d1b4d791bae,2020-08-10_16h23.36.107,lexical_decision_task_MP,2020.1.3,Win32,60,,z,1,0.735105,,,,,,,,0.735105,1,,,,,,304,NW,"ID",50,cludie,CLUDIE,z,,,,,,0.350926057,-0.328703716,0,0,0,,0,89,89,303,1,
,,,,,,,,,,,,,,,,,,5ee4aab1232e9d1b4d791bae,2020-08-10_16h23.36.107,lexical_decision_task_MP,2020.1.3,Win32,60,,m,1,0.99823,,,,,,,,0.99823,1,,,,,,74,WORD,"ID",50,plaque,PLAQUE,m,,,,,,0.350926057,-0.328703716,0,0,0,,0,90,90,73,1,
,,,,,,,,,,,,,,,,,,5ee4aab1232e9d1b4d791bae,2020-08-10_16h23.36.107,lexical_decision_task_MP,2020.1.3,Win32,60,,m,1,0.77096,,,,,,,,0.77096,1,,,,,,181,WORD,UN,50,winter,GLANCE,m,,,,,,0.350926057,-0.328703716,0,0,0,,0,91,91,180,1,
,,,,,,,,,,,,,,,,,,5ee4aab1232e9d1b4d791bae,2020-08-10_16h23.36.107,lexical_decision_task_MP,2020.1.3,Win32,60,,m,1,0.5699,,,,,,,,0.5699,1,,,,,,9,WORD,"ID",33,hustle,HUSTLE,m,,,,,,0.350926057,-0.328703716,0,0,0,,0,92,92,8,1,
,,,,,,,,,,,,,,,,,,5ee4aab1232e9d1b4d791bae,2020-08-10_16h23.36.107,lexical_decision_task_MP,2020.1.3,Win32,60,,z,1,0.635855,,,,,,,,0.635855,1,,,,,,386,NW,UN,33,gronce,ANCUST,z,,,,,,0.350926057,-0.328703716,0,0,0,,0,93,93,385,1,
,,,,,,,,,,,,,,,,,,5ee4aab1232e9d1b4d791bae,2020-08-10_16h23.36.107,lexical_decision_task_MP,2020.1.3,Win32,60,,z,1,0.85283,,,,,,,,0.85283,1,,,,,,331,NW,"ID",50,gilfew,GILFEW,z,,,,,,0.350926057,-0.328703716,0,0,0,,0,94,94,330,1,
,,,,,,,,,,,,,,,,,,5ee4aab1232e9d1b4d791bae,2020-08-10_16h23.36.107,lexical_decision_task_MP,2020.1.3,Win32,60,,z,1,0.537,,,,,,,,0.537,1,,,,,,413,NW,UN,33,serbol,EQUATS,z,,,,,,0.350926057,-0.328703716,0,0,0,,0,95,95,412,1,
,,,,,,,,,,,,,,,,,,5ee4aab1232e9d1b4d791bae,2020-08-10_16h23.36.107,lexical_decision_task_MP,2020.1.3,Win32,60,,z,1,1.60721,,,,,,,,1.60721,1,,,,,,355,NW,"ID",50,zingly,ZINGLY,z,,,,,,0.350926057,-0.328703716,0,0,0,,0,96,96,354,1,
,,,,,,,,,,,,,,,,,,5ee4aab1232e9d1b4d791bae,2020-08-10_16h23.36.107,lexical_decision_task_MP,2020.1.3,Win32,60,,m,1,0.648765,,,,,,,,0.648765,1,,,,,,78,WORD,"ID",50,column,COLUMN,m,,,,,,0.350926057,-0.328703716,0,0,0,,0,97,97,77,1,
,,,,,,,,,,,,,,,,,,5ee4aab1232e9d1b4d791bae,2020-08-10_16h23.36.107,lexical_decision_task_MP,2020.1.3,Win32,60,,m,1,0.60171,,,,,,,,0.60171,1,,,,,,87,WORD,"ID",50,filter,FILTER,m,,,,,,0.350926057,-0.328703716,0,0,0,,0,98,98,86,1,
,,,,,,,,,,,,,,,,,,5ee4aab1232e9d1b4d791bae,2020-08-10_16h23.36.107,lexical_decision_task_MP,2020.1.3,Win32,60,,z,1,0.6811,,,,,,,,0.6811,1,,,,,,414,NW,UN,33,higsta,SERBOL,z,,,,,,0.350926057,-0.328703716,0,0,0,,0,99,99,413,1,
,,,,,,,,,,,,,,,,,,5ee4aab1232e9d1b4d791bae,2020-08-10_16h23.36.107,lexical_decision_task_MP,2020.1.3,Win32,60,,m,1,0.63604,,,,,,,,0.63604,1,,,,,,220,WORD,UN,50,mascot,VOYAGE,m,,,,,,0.350926057,-0.328703716,0,0,0,,0,100,100,219,1,
,,,,,,,,,,,,,,,,,,5ee4aab1232e9d1b4d791bae,2020-08-10_16h23.36.107,lexical_decision_task_MP,2020.1.3,Win32,60,,m,1,0.77369,,,,,,,,0.77369,1,,,,,,222,WORD,UN,50,casino,HINDER,m,,,,,,0.350926057,-0.328703716,0,0,0,,0,101,101,221,1,
,,,,,,,,,,,,,,,,,,5ee4aab1232e9d1b4d791bae,2020-08-10_16h23.36.107,lexical_decision_task_MP,2020.1.3,Win32,60,,m,1,1.141085,,,,,,,,1.141085,1,,,,,,209,WORD,UN,50,monkey,SEARCH,m,,,,,,0.350926057,-0.328703716,0,0,0,,0,102,102,208,1,
,,,,,,,,,,,,,,,,,,5ee4aab1232e9d1b4d791bae,2020-08-10_16h23.36.107,lexical_decision_task_MP,2020.1.3,Win32,60,,m,1,0.6488,,,,,,,,0.6488,1,,,,,,203,WORD,UN,50,burden,PHRASE,m,,,,,,0.350926057,-0.328703716,0,0,0,,0,103,103,202,1,
,,,,,,,,,,,,,,,,,,5ee4aab1232e9d1b4d791bae,2020-08-10_16h23.36.107,lexical_decision_task_MP,2020.1.3,Win32,60,,m,1,0.715715,,,,,,,,0.715715,1,,,,,,90,WORD,"ID",50,relish,RELISH,m,,,,,,0.350926057,-0.328703716,0,0,0,,0,104,104,89,1,
,,,,,,,,,,,,,,,,,,5ee4aab1232e9d1b4d791bae,2020-08-10_16h23.36.107,lexical_decision_task_MP,2020.1.3,Win32,60,,z,1,0.760485,,,,,,,,0.760485,1,,,,,,445,NW,UN,50,runamo,MINKEL,z,,,,,,0.350926057,-0.328703716,0,0,0,,0,105,105,444,1,
,,,,,,,,,,,,,,,,,,5ee4aab1232e9d1b4d791bae,2020-08-10_16h23.36.107,lexical_decision_task_MP,2020.1.3,Win32,60,,z,1,0.615285,,,,,,,,0.615285,1,,,,,,327,NW,"ID",50,plenac,PLENAC,z,,,,,,0.350926057,-0.328703716,0,0,0,,0,106,106,326,1,
,,,,,,,,,,,,,,,,,,5ee4aab1232e9d1b4d791bae,2020-08-10_16h23.36.107,lexical_decision_task_MP,2020.1.3,Win32,60,,m,1,0.70642,,,,,,,,0.70642,1,,,,,,99,WORD,"ID",50,fluent,FLUENT,m,,,,,,0.350926057,-0.328703716,0,0,0,,0,107,107,98,1,
,,,,,,,,,,,,,,,,,,5ee4aab1232e9d1b4d791bae,2020-08-10_16h23.36.107,lexical_decision_task_MP,2020.1.3,Win32,60,,z,1,0.639485,,,,,,,,0.639485,1,,,,,,403,NW,UN,33,cluirm,BRUATS,z,,,,,,0.350926057,-0.328703716,0,0,0,,0,108,108,402,1,
,,,,,,,,,,,,,,,,,,5ee4aab1232e9d1b4d791bae,2020-08-10_16h23.36.107,lexical_decision_task_MP,2020.1.3,Win32,60,,m,1,0.603975,,,,,,,,0.603975,1,,,,,,42,WORD,"ID",33,chapel,CHAPEL,m,,,,,,0.350926057,-0.328703716,0,0,0,,0,109,109,41,1,
,,,,,,,,,,,,,,,,,,5ee4aab1232e9d1b4d791bae,2020-08-10_16h23.36.107,lexical_decision_task_MP,2020.1.3,Win32,60,,z,1,0.72326,,,,,,,,0.72326,1,,,,,,264,NW,"ID",33,vackel,VACKEL,z,,,,,,0.350926057,-0.328703716,0,0,0,,0,110,110,263,1,
,,,,,,,,,,,,,,,,,,5ee4aab1232e9d1b4d791bae,2020-08-10_16h23.36.107,lexical_decision_task_MP,2020.1.3,Win32,60,,m,1,0.626015,,,,,,,,0.626015,1,,,,,,240,WORD,UN,50,glance,FOREST,m,,,,,,0.350926057,-0.328703716,0,0,0,,0,111,111,239,1,
,,,,,,,,,,,,,,,,,,5ee4aab1232e9d1b4d791bae,2020-08-10_16h23.36.107,lexical_decision_task_MP,2020.1.3,Win32,60,,m,1,0.51548,,,,,,,,0.51548,1,,,,,,150,WORD,UN,33,mystic,RANDOM,m,,,,,,0.350926057,-0.328703716,0,0,0,,0,112,112,149,1,
,,,,,,,,,,,,,,,,,,5ee4aab1232e9d1b4d791bae,2020-08-10_16h23.36.107,lexical_decision_task_MP,2020.1.3,Win32,60,,m,1,0.63702,,,,,,,,0.63702,1,,,,,,33,WORD,"ID",33,butler,BUTLER,m,,,,,,0.350926057,-0.328703716,0,0,0,,0,113,113,32,1,
,,,,,,,,,,,,,,,,,,5ee4aab1232e9d1b4d791bae,2020-08-10_16h23.36.107,lexical_decision_task_MP,2020.1.3,Win32,60,,m,1,0.600915,,,,,,,,0.600915,1,,,,,,41,WORD,"ID",33,spring,SPRING,m,,,,,,0.350926057,-0.328703716,0,0,0,,0,114,114,40,1,
,,,,,,,,,,,,,,,,,,5ee4aab1232e9d1b4d791bae,2020-08-10_16h23.36.107,lexical_decision_task_MP,2020.1.3,Win32,60,,z,1,0.617255,,,,,,,,0.617255,1,,,,,,412,NW,UN,33,equats,JILUER,z,,,,,,0.350926057,-0.328703716,0,0,0,,0,115,115,411,1,
,,,,,,,,,,,,,,,,,,5ee4aab1232e9d1b4d791bae,2020-08-10_16h23.36.107,lexical_decision_task_MP,2020.1.3,Win32,60,,z,1,0.78808,,,,,,,,0.78808,1,,,,,,244,NW,"ID",33,eatric,EATRIC,z,,,,,,0.350926057,-0.328703716,0,0,0,,0,116,116,243,1,
,,,,,,,,,,,,,,,,,,5ee4aab1232e9d1b4d791bae,2020-08-10_16h23.36.107,lexical_decision_task_MP,2020.1.3,Win32,60,,z,1,0.71512,,,,,,,,0.71512,1,,,,,,418,NW,UN,33,slount,SUIDLE,z,,,,,,0.350926057,-0.328703716,0,0,0,,0,117,117,417,1,
,,,,,,,,,,,,,,,,,,5ee4aab1232e9d1b4d791bae,2020-08-10_16h23.36.107,lexical_decision_task_MP,2020.1.3,Win32,60,,m,1,0.655165,,,,,,,,0.655165,1,,,,,,26,WORD,"ID",33,sprint,SPRINT,m,,,,,,0.350926057,-0.328703716,0,0,0,,0,118,118,25,1,
,,,,,,,,,,,,,,,,,,5ee4aab1232e9d1b4d791bae,2020-08-10_16h23.36.107,lexical_decision_task_MP,2020.1.3,Win32,60,,z,1,0.6314,,,,,,,,0.6314,1,,,,,,317,NW,"ID",50,worbal,WORBAL,z,,,,,,0.350926057,-0.328703716,0,0,0,,0,119,119,316,1,
,,,,,,,,,,,,,,,,,,5ee4aab1232e9d1b4d791bae,2020-08-10_16h23.36.107,lexical_decision_task_MP,2020.1.3,Win32,60,,m,1,0.671985,,,,,,,,0.671985,1,,,,,,126,WORD,UN,33,castle,ENOUGH,m,,,,,,0.350926057,-0.328703716,0,0,0,space,0,120,120,125,1,5.92332
,,,,,,,,,,,,,,,,,,5ee4aab1232e9d1b4d791bae,2020-08-10_16h23.36.107,lexical_decision_task_MP,2020.1.3,Win32,60,,m,1,0.65192,,,,,,,,0.65192,1,,,,,,75,WORD,"ID",50,trophy,TROPHY,m,,,,,,0.350926057,-0.328703716,0,0,0,,0,121,121,74,1,
,,,,,,,,,,,,,,,,,,5ee4aab1232e9d1b4d791bae,2020-08-10_16h23.36.107,lexical_decision_task_MP,2020.1.3,Win32,60,,z,1,0.794075,,,,,,,,0.794075,1,,,,,,465,NW,UN,50,hocite,WHIVEX,z,,,,,,0.350926057,-0.328703716,0,0,0,,0,122,122,464,1,
,,,,,,,,,,,,,,,,,,5ee4aab1232e9d1b4d791bae,2020-08-10_16h23.36.107,lexical_decision_task_MP,2020.1.3,Win32,60,,z,1,0.833745,,,,,,,,0.833745,1,,,,,,417,NW,UN,33,suidle,EAROUD,z,,,,,,0.350926057,-0.328703716,0,0,0,,0,123,123,416,1,
,,,,,,,,,,,,,,,,,,5ee4aab1232e9d1b4d791bae,2020-08-10_16h23.36.107,lexical_decision_task_MP,2020.1.3,Win32,60,,m,1,0.59074,,,,,,,,0.59074,1,,,,,,4,WORD,"ID",33,trench,TRENCH,m,,,,,,0.350926057,-0.328703716,0,0,0,,0,124,124,3,1,
,,,,,,,,,,,,,,,,,,5ee4aab1232e9d1b4d791bae,2020-08-10_16h23.36.107,lexical_decision_task_MP,2020.1.3,Win32,60,,z,1,0.754795,,,,,,,,0.754795,1,,,,,,424,NW,UN,50,urivel,PRAILE,z,,,,,,0.350926057,-0.328703716,0,0,0,,0,125,125,423,1,
,,,,,,,,,,,,,,,,,,5ee4aab1232e9d1b4d791bae,2020-08-10_16h23.36.107,lexical_decision_task_MP,2020.1.3,Win32,60,,z,1,0.59057,,,,,,,,0.59057,1,,,,,,302,NW,"ID",50,miluer,MILUER,z,,,,,,0.350926057,-0.328703716,0,0,0,,0,126,126,301,1,
,,,,,,,,,,,,,,,,,,5ee4aab1232e9d1b4d791bae,2020-08-10_16h23.36.107,lexical_decision_task_MP,2020.1.3,Win32,60,,z,1,0.705465,,,,,,,,0.705465,1,,,,,,472,NW,UN,50,crible,CIGNEY,z,,,,,,0.350926057,-0.328703716,0,0,0,,0,127,127,471,1,
,,,,,,,,,,,,,,,,,,5ee4aab1232e9d1b4d791bae,2020-08-10_16h23.36.107,lexical_decision_task_MP,2020.1.3,Win32,60,,z,1,0.75231,,,,,,,,0.75231,1,,,,,,361,NW,UN,33,tireau,PAUCHE,z,,,,,,0.350926057,-0.328703716,0,0,0,,0,128,128,360,1,
,,,,,,,,,,,,,,,,,,5ee4aab1232e9d1b4d791bae,2020-08-10_16h23.36.107,lexical_decision_task_MP,2020.1.3,Win32,60,,z,1,0.592625,,,,,,,,0.592625,1,,,,,,288,NW,"ID",33,yaceup,YACEUP,z,,,,,,0.350926057,-0.328703716,0,0,0,,0,129,129,287,1,
,,,,,,,,,,,,,,,,,,5ee4aab1232e9d1b4d791bae,2020-08-10_16h23.36.107,lexical_decision_task_MP,2020.1.3,Win32,60,,m,1,0.679355,,,,,,,,0.679355,1,,,,,,114,WORD,"ID",50,placid,PLACID,m,,,,,,0.350926057,-0.328703716,0,0,0,,0,130,130,113,1,
,,,,,,,,,,,,,,,,,,5ee4aab1232e9d1b4d791bae,2020-08-10_16h23.36.107,lexical_decision_task_MP,2020.1.3,Win32,60,,m,1,0.48287,,,,,,,,0.48287,1,,,,,,182,WORD,UN,50,basket,WINTER,m,,,,,,0.350926057,-0.328703716,0,0,0,,0,131,131,181,1,
,,,,,,,,,,,,,,,,,,5ee4aab1232e9d1b4d791bae,2020-08-10_16h23.36.107,lexical_decision_task_MP,2020.1.3,Win32,60,,z,1,0.64682,,,,,,,,0.64682,1,,,,,,448,NW,UN,50,brunge,SADENT,z,,,,,,0.350926057,-0.328703716,0,0,0,,0,132,132,447,1,
,,,,,,,,,,,,,,,,,,5ee4aab1232e9d1b4d791bae,2020-08-10_16h23.36.107,lexical_decision_task_MP,2020.1.3,Win32,60,,m,1,0.616935,,,,,,,,0.616935,1,,,,,,235,WORD,UN,50,pirate,GRUMPY,m,,,,,,0.350926057,-0.328703716,0,0,0,,0,133,133,234,1,
,,,,,,,,,,,,,,,,,,5ee4aab1232e9d1b4d791bae,2020-08-10_16h23.36.107,lexical_decision_task_MP,2020.1.3,Win32,60,,m,1,1.13071,,,,,,,,1.13071,1,,,,,,230,WORD,UN,50,export,FRINGE,m,,,,,,0.350926057,-0.328703716,0,0,0,,0,134,134,229,1,
,,,,,,,,,,,,,,,,,,5ee4aab1232e9d1b4d791bae,2020-08-10_16h23.36.107,lexical_decision_task_MP,2020.1.3,Win32,60,,z,1,0.77353,,,,,,,,0.77353,1,,,,,,310,NW,"ID",50,daniet,DANIET,z,,,,,,0.350926057,-0.328703716,0,0,0,,0,135,135,309,1,
,,,,,,,,,,,,,,,,,,5ee4aab1232e9d1b4d791bae,2020-08-10_16h23.36.107,lexical_decision_task_MP,2020.1.3,Win32,60,,m,1,0.550645,,,,,,,,0.550645,1,,,,,,132,WORD,UN,33,bleach,STRONG,m,,,,,,0.350926057,-0.328703716,0,0,0,,0,136,136,131,1,
,,,,,,,,,,,,,,,,,,5ee4aab1232e9d1b4d791bae,2020-08-10_16h23.36.107,lexical_decision_task_MP,2020.1.3,Win32,60,,m,1,0.80989,,,,,,,,0.80989,1,,,,,,117,WORD,"ID",50,branch,BRANCH,m,,,,,,0.350926057,-0.328703716,0,0,0,,0,137,137,116,1,
,,,,,,,,,,,,,,,,,,5ee4aab1232e9d1b4d791bae,2020-08-10_16h23.36.107,lexical_decision_task_MP,2020.1.3,Win32,60,,m,1,1.74845,,,,,,,,1.74845,1,,,,,,106,WORD,"ID",50,ransom,RANSOM,m,,,,,,0.350926057,-0.328703716,0,0,0,,0,138,138,105,1,
,,,,,,,,,,,,,,,,,,5ee4aab1232e9d1b4d791bae,2020-08-10_16h23.36.107,lexical_decision_task_MP,2020.1.3,Win32,60,,m,1,0.69832,,,,,,,,0.69832,1,,,,,,217,WORD,UN,50,shrink,LIQUOR,m,,,,,,0.350926057,-0.328703716,0,0,0,,0,139,139,216,1,
,,,,,,,,,,,,,,,,,,5ee4aab1232e9d1b4d791bae,2020-08-10_16h23.36.107,lexical_decision_task_MP,2020.1.3,Win32,60,,m,1,0.48153,,,,,,,,0.48153,1,,,,,,158,WORD,UN,33,detail,ISLAND,m,,,,,,0.350926057,-0.328703716,0,0,0,,0,140,140,157,1,
,,,,,,,,,,,,,,,,,,5ee4aab1232e9d1b4d791bae,2020-08-10_16h23.36.107,lexical_decision_task_MP,2020.1.3,Win32,60,,z,1,0.448635,,,,,,,,0.448635,1,,,,,,436,NW,UN,50,snapel,FRUTAN,z,,,,,,0.350926057,-0.328703716,0,0,0,,0,141,141,435,1,
,,,,,,,,,,,,,,,,,,5ee4aab1232e9d1b4d791bae,2020-08-10_16h23.36.107,lexical_decision_task_MP,2020.1.3,Win32,60,,z,1,0.501475,,,,,,,,0.501475,1,,,,,,451,NW,UN,50,surden,CAINKY,z,,,,,,0.350926057,-0.328703716,0,0,0,,0,142,142,450,1,
,,,,,,,,,,,,,,,,,,5ee4aab1232e9d1b4d791bae,2020-08-10_16h23.36.107,lexical_decision_task_MP,2020.1.3,Win32,60,,z,1,0.62537,,,,,,,,0.62537,1,,,,,,461,NW,UN,50,absult,JUSTRE,z,,,,,,0.350926057,-0.328703716,0,0,0,,0,143,143,460,1,
,,,,,,,,,,,,,,,,,,5ee4aab1232e9d1b4d791bae,2020-08-10_16h23.36.107,lexical_decision_task_MP,2020.1.3,Win32,60,,z,1,0.621295,,,,,,,,0.621295,1,,,,,,377,NW,UN,33,shrile,INJORE,z,,,,,,0.350926057,-0.328703716,0,0,0,,0,144,144,376,1,
,,,,,,,,,,,,,,,,,,5ee4aab1232e9d1b4d791bae,2020-08-10_16h23.36.107,lexical_decision_task_MP,2020.1.3,Win32,60,,z,1,0.45768,,,,,,,,0.45768,1,,,,,,274,NW,"ID",33,fumblo,FUMBLO,z,,,,,,0.350926057,-0.328703716,0,0,0,,0,145,145,273,1,
,,,,,,,,,,,,,,,,,,5ee4aab1232e9d1b4d791bae,2020-08-10_16h23.36.107,lexical_decision_task_MP,2020.1.3,Win32,60,,z,1,0.60021,,,,,,,,0.60021,1,,,,,,325,NW,"ID",50,thruse,THRUSE,z,,,,,,0.350926057,-0.328703716,0,0,0,,0,146,146,324,1,
,,,,,,,,,,,,,,,,,,5ee4aab1232e9d1b4d791bae,2020-08-10_16h23.36.107,lexical_decision_task_MP,2020.1.3,Win32,60,,m,1,0.46976,,,,,,,,0.46976,1,,,,,,1,WORD,"ID",33,fright,FRIGHT,m,,,,,,0.350926057,-0.328703716,0,0,0,,0,147,147,0,1,
,,,,,,,,,,,,,,,,,,5ee4aab1232e9d1b4d791bae,2020-08-10_16h23.36.107,lexical_decision_task_MP,2020.1.3,Win32,60,,m,1,0.46881,,,,,,,,0.46881,1,,,,,,218,WORD,UN,50,bucket,SHRINK,m,,,,,,0.350926057,-0.328703716,0,0,0,,0,148,148,217,1,
,,,,,,,,,,,,,,,,,,5ee4aab1232e9d1b4d791bae,2020-08-10_16h23.36.107,lexical_decision_task_MP,2020.1.3,Win32,60,,m,1,0.5709,,,,,,,,0.5709,1,,,,,,28,WORD,"ID",33,comedy,COMEDY,m,,,,,,0.350926057,-0.328703716,0,0,0,,0,149,149,27,1,
,,,,,,,,,,,,,,,,,,5ee4aab1232e9d1b4d791bae,2020-08-10_16h23.36.107,lexical_decision_task_MP,2020.1.3,Win32,60,,z,1,0.66376,,,,,,,,0.66376,1,,,,,,473,NW,UN,50,hablin,CRIBLE,z,,,,,,0.350926057,-0.328703716,0,0,0,,0,150,150,472,1,
,,,,,,,,,,,,,,,,,,5ee4aab1232e9d1b4d791bae,2020-08-10_16h23.36.107,lexical_decision_task_MP,2020.1.3,Win32,60,,m,1,0.571945,,,,,,,,0.571945,1,,,,,,134,WORD,UN,33,import,STAPLE,m,,,,,,0.350926057,-0.328703716,0,0,0,,0,151,151,133,1,
,,,,,,,,,,,,,,,,,,5ee4aab1232e9d1b4d791bae,2020-08-10_16h23.36.107,lexical_decision_task_MP,2020.1.3,Win32,60,,m,1,0.824765,,,,,,,,0.824765,1,,,,,,11,WORD,"ID",33,cruise,CRUISE,m,,,,,,0.350926057,-0.328703716,0,0,0,,0,152,152,10,1,
,,,,,,,,,,,,,,,,,,5ee4aab1232e9d1b4d791bae,2020-08-10_16h23.36.107,lexical_decision_task_MP,2020.1.3,Win32,60,,m,1,0.464955,,,,,,,,0.464955,1,,,,,,55,WORD,"ID",33,stroke,STROKE,m,,,,,,0.350926057,-0.328703716,0,0,0,,0,153,153,54,1,
,,,,,,,,,,,,,,,,,,5ee4aab1232e9d1b4d791bae,2020-08-10_16h23.36.107,lexical_decision_task_MP,2020.1.3,Win32,60,,z,1,0.60448,,,,,,,,0.60448,1,,,,,,367,NW,UN,33,hornal,SLIQUE,z,,,,,,0.350926057,-0.328703716,0,0,0,,0,154,154,366,1,
,,,,,,,,,,,,,,,,,,5ee4aab1232e9d1b4d791bae,2020-08-10_16h23.36.107,lexical_decision_task_MP,2020.1.3,Win32,60,,m,0,0.58858,,,,,,,,0.58858,0,,,,,,303,NW,"ID",50,fiream,FIREAM,z,,,,,,0.350926057,-0.328703716,0,0,0,,0,155,155,302,1,
,,,,,,,,,,,,,,,,,,5ee4aab1232e9d1b4d791bae,2020-08-10_16h23.36.107,lexical_decision_task_MP,2020.1.3,Win32,60,,z,1,1.230845,,,,,,,,1.230845,1,,,,,,291,NW,"ID",33,pretch,PRETCH,z,,,,,,0.350926057,-0.328703716,0,0,0,,0,156,156,290,1,
,,,,,,,,,,,,,,,,,,5ee4aab1232e9d1b4d791bae,2020-08-10_16h23.36.107,lexical_decision_task_MP,2020.1.3,Win32,60,,m,1,0.63679,,,,,,,,0.63679,1,,,,,,50,WORD,"ID",33,snatch,SNATCH,m,,,,,,0.350926057,-0.328703716,0,0,0,,0,157,157,49,1,
,,,,,,,,,,,,,,,,,,5ee4aab1232e9d1b4d791bae,2020-08-10_16h23.36.107,lexical_decision_task_MP,2020.1.3,Win32,60,,z,1,1.23337,,,,,,,,1.23337,1,,,,,,313,NW,"ID",50,paurse,PAURSE,z,,,,,,0.350926057,-0.328703716,0,0,0,,0,158,158,312,1,
,,,,,,,,,,,,,,,,,,5ee4aab1232e9d1b4d791bae,2020-08-10_16h23.36.107,lexical_decision_task_MP,2020.1.3,Win32,60,,z,1,0.63464,,,,,,,,0.63464,1,,,,,,464,NW,UN,50,whivex,CHAITE,z,,,,,,0.350926057,-0.328703716,0,0,0,,0,159,159,463,1,
,,,,,,,,,,,,,,,,,,5ee4aab1232e9d1b4d791bae,2020-08-10_16h23.36.107,lexical_decision_task_MP,2020.1.3,Win32,60,,z,1,0.58169,,,,,,,,0.58169,1,,,,,,470,NW,UN,50,nobest,CRUDIO,z,,,,,,0.350926057,-0.328703716,0,0,0,,0,160,160,469,1,
,,,,,,,,,,,,,,,,,,5ee4aab1232e9d1b4d791bae,2020-08-10_16h23.36.107,lexical_decision_task_MP,2020.1.3,Win32,60,,m,1,0.537365,,,,,,,,0.537365,1,,,,,,14,WORD,"ID",33,almost,ALMOST,m,,,,,,0.350926057,-0.328703716,0,0,0,,0,161,161,13,1,
,,,,,,,,,,,,,,,,,,5ee4aab1232e9d1b4d791bae,2020-08-10_16h23.36.107,lexical_decision_task_MP,2020.1.3,Win32,60,,m,1,0.56971,,,,,,,,0.56971,1,,,,,,56,WORD,"ID",33,ambush,AMBUSH,m,,,,,,0.350926057,-0.328703716,0,0,0,,0,162,162,55,1,
,,,,,,,,,,,,,,,,,,5ee4aab1232e9d1b4d791bae,2020-08-10_16h23.36.107,lexical_decision_task_MP,2020.1.3,Win32,60,,m,1,0.54833,,,,,,,,0.54833,1,,,,,,39,WORD,"ID",33,insect,INSECT,m,,,,,,0.350926057,-0.328703716,0,0,0,,0,163,163,38,1,
,,,,,,,,,,,,,,,,,,5ee4aab1232e9d1b4d791bae,2020-08-10_16h23.36.107,lexical_decision_task_MP,2020.1.3,Win32,60,,m,1,0.727035,,,,,,,,0.727035,1,,,,,,227,WORD,UN,50,master,SELDOM,m,,,,,,0.350926057,-0.328703716,0,0,0,,0,164,164,226,1,
,,,,,,,,,,,,,,,,,,5ee4aab1232e9d1b4d791bae,2020-08-10_16h23.36.107,lexical_decision_task_MP,2020.1.3,Win32,60,,m,1,0.772635,,,,,,,,0.772635,1,,,,,,16,WORD,"ID",33,faucet,FAUCET,m,,,,,,0.350926057,-0.328703716,0,0,0,,0,165,165,15,1,
,,,,,,,,,,,,,,,,,,5ee4aab1232e9d1b4d791bae,2020-08-10_16h23.36.107,lexical_decision_task_MP,2020.1.3,Win32,60,,m,1,0.66817,,,,,,,,0.66817,1,,,,,,216,WORD,UN,50,liquor,BEHALF,m,,,,,,0.350926057,-0.328703716,0,0,0,,0,166,166,215,1,
,,,,,,,,,,,,,,,,,,5ee4aab1232e9d1b4d791bae,2020-08-10_16h23.36.107,lexical_decision_task_MP,2020.1.3,Win32,60,,z,1,0.8475,,,,,,,,0.8475,1,,,,,,476,NW,UN,50,photie,JOSTED,z,,,,,,0.350926057,-0.328703716,0,0,0,,0,167,167,475,1,
,,,,,,,,,,,,,,,,,,5ee4aab1232e9d1b4d791bae,2020-08-10_16h23.36.107,lexical_decision_task_MP,2020.1.3,Win32,60,,z,1,0.69543,,,,,,,,0.69543,1,,,,,,382,NW,UN,33,aungre,SARLEY,z,,,,,,0.350926057,-0.328703716,0,0,0,,0,168,168,381,1,
,,,,,,,,,,,,,,,,,,5ee4aab1232e9d1b4d791bae,2020-08-10_16h23.36.107,lexical_decision_task_MP,2020.1.3,Win32,60,,z,1,0.618815,,,,,,,,0.618815,1,,,,,,449,NW,UN,50,phrect,BRUNGE,z,,,,,,0.350926057,-0.328703716,0,0,0,,0,169,169,448,1,
,,,,,,,,,,,,,,,,,,5ee4aab1232e9d1b4d791bae,2020-08-10_16h23.36.107,lexical_decision_task_MP,2020.1.3,Win32,60,,m,1,0.6829,,,,,,,,0.6829,1,,,,,,192,WORD,UN,50,object,PLAGUE,m,,,,,,0.350926057,-0.328703716,0,0,0,,0,170,170,191,1,
,,,,,,,,,,,,,,,,,,5ee4aab1232e9d1b4d791bae,2020-08-10_16h23.36.107,lexical_decision_task_MP,2020.1.3,Win32,60,,m,1,0.49988,,,,,,,,0.49988,1,,,,,,101,WORD,"ID",50,wrench,WRENCH,m,,,,,,0.350926057,-0.328703716,0,0,0,,0,171,171,100,1,
,,,,,,,,,,,,,,,,,,5ee4aab1232e9d1b4d791bae,2020-08-10_16h23.36.107,lexical_decision_task_MP,2020.1.3,Win32,60,,m,1,0.507545,,,,,,,,0.507545,1,,,,,,130,WORD,UN,33,quench,STUPID,m,,,,,,0.350926057,-0.328703716,0,0,0,,0,172,172,129,1,
,,,,,,,,,,,,,,,,,,5ee4aab1232e9d1b4d791bae,2020-08-10_16h23.36.107,lexical_decision_task_MP,2020.1.3,Win32,60,,z,1,0.73409,,,,,,,,0.73409,1,,,,,,257,NW,"ID",33,veniod,VENIOD,z,,,,,,0.350926057,-0.328703716,0,0,0,,0,173,173,256,1,
,,,,,,,,,,,,,,,,,,5ee4aab1232e9d1b4d791bae,2020-08-10_16h23.36.107,lexical_decision_task_MP,2020.1.3,Win32,60,,m,1,0.69122,,,,,,,,0.69122,1,,,,,,37,WORD,"ID",33,insult,INSULT,m,,,,,,0.350926057,-0.328703716,0,0,0,,0,174,174,36,1,
,,,,,,,,,,,,,,,,,,5ee4aab1232e9d1b4d791bae,2020-08-10_16h23.36.107,lexical_decision_task_MP,2020.1.3,Win32,60,,z,1,0.68145,,,,,,,,0.68145,1,,,,,,354,NW,"ID",50,virlex,VIRLEX,z,,,,,,0.350926057,-0.328703716,0,0,0,,0,175,175,353,1,
,,,,,,,,,,,,,,,,,,5ee4aab1232e9d1b4d791bae,2020-08-10_16h23.36.107,lexical_decision_task_MP,2020.1.3,Win32,60,,z,1,0.550215,,,,,,,,0.550215,1,,,,,,419,NW,UN,33,gushop,SLOUNT,z,,,,,,0.350926057,-0.328703716,0,0,0,,0,176,176,418,1,
,,,,,,,,,,,,,,,,,,5ee4aab1232e9d1b4d791bae,2020-08-10_16h23.36.107,lexical_decision_task_MP,2020.1.3,Win32,60,,m,1,0.69455,,,,,,,,0.69455,1,,,,,,54,WORD,"ID",33,ramble,RAMBLE,m,,,,,,0.350926057,-0.328703716,0,0,0,,0,177,177,53,1,
,,,,,,,,,,,,,,,,,,5ee4aab1232e9d1b4d791bae,2020-08-10_16h23.36.107,lexical_decision_task_MP,2020.1.3,Win32,60,,m,1,0.786885,,,,,,,,0.786885,1,,,,,,195,WORD,UN,50,credit,RESIGN,m,,,,,,0.350926057,-0.328703716,0,0,0,,0,178,178,194,1,
,,,,,,,,,,,,,,,,,,5ee4aab1232e9d1b4d791bae,2020-08-10_16h23.36.107,lexical_decision_task_MP,2020.1.3,Win32,60,,m,1,0.794885,,,,,,,,0.794885,1,,,,,,83,WORD,"ID",50,result,RESULT,m,,,,,,0.350926057,-0.328703716,0,0,0,,0,179,179,82,1,
,,,,,,,,,,,,,,,,,,5ee4aab1232e9d1b4d791bae,2020-08-10_16h23.36.107,lexical_decision_task_MP,2020.1.3,Win32,60,,m,1,0.4974,,,,,,,,0.4974,1,,,,,,103,WORD,"ID",50,bounce,BOUNCE,m,,,,,,0.350926057,-0.328703716,0,0,0,,0,180,180,102,1,
,,,,,,,,,,,,,,,,,,5ee4aab1232e9d1b4d791bae,2020-08-10_16h23.36.107,lexical_decision_task_MP,2020.1.3,Win32,60,,z,1,0.55098,,,,,,,,0.55098,1,,,,,,400,NW,UN,33,mustil,WEAROX,z,,,,,,0.350926057,-0.328703716,0,0,0,,0,181,181,399,1,
,,,,,,,,,,,,,,,,,,5ee4aab1232e9d1b4d791bae,2020-08-10_16h23.36.107,lexical_decision_task_MP,2020.1.3,Win32,60,,z,1,0.573665,,,,,,,,0.573665,1,,,,,,370,NW,UN,33,geiloy,SLEACT,z,,,,,,0.350926057,-0.328703716,0,0,0,,0,182,182,369,1,
,,,,,,,,,,,,,,,,,,5ee4aab1232e9d1b4d791bae,2020-08-10_16h23.36.107,lexical_decision_task_MP,2020.1.3,Win32,60,,z,1,0.730115,,,,,,,,0.730115,1,,,,,,300,NW,"ID",33,yarion,YARION,z,,,,,,0.350926057,-0.328703716,0,0,0,,0,183,183,299,1,
,,,,,,,,,,,,,,,,,,5ee4aab1232e9d1b4d791bae,2020-08-10_16h23.36.107,lexical_decision_task_MP,2020.1.3,Win32,60,,z,1,0.59527,,,,,,,,0.59527,1,,,,,,271,NW,"ID",33,aubrid,AUBRID,z,,,,,,0.350926057,-0.328703716,0,0,0,,0,184,184,270,1,
,,,,,,,,,,,,,,,,,,5ee4aab1232e9d1b4d791bae,2020-08-10_16h23.36.107,lexical_decision_task_MP,2020.1.3,Win32,60,,z,1,0.57397,,,,,,,,0.57397,1,,,,,,295,NW,"ID",33,gleath,GLEATH,z,,,,,,0.350926057,-0.328703716,0,0,0,,0,185,185,294,1,
,,,,,,,,,,,,,,,,,,5ee4aab1232e9d1b4d791bae,2020-08-10_16h23.36.107,lexical_decision_task_MP,2020.1.3,Win32,60,,m,1,0.64881,,,,,,,,0.64881,1,,,,,,135,WORD,UN,33,chrome,IMPORT,m,,,,,,0.350926057,-0.328703716,0,0,0,,0,186,186,134,1,
,,,,,,,,,,,,,,,,,,5ee4aab1232e9d1b4d791bae,2020-08-10_16h23.36.107,lexical_decision_task_MP,2020.1.3,Win32,60,,m,1,0.500415,,,,,,,,0.500415,1,,,,,,206,WORD,UN,50,wreath,TAILOR,m,,,,,,0.350926057,-0.328703716,0,0,0,,0,187,187,205,1,
,,,,,,,,,,,,,,,,,,5ee4aab1232e9d1b4d791bae,2020-08-10_16h23.36.107,lexical_decision_task_MP,2020.1.3,Win32,60,,m,1,0.503175,,,,,,,,0.503175,1,,,,,,6,WORD,"ID",33,bundle,BUNDLE,m,,,,,,0.350926057,-0.328703716,0,0,0,,0,188,188,5,1,
,,,,,,,,,,,,,,,,,,5ee4aab1232e9d1b4d791bae,2020-08-10_16h23.36.107,lexical_decision_task_MP,2020.1.3,Win32,60,,m,1,0.600315,,,,,,,,0.600315,1,,,,,,8,WORD,"ID",33,abrupt,ABRUPT,m,,,,,,0.350926057,-0.328703716,0,0,0,,0,189,189,7,1,
,,,,,,,,,,,,,,,,,,5ee4aab1232e9d1b4d791bae,2020-08-10_16h23.36.107,lexical_decision_task_MP,2020.1.3,Win32,60,,z,1,0.61306,,,,,,,,0.61306,1,,,,,,401,NW,UN,33,elopia,MUSTIL,z,,,,,,0.350926057,-0.328703716,0,0,0,,0,190,190,400,1,
,,,,,,,,,,,,,,,,,,5ee4aab1232e9d1b4d791bae,2020-08-10_16h23.36.107,lexical_decision_task_MP,2020.1.3,Win32,60,,z,1,0.648425,,,,,,,,0.648425,1,,,,,,425,NW,UN,50,schind,FRUDGE,z,,,,,,0.350926057,-0.328703716,0,0,0,,0,191,191,424,1,
,,,,,,,,,,,,,,,,,,5ee4aab1232e9d1b4d791bae,2020-08-10_16h23.36.107,lexical_decision_task_MP,2020.1.3,Win32,60,,z,1,0.619035,,,,,,,,0.619035,1,,,,,,254,NW,"ID",33,varosh,VAROSH,z,,,,,,0.350926057,-0.328703716,0,0,0,,0,192,192,253,1,
,,,,,,,,,,,,,,,,,,5ee4aab1232e9d1b4d791bae,2020-08-10_16h23.36.107,lexical_decision_task_MP,2020.1.3,Win32,60,,m,1,0.608635,,,,,,,,0.608635,1,,,,,,98,WORD,"ID",50,belong,BELONG,m,,,,,,0.350926057,-0.328703716,0,0,0,,0,193,193,97,1,
,,,,,,,,,,,,,,,,,,5ee4aab1232e9d1b4d791bae,2020-08-10_16h23.36.107,lexical_decision_task_MP,2020.1.3,Win32,60,,m,1,0.45213,,,,,,,,0.45213,1,,,,,,34,WORD,"ID",33,jungle,JUNGLE,m,,,,,,0.350926057,-0.328703716,0,0,0,,0,194,194,33,1,
,,,,,,,,,,,,,,,,,,5ee4aab1232e9d1b4d791bae,2020-08-10_16h23.36.107,lexical_decision_task_MP,2020.1.3,Win32,60,,z,1,0.602025,,,,,,,,0.602025,1,,,,,,287,NW,"ID",33,nymbel,NYMBEL,z,,,,,,0.350926057,-0.328703716,0,0,0,,0,195,195,286,1,
,,,,,,,,,,,,,,,,,,5ee4aab1232e9d1b4d791bae,2020-08-10_16h23.36.107,lexical_decision_task_MP,2020.1.3,Win32,60,,z,1,0.667795,,,,,,,,0.667795,1,,,,,,268,NW,"ID",33,packes,PACKES,z,,,,,,0.350926057,-0.328703716,0,0,0,,0,196,196,267,1,
,,,,,,,,,,,,,,,,,,5ee4aab1232e9d1b4d791bae,2020-08-10_16h23.36.107,lexical_decision_task_MP,2020.1.3,Win32,60,,z,1,0.833425,,,,,,,,0.833425,1,,,,,,356,NW,"ID",50,othnis,OTHNIS,z,,,,,,0.350926057,-0.328703716,0,0,0,,0,197,197,355,1,
,,,,,,,,,,,,,,,,,,5ee4aab1232e9d1b4d791bae,2020-08-10_16h23.36.107,lexical_decision_task_MP,2020.1.3,Win32,60,,m,1,0.696505,,,,,,,,0.696505,1,,,,,,127,WORD,UN,33,senior,CASTLE,m,,,,,,0.350926057,-0.328703716,0,0,0,,0,198,198,126,1,
,,,,,,,,,,,,,,,,,,5ee4aab1232e9d1b4d791bae,2020-08-10_16h23.36.107,lexical_decision_task_MP,2020.1.3,Win32,60,,z,1,0.62025,,,,,,,,0.62025,1,,,,,,383,NW,UN,33,guesco,AUNGRE,z,,,,,,0.350926057,-0.328703716,0,0,0,,0,199,199,382,1,
,,,,,,,,,,,,,,,,,,5ee4aab1232e9d1b4d791bae,2020-08-10_16h23.36.107,lexical_decision_task_MP,2020.1.3,Win32,60,,z,1,0.737845,,,,,,,,0.737845,1,,,,,,431,NW,UN,50,lunker,CHRUMS,z,,,,,,0.350926057,-0.328703716,0,0,0,,0,200,200,430,1,
,,,,,,,,,,,,,,,,,,5ee4aab1232e9d1b4d791bae,2020-08-10_16h23.36.107,lexical_decision_task_MP,2020.1.3,Win32,60,,z,1,0.637545,,,,,,,,0.637545,1,,,,,,378,NW,UN,33,auting,SHRILE,z,,,,,,0.350926057,-0.328703716,0,0,0,,0,201,201,377,1,
,,,,,,,,,,,,,,,,,,5ee4aab1232e9d1b4d791bae,2020-08-10_16h23.36.107,lexical_decision_task_MP,2020.1.3,Win32,60,,z,1,0.64813,,,,,,,,0.64813,1,,,,,,368,NW,UN,33,wronch,HORNAL,z,,,,,,0.350926057,-0.328703716,0,0,0,,0,202,202,367,1,
,,,,,,,,,,,,,,,,,,5ee4aab1232e9d1b4d791bae,2020-08-10_16h23.36.107,lexical_decision_task_MP,2020.1.3,Win32,60,,m,1,0.66474,,,,,,,,0.66474,1,,,,,,172,WORD,UN,33,shower,PATROL,m,,,,,,0.350926057,-0.328703716,0,0,0,,0,203,203,171,1,
,,,,,,,,,,,,,,,,,,5ee4aab1232e9d1b4d791bae,2020-08-10_16h23.36.107,lexical_decision_task_MP,2020.1.3,Win32,60,,m,1,0.548005,,,,,,,,0.548005,1,,,,,,148,WORD,UN,33,invade,CUSTOM,m,,,,,,0.350926057,-0.328703716,0,0,0,,0,204,204,147,1,
,,,,,,,,,,,,,,,,,,5ee4aab1232e9d1b4d791bae,2020-08-10_16h23.36.107,lexical_decision_task_MP,2020.1.3,Win32,60,,m,1,0.83676,,,,,,,,0.83676,1,,,,,,215,WORD,UN,50,behalf,PHOBIA,m,,,,,,0.350926057,-0.328703716,0,0,0,,0,205,205,214,1,
,,,,,,,,,,,,,,,,,,5ee4aab1232e9d1b4d791bae,2020-08-10_16h23.36.107,lexical_decision_task_MP,2020.1.3,Win32,60,,m,1,0.63656,,,,,,,,0.63656,1,,,,,,199,WORD,UN,50,beacon,INVOKE,m,,,,,,0.350926057,-0.328703716,0,0,0,,0,206,206,198,1,
,,,,,,,,,,,,,,,,,,5ee4aab1232e9d1b4d791bae,2020-08-10_16h23.36.107,lexical_decision_task_MP,2020.1.3,Win32,60,,m,1,0.58422,,,,,,,,0.58422,1,,,,,,231,WORD,UN,50,mother,EXPORT,m,,,,,,0.350926057,-0.328703716,0,0,0,,0,207,207,230,1,
,,,,,,,,,,,,,,,,,,5ee4aab1232e9d1b4d791bae,2020-08-10_16h23.36.107,lexical_decision_task_MP,2020.1.3,Win32,60,,z,1,0.657725,,,,,,,,0.657725,1,,,,,,375,NW,UN,33,iguare,YORQUE,z,,,,,,0.350926057,-0.328703716,0,0,0,,0,208,208,374,1,
,,,,,,,,,,,,,,,,,,5ee4aab1232e9d1b4d791bae,2020-08-10_16h23.36.107,lexical_decision_task_MP,2020.1.3,Win32,60,,m,1,0.65234,,,,,,,,0.65234,1,,,,,,32,WORD,"ID",33,buckle,BUCKLE,m,,,,,,0.350926057,-0.328703716,0,0,0,,0,209,209,31,1,
,,,,,,,,,,,,,,,,,,5ee4aab1232e9d1b4d791bae,2020-08-10_16h23.36.107,lexical_decision_task_MP,2020.1.3,Win32,60,,z,1,0.593045,,,,,,,,0.593045,1,,,,,,249,NW,"ID",33,batrol,BATROL,z,,,,,,0.350926057,-0.328703716,0,0,0,,0,210,210,248,1,
,,,,,,,,,,,,,,,,,,5ee4aab1232e9d1b4d791bae,2020-08-10_16h23.36.107,lexical_decision_task_MP,2020.1.3,Win32,60,,z,1,0.769175,,,,,,,,0.769175,1,,,,,,475,NW,UN,50,robuly,PEBRIC,z,,,,,,0.350926057,-0.328703716,0,0,0,,0,211,211,474,1,
,,,,,,,,,,,,,,,,,,5ee4aab1232e9d1b4d791bae,2020-08-10_16h23.36.107,lexical_decision_task_MP,2020.1.3,Win32,60,,m,1,0.67165,,,,,,,,0.67165,1,,,,,,226,WORD,UN,50,flower,CASINO,m,,,,,,0.350926057,-0.328703716,0,0,0,,0,212,212,225,1,
,,,,,,,,,,,,,,,,,,5ee4aab1232e9d1b4d791bae,2020-08-10_16h23.36.107,lexical_decision_task_MP,2020.1.3,Win32,60,,m,1,0.69986,,,,,,,,0.69986,1,,,,,,208,WORD,UN,50,search,HOCKEY,m,,,,,,0.350926057,-0.328703716,0,0,0,,0,213,213,207,1,
,,,,,,,,,,,,,,,,,,5ee4aab1232e9d1b4d791bae,2020-08-10_16h23.36.107,lexical_decision_task_MP,2020.1.3,Win32,60,,m,1,0.57353,,,,,,,,0.57353,1,,,,,,30,WORD,"ID",33,orient,ORIENT,m,,,,,,0.350926057,-0.328703716,0,0,0,,0,214,214,29,1,
,,,,,,,,,,,,,,,,,,5ee4aab1232e9d1b4d791bae,2020-08-10_16h23.36.107,lexical_decision_task_MP,2020.1.3,Win32,60,,z,1,0.683845,,,,,,,,0.683845,1,,,,,,250,NW,"ID",33,milted,MILTED,z,,,,,,0.350926057,-0.328703716,0,0,0,,0,215,215,249,1,
,,,,,,,,,,,,,,,,,,5ee4aab1232e9d1b4d791bae,2020-08-10_16h23.36.107,lexical_decision_task_MP,2020.1.3,Win32,60,,z,1,0.614675,,,,,,,,0.614675,1,,,,,,391,NW,UN,33,rouncy,THELDY,z,,,,,,0.350926057,-0.328703716,0,0,0,,0,216,216,390,1,
,,,,,,,,,,,,,,,,,,5ee4aab1232e9d1b4d791bae,2020-08-10_16h23.36.107,lexical_decision_task_MP,2020.1.3,Win32,60,,z,1,0.536065,,,,,,,,0.536065,1,,,,,,337,NW,"ID",50,rejols,REJOLS,z,,,,,,0.350926057,-0.328703716,0,0,0,,0,217,217,336,1,
,,,,,,,,,,,,,,,,,,5ee4aab1232e9d1b4d791bae,2020-08-10_16h23.36.107,lexical_decision_task_MP,2020.1.3,Win32,60,,m,1,0.655195,,,,,,,,0.655195,1,,,,,,59,WORD,"ID",33,splint,SPLINT,m,,,,,,0.350926057,-0.328703716,0,0,0,,0,218,218,58,1,
,,,,,,,,,,,,,,,,,,5ee4aab1232e9d1b4d791bae,2020-08-10_16h23.36.107,lexical_decision_task_MP,2020.1.3,Win32,60,,m,1,0.61653,,,,,,,,0.61653,1,,,,,,229,WORD,UN,50,fringe,MOTHER,m,,,,,,0.350926057,-0.328703716,0,0,0,,0,219,219,228,1,
,,,,,,,,,,,,,,,,,,5ee4aab1232e9d1b4d791bae,2020-08-10_16h23.36.107,lexical_decision_task_MP,2020.1.3,Win32,60,,m,0,1.57114,,,,,,,,1.57114,0,,,,,,393,NW,UN,33,spaqux,GANOUS,z,,,,,,0.350926057,-0.328703716,0,0,0,,0,220,220,392,1,
,,,,,,,,,,,,,,,,,,5ee4aab1232e9d1b4d791bae,2020-08-10_16h23.36.107,lexical_decision_task_MP,2020.1.3,Win32,60,,m,0,0.64744,,,,,,,,0.64744,0,,,,,,333,NW,"ID",50,catrie,CATRIE,z,,,,,,0.350926057,-0.328703716,0,0,0,,0,221,221,332,1,
,,,,,,,,,,,,,,,,,,5ee4aab1232e9d1b4d791bae,2020-08-10_16h23.36.107,lexical_decision_task_MP,2020.1.3,Win32,60,,m,1,0.781765,,,,,,,,0.781765,1,,,,,,136,WORD,UN,33,finger,BLEACH,m,,,,,,0.350926057,-0.328703716,0,0,0,,0,222,222,135,1,
,,,,,,,,,,,,,,,,,,5ee4aab1232e9d1b4d791bae,2020-08-10_16h23.36.107,lexical_decision_task_MP,2020.1.3,Win32,60,,m,1,0.61897,,,,,,,,0.61897,1,,,,,,45,WORD,"ID",33,clergy,CLERGY,m,,,,,,0.350926057,-0.328703716,0,0,0,,0,223,223,44,1,
,,,,,,,,,,,,,,,,,,5ee4aab1232e9d1b4d791bae,2020-08-10_16h23.36.107,lexical_decision_task_MP,2020.1.3,Win32,60,,z,1,0.59161,,,,,,,,0.59161,1,,,,,,336,NW,"ID",50,ghodus,GHODUS,z,,,,,,0.350926057,-0.328703716,0,0,0,,0,224,224,335,1,
,,,,,,,,,,,,,,,,,,5ee4aab1232e9d1b4d791bae,2020-08-10_16h23.36.107,lexical_decision_task_MP,2020.1.3,Win32,60,,m,1,0.64189,,,,,,,,0.64189,1,,,,,,94,WORD,"ID",50,travel,TRAVEL,m,,,,,,0.350926057,-0.328703716,0,0,0,,0,225,225,93,1,
,,,,,,,,,,,,,,,,,,5ee4aab1232e9d1b4d791bae,2020-08-10_16h23.36.107,lexical_decision_task_MP,2020.1.3,Win32,60,,m,1,0.50726,,,,,,,,0.50726,1,,,,,,191,WORD,UN,50,absent,STABLE,m,,,,,,0.350926057,-0.328703716,0,0,0,,0,226,226,190,1,
,,,,,,,,,,,,,,,,,,5ee4aab1232e9d1b4d791bae,2020-08-10_16h23.36.107,lexical_decision_task_MP,2020.1.3,Win32,60,,z,1,0.6587,,,,,,,,0.6587,1,,,,,,316,NW,"ID",50,scregm,SCREGM,z,,,,,,0.350926057,-0.328703716,0,0,0,,0,227,227,315,1,
,,,,,,,,,,,,,,,,,,5ee4aab1232e9d1b4d791bae,2020-08-10_16h23.36.107,lexical_decision_task_MP,2020.1.3,Win32,60,,m,1,1.135005,,,,,,,,1.135005,1,,,,,,170,WORD,UN,33,depart,POUNCE,m,,,,,,0.350926057,-0.328703716,0,0,0,,0,228,228,169,1,
,,,,,,,,,,,,,,,,,,5ee4aab1232e9d1b4d791bae,2020-08-10_16h23.36.107,lexical_decision_task_MP,2020.1.3,Win32,60,,z,1,0.954015,,,,,,,,0.954015,1,,,,,,320,NW,"ID",50,jockal,JOCKAL,z,,,,,,0.350926057,-0.328703716,0,0,0,,0,229,229,319,1,
,,,,,,,,,,,,,,,,,,5ee4aab1232e9d1b4d791bae,2020-08-10_16h23.36.107,lexical_decision_task_MP,2020.1.3,Win32,60,,z,1,0.71615,,,,,,,,0.71615,1,,,,,,363,NW,UN,33,impote,BREALI,z,,,,,,0.350926057,-0.328703716,0,0,0,,0,230,230,362,1,
,,,,,,,,,,,,,,,,,,5ee4aab1232e9d1b4d791bae,2020-08-10_16h23.36.107,lexical_decision_task_MP,2020.1.3,Win32,60,,z,1,1.100875,,,,,,,,1.100875,1,,,,,,243,NW,"ID",33,musied,MUSIED,z,,,,,,0.350926057,-0.328703716,0,0,0,,0,231,231,242,1,
,,,,,,,,,,,,,,,,,,5ee4aab1232e9d1b4d791bae,2020-08-10_16h23.36.107,lexical_decision_task_MP,2020.1.3,Win32,60,,z,1,0.74982,,,,,,,,0.74982,1,,,,,,260,NW,"ID",33,unject,UNJECT,z,,,,,,0.350926057,-0.328703716,0,0,0,,0,232,232,259,1,
,,,,,,,,,,,,,,,,,,5ee4aab1232e9d1b4d791bae,2020-08-10_16h23.36.107,lexical_decision_task_MP,2020.1.3,Win32,60,,m,1,0.434415,,,,,,,,0.434415,1,,,,,,129,WORD,UN,33,stupid,MARVEL,m,,,,,,0.350926057,-0.328703716,0,0,0,,0,233,233,128,1,
,,,,,,,,,,,,,,,,,,5ee4aab1232e9d1b4d791bae,2020-08-10_16h23.36.107,lexical_decision_task_MP,2020.1.3,Win32,60,,z,1,0.635405,,,,,,,,0.635405,1,,,,,,282,NW,"ID",33,porlex,PORLEX,z,,,,,,0.350926057,-0.328703716,0,0,0,,0,234,234,281,1,
,,,,,,,,,,,,,,,,,,5ee4aab1232e9d1b4d791bae,2020-08-10_16h23.36.107,lexical_decision_task_MP,2020.1.3,Win32,60,,z,1,0.68823,,,,,,,,0.68823,1,,,,,,474,NW,UN,50,gorbie,HABLIN,z,,,,,,0.350926057,-0.328703716,0,0,0,,0,235,235,473,1,
,,,,,,,,,,,,,,,,,,5ee4aab1232e9d1b4d791bae,2020-08-10_16h23.36.107,lexical_decision_task_MP,2020.1.3,Win32,60,,m,1,0.82444,,,,,,,,0.82444,1,,,,,,84,WORD,"ID",50,mortal,MORTAL,m,,,,,,0.350926057,-0.328703716,0,0,0,,0,236,236,83,1,
,,,,,,,,,,,,,,,,,,5ee4aab1232e9d1b4d791bae,2020-08-10_16h23.36.107,lexical_decision_task_MP,2020.1.3,Win32,60,,z,1,0.72001,,,,,,,,0.72001,1,,,,,,341,NW,"ID",50,myrtie,MYRTIE,z,,,,,,0.350926057,-0.328703716,0,0,0,,0,237,237,340,1,
,,,,,,,,,,,,,,,,,,5ee4aab1232e9d1b4d791bae,2020-08-10_16h23.36.107,lexical_decision_task_MP,2020.1.3,Win32,60,,z,1,0.987515,,,,,,,,0.987515,1,,,,,,444,NW,UN,50,minkel,JAUNCE,z,,,,,,0.350926057,-0.328703716,0,0,0,,0,238,238,443,1,
,,,,,,,,,,,,,,,,,,5ee4aab1232e9d1b4d791bae,2020-08-10_16h23.36.107,lexical_decision_task_MP,2020.1.3,Win32,60,,m,1,0.687085,,,,,,,,0.687085,1,,,,,,73,WORD,"ID",50,source,SOURCE,m,,,,,,0.350926057,-0.328703716,0,0,0,,0,239,239,72,1,
,,,,,,,,,,,,,,,,,,5ee4aab1232e9d1b4d791bae,2020-08-10_16h23.36.107,lexical_decision_task_MP,2020.1.3,Win32,60,,z,1,0.83989,,,,,,,,0.83989,1,,,,,,456,NW,UN,50,wanigh,BROGET,z,,,,,,0.350926057,-0.328703716,0,0,0,,0,240,240,455,1,
,,,,,,,,,,,,,,,,,,5ee4aab1232e9d1b4d791bae,2020-08-10_16h23.36.107,lexical_decision_task_MP,2020.1.3,Win32,60,,z,1,1.150815,,,,,,,,1.150815,1,,,,,,405,NW,UN,33,nouply,FLUMNI,z,,,,,,0.350926057,-0.328703716,0,0,0,space,0,241,241,404,1,1.450315
,,,,,,,,,,,,,,,,,,5ee4aab1232e9d1b4d791bae,2020-08-10_16h23.36.107,lexical_decision_task_MP,2020.1.3,Win32,60,,m,1,0.520435,,,,,,,,0.520435,1,,,,,,187,WORD,UN,50,social,COURSE,m,,,,,,0.350926057,-0.328703716,0,0,0,,0,242,242,186,1,
,,,,,,,,,,,,,,,,,,5ee4aab1232e9d1b4d791bae,2020-08-10_16h23.36.107,lexical_decision_task_MP,2020.1.3,Win32,60,,z,1,0.651685,,,,,,,,0.651685,1,,,,,,376,NW,UN,33,sliant,IGUARE,z,,,,,,0.350926057,-0.328703716,0,0,0,,0,243,243,375,1,
,,,,,,,,,,,,,,,,,,5ee4aab1232e9d1b4d791bae,2020-08-10_16h23.36.107,lexical_decision_task_MP,2020.1.3,Win32,60,,z,1,1.671965,,,,,,,,1.671965,1,,,,,,324,NW,"ID",50,steikh,STEIKH,z,,,,,,0.350926057,-0.328703716,0,0,0,,0,244,244,323,1,
,,,,,,,,,,,,,,,,,,5ee4aab1232e9d1b4d791bae,2020-08-10_16h23.36.107,lexical_decision_task_MP,2020.1.3,Win32,60,,m,1,0.64851,,,,,,,,0.64851,1,,,,,,221,WORD,UN,50,hinder,MASCOT,m,,,,,,0.350926057,-0.328703716,0,0,0,,0,245,245,220,1,
,,,,,,,,,,,,,,,,,,5ee4aab1232e9d1b4d791bae,2020-08-10_16h23.36.107,lexical_decision_task_MP,2020.1.3,Win32,60,,z,1,0.62621,,,,,,,,0.62621,1,,,,,,299,NW,"ID",33,sturch,STURCH,z,,,,,,0.350926057,-0.328703716,0,0,0,,0,246,246,298,1,
,,,,,,,,,,,,,,,,,,5ee4aab1232e9d1b4d791bae,2020-08-10_16h23.36.107,lexical_decision_task_MP,2020.1.3,Win32,60,,m,1,0.570565,,,,,,,,0.570565,1,,,,,,118,WORD,"ID",50,flight,FLIGHT,m,,,,,,0.350926057,-0.328703716,0,0,0,,0,247,247,117,1,
,,,,,,,,,,,,,,,,,,5ee4aab1232e9d1b4d791bae,2020-08-10_16h23.36.107,lexical_decision_task_MP,2020.1.3,Win32,60,,m,1,0.59869,,,,,,,,0.59869,1,,,,,,141,WORD,UN,33,spruce,ORPHAN,m,,,,,,0.350926057,-0.328703716,0,0,0,,0,248,248,140,1,
,,,,,,,,,,,,,,,,,,5ee4aab1232e9d1b4d791bae,2020-08-10_16h23.36.107,lexical_decision_task_MP,2020.1.3,Win32,60,,z,1,0.670695,,,,,,,,0.670695,1,,,,,,284,NW,"ID",33,shaple,SHAPLE,z,,,,,,0.350926057,-0.328703716,0,0,0,,0,249,249,283,1,
,,,,,,,,,,,,,,,,,,5ee4aab1232e9d1b4d791bae,2020-08-10_16h23.36.107,lexical_decision_task_MP,2020.1.3,Win32,60,,z,1,0.605245,,,,,,,,0.605245,1,,,,,,396,NW,UN,33,camble,FLENGY,z,,,,,,0.350926057,-0.328703716,0,0,0,,0,250,250,395,1,
,,,,,,,,,,,,,,,,,,5ee4aab1232e9d1b4d791bae,2020-08-10_16h23.36.107,lexical_decision_task_MP,2020.1.3,Win32,60,,m,1,0.60753,,,,,,,,0.60753,1,,,,,,153,WORD,UN,33,author,BEHOLD,m,,,,,,0.350926057,-0.328703716,0,0,0,,0,251,251,152,1,
,,,,,,,,,,,,,,,,,,5ee4aab1232e9d1b4d791bae,2020-08-10_16h23.36.107,lexical_decision_task_MP,2020.1.3,Win32,60,,m,1,0.536905,,,,,,,,0.536905,1,,,,,,237,WORD,UN,50,seldom,POSTER,m,,,,,,0.350926057,-0.328703716,0,0,0,,0,252,252,236,1,
,,,,,,,,,,,,,,,,,,5ee4aab1232e9d1b4d791bae,2020-08-10_16h23.36.107,lexical_decision_task_MP,2020.1.3,Win32,60,,z,1,0.630295,,,,,,,,0.630295,1,,,,,,446,NW,UN,50,gircue,RUNAMO,z,,,,,,0.350926057,-0.328703716,0,0,0,,0,253,253,445,1,
,,,,,,,,,,,,,,,,,,5ee4aab1232e9d1b4d791bae,2020-08-10_16h23.36.107,lexical_decision_task_MP,2020.1.3,Win32,60,,z,1,0.3999,,,,,,,,0.3999,1,,,,,,408,NW,UN,33,flumni,HURNIA,z,,,,,,0.350926057,-0.328703716,0,0,0,,0,254,254,407,1,
,,,,,,,,,,,,,,,,,,5ee4aab1232e9d1b4d791bae,2020-08-10_16h23.36.107,lexical_decision_task_MP,2020.1.3,Win32,60,,m,1,0.41625,,,,,,,,0.41625,1,,,,,,175,WORD,UN,33,strife,FABRIC,m,,,,,,0.350926057,-0.328703716,0,0,0,,0,255,255,174,1,
,,,,,,,,,,,,,,,,,,5ee4aab1232e9d1b4d791bae,2020-08-10_16h23.36.107,lexical_decision_task_MP,2020.1.3,Win32,60,,m,1,0.47074,,,,,,,,0.47074,1,,,,,,238,WORD,UN,50,grumpy,FLOWER,m,,,,,,0.350926057,-0.328703716,0,0,0,,0,256,256,237,1,
,,,,,,,,,,,,,,,,,,5ee4aab1232e9d1b4d791bae,2020-08-10_16h23.36.107,lexical_decision_task_MP,2020.1.3,Win32,60,,m,1,0.48446,,,,,,,,0.48446,1,,,,,,236,WORD,UN,50,poster,PIRATE,m,,,,,,0.350926057,-0.328703716,0,0,0,,0,257,257,235,1,
,,,,,,,,,,,,,,,,,,5ee4aab1232e9d1b4d791bae,2020-08-10_16h23.36.107,lexical_decision_task_MP,2020.1.3,Win32,60,,m,1,0.553845,,,,,,,,0.553845,1,,,,,,97,WORD,"ID",50,client,CLIENT,m,,,,,,0.350926057,-0.328703716,0,0,0,,0,258,258,96,1,
,,,,,,,,,,,,,,,,,,5ee4aab1232e9d1b4d791bae,2020-08-10_16h23.36.107,lexical_decision_task_MP,2020.1.3,Win32,60,,m,1,0.43191,,,,,,,,0.43191,1,,,,,,38,WORD,"ID",33,powder,POWDER,m,,,,,,0.350926057,-0.328703716,0,0,0,,0,259,259,37,1,
,,,,,,,,,,,,,,,,,,5ee4aab1232e9d1b4d791bae,2020-08-10_16h23.36.107,lexical_decision_task_MP,2020.1.3,Win32,60,,z,1,0.459195,,,,,,,,0.459195,1,,,,,,429,NW,UN,50,caroey,FUNTLE,z,,,,,,0.350926057,-0.328703716,0,0,0,,0,260,260,428,1,
,,,,,,,,,,,,,,,,,,5ee4aab1232e9d1b4d791bae,2020-08-10_16h23.36.107,lexical_decision_task_MP,2020.1.3,Win32,60,,z,0,0.62477,,,,,,,,0.62477,0,,,,,,176,WORD,UN,33,advent,STRIFE,m,,,,,,0.350926057,-0.328703716,0,0,0,,0,261,261,175,1,
,,,,,,,,,,,,,,,,,,5ee4aab1232e9d1b4d791bae,2020-08-10_16h23.36.107,lexical_decision_task_MP,2020.1.3,Win32,60,,z,1,1.28176,,,,,,,,1.28176,1,,,,,,406,NW,UN,33,suiver,NOUPLY,z,,,,,,0.350926057,-0.328703716,0,0,0,,0,262,262,405,1,
,,,,,,,,,,,,,,,,,,5ee4aab1232e9d1b4d791bae,2020-08-10_16h23.36.107,lexical_decision_task_MP,2020.1.3,Win32,60,,m,1,0.59259,,,,,,,,0.59259,1,,,,,,200,WORD,UN,50,admire,BEACON,m,,,,,,0.350926057,-0.328703716,0,0,0,,0,263,263,199,1,
,,,,,,,,,,,,,,,,,,5ee4aab1232e9d1b4d791bae,2020-08-10_16h23.36.107,lexical_decision_task_MP,2020.1.3,Win32,60,,m,1,0.508685,,,,,,,,0.508685,1,,,,,,89,WORD,"ID",50,permit,PERMIT,m,,,,,,0.350926057,-0.328703716,0,0,0,,0,264,264,88,1,
,,,,,,,,,,,,,,,,,,5ee4aab1232e9d1b4d791bae,2020-08-10_16h23.36.107,lexical_decision_task_MP,2020.1.3,Win32,60,,m,1,0.526185,,,,,,,,0.526185,1,,,,,,137,WORD,UN,33,melody,FINGER,m,,,,,,0.350926057,-0.328703716,0,0,0,,0,265,265,136,1,
,,,,,,,,,,,,,,,,,,5ee4aab1232e9d1b4d791bae,2020-08-10_16h23.36.107,lexical_decision_task_MP,2020.1.3,Win32,60,,z,1,0.79513,,,,,,,,0.79513,1,,,,,,459,NW,UN,50,mingar,BAFENT,z,,,,,,0.350926057,-0.328703716,0,0,0,,0,266,266,458,1,
,,,,,,,,,,,,,,,,,,5ee4aab1232e9d1b4d791bae,2020-08-10_16h23.36.107,lexical_decision_task_MP,2020.1.3,Win32,60,,m,1,0.897095,,,,,,,,0.897095,1,,,,,,165,WORD,UN,33,starch,INVEST,m,,,,,,0.350926057,-0.328703716,0,0,0,,0,267,267,164,1,
,,,,,,,,,,,,,,,,,,5ee4aab1232e9d1b4d791bae,2020-08-10_16h23.36.107,lexical_decision_task_MP,2020.1.3,Win32,60,,m,1,0.574305,,,,,,,,0.574305,1,,,,,,43,WORD,"ID",33,tongue,TONGUE,m,,,,,,0.350926057,-0.328703716,0,0,0,,0,268,268,42,1,
,,,,,,,,,,,,,,,,,,5ee4aab1232e9d1b4d791bae,2020-08-10_16h23.36.107,lexical_decision_task_MP,2020.1.3,Win32,60,,m,1,0.97041,,,,,,,,0.97041,1,,,,,,190,WORD,UN,50,stable,BACKUP,m,,,,,,0.350926057,-0.328703716,0,0,0,,0,269,269,189,1,
,,,,,,,,,,,,,,,,,,5ee4aab1232e9d1b4d791bae,2020-08-10_16h23.36.107,lexical_decision_task_MP,2020.1.3,Win32,60,,z,1,0.903055,,,,,,,,0.903055,1,,,,,,434,NW,UN,50,impurb,PITROM,z,,,,,,0.350926057,-0.328703716,0,0,0,,0,270,270,433,1,
,,,,,,,,,,,,,,,,,,5ee4aab1232e9d1b4d791bae,2020-08-10_16h23.36.107,lexical_decision_task_MP,2020.1.3,Win32,60,,z,1,0.56947,,,,,,,,0.56947,1,,,,,,262,NW,"ID",33,quilew,QUILEW,z,,,,,,0.350926057,-0.328703716,0,0,0,,0,271,271,261,1,
,,,,,,,,,,,,,,,,,,5ee4aab1232e9d1b4d791bae,2020-08-10_16h23.36.107,lexical_decision_task_MP,2020.1.3,Win32,60,,z,1,0.53357,,,,,,,,0.53357,1,,,,,,381,NW,UN,33,sarley,HUNIEK,z,,,,,,0.350926057,-0.328703716,0,0,0,,0,272,272,380,1,
,,,,,,,,,,,,,,,,,,5ee4aab1232e9d1b4d791bae,2020-08-10_16h23.36.107,lexical_decision_task_MP,2020.1.3,Win32,60,,m,1,0.654135,,,,,,,,0.654135,1,,,,,,61,WORD,"ID",50,ponder,PONDER,m,,,,,,0.350926057,-0.328703716,0,0,0,,0,273,273,60,1,
,,,,,,,,,,,,,,,,,,5ee4aab1232e9d1b4d791bae,2020-08-10_16h23.36.107,lexical_decision_task_MP,2020.1.3,Win32,60,,m,1,0.56637,,,,,,,,0.56637,1,,,,,,213,WORD,UN,50,intake,SQUEAL,m,,,,,,0.350926057,-0.328703716,0,0,0,,0,274,274,212,1,
,,,,,,,,,,,,,,,,,,5ee4aab1232e9d1b4d791bae,2020-08-10_16h23.36.107,lexical_decision_task_MP,2020.1.3,Win32,60,,z,1,0.67037,,,,,,,,0.67037,1,,,,,,415,NW,UN,33,pathel,HIGSTA,z,,,,,,0.350926057,-0.328703716,0,0,0,,0,275,275,414,1,
,,,,,,,,,,,,,,,,,,5ee4aab1232e9d1b4d791bae,2020-08-10_16h23.36.107,lexical_decision_task_MP,2020.1.3,Win32,60,,m,1,0.66879,,,,,,,,0.66879,1,,,,,,225,WORD,UN,50,kidney,VULGAR,m,,,,,,0.350926057,-0.328703716,0,0,0,,0,276,276,224,1,
,,,,,,,,,,,,,,,,,,5ee4aab1232e9d1b4d791bae,2020-08-10_16h23.36.107,lexical_decision_task_MP,2020.1.3,Win32,60,,m,1,0.796935,,,,,,,,0.796935,1,,,,,,197,WORD,UN,50,wicked,STREAM,m,,,,,,0.350926057,-0.328703716,0,0,0,,0,277,277,196,1,
,,,,,,,,,,,,,,,,,,5ee4aab1232e9d1b4d791bae,2020-08-10_16h23.36.107,lexical_decision_task_MP,2020.1.3,Win32,60,,z,1,0.879795,,,,,,,,0.879795,1,,,,,,344,NW,"ID",50,scrily,SCRILY,z,,,,,,0.350926057,-0.328703716,0,0,0,,0,278,278,343,1,
,,,,,,,,,,,,,,,,,,5ee4aab1232e9d1b4d791bae,2020-08-10_16h23.36.107,lexical_decision_task_MP,2020.1.3,Win32,60,,z,1,0.535885,,,,,,,,0.535885,1,,,,,,433,NW,UN,50,pitrom,DRANCE,z,,,,,,0.350926057,-0.328703716,0,0,0,,0,279,279,432,1,
,,,,,,,,,,,,,,,,,,5ee4aab1232e9d1b4d791bae,2020-08-10_16h23.36.107,lexical_decision_task_MP,2020.1.3,Win32,60,,m,1,0.61237,,,,,,,,0.61237,1,,,,,,145,WORD,UN,33,couple,PARISH,m,,,,,,0.350926057,-0.328703716,0,0,0,,0,280,280,144,1,
,,,,,,,,,,,,,,,,,,5ee4aab1232e9d1b4d791bae,2020-08-10_16h23.36.107,lexical_decision_task_MP,2020.1.3,Win32,60,,m,1,0.554645,,,,,,,,0.554645,1,,,,,,91,WORD,"ID",50,expand,EXPAND,m,,,,,,0.350926057,-0.328703716,0,0,0,,0,281,281,90,1,
,,,,,,,,,,,,,,,,,,5ee4aab1232e9d1b4d791bae,2020-08-10_16h23.36.107,lexical_decision_task_MP,2020.1.3,Win32,60,,z,1,0.78684,,,,,,,,0.78684,1,,,,,,468,NW,UN,50,padifs,WICTOR,z,,,,,,0.350926057,-0.328703716,0,0,0,,0,282,282,467,1,
,,,,,,,,,,,,,,,,,,5ee4aab1232e9d1b4d791bae,2020-08-10_16h23.36.107,lexical_decision_task_MP,2020.1.3,Win32,60,,z,1,0.63526,,,,,,,,0.63526,1,,,,,,435,NW,UN,50,frutan,IMPURB,z,,,,,,0.350926057,-0.328703716,0,0,0,,0,283,283,434,1,
,,,,,,,,,,,,,,,,,,5ee4aab1232e9d1b4d791bae,2020-08-10_16h23.36.107,lexical_decision_task_MP,2020.1.3,Win32,60,,z,1,0.718185,,,,,,,,0.718185,1,,,,,,322,NW,"ID",50,slanch,SLANCH,z,,,,,,0.350926057,-0.328703716,0,0,0,,0,284,284,321,1,
,,,,,,,,,,,,,,,,,,5ee4aab1232e9d1b4d791bae,2020-08-10_16h23.36.107,lexical_decision_task_MP,2020.1.3,Win32,60,,z,1,0.631345,,,,,,,,0.631345,1,,,,,,343,NW,"ID",50,aimosy,AIMOSY,z,,,,,,0.350926057,-0.328703716,0,0,0,,0,285,285,342,1,
,,,,,,,,,,,,,,,,,,5ee4aab1232e9d1b4d791bae,2020-08-10_16h23.36.107,lexical_decision_task_MP,2020.1.3,Win32,60,,z,1,0.8729,,,,,,,,0.8729,1,,,,,,454,NW,UN,50,tondle,SCOUGE,z,,,,,,0.350926057,-0.328703716,0,0,0,,0,286,286,453,1,
,,,,,,,,,,,,,,,,,,5ee4aab1232e9d1b4d791bae,2020-08-10_16h23.36.107,lexical_decision_task_MP,2020.1.3,Win32,60,,z,1,0.659765,,,,,,,,0.659765,1,,,,,,296,NW,"ID",33,beinch,BEINCH,z,,,,,,0.350926057,-0.328703716,0,0,0,,0,287,287,295,1,
,,,,,,,,,,,,,,,,,,5ee4aab1232e9d1b4d791bae,2020-08-10_16h23.36.107,lexical_decision_task_MP,2020.1.3,Win32,60,,m,1,0.517835,,,,,,,,0.517835,1,,,,,,107,WORD,"ID",50,slogan,SLOGAN,m,,,,,,0.350926057,-0.328703716,0,0,0,,0,288,288,106,1,
,,,,,,,,,,,,,,,,,,5ee4aab1232e9d1b4d791bae,2020-08-10_16h23.36.107,lexical_decision_task_MP,2020.1.3,Win32,60,,z,1,0.639605,,,,,,,,0.639605,1,,,,,,307,NW,"ID",50,kirafe,KIRAFE,z,,,,,,0.350926057,-0.328703716,0,0,0,,0,289,289,306,1,
,,,,,,,,,,,,,,,,,,5ee4aab1232e9d1b4d791bae,2020-08-10_16h23.36.107,lexical_decision_task_MP,2020.1.3,Win32,60,,m,1,0.73863,,,,,,,,0.73863,1,,,,,,143,WORD,UN,33,sponge,REASON,m,,,,,,0.350926057,-0.328703716,0,0,0,,0,290,290,142,1,
,,,,,,,,,,,,,,,,,,5ee4aab1232e9d1b4d791bae,2020-08-10_16h23.36.107,lexical_decision_task_MP,2020.1.3,Win32,60,,m,1,0.62371,,,,,,,,0.62371,1,,,,,,239,WORD,UN,50,forest,LUMBER,m,,,,,,0.350926057,-0.328703716,0,0,0,,0,291,291,238,1,
,,,,,,,,,,,,,,,,,,5ee4aab1232e9d1b4d791bae,2020-08-10_16h23.36.107,lexical_decision_task_MP,2020.1.3,Win32,60,,z,1,0.701375,,,,,,,,0.701375,1,,,,,,289,NW,"ID",33,starby,STARBY,z,,,,,,0.350926057,-0.328703716,0,0,0,,0,292,292,288,1,
,,,,,,,,,,,,,,,,,,5ee4aab1232e9d1b4d791bae,2020-08-10_16h23.36.107,lexical_decision_task_MP,2020.1.3,Win32,60,,z,1,0.7828,,,,,,,,0.7828,1,,,,,,421,NW,UN,50,alcoud,KNISMA,z,,,,,,0.350926057,-0.328703716,0,0,0,,0,293,293,420,1,
,,,,,,,,,,,,,,,,,,5ee4aab1232e9d1b4d791bae,2020-08-10_16h23.36.107,lexical_decision_task_MP,2020.1.3,Win32,60,,m,1,0.68263,,,,,,,,0.68263,1,,,,,,125,WORD,UN,33,blouse,NICKEL,m,,,,,,0.350926057,-0.328703716,0,0,0,,0,294,294,124,1,
,,,,,,,,,,,,,,,,,,5ee4aab1232e9d1b4d791bae,2020-08-10_16h23.36.107,lexical_decision_task_MP,2020.1.3,Win32,60,,z,1,0.70314,,,,,,,,0.70314,1,,,,,,422,NW,UN,50,streld,ALCOUD,z,,,,,,0.350926057,-0.328703716,0,0,0,,0,295,295,421,1,
,,,,,,,,,,,,,,,,,,5ee4aab1232e9d1b4d791bae,2020-08-10_16h23.36.107,lexical_decision_task_MP,2020.1.3,Win32,60,,m,1,1.019715,,,,,,,,1.019715,1,,,,,,102,WORD,"ID",50,direct,DIRECT,m,,,,,,0.350926057,-0.328703716,0,0,0,,0,296,296,101,1,
,,,,,,,,,,,,,,,,,,5ee4aab1232e9d1b4d791bae,2020-08-10_16h23.36.107,lexical_decision_task_MP,2020.1.3,Win32,60,,z,1,0.817655,,,,,,,,0.817655,1,,,,,,443,NW,UN,50,jaunce,DORSEX,z,,,,,,0.350926057,-0.328703716,0,0,0,,0,297,297,442,1,
,,,,,,,,,,,,,,,,,,5ee4aab1232e9d1b4d791bae,2020-08-10_16h23.36.107,lexical_decision_task_MP,2020.1.3,Win32,60,,z,1,0.980975,,,,,,,,0.980975,1,,,,,,256,NW,"ID",33,inlors,INLORS,z,,,,,,0.350926057,-0.328703716,0,0,0,,0,298,298,255,1,
,,,,,,,,,,,,,,,,,,5ee4aab1232e9d1b4d791bae,2020-08-10_16h23.36.107,lexical_decision_task_MP,2020.1.3,Win32,60,,m,1,0.64266,,,,,,,,0.64266,1,,,,,,154,WORD,UN,33,lizard,AUTHOR,m,,,,,,0.350926057,-0.328703716,0,0,0,,0,299,299,153,1,
,,,,,,,,,,,,,,,,,,5ee4aab1232e9d1b4d791bae,2020-08-10_16h23.36.107,lexical_decision_task_MP,2020.1.3,Win32,60,,z,1,0.78212,,,,,,,,0.78212,1,,,,,,269,NW,"ID",33,orchet,ORCHET,z,,,,,,0.350926057,-0.328703716,0,0,0,,0,300,300,268,1,
,,,,,,,,,,,,,,,,,,5ee4aab1232e9d1b4d791bae,2020-08-10_16h23.36.107,lexical_decision_task_MP,2020.1.3,Win32,60,,m,1,0.66398,,,,,,,,0.66398,1,,,,,,214,WORD,UN,50,phobia,INTAKE,m,,,,,,0.350926057,-0.328703716,0,0,0,,0,301,301,213,1,
,,,,,,,,,,,,,,,,,,5ee4aab1232e9d1b4d791bae,2020-08-10_16h23.36.107,lexical_decision_task_MP,2020.1.3,Win32,60,,m,1,0.516755,,,,,,,,0.516755,1,,,,,,44,WORD,"ID",33,danger,DANGER,m,,,,,,0.350926057,-0.328703716,0,0,0,,0,302,302,43,1,
,,,,,,,,,,,,,,,,,,5ee4aab1232e9d1b4d791bae,2020-08-10_16h23.36.107,lexical_decision_task_MP,2020.1.3,Win32,60,,m,1,0.55093,,,,,,,,0.55093,1,,,,,,174,WORD,UN,33,fabric,TURKEY,m,,,,,,0.350926057,-0.328703716,0,0,0,,0,303,303,173,1,
,,,,,,,,,,,,,,,,,,5ee4aab1232e9d1b4d791bae,2020-08-10_16h23.36.107,lexical_decision_task_MP,2020.1.3,Win32,60,,z,1,0.6712,,,,,,,,0.6712,1,,,,,,334,NW,"ID",50,watmeg,WATMEG,z,,,,,,0.350926057,-0.328703716,0,0,0,,0,304,304,333,1,
,,,,,,,,,,,,,,,,,,5ee4aab1232e9d1b4d791bae,2020-08-10_16h23.36.107,lexical_decision_task_MP,2020.1.3,Win32,60,,m,1,0.58462,,,,,,,,0.58462,1,,,,,,201,WORD,UN,50,factor,ADMIRE,m,,,,,,0.350926057,-0.328703716,0,0,0,,0,305,305,200,1,
,,,,,,,,,,,,,,,,,,5ee4aab1232e9d1b4d791bae,2020-08-10_16h23.36.107,lexical_decision_task_MP,2020.1.3,Win32,60,,z,1,1.372095,,,,,,,,1.372095,1,,,,,,462,NW,UN,50,kispel,ABSULT,z,,,,,,0.350926057,-0.328703716,0,0,0,,0,306,306,461,1,
,,,,,,,,,,,,,,,,,,5ee4aab1232e9d1b4d791bae,2020-08-10_16h23.36.107,lexical_decision_task_MP,2020.1.3,Win32,60,,z,1,0.83626,,,,,,,,0.83626,1,,,,,,272,NW,"ID",33,damilt,DAMILT,z,,,,,,0.350926057,-0.328703716,0,0,0,,0,307,307,271,1,
,,,,,,,,,,,,,,,,,,5ee4aab1232e9d1b4d791bae,2020-08-10_16h23.36.107,lexical_decision_task_MP,2020.1.3,Win32,60,,m,1,0.73237,,,,,,,,0.73237,1,,,,,,131,WORD,UN,33,strong,QUENCH,m,,,,,,0.350926057,-0.328703716,0,0,0,,0,308,308,130,1,
,,,,,,,,,,,,,,,,,,5ee4aab1232e9d1b4d791bae,2020-08-10_16h23.36.107,lexical_decision_task_MP,2020.1.3,Win32,60,,z,1,0.70063,,,,,,,,0.70063,1,,,,,,330,NW,"ID",50,kensom,KENSOM,z,,,,,,0.350926057,-0.328703716,0,0,0,,0,309,309,329,1,
,,,,,,,,,,,,,,,,,,5ee4aab1232e9d1b4d791bae,2020-08-10_16h23.36.107,lexical_decision_task_MP,2020.1.3,Win32,60,,z,1,0.665785,,,,,,,,0.665785,1,,,,,,460,NW,UN,50,justre,MINGAR,z,,,,,,0.350926057,-0.328703716,0,0,0,,0,310,310,459,1,
,,,,,,,,,,,,,,,,,,5ee4aab1232e9d1b4d791bae,2020-08-10_16h23.36.107,lexical_decision_task_MP,2020.1.3,Win32,60,,m,1,0.767625,,,,,,,,0.767625,1,,,,,,123,WORD,UN,33,enough,STRIKE,m,,,,,,0.350926057,-0.328703716,0,0,0,,0,311,311,122,1,
,,,,,,,,,,,,,,,,,,5ee4aab1232e9d1b4d791bae,2020-08-10_16h23.36.107,lexical_decision_task_MP,2020.1.3,Win32,60,,m,1,0.50339,,,,,,,,0.50339,1,,,,,,20,WORD,"ID",33,breast,BREAST,m,,,,,,0.350926057,-0.328703716,0,0,0,,0,312,312,19,1,
,,,,,,,,,,,,,,,,,,5ee4aab1232e9d1b4d791bae,2020-08-10_16h23.36.107,lexical_decision_task_MP,2020.1.3,Win32,60,,z,1,0.65744,,,,,,,,0.65744,1,,,,,,369,NW,UN,33,sleact,WRONCH,z,,,,,,0.350926057,-0.328703716,0,0,0,,0,313,313,368,1,
,,,,,,,,,,,,,,,,,,5ee4aab1232e9d1b4d791bae,2020-08-10_16h23.36.107,lexical_decision_task_MP,2020.1.3,Win32,60,,m,1,0.531925,,,,,,,,0.531925,1,,,,,,96,WORD,"ID",50,ignore,IGNORE,m,,,,,,0.350926057,-0.328703716,0,0,0,,0,314,314,95,1,
,,,,,,,,,,,,,,,,,,5ee4aab1232e9d1b4d791bae,2020-08-10_16h23.36.107,lexical_decision_task_MP,2020.1.3,Win32,60,,z,1,0.99754,,,,,,,,0.99754,1,,,,,,458,NW,UN,50,chaite,BARCET,z,,,,,,0.350926057,-0.328703716,0,0,0,,0,315,315,457,1,
,,,,,,,,,,,,,,,,,,5ee4aab1232e9d1b4d791bae,2020-08-10_16h23.36.107,lexical_decision_task_MP,2020.1.3,Win32,60,,m,1,0.698295,,,,,,,,0.698295,1,,,,,,116,WORD,"ID",50,tumble,TUMBLE,m,,,,,,0.350926057,-0.328703716,0,0,0,,0,316,316,115,1,
,,,,,,,,,,,,,,,,,,5ee4aab1232e9d1b4d791bae,2020-08-10_16h23.36.107,lexical_decision_task_MP,2020.1.3,Win32,60,,m,1,0.68058,,,,,,,,0.68058,1,,,,,,138,WORD,UN,33,staple,MELODY,m,,,,,,0.350926057,-0.328703716,0,0,0,,0,317,317,137,1,
,,,,,,,,,,,,,,,,,,5ee4aab1232e9d1b4d791bae,2020-08-10_16h23.36.107,lexical_decision_task_MP,2020.1.3,Win32,60,,m,1,0.474,,,,,,,,0.474,1,,,,,,70,WORD,"ID",50,square,SQUARE,m,,,,,,0.350926057,-0.328703716,0,0,0,,0,318,318,69,1,
,,,,,,,,,,,,,,,,,,5ee4aab1232e9d1b4d791bae,2020-08-10_16h23.36.107,lexical_decision_task_MP,2020.1.3,Win32,60,,m,1,0.623455,,,,,,,,0.623455,1,,,,,,120,WORD,"ID",50,strain,STRAIN,m,,,,,,0.350926057,-0.328703716,0,0,0,,0,319,319,119,1,
,,,,,,,,,,,,,,,,,,5ee4aab1232e9d1b4d791bae,2020-08-10_16h23.36.107,lexical_decision_task_MP,2020.1.3,Win32,60,,m,1,0.501505,,,,,,,,0.501505,1,,,,,,46,WORD,"ID",33,single,SINGLE,m,,,,,,0.350926057,-0.328703716,0,0,0,,0,320,320,45,1,
,,,,,,,,,,,,,,,,,,5ee4aab1232e9d1b4d791bae,2020-08-10_16h23.36.107,lexical_decision_task_MP,2020.1.3,Win32,60,,m,1,0.46786,,,,,,,,0.46786,1,,,,,,95,WORD,"ID",50,thread,THREAD,m,,,,,,0.350926057,-0.328703716,0,0,0,,0,321,321,94,1,
,,,,,,,,,,,,,,,,,,5ee4aab1232e9d1b4d791bae,2020-08-10_16h23.36.107,lexical_decision_task_MP,2020.1.3,Win32,60,,z,1,0.594185,,,,,,,,0.594185,1,,,,,,366,NW,UN,33,slique,TOSHEL,z,,,,,,0.350926057,-0.328703716,0,0,0,,0,322,322,365,1,
,,,,,,,,,,,,,,,,,,5ee4aab1232e9d1b4d791bae,2020-08-10_16h23.36.107,lexical_decision_task_MP,2020.1.3,Win32,60,,z,1,0.687465,,,,,,,,0.687465,1,,,,,,385,NW,UN,33,ancust,VEIGMA,z,,,,,,0.350926057,-0.328703716,0,0,0,,0,323,323,384,1,
,,,,,,,,,,,,,,,,,,5ee4aab1232e9d1b4d791bae,2020-08-10_16h23.36.107,lexical_decision_task_MP,2020.1.3,Win32,60,,z,1,0.69227,,,,,,,,0.69227,1,,,,,,305,NW,"ID",50,forgle,FORGLE,z,,,,,,0.350926057,-0.328703716,0,0,0,,0,324,324,304,1,
,,,,,,,,,,,,,,,,,,5ee4aab1232e9d1b4d791bae,2020-08-10_16h23.36.107,lexical_decision_task_MP,2020.1.3,Win32,60,,m,1,0.744395,,,,,,,,0.744395,1,,,,,,202,WORD,UN,50,phrase,FACTOR,m,,,,,,0.350926057,-0.328703716,0,0,0,,0,325,325,201,1,
,,,,,,,,,,,,,,,,,,5ee4aab1232e9d1b4d791bae,2020-08-10_16h23.36.107,lexical_decision_task_MP,2020.1.3,Win32,60,,z,1,0.63191,,,,,,,,0.63191,1,,,,,,360,NW,"ID",50,desory,DESORY,z,,,,,,0.350926057,-0.328703716,0,0,0,,0,326,326,359,1,
,,,,,,,,,,,,,,,,,,5ee4aab1232e9d1b4d791bae,2020-08-10_16h23.36.107,lexical_decision_task_MP,2020.1.3,Win32,60,,m,1,0.665495,,,,,,,,0.665495,1,,,,,,177,WORD,UN,33,inform,ADVENT,m,,,,,,0.350926057,-0.328703716,0,0,0,,0,327,327,176,1,
,,,,,,,,,,,,,,,,,,5ee4aab1232e9d1b4d791bae,2020-08-10_16h23.36.107,lexical_decision_task_MP,2020.1.3,Win32,60,,z,1,0.720095,,,,,,,,0.720095,1,,,,,,321,NW,"ID",50,miator,MIATOR,z,,,,,,0.350926057,-0.328703716,0,0,0,,0,328,328,320,1,
,,,,,,,,,,,,,,,,,,5ee4aab1232e9d1b4d791bae,2020-08-10_16h23.36.107,lexical_decision_task_MP,2020.1.3,Win32,60,,z,1,0.76566,,,,,,,,0.76566,1,,,,,,248,NW,"ID",33,strole,STROLE,z,,,,,,0.350926057,-0.328703716,0,0,0,,0,329,329,247,1,
,,,,,,,,,,,,,,,,,,5ee4aab1232e9d1b4d791bae,2020-08-10_16h23.36.107,lexical_decision_task_MP,2020.1.3,Win32,60,,z,1,1.120935,,,,,,,,1.120935,1,,,,,,357,NW,"ID",50,derain,DERAIN,z,,,,,,0.350926057,-0.328703716,0,0,0,,0,330,330,356,1,
,,,,,,,,,,,,,,,,,,5ee4aab1232e9d1b4d791bae,2020-08-10_16h23.36.107,lexical_decision_task_MP,2020.1.3,Win32,60,,m,1,0.781545,,,,,,,,0.781545,1,,,,,,23,WORD,"ID",33,wealth,WEALTH,m,,,,,,0.350926057,-0.328703716,0,0,0,,0,331,331,22,1,
,,,,,,,,,,,,,,,,,,5ee4aab1232e9d1b4d791bae,2020-08-10_16h23.36.107,lexical_decision_task_MP,2020.1.3,Win32,60,,z,1,0.66503,,,,,,,,0.66503,1,,,,,,353,NW,"ID",50,clurey,CLUREY,z,,,,,,0.350926057,-0.328703716,0,0,0,,0,332,332,352,1,
,,,,,,,,,,,,,,,,,,5ee4aab1232e9d1b4d791bae,2020-08-10_16h23.36.107,lexical_decision_task_MP,2020.1.3,Win32,60,,m,1,1.16935,,,,,,,,1.16935,1,,,,,,49,WORD,"ID",33,survey,SURVEY,m,,,,,,0.350926057,-0.328703716,0,0,0,,0,333,333,48,1,
,,,,,,,,,,,,,,,,,,5ee4aab1232e9d1b4d791bae,2020-08-10_16h23.36.107,lexical_decision_task_MP,2020.1.3,Win32,60,,z,1,0.65404,,,,,,,,0.65404,1,,,,,,423,NW,UN,50,praile,STRELD,z,,,,,,0.350926057,-0.328703716,0,0,0,,0,334,334,422,1,
,,,,,,,,,,,,,,,,,,5ee4aab1232e9d1b4d791bae,2020-08-10_16h23.36.107,lexical_decision_task_MP,2020.1.3,Win32,60,,z,1,1.025145,,,,,,,,1.025145,1,,,,,,279,NW,"ID",33,celond,CELOND,z,,,,,,0.350926057,-0.328703716,0,0,0,,0,335,335,278,1,
,,,,,,,,,,,,,,,,,,5ee4aab1232e9d1b4d791bae,2020-08-10_16h23.36.107,lexical_decision_task_MP,2020.1.3,Win32,60,,m,1,1.27007,,,,,,,,1.27007,1,,,,,,48,WORD,"ID",33,walnut,WALNUT,m,,,,,,0.350926057,-0.328703716,0,0,0,,0,336,336,47,1,
,,,,,,,,,,,,,,,,,,5ee4aab1232e9d1b4d791bae,2020-08-10_16h23.36.107,lexical_decision_task_MP,2020.1.3,Win32,60,,z,1,1.60588,,,,,,,,1.60588,1,,,,,,265,NW,"ID",33,distar,DISTAR,z,,,,,,0.350926057,-0.328703716,0,0,0,,0,337,337,264,1,
,,,,,,,,,,,,,,,,,,5ee4aab1232e9d1b4d791bae,2020-08-10_16h23.36.107,lexical_decision_task_MP,2020.1.3,Win32,60,,z,1,0.738175,,,,,,,,0.738175,1,,,,,,347,NW,"ID",50,kerift,KERIFT,z,,,,,,0.350926057,-0.328703716,0,0,0,,0,338,338,346,1,
,,,,,,,,,,,,,,,,,,5ee4aab1232e9d1b4d791bae,2020-08-10_16h23.36.107,lexical_decision_task_MP,2020.1.3,Win32,60,,z,1,0.98423,,,,,,,,0.98423,1,,,,,,286,NW,"ID",33,reldon,RELDON,z,,,,,,0.350926057,-0.328703716,0,0,0,,0,339,339,285,1,
,,,,,,,,,,,,,,,,,,5ee4aab1232e9d1b4d791bae,2020-08-10_16h23.36.107,lexical_decision_task_MP,2020.1.3,Win32,60,,z,1,1.621865,,,,,,,,1.621865,1,,,,,,404,NW,UN,33,syntic,CLUIRM,z,,,,,,0.350926057,-0.328703716,0,0,0,,0,340,340,403,1,
,,,,,,,,,,,,,,,,,,5ee4aab1232e9d1b4d791bae,2020-08-10_16h23.36.107,lexical_decision_task_MP,2020.1.3,Win32,60,,m,1,0.73591,,,,,,,,0.73591,1,,,,,,167,WORD,UN,33,answer,DESIGN,m,,,,,,0.350926057,-0.328703716,0,0,0,,0,341,341,166,1,
,,,,,,,,,,,,,,,,,,5ee4aab1232e9d1b4d791bae,2020-08-10_16h23.36.107,lexical_decision_task_MP,2020.1.3,Win32,60,,m,1,1.76871,,,,,,,,1.76871,1,,,,,,62,WORD,"ID",50,region,REGION,m,,,,,,0.350926057,-0.328703716,0,0,0,,0,342,342,61,1,
,,,,,,,,,,,,,,,,,,5ee4aab1232e9d1b4d791bae,2020-08-10_16h23.36.107,lexical_decision_task_MP,2020.1.3,Win32,60,,z,1,0.755695,,,,,,,,0.755695,1,,,,,,332,NW,"ID",50,vangue,VANGUE,z,,,,,,0.350926057,-0.328703716,0,0,0,,0,343,343,331,1,
,,,,,,,,,,,,,,,,,,5ee4aab1232e9d1b4d791bae,2020-08-10_16h23.36.107,lexical_decision_task_MP,2020.1.3,Win32,60,,m,1,0.93727,,,,,,,,0.93727,1,,,,,,183,WORD,UN,50,sleazy,MILDEW,m,,,,,,0.350926057,-0.328703716,0,0,0,,0,344,344,182,1,
,,,,,,,,,,,,,,,,,,5ee4aab1232e9d1b4d791bae,2020-08-10_16h23.36.107,lexical_decision_task_MP,2020.1.3,Win32,60,,m,1,0.969185,,,,,,,,0.969185,1,,,,,,224,WORD,UN,50,vulgar,PERIOD,m,,,,,,0.350926057,-0.328703716,0,0,0,,0,345,345,223,1,
,,,,,,,,,,,,,,,,,,5ee4aab1232e9d1b4d791bae,2020-08-10_16h23.36.107,lexical_decision_task_MP,2020.1.3,Win32,60,,z,1,0.985815,,,,,,,,0.985815,1,,,,,,364,NW,UN,33,guairt,IMPOTE,z,,,,,,0.350926057,-0.328703716,0,0,0,,0,346,346,363,1,
,,,,,,,,,,,,,,,,,,5ee4aab1232e9d1b4d791bae,2020-08-10_16h23.36.107,lexical_decision_task_MP,2020.1.3,Win32,60,,m,1,0.836225,,,,,,,,0.836225,1,,,,,,210,WORD,UN,50,infect,MONKEY,m,,,,,,0.350926057,-0.328703716,0,0,0,,0,347,347,209,1,
,,,,,,,,,,,,,,,,,,5ee4aab1232e9d1b4d791bae,2020-08-10_16h23.36.107,lexical_decision_task_MP,2020.1.3,Win32,60,,m,1,0.560075,,,,,,,,0.560075,1,,,,,,53,WORD,"ID",33,police,POLICE,m,,,,,,0.350926057,-0.328703716,0,0,0,,0,348,348,52,1,
,,,,,,,,,,,,,,,,,,5ee4aab1232e9d1b4d791bae,2020-08-10_16h23.36.107,lexical_decision_task_MP,2020.1.3,Win32,60,,z,1,0.60254,,,,,,,,0.60254,1,,,,,,395,NW,UN,33,flengy,COLURY,z,,,,,,0.350926057,-0.328703716,0,0,0,,0,349,349,394,1,
,,,,,,,,,,,,,,,,,,5ee4aab1232e9d1b4d791bae,2020-08-10_16h23.36.107,lexical_decision_task_MP,2020.1.3,Win32,60,,m,1,0.619735,,,,,,,,0.619735,1,,,,,,25,WORD,"ID",33,domain,DOMAIN,m,,,,,,0.350926057,-0.328703716,0,0,0,,0,350,350,24,1,
,,,,,,,,,,,,,,,,,,5ee4aab1232e9d1b4d791bae,2020-08-10_16h23.36.107,lexical_decision_task_MP,2020.1.3,Win32,60,,m,1,0.589235,,,,,,,,0.589235,1,,,,,,155,WORD,UN,33,cradle,LIZARD,m,,,,,,0.350926057,-0.328703716,0,0,0,,0,351,351,154,1,
,,,,,,,,,,,,,,,,,,5ee4aab1232e9d1b4d791bae,2020-08-10_16h23.36.107,lexical_decision_task_MP,2020.1.3,Win32,60,,m,1,0.60918,,,,,,,,0.60918,1,,,,,,188,WORD,UN,50,censor,SOCIAL,m,,,,,,0.350926057,-0.328703716,0,0,0,,0,352,352,187,1,
,,,,,,,,,,,,,,,,,,5ee4aab1232e9d1b4d791bae,2020-08-10_16h23.36.107,lexical_decision_task_MP,2020.1.3,Win32,60,,z,1,0.690135,,,,,,,,0.690135,1,,,,,,442,NW,UN,50,dorsex,ABOUNE,z,,,,,,0.350926057,-0.328703716,0,0,0,,0,353,353,441,1,
,,,,,,,,,,,,,,,,,,5ee4aab1232e9d1b4d791bae,2020-08-10_16h23.36.107,lexical_decision_task_MP,2020.1.3,Win32,60,,z,1,0.49825,,,,,,,,0.49825,1,,,,,,371,NW,UN,33,ramily,GEILOY,z,,,,,,0.350926057,-0.328703716,0,0,0,,0,354,354,370,1,
,,,,,,,,,,,,,,,,,,5ee4aab1232e9d1b4d791bae,2020-08-10_16h23.36.107,lexical_decision_task_MP,2020.1.3,Win32,60,,m,1,0.707925,,,,,,,,0.707925,1,,,,,,19,WORD,"ID",33,patron,PATRON,m,,,,,,0.350926057,-0.328703716,0,0,0,,0,355,355,18,1,
,,,,,,,,,,,,,,,,,,5ee4aab1232e9d1b4d791bae,2020-08-10_16h23.36.107,lexical_decision_task_MP,2020.1.3,Win32,60,,m,1,0.451635,,,,,,,,0.451635,1,,,,,,35,WORD,"ID",33,socket,SOCKET,m,,,,,,0.350926057,-0.328703716,0,0,0,,0,356,356,34,1,
,,,,,,,,,,,,,,,,,,5ee4aab1232e9d1b4d791bae,2020-08-10_16h23.36.107,lexical_decision_task_MP,2020.1.3,Win32,60,,m,1,1.24057,,,,,,,,1.24057,1,,,,,,76,WORD,"ID",50,exotic,EXOTIC,m,,,,,,0.350926057,-0.328703716,0,0,0,,0,357,357,75,1,
,,,,,,,,,,,,,,,,,,5ee4aab1232e9d1b4d791bae,2020-08-10_16h23.36.107,lexical_decision_task_MP,2020.1.3,Win32,60,,z,1,0.63627,,,,,,,,0.63627,1,,,,,,263,NW,"ID",33,dolica,DOLICA,z,,,,,,0.350926057,-0.328703716,0,0,0,,0,358,358,262,1,
,,,,,,,,,,,,,,,,,,5ee4aab1232e9d1b4d791bae,2020-08-10_16h23.36.107,lexical_decision_task_MP,2020.1.3,Win32,60,,z,1,1.218305,,,,,,,,1.218305,1,,,,,,432,NW,UN,50,drance,LUNKER,z,,,,,,0.350926057,-0.328703716,0,0,0,,0,359,359,431,1,
,,,,,,,,,,,,,,,,,,5ee4aab1232e9d1b4d791bae,2020-08-10_16h23.36.107,lexical_decision_task_MP,2020.1.3,Win32,60,,m,1,0.70173,,,,,,,,0.70173,1,,,,,,82,WORD,"ID",50,stigma,STIGMA,m,,,,,,0.350926057,-0.328703716,0,0,0,,0,360,360,81,1,
,,,,,,,,,,,,,,,,,,5ee4aab1232e9d1b4d791bae,2020-08-10_16h23.36.107,lexical_decision_task_MP,2020.1.3,Win32,60,,m,1,0.538775,,,,,,,,0.538775,1,,,,,,108,WORD,"ID",50,reckon,RECKON,m,,,,,,0.350926057,-0.328703716,0,0,0,,0,361,361,107,1,
,,,,,,,,,,,,,,,,,,5ee4aab1232e9d1b4d791bae,2020-08-10_16h23.36.107,lexical_decision_task_MP,2020.1.3,Win32,60,,m,1,0.538125,,,,,,,,0.538125,1,,,,,,72,WORD,"ID",50,bright,BRIGHT,m,,,,,,0.350926057,-0.328703716,0,0,0,space,0,362,362,71,1,12.051115
,,,,,,,,,,,,,,,,,,5ee4aab1232e9d1b4d791bae,2020-08-10_16h23.36.107,lexical_decision_task_MP,2020.1.3,Win32,60,,z,1,0.600265,,,,,,,,0.600265,1,,,,,,309,NW,"ID",50,amiloy,AMILOY,z,,,,,,0.350926057,-0.328703716,0,0,0,,0,363,363,308,1,
,,,,,,,,,,,,,,,,,,5ee4aab1232e9d1b4d791bae,2020-08-10_16h23.36.107,lexical_decision_task_MP,2020.1.3,Win32,60,,z,1,0.85138,,,,,,,,0.85138,1,,,,,,328,NW,"ID",50,broake,BROAKE,z,,,,,,0.350926057,-0.328703716,0,0,0,,0,364,364,327,1,
,,,,,,,,,,,,,,,,,,5ee4aab1232e9d1b4d791bae,2020-08-10_16h23.36.107,lexical_decision_task_MP,2020.1.3,Win32,60,,z,1,0.915995,,,,,,,,0.915995,1,,,,,,397,NW,UN,33,blunde,CAMBLE,z,,,,,,0.350926057,-0.328703716,0,0,0,,0,365,365,396,1,
,,,,,,,,,,,,,,,,,,5ee4aab1232e9d1b4d791bae,2020-08-10_16h23.36.107,lexical_decision_task_MP,2020.1.3,Win32,60,,z,1,0.699545,,,,,,,,0.699545,1,,,,,,329,NW,"ID",50,yarike,YARIKE,z,,,,,,0.350926057,-0.328703716,0,0,0,,0,366,366,328,1,
,,,,,,,,,,,,,,,,,,5ee4aab1232e9d1b4d791bae,2020-08-10_16h23.36.107,lexical_decision_task_MP,2020.1.3,Win32,60,,m,1,0.506355,,,,,,,,0.506355,1,,,,,,15,WORD,"ID",33,amount,AMOUNT,m,,,,,,0.350926057,-0.328703716,0,0,0,,0,367,367,14,1,
,,,,,,,,,,,,,,,,,,5ee4aab1232e9d1b4d791bae,2020-08-10_16h23.36.107,lexical_decision_task_MP,2020.1.3,Win32,60,,m,1,1.045125,,,,,,,,1.045125,1,,,,,,204,WORD,UN,50,lounge,BURDEN,m,,,,,,0.350926057,-0.328703716,0,0,0,,0,368,368,203,1,
,,,,,,,,,,,,,,,,,,5ee4aab1232e9d1b4d791bae,2020-08-10_16h23.36.107,lexical_decision_task_MP,2020.1.3,Win32,60,,m,1,0.767235,,,,,,,,0.767235,1,,,,,,178,WORD,UN,33,mildew,INFORM,m,,,,,,0.350926057,-0.328703716,0,0,0,,0,369,369,177,1,
,,,,,,,,,,,,,,,,,,5ee4aab1232e9d1b4d791bae,2020-08-10_16h23.36.107,lexical_decision_task_MP,2020.1.3,Win32,60,,z,1,0.781535,,,,,,,,0.781535,1,,,,,,340,NW,"ID",50,fiatch,FIATCH,z,,,,,,0.350926057,-0.328703716,0,0,0,,0,370,370,339,1,
,,,,,,,,,,,,,,,,,,5ee4aab1232e9d1b4d791bae,2020-08-10_16h23.36.107,lexical_decision_task_MP,2020.1.3,Win32,60,,z,1,0.54919,,,,,,,,0.54919,1,,,,,,471,NW,UN,50,cigney,NOBEST,z,,,,,,0.350926057,-0.328703716,0,0,0,,0,371,371,470,1,
,,,,,,,,,,,,,,,,,,5ee4aab1232e9d1b4d791bae,2020-08-10_16h23.36.107,lexical_decision_task_MP,2020.1.3,Win32,60,,z,1,0.70435,,,,,,,,0.70435,1,,,,,,301,NW,"ID",50,fainch,FAINCH,z,,,,,,0.350926057,-0.328703716,0,0,0,,0,372,372,300,1,
,,,,,,,,,,,,,,,,,,5ee4aab1232e9d1b4d791bae,2020-08-10_16h23.36.107,lexical_decision_task_MP,2020.1.3,Win32,60,,z,0,1.415785,,,,,,,,1.415785,0,,,,,,142,WORD,UN,33,orphan,SPRUCE,m,,,,,,0.350926057,-0.328703716,0,0,0,,0,373,373,141,1,
,,,,,,,,,,,,,,,,,,5ee4aab1232e9d1b4d791bae,2020-08-10_16h23.36.107,lexical_decision_task_MP,2020.1.3,Win32,60,,z,1,0.96937,,,,,,,,0.96937,1,,,,,,453,NW,UN,50,scouge,BOLVIS,z,,,,,,0.350926057,-0.328703716,0,0,0,,0,374,374,452,1,
,,,,,,,,,,,,,,,,,,5ee4aab1232e9d1b4d791bae,2020-08-10_16h23.36.107,lexical_decision_task_MP,2020.1.3,Win32,60,,m,1,0.923755,,,,,,,,0.923755,1,,,,,,159,WORD,UN,33,violet,DETAIL,m,,,,,,0.350926057,-0.328703716,0,0,0,,0,375,375,158,1,
,,,,,,,,,,,,,,,,,,5ee4aab1232e9d1b4d791bae,2020-08-10_16h23.36.107,lexical_decision_task_MP,2020.1.3,Win32,60,,m,1,0.535755,,,,,,,,0.535755,1,,,,,,63,WORD,"ID",50,launch,LAUNCH,m,,,,,,0.350926057,-0.328703716,0,0,0,,0,376,376,62,1,
,,,,,,,,,,,,,,,,,,5ee4aab1232e9d1b4d791bae,2020-08-10_16h23.36.107,lexical_decision_task_MP,2020.1.3,Win32,60,,m,1,0.54137,,,,,,,,0.54137,1,,,,,,65,WORD,"ID",50,symbol,SYMBOL,m,,,,,,0.350926057,-0.328703716,0,0,0,,0,377,377,64,1,
,,,,,,,,,,,,,,,,,,5ee4aab1232e9d1b4d791bae,2020-08-10_16h23.36.107,lexical_decision_task_MP,2020.1.3,Win32,60,,m,1,0.53534,,,,,,,,0.53534,1,,,,,,36,WORD,"ID",33,vanish,VANISH,m,,,,,,0.350926057,-0.328703716,0,0,0,,0,378,378,35,1,
,,,,,,,,,,,,,,,,,,5ee4aab1232e9d1b4d791bae,2020-08-10_16h23.36.107,lexical_decision_task_MP,2020.1.3,Win32,60,,m,1,0.51945,,,,,,,,0.51945,1,,,,,,51,WORD,"ID",33,hungry,HUNGRY,m,,,,,,0.350926057,-0.328703716,0,0,0,,0,379,379,50,1,
,,,,,,,,,,,,,,,,,,5ee4aab1232e9d1b4d791bae,2020-08-10_16h23.36.107,lexical_decision_task_MP,2020.1.3,Win32,60,,z,1,0.786335,,,,,,,,0.786335,1,,,,,,477,NW,UN,50,acrise,PHOTIE,z,,,,,,0.350926057,-0.328703716,0,0,0,,0,380,380,476,1,
,,,,,,,,,,,,,,,,,,5ee4aab1232e9d1b4d791bae,2020-08-10_16h23.36.107,lexical_decision_task_MP,2020.1.3,Win32,60,,z,1,0.5781,,,,,,,,0.5781,1,,,,,,259,NW,"ID",33,soudal,SOUDAL,z,,,,,,0.350926057,-0.328703716,0,0,0,,0,381,381,258,1,
,,,,,,,,,,,,,,,,,,5ee4aab1232e9d1b4d791bae,2020-08-10_16h23.36.107,lexical_decision_task_MP,2020.1.3,Win32,60,,m,1,0.68311,,,,,,,,0.68311,1,,,,,,162,WORD,UN,33,string,CANDLE,m,,,,,,0.350926057,-0.328703716,0,0,0,,0,382,382,161,1,
,,,,,,,,,,,,,,,,,,5ee4aab1232e9d1b4d791bae,2020-08-10_16h23.36.107,lexical_decision_task_MP,2020.1.3,Win32,60,,m,1,0.76596,,,,,,,,0.76596,1,,,,,,160,WORD,UN,33,dragon,VIOLET,m,,,,,,0.350926057,-0.328703716,0,0,0,,0,383,383,159,1,
,,,,,,,,,,,,,,,,,,5ee4aab1232e9d1b4d791bae,2020-08-10_16h23.36.107,lexical_decision_task_MP,2020.1.3,Win32,60,,m,1,0.726305,,,,,,,,0.726305,1,,,,,,133,WORD,UN,33,debris,CHROME,m,,,,,,0.350926057,-0.328703716,0,0,0,,0,384,384,132,1,
,,,,,,,,,,,,,,,,,,5ee4aab1232e9d1b4d791bae,2020-08-10_16h23.36.107,lexical_decision_task_MP,2020.1.3,Win32,60,,z,1,1.014775,,,,,,,,1.014775,1,,,,,,280,NW,"ID",33,curbol,CURBOL,z,,,,,,0.350926057,-0.328703716,0,0,0,,0,385,385,279,1,
,,,,,,,,,,,,,,,,,,5ee4aab1232e9d1b4d791bae,2020-08-10_16h23.36.107,lexical_decision_task_MP,2020.1.3,Win32,60,,z,1,0.53647,,,,,,,,0.53647,1,,,,,,447,NW,UN,50,sadent,GIRCUE,z,,,,,,0.350926057,-0.328703716,0,0,0,,0,386,386,446,1,
,,,,,,,,,,,,,,,,,,5ee4aab1232e9d1b4d791bae,2020-08-10_16h23.36.107,lexical_decision_task_MP,2020.1.3,Win32,60,,m,1,0.572485,,,,,,,,0.572485,1,,,,,,196,WORD,UN,50,stream,CREDIT,m,,,,,,0.350926057,-0.328703716,0,0,0,,0,387,387,195,1,
,,,,,,,,,,,,,,,,,,5ee4aab1232e9d1b4d791bae,2020-08-10_16h23.36.107,lexical_decision_task_MP,2020.1.3,Win32,60,,z,1,0.63867,,,,,,,,0.63867,1,,,,,,281,NW,"ID",33,melaty,MELATY,z,,,,,,0.350926057,-0.328703716,0,0,0,,0,388,388,280,1,
,,,,,,,,,,,,,,,,,,5ee4aab1232e9d1b4d791bae,2020-08-10_16h23.36.107,lexical_decision_task_MP,2020.1.3,Win32,60,,m,1,0.66835,,,,,,,,0.66835,1,,,,,,166,WORD,UN,33,design,STARCH,m,,,,,,0.350926057,-0.328703716,0,0,0,,0,389,389,165,1,
,,,,,,,,,,,,,,,,,,5ee4aab1232e9d1b4d791bae,2020-08-10_16h23.36.107,lexical_decision_task_MP,2020.1.3,Win32,60,,m,1,0.821425,,,,,,,,0.821425,1,,,,,,163,WORD,UN,33,market,STRING,m,,,,,,0.350926057,-0.328703716,0,0,0,,0,390,390,162,1,
,,,,,,,,,,,,,,,,,,5ee4aab1232e9d1b4d791bae,2020-08-10_16h23.36.107,lexical_decision_task_MP,2020.1.3,Win32,60,,z,1,0.855355,,,,,,,,0.855355,1,,,,,,255,NW,"ID",33,apight,APIGHT,z,,,,,,0.350926057,-0.328703716,0,0,0,,0,391,391,254,1,
,,,,,,,,,,,,,,,,,,5ee4aab1232e9d1b4d791bae,2020-08-10_16h23.36.107,lexical_decision_task_MP,2020.1.3,Win32,60,,z,1,0.63637,,,,,,,,0.63637,1,,,,,,390,NW,UN,33,theldy,HATRUS,z,,,,,,0.350926057,-0.328703716,0,0,0,,0,392,392,389,1,
,,,,,,,,,,,,,,,,,,5ee4aab1232e9d1b4d791bae,2020-08-10_16h23.36.107,lexical_decision_task_MP,2020.1.3,Win32,60,,z,1,1.000925,,,,,,,,1.000925,1,,,,,,266,NW,"ID",33,varmit,VARMIT,z,,,,,,0.350926057,-0.328703716,0,0,0,,0,393,393,265,1,
,,,,,,,,,,,,,,,,,,5ee4aab1232e9d1b4d791bae,2020-08-10_16h23.36.107,lexical_decision_task_MP,2020.1.3,Win32,60,,z,1,1.258145,,,,,,,,1.258145,1,,,,,,438,NW,UN,50,limpor,BAITCH,z,,,,,,0.350926057,-0.328703716,0,0,0,,0,394,394,437,1,
,,,,,,,,,,,,,,,,,,5ee4aab1232e9d1b4d791bae,2020-08-10_16h23.36.107,lexical_decision_task_MP,2020.1.3,Win32,60,,z,1,0.93937,,,,,,,,0.93937,1,,,,,,411,NW,UN,33,jiluer,ORCHIN,z,,,,,,0.350926057,-0.328703716,0,0,0,,0,395,395,410,1,
,,,,,,,,,,,,,,,,,,5ee4aab1232e9d1b4d791bae,2020-08-10_16h23.36.107,lexical_decision_task_MP,2020.1.3,Win32,60,,,0,,,,,,,,,0.93937,-1,,,,,,298,NW,"ID",33,piergy,PIERGY,z,,,,,,0.350926057,-0.328703716,0,0,0,,0,396,396,297,1,
,,,,,,,,,,,,,,,,,,5ee4aab1232e9d1b4d791bae,2020-08-10_16h23.36.107,lexical_decision_task_MP,2020.1.3,Win32,60,,z,1,0.732415,,,,,,,,0.732415,1,,,,,,251,NW,"ID",33,lupict,LUPICT,z,,,,,,0.350926057,-0.328703716,0,0,0,,0,397,397,250,1,
,,,,,,,,,,,,,,,,,,5ee4aab1232e9d1b4d791bae,2020-08-10_16h23.36.107,lexical_decision_task_MP,2020.1.3,Win32,60,,z,1,0.61586,,,,,,,,0.61586,1,,,,,,478,NW,UN,50,lobush,ACRISE,z,,,,,,0.350926057,-0.328703716,0,0,0,,0,398,398,477,1,
,,,,,,,,,,,,,,,,,,5ee4aab1232e9d1b4d791bae,2020-08-10_16h23.36.107,lexical_decision_task_MP,2020.1.3,Win32,60,,z,1,0.68923,,,,,,,,0.68923,1,,,,,,277,NW,"ID",33,petain,PETAIN,z,,,,,,0.350926057,-0.328703716,0,0,0,,0,399,399,276,1,
,,,,,,,,,,,,,,,,,,5ee4aab1232e9d1b4d791bae,2020-08-10_16h23.36.107,lexical_decision_task_MP,2020.1.3,Win32,60,,z,1,0.9171,,,,,,,,0.9171,1,,,,,,387,NW,UN,33,cragin,GRONCE,z,,,,,,0.350926057,-0.328703716,0,0,0,,0,400,400,386,1,
,,,,,,,,,,,,,,,,,,5ee4aab1232e9d1b4d791bae,2020-08-10_16h23.36.107,lexical_decision_task_MP,2020.1.3,Win32,60,,m,1,0.58069,,,,,,,,0.58069,1,,,,,,93,WORD,"ID",50,public,PUBLIC,m,,,,,,0.350926057,-0.328703716,0,0,0,,0,401,401,92,1,
,,,,,,,,,,,,,,,,,,5ee4aab1232e9d1b4d791bae,2020-08-10_16h23.36.107,lexical_decision_task_MP,2020.1.3,Win32,60,,m,1,0.51261,,,,,,,,0.51261,1,,,,,,157,WORD,UN,33,island,DRAGON,m,,,,,,0.350926057,-0.328703716,0,0,0,,0,402,402,156,1,
