counterbalancing_condition,instr_done_keyboard.keys,instr_done_keyboard.rt,instr_done_touch.x,instr_done_touch.y,instr_done_touch.leftButton,instr_done_touch.midButton,instr_done_touch.rightButton,instruction_pages.thisRepN,instruction_pages.thisTrialN,instruction_pages.thisN,instruction_pages.thisIndex,instruction_pages.ran,pageN,phase,instruct_text,has_image,instruct_image,participant,date,expName,psychopyVersion,OS,frameRate,response.keys,response.corr,response.rt,touch_resp.x,touch_resp.y,touch_resp.leftButton,touch_resp.midButton,touch_resp.rightButton,touch_resp.time,touch_resp.clicked_name,rt,corr,practice_trials.thisRepN,practice_trials.thisTrialN,practice_trials.thisN,practice_trials.thisIndex,practice_trials.ran,TrialID,StimulusType,Condition,PrimeDuration,Prime,Target,corrAns,end_of_practice_trials_pages.thisRepN,end_of_practice_trials_pages.thisTrialN,end_of_practice_trials_pages.thisN,end_of_practice_trials_pages.thisIndex,end_of_practice_trials_pages.ran,break_done_touch.x,break_done_touch.y,break_done_touch.leftButton,break_done_touch.midButton,break_done_touch.rightButton,break_done_keyboard.keys,trials.thisRepN,trials.thisTrialN,trials.thisN,trials.thisIndex,trials.ran,break_done_keyboard.rt
1,space,23.26312,-0.457256944,0.003172743,0,0,0,0,0,0,0,1,1,instructions,"INSTRUCTIONS
At the start of each trial, look at the hash marks (######) in the center of the screen. After a moment, a string of letters will appear. Your task is to indicate if the letter string forms a word or not (i.e., if it is a nonword). For example, AUTHOR is a word while AUTHON is a nonword.

Press the space bar or touch the button below to continue.",0,,5ee561897247c02ad544c299,2020-08-10_11h47.16.290,lexical_decision_task_MP,2020.1.3,MacIntel,60,,,,,,,,,,,,,,,,,,,,,,,,,,,,,,,,,,,,,,,,,
,space,6.21643,-0.457256944,0.003172743,0,0,0,0,1,1,1,1,2,instructions,"If your device has a keyboard, press the 'Z' key for nonwords and the 'M' key for words.





Press the space bar or touch the button below to continue.",1,keyboard-example.gif,5ee561897247c02ad544c299,2020-08-10_11h47.16.290,lexical_decision_task_MP,2020.1.3,MacIntel,60,,,,,,,,,,,,,,,,,,,,,,,,,,,,,,,,,,,,,,,,,
,space,5.679735,-0.457256944,0.003172743,0,0,0,0,2,2,2,1,3,instructions,"If you are using a touchscreen only device, use the buttons on the screen. Do not use the mouse.





Press the space bar or touch the button below to continue.",1,touchscreen-example.gif,5ee561897247c02ad544c299,2020-08-10_11h47.16.290,lexical_decision_task_MP,2020.1.3,MacIntel,60,,,,,,,,,,,,,,,,,,,,,,,,,,,,,,,,,,,,,,,,,
,space,15.765695,-0.457256944,0.003172743,0,0,0,0,3,3,3,1,4,instructions,"It is very important that you respond as quickly and accurately as possible, as each letter string will only be on the screen for two seconds. If you do not respond within this time, the message 'Too slow!' will be displayed and the experiment will progress to the next letter string. The first 20 trials will be practice trials and you will receive feedback on your answers. 

Press the space bar or touch the button below to start the practice trials.",0,,5ee561897247c02ad544c299,2020-08-10_11h47.16.290,lexical_decision_task_MP,2020.1.3,MacIntel,60,,,,,,,,,,,,,,,,,,,,,,,,,,,,,,,,,,,,,,,,,
,,,,,,,,,,,,,,,,,,5ee561897247c02ad544c299,2020-08-10_11h47.16.290,lexical_decision_task_MP,2020.1.3,MacIntel,60,z,1,0.80986,,,,,,,,0.80986,1,0,0,0,13,1,1014,NW,UN,33,winfer,ROUPET,z,,,,,,,,,,,,,,,,,
,,,,,,,,,,,,,,,,,,5ee561897247c02ad544c299,2020-08-10_11h47.16.290,lexical_decision_task_MP,2020.1.3,MacIntel,60,z,1,0.768685,,,,,,,,0.768685,1,0,1,1,15,1,1016,NW,UN,50,mushed,WHAISE,z,,,,,,,,,,,,,,,,,
,,,,,,,,,,,,,,,,,,5ee561897247c02ad544c299,2020-08-10_11h47.16.290,lexical_decision_task_MP,2020.1.3,MacIntel,60,m,1,0.504375,,,,,,,,0.504375,1,0,2,2,5,1,1006,WORD,UN,33,frenzy,OBTAIN,m,,,,,,,,,,,,,,,,,
,,,,,,,,,,,,,,,,,,5ee561897247c02ad544c299,2020-08-10_11h47.16.290,lexical_decision_task_MP,2020.1.3,MacIntel,60,m,1,0.58709,,,,,,,,0.58709,1,0,3,3,6,1,1007,WORD,UN,50,tropic,ZOMBIE,m,,,,,,,,,,,,,,,,,
,,,,,,,,,,,,,,,,,,5ee561897247c02ad544c299,2020-08-10_11h47.16.290,lexical_decision_task_MP,2020.1.3,MacIntel,60,m,1,0.495725,,,,,,,,0.495725,1,0,4,4,2,1,1003,WORD,"ID",50,almond,ALMOND,m,,,,,,,,,,,,,,,,,
,,,,,,,,,,,,,,,,,,5ee561897247c02ad544c299,2020-08-10_11h47.16.290,lexical_decision_task_MP,2020.1.3,MacIntel,60,z,1,0.705265,,,,,,,,0.705265,1,0,5,5,8,1,1009,NW,"ID",33,aslert,ASLERT,z,,,,,,,,,,,,,,,,,
,,,,,,,,,,,,,,,,,,5ee561897247c02ad544c299,2020-08-10_11h47.16.290,lexical_decision_task_MP,2020.1.3,MacIntel,60,z,1,0.83645,,,,,,,,0.83645,1,0,6,6,10,1,1011,NW,"ID",50,inlade,INLADE,z,,,,,,,,,,,,,,,,,
,,,,,,,,,,,,,,,,,,5ee561897247c02ad544c299,2020-08-10_11h47.16.290,lexical_decision_task_MP,2020.1.3,MacIntel,60,z,0,0.653335,,,,,,,,0.653335,0,0,7,7,0,1,1001,WORD,"ID",33,utopia,UTOPIA,m,,,,,,,,,,,,,,,,,
,,,,,,,,,,,,,,,,,,5ee561897247c02ad544c299,2020-08-10_11h47.16.290,lexical_decision_task_MP,2020.1.3,MacIntel,60,m,1,0.483165,,,,,,,,0.483165,1,0,8,8,7,1,1008,WORD,UN,50,hurdle,VOLUME,m,,,,,,,,,,,,,,,,,
,,,,,,,,,,,,,,,,,,5ee561897247c02ad544c299,2020-08-10_11h47.16.290,lexical_decision_task_MP,2020.1.3,MacIntel,60,z,1,0.59532,,,,,,,,0.59532,1,0,9,9,11,1,1012,NW,"ID",50,rashet,RASHET,z,,,,,,,,,,,,,,,,,
,,,,,,,,,,,,,,,,,,5ee561897247c02ad544c299,2020-08-10_11h47.16.290,lexical_decision_task_MP,2020.1.3,MacIntel,60,m,1,0.623915,,,,,,,,0.623915,1,0,10,10,1,1,1002,WORD,"ID",33,adjust,ADJUST,m,,,,,,,,,,,,,,,,,
,,,,,,,,,,,,,,,,,,5ee561897247c02ad544c299,2020-08-10_11h47.16.290,lexical_decision_task_MP,2020.1.3,MacIntel,60,z,1,0.6513,,,,,,,,0.6513,1,0,11,11,14,1,1015,NW,UN,50,miaber,THRALE,z,,,,,,,,,,,,,,,,,
,,,,,,,,,,,,,,,,,,5ee561897247c02ad544c299,2020-08-10_11h47.16.290,lexical_decision_task_MP,2020.1.3,MacIntel,60,z,1,0.599565,,,,,,,,0.599565,1,0,12,12,12,1,1013,NW,UN,33,adveil,SPRINY,z,,,,,,,,,,,,,,,,,
,,,,,,,,,,,,,,,,,,5ee561897247c02ad544c299,2020-08-10_11h47.16.290,lexical_decision_task_MP,2020.1.3,MacIntel,60,m,1,0.620345,,,,,,,,0.620345,1,0,13,13,4,1,1005,WORD,UN,33,abound,SQUEAK,m,,,,,,,,,,,,,,,,,
,,,,,,,,,,,,,,,,,,5ee561897247c02ad544c299,2020-08-10_11h47.16.290,lexical_decision_task_MP,2020.1.3,MacIntel,60,m,1,0.53576,,,,,,,,0.53576,1,0,14,14,3,1,1004,WORD,"ID",50,matrix,MATRIX,m,,,,,,,,,,,,,,,,,
,,,,,,,,,,,,,,,,,,5ee561897247c02ad544c299,2020-08-10_11h47.16.290,lexical_decision_task_MP,2020.1.3,MacIntel,60,z,1,0.58444,,,,,,,,0.58444,1,0,15,15,9,1,1010,NW,"ID",33,fariny,FARINY,z,,,,,,,,,,,,,,,,,
,space,23.21411,-0.457838542,0.003177083,0,0,0,,,,,,1,end_of_practice,"You have completed the practice trials. During the experimental trials, you will not receive feedback, but it is very important that you respond as quickly and accurately as possible. 
Before you begin, please ensure that you are in a comfortable and quiet location and will not be disturbed for about 15 minutes, as we cannot use your data if you do not complete all the trials. 
There will be opportunities to take breaks at regular intervals during the experiment. When you are ready to start the experimental trials, please press space or touch the button below.",,,5ee561897247c02ad544c299,2020-08-10_11h47.16.290,lexical_decision_task_MP,2020.1.3,MacIntel,60,,,,,,,,,,,,,,,,,,,,,,,,,0,0,0,0,1,,,,,,,,,,,,
,,,,,,,,,,,,,,,,,,5ee561897247c02ad544c299,2020-08-10_11h47.16.290,lexical_decision_task_MP,2020.1.3,MacIntel,60,m,1,0.5358,,,,,,,,0.5358,1,,,,,,208,WORD,UN,50,search,HOCKEY,m,,,,,,-0.457838542,0.003177083,0,0,0,,0,0,0,207,1,
,,,,,,,,,,,,,,,,,,5ee561897247c02ad544c299,2020-08-10_11h47.16.290,lexical_decision_task_MP,2020.1.3,MacIntel,60,m,1,0.564895,,,,,,,,0.564895,1,,,,,,181,WORD,UN,50,winter,GLANCE,m,,,,,,-0.457838542,0.003177083,0,0,0,,0,1,1,180,1,
,,,,,,,,,,,,,,,,,,5ee561897247c02ad544c299,2020-08-10_11h47.16.290,lexical_decision_task_MP,2020.1.3,MacIntel,60,m,1,0.486005,,,,,,,,0.486005,1,,,,,,188,WORD,UN,50,censor,SOCIAL,m,,,,,,-0.457838542,0.003177083,0,0,0,,0,2,2,187,1,
,,,,,,,,,,,,,,,,,,5ee561897247c02ad544c299,2020-08-10_11h47.16.290,lexical_decision_task_MP,2020.1.3,MacIntel,60,z,1,0.492535,,,,,,,,0.492535,1,,,,,,466,NW,UN,50,pebric,HOCITE,z,,,,,,-0.457838542,0.003177083,0,0,0,,0,3,3,465,1,
,,,,,,,,,,,,,,,,,,5ee561897247c02ad544c299,2020-08-10_11h47.16.290,lexical_decision_task_MP,2020.1.3,MacIntel,60,z,1,0.568005,,,,,,,,0.568005,1,,,,,,254,NW,"ID",33,varosh,VAROSH,z,,,,,,-0.457838542,0.003177083,0,0,0,,0,4,4,253,1,
,,,,,,,,,,,,,,,,,,5ee561897247c02ad544c299,2020-08-10_11h47.16.290,lexical_decision_task_MP,2020.1.3,MacIntel,60,m,1,0.505575,,,,,,,,0.505575,1,,,,,,20,WORD,"ID",33,breast,BREAST,m,,,,,,-0.457838542,0.003177083,0,0,0,,0,5,5,19,1,
,,,,,,,,,,,,,,,,,,5ee561897247c02ad544c299,2020-08-10_11h47.16.290,lexical_decision_task_MP,2020.1.3,MacIntel,60,z,1,0.55648,,,,,,,,0.55648,1,,,,,,477,NW,UN,50,acrise,PHOTIE,z,,,,,,-0.457838542,0.003177083,0,0,0,,0,6,6,476,1,
,,,,,,,,,,,,,,,,,,5ee561897247c02ad544c299,2020-08-10_11h47.16.290,lexical_decision_task_MP,2020.1.3,MacIntel,60,m,1,0.50636,,,,,,,,0.50636,1,,,,,,190,WORD,UN,50,stable,BACKUP,m,,,,,,-0.457838542,0.003177083,0,0,0,,0,7,7,189,1,
,,,,,,,,,,,,,,,,,,5ee561897247c02ad544c299,2020-08-10_11h47.16.290,lexical_decision_task_MP,2020.1.3,MacIntel,60,z,1,0.4716,,,,,,,,0.4716,1,,,,,,408,NW,UN,33,flumni,HURNIA,z,,,,,,-0.457838542,0.003177083,0,0,0,,0,8,8,407,1,
,,,,,,,,,,,,,,,,,,5ee561897247c02ad544c299,2020-08-10_11h47.16.290,lexical_decision_task_MP,2020.1.3,MacIntel,60,z,1,0.49436,,,,,,,,0.49436,1,,,,,,362,NW,UN,33,breali,TIREAU,z,,,,,,-0.457838542,0.003177083,0,0,0,,0,9,9,361,1,
,,,,,,,,,,,,,,,,,,5ee561897247c02ad544c299,2020-08-10_11h47.16.290,lexical_decision_task_MP,2020.1.3,MacIntel,60,z,1,0.54897,,,,,,,,0.54897,1,,,,,,276,NW,"ID",33,yarmon,YARMON,z,,,,,,-0.457838542,0.003177083,0,0,0,,0,10,10,275,1,
,,,,,,,,,,,,,,,,,,5ee561897247c02ad544c299,2020-08-10_11h47.16.290,lexical_decision_task_MP,2020.1.3,MacIntel,60,m,1,0.471495,,,,,,,,0.471495,1,,,,,,54,WORD,"ID",33,ramble,RAMBLE,m,,,,,,-0.457838542,0.003177083,0,0,0,,0,11,11,53,1,
,,,,,,,,,,,,,,,,,,5ee561897247c02ad544c299,2020-08-10_11h47.16.290,lexical_decision_task_MP,2020.1.3,MacIntel,60,m,1,0.681565,,,,,,,,0.681565,1,,,,,,197,WORD,UN,50,wicked,STREAM,m,,,,,,-0.457838542,0.003177083,0,0,0,,0,12,12,196,1,
,,,,,,,,,,,,,,,,,,5ee561897247c02ad544c299,2020-08-10_11h47.16.290,lexical_decision_task_MP,2020.1.3,MacIntel,60,m,1,0.567315,,,,,,,,0.567315,1,,,,,,7,WORD,"ID",33,anchor,ANCHOR,m,,,,,,-0.457838542,0.003177083,0,0,0,,0,13,13,6,1,
,,,,,,,,,,,,,,,,,,5ee561897247c02ad544c299,2020-08-10_11h47.16.290,lexical_decision_task_MP,2020.1.3,MacIntel,60,m,1,0.482265,,,,,,,,0.482265,1,,,,,,144,WORD,UN,33,parish,SPONGE,m,,,,,,-0.457838542,0.003177083,0,0,0,,0,14,14,143,1,
,,,,,,,,,,,,,,,,,,5ee561897247c02ad544c299,2020-08-10_11h47.16.290,lexical_decision_task_MP,2020.1.3,MacIntel,60,m,1,0.48897,,,,,,,,0.48897,1,,,,,,126,WORD,UN,33,castle,ENOUGH,m,,,,,,-0.457838542,0.003177083,0,0,0,,0,15,15,125,1,
,,,,,,,,,,,,,,,,,,5ee561897247c02ad544c299,2020-08-10_11h47.16.290,lexical_decision_task_MP,2020.1.3,MacIntel,60,m,1,0.56539,,,,,,,,0.56539,1,,,,,,21,WORD,"ID",33,simple,SIMPLE,m,,,,,,-0.457838542,0.003177083,0,0,0,,0,16,16,20,1,
,,,,,,,,,,,,,,,,,,5ee561897247c02ad544c299,2020-08-10_11h47.16.290,lexical_decision_task_MP,2020.1.3,MacIntel,60,z,1,0.59459,,,,,,,,0.59459,1,,,,,,290,NW,"ID",33,splino,SPLINO,z,,,,,,-0.457838542,0.003177083,0,0,0,,0,17,17,289,1,
,,,,,,,,,,,,,,,,,,5ee561897247c02ad544c299,2020-08-10_11h47.16.290,lexical_decision_task_MP,2020.1.3,MacIntel,60,z,1,0.583015,,,,,,,,0.583015,1,,,,,,349,NW,"ID",50,asylen,ASYLEN,z,,,,,,-0.457838542,0.003177083,0,0,0,,0,18,18,348,1,
,,,,,,,,,,,,,,,,,,5ee561897247c02ad544c299,2020-08-10_11h47.16.290,lexical_decision_task_MP,2020.1.3,MacIntel,60,m,1,0.54982,,,,,,,,0.54982,1,,,,,,154,WORD,UN,33,lizard,AUTHOR,m,,,,,,-0.457838542,0.003177083,0,0,0,,0,19,19,153,1,
,,,,,,,,,,,,,,,,,,5ee561897247c02ad544c299,2020-08-10_11h47.16.290,lexical_decision_task_MP,2020.1.3,MacIntel,60,z,1,0.53154,,,,,,,,0.53154,1,,,,,,297,NW,"ID",33,fertic,FERTIC,z,,,,,,-0.457838542,0.003177083,0,0,0,,0,20,20,296,1,
,,,,,,,,,,,,,,,,,,5ee561897247c02ad544c299,2020-08-10_11h47.16.290,lexical_decision_task_MP,2020.1.3,MacIntel,60,z,1,0.56471,,,,,,,,0.56471,1,,,,,,364,NW,UN,33,guairt,IMPOTE,z,,,,,,-0.457838542,0.003177083,0,0,0,,0,21,21,363,1,
,,,,,,,,,,,,,,,,,,5ee561897247c02ad544c299,2020-08-10_11h47.16.290,lexical_decision_task_MP,2020.1.3,MacIntel,60,z,1,0.65764,,,,,,,,0.65764,1,,,,,,398,NW,UN,33,fouret,BLUNDE,z,,,,,,-0.457838542,0.003177083,0,0,0,,0,22,22,397,1,
,,,,,,,,,,,,,,,,,,5ee561897247c02ad544c299,2020-08-10_11h47.16.290,lexical_decision_task_MP,2020.1.3,MacIntel,60,m,1,0.626675,,,,,,,,0.626675,1,,,,,,234,WORD,UN,50,lumber,CLUMSY,m,,,,,,-0.457838542,0.003177083,0,0,0,,0,23,23,233,1,
,,,,,,,,,,,,,,,,,,5ee561897247c02ad544c299,2020-08-10_11h47.16.290,lexical_decision_task_MP,2020.1.3,MacIntel,60,z,1,0.54791,,,,,,,,0.54791,1,,,,,,272,NW,"ID",33,damilt,DAMILT,z,,,,,,-0.457838542,0.003177083,0,0,0,,0,24,24,271,1,
,,,,,,,,,,,,,,,,,,5ee561897247c02ad544c299,2020-08-10_11h47.16.290,lexical_decision_task_MP,2020.1.3,MacIntel,60,z,1,0.538285,,,,,,,,0.538285,1,,,,,,441,NW,UN,50,aboune,RASTOE,z,,,,,,-0.457838542,0.003177083,0,0,0,,0,25,25,440,1,
,,,,,,,,,,,,,,,,,,5ee561897247c02ad544c299,2020-08-10_11h47.16.290,lexical_decision_task_MP,2020.1.3,MacIntel,60,m,1,0.55316,,,,,,,,0.55316,1,,,,,,201,WORD,UN,50,factor,ADMIRE,m,,,,,,-0.457838542,0.003177083,0,0,0,,0,26,26,200,1,
,,,,,,,,,,,,,,,,,,5ee561897247c02ad544c299,2020-08-10_11h47.16.290,lexical_decision_task_MP,2020.1.3,MacIntel,60,m,1,0.649015,,,,,,,,0.649015,1,,,,,,189,WORD,UN,50,backup,CENSOR,m,,,,,,-0.457838542,0.003177083,0,0,0,,0,27,27,188,1,
,,,,,,,,,,,,,,,,,,5ee561897247c02ad544c299,2020-08-10_11h47.16.290,lexical_decision_task_MP,2020.1.3,MacIntel,60,z,1,0.65162,,,,,,,,0.65162,1,,,,,,452,NW,UN,50,bolvis,SURDEN,z,,,,,,-0.457838542,0.003177083,0,0,0,,0,28,28,451,1,
,,,,,,,,,,,,,,,,,,5ee561897247c02ad544c299,2020-08-10_11h47.16.290,lexical_decision_task_MP,2020.1.3,MacIntel,60,m,1,0.50033,,,,,,,,0.50033,1,,,,,,61,WORD,"ID",50,ponder,PONDER,m,,,,,,-0.457838542,0.003177083,0,0,0,,0,29,29,60,1,
,,,,,,,,,,,,,,,,,,5ee561897247c02ad544c299,2020-08-10_11h47.16.290,lexical_decision_task_MP,2020.1.3,MacIntel,60,z,1,0.501225,,,,,,,,0.501225,1,,,,,,324,NW,"ID",50,steikh,STEIKH,z,,,,,,-0.457838542,0.003177083,0,0,0,,0,30,30,323,1,
,,,,,,,,,,,,,,,,,,5ee561897247c02ad544c299,2020-08-10_11h47.16.290,lexical_decision_task_MP,2020.1.3,MacIntel,60,z,1,0.600365,,,,,,,,0.600365,1,,,,,,288,NW,"ID",33,yaceup,YACEUP,z,,,,,,-0.457838542,0.003177083,0,0,0,,0,31,31,287,1,
,,,,,,,,,,,,,,,,,,5ee561897247c02ad544c299,2020-08-10_11h47.16.290,lexical_decision_task_MP,2020.1.3,MacIntel,60,z,1,0.49936,,,,,,,,0.49936,1,,,,,,333,NW,"ID",50,catrie,CATRIE,z,,,,,,-0.457838542,0.003177083,0,0,0,,0,32,32,332,1,
,,,,,,,,,,,,,,,,,,5ee561897247c02ad544c299,2020-08-10_11h47.16.290,lexical_decision_task_MP,2020.1.3,MacIntel,60,m,1,0.451715,,,,,,,,0.451715,1,,,,,,173,WORD,UN,33,turkey,SHOWER,m,,,,,,-0.457838542,0.003177083,0,0,0,,0,33,33,172,1,
,,,,,,,,,,,,,,,,,,5ee561897247c02ad544c299,2020-08-10_11h47.16.290,lexical_decision_task_MP,2020.1.3,MacIntel,60,m,1,0.58139,,,,,,,,0.58139,1,,,,,,18,WORD,"ID",33,humble,HUMBLE,m,,,,,,-0.457838542,0.003177083,0,0,0,,0,34,34,17,1,
,,,,,,,,,,,,,,,,,,5ee561897247c02ad544c299,2020-08-10_11h47.16.290,lexical_decision_task_MP,2020.1.3,MacIntel,60,z,1,0.53211,,,,,,,,0.53211,1,,,,,,258,NW,"ID",33,poluth,POLUTH,z,,,,,,-0.457838542,0.003177083,0,0,0,,0,35,35,257,1,
,,,,,,,,,,,,,,,,,,5ee561897247c02ad544c299,2020-08-10_11h47.16.290,lexical_decision_task_MP,2020.1.3,MacIntel,60,z,1,0.601635,,,,,,,,0.601635,1,,,,,,397,NW,UN,33,blunde,CAMBLE,z,,,,,,-0.457838542,0.003177083,0,0,0,,0,36,36,396,1,
,,,,,,,,,,,,,,,,,,5ee561897247c02ad544c299,2020-08-10_11h47.16.290,lexical_decision_task_MP,2020.1.3,MacIntel,60,m,1,0.489105,,,,,,,,0.489105,1,,,,,,224,WORD,UN,50,vulgar,PERIOD,m,,,,,,-0.457838542,0.003177083,0,0,0,,0,37,37,223,1,
,,,,,,,,,,,,,,,,,,5ee561897247c02ad544c299,2020-08-10_11h47.16.290,lexical_decision_task_MP,2020.1.3,MacIntel,60,z,1,0.540255,,,,,,,,0.540255,1,,,,,,354,NW,"ID",50,virlex,VIRLEX,z,,,,,,-0.457838542,0.003177083,0,0,0,,0,38,38,353,1,
,,,,,,,,,,,,,,,,,,5ee561897247c02ad544c299,2020-08-10_11h47.16.290,lexical_decision_task_MP,2020.1.3,MacIntel,60,m,1,0.558355,,,,,,,,0.558355,1,,,,,,165,WORD,UN,33,starch,INVEST,m,,,,,,-0.457838542,0.003177083,0,0,0,,0,39,39,164,1,
,,,,,,,,,,,,,,,,,,5ee561897247c02ad544c299,2020-08-10_11h47.16.290,lexical_decision_task_MP,2020.1.3,MacIntel,60,z,1,0.635625,,,,,,,,0.635625,1,,,,,,442,NW,UN,50,dorsex,ABOUNE,z,,,,,,-0.457838542,0.003177083,0,0,0,,0,40,40,441,1,
,,,,,,,,,,,,,,,,,,5ee561897247c02ad544c299,2020-08-10_11h47.16.290,lexical_decision_task_MP,2020.1.3,MacIntel,60,m,1,0.60067,,,,,,,,0.60067,1,,,,,,145,WORD,UN,33,couple,PARISH,m,,,,,,-0.457838542,0.003177083,0,0,0,,0,41,41,144,1,
,,,,,,,,,,,,,,,,,,5ee561897247c02ad544c299,2020-08-10_11h47.16.290,lexical_decision_task_MP,2020.1.3,MacIntel,60,m,1,0.45192,,,,,,,,0.45192,1,,,,,,148,WORD,UN,33,invade,CUSTOM,m,,,,,,-0.457838542,0.003177083,0,0,0,,0,42,42,147,1,
,,,,,,,,,,,,,,,,,,5ee561897247c02ad544c299,2020-08-10_11h47.16.290,lexical_decision_task_MP,2020.1.3,MacIntel,60,z,0,0.517855,,,,,,,,0.517855,0,,,,,,30,WORD,"ID",33,orient,ORIENT,m,,,,,,-0.457838542,0.003177083,0,0,0,,0,43,43,29,1,
,,,,,,,,,,,,,,,,,,5ee561897247c02ad544c299,2020-08-10_11h47.16.290,lexical_decision_task_MP,2020.1.3,MacIntel,60,m,1,0.56649,,,,,,,,0.56649,1,,,,,,209,WORD,UN,50,monkey,SEARCH,m,,,,,,-0.457838542,0.003177083,0,0,0,,0,44,44,208,1,
,,,,,,,,,,,,,,,,,,5ee561897247c02ad544c299,2020-08-10_11h47.16.290,lexical_decision_task_MP,2020.1.3,MacIntel,60,m,1,0.519835,,,,,,,,0.519835,1,,,,,,86,WORD,"ID",50,rodent,RODENT,m,,,,,,-0.457838542,0.003177083,0,0,0,,0,45,45,85,1,
,,,,,,,,,,,,,,,,,,5ee561897247c02ad544c299,2020-08-10_11h47.16.290,lexical_decision_task_MP,2020.1.3,MacIntel,60,m,1,0.481525,,,,,,,,0.481525,1,,,,,,167,WORD,UN,33,answer,DESIGN,m,,,,,,-0.457838542,0.003177083,0,0,0,,0,46,46,166,1,
,,,,,,,,,,,,,,,,,,5ee561897247c02ad544c299,2020-08-10_11h47.16.290,lexical_decision_task_MP,2020.1.3,MacIntel,60,z,1,0.492365,,,,,,,,0.492365,1,,,,,,458,NW,UN,50,chaite,BARCET,z,,,,,,-0.457838542,0.003177083,0,0,0,,0,47,47,457,1,
,,,,,,,,,,,,,,,,,,5ee561897247c02ad544c299,2020-08-10_11h47.16.290,lexical_decision_task_MP,2020.1.3,MacIntel,60,m,1,0.602555,,,,,,,,0.602555,1,,,,,,220,WORD,UN,50,mascot,VOYAGE,m,,,,,,-0.457838542,0.003177083,0,0,0,,0,48,48,219,1,
,,,,,,,,,,,,,,,,,,5ee561897247c02ad544c299,2020-08-10_11h47.16.290,lexical_decision_task_MP,2020.1.3,MacIntel,60,m,1,0.566235,,,,,,,,0.566235,1,,,,,,130,WORD,UN,33,quench,STUPID,m,,,,,,-0.457838542,0.003177083,0,0,0,,0,49,49,129,1,
,,,,,,,,,,,,,,,,,,5ee561897247c02ad544c299,2020-08-10_11h47.16.290,lexical_decision_task_MP,2020.1.3,MacIntel,60,m,1,0.59895,,,,,,,,0.59895,1,,,,,,214,WORD,UN,50,phobia,INTAKE,m,,,,,,-0.457838542,0.003177083,0,0,0,,0,50,50,213,1,
,,,,,,,,,,,,,,,,,,5ee561897247c02ad544c299,2020-08-10_11h47.16.290,lexical_decision_task_MP,2020.1.3,MacIntel,60,m,1,0.56629,,,,,,,,0.56629,1,,,,,,140,WORD,UN,33,reason,PRINCE,m,,,,,,-0.457838542,0.003177083,0,0,0,,0,51,51,139,1,
,,,,,,,,,,,,,,,,,,5ee561897247c02ad544c299,2020-08-10_11h47.16.290,lexical_decision_task_MP,2020.1.3,MacIntel,60,z,1,0.81525,,,,,,,,0.81525,1,,,,,,436,NW,UN,50,snapel,FRUTAN,z,,,,,,-0.457838542,0.003177083,0,0,0,,0,52,52,435,1,
,,,,,,,,,,,,,,,,,,5ee561897247c02ad544c299,2020-08-10_11h47.16.290,lexical_decision_task_MP,2020.1.3,MacIntel,60,m,1,0.658175,,,,,,,,0.658175,1,,,,,,93,WORD,"ID",50,public,PUBLIC,m,,,,,,-0.457838542,0.003177083,0,0,0,,0,53,53,92,1,
,,,,,,,,,,,,,,,,,,5ee561897247c02ad544c299,2020-08-10_11h47.16.290,lexical_decision_task_MP,2020.1.3,MacIntel,60,m,1,0.5511,,,,,,,,0.5511,1,,,,,,32,WORD,"ID",33,buckle,BUCKLE,m,,,,,,-0.457838542,0.003177083,0,0,0,,0,54,54,31,1,
,,,,,,,,,,,,,,,,,,5ee561897247c02ad544c299,2020-08-10_11h47.16.290,lexical_decision_task_MP,2020.1.3,MacIntel,60,z,1,1.033235,,,,,,,,1.033235,1,,,,,,470,NW,UN,50,nobest,CRUDIO,z,,,,,,-0.457838542,0.003177083,0,0,0,,0,55,55,469,1,
,,,,,,,,,,,,,,,,,,5ee561897247c02ad544c299,2020-08-10_11h47.16.290,lexical_decision_task_MP,2020.1.3,MacIntel,60,m,1,0.62329,,,,,,,,0.62329,1,,,,,,23,WORD,"ID",33,wealth,WEALTH,m,,,,,,-0.457838542,0.003177083,0,0,0,,0,56,56,22,1,
,,,,,,,,,,,,,,,,,,5ee561897247c02ad544c299,2020-08-10_11h47.16.290,lexical_decision_task_MP,2020.1.3,MacIntel,60,z,1,0.72162,,,,,,,,0.72162,1,,,,,,260,NW,"ID",33,unject,UNJECT,z,,,,,,-0.457838542,0.003177083,0,0,0,,0,57,57,259,1,
,,,,,,,,,,,,,,,,,,5ee561897247c02ad544c299,2020-08-10_11h47.16.290,lexical_decision_task_MP,2020.1.3,MacIntel,60,m,1,0.600885,,,,,,,,0.600885,1,,,,,,122,WORD,UN,33,strike,LINGER,m,,,,,,-0.457838542,0.003177083,0,0,0,,0,58,58,121,1,
,,,,,,,,,,,,,,,,,,5ee561897247c02ad544c299,2020-08-10_11h47.16.290,lexical_decision_task_MP,2020.1.3,MacIntel,60,m,1,0.54454,,,,,,,,0.54454,1,,,,,,47,WORD,"ID",33,income,INCOME,m,,,,,,-0.457838542,0.003177083,0,0,0,,0,59,59,46,1,
,,,,,,,,,,,,,,,,,,5ee561897247c02ad544c299,2020-08-10_11h47.16.290,lexical_decision_task_MP,2020.1.3,MacIntel,60,m,1,0.638865,,,,,,,,0.638865,1,,,,,,230,WORD,UN,50,export,FRINGE,m,,,,,,-0.457838542,0.003177083,0,0,0,,0,60,60,229,1,
,,,,,,,,,,,,,,,,,,5ee561897247c02ad544c299,2020-08-10_11h47.16.290,lexical_decision_task_MP,2020.1.3,MacIntel,60,m,1,0.586555,,,,,,,,0.586555,1,,,,,,48,WORD,"ID",33,walnut,WALNUT,m,,,,,,-0.457838542,0.003177083,0,0,0,,0,61,61,47,1,
,,,,,,,,,,,,,,,,,,5ee561897247c02ad544c299,2020-08-10_11h47.16.290,lexical_decision_task_MP,2020.1.3,MacIntel,60,m,1,0.56528,,,,,,,,0.56528,1,,,,,,12,WORD,"ID",33,orange,ORANGE,m,,,,,,-0.457838542,0.003177083,0,0,0,,0,62,62,11,1,
,,,,,,,,,,,,,,,,,,5ee561897247c02ad544c299,2020-08-10_11h47.16.290,lexical_decision_task_MP,2020.1.3,MacIntel,60,z,1,0.7016,,,,,,,,0.7016,1,,,,,,310,NW,"ID",50,daniet,DANIET,z,,,,,,-0.457838542,0.003177083,0,0,0,,0,63,63,309,1,
,,,,,,,,,,,,,,,,,,5ee561897247c02ad544c299,2020-08-10_11h47.16.290,lexical_decision_task_MP,2020.1.3,MacIntel,60,z,1,0.674085,,,,,,,,0.674085,1,,,,,,319,NW,"ID",50,zomber,ZOMBER,z,,,,,,-0.457838542,0.003177083,0,0,0,,0,64,64,318,1,
,,,,,,,,,,,,,,,,,,5ee561897247c02ad544c299,2020-08-10_11h47.16.290,lexical_decision_task_MP,2020.1.3,MacIntel,60,z,1,0.798915,,,,,,,,0.798915,1,,,,,,409,NW,UN,33,tunory,ELOPIA,z,,,,,,-0.457838542,0.003177083,0,0,0,,0,65,65,408,1,
,,,,,,,,,,,,,,,,,,5ee561897247c02ad544c299,2020-08-10_11h47.16.290,lexical_decision_task_MP,2020.1.3,MacIntel,60,z,1,0.598755,,,,,,,,0.598755,1,,,,,,419,NW,UN,33,gushop,SLOUNT,z,,,,,,-0.457838542,0.003177083,0,0,0,,0,66,66,418,1,
,,,,,,,,,,,,,,,,,,5ee561897247c02ad544c299,2020-08-10_11h47.16.290,lexical_decision_task_MP,2020.1.3,MacIntel,60,m,1,0.70242,,,,,,,,0.70242,1,,,,,,218,WORD,UN,50,bucket,SHRINK,m,,,,,,-0.457838542,0.003177083,0,0,0,,0,67,67,217,1,
,,,,,,,,,,,,,,,,,,5ee561897247c02ad544c299,2020-08-10_11h47.16.290,lexical_decision_task_MP,2020.1.3,MacIntel,60,z,1,0.76052,,,,,,,,0.76052,1,,,,,,448,NW,UN,50,brunge,SADENT,z,,,,,,-0.457838542,0.003177083,0,0,0,,0,68,68,447,1,
,,,,,,,,,,,,,,,,,,5ee561897247c02ad544c299,2020-08-10_11h47.16.290,lexical_decision_task_MP,2020.1.3,MacIntel,60,m,1,0.63859,,,,,,,,0.63859,1,,,,,,17,WORD,"ID",33,charge,CHARGE,m,,,,,,-0.457838542,0.003177083,0,0,0,,0,69,69,16,1,
,,,,,,,,,,,,,,,,,,5ee561897247c02ad544c299,2020-08-10_11h47.16.290,lexical_decision_task_MP,2020.1.3,MacIntel,60,z,1,0.758195,,,,,,,,0.758195,1,,,,,,432,NW,UN,50,drance,LUNKER,z,,,,,,-0.457838542,0.003177083,0,0,0,,0,70,70,431,1,
,,,,,,,,,,,,,,,,,,5ee561897247c02ad544c299,2020-08-10_11h47.16.290,lexical_decision_task_MP,2020.1.3,MacIntel,60,z,1,0.584695,,,,,,,,0.584695,1,,,,,,473,NW,UN,50,hablin,CRIBLE,z,,,,,,-0.457838542,0.003177083,0,0,0,,0,71,71,472,1,
,,,,,,,,,,,,,,,,,,5ee561897247c02ad544c299,2020-08-10_11h47.16.290,lexical_decision_task_MP,2020.1.3,MacIntel,60,m,1,0.574535,,,,,,,,0.574535,1,,,,,,107,WORD,"ID",50,slogan,SLOGAN,m,,,,,,-0.457838542,0.003177083,0,0,0,,0,72,72,106,1,
,,,,,,,,,,,,,,,,,,5ee561897247c02ad544c299,2020-08-10_11h47.16.290,lexical_decision_task_MP,2020.1.3,MacIntel,60,z,1,0.666925,,,,,,,,0.666925,1,,,,,,417,NW,UN,33,suidle,EAROUD,z,,,,,,-0.457838542,0.003177083,0,0,0,,0,73,73,416,1,
,,,,,,,,,,,,,,,,,,5ee561897247c02ad544c299,2020-08-10_11h47.16.290,lexical_decision_task_MP,2020.1.3,MacIntel,60,m,1,0.600875,,,,,,,,0.600875,1,,,,,,118,WORD,"ID",50,flight,FLIGHT,m,,,,,,-0.457838542,0.003177083,0,0,0,,0,74,74,117,1,
,,,,,,,,,,,,,,,,,,5ee561897247c02ad544c299,2020-08-10_11h47.16.290,lexical_decision_task_MP,2020.1.3,MacIntel,60,z,1,0.63587,,,,,,,,0.63587,1,,,,,,475,NW,UN,50,robuly,PEBRIC,z,,,,,,-0.457838542,0.003177083,0,0,0,,0,75,75,474,1,
,,,,,,,,,,,,,,,,,,5ee561897247c02ad544c299,2020-08-10_11h47.16.290,lexical_decision_task_MP,2020.1.3,MacIntel,60,m,1,0.60676,,,,,,,,0.60676,1,,,,,,115,WORD,"ID",50,guitar,GUITAR,m,,,,,,-0.457838542,0.003177083,0,0,0,,0,76,76,114,1,
,,,,,,,,,,,,,,,,,,5ee561897247c02ad544c299,2020-08-10_11h47.16.290,lexical_decision_task_MP,2020.1.3,MacIntel,60,m,1,0.48454,,,,,,,,0.48454,1,,,,,,174,WORD,UN,33,fabric,TURKEY,m,,,,,,-0.457838542,0.003177083,0,0,0,,0,77,77,173,1,
,,,,,,,,,,,,,,,,,,5ee561897247c02ad544c299,2020-08-10_11h47.16.290,lexical_decision_task_MP,2020.1.3,MacIntel,60,z,1,0.54872,,,,,,,,0.54872,1,,,,,,304,NW,"ID",50,cludie,CLUDIE,z,,,,,,-0.457838542,0.003177083,0,0,0,,0,78,78,303,1,
,,,,,,,,,,,,,,,,,,5ee561897247c02ad544c299,2020-08-10_11h47.16.290,lexical_decision_task_MP,2020.1.3,MacIntel,60,z,1,0.53275,,,,,,,,0.53275,1,,,,,,396,NW,UN,33,camble,FLENGY,z,,,,,,-0.457838542,0.003177083,0,0,0,,0,79,79,395,1,
,,,,,,,,,,,,,,,,,,5ee561897247c02ad544c299,2020-08-10_11h47.16.290,lexical_decision_task_MP,2020.1.3,MacIntel,60,m,1,0.53466,,,,,,,,0.53466,1,,,,,,56,WORD,"ID",33,ambush,AMBUSH,m,,,,,,-0.457838542,0.003177083,0,0,0,,0,80,80,55,1,
,,,,,,,,,,,,,,,,,,5ee561897247c02ad544c299,2020-08-10_11h47.16.290,lexical_decision_task_MP,2020.1.3,MacIntel,60,z,1,0.58364,,,,,,,,0.58364,1,,,,,,404,NW,UN,33,syntic,CLUIRM,z,,,,,,-0.457838542,0.003177083,0,0,0,,0,81,81,403,1,
,,,,,,,,,,,,,,,,,,5ee561897247c02ad544c299,2020-08-10_11h47.16.290,lexical_decision_task_MP,2020.1.3,MacIntel,60,z,1,0.60207,,,,,,,,0.60207,1,,,,,,328,NW,"ID",50,broake,BROAKE,z,,,,,,-0.457838542,0.003177083,0,0,0,,0,82,82,327,1,
,,,,,,,,,,,,,,,,,,5ee561897247c02ad544c299,2020-08-10_11h47.16.290,lexical_decision_task_MP,2020.1.3,MacIntel,60,z,1,0.62219,,,,,,,,0.62219,1,,,,,,387,NW,UN,33,cragin,GRONCE,z,,,,,,-0.457838542,0.003177083,0,0,0,,0,83,83,386,1,
,,,,,,,,,,,,,,,,,,5ee561897247c02ad544c299,2020-08-10_11h47.16.290,lexical_decision_task_MP,2020.1.3,MacIntel,60,z,1,0.64877,,,,,,,,0.64877,1,,,,,,376,NW,UN,33,sliant,IGUARE,z,,,,,,-0.457838542,0.003177083,0,0,0,,0,84,84,375,1,
,,,,,,,,,,,,,,,,,,5ee561897247c02ad544c299,2020-08-10_11h47.16.290,lexical_decision_task_MP,2020.1.3,MacIntel,60,m,1,0.752105,,,,,,,,0.752105,1,,,,,,42,WORD,"ID",33,chapel,CHAPEL,m,,,,,,-0.457838542,0.003177083,0,0,0,,0,85,85,41,1,
,,,,,,,,,,,,,,,,,,5ee561897247c02ad544c299,2020-08-10_11h47.16.290,lexical_decision_task_MP,2020.1.3,MacIntel,60,m,1,0.53908,,,,,,,,0.53908,1,,,,,,9,WORD,"ID",33,hustle,HUSTLE,m,,,,,,-0.457838542,0.003177083,0,0,0,,0,86,86,8,1,
,,,,,,,,,,,,,,,,,,5ee561897247c02ad544c299,2020-08-10_11h47.16.290,lexical_decision_task_MP,2020.1.3,MacIntel,60,m,1,0.63446,,,,,,,,0.63446,1,,,,,,69,WORD,"ID",50,plenty,PLENTY,m,,,,,,-0.457838542,0.003177083,0,0,0,,0,87,87,68,1,
,,,,,,,,,,,,,,,,,,5ee561897247c02ad544c299,2020-08-10_11h47.16.290,lexical_decision_task_MP,2020.1.3,MacIntel,60,z,1,0.74069,,,,,,,,0.74069,1,,,,,,392,NW,UN,33,ganous,ROUNCY,z,,,,,,-0.457838542,0.003177083,0,0,0,,0,88,88,391,1,
,,,,,,,,,,,,,,,,,,5ee561897247c02ad544c299,2020-08-10_11h47.16.290,lexical_decision_task_MP,2020.1.3,MacIntel,60,m,1,0.55718,,,,,,,,0.55718,1,,,,,,204,WORD,UN,50,lounge,BURDEN,m,,,,,,-0.457838542,0.003177083,0,0,0,,0,89,89,203,1,
,,,,,,,,,,,,,,,,,,5ee561897247c02ad544c299,2020-08-10_11h47.16.290,lexical_decision_task_MP,2020.1.3,MacIntel,60,m,1,0.582445,,,,,,,,0.582445,1,,,,,,52,WORD,"ID",33,impose,IMPOSE,m,,,,,,-0.457838542,0.003177083,0,0,0,,0,90,90,51,1,
,,,,,,,,,,,,,,,,,,5ee561897247c02ad544c299,2020-08-10_11h47.16.290,lexical_decision_task_MP,2020.1.3,MacIntel,60,z,1,0.617775,,,,,,,,0.617775,1,,,,,,456,NW,UN,50,wanigh,BROGET,z,,,,,,-0.457838542,0.003177083,0,0,0,,0,91,91,455,1,
,,,,,,,,,,,,,,,,,,5ee561897247c02ad544c299,2020-08-10_11h47.16.290,lexical_decision_task_MP,2020.1.3,MacIntel,60,m,1,0.63442,,,,,,,,0.63442,1,,,,,,136,WORD,UN,33,finger,BLEACH,m,,,,,,-0.457838542,0.003177083,0,0,0,,0,92,92,135,1,
,,,,,,,,,,,,,,,,,,5ee561897247c02ad544c299,2020-08-10_11h47.16.290,lexical_decision_task_MP,2020.1.3,MacIntel,60,z,1,0.582055,,,,,,,,0.582055,1,,,,,,373,NW,UN,33,injore,BIGENT,z,,,,,,-0.457838542,0.003177083,0,0,0,,0,93,93,372,1,
,,,,,,,,,,,,,,,,,,5ee561897247c02ad544c299,2020-08-10_11h47.16.290,lexical_decision_task_MP,2020.1.3,MacIntel,60,z,1,0.635045,,,,,,,,0.635045,1,,,,,,330,NW,"ID",50,kensom,KENSOM,z,,,,,,-0.457838542,0.003177083,0,0,0,,0,94,94,329,1,
,,,,,,,,,,,,,,,,,,5ee561897247c02ad544c299,2020-08-10_11h47.16.290,lexical_decision_task_MP,2020.1.3,MacIntel,60,z,1,0.571725,,,,,,,,0.571725,1,,,,,,453,NW,UN,50,scouge,BOLVIS,z,,,,,,-0.457838542,0.003177083,0,0,0,,0,95,95,452,1,
,,,,,,,,,,,,,,,,,,5ee561897247c02ad544c299,2020-08-10_11h47.16.290,lexical_decision_task_MP,2020.1.3,MacIntel,60,z,1,0.707415,,,,,,,,0.707415,1,,,,,,342,NW,"ID",50,randow,RANDOW,z,,,,,,-0.457838542,0.003177083,0,0,0,,0,96,96,341,1,
,,,,,,,,,,,,,,,,,,5ee561897247c02ad544c299,2020-08-10_11h47.16.290,lexical_decision_task_MP,2020.1.3,MacIntel,60,z,1,0.66769,,,,,,,,0.66769,1,,,,,,454,NW,UN,50,tondle,SCOUGE,z,,,,,,-0.457838542,0.003177083,0,0,0,,0,97,97,453,1,
,,,,,,,,,,,,,,,,,,5ee561897247c02ad544c299,2020-08-10_11h47.16.290,lexical_decision_task_MP,2020.1.3,MacIntel,60,z,1,0.606915,,,,,,,,0.606915,1,,,,,,323,NW,"ID",50,rosail,ROSAIL,z,,,,,,-0.457838542,0.003177083,0,0,0,,0,98,98,322,1,
,,,,,,,,,,,,,,,,,,5ee561897247c02ad544c299,2020-08-10_11h47.16.290,lexical_decision_task_MP,2020.1.3,MacIntel,60,z,1,0.701595,,,,,,,,0.701595,1,,,,,,301,NW,"ID",50,fainch,FAINCH,z,,,,,,-0.457838542,0.003177083,0,0,0,,0,99,99,300,1,
,,,,,,,,,,,,,,,,,,5ee561897247c02ad544c299,2020-08-10_11h47.16.290,lexical_decision_task_MP,2020.1.3,MacIntel,60,m,1,0.540845,,,,,,,,0.540845,1,,,,,,60,WORD,"ID",33,pencil,PENCIL,m,,,,,,-0.457838542,0.003177083,0,0,0,,0,100,100,59,1,
,,,,,,,,,,,,,,,,,,5ee561897247c02ad544c299,2020-08-10_11h47.16.290,lexical_decision_task_MP,2020.1.3,MacIntel,60,m,1,0.6866,,,,,,,,0.6866,1,,,,,,225,WORD,UN,50,kidney,VULGAR,m,,,,,,-0.457838542,0.003177083,0,0,0,,0,101,101,224,1,
,,,,,,,,,,,,,,,,,,5ee561897247c02ad544c299,2020-08-10_11h47.16.290,lexical_decision_task_MP,2020.1.3,MacIntel,60,m,1,0.771615,,,,,,,,0.771615,1,,,,,,139,WORD,UN,33,prince,DEBRIS,m,,,,,,-0.457838542,0.003177083,0,0,0,,0,102,102,138,1,
,,,,,,,,,,,,,,,,,,5ee561897247c02ad544c299,2020-08-10_11h47.16.290,lexical_decision_task_MP,2020.1.3,MacIntel,60,m,1,0.583295,,,,,,,,0.583295,1,,,,,,90,WORD,"ID",50,relish,RELISH,m,,,,,,-0.457838542,0.003177083,0,0,0,,0,103,103,89,1,
,,,,,,,,,,,,,,,,,,5ee561897247c02ad544c299,2020-08-10_11h47.16.290,lexical_decision_task_MP,2020.1.3,MacIntel,60,z,1,0.68655,,,,,,,,0.68655,1,,,,,,381,NW,UN,33,sarley,HUNIEK,z,,,,,,-0.457838542,0.003177083,0,0,0,,0,104,104,380,1,
,,,,,,,,,,,,,,,,,,5ee561897247c02ad544c299,2020-08-10_11h47.16.290,lexical_decision_task_MP,2020.1.3,MacIntel,60,z,1,0.80992,,,,,,,,0.80992,1,,,,,,285,NW,"ID",33,prudge,PRUDGE,z,,,,,,-0.457838542,0.003177083,0,0,0,,0,105,105,284,1,
,,,,,,,,,,,,,,,,,,5ee561897247c02ad544c299,2020-08-10_11h47.16.290,lexical_decision_task_MP,2020.1.3,MacIntel,60,m,1,0.59969,,,,,,,,0.59969,1,,,,,,97,WORD,"ID",50,client,CLIENT,m,,,,,,-0.457838542,0.003177083,0,0,0,,0,106,106,96,1,
,,,,,,,,,,,,,,,,,,5ee561897247c02ad544c299,2020-08-10_11h47.16.290,lexical_decision_task_MP,2020.1.3,MacIntel,60,z,1,0.61999,,,,,,,,0.61999,1,,,,,,261,NW,"ID",33,stunch,STUNCH,z,,,,,,-0.457838542,0.003177083,0,0,0,,0,107,107,260,1,
,,,,,,,,,,,,,,,,,,5ee561897247c02ad544c299,2020-08-10_11h47.16.290,lexical_decision_task_MP,2020.1.3,MacIntel,60,z,1,0.58439,,,,,,,,0.58439,1,,,,,,274,NW,"ID",33,fumblo,FUMBLO,z,,,,,,-0.457838542,0.003177083,0,0,0,,0,108,108,273,1,
,,,,,,,,,,,,,,,,,,5ee561897247c02ad544c299,2020-08-10_11h47.16.290,lexical_decision_task_MP,2020.1.3,MacIntel,60,m,1,0.56853,,,,,,,,0.56853,1,,,,,,49,WORD,"ID",33,survey,SURVEY,m,,,,,,-0.457838542,0.003177083,0,0,0,,0,109,109,48,1,
,,,,,,,,,,,,,,,,,,5ee561897247c02ad544c299,2020-08-10_11h47.16.290,lexical_decision_task_MP,2020.1.3,MacIntel,60,z,1,0.648635,,,,,,,,0.648635,1,,,,,,370,NW,UN,33,geiloy,SLEACT,z,,,,,,-0.457838542,0.003177083,0,0,0,,0,110,110,369,1,
,,,,,,,,,,,,,,,,,,5ee561897247c02ad544c299,2020-08-10_11h47.16.290,lexical_decision_task_MP,2020.1.3,MacIntel,60,m,1,0.523695,,,,,,,,0.523695,1,,,,,,102,WORD,"ID",50,direct,DIRECT,m,,,,,,-0.457838542,0.003177083,0,0,0,,0,111,111,101,1,
,,,,,,,,,,,,,,,,,,5ee561897247c02ad544c299,2020-08-10_11h47.16.290,lexical_decision_task_MP,2020.1.3,MacIntel,60,m,1,0.4924,,,,,,,,0.4924,1,,,,,,210,WORD,UN,50,infect,MONKEY,m,,,,,,-0.457838542,0.003177083,0,0,0,,0,112,112,209,1,
,,,,,,,,,,,,,,,,,,5ee561897247c02ad544c299,2020-08-10_11h47.16.290,lexical_decision_task_MP,2020.1.3,MacIntel,60,z,1,0.59073,,,,,,,,0.59073,1,,,,,,480,NW,UN,50,knisma,ROBULY,z,,,,,,-0.457838542,0.003177083,0,0,0,,0,113,113,479,1,
,,,,,,,,,,,,,,,,,,5ee561897247c02ad544c299,2020-08-10_11h47.16.290,lexical_decision_task_MP,2020.1.3,MacIntel,60,z,1,0.563485,,,,,,,,0.563485,1,,,,,,247,NW,"ID",33,blarge,BLARGE,z,,,,,,-0.457838542,0.003177083,0,0,0,,0,114,114,246,1,
,,,,,,,,,,,,,,,,,,5ee561897247c02ad544c299,2020-08-10_11h47.16.290,lexical_decision_task_MP,2020.1.3,MacIntel,60,m,1,0.48469,,,,,,,,0.48469,1,,,,,,44,WORD,"ID",33,danger,DANGER,m,,,,,,-0.457838542,0.003177083,0,0,0,,0,115,115,43,1,
,,,,,,,,,,,,,,,,,,5ee561897247c02ad544c299,2020-08-10_11h47.16.290,lexical_decision_task_MP,2020.1.3,MacIntel,60,m,1,0.58389,,,,,,,,0.58389,1,,,,,,152,WORD,UN,33,behold,ROCKET,m,,,,,,-0.457838542,0.003177083,0,0,0,,0,116,116,151,1,
,,,,,,,,,,,,,,,,,,5ee561897247c02ad544c299,2020-08-10_11h47.16.290,lexical_decision_task_MP,2020.1.3,MacIntel,60,m,1,0.600565,,,,,,,,0.600565,1,,,,,,125,WORD,UN,33,blouse,NICKEL,m,,,,,,-0.457838542,0.003177083,0,0,0,,0,117,117,124,1,
,,,,,,,,,,,,,,,,,,5ee561897247c02ad544c299,2020-08-10_11h47.16.290,lexical_decision_task_MP,2020.1.3,MacIntel,60,z,1,0.619375,,,,,,,,0.619375,1,,,,,,296,NW,"ID",33,beinch,BEINCH,z,,,,,,-0.457838542,0.003177083,0,0,0,,0,118,118,295,1,
,,,,,,,,,,,,,,,,,,5ee561897247c02ad544c299,2020-08-10_11h47.16.290,lexical_decision_task_MP,2020.1.3,MacIntel,60,m,1,0.58832,,,,,,,,0.58832,1,,,,,,150,WORD,UN,33,mystic,RANDOM,m,,,,,,-0.457838542,0.003177083,0,0,0,,0,119,119,149,1,
,,,,,,,,,,,,,,,,,,5ee561897247c02ad544c299,2020-08-10_11h47.16.290,lexical_decision_task_MP,2020.1.3,MacIntel,60,m,1,0.574165,,,,,,,,0.574165,1,,,,,,183,WORD,UN,50,sleazy,MILDEW,m,,,,,,-0.457838542,0.003177083,0,0,0,space,0,120,120,182,1,9.3634
,,,,,,,,,,,,,,,,,,5ee561897247c02ad544c299,2020-08-10_11h47.16.290,lexical_decision_task_MP,2020.1.3,MacIntel,60,m,1,0.449545,,,,,,,,0.449545,1,,,,,,73,WORD,"ID",50,source,SOURCE,m,,,,,,-0.457838542,0.003177083,0,0,0,,0,121,121,72,1,
,,,,,,,,,,,,,,,,,,5ee561897247c02ad544c299,2020-08-10_11h47.16.290,lexical_decision_task_MP,2020.1.3,MacIntel,60,z,1,0.601545,,,,,,,,0.601545,1,,,,,,414,NW,UN,33,higsta,SERBOL,z,,,,,,-0.457838542,0.003177083,0,0,0,,0,122,122,413,1,
,,,,,,,,,,,,,,,,,,5ee561897247c02ad544c299,2020-08-10_11h47.16.290,lexical_decision_task_MP,2020.1.3,MacIntel,60,m,1,0.60319,,,,,,,,0.60319,1,,,,,,184,WORD,UN,50,bother,SLEAZY,m,,,,,,-0.457838542,0.003177083,0,0,0,,0,123,123,183,1,
,,,,,,,,,,,,,,,,,,5ee561897247c02ad544c299,2020-08-10_11h47.16.290,lexical_decision_task_MP,2020.1.3,MacIntel,60,m,0,0.58997,,,,,,,,0.58997,0,,,,,,303,NW,"ID",50,fiream,FIREAM,z,,,,,,-0.457838542,0.003177083,0,0,0,,0,124,124,302,1,
,,,,,,,,,,,,,,,,,,5ee561897247c02ad544c299,2020-08-10_11h47.16.290,lexical_decision_task_MP,2020.1.3,MacIntel,60,z,1,0.77197,,,,,,,,0.77197,1,,,,,,418,NW,UN,33,slount,SUIDLE,z,,,,,,-0.457838542,0.003177083,0,0,0,,0,125,125,417,1,
,,,,,,,,,,,,,,,,,,5ee561897247c02ad544c299,2020-08-10_11h47.16.290,lexical_decision_task_MP,2020.1.3,MacIntel,60,z,1,0.584015,,,,,,,,0.584015,1,,,,,,356,NW,"ID",50,othnis,OTHNIS,z,,,,,,-0.457838542,0.003177083,0,0,0,,0,126,126,355,1,
,,,,,,,,,,,,,,,,,,5ee561897247c02ad544c299,2020-08-10_11h47.16.290,lexical_decision_task_MP,2020.1.3,MacIntel,60,z,1,0.69652,,,,,,,,0.69652,1,,,,,,336,NW,"ID",50,ghodus,GHODUS,z,,,,,,-0.457838542,0.003177083,0,0,0,,0,127,127,335,1,
,,,,,,,,,,,,,,,,,,5ee561897247c02ad544c299,2020-08-10_11h47.16.290,lexical_decision_task_MP,2020.1.3,MacIntel,60,z,1,0.458055,,,,,,,,0.458055,1,,,,,,312,NW,"ID",50,nerawl,NERAWL,z,,,,,,-0.457838542,0.003177083,0,0,0,,0,128,128,311,1,
,,,,,,,,,,,,,,,,,,5ee561897247c02ad544c299,2020-08-10_11h47.16.290,lexical_decision_task_MP,2020.1.3,MacIntel,60,m,1,0.5242,,,,,,,,0.5242,1,,,,,,95,WORD,"ID",50,thread,THREAD,m,,,,,,-0.457838542,0.003177083,0,0,0,,0,129,129,94,1,
,,,,,,,,,,,,,,,,,,5ee561897247c02ad544c299,2020-08-10_11h47.16.290,lexical_decision_task_MP,2020.1.3,MacIntel,60,z,1,0.58194,,,,,,,,0.58194,1,,,,,,318,NW,"ID",50,reagly,REAGLY,z,,,,,,-0.457838542,0.003177083,0,0,0,,0,130,130,317,1,
,,,,,,,,,,,,,,,,,,5ee561897247c02ad544c299,2020-08-10_11h47.16.290,lexical_decision_task_MP,2020.1.3,MacIntel,60,z,1,0.500045,,,,,,,,0.500045,1,,,,,,455,NW,UN,50,broget,TONDLE,z,,,,,,-0.457838542,0.003177083,0,0,0,,0,131,131,454,1,
,,,,,,,,,,,,,,,,,,5ee561897247c02ad544c299,2020-08-10_11h47.16.290,lexical_decision_task_MP,2020.1.3,MacIntel,60,z,1,0.468865,,,,,,,,0.468865,1,,,,,,438,NW,UN,50,limpor,BAITCH,z,,,,,,-0.457838542,0.003177083,0,0,0,,0,132,132,437,1,
,,,,,,,,,,,,,,,,,,5ee561897247c02ad544c299,2020-08-10_11h47.16.290,lexical_decision_task_MP,2020.1.3,MacIntel,60,z,1,0.591275,,,,,,,,0.591275,1,,,,,,265,NW,"ID",33,distar,DISTAR,z,,,,,,-0.457838542,0.003177083,0,0,0,,0,133,133,264,1,
,,,,,,,,,,,,,,,,,,5ee561897247c02ad544c299,2020-08-10_11h47.16.290,lexical_decision_task_MP,2020.1.3,MacIntel,60,m,1,0.626185,,,,,,,,0.626185,1,,,,,,128,WORD,UN,33,marvel,SENIOR,m,,,,,,-0.457838542,0.003177083,0,0,0,,0,134,134,127,1,
,,,,,,,,,,,,,,,,,,5ee561897247c02ad544c299,2020-08-10_11h47.16.290,lexical_decision_task_MP,2020.1.3,MacIntel,60,z,1,0.583445,,,,,,,,0.583445,1,,,,,,283,NW,"ID",33,veralf,VERALF,z,,,,,,-0.457838542,0.003177083,0,0,0,,0,135,135,282,1,
,,,,,,,,,,,,,,,,,,5ee561897247c02ad544c299,2020-08-10_11h47.16.290,lexical_decision_task_MP,2020.1.3,MacIntel,60,z,1,0.517395,,,,,,,,0.517395,1,,,,,,294,NW,"ID",33,inhort,INHORT,z,,,,,,-0.457838542,0.003177083,0,0,0,,0,136,136,293,1,
,,,,,,,,,,,,,,,,,,5ee561897247c02ad544c299,2020-08-10_11h47.16.290,lexical_decision_task_MP,2020.1.3,MacIntel,60,m,1,0.5732,,,,,,,,0.5732,1,,,,,,177,WORD,UN,33,inform,ADVENT,m,,,,,,-0.457838542,0.003177083,0,0,0,,0,137,137,176,1,
,,,,,,,,,,,,,,,,,,5ee561897247c02ad544c299,2020-08-10_11h47.16.290,lexical_decision_task_MP,2020.1.3,MacIntel,60,z,1,0.568695,,,,,,,,0.568695,1,,,,,,316,NW,"ID",50,scregm,SCREGM,z,,,,,,-0.457838542,0.003177083,0,0,0,,0,138,138,315,1,
,,,,,,,,,,,,,,,,,,5ee561897247c02ad544c299,2020-08-10_11h47.16.290,lexical_decision_task_MP,2020.1.3,MacIntel,60,z,1,0.524165,,,,,,,,0.524165,1,,,,,,256,NW,"ID",33,inlors,INLORS,z,,,,,,-0.457838542,0.003177083,0,0,0,,0,139,139,255,1,
,,,,,,,,,,,,,,,,,,5ee561897247c02ad544c299,2020-08-10_11h47.16.290,lexical_decision_task_MP,2020.1.3,MacIntel,60,m,1,0.568155,,,,,,,,0.568155,1,,,,,,161,WORD,UN,33,candle,PASTOR,m,,,,,,-0.457838542,0.003177083,0,0,0,,0,140,140,160,1,
,,,,,,,,,,,,,,,,,,5ee561897247c02ad544c299,2020-08-10_11h47.16.290,lexical_decision_task_MP,2020.1.3,MacIntel,60,z,1,0.51698,,,,,,,,0.51698,1,,,,,,469,NW,UN,50,crudio,PADIFS,z,,,,,,-0.457838542,0.003177083,0,0,0,,0,141,141,468,1,
,,,,,,,,,,,,,,,,,,5ee561897247c02ad544c299,2020-08-10_11h47.16.290,lexical_decision_task_MP,2020.1.3,MacIntel,60,m,1,0.53494,,,,,,,,0.53494,1,,,,,,182,WORD,UN,50,basket,WINTER,m,,,,,,-0.457838542,0.003177083,0,0,0,,0,142,142,181,1,
,,,,,,,,,,,,,,,,,,5ee561897247c02ad544c299,2020-08-10_11h47.16.290,lexical_decision_task_MP,2020.1.3,MacIntel,60,z,1,0.549485,,,,,,,,0.549485,1,,,,,,434,NW,UN,50,impurb,PITROM,z,,,,,,-0.457838542,0.003177083,0,0,0,,0,143,143,433,1,
,,,,,,,,,,,,,,,,,,5ee561897247c02ad544c299,2020-08-10_11h47.16.290,lexical_decision_task_MP,2020.1.3,MacIntel,60,m,1,0.61895,,,,,,,,0.61895,1,,,,,,89,WORD,"ID",50,permit,PERMIT,m,,,,,,-0.457838542,0.003177083,0,0,0,,0,144,144,88,1,
,,,,,,,,,,,,,,,,,,5ee561897247c02ad544c299,2020-08-10_11h47.16.290,lexical_decision_task_MP,2020.1.3,MacIntel,60,z,1,0.539715,,,,,,,,0.539715,1,,,,,,275,NW,"ID",33,sleirt,SLEIRT,z,,,,,,-0.457838542,0.003177083,0,0,0,,0,145,145,274,1,
,,,,,,,,,,,,,,,,,,5ee561897247c02ad544c299,2020-08-10_11h47.16.290,lexical_decision_task_MP,2020.1.3,MacIntel,60,z,1,0.62286,,,,,,,,0.62286,1,,,,,,252,NW,"ID",33,stapod,STAPOD,z,,,,,,-0.457838542,0.003177083,0,0,0,,0,146,146,251,1,
,,,,,,,,,,,,,,,,,,5ee561897247c02ad544c299,2020-08-10_11h47.16.290,lexical_decision_task_MP,2020.1.3,MacIntel,60,m,0,0.502205,,,,,,,,0.502205,0,,,,,,280,NW,"ID",33,curbol,CURBOL,z,,,,,,-0.457838542,0.003177083,0,0,0,,0,147,147,279,1,
,,,,,,,,,,,,,,,,,,5ee561897247c02ad544c299,2020-08-10_11h47.16.290,lexical_decision_task_MP,2020.1.3,MacIntel,60,z,1,0.6508,,,,,,,,0.6508,1,,,,,,311,NW,"ID",50,sproly,SPROLY,z,,,,,,-0.457838542,0.003177083,0,0,0,,0,148,148,310,1,
,,,,,,,,,,,,,,,,,,5ee561897247c02ad544c299,2020-08-10_11h47.16.290,lexical_decision_task_MP,2020.1.3,MacIntel,60,m,1,0.64123,,,,,,,,0.64123,1,,,,,,6,WORD,"ID",33,bundle,BUNDLE,m,,,,,,-0.457838542,0.003177083,0,0,0,,0,149,149,5,1,
,,,,,,,,,,,,,,,,,,5ee561897247c02ad544c299,2020-08-10_11h47.16.290,lexical_decision_task_MP,2020.1.3,MacIntel,60,m,1,0.603905,,,,,,,,0.603905,1,,,,,,203,WORD,UN,50,burden,PHRASE,m,,,,,,-0.457838542,0.003177083,0,0,0,,0,150,150,202,1,
,,,,,,,,,,,,,,,,,,5ee561897247c02ad544c299,2020-08-10_11h47.16.290,lexical_decision_task_MP,2020.1.3,MacIntel,60,z,1,0.718265,,,,,,,,0.718265,1,,,,,,322,NW,"ID",50,slanch,SLANCH,z,,,,,,-0.457838542,0.003177083,0,0,0,,0,151,151,321,1,
,,,,,,,,,,,,,,,,,,5ee561897247c02ad544c299,2020-08-10_11h47.16.290,lexical_decision_task_MP,2020.1.3,MacIntel,60,z,1,0.673615,,,,,,,,0.673615,1,,,,,,365,NW,UN,33,toshel,GUAIRT,z,,,,,,-0.457838542,0.003177083,0,0,0,,0,152,152,364,1,
,,,,,,,,,,,,,,,,,,5ee561897247c02ad544c299,2020-08-10_11h47.16.290,lexical_decision_task_MP,2020.1.3,MacIntel,60,m,1,0.672835,,,,,,,,0.672835,1,,,,,,41,WORD,"ID",33,spring,SPRING,m,,,,,,-0.457838542,0.003177083,0,0,0,,0,153,153,40,1,
,,,,,,,,,,,,,,,,,,5ee561897247c02ad544c299,2020-08-10_11h47.16.290,lexical_decision_task_MP,2020.1.3,MacIntel,60,m,1,0.719285,,,,,,,,0.719285,1,,,,,,46,WORD,"ID",33,single,SINGLE,m,,,,,,-0.457838542,0.003177083,0,0,0,,0,154,154,45,1,
,,,,,,,,,,,,,,,,,,5ee561897247c02ad544c299,2020-08-10_11h47.16.290,lexical_decision_task_MP,2020.1.3,MacIntel,60,z,1,0.799935,,,,,,,,0.799935,1,,,,,,471,NW,UN,50,cigney,NOBEST,z,,,,,,-0.457838542,0.003177083,0,0,0,,0,155,155,470,1,
,,,,,,,,,,,,,,,,,,5ee561897247c02ad544c299,2020-08-10_11h47.16.290,lexical_decision_task_MP,2020.1.3,MacIntel,60,m,1,0.575035,,,,,,,,0.575035,1,,,,,,207,WORD,UN,50,hockey,WREATH,m,,,,,,-0.457838542,0.003177083,0,0,0,,0,156,156,206,1,
,,,,,,,,,,,,,,,,,,5ee561897247c02ad544c299,2020-08-10_11h47.16.290,lexical_decision_task_MP,2020.1.3,MacIntel,60,z,1,0.626155,,,,,,,,0.626155,1,,,,,,429,NW,UN,50,caroey,FUNTLE,z,,,,,,-0.457838542,0.003177083,0,0,0,,0,157,157,428,1,
,,,,,,,,,,,,,,,,,,5ee561897247c02ad544c299,2020-08-10_11h47.16.290,lexical_decision_task_MP,2020.1.3,MacIntel,60,m,1,0.637865,,,,,,,,0.637865,1,,,,,,153,WORD,UN,33,author,BEHOLD,m,,,,,,-0.457838542,0.003177083,0,0,0,,0,158,158,152,1,
,,,,,,,,,,,,,,,,,,5ee561897247c02ad544c299,2020-08-10_11h47.16.290,lexical_decision_task_MP,2020.1.3,MacIntel,60,m,1,0.584385,,,,,,,,0.584385,1,,,,,,202,WORD,UN,50,phrase,FACTOR,m,,,,,,-0.457838542,0.003177083,0,0,0,,0,159,159,201,1,
,,,,,,,,,,,,,,,,,,5ee561897247c02ad544c299,2020-08-10_11h47.16.290,lexical_decision_task_MP,2020.1.3,MacIntel,60,z,1,0.63794,,,,,,,,0.63794,1,,,,,,427,NW,UN,50,tandly,SCHIND,z,,,,,,-0.457838542,0.003177083,0,0,0,,0,160,160,426,1,
,,,,,,,,,,,,,,,,,,5ee561897247c02ad544c299,2020-08-10_11h47.16.290,lexical_decision_task_MP,2020.1.3,MacIntel,60,z,1,0.58283,,,,,,,,0.58283,1,,,,,,281,NW,"ID",33,melaty,MELATY,z,,,,,,-0.457838542,0.003177083,0,0,0,,0,161,161,280,1,
,,,,,,,,,,,,,,,,,,5ee561897247c02ad544c299,2020-08-10_11h47.16.290,lexical_decision_task_MP,2020.1.3,MacIntel,60,z,1,0.89088,,,,,,,,0.89088,1,,,,,,332,NW,"ID",50,vangue,VANGUE,z,,,,,,-0.457838542,0.003177083,0,0,0,,0,162,162,331,1,
,,,,,,,,,,,,,,,,,,5ee561897247c02ad544c299,2020-08-10_11h47.16.290,lexical_decision_task_MP,2020.1.3,MacIntel,60,z,1,0.70369,,,,,,,,0.70369,1,,,,,,251,NW,"ID",33,lupict,LUPICT,z,,,,,,-0.457838542,0.003177083,0,0,0,,0,163,163,250,1,
,,,,,,,,,,,,,,,,,,5ee561897247c02ad544c299,2020-08-10_11h47.16.290,lexical_decision_task_MP,2020.1.3,MacIntel,60,z,1,0.567795,,,,,,,,0.567795,1,,,,,,350,NW,"ID",50,nagurs,NAGURS,z,,,,,,-0.457838542,0.003177083,0,0,0,,0,164,164,349,1,
,,,,,,,,,,,,,,,,,,5ee561897247c02ad544c299,2020-08-10_11h47.16.290,lexical_decision_task_MP,2020.1.3,MacIntel,60,m,1,0.55112,,,,,,,,0.55112,1,,,,,,81,WORD,"ID",50,friend,FRIEND,m,,,,,,-0.457838542,0.003177083,0,0,0,,0,165,165,80,1,
,,,,,,,,,,,,,,,,,,5ee561897247c02ad544c299,2020-08-10_11h47.16.290,lexical_decision_task_MP,2020.1.3,MacIntel,60,z,1,0.617265,,,,,,,,0.617265,1,,,,,,286,NW,"ID",33,reldon,RELDON,z,,,,,,-0.457838542,0.003177083,0,0,0,,0,166,166,285,1,
,,,,,,,,,,,,,,,,,,5ee561897247c02ad544c299,2020-08-10_11h47.16.290,lexical_decision_task_MP,2020.1.3,MacIntel,60,m,1,0.56813,,,,,,,,0.56813,1,,,,,,133,WORD,UN,33,debris,CHROME,m,,,,,,-0.457838542,0.003177083,0,0,0,,0,167,167,132,1,
,,,,,,,,,,,,,,,,,,5ee561897247c02ad544c299,2020-08-10_11h47.16.290,lexical_decision_task_MP,2020.1.3,MacIntel,60,z,1,0.601305,,,,,,,,0.601305,1,,,,,,351,NW,"ID",50,tiesch,TIESCH,z,,,,,,-0.457838542,0.003177083,0,0,0,,0,168,168,350,1,
,,,,,,,,,,,,,,,,,,5ee561897247c02ad544c299,2020-08-10_11h47.16.290,lexical_decision_task_MP,2020.1.3,MacIntel,60,m,1,0.619235,,,,,,,,0.619235,1,,,,,,206,WORD,UN,50,wreath,TAILOR,m,,,,,,-0.457838542,0.003177083,0,0,0,,0,169,169,205,1,
,,,,,,,,,,,,,,,,,,5ee561897247c02ad544c299,2020-08-10_11h47.16.290,lexical_decision_task_MP,2020.1.3,MacIntel,60,z,1,0.53319,,,,,,,,0.53319,1,,,,,,412,NW,UN,33,equats,JILUER,z,,,,,,-0.457838542,0.003177083,0,0,0,,0,170,170,411,1,
,,,,,,,,,,,,,,,,,,5ee561897247c02ad544c299,2020-08-10_11h47.16.290,lexical_decision_task_MP,2020.1.3,MacIntel,60,m,1,0.501815,,,,,,,,0.501815,1,,,,,,70,WORD,"ID",50,square,SQUARE,m,,,,,,-0.457838542,0.003177083,0,0,0,,0,171,171,69,1,
,,,,,,,,,,,,,,,,,,5ee561897247c02ad544c299,2020-08-10_11h47.16.290,lexical_decision_task_MP,2020.1.3,MacIntel,60,m,1,0.631425,,,,,,,,0.631425,1,,,,,,68,WORD,"ID",50,fumble,FUMBLE,m,,,,,,-0.457838542,0.003177083,0,0,0,,0,172,172,67,1,
,,,,,,,,,,,,,,,,,,5ee561897247c02ad544c299,2020-08-10_11h47.16.290,lexical_decision_task_MP,2020.1.3,MacIntel,60,m,1,0.514865,,,,,,,,0.514865,1,,,,,,157,WORD,UN,33,island,DRAGON,m,,,,,,-0.457838542,0.003177083,0,0,0,,0,173,173,156,1,
,,,,,,,,,,,,,,,,,,5ee561897247c02ad544c299,2020-08-10_11h47.16.290,lexical_decision_task_MP,2020.1.3,MacIntel,60,m,1,0.531225,,,,,,,,0.531225,1,,,,,,238,WORD,UN,50,grumpy,FLOWER,m,,,,,,-0.457838542,0.003177083,0,0,0,,0,174,174,237,1,
,,,,,,,,,,,,,,,,,,5ee561897247c02ad544c299,2020-08-10_11h47.16.290,lexical_decision_task_MP,2020.1.3,MacIntel,60,m,1,0.46476,,,,,,,,0.46476,1,,,,,,105,WORD,"ID",50,number,NUMBER,m,,,,,,-0.457838542,0.003177083,0,0,0,,0,175,175,104,1,
,,,,,,,,,,,,,,,,,,5ee561897247c02ad544c299,2020-08-10_11h47.16.290,lexical_decision_task_MP,2020.1.3,MacIntel,60,z,1,0.62781,,,,,,,,0.62781,1,,,,,,382,NW,UN,33,aungre,SARLEY,z,,,,,,-0.457838542,0.003177083,0,0,0,,0,176,176,381,1,
,,,,,,,,,,,,,,,,,,5ee561897247c02ad544c299,2020-08-10_11h47.16.290,lexical_decision_task_MP,2020.1.3,MacIntel,60,z,1,0.540775,,,,,,,,0.540775,1,,,,,,309,NW,"ID",50,amiloy,AMILOY,z,,,,,,-0.457838542,0.003177083,0,0,0,,0,177,177,308,1,
,,,,,,,,,,,,,,,,,,5ee561897247c02ad544c299,2020-08-10_11h47.16.290,lexical_decision_task_MP,2020.1.3,MacIntel,60,z,1,0.589935,,,,,,,,0.589935,1,,,,,,242,NW,"ID",33,unwert,UNWERT,z,,,,,,-0.457838542,0.003177083,0,0,0,,0,178,178,241,1,
,,,,,,,,,,,,,,,,,,5ee561897247c02ad544c299,2020-08-10_11h47.16.290,lexical_decision_task_MP,2020.1.3,MacIntel,60,m,1,0.683,,,,,,,,0.683,1,,,,,,195,WORD,UN,50,credit,RESIGN,m,,,,,,-0.457838542,0.003177083,0,0,0,,0,179,179,194,1,
,,,,,,,,,,,,,,,,,,5ee561897247c02ad544c299,2020-08-10_11h47.16.290,lexical_decision_task_MP,2020.1.3,MacIntel,60,z,1,0.66483,,,,,,,,0.66483,1,,,,,,273,NW,"ID",33,sortel,SORTEL,z,,,,,,-0.457838542,0.003177083,0,0,0,,0,180,180,272,1,
,,,,,,,,,,,,,,,,,,5ee561897247c02ad544c299,2020-08-10_11h47.16.290,lexical_decision_task_MP,2020.1.3,MacIntel,60,m,1,0.73611,,,,,,,,0.73611,1,,,,,,59,WORD,"ID",33,splint,SPLINT,m,,,,,,-0.457838542,0.003177083,0,0,0,,0,181,181,58,1,
,,,,,,,,,,,,,,,,,,5ee561897247c02ad544c299,2020-08-10_11h47.16.290,lexical_decision_task_MP,2020.1.3,MacIntel,60,z,1,0.723535,,,,,,,,0.723535,1,,,,,,246,NW,"ID",33,piaton,PIATON,z,,,,,,-0.457838542,0.003177083,0,0,0,,0,182,182,245,1,
,,,,,,,,,,,,,,,,,,5ee561897247c02ad544c299,2020-08-10_11h47.16.290,lexical_decision_task_MP,2020.1.3,MacIntel,60,z,1,0.733365,,,,,,,,0.733365,1,,,,,,282,NW,"ID",33,porlex,PORLEX,z,,,,,,-0.457838542,0.003177083,0,0,0,,0,183,183,281,1,
,,,,,,,,,,,,,,,,,,5ee561897247c02ad544c299,2020-08-10_11h47.16.290,lexical_decision_task_MP,2020.1.3,MacIntel,60,z,0,0.753605,,,,,,,,0.753605,0,,,,,,176,WORD,UN,33,advent,STRIFE,m,,,,,,-0.457838542,0.003177083,0,0,0,,0,184,184,175,1,
,,,,,,,,,,,,,,,,,,5ee561897247c02ad544c299,2020-08-10_11h47.16.290,lexical_decision_task_MP,2020.1.3,MacIntel,60,z,1,0.631855,,,,,,,,0.631855,1,,,,,,403,NW,UN,33,cluirm,BRUATS,z,,,,,,-0.457838542,0.003177083,0,0,0,,0,185,185,402,1,
,,,,,,,,,,,,,,,,,,5ee561897247c02ad544c299,2020-08-10_11h47.16.290,lexical_decision_task_MP,2020.1.3,MacIntel,60,z,1,0.586705,,,,,,,,0.586705,1,,,,,,361,NW,UN,33,tireau,PAUCHE,z,,,,,,-0.457838542,0.003177083,0,0,0,,0,186,186,360,1,
,,,,,,,,,,,,,,,,,,5ee561897247c02ad544c299,2020-08-10_11h47.16.290,lexical_decision_task_MP,2020.1.3,MacIntel,60,z,1,0.55471,,,,,,,,0.55471,1,,,,,,472,NW,UN,50,crible,CIGNEY,z,,,,,,-0.457838542,0.003177083,0,0,0,,0,187,187,471,1,
,,,,,,,,,,,,,,,,,,5ee561897247c02ad544c299,2020-08-10_11h47.16.290,lexical_decision_task_MP,2020.1.3,MacIntel,60,m,1,0.572925,,,,,,,,0.572925,1,,,,,,40,WORD,"ID",33,convey,CONVEY,m,,,,,,-0.457838542,0.003177083,0,0,0,,0,188,188,39,1,
,,,,,,,,,,,,,,,,,,5ee561897247c02ad544c299,2020-08-10_11h47.16.290,lexical_decision_task_MP,2020.1.3,MacIntel,60,m,1,0.517695,,,,,,,,0.517695,1,,,,,,109,WORD,"ID",50,wonder,WONDER,m,,,,,,-0.457838542,0.003177083,0,0,0,,0,189,189,108,1,
,,,,,,,,,,,,,,,,,,5ee561897247c02ad544c299,2020-08-10_11h47.16.290,lexical_decision_task_MP,2020.1.3,MacIntel,60,z,1,0.735785,,,,,,,,0.735785,1,,,,,,320,NW,"ID",50,jockal,JOCKAL,z,,,,,,-0.457838542,0.003177083,0,0,0,,0,190,190,319,1,
,,,,,,,,,,,,,,,,,,5ee561897247c02ad544c299,2020-08-10_11h47.16.290,lexical_decision_task_MP,2020.1.3,MacIntel,60,m,1,0.647835,,,,,,,,0.647835,1,,,,,,159,WORD,UN,33,violet,DETAIL,m,,,,,,-0.457838542,0.003177083,0,0,0,,0,191,191,158,1,
,,,,,,,,,,,,,,,,,,5ee561897247c02ad544c299,2020-08-10_11h47.16.290,lexical_decision_task_MP,2020.1.3,MacIntel,60,m,1,0.521155,,,,,,,,0.521155,1,,,,,,11,WORD,"ID",33,cruise,CRUISE,m,,,,,,-0.457838542,0.003177083,0,0,0,,0,192,192,10,1,
,,,,,,,,,,,,,,,,,,5ee561897247c02ad544c299,2020-08-10_11h47.16.290,lexical_decision_task_MP,2020.1.3,MacIntel,60,m,1,0.566885,,,,,,,,0.566885,1,,,,,,67,WORD,"ID",50,policy,POLICY,m,,,,,,-0.457838542,0.003177083,0,0,0,,0,193,193,66,1,
,,,,,,,,,,,,,,,,,,5ee561897247c02ad544c299,2020-08-10_11h47.16.290,lexical_decision_task_MP,2020.1.3,MacIntel,60,m,1,0.58608,,,,,,,,0.58608,1,,,,,,235,WORD,UN,50,pirate,GRUMPY,m,,,,,,-0.457838542,0.003177083,0,0,0,,0,194,194,234,1,
,,,,,,,,,,,,,,,,,,5ee561897247c02ad544c299,2020-08-10_11h47.16.290,lexical_decision_task_MP,2020.1.3,MacIntel,60,m,1,0.52361,,,,,,,,0.52361,1,,,,,,24,WORD,"ID",33,praise,PRAISE,m,,,,,,-0.457838542,0.003177083,0,0,0,,0,195,195,23,1,
,,,,,,,,,,,,,,,,,,5ee561897247c02ad544c299,2020-08-10_11h47.16.290,lexical_decision_task_MP,2020.1.3,MacIntel,60,m,1,0.673265,,,,,,,,0.673265,1,,,,,,84,WORD,"ID",50,mortal,MORTAL,m,,,,,,-0.457838542,0.003177083,0,0,0,,0,196,196,83,1,
,,,,,,,,,,,,,,,,,,5ee561897247c02ad544c299,2020-08-10_11h47.16.290,lexical_decision_task_MP,2020.1.3,MacIntel,60,m,1,0.61517,,,,,,,,0.61517,1,,,,,,108,WORD,"ID",50,reckon,RECKON,m,,,,,,-0.457838542,0.003177083,0,0,0,,0,197,197,107,1,
,,,,,,,,,,,,,,,,,,5ee561897247c02ad544c299,2020-08-10_11h47.16.290,lexical_decision_task_MP,2020.1.3,MacIntel,60,m,1,0.85014,,,,,,,,0.85014,1,,,,,,101,WORD,"ID",50,wrench,WRENCH,m,,,,,,-0.457838542,0.003177083,0,0,0,,0,198,198,100,1,
,,,,,,,,,,,,,,,,,,5ee561897247c02ad544c299,2020-08-10_11h47.16.290,lexical_decision_task_MP,2020.1.3,MacIntel,60,m,1,0.64977,,,,,,,,0.64977,1,,,,,,36,WORD,"ID",33,vanish,VANISH,m,,,,,,-0.457838542,0.003177083,0,0,0,,0,199,199,35,1,
,,,,,,,,,,,,,,,,,,5ee561897247c02ad544c299,2020-08-10_11h47.16.290,lexical_decision_task_MP,2020.1.3,MacIntel,60,z,1,0.707755,,,,,,,,0.707755,1,,,,,,410,NW,UN,33,orchin,TUNORY,z,,,,,,-0.457838542,0.003177083,0,0,0,,0,200,200,409,1,
,,,,,,,,,,,,,,,,,,5ee561897247c02ad544c299,2020-08-10_11h47.16.290,lexical_decision_task_MP,2020.1.3,MacIntel,60,m,1,0.61577,,,,,,,,0.61577,1,,,,,,25,WORD,"ID",33,domain,DOMAIN,m,,,,,,-0.457838542,0.003177083,0,0,0,,0,201,201,24,1,
,,,,,,,,,,,,,,,,,,5ee561897247c02ad544c299,2020-08-10_11h47.16.290,lexical_decision_task_MP,2020.1.3,MacIntel,60,m,1,0.51687,,,,,,,,0.51687,1,,,,,,71,WORD,"ID",50,garden,GARDEN,m,,,,,,-0.457838542,0.003177083,0,0,0,,0,202,202,70,1,
,,,,,,,,,,,,,,,,,,5ee561897247c02ad544c299,2020-08-10_11h47.16.290,lexical_decision_task_MP,2020.1.3,MacIntel,60,z,1,0.766765,,,,,,,,0.766765,1,,,,,,292,NW,"ID",33,ablint,ABLINT,z,,,,,,-0.457838542,0.003177083,0,0,0,,0,203,203,291,1,
,,,,,,,,,,,,,,,,,,5ee561897247c02ad544c299,2020-08-10_11h47.16.290,lexical_decision_task_MP,2020.1.3,MacIntel,60,m,1,0.608225,,,,,,,,0.608225,1,,,,,,119,WORD,"ID",50,spider,SPIDER,m,,,,,,-0.457838542,0.003177083,0,0,0,,0,204,204,118,1,
,,,,,,,,,,,,,,,,,,5ee561897247c02ad544c299,2020-08-10_11h47.16.290,lexical_decision_task_MP,2020.1.3,MacIntel,60,m,1,0.63382,,,,,,,,0.63382,1,,,,,,213,WORD,UN,50,intake,SQUEAL,m,,,,,,-0.457838542,0.003177083,0,0,0,,0,205,205,212,1,
,,,,,,,,,,,,,,,,,,5ee561897247c02ad544c299,2020-08-10_11h47.16.290,lexical_decision_task_MP,2020.1.3,MacIntel,60,m,1,0.55599,,,,,,,,0.55599,1,,,,,,187,WORD,UN,50,social,COURSE,m,,,,,,-0.457838542,0.003177083,0,0,0,,0,206,206,186,1,
,,,,,,,,,,,,,,,,,,5ee561897247c02ad544c299,2020-08-10_11h47.16.290,lexical_decision_task_MP,2020.1.3,MacIntel,60,z,1,0.588665,,,,,,,,0.588665,1,,,,,,355,NW,"ID",50,zingly,ZINGLY,z,,,,,,-0.457838542,0.003177083,0,0,0,,0,207,207,354,1,
,,,,,,,,,,,,,,,,,,5ee561897247c02ad544c299,2020-08-10_11h47.16.290,lexical_decision_task_MP,2020.1.3,MacIntel,60,m,1,0.60093,,,,,,,,0.60093,1,,,,,,141,WORD,UN,33,spruce,ORPHAN,m,,,,,,-0.457838542,0.003177083,0,0,0,,0,208,208,140,1,
,,,,,,,,,,,,,,,,,,5ee561897247c02ad544c299,2020-08-10_11h47.16.290,lexical_decision_task_MP,2020.1.3,MacIntel,60,m,1,0.586125,,,,,,,,0.586125,1,,,,,,233,WORD,UN,50,clumsy,NATURE,m,,,,,,-0.457838542,0.003177083,0,0,0,,0,209,209,232,1,
,,,,,,,,,,,,,,,,,,5ee561897247c02ad544c299,2020-08-10_11h47.16.290,lexical_decision_task_MP,2020.1.3,MacIntel,60,z,1,0.59741,,,,,,,,0.59741,1,,,,,,334,NW,"ID",50,watmeg,WATMEG,z,,,,,,-0.457838542,0.003177083,0,0,0,,0,210,210,333,1,
,,,,,,,,,,,,,,,,,,5ee561897247c02ad544c299,2020-08-10_11h47.16.290,lexical_decision_task_MP,2020.1.3,MacIntel,60,z,1,0.58486,,,,,,,,0.58486,1,,,,,,353,NW,"ID",50,clurey,CLUREY,z,,,,,,-0.457838542,0.003177083,0,0,0,,0,211,211,352,1,
,,,,,,,,,,,,,,,,,,5ee561897247c02ad544c299,2020-08-10_11h47.16.290,lexical_decision_task_MP,2020.1.3,MacIntel,60,m,1,0.56643,,,,,,,,0.56643,1,,,,,,194,WORD,UN,50,resign,ABSENT,m,,,,,,-0.457838542,0.003177083,0,0,0,,0,212,212,193,1,
,,,,,,,,,,,,,,,,,,5ee561897247c02ad544c299,2020-08-10_11h47.16.290,lexical_decision_task_MP,2020.1.3,MacIntel,60,m,1,0.557775,,,,,,,,0.557775,1,,,,,,185,WORD,UN,50,portal,BOTHER,m,,,,,,-0.457838542,0.003177083,0,0,0,,0,213,213,184,1,
,,,,,,,,,,,,,,,,,,5ee561897247c02ad544c299,2020-08-10_11h47.16.290,lexical_decision_task_MP,2020.1.3,MacIntel,60,m,1,0.58852,,,,,,,,0.58852,1,,,,,,170,WORD,UN,33,depart,POUNCE,m,,,,,,-0.457838542,0.003177083,0,0,0,,0,214,214,169,1,
,,,,,,,,,,,,,,,,,,5ee561897247c02ad544c299,2020-08-10_11h47.16.290,lexical_decision_task_MP,2020.1.3,MacIntel,60,z,1,0.651085,,,,,,,,0.651085,1,,,,,,378,NW,UN,33,auting,SHRILE,z,,,,,,-0.457838542,0.003177083,0,0,0,,0,215,215,377,1,
,,,,,,,,,,,,,,,,,,5ee561897247c02ad544c299,2020-08-10_11h47.16.290,lexical_decision_task_MP,2020.1.3,MacIntel,60,z,1,0.71816,,,,,,,,0.71816,1,,,,,,329,NW,"ID",50,yarike,YARIKE,z,,,,,,-0.457838542,0.003177083,0,0,0,,0,216,216,328,1,
,,,,,,,,,,,,,,,,,,5ee561897247c02ad544c299,2020-08-10_11h47.16.290,lexical_decision_task_MP,2020.1.3,MacIntel,60,z,1,0.631485,,,,,,,,0.631485,1,,,,,,298,NW,"ID",33,piergy,PIERGY,z,,,,,,-0.457838542,0.003177083,0,0,0,,0,217,217,297,1,
,,,,,,,,,,,,,,,,,,5ee561897247c02ad544c299,2020-08-10_11h47.16.290,lexical_decision_task_MP,2020.1.3,MacIntel,60,m,1,0.56927,,,,,,,,0.56927,1,,,,,,22,WORD,"ID",33,jockey,JOCKEY,m,,,,,,-0.457838542,0.003177083,0,0,0,,0,218,218,21,1,
,,,,,,,,,,,,,,,,,,5ee561897247c02ad544c299,2020-08-10_11h47.16.290,lexical_decision_task_MP,2020.1.3,MacIntel,60,z,1,0.58163,,,,,,,,0.58163,1,,,,,,307,NW,"ID",50,kirafe,KIRAFE,z,,,,,,-0.457838542,0.003177083,0,0,0,,0,219,219,306,1,
,,,,,,,,,,,,,,,,,,5ee561897247c02ad544c299,2020-08-10_11h47.16.290,lexical_decision_task_MP,2020.1.3,MacIntel,60,z,1,0.71593,,,,,,,,0.71593,1,,,,,,426,NW,UN,50,frudge,URIVEL,z,,,,,,-0.457838542,0.003177083,0,0,0,,0,220,220,425,1,
,,,,,,,,,,,,,,,,,,5ee561897247c02ad544c299,2020-08-10_11h47.16.290,lexical_decision_task_MP,2020.1.3,MacIntel,60,z,1,0.80194,,,,,,,,0.80194,1,,,,,,357,NW,"ID",50,derain,DERAIN,z,,,,,,-0.457838542,0.003177083,0,0,0,,0,221,221,356,1,
,,,,,,,,,,,,,,,,,,5ee561897247c02ad544c299,2020-08-10_11h47.16.290,lexical_decision_task_MP,2020.1.3,MacIntel,60,m,0,1.04689,,,,,,,,1.04689,0,,,,,,266,NW,"ID",33,varmit,VARMIT,z,,,,,,-0.457838542,0.003177083,0,0,0,,0,222,222,265,1,
,,,,,,,,,,,,,,,,,,5ee561897247c02ad544c299,2020-08-10_11h47.16.290,lexical_decision_task_MP,2020.1.3,MacIntel,60,m,1,0.68066,,,,,,,,0.68066,1,,,,,,219,WORD,UN,50,voyage,BUCKET,m,,,,,,-0.457838542,0.003177083,0,0,0,,0,223,223,218,1,
,,,,,,,,,,,,,,,,,,5ee561897247c02ad544c299,2020-08-10_11h47.16.290,lexical_decision_task_MP,2020.1.3,MacIntel,60,z,1,0.616875,,,,,,,,0.616875,1,,,,,,430,NW,UN,50,funtle,CAROEY,z,,,,,,-0.457838542,0.003177083,0,0,0,,0,224,224,429,1,
,,,,,,,,,,,,,,,,,,5ee561897247c02ad544c299,2020-08-10_11h47.16.290,lexical_decision_task_MP,2020.1.3,MacIntel,60,m,1,0.60227,,,,,,,,0.60227,1,,,,,,5,WORD,"ID",33,plunge,PLUNGE,m,,,,,,-0.457838542,0.003177083,0,0,0,,0,225,225,4,1,
,,,,,,,,,,,,,,,,,,5ee561897247c02ad544c299,2020-08-10_11h47.16.290,lexical_decision_task_MP,2020.1.3,MacIntel,60,z,1,0.64941,,,,,,,,0.64941,1,,,,,,467,NW,UN,50,wictor,GORBIE,z,,,,,,-0.457838542,0.003177083,0,0,0,,0,226,226,466,1,
,,,,,,,,,,,,,,,,,,5ee561897247c02ad544c299,2020-08-10_11h47.16.290,lexical_decision_task_MP,2020.1.3,MacIntel,60,m,1,0.73801,,,,,,,,0.73801,1,,,,,,82,WORD,"ID",50,stigma,STIGMA,m,,,,,,-0.457838542,0.003177083,0,0,0,,0,227,227,81,1,
,,,,,,,,,,,,,,,,,,5ee561897247c02ad544c299,2020-08-10_11h47.16.290,lexical_decision_task_MP,2020.1.3,MacIntel,60,z,1,0.852865,,,,,,,,0.852865,1,,,,,,315,NW,"ID",50,laston,LASTON,z,,,,,,-0.457838542,0.003177083,0,0,0,,0,228,228,314,1,
,,,,,,,,,,,,,,,,,,5ee561897247c02ad544c299,2020-08-10_11h47.16.290,lexical_decision_task_MP,2020.1.3,MacIntel,60,z,1,0.905855,,,,,,,,0.905855,1,,,,,,407,NW,UN,33,hurnia,SUIVER,z,,,,,,-0.457838542,0.003177083,0,0,0,,0,229,229,406,1,
,,,,,,,,,,,,,,,,,,5ee561897247c02ad544c299,2020-08-10_11h47.16.290,lexical_decision_task_MP,2020.1.3,MacIntel,60,m,1,0.617035,,,,,,,,0.617035,1,,,,,,45,WORD,"ID",33,clergy,CLERGY,m,,,,,,-0.457838542,0.003177083,0,0,0,,0,230,230,44,1,
,,,,,,,,,,,,,,,,,,5ee561897247c02ad544c299,2020-08-10_11h47.16.290,lexical_decision_task_MP,2020.1.3,MacIntel,60,m,1,0.637555,,,,,,,,0.637555,1,,,,,,110,WORD,"ID",50,polite,POLITE,m,,,,,,-0.457838542,0.003177083,0,0,0,,0,231,231,109,1,
,,,,,,,,,,,,,,,,,,5ee561897247c02ad544c299,2020-08-10_11h47.16.290,lexical_decision_task_MP,2020.1.3,MacIntel,60,z,1,0.621185,,,,,,,,0.621185,1,,,,,,363,NW,UN,33,impote,BREALI,z,,,,,,-0.457838542,0.003177083,0,0,0,,0,232,232,362,1,
,,,,,,,,,,,,,,,,,,5ee561897247c02ad544c299,2020-08-10_11h47.16.290,lexical_decision_task_MP,2020.1.3,MacIntel,60,z,1,0.816065,,,,,,,,0.816065,1,,,,,,314,NW,"ID",50,sprine,SPRINE,z,,,,,,-0.457838542,0.003177083,0,0,0,,0,233,233,313,1,
,,,,,,,,,,,,,,,,,,5ee561897247c02ad544c299,2020-08-10_11h47.16.290,lexical_decision_task_MP,2020.1.3,MacIntel,60,z,1,0.634505,,,,,,,,0.634505,1,,,,,,384,NW,UN,33,veigma,GUESCO,z,,,,,,-0.457838542,0.003177083,0,0,0,,0,234,234,383,1,
,,,,,,,,,,,,,,,,,,5ee561897247c02ad544c299,2020-08-10_11h47.16.290,lexical_decision_task_MP,2020.1.3,MacIntel,60,m,1,0.59172,,,,,,,,0.59172,1,,,,,,147,WORD,UN,33,custom,GARLIC,m,,,,,,-0.457838542,0.003177083,0,0,0,,0,235,235,146,1,
,,,,,,,,,,,,,,,,,,5ee561897247c02ad544c299,2020-08-10_11h47.16.290,lexical_decision_task_MP,2020.1.3,MacIntel,60,m,1,0.990335,,,,,,,,0.990335,1,,,,,,113,WORD,"ID",50,chorus,CHORUS,m,,,,,,-0.457838542,0.003177083,0,0,0,,0,236,236,112,1,
,,,,,,,,,,,,,,,,,,5ee561897247c02ad544c299,2020-08-10_11h47.16.290,lexical_decision_task_MP,2020.1.3,MacIntel,60,z,1,0.541405,,,,,,,,0.541405,1,,,,,,289,NW,"ID",33,starby,STARBY,z,,,,,,-0.457838542,0.003177083,0,0,0,,0,237,237,288,1,
,,,,,,,,,,,,,,,,,,5ee561897247c02ad544c299,2020-08-10_11h47.16.290,lexical_decision_task_MP,2020.1.3,MacIntel,60,z,1,0.581685,,,,,,,,0.581685,1,,,,,,474,NW,UN,50,gorbie,HABLIN,z,,,,,,-0.457838542,0.003177083,0,0,0,,0,238,238,473,1,
,,,,,,,,,,,,,,,,,,5ee561897247c02ad544c299,2020-08-10_11h47.16.290,lexical_decision_task_MP,2020.1.3,MacIntel,60,z,1,0.557655,,,,,,,,0.557655,1,,,,,,375,NW,UN,33,iguare,YORQUE,z,,,,,,-0.457838542,0.003177083,0,0,0,,0,239,239,374,1,
,,,,,,,,,,,,,,,,,,5ee561897247c02ad544c299,2020-08-10_11h47.16.290,lexical_decision_task_MP,2020.1.3,MacIntel,60,z,1,0.55464,,,,,,,,0.55464,1,,,,,,446,NW,UN,50,gircue,RUNAMO,z,,,,,,-0.457838542,0.003177083,0,0,0,,0,240,240,445,1,
,,,,,,,,,,,,,,,,,,5ee561897247c02ad544c299,2020-08-10_11h47.16.290,lexical_decision_task_MP,2020.1.3,MacIntel,60,z,1,0.6895,,,,,,,,0.6895,1,,,,,,449,NW,UN,50,phrect,BRUNGE,z,,,,,,-0.457838542,0.003177083,0,0,0,space,0,241,241,448,1,51.555515
,,,,,,,,,,,,,,,,,,5ee561897247c02ad544c299,2020-08-10_11h47.16.290,lexical_decision_task_MP,2020.1.3,MacIntel,60,z,1,0.635355,,,,,,,,0.635355,1,,,,,,270,NW,"ID",33,wrimsy,WRIMSY,z,,,,,,-0.457838542,0.003177083,0,0,0,,0,242,242,269,1,
,,,,,,,,,,,,,,,,,,5ee561897247c02ad544c299,2020-08-10_11h47.16.290,lexical_decision_task_MP,2020.1.3,MacIntel,60,m,1,0.68932,,,,,,,,0.68932,1,,,,,,37,WORD,"ID",33,insult,INSULT,m,,,,,,-0.457838542,0.003177083,0,0,0,,0,243,243,36,1,
,,,,,,,,,,,,,,,,,,5ee561897247c02ad544c299,2020-08-10_11h47.16.290,lexical_decision_task_MP,2020.1.3,MacIntel,60,z,1,0.5531,,,,,,,,0.5531,1,,,,,,278,NW,"ID",33,unighs,UNIGHS,z,,,,,,-0.457838542,0.003177083,0,0,0,,0,244,244,277,1,
,,,,,,,,,,,,,,,,,,5ee561897247c02ad544c299,2020-08-10_11h47.16.290,lexical_decision_task_MP,2020.1.3,MacIntel,60,z,1,0.54933,,,,,,,,0.54933,1,,,,,,460,NW,UN,50,justre,MINGAR,z,,,,,,-0.457838542,0.003177083,0,0,0,,0,245,245,459,1,
,,,,,,,,,,,,,,,,,,5ee561897247c02ad544c299,2020-08-10_11h47.16.290,lexical_decision_task_MP,2020.1.3,MacIntel,60,z,1,0.534325,,,,,,,,0.534325,1,,,,,,369,NW,UN,33,sleact,WRONCH,z,,,,,,-0.457838542,0.003177083,0,0,0,,0,246,246,368,1,
,,,,,,,,,,,,,,,,,,5ee561897247c02ad544c299,2020-08-10_11h47.16.290,lexical_decision_task_MP,2020.1.3,MacIntel,60,z,1,0.71437,,,,,,,,0.71437,1,,,,,,348,NW,"ID",50,dumple,DUMPLE,z,,,,,,-0.457838542,0.003177083,0,0,0,,0,247,247,347,1,
,,,,,,,,,,,,,,,,,,5ee561897247c02ad544c299,2020-08-10_11h47.16.290,lexical_decision_task_MP,2020.1.3,MacIntel,60,m,1,0.536655,,,,,,,,0.536655,1,,,,,,87,WORD,"ID",50,filter,FILTER,m,,,,,,-0.457838542,0.003177083,0,0,0,,0,248,248,86,1,
,,,,,,,,,,,,,,,,,,5ee561897247c02ad544c299,2020-08-10_11h47.16.290,lexical_decision_task_MP,2020.1.3,MacIntel,60,z,1,0.43327,,,,,,,,0.43327,1,,,,,,459,NW,UN,50,mingar,BAFENT,z,,,,,,-0.457838542,0.003177083,0,0,0,,0,249,249,458,1,
,,,,,,,,,,,,,,,,,,5ee561897247c02ad544c299,2020-08-10_11h47.16.290,lexical_decision_task_MP,2020.1.3,MacIntel,60,z,1,0.621885,,,,,,,,0.621885,1,,,,,,411,NW,UN,33,jiluer,ORCHIN,z,,,,,,-0.457838542,0.003177083,0,0,0,,0,250,250,410,1,
,,,,,,,,,,,,,,,,,,5ee561897247c02ad544c299,2020-08-10_11h47.16.290,lexical_decision_task_MP,2020.1.3,MacIntel,60,z,1,0.501445,,,,,,,,0.501445,1,,,,,,321,NW,"ID",50,miator,MIATOR,z,,,,,,-0.457838542,0.003177083,0,0,0,,0,251,251,320,1,
,,,,,,,,,,,,,,,,,,5ee561897247c02ad544c299,2020-08-10_11h47.16.290,lexical_decision_task_MP,2020.1.3,MacIntel,60,m,1,0.525745,,,,,,,,0.525745,1,,,,,,240,WORD,UN,50,glance,FOREST,m,,,,,,-0.457838542,0.003177083,0,0,0,,0,252,252,239,1,
,,,,,,,,,,,,,,,,,,5ee561897247c02ad544c299,2020-08-10_11h47.16.290,lexical_decision_task_MP,2020.1.3,MacIntel,60,z,1,0.50491,,,,,,,,0.50491,1,,,,,,478,NW,UN,50,lobush,ACRISE,z,,,,,,-0.457838542,0.003177083,0,0,0,,0,253,253,477,1,
,,,,,,,,,,,,,,,,,,5ee561897247c02ad544c299,2020-08-10_11h47.16.290,lexical_decision_task_MP,2020.1.3,MacIntel,60,m,1,0.551355,,,,,,,,0.551355,1,,,,,,78,WORD,"ID",50,column,COLUMN,m,,,,,,-0.457838542,0.003177083,0,0,0,,0,254,254,77,1,
,,,,,,,,,,,,,,,,,,5ee561897247c02ad544c299,2020-08-10_11h47.16.290,lexical_decision_task_MP,2020.1.3,MacIntel,60,z,1,0.47407,,,,,,,,0.47407,1,,,,,,439,NW,UN,50,saride,LIMPOR,z,,,,,,-0.457838542,0.003177083,0,0,0,,0,255,255,438,1,
,,,,,,,,,,,,,,,,,,5ee561897247c02ad544c299,2020-08-10_11h47.16.290,lexical_decision_task_MP,2020.1.3,MacIntel,60,m,1,0.605775,,,,,,,,0.605775,1,,,,,,75,WORD,"ID",50,trophy,TROPHY,m,,,,,,-0.457838542,0.003177083,0,0,0,,0,256,256,74,1,
,,,,,,,,,,,,,,,,,,5ee561897247c02ad544c299,2020-08-10_11h47.16.290,lexical_decision_task_MP,2020.1.3,MacIntel,60,z,1,0.48168,,,,,,,,0.48168,1,,,,,,371,NW,UN,33,ramily,GEILOY,z,,,,,,-0.457838542,0.003177083,0,0,0,,0,257,257,370,1,
,,,,,,,,,,,,,,,,,,5ee561897247c02ad544c299,2020-08-10_11h47.16.290,lexical_decision_task_MP,2020.1.3,MacIntel,60,m,1,0.705655,,,,,,,,0.705655,1,,,,,,205,WORD,UN,50,tailor,LOUNGE,m,,,,,,-0.457838542,0.003177083,0,0,0,,0,258,258,204,1,
,,,,,,,,,,,,,,,,,,5ee561897247c02ad544c299,2020-08-10_11h47.16.290,lexical_decision_task_MP,2020.1.3,MacIntel,60,z,1,0.568075,,,,,,,,0.568075,1,,,,,,389,NW,UN,33,hatrus,WITMER,z,,,,,,-0.457838542,0.003177083,0,0,0,,0,259,259,388,1,
,,,,,,,,,,,,,,,,,,5ee561897247c02ad544c299,2020-08-10_11h47.16.290,lexical_decision_task_MP,2020.1.3,MacIntel,60,m,1,0.59777,,,,,,,,0.59777,1,,,,,,172,WORD,UN,33,shower,PATROL,m,,,,,,-0.457838542,0.003177083,0,0,0,,0,260,260,171,1,
,,,,,,,,,,,,,,,,,,5ee561897247c02ad544c299,2020-08-10_11h47.16.290,lexical_decision_task_MP,2020.1.3,MacIntel,60,z,1,0.62495,,,,,,,,0.62495,1,,,,,,343,NW,"ID",50,aimosy,AIMOSY,z,,,,,,-0.457838542,0.003177083,0,0,0,,0,261,261,342,1,
,,,,,,,,,,,,,,,,,,5ee561897247c02ad544c299,2020-08-10_11h47.16.290,lexical_decision_task_MP,2020.1.3,MacIntel,60,m,1,1.34989,,,,,,,,1.34989,1,,,,,,227,WORD,UN,50,master,SELDOM,m,,,,,,-0.457838542,0.003177083,0,0,0,,0,262,262,226,1,
,,,,,,,,,,,,,,,,,,5ee561897247c02ad544c299,2020-08-10_11h47.16.290,lexical_decision_task_MP,2020.1.3,MacIntel,60,z,1,0.550015,,,,,,,,0.550015,1,,,,,,262,NW,"ID",33,quilew,QUILEW,z,,,,,,-0.457838542,0.003177083,0,0,0,,0,263,263,261,1,
,,,,,,,,,,,,,,,,,,5ee561897247c02ad544c299,2020-08-10_11h47.16.290,lexical_decision_task_MP,2020.1.3,MacIntel,60,m,1,0.604065,,,,,,,,0.604065,1,,,,,,120,WORD,"ID",50,strain,STRAIN,m,,,,,,-0.457838542,0.003177083,0,0,0,,0,264,264,119,1,
,,,,,,,,,,,,,,,,,,5ee561897247c02ad544c299,2020-08-10_11h47.16.290,lexical_decision_task_MP,2020.1.3,MacIntel,60,z,1,0.537345,,,,,,,,0.537345,1,,,,,,263,NW,"ID",33,dolica,DOLICA,z,,,,,,-0.457838542,0.003177083,0,0,0,,0,265,265,262,1,
,,,,,,,,,,,,,,,,,,5ee561897247c02ad544c299,2020-08-10_11h47.16.290,lexical_decision_task_MP,2020.1.3,MacIntel,60,z,1,0.949685,,,,,,,,0.949685,1,,,,,,431,NW,UN,50,lunker,CHRUMS,z,,,,,,-0.457838542,0.003177083,0,0,0,,0,266,266,430,1,
,,,,,,,,,,,,,,,,,,5ee561897247c02ad544c299,2020-08-10_11h47.16.290,lexical_decision_task_MP,2020.1.3,MacIntel,60,z,1,0.58327,,,,,,,,0.58327,1,,,,,,415,NW,UN,33,pathel,HIGSTA,z,,,,,,-0.457838542,0.003177083,0,0,0,,0,267,267,414,1,
,,,,,,,,,,,,,,,,,,5ee561897247c02ad544c299,2020-08-10_11h47.16.290,lexical_decision_task_MP,2020.1.3,MacIntel,60,m,1,0.609255,,,,,,,,0.609255,1,,,,,,222,WORD,UN,50,casino,HINDER,m,,,,,,-0.457838542,0.003177083,0,0,0,,0,268,268,221,1,
,,,,,,,,,,,,,,,,,,5ee561897247c02ad544c299,2020-08-10_11h47.16.290,lexical_decision_task_MP,2020.1.3,MacIntel,60,z,1,0.565535,,,,,,,,0.565535,1,,,,,,393,NW,UN,33,spaqux,GANOUS,z,,,,,,-0.457838542,0.003177083,0,0,0,,0,269,269,392,1,
,,,,,,,,,,,,,,,,,,5ee561897247c02ad544c299,2020-08-10_11h47.16.290,lexical_decision_task_MP,2020.1.3,MacIntel,60,m,1,0.534945,,,,,,,,0.534945,1,,,,,,146,WORD,UN,33,garlic,COUPLE,m,,,,,,-0.457838542,0.003177083,0,0,0,,0,270,270,145,1,
,,,,,,,,,,,,,,,,,,5ee561897247c02ad544c299,2020-08-10_11h47.16.290,lexical_decision_task_MP,2020.1.3,MacIntel,60,m,1,0.5349,,,,,,,,0.5349,1,,,,,,33,WORD,"ID",33,butler,BUTLER,m,,,,,,-0.457838542,0.003177083,0,0,0,,0,271,271,32,1,
,,,,,,,,,,,,,,,,,,5ee561897247c02ad544c299,2020-08-10_11h47.16.290,lexical_decision_task_MP,2020.1.3,MacIntel,60,m,1,0.58103,,,,,,,,0.58103,1,,,,,,55,WORD,"ID",33,stroke,STROKE,m,,,,,,-0.457838542,0.003177083,0,0,0,,0,272,272,54,1,
,,,,,,,,,,,,,,,,,,5ee561897247c02ad544c299,2020-08-10_11h47.16.290,lexical_decision_task_MP,2020.1.3,MacIntel,60,m,1,0.45563,,,,,,,,0.45563,1,,,,,,1,WORD,"ID",33,fright,FRIGHT,m,,,,,,-0.457838542,0.003177083,0,0,0,,0,273,273,0,1,
,,,,,,,,,,,,,,,,,,5ee561897247c02ad544c299,2020-08-10_11h47.16.290,lexical_decision_task_MP,2020.1.3,MacIntel,60,m,1,0.676225,,,,,,,,0.676225,1,,,,,,221,WORD,UN,50,hinder,MASCOT,m,,,,,,-0.457838542,0.003177083,0,0,0,,0,274,274,220,1,
,,,,,,,,,,,,,,,,,,5ee561897247c02ad544c299,2020-08-10_11h47.16.290,lexical_decision_task_MP,2020.1.3,MacIntel,60,z,1,0.618735,,,,,,,,0.618735,1,,,,,,479,NW,UN,50,josted,LOBUSH,z,,,,,,-0.457838542,0.003177083,0,0,0,,0,275,275,478,1,
,,,,,,,,,,,,,,,,,,5ee561897247c02ad544c299,2020-08-10_11h47.16.290,lexical_decision_task_MP,2020.1.3,MacIntel,60,m,1,0.515585,,,,,,,,0.515585,1,,,,,,239,WORD,UN,50,forest,LUMBER,m,,,,,,-0.457838542,0.003177083,0,0,0,,0,276,276,238,1,
,,,,,,,,,,,,,,,,,,5ee561897247c02ad544c299,2020-08-10_11h47.16.290,lexical_decision_task_MP,2020.1.3,MacIntel,60,m,1,0.636025,,,,,,,,0.636025,1,,,,,,121,WORD,UN,33,linger,THRIVE,m,,,,,,-0.457838542,0.003177083,0,0,0,,0,277,277,120,1,
,,,,,,,,,,,,,,,,,,5ee561897247c02ad544c299,2020-08-10_11h47.16.290,lexical_decision_task_MP,2020.1.3,MacIntel,60,m,1,0.51838,,,,,,,,0.51838,1,,,,,,100,WORD,"ID",50,carbon,CARBON,m,,,,,,-0.457838542,0.003177083,0,0,0,,0,278,278,99,1,
,,,,,,,,,,,,,,,,,,5ee561897247c02ad544c299,2020-08-10_11h47.16.290,lexical_decision_task_MP,2020.1.3,MacIntel,60,z,1,0.58096,,,,,,,,0.58096,1,,,,,,423,NW,UN,50,praile,STRELD,z,,,,,,-0.457838542,0.003177083,0,0,0,,0,279,279,422,1,
,,,,,,,,,,,,,,,,,,5ee561897247c02ad544c299,2020-08-10_11h47.16.290,lexical_decision_task_MP,2020.1.3,MacIntel,60,z,1,0.87137,,,,,,,,0.87137,1,,,,,,299,NW,"ID",33,sturch,STURCH,z,,,,,,-0.457838542,0.003177083,0,0,0,,0,280,280,298,1,
,,,,,,,,,,,,,,,,,,5ee561897247c02ad544c299,2020-08-10_11h47.16.290,lexical_decision_task_MP,2020.1.3,MacIntel,60,z,1,0.516845,,,,,,,,0.516845,1,,,,,,383,NW,UN,33,guesco,AUNGRE,z,,,,,,-0.457838542,0.003177083,0,0,0,,0,281,281,382,1,
,,,,,,,,,,,,,,,,,,5ee561897247c02ad544c299,2020-08-10_11h47.16.290,lexical_decision_task_MP,2020.1.3,MacIntel,60,m,1,0.6425,,,,,,,,0.6425,1,,,,,,15,WORD,"ID",33,amount,AMOUNT,m,,,,,,-0.457838542,0.003177083,0,0,0,,0,282,282,14,1,
,,,,,,,,,,,,,,,,,,5ee561897247c02ad544c299,2020-08-10_11h47.16.290,lexical_decision_task_MP,2020.1.3,MacIntel,60,z,1,0.92099,,,,,,,,0.92099,1,,,,,,476,NW,UN,50,photie,JOSTED,z,,,,,,-0.457838542,0.003177083,0,0,0,,0,283,283,475,1,
,,,,,,,,,,,,,,,,,,5ee561897247c02ad544c299,2020-08-10_11h47.16.290,lexical_decision_task_MP,2020.1.3,MacIntel,60,m,1,0.54945,,,,,,,,0.54945,1,,,,,,163,WORD,UN,33,market,STRING,m,,,,,,-0.457838542,0.003177083,0,0,0,,0,284,284,162,1,
,,,,,,,,,,,,,,,,,,5ee561897247c02ad544c299,2020-08-10_11h47.16.290,lexical_decision_task_MP,2020.1.3,MacIntel,60,z,0,0.536945,,,,,,,,0.536945,0,,,,,,215,WORD,UN,50,behalf,PHOBIA,m,,,,,,-0.457838542,0.003177083,0,0,0,,0,285,285,214,1,
,,,,,,,,,,,,,,,,,,5ee561897247c02ad544c299,2020-08-10_11h47.16.290,lexical_decision_task_MP,2020.1.3,MacIntel,60,m,1,0.784085,,,,,,,,0.784085,1,,,,,,156,WORD,UN,33,pastor,CRADLE,m,,,,,,-0.457838542,0.003177083,0,0,0,,0,286,286,155,1,
,,,,,,,,,,,,,,,,,,5ee561897247c02ad544c299,2020-08-10_11h47.16.290,lexical_decision_task_MP,2020.1.3,MacIntel,60,z,1,0.55673,,,,,,,,0.55673,1,,,,,,457,NW,UN,50,barcet,WANIGH,z,,,,,,-0.457838542,0.003177083,0,0,0,,0,287,287,456,1,
,,,,,,,,,,,,,,,,,,5ee561897247c02ad544c299,2020-08-10_11h47.16.290,lexical_decision_task_MP,2020.1.3,MacIntel,60,m,1,0.653425,,,,,,,,0.653425,1,,,,,,123,WORD,UN,33,enough,STRIKE,m,,,,,,-0.457838542,0.003177083,0,0,0,,0,288,288,122,1,
,,,,,,,,,,,,,,,,,,5ee561897247c02ad544c299,2020-08-10_11h47.16.290,lexical_decision_task_MP,2020.1.3,MacIntel,60,m,1,0.551765,,,,,,,,0.551765,1,,,,,,166,WORD,UN,33,design,STARCH,m,,,,,,-0.457838542,0.003177083,0,0,0,,0,289,289,165,1,
,,,,,,,,,,,,,,,,,,5ee561897247c02ad544c299,2020-08-10_11h47.16.290,lexical_decision_task_MP,2020.1.3,MacIntel,60,z,1,0.59993,,,,,,,,0.59993,1,,,,,,377,NW,UN,33,shrile,INJORE,z,,,,,,-0.457838542,0.003177083,0,0,0,,0,290,290,376,1,
,,,,,,,,,,,,,,,,,,5ee561897247c02ad544c299,2020-08-10_11h47.16.290,lexical_decision_task_MP,2020.1.3,MacIntel,60,z,1,0.783395,,,,,,,,0.783395,1,,,,,,345,NW,"ID",50,absend,ABSEND,z,,,,,,-0.457838542,0.003177083,0,0,0,,0,291,291,344,1,
,,,,,,,,,,,,,,,,,,5ee561897247c02ad544c299,2020-08-10_11h47.16.290,lexical_decision_task_MP,2020.1.3,MacIntel,60,m,1,0.6335,,,,,,,,0.6335,1,,,,,,117,WORD,"ID",50,branch,BRANCH,m,,,,,,-0.457838542,0.003177083,0,0,0,,0,292,292,116,1,
,,,,,,,,,,,,,,,,,,5ee561897247c02ad544c299,2020-08-10_11h47.16.290,lexical_decision_task_MP,2020.1.3,MacIntel,60,m,1,0.583635,,,,,,,,0.583635,1,,,,,,66,WORD,"ID",50,gospel,GOSPEL,m,,,,,,-0.457838542,0.003177083,0,0,0,,0,293,293,65,1,
,,,,,,,,,,,,,,,,,,5ee561897247c02ad544c299,2020-08-10_11h47.16.290,lexical_decision_task_MP,2020.1.3,MacIntel,60,z,1,0.655705,,,,,,,,0.655705,1,,,,,,359,NW,"ID",50,fonver,FONVER,z,,,,,,-0.457838542,0.003177083,0,0,0,,0,294,294,358,1,
,,,,,,,,,,,,,,,,,,5ee561897247c02ad544c299,2020-08-10_11h47.16.290,lexical_decision_task_MP,2020.1.3,MacIntel,60,m,1,0.533955,,,,,,,,0.533955,1,,,,,,223,WORD,UN,50,period,KIDNEY,m,,,,,,-0.457838542,0.003177083,0,0,0,,0,295,295,222,1,
,,,,,,,,,,,,,,,,,,5ee561897247c02ad544c299,2020-08-10_11h47.16.290,lexical_decision_task_MP,2020.1.3,MacIntel,60,z,1,0.61383,,,,,,,,0.61383,1,,,,,,277,NW,"ID",33,petain,PETAIN,z,,,,,,-0.457838542,0.003177083,0,0,0,,0,296,296,276,1,
,,,,,,,,,,,,,,,,,,5ee561897247c02ad544c299,2020-08-10_11h47.16.290,lexical_decision_task_MP,2020.1.3,MacIntel,60,z,1,0.67395,,,,,,,,0.67395,1,,,,,,374,NW,UN,33,yorque,SLIANT,z,,,,,,-0.457838542,0.003177083,0,0,0,,0,297,297,373,1,
,,,,,,,,,,,,,,,,,,5ee561897247c02ad544c299,2020-08-10_11h47.16.290,lexical_decision_task_MP,2020.1.3,MacIntel,60,m,1,0.688775,,,,,,,,0.688775,1,,,,,,116,WORD,"ID",50,tumble,TUMBLE,m,,,,,,-0.457838542,0.003177083,0,0,0,,0,298,298,115,1,
,,,,,,,,,,,,,,,,,,5ee561897247c02ad544c299,2020-08-10_11h47.16.290,lexical_decision_task_MP,2020.1.3,MacIntel,60,z,1,0.53289,,,,,,,,0.53289,1,,,,,,465,NW,UN,50,hocite,WHIVEX,z,,,,,,-0.457838542,0.003177083,0,0,0,,0,299,299,464,1,
,,,,,,,,,,,,,,,,,,5ee561897247c02ad544c299,2020-08-10_11h47.16.290,lexical_decision_task_MP,2020.1.3,MacIntel,60,z,1,0.583885,,,,,,,,0.583885,1,,,,,,337,NW,"ID",50,rejols,REJOLS,z,,,,,,-0.457838542,0.003177083,0,0,0,,0,300,300,336,1,
,,,,,,,,,,,,,,,,,,5ee561897247c02ad544c299,2020-08-10_11h47.16.290,lexical_decision_task_MP,2020.1.3,MacIntel,60,m,1,0.49954,,,,,,,,0.49954,1,,,,,,38,WORD,"ID",33,powder,POWDER,m,,,,,,-0.457838542,0.003177083,0,0,0,,0,301,301,37,1,
,,,,,,,,,,,,,,,,,,5ee561897247c02ad544c299,2020-08-10_11h47.16.290,lexical_decision_task_MP,2020.1.3,MacIntel,60,z,1,0.525735,,,,,,,,0.525735,1,,,,,,243,NW,"ID",33,musied,MUSIED,z,,,,,,-0.457838542,0.003177083,0,0,0,,0,302,302,242,1,
,,,,,,,,,,,,,,,,,,5ee561897247c02ad544c299,2020-08-10_11h47.16.290,lexical_decision_task_MP,2020.1.3,MacIntel,60,m,1,0.755655,,,,,,,,0.755655,1,,,,,,83,WORD,"ID",50,result,RESULT,m,,,,,,-0.457838542,0.003177083,0,0,0,,0,303,303,82,1,
,,,,,,,,,,,,,,,,,,5ee561897247c02ad544c299,2020-08-10_11h47.16.290,lexical_decision_task_MP,2020.1.3,MacIntel,60,m,1,0.905535,,,,,,,,0.905535,1,,,,,,35,WORD,"ID",33,socket,SOCKET,m,,,,,,-0.457838542,0.003177083,0,0,0,,0,304,304,34,1,
,,,,,,,,,,,,,,,,,,5ee561897247c02ad544c299,2020-08-10_11h47.16.290,lexical_decision_task_MP,2020.1.3,MacIntel,60,z,1,0.63138,,,,,,,,0.63138,1,,,,,,248,NW,"ID",33,strole,STROLE,z,,,,,,-0.457838542,0.003177083,0,0,0,,0,305,305,247,1,
,,,,,,,,,,,,,,,,,,5ee561897247c02ad544c299,2020-08-10_11h47.16.290,lexical_decision_task_MP,2020.1.3,MacIntel,60,m,1,0.93625,,,,,,,,0.93625,1,,,,,,198,WORD,UN,50,invoke,WICKED,m,,,,,,-0.457838542,0.003177083,0,0,0,,0,306,306,197,1,
,,,,,,,,,,,,,,,,,,5ee561897247c02ad544c299,2020-08-10_11h47.16.290,lexical_decision_task_MP,2020.1.3,MacIntel,60,z,1,0.635165,,,,,,,,0.635165,1,,,,,,422,NW,UN,50,streld,ALCOUD,z,,,,,,-0.457838542,0.003177083,0,0,0,,0,307,307,421,1,
,,,,,,,,,,,,,,,,,,5ee561897247c02ad544c299,2020-08-10_11h47.16.290,lexical_decision_task_MP,2020.1.3,MacIntel,60,m,1,0.60061,,,,,,,,0.60061,1,,,,,,64,WORD,"ID",50,throne,THRONE,m,,,,,,-0.457838542,0.003177083,0,0,0,,0,308,308,63,1,
,,,,,,,,,,,,,,,,,,5ee561897247c02ad544c299,2020-08-10_11h47.16.290,lexical_decision_task_MP,2020.1.3,MacIntel,60,z,1,0.584245,,,,,,,,0.584245,1,,,,,,271,NW,"ID",33,aubrid,AUBRID,z,,,,,,-0.457838542,0.003177083,0,0,0,,0,309,309,270,1,
,,,,,,,,,,,,,,,,,,5ee561897247c02ad544c299,2020-08-10_11h47.16.290,lexical_decision_task_MP,2020.1.3,MacIntel,60,m,1,0.653285,,,,,,,,0.653285,1,,,,,,91,WORD,"ID",50,expand,EXPAND,m,,,,,,-0.457838542,0.003177083,0,0,0,,0,310,310,90,1,
,,,,,,,,,,,,,,,,,,5ee561897247c02ad544c299,2020-08-10_11h47.16.290,lexical_decision_task_MP,2020.1.3,MacIntel,60,m,1,0.53244,,,,,,,,0.53244,1,,,,,,80,WORD,"ID",50,family,FAMILY,m,,,,,,-0.457838542,0.003177083,0,0,0,,0,311,311,79,1,
,,,,,,,,,,,,,,,,,,5ee561897247c02ad544c299,2020-08-10_11h47.16.290,lexical_decision_task_MP,2020.1.3,MacIntel,60,m,1,0.550465,,,,,,,,0.550465,1,,,,,,124,WORD,UN,33,nickel,BLOUSE,m,,,,,,-0.457838542,0.003177083,0,0,0,,0,312,312,123,1,
,,,,,,,,,,,,,,,,,,5ee561897247c02ad544c299,2020-08-10_11h47.16.290,lexical_decision_task_MP,2020.1.3,MacIntel,60,m,1,0.650675,,,,,,,,0.650675,1,,,,,,8,WORD,"ID",33,abrupt,ABRUPT,m,,,,,,-0.457838542,0.003177083,0,0,0,,0,313,313,7,1,
,,,,,,,,,,,,,,,,,,5ee561897247c02ad544c299,2020-08-10_11h47.16.290,lexical_decision_task_MP,2020.1.3,MacIntel,60,m,1,0.501545,,,,,,,,0.501545,1,,,,,,3,WORD,"ID",33,knight,KNIGHT,m,,,,,,-0.457838542,0.003177083,0,0,0,,0,314,314,2,1,
,,,,,,,,,,,,,,,,,,5ee561897247c02ad544c299,2020-08-10_11h47.16.290,lexical_decision_task_MP,2020.1.3,MacIntel,60,z,1,0.73965,,,,,,,,0.73965,1,,,,,,444,NW,UN,50,minkel,JAUNCE,z,,,,,,-0.457838542,0.003177083,0,0,0,,0,315,315,443,1,
,,,,,,,,,,,,,,,,,,5ee561897247c02ad544c299,2020-08-10_11h47.16.290,lexical_decision_task_MP,2020.1.3,MacIntel,60,z,1,0.58445,,,,,,,,0.58445,1,,,,,,468,NW,UN,50,padifs,WICTOR,z,,,,,,-0.457838542,0.003177083,0,0,0,,0,316,316,467,1,
,,,,,,,,,,,,,,,,,,5ee561897247c02ad544c299,2020-08-10_11h47.16.290,lexical_decision_task_MP,2020.1.3,MacIntel,60,m,1,0.53627,,,,,,,,0.53627,1,,,,,,13,WORD,"ID",33,strive,STRIVE,m,,,,,,-0.457838542,0.003177083,0,0,0,,0,317,317,12,1,
,,,,,,,,,,,,,,,,,,5ee561897247c02ad544c299,2020-08-10_11h47.16.290,lexical_decision_task_MP,2020.1.3,MacIntel,60,z,1,0.59015,,,,,,,,0.59015,1,,,,,,386,NW,UN,33,gronce,ANCUST,z,,,,,,-0.457838542,0.003177083,0,0,0,,0,318,318,385,1,
,,,,,,,,,,,,,,,,,,5ee561897247c02ad544c299,2020-08-10_11h47.16.290,lexical_decision_task_MP,2020.1.3,MacIntel,60,m,1,0.483315,,,,,,,,0.483315,1,,,,,,65,WORD,"ID",50,symbol,SYMBOL,m,,,,,,-0.457838542,0.003177083,0,0,0,,0,319,319,64,1,
,,,,,,,,,,,,,,,,,,5ee561897247c02ad544c299,2020-08-10_11h47.16.290,lexical_decision_task_MP,2020.1.3,MacIntel,60,z,1,0.698855,,,,,,,,0.698855,1,,,,,,306,NW,"ID",50,sounge,SOUNGE,z,,,,,,-0.457838542,0.003177083,0,0,0,,0,320,320,305,1,
,,,,,,,,,,,,,,,,,,5ee561897247c02ad544c299,2020-08-10_11h47.16.290,lexical_decision_task_MP,2020.1.3,MacIntel,60,m,1,0.583385,,,,,,,,0.583385,1,,,,,,196,WORD,UN,50,stream,CREDIT,m,,,,,,-0.457838542,0.003177083,0,0,0,,0,321,321,195,1,
,,,,,,,,,,,,,,,,,,5ee561897247c02ad544c299,2020-08-10_11h47.16.290,lexical_decision_task_MP,2020.1.3,MacIntel,60,z,1,0.535765,,,,,,,,0.535765,1,,,,,,367,NW,UN,33,hornal,SLIQUE,z,,,,,,-0.457838542,0.003177083,0,0,0,,0,322,322,366,1,
,,,,,,,,,,,,,,,,,,5ee561897247c02ad544c299,2020-08-10_11h47.16.290,lexical_decision_task_MP,2020.1.3,MacIntel,60,m,1,0.51989,,,,,,,,0.51989,1,,,,,,103,WORD,"ID",50,bounce,BOUNCE,m,,,,,,-0.457838542,0.003177083,0,0,0,,0,323,323,102,1,
,,,,,,,,,,,,,,,,,,5ee561897247c02ad544c299,2020-08-10_11h47.16.290,lexical_decision_task_MP,2020.1.3,MacIntel,60,m,1,0.533665,,,,,,,,0.533665,1,,,,,,179,WORD,UN,33,silent,BASKET,m,,,,,,-0.457838542,0.003177083,0,0,0,,0,324,324,178,1,
,,,,,,,,,,,,,,,,,,5ee561897247c02ad544c299,2020-08-10_11h47.16.290,lexical_decision_task_MP,2020.1.3,MacIntel,60,z,0,0.499775,,,,,,,,0.499775,0,,,,,,160,WORD,UN,33,dragon,VIOLET,m,,,,,,-0.457838542,0.003177083,0,0,0,,0,325,325,159,1,
,,,,,,,,,,,,,,,,,,5ee561897247c02ad544c299,2020-08-10_11h47.16.290,lexical_decision_task_MP,2020.1.3,MacIntel,60,m,1,0.555055,,,,,,,,0.555055,1,,,,,,14,WORD,"ID",33,almost,ALMOST,m,,,,,,-0.457838542,0.003177083,0,0,0,,0,326,326,13,1,
,,,,,,,,,,,,,,,,,,5ee561897247c02ad544c299,2020-08-10_11h47.16.290,lexical_decision_task_MP,2020.1.3,MacIntel,60,m,1,0.55205,,,,,,,,0.55205,1,,,,,,193,WORD,UN,50,plague,OBJECT,m,,,,,,-0.457838542,0.003177083,0,0,0,,0,327,327,192,1,
,,,,,,,,,,,,,,,,,,5ee561897247c02ad544c299,2020-08-10_11h47.16.290,lexical_decision_task_MP,2020.1.3,MacIntel,60,m,1,0.50285,,,,,,,,0.50285,1,,,,,,50,WORD,"ID",33,snatch,SNATCH,m,,,,,,-0.457838542,0.003177083,0,0,0,,0,328,328,49,1,
,,,,,,,,,,,,,,,,,,5ee561897247c02ad544c299,2020-08-10_11h47.16.290,lexical_decision_task_MP,2020.1.3,MacIntel,60,m,1,0.521785,,,,,,,,0.521785,1,,,,,,192,WORD,UN,50,object,PLAGUE,m,,,,,,-0.457838542,0.003177083,0,0,0,,0,329,329,191,1,
,,,,,,,,,,,,,,,,,,5ee561897247c02ad544c299,2020-08-10_11h47.16.290,lexical_decision_task_MP,2020.1.3,MacIntel,60,m,0,0.539335,,,,,,,,0.539335,0,,,,,,250,NW,"ID",33,milted,MILTED,z,,,,,,-0.457838542,0.003177083,0,0,0,,0,330,330,249,1,
,,,,,,,,,,,,,,,,,,5ee561897247c02ad544c299,2020-08-10_11h47.16.290,lexical_decision_task_MP,2020.1.3,MacIntel,60,z,1,0.71456,,,,,,,,0.71456,1,,,,,,360,NW,"ID",50,desory,DESORY,z,,,,,,-0.457838542,0.003177083,0,0,0,,0,331,331,359,1,
,,,,,,,,,,,,,,,,,,5ee561897247c02ad544c299,2020-08-10_11h47.16.290,lexical_decision_task_MP,2020.1.3,MacIntel,60,m,1,0.65119,,,,,,,,0.65119,1,,,,,,229,WORD,UN,50,fringe,MOTHER,m,,,,,,-0.457838542,0.003177083,0,0,0,,0,332,332,228,1,
,,,,,,,,,,,,,,,,,,5ee561897247c02ad544c299,2020-08-10_11h47.16.290,lexical_decision_task_MP,2020.1.3,MacIntel,60,z,1,0.647805,,,,,,,,0.647805,1,,,,,,249,NW,"ID",33,batrol,BATROL,z,,,,,,-0.457838542,0.003177083,0,0,0,,0,333,333,248,1,
,,,,,,,,,,,,,,,,,,5ee561897247c02ad544c299,2020-08-10_11h47.16.290,lexical_decision_task_MP,2020.1.3,MacIntel,60,m,1,0.691495,,,,,,,,0.691495,1,,,,,,216,WORD,UN,50,liquor,BEHALF,m,,,,,,-0.457838542,0.003177083,0,0,0,,0,334,334,215,1,
,,,,,,,,,,,,,,,,,,5ee561897247c02ad544c299,2020-08-10_11h47.16.290,lexical_decision_task_MP,2020.1.3,MacIntel,60,z,1,0.5395,,,,,,,,0.5395,1,,,,,,440,NW,UN,50,cainky,SARIDE,z,,,,,,-0.457838542,0.003177083,0,0,0,,0,335,335,439,1,
,,,,,,,,,,,,,,,,,,5ee561897247c02ad544c299,2020-08-10_11h47.16.290,lexical_decision_task_MP,2020.1.3,MacIntel,60,m,1,0.552395,,,,,,,,0.552395,1,,,,,,98,WORD,"ID",50,belong,BELONG,m,,,,,,-0.457838542,0.003177083,0,0,0,,0,336,336,97,1,
,,,,,,,,,,,,,,,,,,5ee561897247c02ad544c299,2020-08-10_11h47.16.290,lexical_decision_task_MP,2020.1.3,MacIntel,60,z,1,0.540035,,,,,,,,0.540035,1,,,,,,287,NW,"ID",33,nymbel,NYMBEL,z,,,,,,-0.457838542,0.003177083,0,0,0,,0,337,337,286,1,
,,,,,,,,,,,,,,,,,,5ee561897247c02ad544c299,2020-08-10_11h47.16.290,lexical_decision_task_MP,2020.1.3,MacIntel,60,m,1,0.58076,,,,,,,,0.58076,1,,,,,,26,WORD,"ID",33,sprint,SPRINT,m,,,,,,-0.457838542,0.003177083,0,0,0,,0,338,338,25,1,
,,,,,,,,,,,,,,,,,,5ee561897247c02ad544c299,2020-08-10_11h47.16.290,lexical_decision_task_MP,2020.1.3,MacIntel,60,z,1,0.59867,,,,,,,,0.59867,1,,,,,,391,NW,UN,33,rouncy,THELDY,z,,,,,,-0.457838542,0.003177083,0,0,0,,0,339,339,390,1,
,,,,,,,,,,,,,,,,,,5ee561897247c02ad544c299,2020-08-10_11h47.16.290,lexical_decision_task_MP,2020.1.3,MacIntel,60,z,1,0.632255,,,,,,,,0.632255,1,,,,,,347,NW,"ID",50,kerift,KERIFT,z,,,,,,-0.457838542,0.003177083,0,0,0,,0,340,340,346,1,
,,,,,,,,,,,,,,,,,,5ee561897247c02ad544c299,2020-08-10_11h47.16.290,lexical_decision_task_MP,2020.1.3,MacIntel,60,z,1,0.550855,,,,,,,,0.550855,1,,,,,,255,NW,"ID",33,apight,APIGHT,z,,,,,,-0.457838542,0.003177083,0,0,0,,0,341,341,254,1,
,,,,,,,,,,,,,,,,,,5ee561897247c02ad544c299,2020-08-10_11h47.16.290,lexical_decision_task_MP,2020.1.3,MacIntel,60,z,1,0.48184,,,,,,,,0.48184,1,,,,,,394,NW,UN,33,colury,SPAQUX,z,,,,,,-0.457838542,0.003177083,0,0,0,,0,342,342,393,1,
,,,,,,,,,,,,,,,,,,5ee561897247c02ad544c299,2020-08-10_11h47.16.290,lexical_decision_task_MP,2020.1.3,MacIntel,60,z,1,0.515355,,,,,,,,0.515355,1,,,,,,244,NW,"ID",33,eatric,EATRIC,z,,,,,,-0.457838542,0.003177083,0,0,0,,0,343,343,243,1,
,,,,,,,,,,,,,,,,,,5ee561897247c02ad544c299,2020-08-10_11h47.16.290,lexical_decision_task_MP,2020.1.3,MacIntel,60,m,1,0.648675,,,,,,,,0.648675,1,,,,,,51,WORD,"ID",33,hungry,HUNGRY,m,,,,,,-0.457838542,0.003177083,0,0,0,,0,344,344,50,1,
,,,,,,,,,,,,,,,,,,5ee561897247c02ad544c299,2020-08-10_11h47.16.290,lexical_decision_task_MP,2020.1.3,MacIntel,60,z,1,0.73954,,,,,,,,0.73954,1,,,,,,305,NW,"ID",50,forgle,FORGLE,z,,,,,,-0.457838542,0.003177083,0,0,0,,0,345,345,304,1,
,,,,,,,,,,,,,,,,,,5ee561897247c02ad544c299,2020-08-10_11h47.16.290,lexical_decision_task_MP,2020.1.3,MacIntel,60,m,1,0.548905,,,,,,,,0.548905,1,,,,,,162,WORD,UN,33,string,CANDLE,m,,,,,,-0.457838542,0.003177083,0,0,0,,0,346,346,161,1,
,,,,,,,,,,,,,,,,,,5ee561897247c02ad544c299,2020-08-10_11h47.16.290,lexical_decision_task_MP,2020.1.3,MacIntel,60,m,1,0.84136,,,,,,,,0.84136,1,,,,,,114,WORD,"ID",50,placid,PLACID,m,,,,,,-0.457838542,0.003177083,0,0,0,,0,347,347,113,1,
,,,,,,,,,,,,,,,,,,5ee561897247c02ad544c299,2020-08-10_11h47.16.290,lexical_decision_task_MP,2020.1.3,MacIntel,60,m,1,0.54859,,,,,,,,0.54859,1,,,,,,237,WORD,UN,50,seldom,POSTER,m,,,,,,-0.457838542,0.003177083,0,0,0,,0,348,348,236,1,
,,,,,,,,,,,,,,,,,,5ee561897247c02ad544c299,2020-08-10_11h47.16.290,lexical_decision_task_MP,2020.1.3,MacIntel,60,m,1,0.69977,,,,,,,,0.69977,1,,,,,,137,WORD,UN,33,melody,FINGER,m,,,,,,-0.457838542,0.003177083,0,0,0,,0,349,349,136,1,
,,,,,,,,,,,,,,,,,,5ee561897247c02ad544c299,2020-08-10_11h47.16.290,lexical_decision_task_MP,2020.1.3,MacIntel,60,z,1,0.985255,,,,,,,,0.985255,1,,,,,,339,NW,"ID",50,fachow,FACHOW,z,,,,,,-0.457838542,0.003177083,0,0,0,,0,350,350,338,1,
,,,,,,,,,,,,,,,,,,5ee561897247c02ad544c299,2020-08-10_11h47.16.290,lexical_decision_task_MP,2020.1.3,MacIntel,60,m,1,0.65591,,,,,,,,0.65591,1,,,,,,72,WORD,"ID",50,bright,BRIGHT,m,,,,,,-0.457838542,0.003177083,0,0,0,,0,351,351,71,1,
,,,,,,,,,,,,,,,,,,5ee561897247c02ad544c299,2020-08-10_11h47.16.290,lexical_decision_task_MP,2020.1.3,MacIntel,60,z,1,0.640545,,,,,,,,0.640545,1,,,,,,325,NW,"ID",50,thruse,THRUSE,z,,,,,,-0.457838542,0.003177083,0,0,0,,0,352,352,324,1,
,,,,,,,,,,,,,,,,,,5ee561897247c02ad544c299,2020-08-10_11h47.16.290,lexical_decision_task_MP,2020.1.3,MacIntel,60,m,1,0.600285,,,,,,,,0.600285,1,,,,,,10,WORD,"ID",33,ethnic,ETHNIC,m,,,,,,-0.457838542,0.003177083,0,0,0,,0,353,353,9,1,
,,,,,,,,,,,,,,,,,,5ee561897247c02ad544c299,2020-08-10_11h47.16.290,lexical_decision_task_MP,2020.1.3,MacIntel,60,z,1,0.635565,,,,,,,,0.635565,1,,,,,,358,NW,"ID",50,fleack,FLEACK,z,,,,,,-0.457838542,0.003177083,0,0,0,,0,354,354,357,1,
,,,,,,,,,,,,,,,,,,5ee561897247c02ad544c299,2020-08-10_11h47.16.290,lexical_decision_task_MP,2020.1.3,MacIntel,60,m,1,0.62248,,,,,,,,0.62248,1,,,,,,231,WORD,UN,50,mother,EXPORT,m,,,,,,-0.457838542,0.003177083,0,0,0,,0,355,355,230,1,
,,,,,,,,,,,,,,,,,,5ee561897247c02ad544c299,2020-08-10_11h47.16.290,lexical_decision_task_MP,2020.1.3,MacIntel,60,z,1,0.78694,,,,,,,,0.78694,1,,,,,,352,NW,"ID",50,tringe,TRINGE,z,,,,,,-0.457838542,0.003177083,0,0,0,,0,356,356,351,1,
,,,,,,,,,,,,,,,,,,5ee561897247c02ad544c299,2020-08-10_11h47.16.290,lexical_decision_task_MP,2020.1.3,MacIntel,60,z,1,0.891465,,,,,,,,0.891465,1,,,,,,313,NW,"ID",50,paurse,PAURSE,z,,,,,,-0.457838542,0.003177083,0,0,0,,0,357,357,312,1,
,,,,,,,,,,,,,,,,,,5ee561897247c02ad544c299,2020-08-10_11h47.16.290,lexical_decision_task_MP,2020.1.3,MacIntel,60,z,1,0.650865,,,,,,,,0.650865,1,,,,,,327,NW,"ID",50,plenac,PLENAC,z,,,,,,-0.457838542,0.003177083,0,0,0,,0,358,358,326,1,
,,,,,,,,,,,,,,,,,,5ee561897247c02ad544c299,2020-08-10_11h47.16.290,lexical_decision_task_MP,2020.1.3,MacIntel,60,z,1,0.635285,,,,,,,,0.635285,1,,,,,,463,NW,UN,50,bafent,KISPEL,z,,,,,,-0.457838542,0.003177083,0,0,0,,0,359,359,462,1,
,,,,,,,,,,,,,,,,,,5ee561897247c02ad544c299,2020-08-10_11h47.16.290,lexical_decision_task_MP,2020.1.3,MacIntel,60,m,1,0.657975,,,,,,,,0.657975,1,,,,,,85,WORD,"ID",50,sprawl,SPRAWL,m,,,,,,-0.457838542,0.003177083,0,0,0,,0,360,360,84,1,
,,,,,,,,,,,,,,,,,,5ee561897247c02ad544c299,2020-08-10_11h47.16.290,lexical_decision_task_MP,2020.1.3,MacIntel,60,m,1,0.518175,,,,,,,,0.518175,1,,,,,,104,WORD,"ID",50,studio,STUDIO,m,,,,,,-0.457838542,0.003177083,0,0,0,,0,361,361,103,1,
,,,,,,,,,,,,,,,,,,5ee561897247c02ad544c299,2020-08-10_11h47.16.290,lexical_decision_task_MP,2020.1.3,MacIntel,60,m,1,0.63823,,,,,,,,0.63823,1,,,,,,74,WORD,"ID",50,plaque,PLAQUE,m,,,,,,-0.457838542,0.003177083,0,0,0,space,0,362,362,73,1,8.668985
,,,,,,,,,,,,,,,,,,5ee561897247c02ad544c299,2020-08-10_11h47.16.290,lexical_decision_task_MP,2020.1.3,MacIntel,60,z,1,0.535785,,,,,,,,0.535785,1,,,,,,437,NW,UN,50,baitch,SNAPEL,z,,,,,,-0.457838542,0.003177083,0,0,0,,0,363,363,436,1,
,,,,,,,,,,,,,,,,,,5ee561897247c02ad544c299,2020-08-10_11h47.16.290,lexical_decision_task_MP,2020.1.3,MacIntel,60,z,1,0.81994,,,,,,,,0.81994,1,,,,,,257,NW,"ID",33,veniod,VENIOD,z,,,,,,-0.457838542,0.003177083,0,0,0,,0,364,364,256,1,
,,,,,,,,,,,,,,,,,,5ee561897247c02ad544c299,2020-08-10_11h47.16.290,lexical_decision_task_MP,2020.1.3,MacIntel,60,m,1,0.651375,,,,,,,,0.651375,1,,,,,,4,WORD,"ID",33,trench,TRENCH,m,,,,,,-0.457838542,0.003177083,0,0,0,,0,365,365,3,1,
,,,,,,,,,,,,,,,,,,5ee561897247c02ad544c299,2020-08-10_11h47.16.290,lexical_decision_task_MP,2020.1.3,MacIntel,60,m,1,0.536825,,,,,,,,0.536825,1,,,,,,88,WORD,"ID",50,hunger,HUNGER,m,,,,,,-0.457838542,0.003177083,0,0,0,,0,366,366,87,1,
,,,,,,,,,,,,,,,,,,5ee561897247c02ad544c299,2020-08-10_11h47.16.290,lexical_decision_task_MP,2020.1.3,MacIntel,60,m,1,0.587545,,,,,,,,0.587545,1,,,,,,31,WORD,"ID",33,weapon,WEAPON,m,,,,,,-0.457838542,0.003177083,0,0,0,,0,367,367,30,1,
,,,,,,,,,,,,,,,,,,5ee561897247c02ad544c299,2020-08-10_11h47.16.290,lexical_decision_task_MP,2020.1.3,MacIntel,60,m,1,0.581625,,,,,,,,0.581625,1,,,,,,178,WORD,UN,33,mildew,INFORM,m,,,,,,-0.457838542,0.003177083,0,0,0,,0,368,368,177,1,
,,,,,,,,,,,,,,,,,,5ee561897247c02ad544c299,2020-08-10_11h47.16.290,lexical_decision_task_MP,2020.1.3,MacIntel,60,m,1,0.46932,,,,,,,,0.46932,1,,,,,,63,WORD,"ID",50,launch,LAUNCH,m,,,,,,-0.457838542,0.003177083,0,0,0,,0,369,369,62,1,
,,,,,,,,,,,,,,,,,,5ee561897247c02ad544c299,2020-08-10_11h47.16.290,lexical_decision_task_MP,2020.1.3,MacIntel,60,m,1,0.48802,,,,,,,,0.48802,1,,,,,,129,WORD,UN,33,stupid,MARVEL,m,,,,,,-0.457838542,0.003177083,0,0,0,,0,370,370,128,1,
,,,,,,,,,,,,,,,,,,5ee561897247c02ad544c299,2020-08-10_11h47.16.290,lexical_decision_task_MP,2020.1.3,MacIntel,60,z,1,0.52683,,,,,,,,0.52683,1,,,,,,464,NW,UN,50,whivex,CHAITE,z,,,,,,-0.457838542,0.003177083,0,0,0,,0,371,371,463,1,
,,,,,,,,,,,,,,,,,,5ee561897247c02ad544c299,2020-08-10_11h47.16.290,lexical_decision_task_MP,2020.1.3,MacIntel,60,m,1,0.802445,,,,,,,,0.802445,1,,,,,,158,WORD,UN,33,detail,ISLAND,m,,,,,,-0.457838542,0.003177083,0,0,0,,0,372,372,157,1,
,,,,,,,,,,,,,,,,,,5ee561897247c02ad544c299,2020-08-10_11h47.16.290,lexical_decision_task_MP,2020.1.3,MacIntel,60,z,1,0.54697,,,,,,,,0.54697,1,,,,,,406,NW,UN,33,suiver,NOUPLY,z,,,,,,-0.457838542,0.003177083,0,0,0,,0,373,373,405,1,
,,,,,,,,,,,,,,,,,,5ee561897247c02ad544c299,2020-08-10_11h47.16.290,lexical_decision_task_MP,2020.1.3,MacIntel,60,m,1,0.536945,,,,,,,,0.536945,1,,,,,,212,WORD,UN,50,squeal,VERIFY,m,,,,,,-0.457838542,0.003177083,0,0,0,,0,374,374,211,1,
,,,,,,,,,,,,,,,,,,5ee561897247c02ad544c299,2020-08-10_11h47.16.290,lexical_decision_task_MP,2020.1.3,MacIntel,60,z,1,0.567795,,,,,,,,0.567795,1,,,,,,395,NW,UN,33,flengy,COLURY,z,,,,,,-0.457838542,0.003177083,0,0,0,,0,375,375,394,1,
,,,,,,,,,,,,,,,,,,5ee561897247c02ad544c299,2020-08-10_11h47.16.290,lexical_decision_task_MP,2020.1.3,MacIntel,60,z,1,0.601435,,,,,,,,0.601435,1,,,,,,421,NW,UN,50,alcoud,KNISMA,z,,,,,,-0.457838542,0.003177083,0,0,0,,0,376,376,420,1,
,,,,,,,,,,,,,,,,,,5ee561897247c02ad544c299,2020-08-10_11h47.16.290,lexical_decision_task_MP,2020.1.3,MacIntel,60,z,1,0.96496,,,,,,,,0.96496,1,,,,,,413,NW,UN,33,serbol,EQUATS,z,,,,,,-0.457838542,0.003177083,0,0,0,,0,377,377,412,1,
,,,,,,,,,,,,,,,,,,5ee561897247c02ad544c299,2020-08-10_11h47.16.290,lexical_decision_task_MP,2020.1.3,MacIntel,60,z,1,0.57111,,,,,,,,0.57111,1,,,,,,326,NW,"ID",50,iguade,IGUADE,z,,,,,,-0.457838542,0.003177083,0,0,0,,0,378,378,325,1,
,,,,,,,,,,,,,,,,,,5ee561897247c02ad544c299,2020-08-10_11h47.16.290,lexical_decision_task_MP,2020.1.3,MacIntel,60,m,1,0.553515,,,,,,,,0.553515,1,,,,,,77,WORD,"ID",50,racket,RACKET,m,,,,,,-0.457838542,0.003177083,0,0,0,,0,379,379,76,1,
,,,,,,,,,,,,,,,,,,5ee561897247c02ad544c299,2020-08-10_11h47.16.290,lexical_decision_task_MP,2020.1.3,MacIntel,60,m,1,0.5367,,,,,,,,0.5367,1,,,,,,236,WORD,UN,50,poster,PIRATE,m,,,,,,-0.457838542,0.003177083,0,0,0,,0,380,380,235,1,
,,,,,,,,,,,,,,,,,,5ee561897247c02ad544c299,2020-08-10_11h47.16.290,lexical_decision_task_MP,2020.1.3,MacIntel,60,m,1,0.54943,,,,,,,,0.54943,1,,,,,,39,WORD,"ID",33,insect,INSECT,m,,,,,,-0.457838542,0.003177083,0,0,0,,0,381,381,38,1,
,,,,,,,,,,,,,,,,,,5ee561897247c02ad544c299,2020-08-10_11h47.16.290,lexical_decision_task_MP,2020.1.3,MacIntel,60,z,1,0.706305,,,,,,,,0.706305,1,,,,,,291,NW,"ID",33,pretch,PRETCH,z,,,,,,-0.457838542,0.003177083,0,0,0,,0,382,382,290,1,
,,,,,,,,,,,,,,,,,,5ee561897247c02ad544c299,2020-08-10_11h47.16.290,lexical_decision_task_MP,2020.1.3,MacIntel,60,m,1,0.60103,,,,,,,,0.60103,1,,,,,,155,WORD,UN,33,cradle,LIZARD,m,,,,,,-0.457838542,0.003177083,0,0,0,,0,383,383,154,1,
,,,,,,,,,,,,,,,,,,5ee561897247c02ad544c299,2020-08-10_11h47.16.290,lexical_decision_task_MP,2020.1.3,MacIntel,60,m,1,0.487215,,,,,,,,0.487215,1,,,,,,28,WORD,"ID",33,comedy,COMEDY,m,,,,,,-0.457838542,0.003177083,0,0,0,,0,384,384,27,1,
,,,,,,,,,,,,,,,,,,5ee561897247c02ad544c299,2020-08-10_11h47.16.290,lexical_decision_task_MP,2020.1.3,MacIntel,60,m,1,0.619265,,,,,,,,0.619265,1,,,,,,217,WORD,UN,50,shrink,LIQUOR,m,,,,,,-0.457838542,0.003177083,0,0,0,,0,385,385,216,1,
,,,,,,,,,,,,,,,,,,5ee561897247c02ad544c299,2020-08-10_11h47.16.290,lexical_decision_task_MP,2020.1.3,MacIntel,60,z,1,0.6319,,,,,,,,0.6319,1,,,,,,267,NW,"ID",33,pasink,PASINK,z,,,,,,-0.457838542,0.003177083,0,0,0,,0,386,386,266,1,
,,,,,,,,,,,,,,,,,,5ee561897247c02ad544c299,2020-08-10_11h47.16.290,lexical_decision_task_MP,2020.1.3,MacIntel,60,z,1,0.64868,,,,,,,,0.64868,1,,,,,,264,NW,"ID",33,vackel,VACKEL,z,,,,,,-0.457838542,0.003177083,0,0,0,,0,387,387,263,1,
,,,,,,,,,,,,,,,,,,5ee561897247c02ad544c299,2020-08-10_11h47.16.290,lexical_decision_task_MP,2020.1.3,MacIntel,60,m,1,0.58404,,,,,,,,0.58404,1,,,,,,29,WORD,"ID",33,sketch,SKETCH,m,,,,,,-0.457838542,0.003177083,0,0,0,,0,388,388,28,1,
,,,,,,,,,,,,,,,,,,5ee561897247c02ad544c299,2020-08-10_11h47.16.290,lexical_decision_task_MP,2020.1.3,MacIntel,60,z,1,0.61014,,,,,,,,0.61014,1,,,,,,445,NW,UN,50,runamo,MINKEL,z,,,,,,-0.457838542,0.003177083,0,0,0,,0,389,389,444,1,
,,,,,,,,,,,,,,,,,,5ee561897247c02ad544c299,2020-08-10_11h47.16.290,lexical_decision_task_MP,2020.1.3,MacIntel,60,m,1,0.650245,,,,,,,,0.650245,1,,,,,,232,WORD,UN,50,nature,INJECT,m,,,,,,-0.457838542,0.003177083,0,0,0,,0,390,390,231,1,
,,,,,,,,,,,,,,,,,,5ee561897247c02ad544c299,2020-08-10_11h47.16.290,lexical_decision_task_MP,2020.1.3,MacIntel,60,z,1,0.704075,,,,,,,,0.704075,1,,,,,,331,NW,"ID",50,gilfew,GILFEW,z,,,,,,-0.457838542,0.003177083,0,0,0,,0,391,391,330,1,
,,,,,,,,,,,,,,,,,,5ee561897247c02ad544c299,2020-08-10_11h47.16.290,lexical_decision_task_MP,2020.1.3,MacIntel,60,m,1,0.5513,,,,,,,,0.5513,1,,,,,,228,WORD,UN,50,inject,MASTER,m,,,,,,-0.457838542,0.003177083,0,0,0,,0,392,392,227,1,
,,,,,,,,,,,,,,,,,,5ee561897247c02ad544c299,2020-08-10_11h47.16.290,lexical_decision_task_MP,2020.1.3,MacIntel,60,z,1,0.623295,,,,,,,,0.623295,1,,,,,,338,NW,"ID",50,wreash,WREASH,z,,,,,,-0.457838542,0.003177083,0,0,0,,0,393,393,337,1,
,,,,,,,,,,,,,,,,,,5ee561897247c02ad544c299,2020-08-10_11h47.16.290,lexical_decision_task_MP,2020.1.3,MacIntel,60,z,1,0.55733,,,,,,,,0.55733,1,,,,,,268,NW,"ID",33,packes,PACKES,z,,,,,,-0.457838542,0.003177083,0,0,0,,0,394,394,267,1,
,,,,,,,,,,,,,,,,,,5ee561897247c02ad544c299,2020-08-10_11h47.16.290,lexical_decision_task_MP,2020.1.3,MacIntel,60,m,1,0.61535,,,,,,,,0.61535,1,,,,,,168,WORD,UN,33,genius,ANSWER,m,,,,,,-0.457838542,0.003177083,0,0,0,,0,395,395,167,1,
,,,,,,,,,,,,,,,,,,5ee561897247c02ad544c299,2020-08-10_11h47.16.290,lexical_decision_task_MP,2020.1.3,MacIntel,60,z,1,0.529735,,,,,,,,0.529735,1,,,,,,317,NW,"ID",50,worbal,WORBAL,z,,,,,,-0.457838542,0.003177083,0,0,0,,0,396,396,316,1,
,,,,,,,,,,,,,,,,,,5ee561897247c02ad544c299,2020-08-10_11h47.16.290,lexical_decision_task_MP,2020.1.3,MacIntel,60,m,1,0.64197,,,,,,,,0.64197,1,,,,,,211,WORD,UN,50,verify,INFECT,m,,,,,,-0.457838542,0.003177083,0,0,0,,0,397,397,210,1,
,,,,,,,,,,,,,,,,,,5ee561897247c02ad544c299,2020-08-10_11h47.16.290,lexical_decision_task_MP,2020.1.3,MacIntel,60,m,1,0.636095,,,,,,,,0.636095,1,,,,,,169,WORD,UN,33,pounce,GENIUS,m,,,,,,-0.457838542,0.003177083,0,0,0,,0,398,398,168,1,
