counterbalancing_condition,instr_done_keyboard.keys,instr_done_touch.x,instr_done_touch.y,instr_done_touch.leftButton,instr_done_touch.midButton,instr_done_touch.rightButton,instr_done_touch.clicked_name,instruction_pages.thisRepN,instruction_pages.thisTrialN,instruction_pages.thisN,instruction_pages.thisIndex,instruction_pages.ran,pageN,phase,instruct_text,has_image,instruct_image,participant,date,expName,psychopyVersion,OS,frameRate,response.keys,response.corr,touch_resp.x,touch_resp.y,touch_resp.leftButton,touch_resp.midButton,touch_resp.rightButton,touch_resp.time,touch_resp.clicked_name,rt,corr,practice_trials.thisRepN,practice_trials.thisTrialN,practice_trials.thisN,practice_trials.thisIndex,practice_trials.ran,TrialID,StimulusType,Condition,PrimeDuration,Prime,Target,corrAns,end_of_practice_trials_pages.thisRepN,end_of_practice_trials_pages.thisTrialN,end_of_practice_trials_pages.thisN,end_of_practice_trials_pages.thisIndex,end_of_practice_trials_pages.ran,break_done_touch.x,break_done_touch.y,break_done_touch.leftButton,break_done_touch.midButton,break_done_touch.rightButton,break_done_keyboard.keys,trials.thisRepN,trials.thisTrialN,trials.thisN,trials.thisIndex,trials.ran,break_done_touch.clicked_name
1,,0.096393907,-0.413175049,1,0,0,instr_done_button,0,0,0,0,1,1,instructions,"INSTRUCTIONS
At the start of each trial, look at the hash marks (######) in the center of the screen. After a moment, a string of letters will appear. Your task is to indicate if the letter string forms a word or not (i.e., if it is a nonword). For example, AUTHOR is a word while AUTHON is a nonword.

Press the space bar or touch the button below to continue.",0,,5eef5cc0270c550c05faf0fe,2020-08-10_13h48.35.322,lexical_decision_task_MP,2020.1.3,Linux aarch64,60,,,,,,,,,,,,,,,,,,,,,,,,,,,,,,,,,,,,,,,,
,,0.096393907,-0.413175049,1,0,0,instr_done_button,0,1,1,1,1,2,instructions,"If your device has a keyboard, press the 'Z' key for nonwords and the 'M' key for words.





Press the space bar or touch the button below to continue.",1,keyboard-example.gif,5eef5cc0270c550c05faf0fe,2020-08-10_13h48.35.322,lexical_decision_task_MP,2020.1.3,Linux aarch64,60,,,,,,,,,,,,,,,,,,,,,,,,,,,,,,,,,,,,,,,,
,,0.029819709,-0.378475749,1,0,0,instr_done_button,0,2,2,2,1,3,instructions,"If you are using a touchscreen only device, use the buttons on the screen. Do not use the mouse.





Press the space bar or touch the button below to continue.",1,touchscreen-example.gif,5eef5cc0270c550c05faf0fe,2020-08-10_13h48.35.322,lexical_decision_task_MP,2020.1.3,Linux aarch64,60,,,,,,,,,,,,,,,,,,,,,,,,,,,,,,,,,,,,,,,,
,,0.033980611,-0.407623155,1,0,0,instr_done_button,0,3,3,3,1,4,instructions,"It is very important that you respond as quickly and accurately as possible, as each letter string will only be on the screen for two seconds. If you do not respond within this time, the message 'Too slow!' will be displayed and the experiment will progress to the next letter string. The first 20 trials will be practice trials and you will receive feedback on your answers. 

Press the space bar or touch the button below to start the practice trials.",0,,5eef5cc0270c550c05faf0fe,2020-08-10_13h48.35.322,lexical_decision_task_MP,2020.1.3,Linux aarch64,60,,,,,,,,,,,,,,,,,,,,,,,,,,,,,,,,,,,,,,,,
,,,,,,,,,,,,,,,,,,5eef5cc0270c550c05faf0fe,2020-08-10_13h48.35.322,lexical_decision_task_MP,2020.1.3,Linux aarch64,60,,0,0.354368896,-0.288257243,1,0,0,0.5644,button_right,0.5644,0,0,0,0,12,1,1013,NW,UN,33,adveil,SPRINY,z,,,,,,,,,,,,,,,,,
,,,,,,,,,,,,,,,,,,5eef5cc0270c550c05faf0fe,2020-08-10_13h48.35.322,lexical_decision_task_MP,2020.1.3,Linux aarch64,60,,0,-0.309986131,-0.300748969,1,0,0,0.9828,button_left,0.9828,1,0,1,1,15,1,1016,NW,UN,50,mushed,WHAISE,z,,,,,,,,,,,,,,,,,
,,,,,,,,,,,,,,,,,,5eef5cc0270c550c05faf0fe,2020-08-10_13h48.35.322,lexical_decision_task_MP,2020.1.3,Linux aarch64,60,,0,-0.309986131,-0.300748969,1,0,0,0.7479,button_left,0.7479,0,0,2,2,0,1,1001,WORD,"ID",33,utopia,UTOPIA,m,,,,,,,,,,,,,,,,,
,,,,,,,,,,,,,,,,,,5eef5cc0270c550c05faf0fe,2020-08-10_13h48.35.322,lexical_decision_task_MP,2020.1.3,Linux aarch64,60,,0,0.343273248,-0.33406033,1,0,0,0.5807,button_right,0.5807,1,0,3,3,4,1,1005,WORD,UN,33,abound,SQUEAK,m,,,,,,,,,,,,,,,,,
,,,,,,,,,,,,,,,,,,5eef5cc0270c550c05faf0fe,2020-08-10_13h48.35.322,lexical_decision_task_MP,2020.1.3,Linux aarch64,60,,0,-0.329403602,-0.304912923,1,0,0,0.8309,button_left,0.8309,1,0,4,4,11,1,1012,NW,"ID",50,rashet,RASHET,z,,,,,,,,,,,,,,,,,
,,,,,,,,,,,,,,,,,,5eef5cc0270c550c05faf0fe,2020-08-10_13h48.35.322,lexical_decision_task_MP,2020.1.3,Linux aarch64,60,,0,-0.329403602,-0.300748969,1,0,0,1.2811,button_left,1.2811,1,0,5,5,9,1,1010,NW,"ID",33,fariny,FARINY,z,,,,,,,,,,,,,,,,,
,,,,,,,,,,,,,,,,,,5eef5cc0270c550c05faf0fe,2020-08-10_13h48.35.322,lexical_decision_task_MP,2020.1.3,Linux aarch64,60,,0,0.334951443,-0.321568604,1,0,0,0.8139,button_right,0.8139,0,0,6,6,10,1,1011,NW,"ID",50,inlade,INLADE,z,,,,,,,,,,,,,,,,,
,,,,,,,,,,,,,,,,,,5eef5cc0270c550c05faf0fe,2020-08-10_13h48.35.322,lexical_decision_task_MP,2020.1.3,Linux aarch64,60,,0,-0.326629673,-0.282705349,1,0,0,0.9307,button_left,0.9307,1,0,7,7,14,1,1015,NW,UN,50,miaber,THRALE,z,,,,,,,,,,,,,,,,,
,,,,,,,,,,,,,,,,,,5eef5cc0270c550c05faf0fe,2020-08-10_13h48.35.322,lexical_decision_task_MP,2020.1.3,Linux aarch64,60,,0,0.332177667,-0.320180664,1,0,0,0.7475,button_right,0.7475,1,0,8,8,6,1,1007,WORD,UN,50,tropic,ZOMBIE,m,,,,,,,,,,,,,,,,,
,,,,,,,,,,,,,,,,,,5eef5cc0270c550c05faf0fe,2020-08-10_13h48.35.322,lexical_decision_task_MP,2020.1.3,Linux aarch64,60,,0,0.332177667,-0.320180664,1,0,0,0.8814,button_right,0.8814,1,0,9,9,2,1,1003,WORD,"ID",50,almond,ALMOND,m,,,,,,,,,,,,,,,,,
,,,,,,,,,,,,,,,,,,5eef5cc0270c550c05faf0fe,2020-08-10_13h48.35.322,lexical_decision_task_MP,2020.1.3,Linux aarch64,60,,0,0.355755954,-0.320180664,1,0,0,0.568,button_right,0.568,1,0,10,10,5,1,1006,WORD,UN,33,frenzy,OBTAIN,m,,,,,,,,,,,,,,,,,
,,,,,,,,,,,,,,,,,,5eef5cc0270c550c05faf0fe,2020-08-10_13h48.35.322,lexical_decision_task_MP,2020.1.3,Linux aarch64,60,,0,0.354368896,-0.320180664,1,0,0,0.5309,button_right,0.5309,1,0,11,11,1,1,1002,WORD,"ID",33,adjust,ADJUST,m,,,,,,,,,,,,,,,,,
,,,,,,,,,,,,,,,,,,5eef5cc0270c550c05faf0fe,2020-08-10_13h48.35.322,lexical_decision_task_MP,2020.1.3,Linux aarch64,60,,0,0.329403619,-0.327120497,1,0,0,0.5319,button_right,0.5319,0,0,12,12,13,1,1014,NW,UN,33,winfer,ROUPET,z,,,,,,,,,,,,,,,,,
,,,,,,,,,,,,,,,,,,5eef5cc0270c550c05faf0fe,2020-08-10_13h48.35.322,lexical_decision_task_MP,2020.1.3,Linux aarch64,60,,0,0.321081882,-0.324344618,1,0,0,0.848,button_right,0.848,1,0,13,13,7,1,1008,WORD,UN,50,hurdle,VOLUME,m,,,,,,,,,,,,,,,,,
,,,,,,,,,,,,,,,,,,5eef5cc0270c550c05faf0fe,2020-08-10_13h48.35.322,lexical_decision_task_MP,2020.1.3,Linux aarch64,60,,0,0.321081882,-0.324344618,1,0,0,0.6975,button_right,0.6975,1,0,14,14,3,1,1004,WORD,"ID",50,matrix,MATRIX,m,,,,,,,,,,,,,,,,,
,,,,,,,,,,,,,,,,,,5eef5cc0270c550c05faf0fe,2020-08-10_13h48.35.322,lexical_decision_task_MP,2020.1.3,Linux aarch64,60,,0,-0.307212168,-0.26049764,1,0,0,0.8474,button_left,0.8474,1,0,15,15,8,1,1009,NW,"ID",33,aslert,ASLERT,z,,,,,,,,,,,,,,,,,
,,0.119972263,-0.422890761,1,0,0,instr_done_button,,,,,,1,end_of_practice,"You have completed the practice trials. During the experimental trials, you will not receive feedback, but it is very important that you respond as quickly and accurately as possible. 
Before you begin, please ensure that you are in a comfortable and quiet location and will not be disturbed for about 15 minutes, as we cannot use your data if you do not complete all the trials. 
There will be opportunities to take breaks at regular intervals during the experiment. When you are ready to start the experimental trials, please press space or touch the button below.",,,5eef5cc0270c550c05faf0fe,2020-08-10_13h48.35.322,lexical_decision_task_MP,2020.1.3,Linux aarch64,60,,,,,,,,,,,,,,,,,,,,,,,,0,0,0,0,1,,,,,,,,,,,,
,,,,,,,,,,,,,,,,,,5eef5cc0270c550c05faf0fe,2020-08-10_13h48.35.322,lexical_decision_task_MP,2020.1.3,Linux aarch64,60,,0,0.343273248,-0.259109701,1,0,0,0.4644,button_right,0.4644,1,,,,,,82,WORD,"ID",50,stigma,STIGMA,m,,,,,,0.343273248,-0.259109701,1,0,0,,0,0,0,81,1,
,,,,,,,,,,,,,,,,,,5eef5cc0270c550c05faf0fe,2020-08-10_13h48.35.322,lexical_decision_task_MP,2020.1.3,Linux aarch64,60,,0,0.314147,-0.293809136,1,0,0,0.448,button_right,0.448,1,,,,,,15,WORD,"ID",33,amount,AMOUNT,m,,,,,,0.314147,-0.293809136,1,0,0,,0,1,1,14,1,
,,,,,,,,,,,,,,,,,,5eef5cc0270c550c05faf0fe,2020-08-10_13h48.35.322,lexical_decision_task_MP,2020.1.3,Linux aarch64,60,,0,0.341886325,-0.342388238,1,0,0,0.2813,button_right,0.2813,0,,,,,,443,NW,UN,50,jaunce,DORSEX,z,,,,,,0.341886325,-0.342388238,1,0,0,,0,2,2,442,1,
,,,,,,,,,,,,,,,,,,5eef5cc0270c550c05faf0fe,2020-08-10_13h48.35.322,lexical_decision_task_MP,2020.1.3,Linux aarch64,60,,0,0.339112345,-0.342388238,1,0,0,0.5479,button_right,0.5479,1,,,,,,51,WORD,"ID",33,hungry,HUNGRY,m,,,,,,0.339112345,-0.342388238,1,0,0,,0,3,3,50,1,
,,,,,,,,,,,,,,,,,,5eef5cc0270c550c05faf0fe,2020-08-10_13h48.35.322,lexical_decision_task_MP,2020.1.3,Linux aarch64,60,,0,-0.315533973,-0.245230035,1,0,0,0.599,button_left,0.599,1,,,,,,422,NW,UN,50,streld,ALCOUD,z,,,,,,-0.315533973,-0.245230035,1,0,0,,0,4,4,421,1,
,,,,,,,,,,,,,,,,,,5eef5cc0270c550c05faf0fe,2020-08-10_13h48.35.322,lexical_decision_task_MP,2020.1.3,Linux aarch64,60,,0,0.321081882,-0.324344618,1,0,0,0.5313,button_right,0.5313,1,,,,,,174,WORD,UN,33,fabric,TURKEY,m,,,,,,0.321081882,-0.324344618,1,0,0,,0,5,5,173,1,
,,,,,,,,,,,,,,,,,,5eef5cc0270c550c05faf0fe,2020-08-10_13h48.35.322,lexical_decision_task_MP,2020.1.3,Linux aarch64,60,,0,-0.329403602,-0.26049764,1,0,0,1.1997,button_left,1.1997,1,,,,,,290,NW,"ID",33,splino,SPLINO,z,,,,,,-0.329403602,-0.26049764,1,0,0,,0,6,6,289,1,
,,,,,,,,,,,,,,,,,,5eef5cc0270c550c05faf0fe,2020-08-10_13h48.35.322,lexical_decision_task_MP,2020.1.3,Linux aarch64,60,,0,-0.337725372,-0.263273655,1,0,0,1.0503,button_left,1.0503,1,,,,,,336,NW,"ID",50,ghodus,GHODUS,z,,,,,,-0.337725372,-0.263273655,1,0,0,,0,7,7,335,1,
,,,,,,,,,,,,,,,,,,5eef5cc0270c550c05faf0fe,2020-08-10_13h48.35.322,lexical_decision_task_MP,2020.1.3,Linux aarch64,60,,0,-0.336338416,-0.263273655,1,0,0,0.6479,button_left,0.6479,0,,,,,,48,WORD,"ID",33,walnut,WALNUT,m,,,,,,-0.336338416,-0.263273655,1,0,0,,0,8,8,47,1,
,,,,,,,,,,,,,,,,,,5eef5cc0270c550c05faf0fe,2020-08-10_13h48.35.322,lexical_decision_task_MP,2020.1.3,Linux aarch64,60,,0,0.330790609,-0.335448405,1,0,0,0.6145,button_right,0.6145,1,,,,,,200,WORD,UN,50,admire,BEACON,m,,,,,,0.330790609,-0.335448405,1,0,0,,0,9,9,199,1,
,,,,,,,,,,,,,,,,,,5eef5cc0270c550c05faf0fe,2020-08-10_13h48.35.322,lexical_decision_task_MP,2020.1.3,Linux aarch64,60,,0,0.330790609,-0.335448405,1,0,0,0.6469,button_right,0.6469,1,,,,,,141,WORD,UN,33,spruce,ORPHAN,m,,,,,,0.330790609,-0.335448405,1,0,0,,0,10,10,140,1,
,,,,,,,,,,,,,,,,,,5eef5cc0270c550c05faf0fe,2020-08-10_13h48.35.322,lexical_decision_task_MP,2020.1.3,Linux aarch64,60,,0,0.328016629,-0.33406033,1,0,0,0.6478,button_right,0.6478,1,,,,,,206,WORD,UN,50,wreath,TAILOR,m,,,,,,0.328016629,-0.33406033,1,0,0,,0,11,11,205,1,
,,,,,,,,,,,,,,,,,,5eef5cc0270c550c05faf0fe,2020-08-10_13h48.35.322,lexical_decision_task_MP,2020.1.3,Linux aarch64,60,,0,0.308599175,-0.304912923,1,0,0,0.5737,button_right,0.5737,1,,,,,,26,WORD,"ID",33,sprint,SPRINT,m,,,,,,0.308599175,-0.304912923,1,0,0,,0,12,12,25,1,
,,,,,,,,,,,,,,,,,,5eef5cc0270c550c05faf0fe,2020-08-10_13h48.35.322,lexical_decision_task_MP,2020.1.3,Linux aarch64,60,,0,0.311373155,-0.304912923,1,0,0,0.4983,button_right,0.4983,1,,,,,,72,WORD,"ID",50,bright,BRIGHT,m,,,,,,0.311373155,-0.304912923,1,0,0,,0,13,13,71,1,
,,,,,,,,,,,,,,,,,,5eef5cc0270c550c05faf0fe,2020-08-10_13h48.35.322,lexical_decision_task_MP,2020.1.3,Linux aarch64,60,,0,0.311373155,-0.304912923,1,0,0,0.6133,button_right,0.6133,0,,,,,,253,NW,"ID",33,resait,RESAIT,z,,,,,,0.311373155,-0.304912923,1,0,0,,0,14,14,252,1,
,,,,,,,,,,,,,,,,,,5eef5cc0270c550c05faf0fe,2020-08-10_13h48.35.322,lexical_decision_task_MP,2020.1.3,Linux aarch64,60,,0,0.318307902,-0.329896376,1,0,0,0.5664,button_right,0.5664,0,,,,,,311,NW,"ID",50,sproly,SPROLY,z,,,,,,0.318307902,-0.329896376,1,0,0,,0,15,15,310,1,
,,,,,,,,,,,,,,,,,,5eef5cc0270c550c05faf0fe,2020-08-10_13h48.35.322,lexical_decision_task_MP,2020.1.3,Linux aarch64,60,,0,-0.344660187,-0.268825548,1,0,0,1.3149,button_left,1.3149,1,,,,,,465,NW,UN,50,hocite,WHIVEX,z,,,,,,-0.344660187,-0.268825548,1,0,0,,0,16,16,464,1,
,,,,,,,,,,,,,,,,,,5eef5cc0270c550c05faf0fe,2020-08-10_13h48.35.322,lexical_decision_task_MP,2020.1.3,Linux aarch64,60,,0,0.312760078,-0.336836344,1,0,0,0.5842,button_right,0.5842,1,,,,,,216,WORD,UN,50,liquor,BEHALF,m,,,,,,0.312760078,-0.336836344,1,0,0,,0,17,17,215,1,
,,,,,,,,,,,,,,,,,,5eef5cc0270c550c05faf0fe,2020-08-10_13h48.35.322,lexical_decision_task_MP,2020.1.3,Linux aarch64,60,,0,0.312760078,-0.336836344,1,0,0,0.8426,button_right,0.8426,0,,,,,,330,NW,"ID",50,kensom,KENSOM,z,,,,,,0.312760078,-0.336836344,1,0,0,,0,18,18,329,1,
,,,,,,,,,,,,,,,,,,5eef5cc0270c550c05faf0fe,2020-08-10_13h48.35.322,lexical_decision_task_MP,2020.1.3,Linux aarch64,60,,0,-0.326629673,-0.271601563,1,0,0,1.1333,button_left,1.1333,1,,,,,,292,NW,"ID",33,ablint,ABLINT,z,,,,,,-0.326629673,-0.271601563,1,0,0,,0,19,19,291,1,
,,,,,,,,,,,,,,,,,,5eef5cc0270c550c05faf0fe,2020-08-10_13h48.35.322,lexical_decision_task_MP,2020.1.3,Linux aarch64,60,,0,0.333564521,-0.33267239,1,0,0,0.8012,button_right,0.8012,0,,,,,,382,NW,UN,33,aungre,SARLEY,z,,,,,,0.333564521,-0.33267239,1,0,0,,0,20,20,381,1,
,,,,,,,,,,,,,,,,,,5eef5cc0270c550c05faf0fe,2020-08-10_13h48.35.322,lexical_decision_task_MP,2020.1.3,Linux aarch64,60,,0,0.325242716,-0.33267239,1,0,0,0.7069,button_right,0.7069,0,,,,,,241,NW,"ID",33,smenco,SMENCO,z,,,,,,0.325242716,-0.33267239,1,0,0,,0,21,21,240,1,
,,,,,,,,,,,,,,,,,,5eef5cc0270c550c05faf0fe,2020-08-10_13h48.35.322,lexical_decision_task_MP,2020.1.3,Linux aarch64,60,,0,0.325242716,-0.33267239,1,0,0,1.098,button_right,1.098,1,,,,,,169,WORD,UN,33,pounce,GENIUS,m,,,,,,0.325242716,-0.33267239,1,0,0,,0,22,22,168,1,
,,,,,,,,,,,,,,,,,,5eef5cc0270c550c05faf0fe,2020-08-10_13h48.35.322,lexical_decision_task_MP,2020.1.3,Linux aarch64,60,,0,-0.343273231,-0.272989502,1,0,0,0.9805,button_left,0.9805,1,,,,,,464,NW,UN,50,whivex,CHAITE,z,,,,,,-0.343273231,-0.272989502,1,0,0,,0,23,23,463,1,
,,,,,,,,,,,,,,,,,,5eef5cc0270c550c05faf0fe,2020-08-10_13h48.35.322,lexical_decision_task_MP,2020.1.3,Linux aarch64,60,,0,0.322468804,-0.322956543,1,0,0,0.5149,button_right,0.5149,1,,,,,,105,WORD,"ID",50,number,NUMBER,m,,,,,,0.322468804,-0.322956543,1,0,0,,0,24,24,104,1,
,,,,,,,,,,,,,,,,,,5eef5cc0270c550c05faf0fe,2020-08-10_13h48.35.322,lexical_decision_task_MP,2020.1.3,Linux aarch64,60,,0,0.322468804,-0.322956543,1,0,0,0.7672,button_right,0.7672,1,,,,,,234,WORD,UN,50,lumber,CLUMSY,m,,,,,,0.322468804,-0.322956543,1,0,0,,0,25,25,233,1,
,,,,,,,,,,,,,,,,,,5eef5cc0270c550c05faf0fe,2020-08-10_13h48.35.322,lexical_decision_task_MP,2020.1.3,Linux aarch64,60,,0,0.322468804,-0.322956543,1,0,0,0.4645,button_right,0.4645,1,,,,,,78,WORD,"ID",50,column,COLUMN,m,,,,,,0.322468804,-0.322956543,1,0,0,,0,26,26,77,1,
,,,,,,,,,,,,,,,,,,5eef5cc0270c550c05faf0fe,2020-08-10_13h48.35.322,lexical_decision_task_MP,2020.1.3,Linux aarch64,60,,0,0.328016629,-0.322956543,1,0,0,0.4483,button_right,0.4483,1,,,,,,205,WORD,UN,50,tailor,LOUNGE,m,,,,,,0.328016629,-0.322956543,1,0,0,,0,27,27,204,1,
,,,,,,,,,,,,,,,,,,5eef5cc0270c550c05faf0fe,2020-08-10_13h48.35.322,lexical_decision_task_MP,2020.1.3,Linux aarch64,60,,0,0.332177667,-0.322956543,1,0,0,0.6817,button_right,0.6817,1,,,,,,140,WORD,UN,33,reason,PRINCE,m,,,,,,0.332177667,-0.322956543,1,0,0,,0,28,28,139,1,
,,,,,,,,,,,,,,,,,,5eef5cc0270c550c05faf0fe,2020-08-10_13h48.35.322,lexical_decision_task_MP,2020.1.3,Linux aarch64,60,,0,0.330790609,-0.345164252,1,0,0,0.4307,button_right,0.4307,1,,,,,,145,WORD,UN,33,couple,PARISH,m,,,,,,0.330790609,-0.345164252,1,0,0,,0,29,29,144,1,
,,,,,,,,,,,,,,,,,,5eef5cc0270c550c05faf0fe,2020-08-10_13h48.35.322,lexical_decision_task_MP,2020.1.3,Linux aarch64,60,,0,0.330790609,-0.345164252,1,0,0,0.3482,button_right,0.3482,0,,,,,,448,NW,UN,50,brunge,SADENT,z,,,,,,0.330790609,-0.345164252,1,0,0,,0,30,30,447,1,
,,,,,,,,,,,,,,,,,,5eef5cc0270c550c05faf0fe,2020-08-10_13h48.35.322,lexical_decision_task_MP,2020.1.3,Linux aarch64,60,,0,0.330790609,-0.345164252,1,0,0,0.3481,button_right,0.3481,1,,,,,,67,WORD,"ID",50,policy,POLICY,m,,,,,,0.330790609,-0.345164252,1,0,0,,0,31,31,66,1,
,,,,,,,,,,,,,,,,,,5eef5cc0270c550c05faf0fe,2020-08-10_13h48.35.322,lexical_decision_task_MP,2020.1.3,Linux aarch64,60,,0,-0.333564487,-0.296585015,1,0,0,0.748,button_left,0.748,1,,,,,,429,NW,UN,50,caroey,FUNTLE,z,,,,,,-0.333564487,-0.296585015,1,0,0,,0,32,32,428,1,
,,,,,,,,,,,,,,,,,,5eef5cc0270c550c05faf0fe,2020-08-10_13h48.35.322,lexical_decision_task_MP,2020.1.3,Linux aarch64,60,,0,0.328016629,-0.281317274,1,0,0,0.548,button_right,0.548,0,,,,,,306,NW,"ID",50,sounge,SOUNGE,z,,,,,,0.328016629,-0.281317274,1,0,0,,0,33,33,305,1,
,,,,,,,,,,,,,,,,,,5eef5cc0270c550c05faf0fe,2020-08-10_13h48.35.322,lexical_decision_task_MP,2020.1.3,Linux aarch64,60,,0,0.332177667,-0.313240831,1,0,0,1.3981,button_right,1.3981,0,,,,,,372,NW,UN,33,bigent,RAMILY,z,,,,,,0.332177667,-0.313240831,1,0,0,,0,34,34,371,1,
,,,,,,,,,,,,,,,,,,5eef5cc0270c550c05faf0fe,2020-08-10_13h48.35.322,lexical_decision_task_MP,2020.1.3,Linux aarch64,60,,0,-0.326629673,-0.239678141,1,0,0,0.8313,button_left,0.8313,1,,,,,,441,NW,UN,50,aboune,RASTOE,z,,,,,,-0.326629673,-0.239678141,1,0,0,,0,35,35,440,1,
,,,,,,,,,,,,,,,,,,5eef5cc0270c550c05faf0fe,2020-08-10_13h48.35.322,lexical_decision_task_MP,2020.1.3,Linux aarch64,60,,0,0.346047228,-0.302137044,1,0,0,0.5807,button_right,0.5807,1,,,,,,66,WORD,"ID",50,gospel,GOSPEL,m,,,,,,0.346047228,-0.302137044,1,0,0,,0,36,36,65,1,
,,,,,,,,,,,,,,,,,,5eef5cc0270c550c05faf0fe,2020-08-10_13h48.35.322,lexical_decision_task_MP,2020.1.3,Linux aarch64,60,,0,-0.340499301,-0.274377441,1,0,0,1.4298,button_left,1.4298,1,,,,,,333,NW,"ID",50,catrie,CATRIE,z,,,,,,-0.340499301,-0.274377441,1,0,0,,0,37,37,332,1,
,,,,,,,,,,,,,,,,,,5eef5cc0270c550c05faf0fe,2020-08-10_13h48.35.322,lexical_decision_task_MP,2020.1.3,Linux aarch64,60,,0,0.315534058,-0.314628771,1,0,0,0.6648,button_right,0.6648,0,,,,,,262,NW,"ID",33,quilew,QUILEW,z,,,,,,0.315534058,-0.314628771,1,0,0,,0,38,38,261,1,
,,,,,,,,,,,,,,,,,,5eef5cc0270c550c05faf0fe,2020-08-10_13h48.35.322,lexical_decision_task_MP,2020.1.3,Linux aarch64,60,,0,-0.35436893,-0.284093289,1,0,0,1.5641,button_left,1.5641,1,,,,,,277,NW,"ID",33,petain,PETAIN,z,,,,,,-0.35436893,-0.284093289,1,0,0,,0,39,39,276,1,
,,,,,,,,,,,,,,,,,,5eef5cc0270c550c05faf0fe,2020-08-10_13h48.35.322,lexical_decision_task_MP,2020.1.3,Linux aarch64,60,,0,0.334951443,-0.329896376,1,0,0,0.9659,button_right,0.9659,0,,,,,,266,NW,"ID",33,varmit,VARMIT,z,,,,,,0.334951443,-0.329896376,1,0,0,,0,40,40,265,1,
,,,,,,,,,,,,,,,,,,5eef5cc0270c550c05faf0fe,2020-08-10_13h48.35.322,lexical_decision_task_MP,2020.1.3,Linux aarch64,60,,0,0.334951443,-0.33406033,1,0,0,0.6967,button_right,0.6967,0,,,,,,365,NW,UN,33,toshel,GUAIRT,z,,,,,,0.334951443,-0.33406033,1,0,0,,0,41,41,364,1,
,,,,,,,,,,,,,,,,,,5eef5cc0270c550c05faf0fe,2020-08-10_13h48.35.322,lexical_decision_task_MP,2020.1.3,Linux aarch64,60,,0,0.332177667,-0.342388238,1,0,0,0.6977,button_right,0.6977,1,,,,,,11,WORD,"ID",33,cruise,CRUISE,m,,,,,,0.332177667,-0.342388238,1,0,0,,0,42,42,10,1,
,,,,,,,,,,,,,,,,,,5eef5cc0270c550c05faf0fe,2020-08-10_13h48.35.322,lexical_decision_task_MP,2020.1.3,Linux aarch64,60,,0,0.332177667,-0.342388238,1,0,0,0.5337,button_right,0.5337,0,,,,,,272,NW,"ID",33,damilt,DAMILT,z,,,,,,0.332177667,-0.342388238,1,0,0,,0,43,43,271,1,
,,,,,,,,,,,,,,,,,,5eef5cc0270c550c05faf0fe,2020-08-10_13h48.35.322,lexical_decision_task_MP,2020.1.3,Linux aarch64,60,,0,0.332177667,-0.331284451,1,0,0,0.5659,button_right,0.5659,0,,,,,,468,NW,UN,50,padifs,WICTOR,z,,,,,,0.332177667,-0.331284451,1,0,0,,0,44,44,467,1,
,,,,,,,,,,,,,,,,,,5eef5cc0270c550c05faf0fe,2020-08-10_13h48.35.322,lexical_decision_task_MP,2020.1.3,Linux aarch64,60,,0,0.332177667,-0.331284451,1,0,0,0.5777,button_right,0.5777,1,,,,,,4,WORD,"ID",33,trench,TRENCH,m,,,,,,0.332177667,-0.331284451,1,0,0,,0,45,45,3,1,
,,,,,,,,,,,,,,,,,,5eef5cc0270c550c05faf0fe,2020-08-10_13h48.35.322,lexical_decision_task_MP,2020.1.3,Linux aarch64,60,,0,-0.34604716,-0.26049764,1,0,0,0.7596,button_left,0.7596,1,,,,,,283,NW,"ID",33,veralf,VERALF,z,,,,,,-0.34604716,-0.26049764,1,0,0,,0,46,46,282,1,
,,,,,,,,,,,,,,,,,,5eef5cc0270c550c05faf0fe,2020-08-10_13h48.35.322,lexical_decision_task_MP,2020.1.3,Linux aarch64,60,,0,0.323855862,-0.352104085,1,0,0,0.5805,button_right,0.5805,1,,,,,,127,WORD,UN,33,senior,CASTLE,m,,,,,,0.323855862,-0.352104085,1,0,0,,0,47,47,126,1,
,,,,,,,,,,,,,,,,,,5eef5cc0270c550c05faf0fe,2020-08-10_13h48.35.322,lexical_decision_task_MP,2020.1.3,Linux aarch64,60,,0,0.322468804,-0.328508572,1,0,0,0.6222,button_right,0.6222,0,,,,,,474,NW,UN,50,gorbie,HABLIN,z,,,,,,0.322468804,-0.328508572,1,0,0,,0,48,48,473,1,
,,,,,,,,,,,,,,,,,,5eef5cc0270c550c05faf0fe,2020-08-10_13h48.35.322,lexical_decision_task_MP,2020.1.3,Linux aarch64,60,,0,0.322468804,-0.328508572,1,0,0,0.7525,button_right,0.7525,1,,,,,,18,WORD,"ID",33,humble,HUMBLE,m,,,,,,0.322468804,-0.328508572,1,0,0,,0,49,49,17,1,
,,,,,,,,,,,,,,,,,,5eef5cc0270c550c05faf0fe,2020-08-10_13h48.35.322,lexical_decision_task_MP,2020.1.3,Linux aarch64,60,,0,0.322468804,-0.328508572,1,0,0,0.7725,button_right,0.7725,0,,,,,,421,NW,UN,50,alcoud,KNISMA,z,,,,,,0.322468804,-0.328508572,1,0,0,,0,50,50,420,1,
,,,,,,,,,,,,,,,,,,5eef5cc0270c550c05faf0fe,2020-08-10_13h48.35.322,lexical_decision_task_MP,2020.1.3,Linux aarch64,60,,0,0.322468804,-0.33406033,1,0,0,0.6445,button_right,0.6445,1,,,,,,211,WORD,UN,50,verify,INFECT,m,,,,,,0.322468804,-0.33406033,1,0,0,,0,51,51,210,1,
,,,,,,,,,,,,,,,,,,5eef5cc0270c550c05faf0fe,2020-08-10_13h48.35.322,lexical_decision_task_MP,2020.1.3,Linux aarch64,60,,0,0.322468804,-0.33406033,1,0,0,0.7638,button_right,0.7638,1,,,,,,45,WORD,"ID",33,clergy,CLERGY,m,,,,,,0.322468804,-0.33406033,1,0,0,,0,52,52,44,1,
,,,,,,,,,,,,,,,,,,5eef5cc0270c550c05faf0fe,2020-08-10_13h48.35.322,lexical_decision_task_MP,2020.1.3,Linux aarch64,60,,0,0.322468804,-0.33406033,1,0,0,0.743,button_right,0.743,1,,,,,,3,WORD,"ID",33,knight,KNIGHT,m,,,,,,0.322468804,-0.33406033,1,0,0,,0,53,53,2,1,
,,,,,,,,,,,,,,,,,,5eef5cc0270c550c05faf0fe,2020-08-10_13h48.35.322,lexical_decision_task_MP,2020.1.3,Linux aarch64,60,,0,-0.350208045,-0.275765516,1,0,0,0.8319,button_left,0.8319,1,,,,,,453,NW,UN,50,scouge,BOLVIS,z,,,,,,-0.350208045,-0.275765516,1,0,0,,0,54,54,452,1,
,,,,,,,,,,,,,,,,,,5eef5cc0270c550c05faf0fe,2020-08-10_13h48.35.322,lexical_decision_task_MP,2020.1.3,Linux aarch64,60,,0,0.312760078,-0.328508572,1,0,0,0.6503,button_right,0.6503,1,,,,,,194,WORD,UN,50,resign,ABSENT,m,,,,,,0.312760078,-0.328508572,1,0,0,,0,55,55,193,1,
,,,,,,,,,,,,,,,,,,5eef5cc0270c550c05faf0fe,2020-08-10_13h48.35.322,lexical_decision_task_MP,2020.1.3,Linux aarch64,60,,0,0.315534058,-0.328508572,1,0,0,0.7744,button_right,0.7744,0,,,,,,270,NW,"ID",33,wrimsy,WRIMSY,z,,,,,,0.315534058,-0.328508572,1,0,0,,0,56,56,269,1,
,,,,,,,,,,,,,,,,,,5eef5cc0270c550c05faf0fe,2020-08-10_13h48.35.322,lexical_decision_task_MP,2020.1.3,Linux aarch64,60,,0,0.315534058,-0.328508572,1,0,0,0.7312,button_right,0.7312,0,,,,,,303,NW,"ID",50,fiream,FIREAM,z,,,,,,0.315534058,-0.328508572,1,0,0,,0,57,57,302,1,
,,,,,,,,,,,,,,,,,,5eef5cc0270c550c05faf0fe,2020-08-10_13h48.35.322,lexical_decision_task_MP,2020.1.3,Linux aarch64,60,,0,-0.340499301,-0.24384196,1,0,0,0.9306,button_left,0.9306,1,,,,,,255,NW,"ID",33,apight,APIGHT,z,,,,,,-0.340499301,-0.24384196,1,0,0,,0,58,58,254,1,
,,,,,,,,,,,,,,,,,,5eef5cc0270c550c05faf0fe,2020-08-10_13h48.35.322,lexical_decision_task_MP,2020.1.3,Linux aarch64,60,,0,0.321081882,-0.325732558,1,0,0,0.5805,button_right,0.5805,0,,,,,,338,NW,"ID",50,wreash,WREASH,z,,,,,,0.321081882,-0.325732558,1,0,0,,0,59,59,337,1,
,,,,,,,,,,,,,,,,,,5eef5cc0270c550c05faf0fe,2020-08-10_13h48.35.322,lexical_decision_task_MP,2020.1.3,Linux aarch64,60,,0,0.321081882,-0.328508572,1,0,0,0.7145,button_right,0.7145,0,,,,,,381,NW,UN,33,sarley,HUNIEK,z,,,,,,0.321081882,-0.328508572,1,0,0,,0,60,60,380,1,
,,,,,,,,,,,,,,,,,,5eef5cc0270c550c05faf0fe,2020-08-10_13h48.35.322,lexical_decision_task_MP,2020.1.3,Linux aarch64,60,,0,0.322468804,-0.328508572,1,0,0,0.615,button_right,0.615,1,,,,,,188,WORD,UN,50,censor,SOCIAL,m,,,,,,0.322468804,-0.328508572,1,0,0,,0,61,61,187,1,
,,,,,,,,,,,,,,,,,,5eef5cc0270c550c05faf0fe,2020-08-10_13h48.35.322,lexical_decision_task_MP,2020.1.3,Linux aarch64,60,,0,0.322468804,-0.328508572,1,0,0,0.4962,button_right,0.4962,1,,,,,,116,WORD,"ID",50,tumble,TUMBLE,m,,,,,,0.322468804,-0.328508572,1,0,0,,0,62,62,115,1,
,,,,,,,,,,,,,,,,,,5eef5cc0270c550c05faf0fe,2020-08-10_13h48.35.322,lexical_decision_task_MP,2020.1.3,Linux aarch64,60,,0,0.322468804,-0.329896376,1,0,0,0.6315,button_right,0.6315,1,,,,,,17,WORD,"ID",33,charge,CHARGE,m,,,,,,0.322468804,-0.329896376,1,0,0,,0,63,63,16,1,
,,,,,,,,,,,,,,,,,,5eef5cc0270c550c05faf0fe,2020-08-10_13h48.35.322,lexical_decision_task_MP,2020.1.3,Linux aarch64,60,,0,0.322468804,-0.329896376,1,0,0,0.557,button_right,0.557,1,,,,,,1,WORD,"ID",33,fright,FRIGHT,m,,,,,,0.322468804,-0.329896376,1,0,0,,0,64,64,0,1,
,,,,,,,,,,,,,,,,,,5eef5cc0270c550c05faf0fe,2020-08-10_13h48.35.322,lexical_decision_task_MP,2020.1.3,Linux aarch64,60,,0,0.322468804,-0.329896376,1,0,0,0.7327,button_right,0.7327,0,,,,,,247,NW,"ID",33,blarge,BLARGE,z,,,,,,0.322468804,-0.329896376,1,0,0,,0,65,65,246,1,
,,,,,,,,,,,,,,,,,,5eef5cc0270c550c05faf0fe,2020-08-10_13h48.35.322,lexical_decision_task_MP,2020.1.3,Linux aarch64,60,,0,0.326629706,-0.329896376,1,0,0,0.8427,button_right,0.8427,1,,,,,,168,WORD,UN,33,genius,ANSWER,m,,,,,,0.326629706,-0.329896376,1,0,0,,0,66,66,167,1,
,,,,,,,,,,,,,,,,,,5eef5cc0270c550c05faf0fe,2020-08-10_13h48.35.322,lexical_decision_task_MP,2020.1.3,Linux aarch64,60,,0,-0.35991678,-0.291033122,1,0,0,0.8845,button_left,0.8845,1,,,,,,244,NW,"ID",33,eatric,EATRIC,z,,,,,,-0.35991678,-0.291033122,1,0,0,,0,67,67,243,1,
,,,,,,,,,,,,,,,,,,5eef5cc0270c550c05faf0fe,2020-08-10_13h48.35.322,lexical_decision_task_MP,2020.1.3,Linux aarch64,60,,0,0.336338433,-0.328508572,1,0,0,0.5568,button_right,0.5568,1,,,,,,144,WORD,UN,33,parish,SPONGE,m,,,,,,0.336338433,-0.328508572,1,0,0,,0,68,68,143,1,
,,,,,,,,,,,,,,,,,,5eef5cc0270c550c05faf0fe,2020-08-10_13h48.35.322,lexical_decision_task_MP,2020.1.3,Linux aarch64,60,,0,0.336338433,-0.328508572,1,0,0,0.5647,button_right,0.5647,1,,,,,,13,WORD,"ID",33,strive,STRIVE,m,,,,,,0.336338433,-0.328508572,1,0,0,,0,69,69,12,1,
,,,,,,,,,,,,,,,,,,5eef5cc0270c550c05faf0fe,2020-08-10_13h48.35.322,lexical_decision_task_MP,2020.1.3,Linux aarch64,60,,0,0.336338433,-0.33267239,1,0,0,1.0467,button_right,1.0467,1,,,,,,157,WORD,UN,33,island,DRAGON,m,,,,,,0.336338433,-0.33267239,1,0,0,,0,70,70,156,1,
,,,,,,,,,,,,,,,,,,5eef5cc0270c550c05faf0fe,2020-08-10_13h48.35.322,lexical_decision_task_MP,2020.1.3,Linux aarch64,60,,0,0.333564521,-0.33267239,1,0,0,0.9504,button_right,0.9504,0,,,,,,396,NW,UN,33,camble,FLENGY,z,,,,,,0.333564521,-0.33267239,1,0,0,,0,71,71,395,1,
,,,,,,,,,,,,,,,,,,5eef5cc0270c550c05faf0fe,2020-08-10_13h48.35.322,lexical_decision_task_MP,2020.1.3,Linux aarch64,60,,0,0.329403619,-0.291033122,1,0,0,0.7314,button_right,0.7314,1,,,,,,182,WORD,UN,50,basket,WINTER,m,,,,,,0.329403619,-0.291033122,1,0,0,,0,72,72,181,1,
,,,,,,,,,,,,,,,,,,5eef5cc0270c550c05faf0fe,2020-08-10_13h48.35.322,lexical_decision_task_MP,2020.1.3,Linux aarch64,60,,0,0.365464613,-0.363207872,1,0,0,0.9312,button_right,0.9312,0,,,,,,440,NW,UN,50,cainky,SARIDE,z,,,,,,0.365464613,-0.363207872,1,0,0,,0,73,73,439,1,
,,,,,,,,,,,,,,,,,,5eef5cc0270c550c05faf0fe,2020-08-10_13h48.35.322,lexical_decision_task_MP,2020.1.3,Linux aarch64,60,,0,0.305825399,-0.288257243,1,0,0,1.0983,button_right,1.0983,0,,,,,,392,NW,UN,33,ganous,ROUNCY,z,,,,,,0.305825399,-0.288257243,1,0,0,,0,74,74,391,1,
,,,,,,,,,,,,,,,,,,5eef5cc0270c550c05faf0fe,2020-08-10_13h48.35.322,lexical_decision_task_MP,2020.1.3,Linux aarch64,60,,0,0.280859985,-0.360431993,1,0,0,0.8149,button_right,0.8149,0,,,,,,314,NW,"ID",50,sprine,SPRINE,z,,,,,,0.280859985,-0.360431993,1,0,0,,0,75,75,313,1,
,,,,,,,,,,,,,,,,,,5eef5cc0270c550c05faf0fe,2020-08-10_13h48.35.322,lexical_decision_task_MP,2020.1.3,Linux aarch64,60,,0,0.297503594,-0.336836344,1,0,0,0.699,button_right,0.699,1,,,,,,131,WORD,UN,33,strong,QUENCH,m,,,,,,0.297503594,-0.336836344,1,0,0,,0,76,76,130,1,
,,,,,,,,,,,,,,,,,,5eef5cc0270c550c05faf0fe,2020-08-10_13h48.35.322,lexical_decision_task_MP,2020.1.3,Linux aarch64,60,,0,-0.291955583,-0.342388238,1,0,0,0.9485,button_left,0.9485,1,,,,,,442,NW,UN,50,dorsex,ABOUNE,z,,,,,,-0.291955583,-0.342388238,1,0,0,,0,77,77,441,1,
,,,,,,,,,,,,,,,,,,5eef5cc0270c550c05faf0fe,2020-08-10_13h48.35.322,lexical_decision_task_MP,2020.1.3,Linux aarch64,60,,0,0.336338433,-0.33406033,1,0,0,0.7984,button_right,0.7984,0,,,,,,439,NW,UN,50,saride,LIMPOR,z,,,,,,0.336338433,-0.33406033,1,0,0,,0,78,78,438,1,
,,,,,,,,,,,,,,,,,,5eef5cc0270c550c05faf0fe,2020-08-10_13h48.35.322,lexical_decision_task_MP,2020.1.3,Linux aarch64,60,,0,0.332177667,-0.343776177,1,0,0,0.5656,button_right,0.5656,1,,,,,,167,WORD,UN,33,answer,DESIGN,m,,,,,,0.332177667,-0.343776177,1,0,0,,0,79,79,166,1,
,,,,,,,,,,,,,,,,,,5eef5cc0270c550c05faf0fe,2020-08-10_13h48.35.322,lexical_decision_task_MP,2020.1.3,Linux aarch64,60,,0,0.328016629,-0.343776177,1,0,0,0.6468,button_right,0.6468,0,,,,,,424,NW,UN,50,urivel,PRAILE,z,,,,,,0.328016629,-0.343776177,1,0,0,,0,80,80,423,1,
,,,,,,,,,,,,,,,,,,5eef5cc0270c550c05faf0fe,2020-08-10_13h48.35.322,lexical_decision_task_MP,2020.1.3,Linux aarch64,60,,0,0.31692098,-0.318792725,1,0,0,0.755,button_right,0.755,1,,,,,,5,WORD,"ID",33,plunge,PLUNGE,m,,,,,,0.31692098,-0.318792725,1,0,0,,0,81,81,4,1,
,,,,,,,,,,,,,,,,,,5eef5cc0270c550c05faf0fe,2020-08-10_13h48.35.322,lexical_decision_task_MP,2020.1.3,Linux aarch64,60,,0,0.329403619,-0.349328206,1,0,0,0.6589,button_right,0.6589,1,,,,,,166,WORD,UN,33,design,STARCH,m,,,,,,0.329403619,-0.349328206,1,0,0,,0,82,82,165,1,
,,,,,,,,,,,,,,,,,,5eef5cc0270c550c05faf0fe,2020-08-10_13h48.35.322,lexical_decision_task_MP,2020.1.3,Linux aarch64,60,,0,0.31692098,-0.295197076,1,0,0,0.9152,button_right,0.9152,0,,,,,,297,NW,"ID",33,fertic,FERTIC,z,,,,,,0.31692098,-0.295197076,1,0,0,,0,83,83,296,1,
,,,,,,,,,,,,,,,,,,5eef5cc0270c550c05faf0fe,2020-08-10_13h48.35.322,lexical_decision_task_MP,2020.1.3,Linux aarch64,60,,0,0.326629706,-0.295197076,1,0,0,0.6065,button_right,0.6065,1,,,,,,115,WORD,"ID",50,guitar,GUITAR,m,,,,,,0.326629706,-0.295197076,1,0,0,,0,84,84,114,1,
,,,,,,,,,,,,,,,,,,5eef5cc0270c550c05faf0fe,2020-08-10_13h48.35.322,lexical_decision_task_MP,2020.1.3,Linux aarch64,60,,0,0.326629706,-0.296585015,1,0,0,0.5911,button_right,0.5911,1,,,,,,79,WORD,"ID",50,theory,THEORY,m,,,,,,0.326629706,-0.296585015,1,0,0,,0,85,85,78,1,
,,,,,,,,,,,,,,,,,,5eef5cc0270c550c05faf0fe,2020-08-10_13h48.35.322,lexical_decision_task_MP,2020.1.3,Linux aarch64,60,,0,0.330790609,-0.321568604,1,0,0,0.498,button_right,0.498,0,,,,,,305,NW,"ID",50,forgle,FORGLE,z,,,,,,0.330790609,-0.321568604,1,0,0,,0,86,86,304,1,
,,,,,,,,,,,,,,,,,,5eef5cc0270c550c05faf0fe,2020-08-10_13h48.35.322,lexical_decision_task_MP,2020.1.3,Linux aarch64,60,,0,0.330790609,-0.321568604,1,0,0,0.4978,button_right,0.4978,0,,,,,,411,NW,UN,33,jiluer,ORCHIN,z,,,,,,0.330790609,-0.321568604,1,0,0,,0,87,87,410,1,
,,,,,,,,,,,,,,,,,,5eef5cc0270c550c05faf0fe,2020-08-10_13h48.35.322,lexical_decision_task_MP,2020.1.3,Linux aarch64,60,,0,-0.312760061,-0.307688938,1,0,0,0.7586,button_left,0.7586,1,,,,,,408,NW,UN,33,flumni,HURNIA,z,,,,,,-0.312760061,-0.307688938,1,0,0,,0,88,88,407,1,
,,,,,,,,,,,,,,,,,,5eef5cc0270c550c05faf0fe,2020-08-10_13h48.35.322,lexical_decision_task_MP,2020.1.3,Linux aarch64,60,,0,0.323855862,-0.33267239,1,0,0,0.5289,button_right,0.5289,1,,,,,,93,WORD,"ID",50,public,PUBLIC,m,,,,,,0.323855862,-0.33267239,1,0,0,,0,89,89,92,1,
,,,,,,,,,,,,,,,,,,5eef5cc0270c550c05faf0fe,2020-08-10_13h48.35.322,lexical_decision_task_MP,2020.1.3,Linux aarch64,60,,0,0.323855862,-0.33267239,1,0,0,0.5592,button_right,0.5592,0,,,,,,419,NW,UN,33,gushop,SLOUNT,z,,,,,,0.323855862,-0.33267239,1,0,0,,0,90,90,418,1,
,,,,,,,,,,,,,,,,,,5eef5cc0270c550c05faf0fe,2020-08-10_13h48.35.322,lexical_decision_task_MP,2020.1.3,Linux aarch64,60,,0,0.323855862,-0.33267239,1,0,0,0.5845,button_right,0.5845,1,,,,,,80,WORD,"ID",50,family,FAMILY,m,,,,,,0.323855862,-0.33267239,1,0,0,,0,91,91,79,1,
,,,,,,,,,,,,,,,,,,5eef5cc0270c550c05faf0fe,2020-08-10_13h48.35.322,lexical_decision_task_MP,2020.1.3,Linux aarch64,60,,0,0.323855862,-0.33267239,1,0,0,0.9971,button_right,0.9971,0,,,,,,373,NW,UN,33,injore,BIGENT,z,,,,,,0.323855862,-0.33267239,1,0,0,,0,92,92,372,1,
,,,,,,,,,,,,,,,,,,5eef5cc0270c550c05faf0fe,2020-08-10_13h48.35.322,lexical_decision_task_MP,2020.1.3,Linux aarch64,60,,0,-0.307212168,-0.245230035,1,0,0,0.8772,button_left,0.8772,1,,,,,,317,NW,"ID",50,worbal,WORBAL,z,,,,,,-0.307212168,-0.245230035,1,0,0,,0,93,93,316,1,
,,,,,,,,,,,,,,,,,,5eef5cc0270c550c05faf0fe,2020-08-10_13h48.35.322,lexical_decision_task_MP,2020.1.3,Linux aarch64,60,,0,0.323855862,-0.322956543,1,0,0,0.5848,button_right,0.5848,1,,,,,,24,WORD,"ID",33,praise,PRAISE,m,,,,,,0.323855862,-0.322956543,1,0,0,,0,94,94,23,1,
,,,,,,,,,,,,,,,,,,5eef5cc0270c550c05faf0fe,2020-08-10_13h48.35.322,lexical_decision_task_MP,2020.1.3,Linux aarch64,60,,0,0.323855862,-0.324344618,1,0,0,0.8919,button_right,0.8919,0,,,,,,407,NW,UN,33,hurnia,SUIVER,z,,,,,,0.323855862,-0.324344618,1,0,0,,0,95,95,406,1,
,,,,,,,,,,,,,,,,,,5eef5cc0270c550c05faf0fe,2020-08-10_13h48.35.322,lexical_decision_task_MP,2020.1.3,Linux aarch64,60,,0,0.323855862,-0.325732558,1,0,0,0.4981,button_right,0.4981,0,,,,,,457,NW,UN,50,barcet,WANIGH,z,,,,,,0.323855862,-0.325732558,1,0,0,,0,96,96,456,1,
,,,,,,,,,,,,,,,,,,5eef5cc0270c550c05faf0fe,2020-08-10_13h48.35.322,lexical_decision_task_MP,2020.1.3,Linux aarch64,60,,0,0.329403619,-0.325732558,1,0,0,0.4906,button_right,0.4906,1,,,,,,136,WORD,UN,33,finger,BLEACH,m,,,,,,0.329403619,-0.325732558,1,0,0,,0,97,97,135,1,
,,,,,,,,,,,,,,,,,,5eef5cc0270c550c05faf0fe,2020-08-10_13h48.35.322,lexical_decision_task_MP,2020.1.3,Linux aarch64,60,,0,-0.329403602,-0.33406033,1,0,0,0.9325,button_left,0.9325,0,,,,,,236,WORD,UN,50,poster,PIRATE,m,,,,,,-0.329403602,-0.33406033,1,0,0,,0,98,98,235,1,
,,,,,,,,,,,,,,,,,,5eef5cc0270c550c05faf0fe,2020-08-10_13h48.35.322,lexical_decision_task_MP,2020.1.3,Linux aarch64,60,,0,0.330790609,-0.257721761,1,0,0,0.7542,button_right,0.7542,1,,,,,,111,WORD,"ID",50,induce,INDUCE,m,,,,,,0.330790609,-0.257721761,1,0,0,,0,99,99,110,1,
,,,,,,,,,,,,,,,,,,5eef5cc0270c550c05faf0fe,2020-08-10_13h48.35.322,lexical_decision_task_MP,2020.1.3,Linux aarch64,60,,0,0.308599175,-0.289645182,1,0,0,0.6443,button_right,0.6443,1,,,,,,25,WORD,"ID",33,domain,DOMAIN,m,,,,,,0.308599175,-0.289645182,1,0,0,,0,100,100,24,1,
,,,,,,,,,,,,,,,,,,5eef5cc0270c550c05faf0fe,2020-08-10_13h48.35.322,lexical_decision_task_MP,2020.1.3,Linux aarch64,60,,0,0.321081882,-0.33406033,1,0,0,0.6085,button_right,0.6085,1,,,,,,19,WORD,"ID",33,patron,PATRON,m,,,,,,0.321081882,-0.33406033,1,0,0,,0,101,101,18,1,
,,,,,,,,,,,,,,,,,,5eef5cc0270c550c05faf0fe,2020-08-10_13h48.35.322,lexical_decision_task_MP,2020.1.3,Linux aarch64,60,,0,0.321081882,-0.33406033,1,0,0,0.7407,button_right,0.7407,1,,,,,,64,WORD,"ID",50,throne,THRONE,m,,,,,,0.321081882,-0.33406033,1,0,0,,0,102,102,63,1,
,,,,,,,,,,,,,,,,,,5eef5cc0270c550c05faf0fe,2020-08-10_13h48.35.322,lexical_decision_task_MP,2020.1.3,Linux aarch64,60,,0,0.34466017,-0.328508572,1,0,0,0.9886,button_right,0.9886,1,,,,,,224,WORD,UN,50,vulgar,PERIOD,m,,,,,,0.34466017,-0.328508572,1,0,0,,0,103,103,223,1,
,,,,,,,,,,,,,,,,,,5eef5cc0270c550c05faf0fe,2020-08-10_13h48.35.322,lexical_decision_task_MP,2020.1.3,Linux aarch64,60,,0,0.333564521,-0.304912923,1,0,0,0.6347,button_right,0.6347,0,,,,,,274,NW,"ID",33,fumblo,FUMBLO,z,,,,,,0.333564521,-0.304912923,1,0,0,,0,104,104,273,1,
,,,,,,,,,,,,,,,,,,5eef5cc0270c550c05faf0fe,2020-08-10_13h48.35.322,lexical_decision_task_MP,2020.1.3,Linux aarch64,60,,0,0.348821072,-0.286869168,1,0,0,0.5986,button_right,0.5986,1,,,,,,77,WORD,"ID",50,racket,RACKET,m,,,,,,0.348821072,-0.286869168,1,0,0,,0,105,105,76,1,
,,,,,,,,,,,,,,,,,,5eef5cc0270c550c05faf0fe,2020-08-10_13h48.35.322,lexical_decision_task_MP,2020.1.3,Linux aarch64,60,,0,0.361303779,-0.328508572,1,0,0,0.6731,button_right,0.6731,1,,,,,,103,WORD,"ID",50,bounce,BOUNCE,m,,,,,,0.361303779,-0.328508572,1,0,0,,0,106,106,102,1,
,,,,,,,,,,,,,,,,,,5eef5cc0270c550c05faf0fe,2020-08-10_13h48.35.322,lexical_decision_task_MP,2020.1.3,Linux aarch64,60,,0,0.291955634,-0.307688938,1,0,0,0.6154,button_right,0.6154,1,,,,,,176,WORD,UN,33,advent,STRIFE,m,,,,,,0.291955634,-0.307688938,1,0,0,,0,107,107,175,1,
,,,,,,,,,,,,,,,,,,5eef5cc0270c550c05faf0fe,2020-08-10_13h48.35.322,lexical_decision_task_MP,2020.1.3,Linux aarch64,60,,0,0.330790609,-0.311852756,1,0,0,0.5928,button_right,0.5928,0,,,,,,367,NW,UN,33,hornal,SLIQUE,z,,,,,,0.330790609,-0.311852756,1,0,0,,0,108,108,366,1,
,,,,,,,,,,,,,,,,,,5eef5cc0270c550c05faf0fe,2020-08-10_13h48.35.322,lexical_decision_task_MP,2020.1.3,Linux aarch64,60,,0,0.323855862,-0.318792725,1,0,0,0.5658,button_right,0.5658,0,,,,,,349,NW,"ID",50,asylen,ASYLEN,z,,,,,,0.323855862,-0.318792725,1,0,0,,0,109,109,348,1,
,,,,,,,,,,,,,,,,,,5eef5cc0270c550c05faf0fe,2020-08-10_13h48.35.322,lexical_decision_task_MP,2020.1.3,Linux aarch64,60,,0,-0.333564487,-0.272989502,1,0,0,0.9478,button_left,0.9478,1,,,,,,418,NW,UN,33,slount,SUIDLE,z,,,,,,-0.333564487,-0.272989502,1,0,0,,0,110,110,417,1,
,,,,,,,,,,,,,,,,,,5eef5cc0270c550c05faf0fe,2020-08-10_13h48.35.322,lexical_decision_task_MP,2020.1.3,Linux aarch64,60,,0,0.323855862,-0.328508572,1,0,0,0.5313,button_right,0.5313,1,,,,,,100,WORD,"ID",50,carbon,CARBON,m,,,,,,0.323855862,-0.328508572,1,0,0,,0,111,111,99,1,
,,,,,,,,,,,,,,,,,,5eef5cc0270c550c05faf0fe,2020-08-10_13h48.35.322,lexical_decision_task_MP,2020.1.3,Linux aarch64,60,,0,0.323855862,-0.328508572,1,0,0,0.7461,button_right,0.7461,0,,,,,,403,NW,UN,33,cluirm,BRUATS,z,,,,,,0.323855862,-0.328508572,1,0,0,,0,112,112,402,1,
,,,,,,,,,,,,,,,,,,5eef5cc0270c550c05faf0fe,2020-08-10_13h48.35.322,lexical_decision_task_MP,2020.1.3,Linux aarch64,60,,0,0.325242716,-0.328508572,1,0,0,0.6326,button_right,0.6326,1,,,,,,62,WORD,"ID",50,region,REGION,m,,,,,,0.325242716,-0.328508572,1,0,0,,0,113,113,61,1,
,,,,,,,,,,,,,,,,,,5eef5cc0270c550c05faf0fe,2020-08-10_13h48.35.322,lexical_decision_task_MP,2020.1.3,Linux aarch64,60,,0,0.336338433,-0.322956543,1,0,0,0.5961,button_right,0.5961,1,,,,,,59,WORD,"ID",33,splint,SPLINT,m,,,,,,0.336338433,-0.322956543,1,0,0,,0,114,114,58,1,
,,,,,,,,,,,,,,,,,,5eef5cc0270c550c05faf0fe,2020-08-10_13h48.35.322,lexical_decision_task_MP,2020.1.3,Linux aarch64,60,,0,0.329403619,-0.322956543,1,0,0,0.5146,button_right,0.5146,1,,,,,,35,WORD,"ID",33,socket,SOCKET,m,,,,,,0.329403619,-0.322956543,1,0,0,,0,115,115,34,1,
,,,,,,,,,,,,,,,,,,5eef5cc0270c550c05faf0fe,2020-08-10_13h48.35.322,lexical_decision_task_MP,2020.1.3,Linux aarch64,60,,0,0.297503594,-0.31740465,1,0,0,0.6712,button_right,0.6712,1,,,,,,165,WORD,UN,33,starch,INVEST,m,,,,,,0.297503594,-0.31740465,1,0,0,,0,116,116,164,1,
,,,,,,,,,,,,,,,,,,5eef5cc0270c550c05faf0fe,2020-08-10_13h48.35.322,lexical_decision_task_MP,2020.1.3,Linux aarch64,60,,0,0.330790609,-0.339612359,1,0,0,0.66,button_right,0.66,1,,,,,,172,WORD,UN,33,shower,PATROL,m,,,,,,0.330790609,-0.339612359,1,0,0,,0,117,117,171,1,
,,,,,,,,,,,,,,,,,,5eef5cc0270c550c05faf0fe,2020-08-10_13h48.35.322,lexical_decision_task_MP,2020.1.3,Linux aarch64,60,,0,0.319694824,-0.303524984,1,0,0,0.583,button_right,0.583,0,,,,,,348,NW,"ID",50,dumple,DUMPLE,z,,,,,,0.319694824,-0.303524984,1,0,0,,0,118,118,347,1,
,,,,,,,,,,,,,,,,,,5eef5cc0270c550c05faf0fe,2020-08-10_13h48.35.322,lexical_decision_task_MP,2020.1.3,Linux aarch64,60,,0,0.305825399,-0.382639703,1,0,0,0.6543,button_right,0.6543,1,,,,,,132,WORD,UN,33,bleach,STRONG,m,,,,,,0.305825399,-0.382639703,1,0,0,,0,119,119,131,1,
,,,,,,,,,,,,,,,,,,5eef5cc0270c550c05faf0fe,2020-08-10_13h48.35.322,lexical_decision_task_MP,2020.1.3,Linux aarch64,60,,0,0.329403619,-0.35349216,1,0,0,0.6976,button_right,0.6976,1,,,,,,107,WORD,"ID",50,slogan,SLOGAN,m,,,,,,0.10055481,-0.374311795,1,0,0,,0,120,120,106,1,break_done_button
,,,,,,,,,,,,,,,,,,5eef5cc0270c550c05faf0fe,2020-08-10_13h48.35.322,lexical_decision_task_MP,2020.1.3,Linux aarch64,60,,0,0.312760078,-0.306300998,1,0,0,0.4996,button_right,0.4996,0,,,,,,455,NW,UN,50,broget,TONDLE,z,,,,,,0.312760078,-0.306300998,1,0,0,,0,121,121,454,1,
,,,,,,,,,,,,,,,,,,5eef5cc0270c550c05faf0fe,2020-08-10_13h48.35.322,lexical_decision_task_MP,2020.1.3,Linux aarch64,60,,0,-0.323855743,-0.24384196,1,0,0,0.9829,button_left,0.9829,1,,,,,,256,NW,"ID",33,inlors,INLORS,z,,,,,,-0.323855743,-0.24384196,1,0,0,,0,122,122,255,1,
,,,,,,,,,,,,,,,,,,5eef5cc0270c550c05faf0fe,2020-08-10_13h48.35.322,lexical_decision_task_MP,2020.1.3,Linux aarch64,60,,0,0.311373155,-0.365983887,1,0,0,0.5262,button_right,0.5262,1,,,,,,73,WORD,"ID",50,source,SOURCE,m,,,,,,0.311373155,-0.365983887,1,0,0,,0,123,123,72,1,
,,,,,,,,,,,,,,,,,,5eef5cc0270c550c05faf0fe,2020-08-10_13h48.35.322,lexical_decision_task_MP,2020.1.3,Linux aarch64,60,,0,0.330790609,-0.307688938,1,0,0,0.662,button_right,0.662,1,,,,,,137,WORD,UN,33,melody,FINGER,m,,,,,,0.330790609,-0.307688938,1,0,0,,0,124,124,136,1,
,,,,,,,,,,,,,,,,,,5eef5cc0270c550c05faf0fe,2020-08-10_13h48.35.322,lexical_decision_task_MP,2020.1.3,Linux aarch64,60,,0,0.352981974,-0.328508572,1,0,0,0.8111,button_right,0.8111,0,,,,,,395,NW,UN,33,flengy,COLURY,z,,,,,,0.352981974,-0.328508572,1,0,0,,0,125,125,394,1,
,,,,,,,,,,,,,,,,,,5eef5cc0270c550c05faf0fe,2020-08-10_13h48.35.322,lexical_decision_task_MP,2020.1.3,Linux aarch64,60,,0,0.358529934,-0.286869168,1,0,0,0.5903,button_right,0.5903,0,,,,,,246,NW,"ID",33,piaton,PIATON,z,,,,,,0.358529934,-0.286869168,1,0,0,,0,126,126,245,1,
,,,,,,,,,,,,,,,,,,5eef5cc0270c550c05faf0fe,2020-08-10_13h48.35.322,lexical_decision_task_MP,2020.1.3,Linux aarch64,60,,0,0.323855862,-0.29936103,1,0,0,0.6594,button_right,0.6594,0,,,,,,377,NW,UN,33,shrile,INJORE,z,,,,,,0.323855862,-0.29936103,1,0,0,,0,127,127,376,1,
,,,,,,,,,,,,,,,,,,5eef5cc0270c550c05faf0fe,2020-08-10_13h48.35.322,lexical_decision_task_MP,2020.1.3,Linux aarch64,60,,0,0.315534058,-0.309076877,1,0,0,0.7208,button_right,0.7208,0,,,,,,452,NW,UN,50,bolvis,SURDEN,z,,,,,,0.315534058,-0.309076877,1,0,0,,0,128,128,451,1,
,,,,,,,,,,,,,,,,,,5eef5cc0270c550c05faf0fe,2020-08-10_13h48.35.322,lexical_decision_task_MP,2020.1.3,Linux aarch64,60,,0,-0.315533973,-0.291033122,1,0,0,1.6593,button_left,1.6593,1,,,,,,426,NW,UN,50,frudge,URIVEL,z,,,,,,-0.315533973,-0.291033122,1,0,0,,0,129,129,425,1,
,,,,,,,,,,,,,,,,,,5eef5cc0270c550c05faf0fe,2020-08-10_13h48.35.322,lexical_decision_task_MP,2020.1.3,Linux aarch64,60,,0,-0.319694858,-0.291033122,1,0,0,1.5266,button_left,1.5266,1,,,,,,344,NW,"ID",50,scrily,SCRILY,z,,,,,,-0.319694858,-0.291033122,1,0,0,,0,130,130,343,1,
,,,,,,,,,,,,,,,,,,5eef5cc0270c550c05faf0fe,2020-08-10_13h48.35.322,lexical_decision_task_MP,2020.1.3,Linux aarch64,60,,0,-0.325242716,-0.268825548,1,0,0,1.2821,button_left,1.2821,1,,,,,,350,NW,"ID",50,nagurs,NAGURS,z,,,,,,-0.325242716,-0.268825548,1,0,0,,0,131,131,349,1,
,,,,,,,,,,,,,,,,,,5eef5cc0270c550c05faf0fe,2020-08-10_13h48.35.322,lexical_decision_task_MP,2020.1.3,Linux aarch64,60,,0,0.319694824,-0.339612359,1,0,0,0.7369,button_right,0.7369,1,,,,,,87,WORD,"ID",50,filter,FILTER,m,,,,,,0.319694824,-0.339612359,1,0,0,,0,132,132,86,1,
,,,,,,,,,,,,,,,,,,5eef5cc0270c550c05faf0fe,2020-08-10_13h48.35.322,lexical_decision_task_MP,2020.1.3,Linux aarch64,60,,0,0.319694824,-0.339612359,1,0,0,0.6285,button_right,0.6285,1,,,,,,162,WORD,UN,33,string,CANDLE,m,,,,,,0.319694824,-0.339612359,1,0,0,,0,133,133,161,1,
,,,,,,,,,,,,,,,,,,5eef5cc0270c550c05faf0fe,2020-08-10_13h48.35.322,lexical_decision_task_MP,2020.1.3,Linux aarch64,60,,0,0.319694824,-0.339612359,1,0,0,1.047,button_right,1.047,0,,,,,,341,NW,"ID",50,myrtie,MYRTIE,z,,,,,,0.319694824,-0.339612359,1,0,0,,0,134,134,340,1,
,,,,,,,,,,,,,,,,,,5eef5cc0270c550c05faf0fe,2020-08-10_13h48.35.322,lexical_decision_task_MP,2020.1.3,Linux aarch64,60,,0,0.346047228,-0.292421061,1,0,0,1.0979,button_right,1.0979,0,,,,,,425,NW,UN,50,schind,FRUDGE,z,,,,,,0.346047228,-0.292421061,1,0,0,,0,135,135,424,1,
,,,,,,,,,,,,,,,,,,5eef5cc0270c550c05faf0fe,2020-08-10_13h48.35.322,lexical_decision_task_MP,2020.1.3,Linux aarch64,60,,0,0.278086005,-0.295197076,1,0,0,1.1117,button_right,1.1117,0,,,,,,278,NW,"ID",33,unighs,UNIGHS,z,,,,,,0.278086005,-0.295197076,1,0,0,,0,136,136,277,1,
,,,,,,,,,,,,,,,,,,5eef5cc0270c550c05faf0fe,2020-08-10_13h48.35.322,lexical_decision_task_MP,2020.1.3,Linux aarch64,60,,0,0.282246908,-0.295197076,1,0,0,0.7085,button_right,0.7085,0,,,,,,325,NW,"ID",50,thruse,THRUSE,z,,,,,,0.282246908,-0.295197076,1,0,0,,0,137,137,324,1,
,,,,,,,,,,,,,,,,,,5eef5cc0270c550c05faf0fe,2020-08-10_13h48.35.322,lexical_decision_task_MP,2020.1.3,Linux aarch64,60,,0,0.322468804,-0.328508572,1,0,0,0.6621,button_right,0.6621,1,,,,,,108,WORD,"ID",50,reckon,RECKON,m,,,,,,0.322468804,-0.328508572,1,0,0,,0,138,138,107,1,
,,,,,,,,,,,,,,,,,,5eef5cc0270c550c05faf0fe,2020-08-10_13h48.35.322,lexical_decision_task_MP,2020.1.3,Linux aarch64,60,,0,0.28640781,-0.345164252,1,0,0,1.3759,button_right,1.3759,1,,,,,,230,WORD,UN,50,export,FRINGE,m,,,,,,0.28640781,-0.345164252,1,0,0,,0,139,139,229,1,
,,,,,,,,,,,,,,,,,,5eef5cc0270c550c05faf0fe,2020-08-10_13h48.35.322,lexical_decision_task_MP,2020.1.3,Linux aarch64,60,,0,0.309986098,-0.35071601,1,0,0,1.1973,button_right,1.1973,0,,,,,,415,NW,UN,33,pathel,HIGSTA,z,,,,,,0.309986098,-0.35071601,1,0,0,,0,140,140,414,1,
,,,,,,,,,,,,,,,,,,5eef5cc0270c550c05faf0fe,2020-08-10_13h48.35.322,lexical_decision_task_MP,2020.1.3,Linux aarch64,60,,0,-0.34604716,-0.35071601,1,0,0,1.0578,button_left,1.0578,1,,,,,,379,NW,UN,33,cavory,AUTING,z,,,,,,-0.34604716,-0.35071601,1,0,0,,0,141,141,378,1,
,,,,,,,,,,,,,,,,,,5eef5cc0270c550c05faf0fe,2020-08-10_13h48.35.322,lexical_decision_task_MP,2020.1.3,Linux aarch64,60,,0,0.237864109,-0.313240831,1,0,0,1.1816,button_right,1.1816,0,,,,,,454,NW,UN,50,tondle,SCOUGE,z,,,,,,0.237864109,-0.313240831,1,0,0,,0,142,142,453,1,
,,,,,,,,,,,,,,,,,,5eef5cc0270c550c05faf0fe,2020-08-10_13h48.35.322,lexical_decision_task_MP,2020.1.3,Linux aarch64,60,,0,-0.323855743,-0.324344618,1,0,0,1.4822,button_left,1.4822,1,,,,,,471,NW,UN,50,cigney,NOBEST,z,,,,,,-0.323855743,-0.324344618,1,0,0,,0,143,143,470,1,
,,,,,,,,,,,,,,,,,,5eef5cc0270c550c05faf0fe,2020-08-10_13h48.35.322,lexical_decision_task_MP,2020.1.3,Linux aarch64,60,,0,0.265603366,-0.331284451,1,0,0,1.2313,button_right,1.2313,1,,,,,,189,WORD,UN,50,backup,CENSOR,m,,,,,,0.265603366,-0.331284451,1,0,0,,0,144,144,188,1,
,,,,,,,,,,,,,,,,,,5eef5cc0270c550c05faf0fe,2020-08-10_13h48.35.322,lexical_decision_task_MP,2020.1.3,Linux aarch64,60,,0,0.290568712,-0.329896376,1,0,0,1.0204,button_right,1.0204,1,,,,,,142,WORD,UN,33,orphan,SPRUCE,m,,,,,,0.290568712,-0.329896376,1,0,0,,0,145,145,141,1,
,,,,,,,,,,,,,,,,,,5eef5cc0270c550c05faf0fe,2020-08-10_13h48.35.322,lexical_decision_task_MP,2020.1.3,Linux aarch64,60,,0,0.290568712,-0.329896376,1,0,0,1.233,button_right,1.233,0,,,,,,450,NW,UN,50,rastoe,PHRECT,z,,,,,,0.290568712,-0.329896376,1,0,0,,0,146,146,449,1,
,,,,,,,,,,,,,,,,,,5eef5cc0270c550c05faf0fe,2020-08-10_13h48.35.322,lexical_decision_task_MP,2020.1.3,Linux aarch64,60,,0,0.297503594,-0.329896376,1,0,0,0.7146,button_right,0.7146,1,,,,,,92,WORD,"ID",50,strand,STRAND,m,,,,,,0.297503594,-0.329896376,1,0,0,,0,147,147,91,1,
,,,,,,,,,,,,,,,,,,5eef5cc0270c550c05faf0fe,2020-08-10_13h48.35.322,lexical_decision_task_MP,2020.1.3,Linux aarch64,60,,0,0.305825399,-0.335448405,1,0,0,0.6829,button_right,0.6829,0,,,,,,398,NW,UN,33,fouret,BLUNDE,z,,,,,,0.305825399,-0.335448405,1,0,0,,0,148,148,397,1,
,,,,,,,,,,,,,,,,,,5eef5cc0270c550c05faf0fe,2020-08-10_13h48.35.322,lexical_decision_task_MP,2020.1.3,Linux aarch64,60,,0,0.304438273,-0.33406033,1,0,0,0.8314,button_right,0.8314,1,,,,,,65,WORD,"ID",50,symbol,SYMBOL,m,,,,,,0.304438273,-0.33406033,1,0,0,,0,149,149,64,1,
,,,,,,,,,,,,,,,,,,5eef5cc0270c550c05faf0fe,2020-08-10_13h48.35.322,lexical_decision_task_MP,2020.1.3,Linux aarch64,60,,0,0.314147,-0.306300998,1,0,0,0.4481,button_right,0.4481,1,,,,,,84,WORD,"ID",50,mortal,MORTAL,m,,,,,,0.314147,-0.306300998,1,0,0,,0,150,150,83,1,
,,,,,,,,,,,,,,,,,,5eef5cc0270c550c05faf0fe,2020-08-10_13h48.35.322,lexical_decision_task_MP,2020.1.3,Linux aarch64,60,,0,0.314147,-0.306300998,1,0,0,0.6483,button_right,0.6483,0,,,,,,304,NW,"ID",50,cludie,CLUDIE,z,,,,,,0.314147,-0.306300998,1,0,0,,0,151,151,303,1,
,,,,,,,,,,,,,,,,,,5eef5cc0270c550c05faf0fe,2020-08-10_13h48.35.322,lexical_decision_task_MP,2020.1.3,Linux aarch64,60,,0,0.296116536,-0.331284451,1,0,0,0.9484,button_right,0.9484,0,,,,,,390,NW,UN,33,theldy,HATRUS,z,,,,,,0.296116536,-0.331284451,1,0,0,,0,152,152,389,1,
,,,,,,,,,,,,,,,,,,5eef5cc0270c550c05faf0fe,2020-08-10_13h48.35.322,lexical_decision_task_MP,2020.1.3,Linux aarch64,60,,0,-0.343273231,-0.314628771,1,0,0,1.1163,button_left,1.1163,1,,,,,,391,NW,UN,33,rouncy,THELDY,z,,,,,,-0.343273231,-0.314628771,1,0,0,,0,153,153,390,1,
,,,,,,,,,,,,,,,,,,5eef5cc0270c550c05faf0fe,2020-08-10_13h48.35.322,lexical_decision_task_MP,2020.1.3,Linux aarch64,60,,0,,,,,,,,1.1163,-1,,,,,,288,NW,"ID",33,yaceup,YACEUP,z,,,,,,-0.380721207,-0.31601671,0,0,0,,0,154,154,287,1,
,,,,,,,,,,,,,,,,,,5eef5cc0270c550c05faf0fe,2020-08-10_13h48.35.322,lexical_decision_task_MP,2020.1.3,Linux aarch64,60,,0,0.322468804,-0.270213487,1,0,0,0.8811,button_right,0.8811,1,,,,,,175,WORD,UN,33,strife,FABRIC,m,,,,,,0.322468804,-0.270213487,1,0,0,,0,155,155,174,1,
,,,,,,,,,,,,,,,,,,5eef5cc0270c550c05faf0fe,2020-08-10_13h48.35.322,lexical_decision_task_MP,2020.1.3,Linux aarch64,60,,0,-0.318307902,-0.29936103,1,0,0,1.1637,button_left,1.1637,1,,,,,,366,NW,UN,33,slique,TOSHEL,z,,,,,,-0.318307902,-0.29936103,1,0,0,,0,156,156,365,1,
,,,,,,,,,,,,,,,,,,5eef5cc0270c550c05faf0fe,2020-08-10_13h48.35.322,lexical_decision_task_MP,2020.1.3,Linux aarch64,60,,0,0.28363383,-0.284093289,1,0,0,0.6985,button_right,0.6985,1,,,,,,109,WORD,"ID",50,wonder,WONDER,m,,,,,,0.28363383,-0.284093289,1,0,0,,0,157,157,108,1,
,,,,,,,,,,,,,,,,,,5eef5cc0270c550c05faf0fe,2020-08-10_13h48.35.322,lexical_decision_task_MP,2020.1.3,Linux aarch64,60,,0,0.318307902,-0.275765516,1,0,0,1.5244,button_right,1.5244,0,,,,,,473,NW,UN,50,hablin,CRIBLE,z,,,,,,0.318307902,-0.275765516,1,0,0,,0,158,158,472,1,
,,,,,,,,,,,,,,,,,,5eef5cc0270c550c05faf0fe,2020-08-10_13h48.35.322,lexical_decision_task_MP,2020.1.3,Linux aarch64,60,,0,-0.400138694,-0.295197076,1,0,0,1.1478,button_left,1.1478,1,,,,,,337,NW,"ID",50,rejols,REJOLS,z,,,,,,-0.400138694,-0.295197076,1,0,0,,0,159,159,336,1,
,,,,,,,,,,,,,,,,,,5eef5cc0270c550c05faf0fe,2020-08-10_13h48.35.322,lexical_decision_task_MP,2020.1.3,Linux aarch64,60,,0,0.28363383,-0.327120497,1,0,0,0.698,button_right,0.698,1,,,,,,76,WORD,"ID",50,exotic,EXOTIC,m,,,,,,0.28363383,-0.327120497,1,0,0,,0,160,160,75,1,
,,,,,,,,,,,,,,,,,,5eef5cc0270c550c05faf0fe,2020-08-10_13h48.35.322,lexical_decision_task_MP,2020.1.3,Linux aarch64,60,,0,0.28363383,-0.327120497,1,0,0,1.2815,button_right,1.2815,0,,,,,,456,NW,UN,50,wanigh,BROGET,z,,,,,,0.28363383,-0.327120497,1,0,0,,0,161,161,455,1,
,,,,,,,,,,,,,,,,,,5eef5cc0270c550c05faf0fe,2020-08-10_13h48.35.322,lexical_decision_task_MP,2020.1.3,Linux aarch64,60,,0,0.307212253,-0.302137044,1,0,0,0.6903,button_right,0.6903,1,,,,,,150,WORD,UN,33,mystic,RANDOM,m,,,,,,0.307212253,-0.302137044,1,0,0,,0,162,162,149,1,
,,,,,,,,,,,,,,,,,,5eef5cc0270c550c05faf0fe,2020-08-10_13h48.35.322,lexical_decision_task_MP,2020.1.3,Linux aarch64,60,,0,0.328016629,-0.254945747,1,0,0,0.6749,button_right,0.6749,1,,,,,,118,WORD,"ID",50,flight,FLIGHT,m,,,,,,0.328016629,-0.254945747,1,0,0,,0,163,163,117,1,
,,,,,,,,,,,,,,,,,,5eef5cc0270c550c05faf0fe,2020-08-10_13h48.35.322,lexical_decision_task_MP,2020.1.3,Linux aarch64,60,,0,0.305825399,-0.318792725,1,0,0,0.8972,button_right,0.8972,1,,,,,,52,WORD,"ID",33,impose,IMPOSE,m,,,,,,0.305825399,-0.318792725,1,0,0,,0,164,164,51,1,
,,,,,,,,,,,,,,,,,,5eef5cc0270c550c05faf0fe,2020-08-10_13h48.35.322,lexical_decision_task_MP,2020.1.3,Linux aarch64,60,,0,0.305825399,-0.328508572,1,0,0,0.6433,button_right,0.6433,1,,,,,,193,WORD,UN,50,plague,OBJECT,m,,,,,,0.305825399,-0.328508572,1,0,0,,0,165,165,192,1,
,,,,,,,,,,,,,,,,,,5eef5cc0270c550c05faf0fe,2020-08-10_13h48.35.322,lexical_decision_task_MP,2020.1.3,Linux aarch64,60,,0,0.305825399,-0.328508572,1,0,0,0.6714,button_right,0.6714,1,,,,,,179,WORD,UN,33,silent,BASKET,m,,,,,,0.305825399,-0.328508572,1,0,0,,0,166,166,178,1,
,,,,,,,,,,,,,,,,,,5eef5cc0270c550c05faf0fe,2020-08-10_13h48.35.322,lexical_decision_task_MP,2020.1.3,Linux aarch64,60,,0,-0.314147017,-0.291033122,1,0,0,1.0423,button_left,1.0423,1,,,,,,436,NW,UN,50,snapel,FRUTAN,z,,,,,,-0.314147017,-0.291033122,1,0,0,,0,167,167,435,1,
,,,,,,,,,,,,,,,,,,5eef5cc0270c550c05faf0fe,2020-08-10_13h48.35.322,lexical_decision_task_MP,2020.1.3,Linux aarch64,60,,0,0.293342556,-0.304912923,1,0,0,0.8798,button_right,0.8798,1,,,,,,207,WORD,UN,50,hockey,WREATH,m,,,,,,0.293342556,-0.304912923,1,0,0,,0,168,168,206,1,
,,,,,,,,,,,,,,,,,,5eef5cc0270c550c05faf0fe,2020-08-10_13h48.35.322,lexical_decision_task_MP,2020.1.3,Linux aarch64,60,,0,0.293342556,-0.304912923,1,0,0,0.8081,button_right,0.8081,1,,,,,,121,WORD,UN,33,linger,THRIVE,m,,,,,,0.293342556,-0.304912923,1,0,0,,0,169,169,120,1,
,,,,,,,,,,,,,,,,,,5eef5cc0270c550c05faf0fe,2020-08-10_13h48.35.322,lexical_decision_task_MP,2020.1.3,Linux aarch64,60,,0,0.303051351,-0.338224284,1,0,0,0.7264,button_right,0.7264,1,,,,,,186,WORD,UN,50,course,PORTAL,m,,,,,,0.303051351,-0.338224284,1,0,0,,0,170,170,185,1,
,,,,,,,,,,,,,,,,,,5eef5cc0270c550c05faf0fe,2020-08-10_13h48.35.322,lexical_decision_task_MP,2020.1.3,Linux aarch64,60,,0,0.315534058,-0.306300998,1,0,0,0.5768,button_right,0.5768,1,,,,,,185,WORD,UN,50,portal,BOTHER,m,,,,,,0.315534058,-0.306300998,1,0,0,,0,171,171,184,1,
,,,,,,,,,,,,,,,,,,5eef5cc0270c550c05faf0fe,2020-08-10_13h48.35.322,lexical_decision_task_MP,2020.1.3,Linux aarch64,60,,0,0.291955634,-0.302137044,1,0,0,0.559,button_right,0.559,0,,,,,,293,NW,"ID",33,swance,SWANCE,z,,,,,,0.291955634,-0.302137044,1,0,0,,0,172,172,292,1,
,,,,,,,,,,,,,,,,,,5eef5cc0270c550c05faf0fe,2020-08-10_13h48.35.322,lexical_decision_task_MP,2020.1.3,Linux aarch64,60,,0,0.291955634,-0.310464817,1,0,0,0.7089,button_right,0.7089,0,,,,,,459,NW,UN,50,mingar,BAFENT,z,,,,,,0.291955634,-0.310464817,1,0,0,,0,173,173,458,1,
,,,,,,,,,,,,,,,,,,5eef5cc0270c550c05faf0fe,2020-08-10_13h48.35.322,lexical_decision_task_MP,2020.1.3,Linux aarch64,60,,0,-0.355755887,-0.291033122,1,0,0,0.925,button_left,0.925,1,,,,,,394,NW,UN,33,colury,SPAQUX,z,,,,,,-0.355755887,-0.291033122,1,0,0,,0,174,174,393,1,
,,,,,,,,,,,,,,,,,,5eef5cc0270c550c05faf0fe,2020-08-10_13h48.35.322,lexical_decision_task_MP,2020.1.3,Linux aarch64,60,,0,0.273925103,-0.329896376,1,0,0,0.5472,button_right,0.5472,0,,,,,,386,NW,UN,33,gronce,ANCUST,z,,,,,,0.273925103,-0.329896376,1,0,0,,0,175,175,385,1,
,,,,,,,,,,,,,,,,,,5eef5cc0270c550c05faf0fe,2020-08-10_13h48.35.322,lexical_decision_task_MP,2020.1.3,Linux aarch64,60,,0,0.315534058,-0.278541395,1,0,0,0.7479,button_right,0.7479,1,,,,,,39,WORD,"ID",33,insect,INSECT,m,,,,,,0.315534058,-0.278541395,1,0,0,,0,176,176,38,1,
,,,,,,,,,,,,,,,,,,5eef5cc0270c550c05faf0fe,2020-08-10_13h48.35.322,lexical_decision_task_MP,2020.1.3,Linux aarch64,60,,0,0.315534058,-0.279929335,1,0,0,0.5813,button_right,0.5813,1,,,,,,190,WORD,UN,50,stable,BACKUP,m,,,,,,0.315534058,-0.279929335,1,0,0,,0,177,177,189,1,
,,,,,,,,,,,,,,,,,,5eef5cc0270c550c05faf0fe,2020-08-10_13h48.35.322,lexical_decision_task_MP,2020.1.3,Linux aarch64,60,,0,0.315534058,-0.279929335,1,0,0,0.5982,button_right,0.5982,1,,,,,,27,WORD,"ID",33,scream,SCREAM,m,,,,,,0.315534058,-0.279929335,1,0,0,,0,178,178,26,1,
,,,,,,,,,,,,,,,,,,5eef5cc0270c550c05faf0fe,2020-08-10_13h48.35.322,lexical_decision_task_MP,2020.1.3,Linux aarch64,60,,0,-0.328016646,-0.29936103,1,0,0,1.0957,button_left,1.0957,1,,,,,,410,NW,UN,33,orchin,TUNORY,z,,,,,,-0.328016646,-0.29936103,1,0,0,,0,179,179,409,1,
,,,,,,,,,,,,,,,,,,5eef5cc0270c550c05faf0fe,2020-08-10_13h48.35.322,lexical_decision_task_MP,2020.1.3,Linux aarch64,60,,0,0.308599175,-0.31740465,1,0,0,0.6647,button_right,0.6647,0,,,,,,318,NW,"ID",50,reagly,REAGLY,z,,,,,,0.308599175,-0.31740465,1,0,0,,0,180,180,317,1,
,,,,,,,,,,,,,,,,,,5eef5cc0270c550c05faf0fe,2020-08-10_13h48.35.322,lexical_decision_task_MP,2020.1.3,Linux aarch64,60,,0,0.309986098,-0.31740465,1,0,0,0.8817,button_right,0.8817,1,,,,,,70,WORD,"ID",50,square,SQUARE,m,,,,,,0.309986098,-0.31740465,1,0,0,,0,181,181,69,1,
,,,,,,,,,,,,,,,,,,5eef5cc0270c550c05faf0fe,2020-08-10_13h48.35.322,lexical_decision_task_MP,2020.1.3,Linux aarch64,60,,0,0.312760078,-0.347940131,1,0,0,0.8656,button_right,0.8656,0,,,,,,370,NW,UN,33,geiloy,SLEACT,z,,,,,,0.312760078,-0.347940131,1,0,0,,0,182,182,369,1,
,,,,,,,,,,,,,,,,,,5eef5cc0270c550c05faf0fe,2020-08-10_13h48.35.322,lexical_decision_task_MP,2020.1.3,Linux aarch64,60,,0,0.312760078,-0.347940131,1,0,0,0.4973,button_right,0.4973,1,,,,,,32,WORD,"ID",33,buckle,BUCKLE,m,,,,,,0.312760078,-0.347940131,1,0,0,,0,183,183,31,1,
,,,,,,,,,,,,,,,,,,5eef5cc0270c550c05faf0fe,2020-08-10_13h48.35.322,lexical_decision_task_MP,2020.1.3,Linux aarch64,60,,0,0.318307902,-0.320180664,1,0,0,0.5981,button_right,0.5981,1,,,,,,69,WORD,"ID",50,plenty,PLENTY,m,,,,,,0.318307902,-0.320180664,1,0,0,,0,184,184,68,1,
,,,,,,,,,,,,,,,,,,5eef5cc0270c550c05faf0fe,2020-08-10_13h48.35.322,lexical_decision_task_MP,2020.1.3,Linux aarch64,60,,0,0.318307902,-0.320180664,1,0,0,0.6148,button_right,0.6148,1,,,,,,38,WORD,"ID",33,powder,POWDER,m,,,,,,0.318307902,-0.320180664,1,0,0,,0,185,185,37,1,
,,,,,,,,,,,,,,,,,,5eef5cc0270c550c05faf0fe,2020-08-10_13h48.35.322,lexical_decision_task_MP,2020.1.3,Linux aarch64,60,,0,0.318307902,-0.314628771,1,0,0,0.8663,button_right,0.8663,1,,,,,,214,WORD,UN,50,phobia,INTAKE,m,,,,,,0.318307902,-0.314628771,1,0,0,,0,186,186,213,1,
,,,,,,,,,,,,,,,,,,5eef5cc0270c550c05faf0fe,2020-08-10_13h48.35.322,lexical_decision_task_MP,2020.1.3,Linux aarch64,60,,0,-0.343273231,-0.291033122,1,0,0,1.1175,button_left,1.1175,1,,,,,,265,NW,"ID",33,distar,DISTAR,z,,,,,,-0.343273231,-0.291033122,1,0,0,,0,187,187,264,1,
,,,,,,,,,,,,,,,,,,5eef5cc0270c550c05faf0fe,2020-08-10_13h48.35.322,lexical_decision_task_MP,2020.1.3,Linux aarch64,60,,0,0.303051351,-0.29936103,1,0,0,0.7816,button_right,0.7816,1,,,,,,235,WORD,UN,50,pirate,GRUMPY,m,,,,,,0.303051351,-0.29936103,1,0,0,,0,188,188,234,1,
,,,,,,,,,,,,,,,,,,5eef5cc0270c550c05faf0fe,2020-08-10_13h48.35.322,lexical_decision_task_MP,2020.1.3,Linux aarch64,60,,0,0.303051351,-0.29936103,1,0,0,0.5317,button_right,0.5317,1,,,,,,237,WORD,UN,50,seldom,POSTER,m,,,,,,0.303051351,-0.29936103,1,0,0,,0,189,189,236,1,
,,,,,,,,,,,,,,,,,,5eef5cc0270c550c05faf0fe,2020-08-10_13h48.35.322,lexical_decision_task_MP,2020.1.3,Linux aarch64,60,,0,0.303051351,-0.29936103,1,0,0,0.6306,button_right,0.6306,1,,,,,,138,WORD,UN,33,staple,MELODY,m,,,,,,0.303051351,-0.29936103,1,0,0,,0,190,190,137,1,
,,,,,,,,,,,,,,,,,,5eef5cc0270c550c05faf0fe,2020-08-10_13h48.35.322,lexical_decision_task_MP,2020.1.3,Linux aarch64,60,,0,0.305825399,-0.300748969,1,0,0,0.6482,button_right,0.6482,1,,,,,,217,WORD,UN,50,shrink,LIQUOR,m,,,,,,0.305825399,-0.300748969,1,0,0,,0,191,191,216,1,
,,,,,,,,,,,,,,,,,,5eef5cc0270c550c05faf0fe,2020-08-10_13h48.35.322,lexical_decision_task_MP,2020.1.3,Linux aarch64,60,,0,0.308599175,-0.300748969,1,0,0,0.4818,button_right,0.4818,1,,,,,,8,WORD,"ID",33,abrupt,ABRUPT,m,,,,,,0.308599175,-0.300748969,1,0,0,,0,192,192,7,1,
,,,,,,,,,,,,,,,,,,5eef5cc0270c550c05faf0fe,2020-08-10_13h48.35.322,lexical_decision_task_MP,2020.1.3,Linux aarch64,60,,0,0.312760078,-0.328508572,1,0,0,0.3819,button_right,0.3819,0,,,,,,472,NW,UN,50,crible,CIGNEY,z,,,,,,0.312760078,-0.328508572,1,0,0,,0,193,193,471,1,
,,,,,,,,,,,,,,,,,,5eef5cc0270c550c05faf0fe,2020-08-10_13h48.35.322,lexical_decision_task_MP,2020.1.3,Linux aarch64,60,,0,0.312760078,-0.328508572,1,0,0,0.6133,button_right,0.6133,0,,,,,,397,NW,UN,33,blunde,CAMBLE,z,,,,,,0.312760078,-0.328508572,1,0,0,,0,194,194,396,1,
,,,,,,,,,,,,,,,,,,5eef5cc0270c550c05faf0fe,2020-08-10_13h48.35.322,lexical_decision_task_MP,2020.1.3,Linux aarch64,60,,0,0.312760078,-0.328508572,1,0,0,0.4484,button_right,0.4484,1,,,,,,151,WORD,UN,33,rocket,MYSTIC,m,,,,,,0.312760078,-0.328508572,1,0,0,,0,195,195,150,1,
,,,,,,,,,,,,,,,,,,5eef5cc0270c550c05faf0fe,2020-08-10_13h48.35.322,lexical_decision_task_MP,2020.1.3,Linux aarch64,60,,0,0.31692098,-0.328508572,1,0,0,0.4926,button_right,0.4926,0,,,,,,363,NW,UN,33,impote,BREALI,z,,,,,,0.31692098,-0.328508572,1,0,0,,0,196,196,362,1,
,,,,,,,,,,,,,,,,,,5eef5cc0270c550c05faf0fe,2020-08-10_13h48.35.322,lexical_decision_task_MP,2020.1.3,Linux aarch64,60,,0,0.31692098,-0.328508572,1,0,0,0.4316,button_right,0.4316,1,,,,,,42,WORD,"ID",33,chapel,CHAPEL,m,,,,,,0.31692098,-0.328508572,1,0,0,,0,197,197,41,1,
,,,,,,,,,,,,,,,,,,5eef5cc0270c550c05faf0fe,2020-08-10_13h48.35.322,lexical_decision_task_MP,2020.1.3,Linux aarch64,60,,0,0.31692098,-0.328508572,1,0,0,0.3481,button_right,0.3481,1,,,,,,55,WORD,"ID",33,stroke,STROKE,m,,,,,,0.31692098,-0.328508572,1,0,0,,0,198,198,54,1,
,,,,,,,,,,,,,,,,,,5eef5cc0270c550c05faf0fe,2020-08-10_13h48.35.322,lexical_decision_task_MP,2020.1.3,Linux aarch64,60,,0,0.31692098,-0.328508572,1,0,0,0.5486,button_right,0.5486,1,,,,,,240,WORD,UN,50,glance,FOREST,m,,,,,,0.31692098,-0.328508572,1,0,0,,0,199,199,239,1,
,,,,,,,,,,,,,,,,,,5eef5cc0270c550c05faf0fe,2020-08-10_13h48.35.322,lexical_decision_task_MP,2020.1.3,Linux aarch64,60,,0,0.309986098,-0.324344618,1,0,0,0.6312,button_right,0.6312,1,,,,,,112,WORD,"ID",50,breath,BREATH,m,,,,,,0.309986098,-0.324344618,1,0,0,,0,200,200,111,1,
,,,,,,,,,,,,,,,,,,5eef5cc0270c550c05faf0fe,2020-08-10_13h48.35.322,lexical_decision_task_MP,2020.1.3,Linux aarch64,60,,0,0.312760078,-0.324344618,1,0,0,0.6647,button_right,0.6647,1,,,,,,113,WORD,"ID",50,chorus,CHORUS,m,,,,,,0.312760078,-0.324344618,1,0,0,,0,201,201,112,1,
,,,,,,,,,,,,,,,,,,5eef5cc0270c550c05faf0fe,2020-08-10_13h48.35.322,lexical_decision_task_MP,2020.1.3,Linux aarch64,60,,0,-0.333564487,-0.277153456,1,0,0,0.9151,button_left,0.9151,1,,,,,,434,NW,UN,50,impurb,PITROM,z,,,,,,-0.333564487,-0.277153456,1,0,0,,0,202,202,433,1,
,,,,,,,,,,,,,,,,,,5eef5cc0270c550c05faf0fe,2020-08-10_13h48.35.322,lexical_decision_task_MP,2020.1.3,Linux aarch64,60,,0,-0.372399445,-0.286869168,1,0,0,0.8984,button_left,0.8984,1,,,,,,413,NW,UN,33,serbol,EQUATS,z,,,,,,-0.372399445,-0.286869168,1,0,0,,0,203,203,412,1,
,,,,,,,,,,,,,,,,,,5eef5cc0270c550c05faf0fe,2020-08-10_13h48.35.322,lexical_decision_task_MP,2020.1.3,Linux aarch64,60,,0,0.265603366,-0.286869168,1,0,0,0.7488,button_right,0.7488,1,,,,,,178,WORD,UN,33,mildew,INFORM,m,,,,,,0.265603366,-0.286869168,1,0,0,,0,204,204,177,1,
,,,,,,,,,,,,,,,,,,5eef5cc0270c550c05faf0fe,2020-08-10_13h48.35.322,lexical_decision_task_MP,2020.1.3,Linux aarch64,60,,0,0.297503594,-0.310464817,1,0,0,0.6148,button_right,0.6148,1,,,,,,154,WORD,UN,33,lizard,AUTHOR,m,,,,,,0.297503594,-0.310464817,1,0,0,,0,205,205,153,1,
,,,,,,,,,,,,,,,,,,5eef5cc0270c550c05faf0fe,2020-08-10_13h48.35.322,lexical_decision_task_MP,2020.1.3,Linux aarch64,60,,0,0.297503594,-0.313240831,1,0,0,0.5816,button_right,0.5816,1,,,,,,83,WORD,"ID",50,result,RESULT,m,,,,,,0.297503594,-0.313240831,1,0,0,,0,206,206,82,1,
,,,,,,,,,,,,,,,,,,5eef5cc0270c550c05faf0fe,2020-08-10_13h48.35.322,lexical_decision_task_MP,2020.1.3,Linux aarch64,60,,0,0.297503594,-0.346552192,1,0,0,0.6092,button_right,0.6092,1,,,,,,61,WORD,"ID",50,ponder,PONDER,m,,,,,,0.297503594,-0.346552192,1,0,0,,0,207,207,60,1,
,,,,,,,,,,,,,,,,,,5eef5cc0270c550c05faf0fe,2020-08-10_13h48.35.322,lexical_decision_task_MP,2020.1.3,Linux aarch64,60,,0,-0.383495144,-0.293809136,1,0,0,0.8764,button_left,0.8764,1,,,,,,428,NW,UN,50,chrums,TANDLY,z,,,,,,-0.383495144,-0.293809136,1,0,0,,0,208,208,427,1,
,,,,,,,,,,,,,,,,,,5eef5cc0270c550c05faf0fe,2020-08-10_13h48.35.322,lexical_decision_task_MP,2020.1.3,Linux aarch64,60,,0,0.254507718,-0.281317274,1,0,0,0.7977,button_right,0.7977,1,,,,,,28,WORD,"ID",33,comedy,COMEDY,m,,,,,,0.254507718,-0.281317274,1,0,0,,0,209,209,27,1,
,,,,,,,,,,,,,,,,,,5eef5cc0270c550c05faf0fe,2020-08-10_13h48.35.322,lexical_decision_task_MP,2020.1.3,Linux aarch64,60,,0,0.294729546,-0.304912923,1,0,0,0.7744,button_right,0.7744,1,,,,,,7,WORD,"ID",33,anchor,ANCHOR,m,,,,,,0.294729546,-0.304912923,1,0,0,,0,210,210,6,1,
,,,,,,,,,,,,,,,,,,5eef5cc0270c550c05faf0fe,2020-08-10_13h48.35.322,lexical_decision_task_MP,2020.1.3,Linux aarch64,60,,0,-0.333564487,-0.282705349,1,0,0,0.9413,button_left,0.9413,1,,,,,,243,NW,"ID",33,musied,MUSIED,z,,,,,,-0.333564487,-0.282705349,1,0,0,,0,211,211,242,1,
,,,,,,,,,,,,,,,,,,5eef5cc0270c550c05faf0fe,2020-08-10_13h48.35.322,lexical_decision_task_MP,2020.1.3,Linux aarch64,60,,0,-0.380721207,-0.300748969,1,0,0,1.572,button_left,1.572,1,,,,,,308,NW,"ID",50,psetch,PSETCH,z,,,,,,-0.380721207,-0.300748969,1,0,0,,0,212,212,307,1,
,,,,,,,,,,,,,,,,,,5eef5cc0270c550c05faf0fe,2020-08-10_13h48.35.322,lexical_decision_task_MP,2020.1.3,Linux aarch64,60,,0,0.311373155,-0.327120497,1,0,0,0.5649,button_right,0.5649,1,,,,,,57,WORD,"ID",33,change,CHANGE,m,,,,,,0.311373155,-0.327120497,1,0,0,,0,213,213,56,1,
,,,,,,,,,,,,,,,,,,5eef5cc0270c550c05faf0fe,2020-08-10_13h48.35.322,lexical_decision_task_MP,2020.1.3,Linux aarch64,60,,0,0.314147,-0.327120497,1,0,0,0.6989,button_right,0.6989,1,,,,,,106,WORD,"ID",50,ransom,RANSOM,m,,,,,,0.314147,-0.327120497,1,0,0,,0,214,214,105,1,
,,,,,,,,,,,,,,,,,,5eef5cc0270c550c05faf0fe,2020-08-10_13h48.35.322,lexical_decision_task_MP,2020.1.3,Linux aarch64,60,,0,0.312760078,-0.327120497,1,0,0,0.5814,button_right,0.5814,1,,,,,,238,WORD,UN,50,grumpy,FLOWER,m,,,,,,0.312760078,-0.327120497,1,0,0,,0,215,215,237,1,
,,,,,,,,,,,,,,,,,,5eef5cc0270c550c05faf0fe,2020-08-10_13h48.35.322,lexical_decision_task_MP,2020.1.3,Linux aarch64,60,,0,0.278086005,-0.288257243,1,0,0,0.7304,button_right,0.7304,1,,,,,,239,WORD,UN,50,forest,LUMBER,m,,,,,,0.278086005,-0.288257243,1,0,0,,0,216,216,238,1,
,,,,,,,,,,,,,,,,,,5eef5cc0270c550c05faf0fe,2020-08-10_13h48.35.322,lexical_decision_task_MP,2020.1.3,Linux aarch64,60,,0,0.293342556,-0.313240831,1,0,0,0.647,button_right,0.647,1,,,,,,126,WORD,UN,33,castle,ENOUGH,m,,,,,,0.293342556,-0.313240831,1,0,0,,0,217,217,125,1,
,,,,,,,,,,,,,,,,,,5eef5cc0270c550c05faf0fe,2020-08-10_13h48.35.322,lexical_decision_task_MP,2020.1.3,Linux aarch64,60,,0,0.293342556,-0.310464817,1,0,0,0.5313,button_right,0.5313,1,,,,,,149,WORD,UN,33,random,INVADE,m,,,,,,0.293342556,-0.310464817,1,0,0,,0,218,218,148,1,
,,,,,,,,,,,,,,,,,,5eef5cc0270c550c05faf0fe,2020-08-10_13h48.35.322,lexical_decision_task_MP,2020.1.3,Linux aarch64,60,,0,0.319694824,-0.338224284,1,0,0,0.5816,button_right,0.5816,1,,,,,,196,WORD,UN,50,stream,CREDIT,m,,,,,,0.319694824,-0.338224284,1,0,0,,0,219,219,195,1,
,,,,,,,,,,,,,,,,,,5eef5cc0270c550c05faf0fe,2020-08-10_13h48.35.322,lexical_decision_task_MP,2020.1.3,Linux aarch64,60,,0,0.323855862,-0.341000298,1,0,0,0.5152,button_right,0.5152,0,,,,,,254,NW,"ID",33,varosh,VAROSH,z,,,,,,0.323855862,-0.341000298,1,0,0,,0,220,220,253,1,
,,,,,,,,,,,,,,,,,,5eef5cc0270c550c05faf0fe,2020-08-10_13h48.35.322,lexical_decision_task_MP,2020.1.3,Linux aarch64,60,,0,0.330790609,-0.31740465,1,0,0,0.6816,button_right,0.6816,0,,,,,,286,NW,"ID",33,reldon,RELDON,z,,,,,,0.330790609,-0.31740465,1,0,0,,0,221,221,285,1,
,,,,,,,,,,,,,,,,,,5eef5cc0270c550c05faf0fe,2020-08-10_13h48.35.322,lexical_decision_task_MP,2020.1.3,Linux aarch64,60,,0,0.330790609,-0.31740465,1,0,0,0.5141,button_right,0.5141,1,,,,,,94,WORD,"ID",50,travel,TRAVEL,m,,,,,,0.330790609,-0.31740465,1,0,0,,0,222,222,93,1,
,,,,,,,,,,,,,,,,,,5eef5cc0270c550c05faf0fe,2020-08-10_13h48.35.322,lexical_decision_task_MP,2020.1.3,Linux aarch64,60,,0,0.319694824,-0.31740465,1,0,0,0.4653,button_right,0.4653,0,,,,,,357,NW,"ID",50,derain,DERAIN,z,,,,,,0.319694824,-0.31740465,1,0,0,,0,223,223,356,1,
,,,,,,,,,,,,,,,,,,5eef5cc0270c550c05faf0fe,2020-08-10_13h48.35.322,lexical_decision_task_MP,2020.1.3,Linux aarch64,60,,0,0.321081882,-0.31740465,1,0,0,0.5664,button_right,0.5664,1,,,,,,86,WORD,"ID",50,rodent,RODENT,m,,,,,,0.321081882,-0.31740465,1,0,0,,0,224,224,85,1,
,,,,,,,,,,,,,,,,,,5eef5cc0270c550c05faf0fe,2020-08-10_13h48.35.322,lexical_decision_task_MP,2020.1.3,Linux aarch64,60,,0,0.285020752,-0.384027507,1,0,0,0.5844,button_right,0.5844,0,,,,,,312,NW,"ID",50,nerawl,NERAWL,z,,,,,,0.285020752,-0.384027507,1,0,0,,0,225,225,311,1,
,,,,,,,,,,,,,,,,,,5eef5cc0270c550c05faf0fe,2020-08-10_13h48.35.322,lexical_decision_task_MP,2020.1.3,Linux aarch64,60,,0,0.303051351,-0.336836344,1,0,0,0.799,button_right,0.799,1,,,,,,120,WORD,"ID",50,strain,STRAIN,m,,,,,,0.303051351,-0.336836344,1,0,0,,0,226,226,119,1,
,,,,,,,,,,,,,,,,,,5eef5cc0270c550c05faf0fe,2020-08-10_13h48.35.322,lexical_decision_task_MP,2020.1.3,Linux aarch64,60,,0,-0.323855743,-0.288257243,1,0,0,1.1828,button_left,1.1828,1,,,,,,334,NW,"ID",50,watmeg,WATMEG,z,,,,,,-0.323855743,-0.288257243,1,0,0,,0,227,227,333,1,
,,,,,,,,,,,,,,,,,,5eef5cc0270c550c05faf0fe,2020-08-10_13h48.35.322,lexical_decision_task_MP,2020.1.3,Linux aarch64,60,,0,0.348821072,-0.331284451,1,0,0,0.8814,button_right,0.8814,0,,,,,,446,NW,UN,50,gircue,RUNAMO,z,,,,,,0.348821072,-0.331284451,1,0,0,,0,228,228,445,1,
,,,,,,,,,,,,,,,,,,5eef5cc0270c550c05faf0fe,2020-08-10_13h48.35.322,lexical_decision_task_MP,2020.1.3,Linux aarch64,60,,0,,,,,,,,0.8814,-1,,,,,,29,WORD,"ID",33,sketch,SKETCH,m,,,,,,0.348821072,-0.331284451,0,0,0,,0,229,229,28,1,
,,,,,,,,,,,,,,,,,,5eef5cc0270c550c05faf0fe,2020-08-10_13h48.35.322,lexical_decision_task_MP,2020.1.3,Linux aarch64,60,,0,0.339112345,-0.331284451,1,0,0,0.6651,button_right,0.6651,1,,,,,,160,WORD,UN,33,dragon,VIOLET,m,,,,,,0.339112345,-0.331284451,1,0,0,,0,230,230,159,1,
,,,,,,,,,,,,,,,,,,5eef5cc0270c550c05faf0fe,2020-08-10_13h48.35.322,lexical_decision_task_MP,2020.1.3,Linux aarch64,60,,0,,,,,,,,0.6651,-1,,,,,,156,WORD,UN,33,pastor,CRADLE,m,,,,,,0.296116536,-0.306300998,0,0,0,,0,231,231,155,1,
,,,,,,,,,,,,,,,,,,5eef5cc0270c550c05faf0fe,2020-08-10_13h48.35.322,lexical_decision_task_MP,2020.1.3,Linux aarch64,60,,0,0.37517334,-0.321568604,1,0,0,0.6897,button_right,0.6897,0,,,,,,268,NW,"ID",33,packes,PACKES,z,,,,,,0.37517334,-0.321568604,1,0,0,,0,232,232,267,1,
,,,,,,,,,,,,,,,,,,5eef5cc0270c550c05faf0fe,2020-08-10_13h48.35.322,lexical_decision_task_MP,2020.1.3,Linux aarch64,60,,0,0.37517334,-0.321568604,1,0,0,0.549,button_right,0.549,1,,,,,,114,WORD,"ID",50,placid,PLACID,m,,,,,,0.37517334,-0.321568604,1,0,0,,0,233,233,113,1,
,,,,,,,,,,,,,,,,,,5eef5cc0270c550c05faf0fe,2020-08-10_13h48.35.322,lexical_decision_task_MP,2020.1.3,Linux aarch64,60,,0,0.358529934,-0.352104085,1,0,0,0.5161,button_right,0.5161,1,,,,,,158,WORD,UN,33,detail,ISLAND,m,,,,,,0.358529934,-0.352104085,1,0,0,,0,234,234,157,1,
,,,,,,,,,,,,,,,,,,5eef5cc0270c550c05faf0fe,2020-08-10_13h48.35.322,lexical_decision_task_MP,2020.1.3,Linux aarch64,60,,0,0.291955634,-0.324344618,1,0,0,0.9819,button_right,0.9819,0,,,,,,433,NW,UN,50,pitrom,DRANCE,z,,,,,,0.291955634,-0.324344618,1,0,0,,0,235,235,432,1,
,,,,,,,,,,,,,,,,,,5eef5cc0270c550c05faf0fe,2020-08-10_13h48.35.322,lexical_decision_task_MP,2020.1.3,Linux aarch64,60,,0,-0.397364765,-0.37292372,1,0,0,0.7818,button_left,0.7818,1,,,,,,478,NW,UN,50,lobush,ACRISE,z,,,,,,-0.397364765,-0.37292372,1,0,0,,0,236,236,477,1,
,,,,,,,,,,,,,,,,,,5eef5cc0270c550c05faf0fe,2020-08-10_13h48.35.322,lexical_decision_task_MP,2020.1.3,Linux aarch64,60,,0,0.348821072,-0.318792725,1,0,0,0.8152,button_right,0.8152,1,,,,,,89,WORD,"ID",50,permit,PERMIT,m,,,,,,0.348821072,-0.318792725,1,0,0,,0,237,237,88,1,
,,,,,,,,,,,,,,,,,,5eef5cc0270c550c05faf0fe,2020-08-10_13h48.35.322,lexical_decision_task_MP,2020.1.3,Linux aarch64,60,,0,0.389042969,-0.33267239,1,0,0,0.7382,button_right,0.7382,1,,,,,,199,WORD,UN,50,beacon,INVOKE,m,,,,,,0.389042969,-0.33267239,1,0,0,,0,238,238,198,1,
,,,,,,,,,,,,,,,,,,5eef5cc0270c550c05faf0fe,2020-08-10_13h48.35.322,lexical_decision_task_MP,2020.1.3,Linux aarch64,60,,0,0.348821072,-0.345164252,1,0,0,0.6638,button_right,0.6638,0,,,,,,461,NW,UN,50,absult,JUSTRE,z,,,,,,0.348821072,-0.345164252,1,0,0,,0,239,239,460,1,
,,,,,,,,,,,,,,,,,,5eef5cc0270c550c05faf0fe,2020-08-10_13h48.35.322,lexical_decision_task_MP,2020.1.3,Linux aarch64,60,,0,0.305825399,-0.285481228,1,0,0,0.8821,button_right,0.8821,1,,,,,,23,WORD,"ID",33,wealth,WEALTH,m,,,,,,0.305825399,-0.285481228,1,0,0,,0,240,240,22,1,
,,,,,,,,,,,,,,,,,,5eef5cc0270c550c05faf0fe,2020-08-10_13h48.35.322,lexical_decision_task_MP,2020.1.3,Linux aarch64,60,,0,0.346047228,-0.339612359,1,0,0,0.7614,button_right,0.7614,1,,,,,,46,WORD,"ID",33,single,SINGLE,m,,,,,,0.167129042,-0.400683322,1,0,0,,0,241,241,45,1,break_done_button
,,,,,,,,,,,,,,,,,,5eef5cc0270c550c05faf0fe,2020-08-10_13h48.35.322,lexical_decision_task_MP,2020.1.3,Linux aarch64,60,,0,0.321081882,-0.339612359,1,0,0,0.4483,button_right,0.4483,0,,,,,,469,NW,UN,50,crudio,PADIFS,z,,,,,,0.321081882,-0.339612359,1,0,0,,0,242,242,468,1,
,,,,,,,,,,,,,,,,,,5eef5cc0270c550c05faf0fe,2020-08-10_13h48.35.322,lexical_decision_task_MP,2020.1.3,Linux aarch64,60,,0,0.321081882,-0.339612359,1,0,0,0.587,button_right,0.587,1,,,,,,95,WORD,"ID",50,thread,THREAD,m,,,,,,0.321081882,-0.339612359,1,0,0,,0,243,243,94,1,
,,,,,,,,,,,,,,,,,,5eef5cc0270c550c05faf0fe,2020-08-10_13h48.35.322,lexical_decision_task_MP,2020.1.3,Linux aarch64,60,,0,0.322468804,-0.339612359,1,0,0,0.5021,button_right,0.5021,1,,,,,,74,WORD,"ID",50,plaque,PLAQUE,m,,,,,,0.322468804,-0.339612359,1,0,0,,0,244,244,73,1,
,,,,,,,,,,,,,,,,,,5eef5cc0270c550c05faf0fe,2020-08-10_13h48.35.322,lexical_decision_task_MP,2020.1.3,Linux aarch64,60,,0,0.321081882,-0.343776177,1,0,0,0.5236,button_right,0.5236,1,,,,,,44,WORD,"ID",33,danger,DANGER,m,,,,,,0.321081882,-0.343776177,1,0,0,,0,245,245,43,1,
,,,,,,,,,,,,,,,,,,5eef5cc0270c550c05faf0fe,2020-08-10_13h48.35.322,lexical_decision_task_MP,2020.1.3,Linux aarch64,60,,0,0.346047228,-0.357656114,1,0,0,0.5005,button_right,0.5005,0,,,,,,342,NW,"ID",50,randow,RANDOW,z,,,,,,0.346047228,-0.357656114,1,0,0,,0,246,246,341,1,
,,,,,,,,,,,,,,,,,,5eef5cc0270c550c05faf0fe,2020-08-10_13h48.35.322,lexical_decision_task_MP,2020.1.3,Linux aarch64,60,,0,0.337725423,-0.357656114,1,0,0,0.7191,button_right,0.7191,1,,,,,,63,WORD,"ID",50,launch,LAUNCH,m,,,,,,0.337725423,-0.357656114,1,0,0,,0,247,247,62,1,
,,,,,,,,,,,,,,,,,,5eef5cc0270c550c05faf0fe,2020-08-10_13h48.35.322,lexical_decision_task_MP,2020.1.3,Linux aarch64,60,,0,-0.35436893,-0.302137044,1,0,0,0.8511,button_left,0.8511,1,,,,,,427,NW,UN,50,tandly,SCHIND,z,,,,,,-0.35436893,-0.302137044,1,0,0,,0,248,248,426,1,
,,,,,,,,,,,,,,,,,,5eef5cc0270c550c05faf0fe,2020-08-10_13h48.35.322,lexical_decision_task_MP,2020.1.3,Linux aarch64,60,,0,-0.35436893,-0.302137044,1,0,0,0.8252,button_left,0.8252,1,,,,,,406,NW,UN,33,suiver,NOUPLY,z,,,,,,-0.35436893,-0.302137044,1,0,0,,0,249,249,405,1,
,,,,,,,,,,,,,,,,,,5eef5cc0270c550c05faf0fe,2020-08-10_13h48.35.322,lexical_decision_task_MP,2020.1.3,Linux aarch64,60,,0,0.280859985,-0.304912923,1,0,0,0.6628,button_right,0.6628,0,,,,,,326,NW,"ID",50,iguade,IGUADE,z,,,,,,0.280859985,-0.304912923,1,0,0,,0,250,250,325,1,
,,,,,,,,,,,,,,,,,,5eef5cc0270c550c05faf0fe,2020-08-10_13h48.35.322,lexical_decision_task_MP,2020.1.3,Linux aarch64,60,,0,0.28918179,-0.304912923,1,0,0,0.6305,button_right,0.6305,1,,,,,,43,WORD,"ID",33,tongue,TONGUE,m,,,,,,0.28918179,-0.304912923,1,0,0,,0,251,251,42,1,
,,,,,,,,,,,,,,,,,,5eef5cc0270c550c05faf0fe,2020-08-10_13h48.35.322,lexical_decision_task_MP,2020.1.3,Linux aarch64,60,,0,-0.35436893,-0.302137044,1,0,0,0.8325,button_left,0.8325,1,,,,,,307,NW,"ID",50,kirafe,KIRAFE,z,,,,,,-0.35436893,-0.302137044,1,0,0,,0,252,252,306,1,
,,,,,,,,,,,,,,,,,,5eef5cc0270c550c05faf0fe,2020-08-10_13h48.35.322,lexical_decision_task_MP,2020.1.3,Linux aarch64,60,,0,0.333564521,-0.309076877,1,0,0,0.5206,button_right,0.5206,1,,,,,,125,WORD,UN,33,blouse,NICKEL,m,,,,,,0.333564521,-0.309076877,1,0,0,,0,253,253,124,1,
,,,,,,,,,,,,,,,,,,5eef5cc0270c550c05faf0fe,2020-08-10_13h48.35.322,lexical_decision_task_MP,2020.1.3,Linux aarch64,60,,0,0.333564521,-0.309076877,1,0,0,1.1483,button_right,1.1483,0,,,,,,269,NW,"ID",33,orchet,ORCHET,z,,,,,,0.333564521,-0.309076877,1,0,0,,0,254,254,268,1,
,,,,,,,,,,,,,,,,,,5eef5cc0270c550c05faf0fe,2020-08-10_13h48.35.322,lexical_decision_task_MP,2020.1.3,Linux aarch64,60,,0,0.333564521,-0.320180664,1,0,0,0.7152,button_right,0.7152,0,,,,,,462,NW,UN,50,kispel,ABSULT,z,,,,,,0.333564521,-0.320180664,1,0,0,,0,255,255,461,1,
,,,,,,,,,,,,,,,,,,5eef5cc0270c550c05faf0fe,2020-08-10_13h48.35.322,lexical_decision_task_MP,2020.1.3,Linux aarch64,60,,0,0.303051351,-0.342388238,1,0,0,0.5819,button_right,0.5819,1,,,,,,21,WORD,"ID",33,simple,SIMPLE,m,,,,,,0.303051351,-0.342388238,1,0,0,,0,256,256,20,1,
,,,,,,,,,,,,,,,,,,5eef5cc0270c550c05faf0fe,2020-08-10_13h48.35.322,lexical_decision_task_MP,2020.1.3,Linux aarch64,60,,0,0.303051351,-0.342388238,1,0,0,0.5646,button_right,0.5646,1,,,,,,130,WORD,UN,33,quench,STUPID,m,,,,,,0.303051351,-0.342388238,1,0,0,,0,257,257,129,1,
,,,,,,,,,,,,,,,,,,5eef5cc0270c550c05faf0fe,2020-08-10_13h48.35.322,lexical_decision_task_MP,2020.1.3,Linux aarch64,60,,0,0.303051351,-0.343776177,1,0,0,0.5485,button_right,0.5485,1,,,,,,229,WORD,UN,50,fringe,MOTHER,m,,,,,,0.303051351,-0.343776177,1,0,0,,0,258,258,228,1,
,,,,,,,,,,,,,,,,,,5eef5cc0270c550c05faf0fe,2020-08-10_13h48.35.322,lexical_decision_task_MP,2020.1.3,Linux aarch64,60,,0,-0.383495144,-0.304912923,1,0,0,1.1329,button_left,1.1329,1,,,,,,423,NW,UN,50,praile,STRELD,z,,,,,,-0.383495144,-0.304912923,1,0,0,,0,259,259,422,1,
,,,,,,,,,,,,,,,,,,5eef5cc0270c550c05faf0fe,2020-08-10_13h48.35.322,lexical_decision_task_MP,2020.1.3,Linux aarch64,60,,0,0.290568712,-0.313240831,1,0,0,0.5978,button_right,0.5978,1,,,,,,218,WORD,UN,50,bucket,SHRINK,m,,,,,,0.290568712,-0.313240831,1,0,0,,0,260,260,217,1,
,,,,,,,,,,,,,,,,,,5eef5cc0270c550c05faf0fe,2020-08-10_13h48.35.322,lexical_decision_task_MP,2020.1.3,Linux aarch64,60,,0,0.290568712,-0.313240831,1,0,0,0.5813,button_right,0.5813,0,,,,,,356,NW,"ID",50,othnis,OTHNIS,z,,,,,,0.290568712,-0.313240831,1,0,0,,0,261,261,355,1,
,,,,,,,,,,,,,,,,,,5eef5cc0270c550c05faf0fe,2020-08-10_13h48.35.322,lexical_decision_task_MP,2020.1.3,Linux aarch64,60,,0,0.303051351,-0.364595947,1,0,0,0.6857,button_right,0.6857,1,,,,,,146,WORD,UN,33,garlic,COUPLE,m,,,,,,0.303051351,-0.364595947,1,0,0,,0,262,262,145,1,
,,,,,,,,,,,,,,,,,,5eef5cc0270c550c05faf0fe,2020-08-10_13h48.35.322,lexical_decision_task_MP,2020.1.3,Linux aarch64,60,,0,0.318307902,-0.329896376,1,0,0,0.6653,button_right,0.6653,1,,,,,,104,WORD,"ID",50,studio,STUDIO,m,,,,,,0.318307902,-0.329896376,1,0,0,,0,263,263,103,1,
,,,,,,,,,,,,,,,,,,5eef5cc0270c550c05faf0fe,2020-08-10_13h48.35.322,lexical_decision_task_MP,2020.1.3,Linux aarch64,60,,0,0.318307902,-0.339612359,1,0,0,0.6631,button_right,0.6631,1,,,,,,56,WORD,"ID",33,ambush,AMBUSH,m,,,,,,0.318307902,-0.339612359,1,0,0,,0,264,264,55,1,
,,,,,,,,,,,,,,,,,,5eef5cc0270c550c05faf0fe,2020-08-10_13h48.35.322,lexical_decision_task_MP,2020.1.3,Linux aarch64,60,,0,0.312760078,-0.346552192,1,0,0,0.7656,button_right,0.7656,1,,,,,,171,WORD,UN,33,patrol,DEPART,m,,,,,,0.312760078,-0.346552192,1,0,0,,0,265,265,170,1,
,,,,,,,,,,,,,,,,,,5eef5cc0270c550c05faf0fe,2020-08-10_13h48.35.322,lexical_decision_task_MP,2020.1.3,Linux aarch64,60,,0,0.294729546,-0.379863553,1,0,0,0.7482,button_right,0.7482,1,,,,,,233,WORD,UN,50,clumsy,NATURE,m,,,,,,0.294729546,-0.379863553,1,0,0,,0,266,266,232,1,
,,,,,,,,,,,,,,,,,,5eef5cc0270c550c05faf0fe,2020-08-10_13h48.35.322,lexical_decision_task_MP,2020.1.3,Linux aarch64,60,,0,-0.361303745,-0.329896376,1,0,0,1.0638,button_left,1.0638,1,,,,,,414,NW,UN,33,higsta,SERBOL,z,,,,,,-0.361303745,-0.329896376,1,0,0,,0,267,267,413,1,
,,,,,,,,,,,,,,,,,,5eef5cc0270c550c05faf0fe,2020-08-10_13h48.35.322,lexical_decision_task_MP,2020.1.3,Linux aarch64,60,,0,0.287794732,-0.322956543,1,0,0,0.5319,button_right,0.5319,1,,,,,,119,WORD,"ID",50,spider,SPIDER,m,,,,,,0.287794732,-0.322956543,1,0,0,,0,268,268,118,1,
,,,,,,,,,,,,,,,,,,5eef5cc0270c550c05faf0fe,2020-08-10_13h48.35.322,lexical_decision_task_MP,2020.1.3,Linux aarch64,60,,0,-0.328016646,-0.275765516,1,0,0,0.9803,button_left,0.9803,0,,,,,,33,WORD,"ID",33,butler,BUTLER,m,,,,,,-0.328016646,-0.275765516,1,0,0,,0,269,269,32,1,
,,,,,,,,,,,,,,,,,,5eef5cc0270c550c05faf0fe,2020-08-10_13h48.35.322,lexical_decision_task_MP,2020.1.3,Linux aarch64,60,,0,0.305825399,-0.296585015,1,0,0,0.6529,button_right,0.6529,1,,,,,,209,WORD,UN,50,monkey,SEARCH,m,,,,,,0.305825399,-0.296585015,1,0,0,,0,270,270,208,1,
,,,,,,,,,,,,,,,,,,5eef5cc0270c550c05faf0fe,2020-08-10_13h48.35.322,lexical_decision_task_MP,2020.1.3,Linux aarch64,60,,0,-0.369625515,-0.327120497,1,0,0,1.0758,button_left,1.0758,1,,,,,,281,NW,"ID",33,melaty,MELATY,z,,,,,,-0.369625515,-0.327120497,1,0,0,,0,271,271,280,1,
,,,,,,,,,,,,,,,,,,5eef5cc0270c550c05faf0fe,2020-08-10_13h48.35.322,lexical_decision_task_MP,2020.1.3,Linux aarch64,60,,0,-0.373786409,-0.324344618,1,0,0,0.975,button_left,0.975,1,,,,,,321,NW,"ID",50,miator,MIATOR,z,,,,,,-0.373786409,-0.324344618,1,0,0,,0,272,272,320,1,
,,,,,,,,,,,,,,,,,,5eef5cc0270c550c05faf0fe,2020-08-10_13h48.35.322,lexical_decision_task_MP,2020.1.3,Linux aarch64,60,,0,0.300277371,-0.336836344,1,0,0,0.6586,button_right,0.6586,1,,,,,,180,WORD,UN,33,thrive,SILENT,m,,,,,,0.300277371,-0.336836344,1,0,0,,0,273,273,179,1,
,,,,,,,,,,,,,,,,,,5eef5cc0270c550c05faf0fe,2020-08-10_13h48.35.322,lexical_decision_task_MP,2020.1.3,Linux aarch64,60,,0,0.300277371,-0.347940131,1,0,0,1.0274,button_right,1.0274,0,,,,,,470,NW,UN,50,nobest,CRUDIO,z,,,,,,0.300277371,-0.347940131,1,0,0,,0,274,274,469,1,
,,,,,,,,,,,,,,,,,,5eef5cc0270c550c05faf0fe,2020-08-10_13h48.35.322,lexical_decision_task_MP,2020.1.3,Linux aarch64,60,,0,0.305825399,-0.347940131,1,0,0,0.9981,button_right,0.9981,1,,,,,,221,WORD,UN,50,hinder,MASCOT,m,,,,,,0.305825399,-0.347940131,1,0,0,,0,275,275,220,1,
,,,,,,,,,,,,,,,,,,5eef5cc0270c550c05faf0fe,2020-08-10_13h48.35.322,lexical_decision_task_MP,2020.1.3,Linux aarch64,60,,0,0.305825399,-0.347940131,1,0,0,0.6647,button_right,0.6647,1,,,,,,231,WORD,UN,50,mother,EXPORT,m,,,,,,0.305825399,-0.347940131,1,0,0,,0,276,276,230,1,
,,,,,,,,,,,,,,,,,,5eef5cc0270c550c05faf0fe,2020-08-10_13h48.35.322,lexical_decision_task_MP,2020.1.3,Linux aarch64,60,,0,0.309986098,-0.347940131,1,0,0,0.5816,button_right,0.5816,0,,,,,,417,NW,UN,33,suidle,EAROUD,z,,,,,,0.309986098,-0.347940131,1,0,0,,0,277,277,416,1,
,,,,,,,,,,,,,,,,,,5eef5cc0270c550c05faf0fe,2020-08-10_13h48.35.322,lexical_decision_task_MP,2020.1.3,Linux aarch64,60,,0,0.309986098,-0.347940131,1,0,0,0.4816,button_right,0.4816,1,,,,,,197,WORD,UN,50,wicked,STREAM,m,,,,,,0.309986098,-0.347940131,1,0,0,,0,278,278,196,1,
,,,,,,,,,,,,,,,,,,5eef5cc0270c550c05faf0fe,2020-08-10_13h48.35.322,lexical_decision_task_MP,2020.1.3,Linux aarch64,60,,0,0.31692098,-0.345164252,1,0,0,0.4814,button_right,0.4814,1,,,,,,163,WORD,UN,33,market,STRING,m,,,,,,0.31692098,-0.345164252,1,0,0,,0,279,279,162,1,
,,,,,,,,,,,,,,,,,,5eef5cc0270c550c05faf0fe,2020-08-10_13h48.35.322,lexical_decision_task_MP,2020.1.3,Linux aarch64,60,,0,0.31692098,-0.345164252,1,0,0,0.6307,button_right,0.6307,1,,,,,,68,WORD,"ID",50,fumble,FUMBLE,m,,,,,,0.31692098,-0.345164252,1,0,0,,0,280,280,67,1,
,,,,,,,,,,,,,,,,,,5eef5cc0270c550c05faf0fe,2020-08-10_13h48.35.322,lexical_decision_task_MP,2020.1.3,Linux aarch64,60,,0,0.315534058,-0.345164252,1,0,0,0.5016,button_right,0.5016,0,,,,,,435,NW,UN,50,frutan,IMPURB,z,,,,,,0.315534058,-0.345164252,1,0,0,,0,281,281,434,1,
,,,,,,,,,,,,,,,,,,5eef5cc0270c550c05faf0fe,2020-08-10_13h48.35.322,lexical_decision_task_MP,2020.1.3,Linux aarch64,60,,0,0.31692098,-0.343776177,1,0,0,0.5482,button_right,0.5482,1,,,,,,75,WORD,"ID",50,trophy,TROPHY,m,,,,,,0.31692098,-0.343776177,1,0,0,,0,282,282,74,1,
,,,,,,,,,,,,,,,,,,5eef5cc0270c550c05faf0fe,2020-08-10_13h48.35.322,lexical_decision_task_MP,2020.1.3,Linux aarch64,60,,0,0.31692098,-0.343776177,1,0,0,0.6575,button_right,0.6575,1,,,,,,212,WORD,UN,50,squeal,VERIFY,m,,,,,,0.31692098,-0.343776177,1,0,0,,0,283,283,211,1,
,,,,,,,,,,,,,,,,,,5eef5cc0270c550c05faf0fe,2020-08-10_13h48.35.322,lexical_decision_task_MP,2020.1.3,Linux aarch64,60,,0,0.309986098,-0.338224284,1,0,0,0.7909,button_right,0.7909,0,,,,,,320,NW,"ID",50,jockal,JOCKAL,z,,,,,,0.309986098,-0.338224284,1,0,0,,0,284,284,319,1,
,,,,,,,,,,,,,,,,,,5eef5cc0270c550c05faf0fe,2020-08-10_13h48.35.322,lexical_decision_task_MP,2020.1.3,Linux aarch64,60,,0,0.308599175,-0.338224284,1,0,0,0.4742,button_right,0.4742,0,,,,,,355,NW,"ID",50,zingly,ZINGLY,z,,,,,,0.308599175,-0.338224284,1,0,0,,0,285,285,354,1,
,,,,,,,,,,,,,,,,,,5eef5cc0270c550c05faf0fe,2020-08-10_13h48.35.322,lexical_decision_task_MP,2020.1.3,Linux aarch64,60,,0,0.321081882,-0.307688938,1,0,0,0.3586,button_right,0.3586,1,,,,,,210,WORD,UN,50,infect,MONKEY,m,,,,,,0.321081882,-0.307688938,1,0,0,,0,286,286,209,1,
,,,,,,,,,,,,,,,,,,5eef5cc0270c550c05faf0fe,2020-08-10_13h48.35.322,lexical_decision_task_MP,2020.1.3,Linux aarch64,60,,0,0.31692098,-0.307688938,1,0,0,0.5483,button_right,0.5483,1,,,,,,96,WORD,"ID",50,ignore,IGNORE,m,,,,,,0.31692098,-0.307688938,1,0,0,,0,287,287,95,1,
,,,,,,,,,,,,,,,,,,5eef5cc0270c550c05faf0fe,2020-08-10_13h48.35.322,lexical_decision_task_MP,2020.1.3,Linux aarch64,60,,0,0.304438273,-0.254945747,1,0,0,0.5302,button_right,0.5302,1,,,,,,161,WORD,UN,33,candle,PASTOR,m,,,,,,0.304438273,-0.254945747,1,0,0,,0,288,288,160,1,
,,,,,,,,,,,,,,,,,,5eef5cc0270c550c05faf0fe,2020-08-10_13h48.35.322,lexical_decision_task_MP,2020.1.3,Linux aarch64,60,,0,0.261442464,-0.234126248,1,0,0,0.4834,button_right,0.4834,0,,,,,,287,NW,"ID",33,nymbel,NYMBEL,z,,,,,,0.261442464,-0.234126248,1,0,0,,0,289,289,286,1,
,,,,,,,,,,,,,,,,,,5eef5cc0270c550c05faf0fe,2020-08-10_13h48.35.322,lexical_decision_task_MP,2020.1.3,Linux aarch64,60,,0,0.361303779,-0.306300998,1,0,0,0.5475,button_right,0.5475,0,,,,,,345,NW,"ID",50,absend,ABSEND,z,,,,,,0.361303779,-0.306300998,1,0,0,,0,290,290,344,1,
,,,,,,,,,,,,,,,,,,5eef5cc0270c550c05faf0fe,2020-08-10_13h48.35.322,lexical_decision_task_MP,2020.1.3,Linux aarch64,60,,0,0.330790609,-0.266049533,1,0,0,0.6144,button_right,0.6144,0,,,,,,409,NW,UN,33,tunory,ELOPIA,z,,,,,,0.330790609,-0.266049533,1,0,0,,0,291,291,408,1,
,,,,,,,,,,,,,,,,,,5eef5cc0270c550c05faf0fe,2020-08-10_13h48.35.322,lexical_decision_task_MP,2020.1.3,Linux aarch64,60,,0,0.321081882,-0.321568604,1,0,0,1.0033,button_right,1.0033,1,,,,,,9,WORD,"ID",33,hustle,HUSTLE,m,,,,,,0.321081882,-0.321568604,1,0,0,,0,292,292,8,1,
,,,,,,,,,,,,,,,,,,5eef5cc0270c550c05faf0fe,2020-08-10_13h48.35.322,lexical_decision_task_MP,2020.1.3,Linux aarch64,60,,0,-0.368238559,-0.261885579,1,0,0,1.3044,button_left,1.3044,1,,,,,,467,NW,UN,50,wictor,GORBIE,z,,,,,,-0.368238559,-0.261885579,1,0,0,,0,293,293,466,1,
,,,,,,,,,,,,,,,,,,5eef5cc0270c550c05faf0fe,2020-08-10_13h48.35.322,lexical_decision_task_MP,2020.1.3,Linux aarch64,60,,0,0.357142877,-0.296585015,1,0,0,0.5317,button_right,0.5317,1,,,,,,134,WORD,UN,33,import,STAPLE,m,,,,,,0.357142877,-0.296585015,1,0,0,,0,294,294,133,1,
,,,,,,,,,,,,,,,,,,5eef5cc0270c550c05faf0fe,2020-08-10_13h48.35.322,lexical_decision_task_MP,2020.1.3,Linux aarch64,60,,0,0.357142877,-0.296585015,1,0,0,0.5478,button_right,0.5478,0,,,,,,280,NW,"ID",33,curbol,CURBOL,z,,,,,,0.357142877,-0.296585015,1,0,0,,0,295,295,279,1,
,,,,,,,,,,,,,,,,,,5eef5cc0270c550c05faf0fe,2020-08-10_13h48.35.322,lexical_decision_task_MP,2020.1.3,Linux aarch64,60,,0,0.348821072,-0.345164252,1,0,0,0.5994,button_right,0.5994,0,,,,,,295,NW,"ID",33,gleath,GLEATH,z,,,,,,0.348821072,-0.345164252,1,0,0,,0,296,296,294,1,
,,,,,,,,,,,,,,,,,,5eef5cc0270c550c05faf0fe,2020-08-10_13h48.35.322,lexical_decision_task_MP,2020.1.3,Linux aarch64,60,,0,0.348821072,-0.345164252,1,0,0,0.5227,button_right,0.5227,0,,,,,,374,NW,UN,33,yorque,SLIANT,z,,,,,,0.348821072,-0.345164252,1,0,0,,0,297,297,373,1,
,,,,,,,,,,,,,,,,,,5eef5cc0270c550c05faf0fe,2020-08-10_13h48.35.322,lexical_decision_task_MP,2020.1.3,Linux aarch64,60,,0,0.355755954,-0.302137044,1,0,0,0.5505,button_right,0.5505,0,,,,,,339,NW,"ID",50,fachow,FACHOW,z,,,,,,0.355755954,-0.302137044,1,0,0,,0,298,298,338,1,
,,,,,,,,,,,,,,,,,,5eef5cc0270c550c05faf0fe,2020-08-10_13h48.35.322,lexical_decision_task_MP,2020.1.3,Linux aarch64,60,,0,0.34743415,-0.33406033,1,0,0,0.9482,button_right,0.9482,1,,,,,,123,WORD,UN,33,enough,STRIKE,m,,,,,,0.34743415,-0.33406033,1,0,0,,0,299,299,122,1,
,,,,,,,,,,,,,,,,,,5eef5cc0270c550c05faf0fe,2020-08-10_13h48.35.322,lexical_decision_task_MP,2020.1.3,Linux aarch64,60,,0,0.34743415,-0.33406033,1,0,0,1.198,button_right,1.198,0,,,,,,264,NW,"ID",33,vackel,VACKEL,z,,,,,,0.34743415,-0.33406033,1,0,0,,0,300,300,263,1,
,,,,,,,,,,,,,,,,,,5eef5cc0270c550c05faf0fe,2020-08-10_13h48.35.322,lexical_decision_task_MP,2020.1.3,Linux aarch64,60,,0,0.34743415,-0.33406033,1,0,0,0.598,button_right,0.598,0,,,,,,346,NW,"ID",50,saudic,SAUDIC,z,,,,,,0.34743415,-0.33406033,1,0,0,,0,301,301,345,1,
,,,,,,,,,,,,,,,,,,5eef5cc0270c550c05faf0fe,2020-08-10_13h48.35.322,lexical_decision_task_MP,2020.1.3,Linux aarch64,60,,0,0.34743415,-0.33406033,1,0,0,0.5985,button_right,0.5985,0,,,,,,248,NW,"ID",33,strole,STROLE,z,,,,,,0.34743415,-0.33406033,1,0,0,,0,302,302,247,1,
,,,,,,,,,,,,,,,,,,5eef5cc0270c550c05faf0fe,2020-08-10_13h48.35.322,lexical_decision_task_MP,2020.1.3,Linux aarch64,60,,0,0.34743415,-0.33406033,1,0,0,0.683,button_right,0.683,1,,,,,,129,WORD,UN,33,stupid,MARVEL,m,,,,,,0.34743415,-0.33406033,1,0,0,,0,303,303,128,1,
,,,,,,,,,,,,,,,,,,5eef5cc0270c550c05faf0fe,2020-08-10_13h48.35.322,lexical_decision_task_MP,2020.1.3,Linux aarch64,60,,0,0.34743415,-0.338224284,1,0,0,1.1611,button_right,1.1611,0,,,,,,322,NW,"ID",50,slanch,SLANCH,z,,,,,,0.34743415,-0.338224284,1,0,0,,0,304,304,321,1,
,,,,,,,,,,,,,,,,,,5eef5cc0270c550c05faf0fe,2020-08-10_13h48.35.322,lexical_decision_task_MP,2020.1.3,Linux aarch64,60,,0,-0.34604716,-0.288257243,1,0,0,1.1822,button_left,1.1822,1,,,,,,369,NW,UN,33,sleact,WRONCH,z,,,,,,-0.34604716,-0.288257243,1,0,0,,0,305,305,368,1,
,,,,,,,,,,,,,,,,,,5eef5cc0270c550c05faf0fe,2020-08-10_13h48.35.322,lexical_decision_task_MP,2020.1.3,Linux aarch64,60,,0,0.358529934,-0.327120497,1,0,0,0.8351,button_right,0.8351,1,,,,,,90,WORD,"ID",50,relish,RELISH,m,,,,,,0.358529934,-0.327120497,1,0,0,,0,306,306,89,1,
,,,,,,,,,,,,,,,,,,5eef5cc0270c550c05faf0fe,2020-08-10_13h48.35.322,lexical_decision_task_MP,2020.1.3,Linux aarch64,60,,0,0.358529934,-0.327120497,1,0,0,0.649,button_right,0.649,0,,,,,,260,NW,"ID",33,unject,UNJECT,z,,,,,,0.358529934,-0.327120497,1,0,0,,0,307,307,259,1,
,,,,,,,,,,,,,,,,,,5eef5cc0270c550c05faf0fe,2020-08-10_13h48.35.322,lexical_decision_task_MP,2020.1.3,Linux aarch64,60,,0,-0.336338416,-0.281317274,1,0,0,1.1148,button_left,1.1148,1,,,,,,393,NW,UN,33,spaqux,GANOUS,z,,,,,,-0.336338416,-0.281317274,1,0,0,,0,308,308,392,1,
,,,,,,,,,,,,,,,,,,5eef5cc0270c550c05faf0fe,2020-08-10_13h48.35.322,lexical_decision_task_MP,2020.1.3,Linux aarch64,60,,0,0.340499268,-0.336836344,1,0,0,0.7483,button_right,0.7483,1,,,,,,226,WORD,UN,50,flower,CASINO,m,,,,,,0.340499268,-0.336836344,1,0,0,,0,309,309,225,1,
,,,,,,,,,,,,,,,,,,5eef5cc0270c550c05faf0fe,2020-08-10_13h48.35.322,lexical_decision_task_MP,2020.1.3,Linux aarch64,60,,0,-0.350208045,-0.296585015,1,0,0,1.5981,button_left,1.5981,1,,,,,,400,NW,UN,33,mustil,WEAROX,z,,,,,,-0.350208045,-0.296585015,1,0,0,,0,310,310,399,1,
,,,,,,,,,,,,,,,,,,5eef5cc0270c550c05faf0fe,2020-08-10_13h48.35.322,lexical_decision_task_MP,2020.1.3,Linux aarch64,60,,0,0.34743415,-0.33406033,1,0,0,1.2818,button_right,1.2818,0,,,,,,282,NW,"ID",33,porlex,PORLEX,z,,,,,,0.34743415,-0.33406033,1,0,0,,0,311,311,281,1,
,,,,,,,,,,,,,,,,,,5eef5cc0270c550c05faf0fe,2020-08-10_13h48.35.322,lexical_decision_task_MP,2020.1.3,Linux aarch64,60,,0,0.34743415,-0.33406033,1,0,0,0.6315,button_right,0.6315,1,,,,,,201,WORD,UN,50,factor,ADMIRE,m,,,,,,0.34743415,-0.33406033,1,0,0,,0,312,312,200,1,
,,,,,,,,,,,,,,,,,,5eef5cc0270c550c05faf0fe,2020-08-10_13h48.35.322,lexical_decision_task_MP,2020.1.3,Linux aarch64,60,,0,0.34466017,-0.339612359,1,0,0,0.6173,button_right,0.6173,1,,,,,,2,WORD,"ID",33,bridge,BRIDGE,m,,,,,,0.34466017,-0.339612359,1,0,0,,0,313,313,1,1,
,,,,,,,,,,,,,,,,,,5eef5cc0270c550c05faf0fe,2020-08-10_13h48.35.322,lexical_decision_task_MP,2020.1.3,Linux aarch64,60,,0,0.337725423,-0.343776177,1,0,0,0.5482,button_right,0.5482,1,,,,,,232,WORD,UN,50,nature,INJECT,m,,,,,,0.337725423,-0.343776177,1,0,0,,0,314,314,231,1,
,,,,,,,,,,,,,,,,,,5eef5cc0270c550c05faf0fe,2020-08-10_13h48.35.322,lexical_decision_task_MP,2020.1.3,Linux aarch64,60,,0,0.337725423,-0.343776177,1,0,0,0.5815,button_right,0.5815,1,,,,,,60,WORD,"ID",33,pencil,PENCIL,m,,,,,,0.337725423,-0.343776177,1,0,0,,0,315,315,59,1,
,,,,,,,,,,,,,,,,,,5eef5cc0270c550c05faf0fe,2020-08-10_13h48.35.322,lexical_decision_task_MP,2020.1.3,Linux aarch64,60,,0,-0.341886258,-0.289645182,1,0,0,0.997,button_left,0.997,1,,,,,,447,NW,UN,50,sadent,GIRCUE,z,,,,,,-0.341886258,-0.289645182,1,0,0,,0,316,316,446,1,
,,,,,,,,,,,,,,,,,,5eef5cc0270c550c05faf0fe,2020-08-10_13h48.35.322,lexical_decision_task_MP,2020.1.3,Linux aarch64,60,,0,0.321081882,-0.35071601,1,0,0,0.5822,button_right,0.5822,1,,,,,,6,WORD,"ID",33,bundle,BUNDLE,m,,,,,,0.321081882,-0.35071601,1,0,0,,0,317,317,5,1,
,,,,,,,,,,,,,,,,,,5eef5cc0270c550c05faf0fe,2020-08-10_13h48.35.322,lexical_decision_task_MP,2020.1.3,Linux aarch64,60,,0,0.321081882,-0.35071601,1,0,0,0.6798,button_right,0.6798,0,,,,,,364,NW,UN,33,guairt,IMPOTE,z,,,,,,0.321081882,-0.35071601,1,0,0,,0,318,318,363,1,
,,,,,,,,,,,,,,,,,,5eef5cc0270c550c05faf0fe,2020-08-10_13h48.35.322,lexical_decision_task_MP,2020.1.3,Linux aarch64,60,,0,0.321081882,-0.35071601,1,0,0,0.8149,button_right,0.8149,1,,,,,,198,WORD,UN,50,invoke,WICKED,m,,,,,,0.321081882,-0.35071601,1,0,0,,0,319,319,197,1,
,,,,,,,,,,,,,,,,,,5eef5cc0270c550c05faf0fe,2020-08-10_13h48.35.322,lexical_decision_task_MP,2020.1.3,Linux aarch64,60,,0,0.321081882,-0.35071601,1,0,0,0.5637,button_right,0.5637,1,,,,,,153,WORD,UN,33,author,BEHOLD,m,,,,,,0.321081882,-0.35071601,1,0,0,,0,320,320,152,1,
,,,,,,,,,,,,,,,,,,5eef5cc0270c550c05faf0fe,2020-08-10_13h48.35.322,lexical_decision_task_MP,2020.1.3,Linux aarch64,60,,0,-0.357142843,-0.303524984,1,0,0,0.9179,button_left,0.9179,1,,,,,,368,NW,UN,33,wronch,HORNAL,z,,,,,,-0.357142843,-0.303524984,1,0,0,,0,321,321,367,1,
,,,,,,,,,,,,,,,,,,5eef5cc0270c550c05faf0fe,2020-08-10_13h48.35.322,lexical_decision_task_MP,2020.1.3,Linux aarch64,60,,0,0.332177667,-0.325732558,1,0,0,0.7152,button_right,0.7152,0,,,,,,315,NW,"ID",50,laston,LASTON,z,,,,,,0.332177667,-0.325732558,1,0,0,,0,322,322,314,1,
,,,,,,,,,,,,,,,,,,5eef5cc0270c550c05faf0fe,2020-08-10_13h48.35.322,lexical_decision_task_MP,2020.1.3,Linux aarch64,60,,0,0.332177667,-0.325732558,1,0,0,0.5647,button_right,0.5647,1,,,,,,187,WORD,UN,50,social,COURSE,m,,,,,,0.332177667,-0.325732558,1,0,0,,0,323,323,186,1,
,,,,,,,,,,,,,,,,,,5eef5cc0270c550c05faf0fe,2020-08-10_13h48.35.322,lexical_decision_task_MP,2020.1.3,Linux aarch64,60,,0,0.332177667,-0.33267239,1,0,0,1.0989,button_right,1.0989,0,,,,,,401,NW,UN,33,elopia,MUSTIL,z,,,,,,0.332177667,-0.33267239,1,0,0,,0,324,324,400,1,
,,,,,,,,,,,,,,,,,,5eef5cc0270c550c05faf0fe,2020-08-10_13h48.35.322,lexical_decision_task_MP,2020.1.3,Linux aarch64,60,,0,-0.358529816,-0.275765516,1,0,0,0.9311,button_left,0.9311,1,,,,,,331,NW,"ID",50,gilfew,GILFEW,z,,,,,,-0.358529816,-0.275765516,1,0,0,,0,325,325,330,1,
,,,,,,,,,,,,,,,,,,5eef5cc0270c550c05faf0fe,2020-08-10_13h48.35.322,lexical_decision_task_MP,2020.1.3,Linux aarch64,60,,0,-0.358529816,-0.275765516,1,0,0,0.9984,button_left,0.9984,1,,,,,,404,NW,UN,33,syntic,CLUIRM,z,,,,,,-0.358529816,-0.275765516,1,0,0,,0,326,326,403,1,
,,,,,,,,,,,,,,,,,,5eef5cc0270c550c05faf0fe,2020-08-10_13h48.35.322,lexical_decision_task_MP,2020.1.3,Linux aarch64,60,,0,0.34466017,-0.329896376,1,0,0,0.6976,button_right,0.6976,1,,,,,,133,WORD,UN,33,debris,CHROME,m,,,,,,0.34466017,-0.329896376,1,0,0,,0,327,327,132,1,
,,,,,,,,,,,,,,,,,,5eef5cc0270c550c05faf0fe,2020-08-10_13h48.35.322,lexical_decision_task_MP,2020.1.3,Linux aarch64,60,,0,0.334951443,-0.33406033,1,0,0,1.3999,button_right,1.3999,0,,,,,,405,NW,UN,33,nouply,FLUMNI,z,,,,,,0.334951443,-0.33406033,1,0,0,,0,328,328,404,1,
,,,,,,,,,,,,,,,,,,5eef5cc0270c550c05faf0fe,2020-08-10_13h48.35.322,lexical_decision_task_MP,2020.1.3,Linux aarch64,60,,0,0.336338433,-0.33406033,1,0,0,0.9158,button_right,0.9158,1,,,,,,22,WORD,"ID",33,jockey,JOCKEY,m,,,,,,0.336338433,-0.33406033,1,0,0,,0,329,329,21,1,
,,,,,,,,,,,,,,,,,,5eef5cc0270c550c05faf0fe,2020-08-10_13h48.35.322,lexical_decision_task_MP,2020.1.3,Linux aarch64,60,,0,-0.369625515,-0.261885579,1,0,0,0.9988,button_left,0.9988,1,,,,,,242,NW,"ID",33,unwert,UNWERT,z,,,,,,-0.369625515,-0.261885579,1,0,0,,0,330,330,241,1,
,,,,,,,,,,,,,,,,,,5eef5cc0270c550c05faf0fe,2020-08-10_13h48.35.322,lexical_decision_task_MP,2020.1.3,Linux aarch64,60,,0,0.334951443,-0.33267239,1,0,0,0.6155,button_right,0.6155,1,,,,,,139,WORD,UN,33,prince,DEBRIS,m,,,,,,0.334951443,-0.33267239,1,0,0,,0,331,331,138,1,
,,,,,,,,,,,,,,,,,,5eef5cc0270c550c05faf0fe,2020-08-10_13h48.35.322,lexical_decision_task_MP,2020.1.3,Linux aarch64,60,,0,-0.364077666,-0.291033122,1,0,0,0.9986,button_left,0.9986,1,,,,,,275,NW,"ID",33,sleirt,SLEIRT,z,,,,,,-0.364077666,-0.291033122,1,0,0,,0,332,332,274,1,
,,,,,,,,,,,,,,,,,,5eef5cc0270c550c05faf0fe,2020-08-10_13h48.35.322,lexical_decision_task_MP,2020.1.3,Linux aarch64,60,,0,-0.362690701,-0.291033122,1,0,0,1.035,button_left,1.035,1,,,,,,258,NW,"ID",33,poluth,POLUTH,z,,,,,,-0.362690701,-0.291033122,1,0,0,,0,333,333,257,1,
,,,,,,,,,,,,,,,,,,5eef5cc0270c550c05faf0fe,2020-08-10_13h48.35.322,lexical_decision_task_MP,2020.1.3,Linux aarch64,60,,0,0.339112345,-0.336836344,1,0,0,0.7015,button_right,0.7015,0,,,,,,340,NW,"ID",50,fiatch,FIATCH,z,,,,,,0.339112345,-0.336836344,1,0,0,,0,334,334,339,1,
,,,,,,,,,,,,,,,,,,5eef5cc0270c550c05faf0fe,2020-08-10_13h48.35.322,lexical_decision_task_MP,2020.1.3,Linux aarch64,60,,0,0.339112345,-0.336836344,1,0,0,0.7743,button_right,0.7743,0,,,,,,352,NW,"ID",50,tringe,TRINGE,z,,,,,,0.339112345,-0.336836344,1,0,0,,0,335,335,351,1,
,,,,,,,,,,,,,,,,,,5eef5cc0270c550c05faf0fe,2020-08-10_13h48.35.322,lexical_decision_task_MP,2020.1.3,Linux aarch64,60,,0,0.339112345,-0.336836344,1,0,0,0.5279,button_right,0.5279,1,,,,,,36,WORD,"ID",33,vanish,VANISH,m,,,,,,0.339112345,-0.336836344,1,0,0,,0,336,336,35,1,
,,,,,,,,,,,,,,,,,,5eef5cc0270c550c05faf0fe,2020-08-10_13h48.35.322,lexical_decision_task_MP,2020.1.3,Linux aarch64,60,,0,-0.375173365,-0.278541395,1,0,0,0.8649,button_left,0.8649,1,,,,,,354,NW,"ID",50,virlex,VIRLEX,z,,,,,,-0.375173365,-0.278541395,1,0,0,,0,337,337,353,1,
,,,,,,,,,,,,,,,,,,5eef5cc0270c550c05faf0fe,2020-08-10_13h48.35.322,lexical_decision_task_MP,2020.1.3,Linux aarch64,60,,0,0.326629706,-0.359043918,1,0,0,0.6817,button_right,0.6817,0,,,,,,399,NW,UN,33,wearox,FOURET,z,,,,,,0.326629706,-0.359043918,1,0,0,,0,338,338,398,1,
,,,,,,,,,,,,,,,,,,5eef5cc0270c550c05faf0fe,2020-08-10_13h48.35.322,lexical_decision_task_MP,2020.1.3,Linux aarch64,60,,0,0.300277371,-0.374311795,1,0,0,0.6639,button_right,0.6639,1,,,,,,148,WORD,UN,33,invade,CUSTOM,m,,,,,,0.300277371,-0.374311795,1,0,0,,0,339,339,147,1,
,,,,,,,,,,,,,,,,,,5eef5cc0270c550c05faf0fe,2020-08-10_13h48.35.322,lexical_decision_task_MP,2020.1.3,Linux aarch64,60,,0,0.336338433,-0.343776177,1,0,0,0.9484,button_right,0.9484,0,,,,,,310,NW,"ID",50,daniet,DANIET,z,,,,,,0.336338433,-0.343776177,1,0,0,,0,340,340,309,1,
,,,,,,,,,,,,,,,,,,5eef5cc0270c550c05faf0fe,2020-08-10_13h48.35.322,lexical_decision_task_MP,2020.1.3,Linux aarch64,60,,0,0.336338433,-0.343776177,1,0,0,0.7151,button_right,0.7151,1,,,,,,195,WORD,UN,50,credit,RESIGN,m,,,,,,0.336338433,-0.343776177,1,0,0,,0,341,341,194,1,
