counterbalancing_condition,instr_done_keyboard.keys,instr_done_touch.x,instr_done_touch.y,instr_done_touch.leftButton,instr_done_touch.midButton,instr_done_touch.rightButton,instr_done_touch.clicked_name,instruction_pages.thisRepN,instruction_pages.thisTrialN,instruction_pages.thisN,instruction_pages.thisIndex,instruction_pages.ran,pageN,phase,instruct_text,has_image,instruct_image,participant,date,expName,psychopyVersion,OS,frameRate,response.keys,response.corr,touch_resp.x,touch_resp.y,touch_resp.leftButton,touch_resp.midButton,touch_resp.rightButton,touch_resp.time,touch_resp.clicked_name,rt,corr,practice_trials.thisRepN,practice_trials.thisTrialN,practice_trials.thisN,practice_trials.thisIndex,practice_trials.ran,TrialID,StimulusType,Condition,PrimeDuration,Prime,Target,corrAns,end_of_practice_trials_pages.thisRepN,end_of_practice_trials_pages.thisTrialN,end_of_practice_trials_pages.thisN,end_of_practice_trials_pages.thisIndex,end_of_practice_trials_pages.ran,break_done_touch.x,break_done_touch.y,break_done_touch.leftButton,break_done_touch.midButton,break_done_touch.rightButton,break_done_keyboard.keys,trials.thisRepN,trials.thisTrialN,trials.thisN,trials.thisIndex,trials.ran,break_done_touch.clicked_name
3,,-0.047914463,-0.398751746,1,0,0,instr_done_button,0,0,0,0,1,1,instructions,"INSTRUCTIONS
At the start of each trial, look at the hash marks (######) in the center of the screen. After a moment, a string of letters will appear. Your task is to indicate if the letter string forms a word or not (i.e., if it is a nonword). For example, AUTHOR is a word while AUTHON is a nonword.

Press the space bar or touch the button below to continue.",0,,5ef35f1554cf70092d1997d9,2020-08-10_16h26.16.108,lexical_decision_task_MP,2020.1.3,Linux armv7l,60,,,,,,,,,,,,,,,,,,,,,,,,,,,,,,,,,,,,,,,,
,,0.079783461,-0.390429942,1,0,0,instr_done_button,0,1,1,1,1,2,instructions,"If your device has a keyboard, press the 'Z' key for nonwords and the 'M' key for words.





Press the space bar or touch the button below to continue.",1,keyboard-example.gif,5ef35f1554cf70092d1997d9,2020-08-10_16h26.16.108,lexical_decision_task_MP,2020.1.3,Linux armv7l,60,,,,,,,,,,,,,,,,,,,,,,,,,,,,,,,,,,,,,,,,
,,0.095051744,-0.414008331,1,0,0,instr_done_button,0,2,2,2,1,3,instructions,"If you are using a touchscreen only device, use the buttons on the screen. Do not use the mouse.





Press the space bar or touch the button below to continue.",1,touchscreen-example.gif,5ef35f1554cf70092d1997d9,2020-08-10_16h26.16.108,lexical_decision_task_MP,2020.1.3,Linux armv7l,60,,,,,,,,,,,,,,,,,,,,,,,,,,,,,,,,,,,,,,,,
,,0.063127221,-0.405686527,1,0,0,instr_done_button,0,3,3,3,1,4,instructions,"It is very important that you respond as quickly and accurately as possible, as each letter string will only be on the screen for two seconds. If you do not respond within this time, the message 'Too slow!' will be displayed and the experiment will progress to the next letter string. The first 20 trials will be practice trials and you will receive feedback on your answers. 

Press the space bar or touch the button below to start the practice trials.",0,,5ef35f1554cf70092d1997d9,2020-08-10_16h26.16.108,lexical_decision_task_MP,2020.1.3,Linux armv7l,60,,,,,,,,,,,,,,,,,,,,,,,,,,,,,,,,,,,,,,,,
,,,,,,,,,,,,,,,,,,5ef35f1554cf70092d1997d9,2020-08-10_16h26.16.108,lexical_decision_task_MP,2020.1.3,Linux armv7l,60,,0,-0.525393846,-0.279472944,1,0,0,1.6364,button_left,1.6364,1,0,0,0,12,1,1013,NW,UN,33,adveil,SPRINY,z,,,,,,,,,,,,,,,,,
,,,,,,,,,,,,,,,,,,5ef35f1554cf70092d1997d9,2020-08-10_16h26.16.108,lexical_decision_task_MP,2020.1.3,Linux armv7l,60,,0,0.465653483,-0.314147017,1,0,0,1.5693,button_right,1.5693,1,0,1,1,7,1,1008,WORD,UN,50,hurdle,VOLUME,m,,,,,,,,,,,,,,,,,
,,,,,,,,,,,,,,,,,,5ef35f1554cf70092d1997d9,2020-08-10_16h26.16.108,lexical_decision_task_MP,2020.1.3,Linux armv7l,60,,0,-0.544826126,-0.303051334,1,0,0,1.3121,button_left,1.3121,1,0,2,2,11,1,1012,NW,"ID",50,rashet,RASHET,z,,,,,,,,,,,,,,,,,
,,,,,,,,,,,,,,,,,,5ef35f1554cf70092d1997d9,2020-08-10_16h26.16.108,lexical_decision_task_MP,2020.1.3,Linux armv7l,60,,0,0.472593519,-0.321081882,1,0,0,1.0274,button_right,1.0274,1,0,3,3,0,1,1001,WORD,"ID",33,utopia,UTOPIA,m,,,,,,,,,,,,,,,,,
,,,,,,,,,,,,,,,,,,5ef35f1554cf70092d1997d9,2020-08-10_16h26.16.108,lexical_decision_task_MP,2020.1.3,Linux armv7l,60,,0,0.472593519,-0.319694858,1,0,0,0.9947,button_right,0.9947,1,0,4,4,1,1,1002,WORD,"ID",33,adjust,ADJUST,m,,,,,,,,,,,,,,,,,
,,,,,,,,,,,,,,,,,,5ef35f1554cf70092d1997d9,2020-08-10_16h26.16.108,lexical_decision_task_MP,2020.1.3,Linux armv7l,60,,0,-0.514289686,-0.308599175,1,0,0,1.1509,button_left,1.1509,1,0,5,5,8,1,1009,NW,"ID",33,aslert,ASLERT,z,,,,,,,,,,,,,,,,,
,,,,,,,,,,,,,,,,,,5ef35f1554cf70092d1997d9,2020-08-10_16h26.16.108,lexical_decision_task_MP,2020.1.3,Linux armv7l,60,,0,-0.515677685,-0.307212236,1,0,0,1.173,button_left,1.173,1,0,6,6,9,1,1010,NW,"ID",33,fariny,FARINY,z,,,,,,,,,,,,,,,,,
,,,,,,,,,,,,,,,,,,5ef35f1554cf70092d1997d9,2020-08-10_16h26.16.108,lexical_decision_task_MP,2020.1.3,Linux armv7l,60,,0,0.457325236,-0.314147017,1,0,0,0.9812,button_right,0.9812,1,0,7,7,6,1,1007,WORD,UN,50,tropic,ZOMBIE,m,,,,,,,,,,,,,,,,,
,,,,,,,,,,,,,,,,,,5ef35f1554cf70092d1997d9,2020-08-10_16h26.16.108,lexical_decision_task_MP,2020.1.3,Linux armv7l,60,,0,-0.512901645,-0.318307919,1,0,0,1.0629,button_left,1.0629,1,0,8,8,14,1,1015,NW,UN,50,miaber,THRALE,z,,,,,,,,,,,,,,,,,
,,,,,,,,,,,,,,,,,,5ef35f1554cf70092d1997d9,2020-08-10_16h26.16.108,lexical_decision_task_MP,2020.1.3,Linux armv7l,60,,0,0.437892999,-0.326629723,1,0,0,1.0164,button_right,1.0164,1,0,9,9,2,1,1003,WORD,"ID",50,almond,ALMOND,m,,,,,,,,,,,,,,,,,
,,,,,,,,,,,,,,,,,,5ef35f1554cf70092d1997d9,2020-08-10_16h26.16.108,lexical_decision_task_MP,2020.1.3,Linux armv7l,60,,0,0.4503852,-0.308599175,1,0,0,1.0766,button_right,1.0766,1,0,10,10,5,1,1006,WORD,UN,33,frenzy,OBTAIN,m,,,,,,,,,,,,,,,,,
,,,,,,,,,,,,,,,,,,5ef35f1554cf70092d1997d9,2020-08-10_16h26.16.108,lexical_decision_task_MP,2020.1.3,Linux armv7l,60,,0,-0.496245405,-0.328016663,1,0,0,1.1158,button_left,1.1158,1,0,11,11,15,1,1016,NW,UN,50,mushed,WHAISE,z,,,,,,,,,,,,,,,,,
,,,,,,,,,,,,,,,,,,5ef35f1554cf70092d1997d9,2020-08-10_16h26.16.108,lexical_decision_task_MP,2020.1.3,Linux armv7l,60,,0,0.448997158,-0.321081882,1,0,0,1.0214,button_right,1.0214,1,0,12,12,4,1,1005,WORD,UN,33,abound,SQUEAK,m,,,,,,,,,,,,,,,,,
,,,,,,,,,,,,,,,,,,5ef35f1554cf70092d1997d9,2020-08-10_16h26.16.108,lexical_decision_task_MP,2020.1.3,Linux armv7l,60,,0,0.448997158,-0.318307919,1,0,0,1.1642,button_right,1.1642,1,0,13,13,3,1,1004,WORD,"ID",50,matrix,MATRIX,m,,,,,,,,,,,,,,,,,
,,,,,,,,,,,,,,,,,,5ef35f1554cf70092d1997d9,2020-08-10_16h26.16.108,lexical_decision_task_MP,2020.1.3,Linux armv7l,60,,0,-0.512901645,-0.312760078,1,0,0,1.1281,button_left,1.1281,1,0,14,14,13,1,1014,NW,UN,33,winfer,ROUPET,z,,,,,,,,,,,,,,,,,
,,,,,,,,,,,,,,,,,,5ef35f1554cf70092d1997d9,2020-08-10_16h26.16.108,lexical_decision_task_MP,2020.1.3,Linux armv7l,60,,0,-0.528169886,-0.307212236,1,0,0,1.2637,button_left,1.2637,1,0,15,15,10,1,1011,NW,"ID",50,inlade,INLADE,z,,,,,,,,,,,,,,,,,
,,-0.079838986,-0.380721198,1,0,0,instr_done_button,,,,,,1,end_of_practice,"You have completed the practice trials. During the experimental trials, you will not receive feedback, but it is very important that you respond as quickly and accurately as possible. 
Before you begin, please ensure that you are in a comfortable and quiet location and will not be disturbed for about 15 minutes, as we cannot use your data if you do not complete all the trials. 
There will be opportunities to take breaks at regular intervals during the experiment. When you are ready to start the experimental trials, please press space or touch the button below.",,,5ef35f1554cf70092d1997d9,2020-08-10_16h26.16.108,lexical_decision_task_MP,2020.1.3,Linux armv7l,60,,,,,,,,,,,,,,,,,,,,,,,,0,0,0,0,1,,,,,,,,,,,,
,,,,,,,,,,,,,,,,,,5ef35f1554cf70092d1997d9,2020-08-10_16h26.16.108,lexical_decision_task_MP,2020.1.3,Linux armv7l,60,,0,0.475369602,-0.309986115,1,0,0,0.864,button_right,0.864,1,,,,,,72,WORD,"ID",33,bright,BRIGHT,m,,,,,,0.475369602,-0.309986115,1,0,0,,0,0,0,11,1,
,,,,,,,,,,,,,,,,,,5ef35f1554cf70092d1997d9,2020-08-10_16h26.16.108,lexical_decision_task_MP,2020.1.3,Linux armv7l,60,,0,-0.522617806,-0.312760078,1,0,0,0.9449,button_left,0.9449,1,,,,,,278,NW,UN,50,celond,UNIGHS,z,,,,,,-0.522617806,-0.312760078,1,0,0,,0,1,1,457,1,
,,,,,,,,,,,,,,,,,,5ef35f1554cf70092d1997d9,2020-08-10_16h26.16.108,lexical_decision_task_MP,2020.1.3,Linux armv7l,60,,0,0.479533725,-0.28640781,1,0,0,0.7543,button_right,0.7543,1,,,,,,20,WORD,UN,50,simple,BREAST,m,,,,,,0.479533725,-0.28640781,1,0,0,,0,2,2,199,1,
,,,,,,,,,,,,,,,,,,5ef35f1554cf70092d1997d9,2020-08-10_16h26.16.108,lexical_decision_task_MP,2020.1.3,Linux armv7l,60,,0,-0.518453725,-0.308599175,1,0,0,1.0877,button_left,1.0877,1,,,,,,451,NW,UN,33,surden,CAINKY,z,,,,,,-0.518453725,-0.308599175,1,0,0,,0,3,3,390,1,
,,,,,,,,,,,,,,,,,,5ef35f1554cf70092d1997d9,2020-08-10_16h26.16.108,lexical_decision_task_MP,2020.1.3,Linux armv7l,60,,0,-0.519841766,-0.307212236,1,0,0,1.0321,button_left,1.0321,1,,,,,,269,NW,UN,50,wrimsy,ORCHET,z,,,,,,-0.519841766,-0.307212236,1,0,0,,0,4,4,448,1,
,,,,,,,,,,,,,,,,,,5ef35f1554cf70092d1997d9,2020-08-10_16h26.16.108,lexical_decision_task_MP,2020.1.3,Linux armv7l,60,,0,0.465653483,-0.305825297,1,0,0,0.9029,button_right,0.9029,1,,,,,,99,WORD,"ID",33,fluent,FLUENT,m,,,,,,0.465653483,-0.305825297,1,0,0,,0,5,5,38,1,
,,,,,,,,,,,,,,,,,,5ef35f1554cf70092d1997d9,2020-08-10_16h26.16.108,lexical_decision_task_MP,2020.1.3,Linux armv7l,60,,0,0.467041524,-0.304438273,1,0,0,0.9418,button_right,0.9418,1,,,,,,83,WORD,"ID",33,result,RESULT,m,,,,,,0.467041524,-0.304438273,1,0,0,,0,6,6,22,1,
,,,,,,,,,,,,,,,,,,5ef35f1554cf70092d1997d9,2020-08-10_16h26.16.108,lexical_decision_task_MP,2020.1.3,Linux armv7l,60,,0,0.467041524,-0.303051334,1,0,0,0.9456,button_right,0.9456,1,,,,,,82,WORD,"ID",33,stigma,STIGMA,m,,,,,,0.467041524,-0.303051334,1,0,0,,0,7,7,21,1,
,,,,,,,,,,,,,,,,,,5ef35f1554cf70092d1997d9,2020-08-10_16h26.16.108,lexical_decision_task_MP,2020.1.3,Linux armv7l,60,,0,0.467041524,-0.301664395,1,0,0,1.0315,button_right,1.0315,1,,,,,,17,WORD,UN,50,humble,CHARGE,m,,,,,,0.467041524,-0.301664395,1,0,0,,0,8,8,196,1,
,,,,,,,,,,,,,,,,,,5ef35f1554cf70092d1997d9,2020-08-10_16h26.16.108,lexical_decision_task_MP,2020.1.3,Linux armv7l,60,,0,-0.536498006,-0.305825297,1,0,0,0.989,button_left,0.989,1,,,,,,466,NW,UN,33,robuly,HOCITE,z,,,,,,-0.536498006,-0.305825297,1,0,0,,0,9,9,405,1,
,,,,,,,,,,,,,,,,,,5ef35f1554cf70092d1997d9,2020-08-10_16h26.16.108,lexical_decision_task_MP,2020.1.3,Linux armv7l,60,,0,0.464265442,-0.294729529,1,0,0,0.9237,button_right,0.9237,1,,,,,,110,WORD,"ID",33,polite,POLITE,m,,,,,,0.464265442,-0.294729529,1,0,0,,0,10,10,49,1,
,,,,,,,,,,,,,,,,,,5ef35f1554cf70092d1997d9,2020-08-10_16h26.16.108,lexical_decision_task_MP,2020.1.3,Linux armv7l,60,,0,-0.565646447,-0.296116553,1,0,0,0.9562,button_left,0.9562,1,,,,,,366,NW,"ID",50,toshel,TOSHEL,z,,,,,,-0.565646447,-0.296116553,1,0,0,,0,11,11,305,1,
,,,,,,,,,,,,,,,,,,5ef35f1554cf70092d1997d9,2020-08-10_16h26.16.108,lexical_decision_task_MP,2020.1.3,Linux armv7l,60,,0,0.46148936,-0.296116553,1,0,0,0.8828,button_right,0.8828,1,,,,,,25,WORD,UN,50,sprint,DOMAIN,m,,,,,,0.46148936,-0.296116553,1,0,0,,0,12,12,204,1,
,,,,,,,,,,,,,,,,,,5ef35f1554cf70092d1997d9,2020-08-10_16h26.16.108,lexical_decision_task_MP,2020.1.3,Linux armv7l,60,,0,0.462877401,-0.294729529,1,0,0,0.9877,button_right,0.9877,1,,,,,,71,WORD,"ID",33,garden,GARDEN,m,,,,,,0.462877401,-0.294729529,1,0,0,,0,13,13,10,1,
,,,,,,,,,,,,,,,,,,5ef35f1554cf70092d1997d9,2020-08-10_16h26.16.108,lexical_decision_task_MP,2020.1.3,Linux armv7l,60,,0,0.464265442,-0.294729529,1,0,0,0.9708,button_right,0.9708,1,,,,,,11,WORD,UN,50,amount,CRUISE,m,,,,,,0.464265442,-0.294729529,1,0,0,,0,14,14,190,1,
,,,,,,,,,,,,,,,,,,5ef35f1554cf70092d1997d9,2020-08-10_16h26.16.108,lexical_decision_task_MP,2020.1.3,Linux armv7l,60,,0,0.465653483,-0.294729529,1,0,0,1.0877,button_right,1.0877,0,,,,,,471,NW,UN,33,cigney,NOBEST,z,,,,,,0.465653483,-0.294729529,1,0,0,,0,15,15,410,1,
,,,,,,,,,,,,,,,,,,5ef35f1554cf70092d1997d9,2020-08-10_16h26.16.108,lexical_decision_task_MP,2020.1.3,Linux armv7l,60,,0,-0.569810528,-0.280859968,1,0,0,1.0381,button_left,1.0381,1,,,,,,445,NW,UN,33,runamo,MINKEL,z,,,,,,-0.569810528,-0.280859968,1,0,0,,0,16,16,384,1,
,,,,,,,,,,,,,,,,,,5ef35f1554cf70092d1997d9,2020-08-10_16h26.16.108,lexical_decision_task_MP,2020.1.3,Linux armv7l,60,,0,-0.547602166,-0.31692098,1,0,0,1.1693,button_left,1.1693,1,,,,,,410,NW,"ID",50,tunory,TUNORY,z,,,,,,-0.547602166,-0.31692098,1,0,0,,0,17,17,349,1,
,,,,,,,,,,,,,,,,,,5ef35f1554cf70092d1997d9,2020-08-10_16h26.16.108,lexical_decision_task_MP,2020.1.3,Linux armv7l,60,,0,0.453161282,-0.312760078,1,0,0,0.9612,button_right,0.9612,1,,,,,,186,WORD,UN,33,course,PORTAL,m,,,,,,0.453161282,-0.312760078,1,0,0,,0,18,18,125,1,
,,,,,,,,,,,,,,,,,,5ef35f1554cf70092d1997d9,2020-08-10_16h26.16.108,lexical_decision_task_MP,2020.1.3,Linux armv7l,60,,0,0.465653483,-0.300277371,1,0,0,1.0248,button_right,1.0248,1,,,,,,66,WORD,"ID",33,gospel,GOSPEL,m,,,,,,0.465653483,-0.300277371,1,0,0,,0,19,19,5,1,
,,,,,,,,,,,,,,,,,,5ef35f1554cf70092d1997d9,2020-08-10_16h26.16.108,lexical_decision_task_MP,2020.1.3,Linux armv7l,60,,0,0.465653483,-0.298890432,1,0,0,1.1318,button_right,1.1318,1,,,,,,93,WORD,"ID",33,public,PUBLIC,m,,,,,,0.465653483,-0.298890432,1,0,0,,0,20,20,32,1,
,,,,,,,,,,,,,,,,,,5ef35f1554cf70092d1997d9,2020-08-10_16h26.16.108,lexical_decision_task_MP,2020.1.3,Linux armv7l,60,,0,0.465653483,-0.297503493,1,0,0,1.0409,button_right,1.0409,1,,,,,,55,WORD,UN,50,ambush,STROKE,m,,,,,,0.465653483,-0.297503493,1,0,0,,0,21,21,234,1,
,,,,,,,,,,,,,,,,,,5ef35f1554cf70092d1997d9,2020-08-10_16h26.16.108,lexical_decision_task_MP,2020.1.3,Linux armv7l,60,,0,-0.540662087,-0.314147017,1,0,0,0.9724,button_left,0.9724,1,,,,,,266,NW,UN,50,pasink,VARMIT,z,,,,,,-0.540662087,-0.314147017,1,0,0,,0,22,22,445,1,
,,,,,,,,,,,,,,,,,,5ef35f1554cf70092d1997d9,2020-08-10_16h26.16.108,lexical_decision_task_MP,2020.1.3,Linux armv7l,60,,0,-0.542050086,-0.314147017,1,0,0,1.0779,button_left,1.0779,1,,,,,,297,NW,UN,50,piergy,FERTIC,z,,,,,,-0.542050086,-0.314147017,1,0,0,,0,23,23,476,1,
,,,,,,,,,,,,,,,,,,5ef35f1554cf70092d1997d9,2020-08-10_16h26.16.108,lexical_decision_task_MP,2020.1.3,Linux armv7l,60,,0,0.464265442,-0.287794749,1,0,0,1.1088,button_right,1.1088,1,,,,,,87,WORD,"ID",33,filter,FILTER,m,,,,,,0.464265442,-0.287794749,1,0,0,,0,24,24,26,1,
,,,,,,,,,,,,,,,,,,5ef35f1554cf70092d1997d9,2020-08-10_16h26.16.108,lexical_decision_task_MP,2020.1.3,Linux armv7l,60,,0,0.437892999,-0.35436893,1,0,0,1.0061,button_right,1.0061,1,,,,,,196,WORD,UN,33,stream,CREDIT,m,,,,,,0.437892999,-0.35436893,1,0,0,,0,25,25,135,1,
,,,,,,,,,,,,,,,,,,5ef35f1554cf70092d1997d9,2020-08-10_16h26.16.108,lexical_decision_task_MP,2020.1.3,Linux armv7l,60,,0,,,,,,,,1.0061,-1,,,,,,127,WORD,"ID",50,castle,CASTLE,m,,,,,,0.46148936,-0.297503493,0,0,0,,0,26,26,66,1,
,,,,,,,,,,,,,,,,,,5ef35f1554cf70092d1997d9,2020-08-10_16h26.16.108,lexical_decision_task_MP,2020.1.3,Linux armv7l,60,,0,,,,,,,,1.0061,-1,,,,,,455,NW,UN,33,broget,TONDLE,z,,,,,,-0.494857364,-0.309986115,0,0,0,,0,27,27,394,1,
,,,,,,,,,,,,,,,,,,5ef35f1554cf70092d1997d9,2020-08-10_16h26.16.108,lexical_decision_task_MP,2020.1.3,Linux armv7l,60,,0,,,,,,,,1.0061,-1,,,,,,123,WORD,"ID",50,strike,STRIKE,m,,,,,,0.455937364,-0.278086005,0,0,0,,0,28,28,62,1,
,,,,,,,,,,,,,,,,,,5ef35f1554cf70092d1997d9,2020-08-10_16h26.16.108,lexical_decision_task_MP,2020.1.3,Linux armv7l,60,,0,0.424012756,-0.303051334,1,0,0,0.7648,button_right,0.7648,1,,,,,,120,WORD,"ID",33,strain,STRAIN,m,,,,,,0.424012756,-0.303051334,1,0,0,,0,29,29,59,1,
,,,,,,,,,,,,,,,,,,5ef35f1554cf70092d1997d9,2020-08-10_16h26.16.108,lexical_decision_task_MP,2020.1.3,Linux armv7l,60,,0,0.442057122,-0.322468821,1,0,0,0.672,button_right,0.672,1,,,,,,174,WORD,"ID",50,turkey,TURKEY,m,,,,,,0.442057122,-0.322468821,1,0,0,,0,30,30,113,1,
,,,,,,,,,,,,,,,,,,5ef35f1554cf70092d1997d9,2020-08-10_16h26.16.108,lexical_decision_task_MP,2020.1.3,Linux armv7l,60,,0,-0.500409444,-0.296116553,1,0,0,0.7135,button_left,0.7135,1,,,,,,428,NW,UN,33,funtle,TANDLY,z,,,,,,-0.500409444,-0.296116553,1,0,0,,0,31,31,367,1,
,,,,,,,,,,,,,,,,,,5ef35f1554cf70092d1997d9,2020-08-10_16h26.16.108,lexical_decision_task_MP,2020.1.3,Linux armv7l,60,,0,0.454549323,-0.32385576,1,0,0,0.7156,button_right,0.7156,0,,,,,,468,NW,UN,33,padifs,WICTOR,z,,,,,,0.454549323,-0.32385576,1,0,0,,0,32,32,407,1,
,,,,,,,,,,,,,,,,,,5ef35f1554cf70092d1997d9,2020-08-10_16h26.16.108,lexical_decision_task_MP,2020.1.3,Linux armv7l,60,,0,0.483697679,-0.304438273,1,0,0,0.6062,button_right,0.6062,1,,,,,,39,WORD,UN,50,convey,INSECT,m,,,,,,0.483697679,-0.304438273,1,0,0,,0,33,33,218,1,
,,,,,,,,,,,,,,,,,,5ef35f1554cf70092d1997d9,2020-08-10_16h26.16.108,lexical_decision_task_MP,2020.1.3,Linux armv7l,60,,0,-0.533721966,-0.3252427,1,0,0,0.7442,button_left,0.7442,1,,,,,,352,NW,"ID",33,tringe,TRINGE,z,,,,,,-0.533721966,-0.3252427,1,0,0,,0,34,34,291,1,
,,,,,,,,,,,,,,,,,,5ef35f1554cf70092d1997d9,2020-08-10_16h26.16.108,lexical_decision_task_MP,2020.1.3,Linux armv7l,60,,0,0.468429396,-0.322468821,1,0,0,0.5745,button_right,0.5745,1,,,,,,73,WORD,"ID",33,source,SOURCE,m,,,,,,0.468429396,-0.322468821,1,0,0,,0,35,35,12,1,
,,,,,,,,,,,,,,,,,,5ef35f1554cf70092d1997d9,2020-08-10_16h26.16.108,lexical_decision_task_MP,2020.1.3,Linux armv7l,60,,0,0.468429396,-0.322468821,1,0,0,0.8244,button_right,0.8244,0,,,,,,268,NW,UN,50,orchet,PACKES,z,,,,,,0.468429396,-0.322468821,1,0,0,,0,36,36,447,1,
,,,,,,,,,,,,,,,,,,5ef35f1554cf70092d1997d9,2020-08-10_16h26.16.108,lexical_decision_task_MP,2020.1.3,Linux armv7l,60,,0,0.468429396,-0.322468821,1,0,0,0.6124,button_right,0.6124,1,,,,,,144,WORD,"ID",50,sponge,SPONGE,m,,,,,,0.468429396,-0.322468821,1,0,0,,0,37,37,83,1,
,,,,,,,,,,,,,,,,,,5ef35f1554cf70092d1997d9,2020-08-10_16h26.16.108,lexical_decision_task_MP,2020.1.3,Linux armv7l,60,,0,0.482309638,-0.311373138,1,0,0,0.5536,button_right,0.5536,0,,,,,,335,NW,"ID",33,desion,DESION,z,,,,,,0.482309638,-0.311373138,1,0,0,,0,38,38,274,1,
,,,,,,,,,,,,,,,,,,5ef35f1554cf70092d1997d9,2020-08-10_16h26.16.108,lexical_decision_task_MP,2020.1.3,Linux armv7l,60,,0,-0.519841766,-0.307212236,1,0,0,0.749,button_left,0.749,1,,,,,,316,NW,"ID",33,scregm,SCREGM,z,,,,,,-0.519841766,-0.307212236,1,0,0,,0,39,39,255,1,
,,,,,,,,,,,,,,,,,,5ef35f1554cf70092d1997d9,2020-08-10_16h26.16.108,lexical_decision_task_MP,2020.1.3,Linux armv7l,60,,0,0.473981561,-0.31692098,1,0,0,0.6154,button_right,0.6154,1,,,,,,138,WORD,"ID",50,melody,MELODY,m,,,,,,0.473981561,-0.31692098,1,0,0,,0,40,40,77,1,
,,,,,,,,,,,,,,,,,,5ef35f1554cf70092d1997d9,2020-08-10_16h26.16.108,lexical_decision_task_MP,2020.1.3,Linux armv7l,60,,0,0.475369602,-0.31692098,1,0,0,0.6021,button_right,0.6021,1,,,,,,209,WORD,UN,33,monkey,SEARCH,m,,,,,,0.475369602,-0.31692098,1,0,0,,0,41,41,148,1,
,,,,,,,,,,,,,,,,,,5ef35f1554cf70092d1997d9,2020-08-10_16h26.16.108,lexical_decision_task_MP,2020.1.3,Linux armv7l,60,,0,-0.546214167,-0.294729529,1,0,0,0.8653,button_left,0.8653,1,,,,,,275,NW,UN,50,yarmon,SLEIRT,z,,,,,,-0.546214167,-0.294729529,1,0,0,,0,42,42,454,1,
,,,,,,,,,,,,,,,,,,5ef35f1554cf70092d1997d9,2020-08-10_16h26.16.108,lexical_decision_task_MP,2020.1.3,Linux armv7l,60,,0,-0.544826126,-0.296116553,1,0,0,0.7096,button_left,0.7096,0,,,,,,176,WORD,"ID",50,strife,STRIFE,m,,,,,,-0.544826126,-0.296116553,1,0,0,,0,43,43,115,1,
,,,,,,,,,,,,,,,,,,5ef35f1554cf70092d1997d9,2020-08-10_16h26.16.108,lexical_decision_task_MP,2020.1.3,Linux armv7l,60,,0,0.483697679,-0.318307919,1,0,0,0.609,button_right,0.609,1,,,,,,152,WORD,"ID",50,rocket,ROCKET,m,,,,,,0.483697679,-0.318307919,1,0,0,,0,44,44,91,1,
,,,,,,,,,,,,,,,,,,5ef35f1554cf70092d1997d9,2020-08-10_16h26.16.108,lexical_decision_task_MP,2020.1.3,Linux armv7l,60,,0,0.483697679,-0.31692098,1,0,0,0.5834,button_right,0.5834,1,,,,,,205,WORD,UN,33,tailor,LOUNGE,m,,,,,,0.483697679,-0.31692098,1,0,0,,0,45,45,144,1,
,,,,,,,,,,,,,,,,,,5ef35f1554cf70092d1997d9,2020-08-10_16h26.16.108,lexical_decision_task_MP,2020.1.3,Linux armv7l,60,,0,-0.562870407,-0.294729529,1,0,0,0.9,button_left,0.9,1,,,,,,420,NW,"ID",50,gushop,GUSHOP,z,,,,,,-0.562870407,-0.294729529,1,0,0,,0,46,46,359,1,
,,,,,,,,,,,,,,,,,,5ef35f1554cf70092d1997d9,2020-08-10_16h26.16.108,lexical_decision_task_MP,2020.1.3,Linux armv7l,60,,0,0.480921597,-0.319694858,1,0,0,0.5984,button_right,0.5984,1,,,,,,23,WORD,UN,50,praise,WEALTH,m,,,,,,0.480921597,-0.319694858,1,0,0,,0,47,47,202,1,
,,,,,,,,,,,,,,,,,,5ef35f1554cf70092d1997d9,2020-08-10_16h26.16.108,lexical_decision_task_MP,2020.1.3,Linux armv7l,60,,0,0.482309638,-0.318307919,1,0,0,0.5197,button_right,0.5197,1,,,,,,67,WORD,"ID",33,policy,POLICY,m,,,,,,0.482309638,-0.318307919,1,0,0,,0,48,48,6,1,
,,,,,,,,,,,,,,,,,,5ef35f1554cf70092d1997d9,2020-08-10_16h26.16.108,lexical_decision_task_MP,2020.1.3,Linux armv7l,60,,0,0.482309638,-0.318307919,1,0,0,0.6179,button_right,0.6179,1,,,,,,50,WORD,UN,50,hungry,SNATCH,m,,,,,,0.482309638,-0.318307919,1,0,0,,0,49,49,229,1,
,,,,,,,,,,,,,,,,,,5ef35f1554cf70092d1997d9,2020-08-10_16h26.16.108,lexical_decision_task_MP,2020.1.3,Linux armv7l,60,,0,-0.558706368,-0.304438273,1,0,0,0.7464,button_left,0.7464,1,,,,,,470,NW,UN,33,nobest,CRUDIO,z,,,,,,-0.558706368,-0.304438273,1,0,0,,0,50,50,409,1,
,,,,,,,,,,,,,,,,,,5ef35f1554cf70092d1997d9,2020-08-10_16h26.16.108,lexical_decision_task_MP,2020.1.3,Linux armv7l,60,,0,-0.558706368,-0.304438273,1,0,0,0.7647,button_left,0.7647,1,,,,,,403,NW,"ID",50,bruats,BRUATS,z,,,,,,-0.558706368,-0.304438273,1,0,0,,0,51,51,342,1,
,,,,,,,,,,,,,,,,,,5ef35f1554cf70092d1997d9,2020-08-10_16h26.16.108,lexical_decision_task_MP,2020.1.3,Linux armv7l,60,,0,0.48508572,-0.315534041,1,0,0,0.7265,button_right,0.7265,1,,,,,,125,WORD,"ID",50,nickel,NICKEL,m,,,,,,0.48508572,-0.315534041,1,0,0,,0,52,52,64,1,
,,,,,,,,,,,,,,,,,,5ef35f1554cf70092d1997d9,2020-08-10_16h26.16.108,lexical_decision_task_MP,2020.1.3,Linux armv7l,60,,0,-0.550378248,-0.312760078,1,0,0,0.7963,button_left,0.7963,1,,,,,,319,NW,"ID",33,zomber,ZOMBER,z,,,,,,-0.550378248,-0.312760078,1,0,0,,0,53,53,258,1,
,,,,,,,,,,,,,,,,,,5ef35f1554cf70092d1997d9,2020-08-10_16h26.16.108,lexical_decision_task_MP,2020.1.3,Linux armv7l,60,,0,0.475369602,-0.322468821,1,0,0,0.5798,button_right,0.5798,1,,,,,,148,WORD,"ID",50,custom,CUSTOM,m,,,,,,0.475369602,-0.322468821,1,0,0,,0,54,54,87,1,
,,,,,,,,,,,,,,,,,,5ef35f1554cf70092d1997d9,2020-08-10_16h26.16.108,lexical_decision_task_MP,2020.1.3,Linux armv7l,60,,0,0.487861803,-0.312760078,1,0,0,0.5675,button_right,0.5675,1,,,,,,78,WORD,"ID",33,column,COLUMN,m,,,,,,0.487861803,-0.312760078,1,0,0,,0,55,55,17,1,
,,,,,,,,,,,,,,,,,,5ef35f1554cf70092d1997d9,2020-08-10_16h26.16.108,lexical_decision_task_MP,2020.1.3,Linux armv7l,60,,0,0.486473762,-0.312760078,1,0,0,0.7692,button_right,0.7692,1,,,,,,54,WORD,UN,50,stroke,RAMBLE,m,,,,,,0.486473762,-0.312760078,1,0,0,,0,56,56,233,1,
,,,,,,,,,,,,,,,,,,5ef35f1554cf70092d1997d9,2020-08-10_16h26.16.108,lexical_decision_task_MP,2020.1.3,Linux armv7l,60,,0,0.486473762,-0.312760078,1,0,0,0.5155,button_right,0.5155,1,,,,,,189,WORD,UN,33,backup,CENSOR,m,,,,,,0.486473762,-0.312760078,1,0,0,,0,57,57,128,1,
,,,,,,,,,,,,,,,,,,5ef35f1554cf70092d1997d9,2020-08-10_16h26.16.108,lexical_decision_task_MP,2020.1.3,Linux armv7l,60,,0,0.486473762,-0.311373138,1,0,0,0.5776,button_right,0.5776,1,,,,,,58,WORD,UN,50,splint,FOSTER,m,,,,,,0.486473762,-0.311373138,1,0,0,,0,58,58,237,1,
,,,,,,,,,,,,,,,,,,5ef35f1554cf70092d1997d9,2020-08-10_16h26.16.108,lexical_decision_task_MP,2020.1.3,Linux armv7l,60,,0,-0.547602166,-0.312760078,1,0,0,0.9461,button_left,0.9461,1,,,,,,469,NW,UN,33,crudio,PADIFS,z,,,,,,-0.547602166,-0.312760078,1,0,0,,0,59,59,408,1,
,,,,,,,,,,,,,,,,,,5ef35f1554cf70092d1997d9,2020-08-10_16h26.16.108,lexical_decision_task_MP,2020.1.3,Linux armv7l,60,,0,0.476757643,-0.31692098,1,0,0,0.8707,button_right,0.8707,0,,,,,,360,NW,"ID",33,desory,DESORY,z,,,,,,0.476757643,-0.31692098,1,0,0,,0,60,60,299,1,
,,,,,,,,,,,,,,,,,,5ef35f1554cf70092d1997d9,2020-08-10_16h26.16.108,lexical_decision_task_MP,2020.1.3,Linux armv7l,60,,0,0.476757643,-0.31692098,1,0,0,0.7169,button_right,0.7169,1,,,,,,137,WORD,"ID",50,finger,FINGER,m,,,,,,0.476757643,-0.31692098,1,0,0,,0,61,61,76,1,
,,,,,,,,,,,,,,,,,,5ef35f1554cf70092d1997d9,2020-08-10_16h26.16.108,lexical_decision_task_MP,2020.1.3,Linux armv7l,60,,0,0.476757643,-0.31692098,1,0,0,0.9332,button_right,0.9332,1,,,,,,183,WORD,UN,33,sleazy,MILDEW,m,,,,,,0.476757643,-0.31692098,1,0,0,,0,62,62,122,1,
,,,,,,,,,,,,,,,,,,5ef35f1554cf70092d1997d9,2020-08-10_16h26.16.108,lexical_decision_task_MP,2020.1.3,Linux armv7l,60,,0,0.476757643,-0.31692098,1,0,0,0.5677,button_right,0.5677,1,,,,,,95,WORD,"ID",33,thread,THREAD,m,,,,,,0.476757643,-0.31692098,1,0,0,,0,63,63,34,1,
,,,,,,,,,,,,,,,,,,5ef35f1554cf70092d1997d9,2020-08-10_16h26.16.108,lexical_decision_task_MP,2020.1.3,Linux armv7l,60,,0,-0.551766247,-0.318307919,1,0,0,0.798,button_left,0.798,1,,,,,,459,NW,UN,33,mingar,BAFENT,z,,,,,,-0.551766247,-0.318307919,1,0,0,,0,64,64,398,1,
,,,,,,,,,,,,,,,,,,5ef35f1554cf70092d1997d9,2020-08-10_16h26.16.108,lexical_decision_task_MP,2020.1.3,Linux armv7l,60,,0,-0.550378248,-0.318307919,1,0,0,0.7257,button_left,0.7257,1,,,,,,258,NW,UN,50,soudal,POLUTH,z,,,,,,-0.550378248,-0.318307919,1,0,0,,0,65,65,437,1,
,,,,,,,,,,,,,,,,,,5ef35f1554cf70092d1997d9,2020-08-10_16h26.16.108,lexical_decision_task_MP,2020.1.3,Linux armv7l,60,,0,0.471205478,-0.314147017,1,0,0,0.6494,button_right,0.6494,1,,,,,,121,WORD,"ID",50,thrive,THRIVE,m,,,,,,0.471205478,-0.314147017,1,0,0,,0,66,66,60,1,
,,,,,,,,,,,,,,,,,,5ef35f1554cf70092d1997d9,2020-08-10_16h26.16.108,lexical_decision_task_MP,2020.1.3,Linux armv7l,60,,0,0.471205478,-0.314147017,1,0,0,0.6175,button_right,0.6175,1,,,,,,102,WORD,"ID",33,direct,DIRECT,m,,,,,,0.471205478,-0.314147017,1,0,0,,0,67,67,41,1,
,,,,,,,,,,,,,,,,,,5ef35f1554cf70092d1997d9,2020-08-10_16h26.16.108,lexical_decision_task_MP,2020.1.3,Linux armv7l,60,,0,-0.543438127,-0.318307919,1,0,0,0.7237,button_left,0.7237,1,,,,,,325,NW,"ID",33,thruse,THRUSE,z,,,,,,-0.543438127,-0.318307919,1,0,0,,0,68,68,264,1,
,,,,,,,,,,,,,,,,,,5ef35f1554cf70092d1997d9,2020-08-10_16h26.16.108,lexical_decision_task_MP,2020.1.3,Linux armv7l,60,,0,0.467041524,-0.321081882,1,0,0,0.9878,button_right,0.9878,0,,,,,,289,NW,UN,50,splino,STARBY,z,,,,,,0.467041524,-0.321081882,1,0,0,,0,69,69,468,1,
,,,,,,,,,,,,,,,,,,5ef35f1554cf70092d1997d9,2020-08-10_16h26.16.108,lexical_decision_task_MP,2020.1.3,Linux armv7l,60,,0,0.467041524,-0.319694858,1,0,0,0.7643,button_right,0.7643,1,,,,,,65,WORD,"ID",33,symbol,SYMBOL,m,,,,,,0.467041524,-0.319694858,1,0,0,,0,70,70,4,1,
,,,,,,,,,,,,,,,,,,5ef35f1554cf70092d1997d9,2020-08-10_16h26.16.108,lexical_decision_task_MP,2020.1.3,Linux armv7l,60,,0,-0.536498006,-0.326629723,1,0,0,0.7548,button_left,0.7548,1,,,,,,311,NW,"ID",33,sproly,SPROLY,z,,,,,,-0.536498006,-0.326629723,1,0,0,,0,71,71,250,1,
,,,,,,,,,,,,,,,,,,5ef35f1554cf70092d1997d9,2020-08-10_16h26.16.108,lexical_decision_task_MP,2020.1.3,Linux armv7l,60,,0,0.457325236,-0.326629723,1,0,0,0.6506,button_right,0.6506,1,,,,,,139,WORD,"ID",50,debris,DEBRIS,m,,,,,,0.457325236,-0.326629723,1,0,0,,0,72,72,78,1,
,,,,,,,,,,,,,,,,,,5ef35f1554cf70092d1997d9,2020-08-10_16h26.16.108,lexical_decision_task_MP,2020.1.3,Linux armv7l,60,,0,0.469817437,-0.311373138,1,0,0,0.6334,button_right,0.6334,1,,,,,,75,WORD,"ID",33,trophy,TROPHY,m,,,,,,0.469817437,-0.311373138,1,0,0,,0,73,73,14,1,
,,,,,,,,,,,,,,,,,,5ef35f1554cf70092d1997d9,2020-08-10_16h26.16.108,lexical_decision_task_MP,2020.1.3,Linux armv7l,60,,0,-0.533721966,-0.330790626,1,0,0,0.6577,button_left,0.6577,1,,,,,,368,NW,"ID",50,hornal,HORNAL,z,,,,,,-0.533721966,-0.330790626,1,0,0,,0,74,74,307,1,
,,,,,,,,,,,,,,,,,,5ef35f1554cf70092d1997d9,2020-08-10_16h26.16.108,lexical_decision_task_MP,2020.1.3,Linux armv7l,60,,0,-0.533721966,-0.329403602,1,0,0,0.8506,button_left,0.8506,1,,,,,,400,NW,"ID",50,wearox,WEAROX,z,,,,,,-0.533721966,-0.329403602,1,0,0,,0,75,75,339,1,
,,,,,,,,,,,,,,,,,,5ef35f1554cf70092d1997d9,2020-08-10_16h26.16.108,lexical_decision_task_MP,2020.1.3,Linux armv7l,60,,0,0.468429396,-0.315534041,1,0,0,0.6166,button_right,0.6166,1,,,,,,162,WORD,"ID",50,candle,CANDLE,m,,,,,,0.468429396,-0.315534041,1,0,0,,0,76,76,101,1,
,,,,,,,,,,,,,,,,,,5ef35f1554cf70092d1997d9,2020-08-10_16h26.16.108,lexical_decision_task_MP,2020.1.3,Linux armv7l,60,,0,-0.544826126,-0.314147017,1,0,0,1.4768,button_left,1.4768,1,,,,,,284,NW,UN,50,prudge,SHAPLE,z,,,,,,-0.544826126,-0.314147017,1,0,0,,0,77,77,463,1,
,,,,,,,,,,,,,,,,,,5ef35f1554cf70092d1997d9,2020-08-10_16h26.16.108,lexical_decision_task_MP,2020.1.3,Linux armv7l,60,,0,0.475369602,-0.305825297,1,0,0,0.6327,button_right,0.6327,1,,,,,,79,WORD,"ID",33,theory,THEORY,m,,,,,,0.475369602,-0.305825297,1,0,0,,0,78,78,18,1,
,,,,,,,,,,,,,,,,,,5ef35f1554cf70092d1997d9,2020-08-10_16h26.16.108,lexical_decision_task_MP,2020.1.3,Linux armv7l,60,,0,0.464265442,-0.318307919,1,0,0,1.0243,button_right,1.0243,0,,,,,,382,NW,"ID",50,sarley,SARLEY,z,,,,,,0.464265442,-0.318307919,1,0,0,,0,79,79,321,1,
,,,,,,,,,,,,,,,,,,5ef35f1554cf70092d1997d9,2020-08-10_16h26.16.108,lexical_decision_task_MP,2020.1.3,Linux armv7l,60,,0,0.476757643,-0.307212236,1,0,0,0.5619,button_right,0.5619,1,,,,,,9,WORD,UN,50,bridge,HUSTLE,m,,,,,,0.476757643,-0.307212236,1,0,0,,0,80,80,188,1,
,,,,,,,,,,,,,,,,,,5ef35f1554cf70092d1997d9,2020-08-10_16h26.16.108,lexical_decision_task_MP,2020.1.3,Linux armv7l,60,,0,0.457325236,-0.28640781,1,0,0,0.5964,button_right,0.5964,1,,,,,,210,WORD,UN,33,infect,MONKEY,m,,,,,,0.457325236,-0.28640781,1,0,0,,0,81,81,149,1,
,,,,,,,,,,,,,,,,,,5ef35f1554cf70092d1997d9,2020-08-10_16h26.16.108,lexical_decision_task_MP,2020.1.3,Linux armv7l,60,,0,0.457325236,-0.28640781,1,0,0,0.6504,button_right,0.6504,1,,,,,,60,WORD,UN,50,fright,PENCIL,m,,,,,,0.457325236,-0.28640781,1,0,0,,0,82,82,239,1,
,,,,,,,,,,,,,,,,,,5ef35f1554cf70092d1997d9,2020-08-10_16h26.16.108,lexical_decision_task_MP,2020.1.3,Linux armv7l,60,,0,-0.546214167,-0.307212236,1,0,0,0.8784,button_left,0.8784,1,,,,,,429,NW,UN,33,caroey,FUNTLE,z,,,,,,-0.546214167,-0.307212236,1,0,0,,0,83,83,368,1,
,,,,,,,,,,,,,,,,,,5ef35f1554cf70092d1997d9,2020-08-10_16h26.16.108,lexical_decision_task_MP,2020.1.3,Linux armv7l,60,,0,0.469817437,-0.283633847,1,0,0,0.552,button_right,0.552,1,,,,,,37,WORD,UN,50,powder,INSULT,m,,,,,,0.469817437,-0.283633847,1,0,0,,0,84,84,216,1,
,,,,,,,,,,,,,,,,,,5ef35f1554cf70092d1997d9,2020-08-10_16h26.16.108,lexical_decision_task_MP,2020.1.3,Linux armv7l,60,,0,0.469817437,-0.283633847,1,0,0,0.5818,button_right,0.5818,1,,,,,,85,WORD,"ID",33,sprawl,SPRAWL,m,,,,,,0.469817437,-0.283633847,1,0,0,,0,85,85,24,1,
,,,,,,,,,,,,,,,,,,5ef35f1554cf70092d1997d9,2020-08-10_16h26.16.108,lexical_decision_task_MP,2020.1.3,Linux armv7l,60,,0,0.471205478,-0.282246908,1,0,0,0.5997,button_right,0.5997,1,,,,,,107,WORD,"ID",33,slogan,SLOGAN,m,,,,,,0.471205478,-0.282246908,1,0,0,,0,86,86,46,1,
,,,,,,,,,,,,,,,,,,5ef35f1554cf70092d1997d9,2020-08-10_16h26.16.108,lexical_decision_task_MP,2020.1.3,Linux armv7l,60,,0,0.479533725,-0.266990323,1,0,0,0.4822,button_right,0.4822,1,,,,,,128,WORD,"ID",50,senior,SENIOR,m,,,,,,0.479533725,-0.266990323,1,0,0,,0,87,87,67,1,
,,,,,,,,,,,,,,,,,,5ef35f1554cf70092d1997d9,2020-08-10_16h26.16.108,lexical_decision_task_MP,2020.1.3,Linux armv7l,60,,0,0.480921597,-0.266990323,1,0,0,0.5653,button_right,0.5653,1,,,,,,164,WORD,"ID",50,market,MARKET,m,,,,,,0.480921597,-0.266990323,1,0,0,,0,88,88,103,1,
,,,,,,,,,,,,,,,,,,5ef35f1554cf70092d1997d9,2020-08-10_16h26.16.108,lexical_decision_task_MP,2020.1.3,Linux armv7l,60,,0,0.480921597,-0.268377262,1,0,0,0.5567,button_right,0.5567,1,,,,,,215,WORD,UN,33,lumber,PHOBIA,m,,,,,,0.480921597,-0.268377262,1,0,0,,0,89,89,154,1,
,,,,,,,,,,,,,,,,,,5ef35f1554cf70092d1997d9,2020-08-10_16h26.16.108,lexical_decision_task_MP,2020.1.3,Linux armv7l,60,,0,0.480921597,-0.268377262,1,0,0,0.5296,button_right,0.5296,1,,,,,,223,WORD,UN,33,period,KIDNEY,m,,,,,,0.480921597,-0.268377262,1,0,0,,0,90,90,162,1,
,,,,,,,,,,,,,,,,,,5ef35f1554cf70092d1997d9,2020-08-10_16h26.16.108,lexical_decision_task_MP,2020.1.3,Linux armv7l,60,,0,0.480921597,-0.269764201,1,0,0,0.6059,button_right,0.6059,1,,,,,,218,WORD,UN,33,bucket,SHRINK,m,,,,,,0.480921597,-0.269764201,1,0,0,,0,91,91,157,1,
,,,,,,,,,,,,,,,,,,5ef35f1554cf70092d1997d9,2020-08-10_16h26.16.108,lexical_decision_task_MP,2020.1.3,Linux armv7l,60,,0,0.480921597,-0.271151225,1,0,0,0.5734,button_right,0.5734,1,,,,,,219,WORD,UN,33,voyage,BUCKET,m,,,,,,0.480921597,-0.271151225,1,0,0,,0,92,92,158,1,
,,,,,,,,,,,,,,,,,,5ef35f1554cf70092d1997d9,2020-08-10_16h26.16.108,lexical_decision_task_MP,2020.1.3,Linux armv7l,60,,0,0.480921597,-0.271151225,1,0,0,0.5663,button_right,0.5663,1,,,,,,89,WORD,"ID",33,permit,PERMIT,m,,,,,,0.480921597,-0.271151225,1,0,0,,0,93,93,28,1,
,,,,,,,,,,,,,,,,,,5ef35f1554cf70092d1997d9,2020-08-10_16h26.16.108,lexical_decision_task_MP,2020.1.3,Linux armv7l,60,,0,,,,,,,,0.5663,-1,,,,,,474,NW,UN,33,acrise,HABLIN,z,,,,,,-0.550378248,-0.307212236,0,0,0,,0,94,94,413,1,
,,,,,,,,,,,,,,,,,,5ef35f1554cf70092d1997d9,2020-08-10_16h26.16.108,lexical_decision_task_MP,2020.1.3,Linux armv7l,60,,0,0.460101318,-0.296116553,1,0,0,0.7428,button_right,0.7428,1,,,,,,70,WORD,"ID",33,square,SQUARE,m,,,,,,0.460101318,-0.296116553,1,0,0,,0,95,95,9,1,
,,,,,,,,,,,,,,,,,,5ef35f1554cf70092d1997d9,2020-08-10_16h26.16.108,lexical_decision_task_MP,2020.1.3,Linux armv7l,60,,0,0.472593519,-0.279472944,1,0,0,0.4626,button_right,0.4626,0,,,,,,431,NW,UN,33,lunker,CHRUMS,z,,,,,,0.472593519,-0.279472944,1,0,0,,0,96,96,370,1,
,,,,,,,,,,,,,,,,,,5ef35f1554cf70092d1997d9,2020-08-10_16h26.16.108,lexical_decision_task_MP,2020.1.3,Linux armv7l,60,,0,-0.561482408,-0.31692098,1,0,0,1.2617,button_left,1.2617,1,,,,,,299,NW,UN,50,yarion,STURCH,z,,,,,,-0.561482408,-0.31692098,1,0,0,,0,97,97,478,1,
,,,,,,,,,,,,,,,,,,5ef35f1554cf70092d1997d9,2020-08-10_16h26.16.108,lexical_decision_task_MP,2020.1.3,Linux armv7l,60,,0,0.462877401,-0.296116553,1,0,0,0.6526,button_right,0.6526,1,,,,,,43,WORD,UN,50,foster,TONGUE,m,,,,,,0.462877401,-0.296116553,1,0,0,,0,98,98,222,1,
,,,,,,,,,,,,,,,,,,5ef35f1554cf70092d1997d9,2020-08-10_16h26.16.108,lexical_decision_task_MP,2020.1.3,Linux armv7l,60,,0,-0.539274046,-0.322468821,1,0,0,0.7346,button_left,0.7346,1,,,,,,387,NW,"ID",50,gronce,GRONCE,z,,,,,,-0.539274046,-0.322468821,1,0,0,,0,99,99,326,1,
,,,,,,,,,,,,,,,,,,5ef35f1554cf70092d1997d9,2020-08-10_16h26.16.108,lexical_decision_task_MP,2020.1.3,Linux armv7l,60,,0,0.475369602,-0.297503493,1,0,0,0.782,button_right,0.782,1,,,,,,4,WORD,UN,50,plunge,TRENCH,m,,,,,,0.475369602,-0.297503493,1,0,0,,0,100,100,183,1,
,,,,,,,,,,,,,,,,,,5ef35f1554cf70092d1997d9,2020-08-10_16h26.16.108,lexical_decision_task_MP,2020.1.3,Linux armv7l,60,,0,0.475369602,-0.297503493,1,0,0,1.1104,button_right,1.1104,0,,,,,,392,NW,"ID",50,rouncy,ROUNCY,z,,,,,,0.475369602,-0.297503493,1,0,0,,0,101,101,331,1,
,,,,,,,,,,,,,,,,,,5ef35f1554cf70092d1997d9,2020-08-10_16h26.16.108,lexical_decision_task_MP,2020.1.3,Linux armv7l,60,,0,-0.524005805,-0.32385576,1,0,0,0.7724,button_left,0.7724,1,,,,,,472,NW,UN,33,gorbie,CIGNEY,z,,,,,,-0.524005805,-0.32385576,1,0,0,,0,102,102,411,1,
,,,,,,,,,,,,,,,,,,5ef35f1554cf70092d1997d9,2020-08-10_16h26.16.108,lexical_decision_task_MP,2020.1.3,Linux armv7l,60,,0,-0.497633404,-0.307212236,1,0,0,0.7393,button_left,0.7393,1,,,,,,427,NW,UN,33,tandly,SCHIND,z,,,,,,-0.497633404,-0.307212236,1,0,0,,0,103,103,366,1,
,,,,,,,,,,,,,,,,,,5ef35f1554cf70092d1997d9,2020-08-10_16h26.16.108,lexical_decision_task_MP,2020.1.3,Linux armv7l,60,,0,0.468429396,-0.298890432,1,0,0,0.6392,button_right,0.6392,1,,,,,,136,WORD,"ID",50,bleach,BLEACH,m,,,,,,0.468429396,-0.298890432,1,0,0,,0,104,104,75,1,
,,,,,,,,,,,,,,,,,,5ef35f1554cf70092d1997d9,2020-08-10_16h26.16.108,lexical_decision_task_MP,2020.1.3,Linux armv7l,60,,0,0.468429396,-0.298890432,1,0,0,0.6045,button_right,0.6045,1,,,,,,224,WORD,UN,33,vulgar,PERIOD,m,,,,,,0.468429396,-0.298890432,1,0,0,,0,105,105,163,1,
,,,,,,,,,,,,,,,,,,5ef35f1554cf70092d1997d9,2020-08-10_16h26.16.108,lexical_decision_task_MP,2020.1.3,Linux armv7l,60,,0,0.478145684,-0.285020786,1,0,0,0.62,button_right,0.62,1,,,,,,3,WORD,UN,50,trench,KNIGHT,m,,,,,,0.478145684,-0.285020786,1,0,0,,0,106,106,182,1,
,,,,,,,,,,,,,,,,,,5ef35f1554cf70092d1997d9,2020-08-10_16h26.16.108,lexical_decision_task_MP,2020.1.3,Linux armv7l,60,,0,0.478145684,-0.285020786,1,0,0,0.6176,button_right,0.6176,1,,,,,,68,WORD,"ID",33,fumble,FUMBLE,m,,,,,,0.478145684,-0.285020786,1,0,0,,0,107,107,7,1,
,,,,,,,,,,,,,,,,,,5ef35f1554cf70092d1997d9,2020-08-10_16h26.16.108,lexical_decision_task_MP,2020.1.3,Linux armv7l,60,,0,0.478145684,-0.285020786,1,0,0,0.602,button_right,0.602,0,,,,,,438,NW,UN,33,limpor,BAITCH,z,,,,,,0.478145684,-0.285020786,1,0,0,,0,108,108,377,1,
,,,,,,,,,,,,,,,,,,5ef35f1554cf70092d1997d9,2020-08-10_16h26.16.108,lexical_decision_task_MP,2020.1.3,Linux armv7l,60,,0,0.476757643,-0.28640781,1,0,0,0.7485,button_right,0.7485,1,,,,,,194,WORD,UN,33,resign,ABSENT,m,,,,,,0.476757643,-0.28640781,1,0,0,,0,109,109,133,1,
,,,,,,,,,,,,,,,,,,5ef35f1554cf70092d1997d9,2020-08-10_16h26.16.108,lexical_decision_task_MP,2020.1.3,Linux armv7l,60,,0,0.468429396,-0.298890432,1,0,0,0.7014,button_right,0.7014,1,,,,,,24,WORD,UN,50,domain,PRAISE,m,,,,,,0.468429396,-0.298890432,1,0,0,,0,110,110,203,1,
,,,,,,,,,,,,,,,,,,5ef35f1554cf70092d1997d9,2020-08-10_16h26.16.108,lexical_decision_task_MP,2020.1.3,Linux armv7l,60,,0,-0.510125605,-0.339112345,1,0,0,0.8728,button_left,0.8728,1,,,,,,315,NW,"ID",33,laston,LASTON,z,,,,,,-0.510125605,-0.339112345,1,0,0,,0,111,111,254,1,
,,,,,,,,,,,,,,,,,,5ef35f1554cf70092d1997d9,2020-08-10_16h26.16.108,lexical_decision_task_MP,2020.1.3,Linux armv7l,60,,0,0.476757643,-0.285020786,1,0,0,0.4758,button_right,0.4758,0,,,,,,305,NW,"ID",33,forgle,FORGLE,z,,,,,,0.476757643,-0.285020786,1,0,0,,0,112,112,244,1,
,,,,,,,,,,,,,,,,,,5ef35f1554cf70092d1997d9,2020-08-10_16h26.16.108,lexical_decision_task_MP,2020.1.3,Linux armv7l,60,,0,0.475369602,-0.285020786,1,0,0,0.7125,button_right,0.7125,0,,,,,,454,NW,UN,33,tondle,SCOUGE,z,,,,,,0.475369602,-0.285020786,1,0,0,,0,113,113,393,1,
,,,,,,,,,,,,,,,,,,5ef35f1554cf70092d1997d9,2020-08-10_16h26.16.108,lexical_decision_task_MP,2020.1.3,Linux armv7l,60,,0,0.475369602,-0.285020786,1,0,0,0.5147,button_right,0.5147,1,,,,,,135,WORD,"ID",50,import,IMPORT,m,,,,,,0.475369602,-0.285020786,1,0,0,,0,114,114,74,1,
,,,,,,,,,,,,,,,,,,5ef35f1554cf70092d1997d9,2020-08-10_16h26.16.108,lexical_decision_task_MP,2020.1.3,Linux armv7l,60,,0,0.475369602,-0.285020786,1,0,0,0.5819,button_right,0.5819,1,,,,,,133,WORD,"ID",50,chrome,CHROME,m,,,,,,0.475369602,-0.285020786,1,0,0,,0,115,115,72,1,
,,,,,,,,,,,,,,,,,,5ef35f1554cf70092d1997d9,2020-08-10_16h26.16.108,lexical_decision_task_MP,2020.1.3,Linux armv7l,60,,0,0.475369602,-0.285020786,1,0,0,0.535,button_right,0.535,1,,,,,,81,WORD,"ID",33,friend,FRIEND,m,,,,,,0.475369602,-0.285020786,1,0,0,,0,116,116,20,1,
,,,,,,,,,,,,,,,,,,5ef35f1554cf70092d1997d9,2020-08-10_16h26.16.108,lexical_decision_task_MP,2020.1.3,Linux armv7l,60,,0,0.475369602,-0.285020786,1,0,0,0.665,button_right,0.665,1,,,,,,142,WORD,"ID",50,spruce,SPRUCE,m,,,,,,0.475369602,-0.285020786,1,0,0,,0,117,117,81,1,
,,,,,,,,,,,,,,,,,,5ef35f1554cf70092d1997d9,2020-08-10_16h26.16.108,lexical_decision_task_MP,2020.1.3,Linux armv7l,60,,0,-0.500409444,-0.326629723,1,0,0,0.712,button_left,0.712,1,,,,,,351,NW,"ID",33,tiesch,TIESCH,z,,,,,,-0.500409444,-0.326629723,1,0,0,,0,118,118,290,1,
,,,,,,,,,,,,,,,,,,5ef35f1554cf70092d1997d9,2020-08-10_16h26.16.108,lexical_decision_task_MP,2020.1.3,Linux armv7l,60,,0,0.462877401,-0.304438273,1,0,0,0.6937,button_right,0.6937,1,,,,,,231,WORD,UN,33,inject,EXPORT,m,,,,,,0.462877401,-0.304438273,1,0,0,,0,119,119,170,1,
,,,,,,,,,,,,,,,,,,5ef35f1554cf70092d1997d9,2020-08-10_16h26.16.108,lexical_decision_task_MP,2020.1.3,Linux armv7l,60,,0,-0.464320882,-0.329403602,1,0,0,0.8542,button_left,0.8542,1,,,,,,460,NW,UN,33,justre,MINGAR,z,,,,,,-0.077062904,-0.434812758,1,0,0,,0,120,120,399,1,break_done_button
,,,,,,,,,,,,,,,,,,5ef35f1554cf70092d1997d9,2020-08-10_16h26.16.108,lexical_decision_task_MP,2020.1.3,Linux armv7l,60,,0,0.469817437,-0.294729529,1,0,0,0.8121,button_right,0.8121,1,,,,,,233,WORD,UN,33,clumsy,NATURE,m,,,,,,0.469817437,-0.294729529,1,0,0,,0,121,121,172,1,
,,,,,,,,,,,,,,,,,,5ef35f1554cf70092d1997d9,2020-08-10_16h26.16.108,lexical_decision_task_MP,2020.1.3,Linux armv7l,60,,0,-0.419904243,-0.311373138,1,0,0,0.7523,button_left,0.7523,1,,,,,,356,NW,"ID",33,othnis,OTHNIS,z,,,,,,-0.419904243,-0.311373138,1,0,0,,0,122,122,295,1,
,,,,,,,,,,,,,,,,,,5ef35f1554cf70092d1997d9,2020-08-10_16h26.16.108,lexical_decision_task_MP,2020.1.3,Linux armv7l,60,,0,-0.514289686,-0.280859968,1,0,0,0.8211,button_left,0.8211,1,,,,,,464,NW,UN,33,whivex,CHAITE,z,,,,,,-0.514289686,-0.280859968,1,0,0,,0,123,123,403,1,
,,,,,,,,,,,,,,,,,,5ef35f1554cf70092d1997d9,2020-08-10_16h26.16.108,lexical_decision_task_MP,2020.1.3,Linux armv7l,60,,0,0.46148936,-0.301664395,1,0,0,0.6541,button_right,0.6541,1,,,,,,234,WORD,UN,33,poster,CLUMSY,m,,,,,,0.46148936,-0.301664395,1,0,0,,0,124,124,173,1,
,,,,,,,,,,,,,,,,,,5ef35f1554cf70092d1997d9,2020-08-10_16h26.16.108,lexical_decision_task_MP,2020.1.3,Linux armv7l,60,,0,-0.474037043,-0.321081882,1,0,0,0.8633,button_left,0.8633,1,,,,,,379,NW,"ID",50,auting,AUTING,z,,,,,,-0.474037043,-0.321081882,1,0,0,,0,125,125,318,1,
,,,,,,,,,,,,,,,,,,5ef35f1554cf70092d1997d9,2020-08-10_16h26.16.108,lexical_decision_task_MP,2020.1.3,Linux armv7l,60,,0,0.471205478,-0.294729529,1,0,0,0.7175,button_right,0.7175,0,,,,,,307,NW,"ID",33,kirafe,KIRAFE,z,,,,,,0.471205478,-0.294729529,1,0,0,,0,126,126,246,1,
,,,,,,,,,,,,,,,,,,5ef35f1554cf70092d1997d9,2020-08-10_16h26.16.108,lexical_decision_task_MP,2020.1.3,Linux armv7l,60,,0,0.471205478,-0.294729529,1,0,0,0.553,button_right,0.553,1,,,,,,91,WORD,"ID",33,expand,EXPAND,m,,,,,,0.471205478,-0.294729529,1,0,0,,0,127,127,30,1,
,,,,,,,,,,,,,,,,,,5ef35f1554cf70092d1997d9,2020-08-10_16h26.16.108,lexical_decision_task_MP,2020.1.3,Linux armv7l,60,,0,0.471205478,-0.294729529,1,0,0,0.7181,button_right,0.7181,1,,,,,,168,WORD,"ID",50,answer,ANSWER,m,,,,,,0.471205478,-0.294729529,1,0,0,,0,128,128,107,1,
,,,,,,,,,,,,,,,,,,5ef35f1554cf70092d1997d9,2020-08-10_16h26.16.108,lexical_decision_task_MP,2020.1.3,Linux armv7l,60,,0,-0.499021445,-0.32385576,1,0,0,0.7354,button_left,0.7354,1,,,,,,353,NW,"ID",33,clurey,CLUREY,z,,,,,,-0.499021445,-0.32385576,1,0,0,,0,129,129,292,1,
,,,,,,,,,,,,,,,,,,5ef35f1554cf70092d1997d9,2020-08-10_16h26.16.108,lexical_decision_task_MP,2020.1.3,Linux armv7l,60,,0,-0.499021445,-0.32385576,1,0,0,0.7132,button_left,0.7132,1,,,,,,324,NW,"ID",33,steikh,STEIKH,z,,,,,,-0.499021445,-0.32385576,1,0,0,,0,130,130,263,1,
,,,,,,,,,,,,,,,,,,5ef35f1554cf70092d1997d9,2020-08-10_16h26.16.108,lexical_decision_task_MP,2020.1.3,Linux armv7l,60,,0,0.465653483,-0.305825297,1,0,0,0.7895,button_right,0.7895,0,,,,,,272,NW,UN,50,sortel,DAMILT,z,,,,,,0.465653483,-0.305825297,1,0,0,,0,131,131,451,1,
,,,,,,,,,,,,,,,,,,5ef35f1554cf70092d1997d9,2020-08-10_16h26.16.108,lexical_decision_task_MP,2020.1.3,Linux armv7l,60,,0,0.475369602,-0.29334259,1,0,0,0.7285,button_right,0.7285,0,,,,,,242,NW,UN,50,musied,UNWERT,z,,,,,,0.475369602,-0.29334259,1,0,0,,0,132,132,421,1,
,,,,,,,,,,,,,,,,,,5ef35f1554cf70092d1997d9,2020-08-10_16h26.16.108,lexical_decision_task_MP,2020.1.3,Linux armv7l,60,,0,0.475369602,-0.294729529,1,0,0,0.7774,button_right,0.7774,0,,,,,,416,NW,"ID",50,pathel,PATHEL,z,,,,,,0.475369602,-0.294729529,1,0,0,,0,133,133,355,1,
,,,,,,,,,,,,,,,,,,5ef35f1554cf70092d1997d9,2020-08-10_16h26.16.108,lexical_decision_task_MP,2020.1.3,Linux armv7l,60,,0,0.468429396,-0.308599175,1,0,0,0.6871,button_right,0.6871,1,,,,,,29,WORD,UN,50,orient,SKETCH,m,,,,,,0.468429396,-0.308599175,1,0,0,,0,134,134,208,1,
,,,,,,,,,,,,,,,,,,5ef35f1554cf70092d1997d9,2020-08-10_16h26.16.108,lexical_decision_task_MP,2020.1.3,Linux armv7l,60,,0,0.468429396,-0.307212236,1,0,0,0.6534,button_right,0.6534,1,,,,,,74,WORD,"ID",33,plaque,PLAQUE,m,,,,,,0.468429396,-0.307212236,1,0,0,,0,135,135,13,1,
,,,,,,,,,,,,,,,,,,5ef35f1554cf70092d1997d9,2020-08-10_16h26.16.108,lexical_decision_task_MP,2020.1.3,Linux armv7l,60,,0,0.468429396,-0.307212236,1,0,0,0.9489,button_right,0.9489,1,,,,,,220,WORD,UN,33,mascot,VOYAGE,m,,,,,,0.468429396,-0.307212236,1,0,0,,0,136,136,159,1,
,,,,,,,,,,,,,,,,,,5ef35f1554cf70092d1997d9,2020-08-10_16h26.16.108,lexical_decision_task_MP,2020.1.3,Linux armv7l,60,,0,-0.454604763,-0.336338467,1,0,0,0.8018,button_left,0.8018,1,,,,,,452,NW,UN,33,bolvis,SURDEN,z,,,,,,-0.454604763,-0.336338467,1,0,0,,0,137,137,391,1,
,,,,,,,,,,,,,,,,,,5ef35f1554cf70092d1997d9,2020-08-10_16h26.16.108,lexical_decision_task_MP,2020.1.3,Linux armv7l,60,,0,0.46148936,-0.322468821,1,0,0,0.6555,button_right,0.6555,1,,,,,,131,WORD,"ID",50,quench,QUENCH,m,,,,,,0.46148936,-0.322468821,1,0,0,,0,138,138,70,1,
,,,,,,,,,,,,,,,,,,5ef35f1554cf70092d1997d9,2020-08-10_16h26.16.108,lexical_decision_task_MP,2020.1.3,Linux armv7l,60,,0,0.469817437,-0.307212236,1,0,0,0.6185,button_right,0.6185,1,,,,,,113,WORD,"ID",33,chorus,CHORUS,m,,,,,,0.469817437,-0.307212236,1,0,0,,0,139,139,52,1,
,,,,,,,,,,,,,,,,,,5ef35f1554cf70092d1997d9,2020-08-10_16h26.16.108,lexical_decision_task_MP,2020.1.3,Linux armv7l,60,,0,0.471205478,-0.305825297,1,0,0,0.637,button_right,0.637,1,,,,,,169,WORD,"ID",50,genius,GENIUS,m,,,,,,0.471205478,-0.305825297,1,0,0,,0,140,140,108,1,
,,,,,,,,,,,,,,,,,,5ef35f1554cf70092d1997d9,2020-08-10_16h26.16.108,lexical_decision_task_MP,2020.1.3,Linux armv7l,60,,0,-0.451828723,-0.319694858,1,0,0,0.8325,button_left,0.8325,1,,,,,,371,NW,"ID",50,geiloy,GEILOY,z,,,,,,-0.451828723,-0.319694858,1,0,0,,0,141,141,310,1,
,,,,,,,,,,,,,,,,,,5ef35f1554cf70092d1997d9,2020-08-10_16h26.16.108,lexical_decision_task_MP,2020.1.3,Linux armv7l,60,,0,-0.451828723,-0.318307919,1,0,0,0.7768,button_left,0.7768,1,,,,,,414,NW,"ID",50,serbol,SERBOL,z,,,,,,-0.451828723,-0.318307919,1,0,0,,0,142,142,353,1,
,,,,,,,,,,,,,,,,,,5ef35f1554cf70092d1997d9,2020-08-10_16h26.16.108,lexical_decision_task_MP,2020.1.3,Linux armv7l,60,,0,0.46148936,-0.314147017,1,0,0,0.6534,button_right,0.6534,1,,,,,,46,WORD,UN,50,income,SINGLE,m,,,,,,0.46148936,-0.314147017,1,0,0,,0,143,143,225,1,
,,,,,,,,,,,,,,,,,,5ef35f1554cf70092d1997d9,2020-08-10_16h26.16.108,lexical_decision_task_MP,2020.1.3,Linux armv7l,60,,0,0.46148936,-0.314147017,1,0,0,0.7537,button_right,0.7537,1,,,,,,1,WORD,UN,50,ethnic,FRIGHT,m,,,,,,0.46148936,-0.314147017,1,0,0,,0,144,144,180,1,
,,,,,,,,,,,,,,,,,,5ef35f1554cf70092d1997d9,2020-08-10_16h26.16.108,lexical_decision_task_MP,2020.1.3,Linux armv7l,60,,0,-0.464320882,-0.3252427,1,0,0,0.8142,button_left,0.8142,1,,,,,,265,NW,UN,50,varmit,DISTAR,z,,,,,,-0.464320882,-0.3252427,1,0,0,,0,145,145,444,1,
,,,,,,,,,,,,,,,,,,5ef35f1554cf70092d1997d9,2020-08-10_16h26.16.108,lexical_decision_task_MP,2020.1.3,Linux armv7l,60,,0,-0.464320882,-0.32385576,1,0,0,0.8376,button_left,0.8376,1,,,,,,337,NW,"ID",33,rejols,REJOLS,z,,,,,,-0.464320882,-0.32385576,1,0,0,,0,146,146,276,1,
,,,,,,,,,,,,,,,,,,5ef35f1554cf70092d1997d9,2020-08-10_16h26.16.108,lexical_decision_task_MP,2020.1.3,Linux armv7l,60,,0,-0.464320882,-0.322468821,1,0,0,1.1018,button_left,1.1018,1,,,,,,286,NW,UN,50,nymbel,RELDON,z,,,,,,-0.464320882,-0.322468821,1,0,0,,0,147,147,465,1,
,,,,,,,,,,,,,,,,,,5ef35f1554cf70092d1997d9,2020-08-10_16h26.16.108,lexical_decision_task_MP,2020.1.3,Linux armv7l,60,,0,0.476757643,-0.294729529,1,0,0,0.6325,button_right,0.6325,0,,,,,,314,NW,"ID",33,sprine,SPRINE,z,,,,,,0.476757643,-0.294729529,1,0,0,,0,148,148,253,1,
,,,,,,,,,,,,,,,,,,5ef35f1554cf70092d1997d9,2020-08-10_16h26.16.108,lexical_decision_task_MP,2020.1.3,Linux armv7l,60,,0,-0.479589123,-0.309986115,1,0,0,0.7115,button_left,0.7115,1,,,,,,412,NW,"ID",50,jiluer,JILUER,z,,,,,,-0.479589123,-0.309986115,1,0,0,,0,149,149,351,1,
,,,,,,,,,,,,,,,,,,5ef35f1554cf70092d1997d9,2020-08-10_16h26.16.108,lexical_decision_task_MP,2020.1.3,Linux armv7l,60,,0,-0.496245405,-0.296116553,1,0,0,0.7244,button_left,0.7244,1,,,,,,276,NW,UN,50,petain,YARMON,z,,,,,,-0.496245405,-0.296116553,1,0,0,,0,150,150,455,1,
,,,,,,,,,,,,,,,,,,5ef35f1554cf70092d1997d9,2020-08-10_16h26.16.108,lexical_decision_task_MP,2020.1.3,Linux armv7l,60,,0,-0.496245405,-0.296116553,1,0,0,0.6386,button_left,0.6386,1,,,,,,290,NW,UN,50,pretch,SPLINO,z,,,,,,-0.496245405,-0.296116553,1,0,0,,0,151,151,469,1,
,,,,,,,,,,,,,,,,,,5ef35f1554cf70092d1997d9,2020-08-10_16h26.16.108,lexical_decision_task_MP,2020.1.3,Linux armv7l,60,,0,-0.483753204,-0.304438273,1,0,0,0.8397,button_left,0.8397,1,,,,,,390,NW,"ID",50,hatrus,HATRUS,z,,,,,,-0.483753204,-0.304438273,1,0,0,,0,152,152,329,1,
,,,,,,,,,,,,,,,,,,5ef35f1554cf70092d1997d9,2020-08-10_16h26.16.108,lexical_decision_task_MP,2020.1.3,Linux armv7l,60,,0,0.471205478,-0.301664395,1,0,0,0.5979,button_right,0.5979,1,,,,,,35,WORD,UN,50,vanish,SOCKET,m,,,,,,0.471205478,-0.301664395,1,0,0,,0,153,153,214,1,
,,,,,,,,,,,,,,,,,,5ef35f1554cf70092d1997d9,2020-08-10_16h26.16.108,lexical_decision_task_MP,2020.1.3,Linux armv7l,60,,0,-0.489305284,-0.305825297,1,0,0,0.6646,button_left,0.6646,1,,,,,,329,NW,"ID",33,yarike,YARIKE,z,,,,,,-0.489305284,-0.305825297,1,0,0,,0,154,154,268,1,
,,,,,,,,,,,,,,,,,,5ef35f1554cf70092d1997d9,2020-08-10_16h26.16.108,lexical_decision_task_MP,2020.1.3,Linux armv7l,60,,0,0.467041524,-0.307212236,1,0,0,0.6501,button_right,0.6501,1,,,,,,15,WORD,UN,50,faucet,AMOUNT,m,,,,,,0.467041524,-0.307212236,1,0,0,,0,155,155,194,1,
,,,,,,,,,,,,,,,,,,5ef35f1554cf70092d1997d9,2020-08-10_16h26.16.108,lexical_decision_task_MP,2020.1.3,Linux armv7l,60,,0,-0.496245405,-0.301664395,1,0,0,0.6945,button_left,0.6945,1,,,,,,448,NW,UN,33,brunge,SADENT,z,,,,,,-0.496245405,-0.301664395,1,0,0,,0,156,156,387,1,
,,,,,,,,,,,,,,,,,,5ef35f1554cf70092d1997d9,2020-08-10_16h26.16.108,lexical_decision_task_MP,2020.1.3,Linux armv7l,60,,0,-0.497633404,-0.301664395,1,0,0,0.836,button_left,0.836,1,,,,,,461,NW,UN,33,absult,JUSTRE,z,,,,,,-0.497633404,-0.301664395,1,0,0,,0,157,157,400,1,
,,,,,,,,,,,,,,,,,,5ef35f1554cf70092d1997d9,2020-08-10_16h26.16.108,lexical_decision_task_MP,2020.1.3,Linux armv7l,60,,0,0.482309638,-0.296116553,1,0,0,0.5513,button_right,0.5513,1,,,,,,200,WORD,UN,33,admire,BEACON,m,,,,,,0.482309638,-0.296116553,1,0,0,,0,158,158,139,1,
,,,,,,,,,,,,,,,,,,5ef35f1554cf70092d1997d9,2020-08-10_16h26.16.108,lexical_decision_task_MP,2020.1.3,Linux armv7l,60,,0,-0.485141203,-0.305825297,1,0,0,0.6862,button_left,0.6862,1,,,,,,267,NW,UN,50,packes,PASINK,z,,,,,,-0.485141203,-0.305825297,1,0,0,,0,159,159,446,1,
,,,,,,,,,,,,,,,,,,5ef35f1554cf70092d1997d9,2020-08-10_16h26.16.108,lexical_decision_task_MP,2020.1.3,Linux armv7l,60,,0,-0.485141203,-0.305825297,1,0,0,0.7049,button_left,0.7049,1,,,,,,346,NW,"ID",33,saudic,SAUDIC,z,,,,,,-0.485141203,-0.305825297,1,0,0,,0,160,160,285,1,
,,,,,,,,,,,,,,,,,,5ef35f1554cf70092d1997d9,2020-08-10_16h26.16.108,lexical_decision_task_MP,2020.1.3,Linux armv7l,60,,0,-0.486529244,-0.304438273,1,0,0,0.7082,button_left,0.7082,1,,,,,,256,NW,UN,50,veniod,INLORS,z,,,,,,-0.486529244,-0.304438273,1,0,0,,0,161,161,435,1,
,,,,,,,,,,,,,,,,,,5ef35f1554cf70092d1997d9,2020-08-10_16h26.16.108,lexical_decision_task_MP,2020.1.3,Linux armv7l,60,,0,0.478145684,-0.296116553,1,0,0,0.5918,button_right,0.5918,1,,,,,,51,WORD,UN,50,impose,HUNGRY,m,,,,,,0.478145684,-0.296116553,1,0,0,,0,162,162,230,1,
,,,,,,,,,,,,,,,,,,5ef35f1554cf70092d1997d9,2020-08-10_16h26.16.108,lexical_decision_task_MP,2020.1.3,Linux armv7l,60,,0,-0.493469365,-0.304438273,1,0,0,0.6309,button_left,0.6309,1,,,,,,263,NW,UN,50,vackel,DOLICA,z,,,,,,-0.493469365,-0.304438273,1,0,0,,0,163,163,442,1,
,,,,,,,,,,,,,,,,,,5ef35f1554cf70092d1997d9,2020-08-10_16h26.16.108,lexical_decision_task_MP,2020.1.3,Linux armv7l,60,,0,0.472593519,-0.305825297,1,0,0,0.6173,button_right,0.6173,1,,,,,,149,WORD,"ID",50,invade,INVADE,m,,,,,,0.472593519,-0.305825297,1,0,0,,0,164,164,88,1,
,,,,,,,,,,,,,,,,,,5ef35f1554cf70092d1997d9,2020-08-10_16h26.16.108,lexical_decision_task_MP,2020.1.3,Linux armv7l,60,,0,0.48508572,-0.290568712,1,0,0,0.6343,button_right,0.6343,1,,,,,,31,WORD,UN,50,buckle,WEAPON,m,,,,,,0.48508572,-0.290568712,1,0,0,,0,165,165,210,1,
,,,,,,,,,,,,,,,,,,5ef35f1554cf70092d1997d9,2020-08-10_16h26.16.108,lexical_decision_task_MP,2020.1.3,Linux armv7l,60,,0,0.48508572,-0.290568712,1,0,0,0.7689,button_right,0.7689,1,,,,,,116,WORD,"ID",33,tumble,TUMBLE,m,,,,,,0.48508572,-0.290568712,1,0,0,,0,166,166,55,1,
,,,,,,,,,,,,,,,,,,5ef35f1554cf70092d1997d9,2020-08-10_16h26.16.108,lexical_decision_task_MP,2020.1.3,Linux armv7l,60,,0,-0.479589123,-0.315534041,1,0,0,0.7078,button_left,0.7078,1,,,,,,441,NW,UN,33,aboune,RASTOE,z,,,,,,-0.479589123,-0.315534041,1,0,0,,0,167,167,380,1,
,,,,,,,,,,,,,,,,,,5ef35f1554cf70092d1997d9,2020-08-10_16h26.16.108,lexical_decision_task_MP,2020.1.3,Linux armv7l,60,,0,-0.480977164,-0.314147017,1,0,0,0.6762,button_left,0.6762,1,,,,,,409,NW,"ID",50,elopia,ELOPIA,z,,,,,,-0.480977164,-0.314147017,1,0,0,,0,168,168,348,1,
,,,,,,,,,,,,,,,,,,5ef35f1554cf70092d1997d9,2020-08-10_16h26.16.108,lexical_decision_task_MP,2020.1.3,Linux armv7l,60,,0,-0.482365163,-0.312760078,1,0,0,0.7599,button_left,0.7599,0,,,,,,10,WORD,UN,50,cruise,ETHNIC,m,,,,,,-0.482365163,-0.312760078,1,0,0,,0,169,169,189,1,
,,,,,,,,,,,,,,,,,,5ef35f1554cf70092d1997d9,2020-08-10_16h26.16.108,lexical_decision_task_MP,2020.1.3,Linux armv7l,60,,0,0.482309638,-0.291955651,1,0,0,0.7494,button_right,0.7494,0,,,,,,261,NW,UN,50,quilew,STUNCH,z,,,,,,0.482309638,-0.291955651,1,0,0,,0,170,170,440,1,
,,,,,,,,,,,,,,,,,,5ef35f1554cf70092d1997d9,2020-08-10_16h26.16.108,lexical_decision_task_MP,2020.1.3,Linux armv7l,60,,0,0.482309638,-0.291955651,1,0,0,0.6153,button_right,0.6153,0,,,,,,479,NW,UN,33,crible,LOBUSH,z,,,,,,0.482309638,-0.291955651,1,0,0,,0,171,171,418,1,
,,,,,,,,,,,,,,,,,,5ef35f1554cf70092d1997d9,2020-08-10_16h26.16.108,lexical_decision_task_MP,2020.1.3,Linux armv7l,60,,0,-0.485141203,-0.309986115,1,0,0,0.6923,button_left,0.6923,1,,,,,,421,NW,UN,33,alcoud,KNISMA,z,,,,,,-0.485141203,-0.309986115,1,0,0,,0,172,172,360,1,
,,,,,,,,,,,,,,,,,,5ef35f1554cf70092d1997d9,2020-08-10_16h26.16.108,lexical_decision_task_MP,2020.1.3,Linux armv7l,60,,0,0.482309638,-0.289181688,1,0,0,0.7306,button_right,0.7306,1,,,,,,90,WORD,"ID",33,relish,RELISH,m,,,,,,0.482309638,-0.289181688,1,0,0,,0,173,173,29,1,
,,,,,,,,,,,,,,,,,,5ef35f1554cf70092d1997d9,2020-08-10_16h26.16.108,lexical_decision_task_MP,2020.1.3,Linux armv7l,60,,0,0.483697679,-0.289181688,1,0,0,0.5353,button_right,0.5353,1,,,,,,119,WORD,"ID",33,spider,SPIDER,m,,,,,,0.483697679,-0.289181688,1,0,0,,0,174,174,58,1,
,,,,,,,,,,,,,,,,,,5ef35f1554cf70092d1997d9,2020-08-10_16h26.16.108,lexical_decision_task_MP,2020.1.3,Linux armv7l,60,,0,-0.486529244,-0.309986115,1,0,0,0.5824,button_left,0.5824,1,,,,,,376,NW,"ID",50,iguare,IGUARE,z,,,,,,-0.486529244,-0.309986115,1,0,0,,0,175,175,315,1,
,,,,,,,,,,,,,,,,,,5ef35f1554cf70092d1997d9,2020-08-10_16h26.16.108,lexical_decision_task_MP,2020.1.3,Linux armv7l,60,,0,0.482309638,-0.289181688,1,0,0,0.7258,button_right,0.7258,1,,,,,,237,WORD,UN,33,glance,POSTER,m,,,,,,0.482309638,-0.289181688,1,0,0,,0,176,176,176,1,
,,,,,,,,,,,,,,,,,,5ef35f1554cf70092d1997d9,2020-08-10_16h26.16.108,lexical_decision_task_MP,2020.1.3,Linux armv7l,60,,0,0.482309638,-0.289181688,1,0,0,0.6352,button_right,0.6352,1,,,,,,239,WORD,UN,33,forest,LUMBER,m,,,,,,0.482309638,-0.289181688,1,0,0,,0,177,177,178,1,
,,,,,,,,,,,,,,,,,,5ef35f1554cf70092d1997d9,2020-08-10_16h26.16.108,lexical_decision_task_MP,2020.1.3,Linux armv7l,60,,0,0.483697679,-0.287794749,1,0,0,0.567,button_right,0.567,1,,,,,,105,WORD,"ID",33,number,NUMBER,m,,,,,,0.483697679,-0.287794749,1,0,0,,0,178,178,44,1,
,,,,,,,,,,,,,,,,,,5ef35f1554cf70092d1997d9,2020-08-10_16h26.16.108,lexical_decision_task_MP,2020.1.3,Linux armv7l,60,,0,0.48508572,-0.28640781,1,0,0,0.8006,button_right,0.8006,1,,,,,,42,WORD,UN,50,tongue,CHAPEL,m,,,,,,0.48508572,-0.28640781,1,0,0,,0,179,179,221,1,
,,,,,,,,,,,,,,,,,,5ef35f1554cf70092d1997d9,2020-08-10_16h26.16.108,lexical_decision_task_MP,2020.1.3,Linux armv7l,60,,0,-0.474037043,-0.322468821,1,0,0,0.6617,button_left,0.6617,1,,,,,,262,NW,UN,50,dolica,QUILEW,z,,,,,,-0.474037043,-0.322468821,1,0,0,,0,180,180,441,1,
,,,,,,,,,,,,,,,,,,5ef35f1554cf70092d1997d9,2020-08-10_16h26.16.108,lexical_decision_task_MP,2020.1.3,Linux armv7l,60,,0,-0.474037043,-0.321081882,1,0,0,0.7988,button_left,0.7988,1,,,,,,404,NW,"ID",50,cluirm,CLUIRM,z,,,,,,-0.474037043,-0.321081882,1,0,0,,0,181,181,343,1,
,,,,,,,,,,,,,,,,,,5ef35f1554cf70092d1997d9,2020-08-10_16h26.16.108,lexical_decision_task_MP,2020.1.3,Linux armv7l,60,,0,0.478145684,-0.291955651,1,0,0,0.5315,button_right,0.5315,1,,,,,,41,WORD,UN,50,chapel,SPRING,m,,,,,,0.478145684,-0.291955651,1,0,0,,0,182,182,220,1,
,,,,,,,,,,,,,,,,,,5ef35f1554cf70092d1997d9,2020-08-10_16h26.16.108,lexical_decision_task_MP,2020.1.3,Linux armv7l,60,,0,0.479533725,-0.290568712,1,0,0,0.6004,button_right,0.6004,1,,,,,,103,WORD,"ID",33,bounce,BOUNCE,m,,,,,,0.479533725,-0.290568712,1,0,0,,0,183,183,42,1,
,,,,,,,,,,,,,,,,,,5ef35f1554cf70092d1997d9,2020-08-10_16h26.16.108,lexical_decision_task_MP,2020.1.3,Linux armv7l,60,,0,0.480921597,-0.289181688,1,0,0,0.5678,button_right,0.5678,1,,,,,,191,WORD,UN,33,beacon,STABLE,m,,,,,,0.480921597,-0.289181688,1,0,0,,0,184,184,130,1,
,,,,,,,,,,,,,,,,,,5ef35f1554cf70092d1997d9,2020-08-10_16h26.16.108,lexical_decision_task_MP,2020.1.3,Linux armv7l,60,,0,0.482309638,-0.287794749,1,0,0,0.4489,button_right,0.4489,1,,,,,,100,WORD,"ID",33,carbon,CARBON,m,,,,,,0.482309638,-0.287794749,1,0,0,,0,185,185,39,1,
,,,,,,,,,,,,,,,,,,5ef35f1554cf70092d1997d9,2020-08-10_16h26.16.108,lexical_decision_task_MP,2020.1.3,Linux armv7l,60,,0,-0.489305284,-0.315534041,1,0,0,0.6527,button_left,0.6527,1,,,,,,282,NW,UN,50,veralf,PORLEX,z,,,,,,-0.489305284,-0.315534041,1,0,0,,0,186,186,461,1,
,,,,,,,,,,,,,,,,,,5ef35f1554cf70092d1997d9,2020-08-10_16h26.16.108,lexical_decision_task_MP,2020.1.3,Linux armv7l,60,,0,-0.490693325,-0.314147017,1,0,0,0.832,button_left,0.832,1,,,,,,437,NW,UN,33,baitch,SNAPEL,z,,,,,,-0.490693325,-0.314147017,1,0,0,,0,187,187,376,1,
,,,,,,,,,,,,,,,,,,5ef35f1554cf70092d1997d9,2020-08-10_16h26.16.108,lexical_decision_task_MP,2020.1.3,Linux armv7l,60,,0,-0.507349565,-0.303051334,1,0,0,0.7486,button_left,0.7486,1,,,,,,253,NW,UN,50,varosh,RESAIT,z,,,,,,-0.507349565,-0.303051334,1,0,0,,0,188,188,432,1,
,,,,,,,,,,,,,,,,,,5ef35f1554cf70092d1997d9,2020-08-10_16h26.16.108,lexical_decision_task_MP,2020.1.3,Linux armv7l,60,,0,-0.505961524,-0.304438273,1,0,0,0.55,button_left,0.55,1,,,,,,406,NW,"ID",50,nouply,NOUPLY,z,,,,,,-0.505961524,-0.304438273,1,0,0,,0,189,189,345,1,
,,,,,,,,,,,,,,,,,,5ef35f1554cf70092d1997d9,2020-08-10_16h26.16.108,lexical_decision_task_MP,2020.1.3,Linux armv7l,60,,0,-0.490693325,-0.312760078,1,0,0,0.8136,button_left,0.8136,1,,,,,,291,NW,UN,50,ablint,PRETCH,z,,,,,,-0.490693325,-0.312760078,1,0,0,,0,190,190,470,1,
,,,,,,,,,,,,,,,,,,5ef35f1554cf70092d1997d9,2020-08-10_16h26.16.108,lexical_decision_task_MP,2020.1.3,Linux armv7l,60,,0,-0.490693325,-0.312760078,1,0,0,0.6325,button_left,0.6325,1,,,,,,308,NW,"ID",33,psetch,PSETCH,z,,,,,,-0.490693325,-0.312760078,1,0,0,,0,191,191,247,1,
,,,,,,,,,,,,,,,,,,5ef35f1554cf70092d1997d9,2020-08-10_16h26.16.108,lexical_decision_task_MP,2020.1.3,Linux armv7l,60,,0,-0.490693325,-0.312760078,1,0,0,0.6158,button_left,0.6158,1,,,,,,317,NW,"ID",33,worbal,WORBAL,z,,,,,,-0.490693325,-0.312760078,1,0,0,,0,192,192,256,1,
,,,,,,,,,,,,,,,,,,5ef35f1554cf70092d1997d9,2020-08-10_16h26.16.108,lexical_decision_task_MP,2020.1.3,Linux armv7l,60,,0,-0.492081324,-0.311373138,1,0,0,0.7311,button_left,0.7311,1,,,,,,473,NW,UN,33,hablin,CRIBLE,z,,,,,,-0.492081324,-0.311373138,1,0,0,,0,193,193,412,1,
,,,,,,,,,,,,,,,,,,5ef35f1554cf70092d1997d9,2020-08-10_16h26.16.108,lexical_decision_task_MP,2020.1.3,Linux armv7l,60,,0,-0.492081324,-0.309986115,1,0,0,0.6303,button_left,0.6303,1,,,,,,443,NW,UN,33,jaunce,DORSEX,z,,,,,,-0.492081324,-0.309986115,1,0,0,,0,194,194,382,1,
,,,,,,,,,,,,,,,,,,5ef35f1554cf70092d1997d9,2020-08-10_16h26.16.108,lexical_decision_task_MP,2020.1.3,Linux armv7l,60,,0,-0.492081324,-0.309986115,1,0,0,0.7313,button_left,0.7313,1,,,,,,359,NW,"ID",33,fonver,FONVER,z,,,,,,-0.492081324,-0.309986115,1,0,0,,0,195,195,298,1,
,,,,,,,,,,,,,,,,,,5ef35f1554cf70092d1997d9,2020-08-10_16h26.16.108,lexical_decision_task_MP,2020.1.3,Linux armv7l,60,,0,0.480921597,-0.301664395,1,0,0,0.6303,button_right,0.6303,1,,,,,,106,WORD,"ID",33,ransom,RANSOM,m,,,,,,0.480921597,-0.301664395,1,0,0,,0,196,196,45,1,
,,,,,,,,,,,,,,,,,,5ef35f1554cf70092d1997d9,2020-08-10_16h26.16.108,lexical_decision_task_MP,2020.1.3,Linux armv7l,60,,0,-0.490693325,-0.308599175,1,0,0,0.6812,button_left,0.6812,1,,,,,,381,NW,"ID",50,huniek,HUNIEK,z,,,,,,-0.490693325,-0.308599175,1,0,0,,0,197,197,320,1,
,,,,,,,,,,,,,,,,,,5ef35f1554cf70092d1997d9,2020-08-10_16h26.16.108,lexical_decision_task_MP,2020.1.3,Linux armv7l,60,,0,-0.501797485,-0.297503493,1,0,0,0.7819,button_left,0.7819,1,,,,,,401,NW,"ID",50,mustil,MUSTIL,z,,,,,,-0.501797485,-0.297503493,1,0,0,,0,198,198,340,1,
,,,,,,,,,,,,,,,,,,5ef35f1554cf70092d1997d9,2020-08-10_16h26.16.108,lexical_decision_task_MP,2020.1.3,Linux armv7l,60,,0,-0.489305284,-0.315534041,1,0,0,1.048,button_left,1.048,1,,,,,,457,NW,UN,33,barcet,WANIGH,z,,,,,,-0.489305284,-0.315534041,1,0,0,,0,199,199,396,1,
,,,,,,,,,,,,,,,,,,5ef35f1554cf70092d1997d9,2020-08-10_16h26.16.108,lexical_decision_task_MP,2020.1.3,Linux armv7l,60,,0,-0.489305284,-0.314147017,1,0,0,0.6332,button_left,0.6332,1,,,,,,347,NW,"ID",33,kerift,KERIFT,z,,,,,,-0.489305284,-0.314147017,1,0,0,,0,200,200,286,1,
,,,,,,,,,,,,,,,,,,5ef35f1554cf70092d1997d9,2020-08-10_16h26.16.108,lexical_decision_task_MP,2020.1.3,Linux armv7l,60,,0,0.487861803,-0.290568712,1,0,0,0.6275,button_right,0.6275,1,,,,,,86,WORD,"ID",33,rodent,RODENT,m,,,,,,0.487861803,-0.290568712,1,0,0,,0,201,201,25,1,
,,,,,,,,,,,,,,,,,,5ef35f1554cf70092d1997d9,2020-08-10_16h26.16.108,lexical_decision_task_MP,2020.1.3,Linux armv7l,60,,0,-0.483753204,-0.315534041,1,0,0,0.6155,button_left,0.6155,1,,,,,,383,NW,"ID",50,aungre,AUNGRE,z,,,,,,-0.483753204,-0.315534041,1,0,0,,0,202,202,322,1,
,,,,,,,,,,,,,,,,,,5ef35f1554cf70092d1997d9,2020-08-10_16h26.16.108,lexical_decision_task_MP,2020.1.3,Linux armv7l,60,,0,-0.483753204,-0.314147017,1,0,0,0.6672,button_left,0.6672,1,,,,,,270,NW,UN,50,aubrid,WRIMSY,z,,,,,,-0.483753204,-0.314147017,1,0,0,,0,203,203,449,1,
,,,,,,,,,,,,,,,,,,5ef35f1554cf70092d1997d9,2020-08-10_16h26.16.108,lexical_decision_task_MP,2020.1.3,Linux armv7l,60,,0,-0.483753204,-0.312760078,1,0,0,0.9433,button_left,0.9433,1,,,,,,273,NW,UN,50,fumblo,SORTEL,z,,,,,,-0.483753204,-0.312760078,1,0,0,,0,204,204,452,1,
,,,,,,,,,,,,,,,,,,5ef35f1554cf70092d1997d9,2020-08-10_16h26.16.108,lexical_decision_task_MP,2020.1.3,Linux armv7l,60,,0,-0.465708923,-0.315534041,1,0,0,0.9611,button_left,0.9611,1,,,,,,283,NW,UN,50,shaple,VERALF,z,,,,,,-0.465708923,-0.315534041,1,0,0,,0,205,205,462,1,
,,,,,,,,,,,,,,,,,,5ef35f1554cf70092d1997d9,2020-08-10_16h26.16.108,lexical_decision_task_MP,2020.1.3,Linux armv7l,60,,0,0.468429396,-0.307212236,1,0,0,0.6841,button_right,0.6841,1,,,,,,225,WORD,UN,33,casino,VULGAR,m,,,,,,0.468429396,-0.307212236,1,0,0,,0,206,206,164,1,
,,,,,,,,,,,,,,,,,,5ef35f1554cf70092d1997d9,2020-08-10_16h26.16.108,lexical_decision_task_MP,2020.1.3,Linux armv7l,60,,0,0.479533725,-0.291955651,1,0,0,0.9465,button_right,0.9465,0,,,,,,303,NW,"ID",33,fiream,FIREAM,z,,,,,,0.479533725,-0.291955651,1,0,0,,0,207,207,242,1,
,,,,,,,,,,,,,,,,,,5ef35f1554cf70092d1997d9,2020-08-10_16h26.16.108,lexical_decision_task_MP,2020.1.3,Linux armv7l,60,,0,0.489249844,-0.280859968,1,0,0,0.668,button_right,0.668,1,,,,,,92,WORD,"ID",33,strand,STRAND,m,,,,,,0.489249844,-0.280859968,1,0,0,,0,208,208,31,1,
,,,,,,,,,,,,,,,,,,5ef35f1554cf70092d1997d9,2020-08-10_16h26.16.108,lexical_decision_task_MP,2020.1.3,Linux armv7l,60,,0,-0.467096965,-0.318307919,1,0,0,0.6646,button_left,0.6646,1,,,,,,339,NW,"ID",33,fachow,FACHOW,z,,,,,,-0.467096965,-0.318307919,1,0,0,,0,209,209,278,1,
,,,,,,,,,,,,,,,,,,5ef35f1554cf70092d1997d9,2020-08-10_16h26.16.108,lexical_decision_task_MP,2020.1.3,Linux armv7l,60,,0,0.480921597,-0.297503493,1,0,0,0.7321,button_right,0.7321,1,,,,,,222,WORD,UN,33,export,HINDER,m,,,,,,0.480921597,-0.297503493,1,0,0,,0,210,210,161,1,
,,,,,,,,,,,,,,,,,,5ef35f1554cf70092d1997d9,2020-08-10_16h26.16.108,lexical_decision_task_MP,2020.1.3,Linux armv7l,60,,0,-0.476813083,-0.312760078,1,0,0,0.6828,button_left,0.6828,1,,,,,,407,NW,"ID",50,suiver,SUIVER,z,,,,,,-0.476813083,-0.312760078,1,0,0,,0,211,211,346,1,
,,,,,,,,,,,,,,,,,,5ef35f1554cf70092d1997d9,2020-08-10_16h26.16.108,lexical_decision_task_MP,2020.1.3,Linux armv7l,60,,0,0.482309638,-0.285020786,1,0,0,0.5004,button_right,0.5004,1,,,,,,153,WORD,"ID",50,behold,BEHOLD,m,,,,,,0.482309638,-0.285020786,1,0,0,,0,212,212,92,1,
,,,,,,,,,,,,,,,,,,5ef35f1554cf70092d1997d9,2020-08-10_16h26.16.108,lexical_decision_task_MP,2020.1.3,Linux armv7l,60,,0,-0.472649044,-0.31692098,1,0,0,0.6667,button_left,0.6667,1,,,,,,249,NW,UN,50,milted,BATROL,z,,,,,,-0.472649044,-0.31692098,1,0,0,,0,213,213,428,1,
,,,,,,,,,,,,,,,,,,5ef35f1554cf70092d1997d9,2020-08-10_16h26.16.108,lexical_decision_task_MP,2020.1.3,Linux armv7l,60,,0,-0.474037043,-0.31692098,1,0,0,0.8319,button_left,0.8319,1,,,,,,372,NW,"ID",50,ramily,RAMILY,z,,,,,,-0.474037043,-0.31692098,1,0,0,,0,214,214,311,1,
,,,,,,,,,,,,,,,,,,5ef35f1554cf70092d1997d9,2020-08-10_16h26.16.108,lexical_decision_task_MP,2020.1.3,Linux armv7l,60,,0,0.478145684,-0.296116553,1,0,0,0.5831,button_right,0.5831,1,,,,,,52,WORD,UN,50,police,IMPOSE,m,,,,,,0.478145684,-0.296116553,1,0,0,,0,215,215,231,1,
,,,,,,,,,,,,,,,,,,5ef35f1554cf70092d1997d9,2020-08-10_16h26.16.108,lexical_decision_task_MP,2020.1.3,Linux armv7l,60,,0,0.487861803,-0.282246908,1,0,0,0.5671,button_right,0.5671,1,,,,,,2,WORD,UN,50,knight,BRIDGE,m,,,,,,0.487861803,-0.282246908,1,0,0,,0,216,216,181,1,
,,,,,,,,,,,,,,,,,,5ef35f1554cf70092d1997d9,2020-08-10_16h26.16.108,lexical_decision_task_MP,2020.1.3,Linux armv7l,60,,0,0.487861803,-0.282246908,1,0,0,0.6918,button_right,0.6918,1,,,,,,177,WORD,"ID",50,advent,ADVENT,m,,,,,,0.487861803,-0.282246908,1,0,0,,0,217,217,116,1,
,,,,,,,,,,,,,,,,,,5ef35f1554cf70092d1997d9,2020-08-10_16h26.16.108,lexical_decision_task_MP,2020.1.3,Linux armv7l,60,,0,0.487861803,-0.282246908,1,0,0,0.7456,button_right,0.7456,1,,,,,,101,WORD,"ID",33,wrench,WRENCH,m,,,,,,0.487861803,-0.282246908,1,0,0,,0,218,218,40,1,
,,,,,,,,,,,,,,,,,,5ef35f1554cf70092d1997d9,2020-08-10_16h26.16.108,lexical_decision_task_MP,2020.1.3,Linux armv7l,60,,0,0.487861803,-0.280859968,1,0,0,0.7887,button_right,0.7887,0,,,,,,434,NW,UN,33,impurb,PITROM,z,,,,,,0.487861803,-0.280859968,1,0,0,,0,219,219,373,1,
,,,,,,,,,,,,,,,,,,5ef35f1554cf70092d1997d9,2020-08-10_16h26.16.108,lexical_decision_task_MP,2020.1.3,Linux armv7l,60,,0,0.487861803,-0.279472944,1,0,0,0.6415,button_right,0.6415,0,,,,,,374,NW,"ID",50,sliant,SLIANT,z,,,,,,0.487861803,-0.279472944,1,0,0,,0,220,220,313,1,
,,,,,,,,,,,,,,,,,,5ef35f1554cf70092d1997d9,2020-08-10_16h26.16.108,lexical_decision_task_MP,2020.1.3,Linux armv7l,60,,0,0.487861803,-0.280859968,1,0,0,0.5739,button_right,0.5739,1,,,,,,201,WORD,UN,33,factor,ADMIRE,m,,,,,,0.487861803,-0.280859968,1,0,0,,0,221,221,140,1,
,,,,,,,,,,,,,,,,,,5ef35f1554cf70092d1997d9,2020-08-10_16h26.16.108,lexical_decision_task_MP,2020.1.3,Linux armv7l,60,,0,0.487861803,-0.282246908,1,0,0,0.577,button_right,0.577,1,,,,,,156,WORD,"ID",50,cradle,CRADLE,m,,,,,,0.487861803,-0.282246908,1,0,0,,0,222,222,95,1,
,,,,,,,,,,,,,,,,,,5ef35f1554cf70092d1997d9,2020-08-10_16h26.16.108,lexical_decision_task_MP,2020.1.3,Linux armv7l,60,,0,0.487861803,-0.282246908,1,0,0,0.6532,button_right,0.6532,1,,,,,,182,WORD,UN,33,absent,WINTER,m,,,,,,0.487861803,-0.282246908,1,0,0,,0,223,223,121,1,
,,,,,,,,,,,,,,,,,,5ef35f1554cf70092d1997d9,2020-08-10_16h26.16.108,lexical_decision_task_MP,2020.1.3,Linux armv7l,60,,0,0.487861803,-0.282246908,1,0,0,0.541,button_right,0.541,1,,,,,,166,WORD,"ID",50,starch,STARCH,m,,,,,,0.487861803,-0.282246908,1,0,0,,0,224,224,105,1,
,,,,,,,,,,,,,,,,,,5ef35f1554cf70092d1997d9,2020-08-10_16h26.16.108,lexical_decision_task_MP,2020.1.3,Linux armv7l,60,,0,0.487861803,-0.282246908,1,0,0,0.5977,button_right,0.5977,1,,,,,,221,WORD,UN,33,hinder,MASCOT,m,,,,,,0.487861803,-0.282246908,1,0,0,,0,225,225,160,1,
,,,,,,,,,,,,,,,,,,5ef35f1554cf70092d1997d9,2020-08-10_16h26.16.108,lexical_decision_task_MP,2020.1.3,Linux armv7l,60,,0,-0.471261003,-0.329403602,1,0,0,0.7127,button_left,0.7127,1,,,,,,384,NW,"ID",50,guesco,GUESCO,z,,,,,,-0.471261003,-0.329403602,1,0,0,,0,226,226,323,1,
,,,,,,,,,,,,,,,,,,5ef35f1554cf70092d1997d9,2020-08-10_16h26.16.108,lexical_decision_task_MP,2020.1.3,Linux armv7l,60,,0,0.486473762,-0.291955651,1,0,0,0.5819,button_right,0.5819,1,,,,,,84,WORD,"ID",33,mortal,MORTAL,m,,,,,,0.486473762,-0.291955651,1,0,0,,0,227,227,23,1,
,,,,,,,,,,,,,,,,,,5ef35f1554cf70092d1997d9,2020-08-10_16h26.16.108,lexical_decision_task_MP,2020.1.3,Linux armv7l,60,,0,-0.485141203,-0.312760078,1,0,0,0.6836,button_left,0.6836,1,,,,,,248,NW,UN,50,batrol,STROLE,z,,,,,,-0.485141203,-0.312760078,1,0,0,,0,228,228,427,1,
,,,,,,,,,,,,,,,,,,5ef35f1554cf70092d1997d9,2020-08-10_16h26.16.108,lexical_decision_task_MP,2020.1.3,Linux armv7l,60,,0,0.487861803,-0.291955651,1,0,0,0.6177,button_right,0.6177,1,,,,,,97,WORD,"ID",33,client,CLIENT,m,,,,,,0.487861803,-0.291955651,1,0,0,,0,229,229,36,1,
,,,,,,,,,,,,,,,,,,5ef35f1554cf70092d1997d9,2020-08-10_16h26.16.108,lexical_decision_task_MP,2020.1.3,Linux armv7l,60,,0,0.486473762,-0.29334259,1,0,0,0.6256,button_right,0.6256,1,,,,,,212,WORD,UN,33,squeal,VERIFY,m,,,,,,0.486473762,-0.29334259,1,0,0,,0,230,230,151,1,
,,,,,,,,,,,,,,,,,,5ef35f1554cf70092d1997d9,2020-08-10_16h26.16.108,lexical_decision_task_MP,2020.1.3,Linux armv7l,60,,0,0.486473762,-0.291955651,1,0,0,0.4784,button_right,0.4784,1,,,,,,179,WORD,"ID",50,basket,BASKET,m,,,,,,0.486473762,-0.291955651,1,0,0,,0,231,231,118,1,
,,,,,,,,,,,,,,,,,,5ef35f1554cf70092d1997d9,2020-08-10_16h26.16.108,lexical_decision_task_MP,2020.1.3,Linux armv7l,60,,0,0.486473762,-0.291955651,1,0,0,0.587,button_right,0.587,1,,,,,,108,WORD,"ID",33,reckon,RECKON,m,,,,,,0.486473762,-0.291955651,1,0,0,,0,232,232,47,1,
,,,,,,,,,,,,,,,,,,5ef35f1554cf70092d1997d9,2020-08-10_16h26.16.108,lexical_decision_task_MP,2020.1.3,Linux armv7l,60,,0,-0.474037043,-0.321081882,1,0,0,0.8169,button_left,0.8169,1,,,,,,442,NW,UN,33,dorsex,ABOUNE,z,,,,,,-0.474037043,-0.321081882,1,0,0,,0,233,233,381,1,
,,,,,,,,,,,,,,,,,,5ef35f1554cf70092d1997d9,2020-08-10_16h26.16.108,lexical_decision_task_MP,2020.1.3,Linux armv7l,60,,0,0.479533725,-0.296116553,1,0,0,0.5163,button_right,0.5163,0,,,,,,279,NW,UN,50,curbol,CELOND,z,,,,,,0.479533725,-0.296116553,1,0,0,,0,234,234,458,1,
,,,,,,,,,,,,,,,,,,5ef35f1554cf70092d1997d9,2020-08-10_16h26.16.108,lexical_decision_task_MP,2020.1.3,Linux armv7l,60,,0,-0.467096965,-0.32385576,1,0,0,0.7352,button_left,0.7352,1,,,,,,254,NW,UN,50,apight,VAROSH,z,,,,,,-0.467096965,-0.32385576,1,0,0,,0,235,235,433,1,
,,,,,,,,,,,,,,,,,,5ef35f1554cf70092d1997d9,2020-08-10_16h26.16.108,lexical_decision_task_MP,2020.1.3,Linux armv7l,60,,0,0.482309638,-0.296116553,1,0,0,0.6177,button_right,0.6177,0,,,,,,367,NW,"ID",50,slique,SLIQUE,z,,,,,,0.482309638,-0.296116553,1,0,0,,0,236,236,306,1,
,,,,,,,,,,,,,,,,,,5ef35f1554cf70092d1997d9,2020-08-10_16h26.16.108,lexical_decision_task_MP,2020.1.3,Linux armv7l,60,,0,-0.454604763,-0.333564504,1,0,0,0.7748,button_left,0.7748,1,,,,,,422,NW,UN,33,streld,ALCOUD,z,,,,,,-0.454604763,-0.333564504,1,0,0,,0,237,237,361,1,
,,,,,,,,,,,,,,,,,,5ef35f1554cf70092d1997d9,2020-08-10_16h26.16.108,lexical_decision_task_MP,2020.1.3,Linux armv7l,60,,0,-0.464320882,-0.31692098,1,0,0,0.7449,button_left,0.7449,1,,,,,,259,NW,UN,50,unject,SOUDAL,z,,,,,,-0.464320882,-0.31692098,1,0,0,,0,238,238,438,1,
,,,,,,,,,,,,,,,,,,5ef35f1554cf70092d1997d9,2020-08-10_16h26.16.108,lexical_decision_task_MP,2020.1.3,Linux armv7l,60,,0,0.471205478,-0.312760078,1,0,0,0.6354,button_right,0.6354,1,,,,,,126,WORD,"ID",50,enough,ENOUGH,m,,,,,,0.471205478,-0.312760078,1,0,0,,0,239,239,65,1,
,,,,,,,,,,,,,,,,,,5ef35f1554cf70092d1997d9,2020-08-10_16h26.16.108,lexical_decision_task_MP,2020.1.3,Linux armv7l,60,,0,0.480921597,-0.294729529,1,0,0,0.6693,button_right,0.6693,1,,,,,,238,WORD,UN,33,behalf,FLOWER,m,,,,,,0.480921597,-0.294729529,1,0,0,,0,240,240,177,1,
,,,,,,,,,,,,,,,,,,5ef35f1554cf70092d1997d9,2020-08-10_16h26.16.108,lexical_decision_task_MP,2020.1.3,Linux armv7l,60,,0,-0.462932883,-0.332177565,1,0,0,0.6784,button_left,0.6784,1,,,,,,280,NW,UN,50,melaty,CURBOL,z,,,,,,-0.045138465,-0.409847429,1,0,0,,0,241,241,459,1,break_done_button
,,,,,,,,,,,,,,,,,,5ef35f1554cf70092d1997d9,2020-08-10_16h26.16.108,lexical_decision_task_MP,2020.1.3,Linux armv7l,60,,0,-0.471261003,-0.271151225,1,0,0,0.9831,button_left,0.9831,1,,,,,,380,NW,"ID",50,cavory,CAVORY,z,,,,,,-0.471261003,-0.271151225,1,0,0,,0,242,242,319,1,
,,,,,,,,,,,,,,,,,,5ef35f1554cf70092d1997d9,2020-08-10_16h26.16.108,lexical_decision_task_MP,2020.1.3,Linux armv7l,60,,0,0.453161282,-0.330790626,1,0,0,0.5924,button_right,0.5924,1,,,,,,204,WORD,UN,33,lounge,BURDEN,m,,,,,,0.453161282,-0.330790626,1,0,0,,0,243,243,143,1,
,,,,,,,,,,,,,,,,,,5ef35f1554cf70092d1997d9,2020-08-10_16h26.16.108,lexical_decision_task_MP,2020.1.3,Linux armv7l,60,,0,-0.489305284,-0.308599175,1,0,0,0.6876,button_left,0.6876,1,,,,,,321,NW,"ID",33,miator,MIATOR,z,,,,,,-0.489305284,-0.308599175,1,0,0,,0,244,244,260,1,
,,,,,,,,,,,,,,,,,,5ef35f1554cf70092d1997d9,2020-08-10_16h26.16.108,lexical_decision_task_MP,2020.1.3,Linux armv7l,60,,0,-0.489305284,-0.308599175,1,0,0,0.5761,button_left,0.5761,1,,,,,,391,NW,"ID",50,theldy,THELDY,z,,,,,,-0.489305284,-0.308599175,1,0,0,,0,245,245,330,1,
,,,,,,,,,,,,,,,,,,5ef35f1554cf70092d1997d9,2020-08-10_16h26.16.108,lexical_decision_task_MP,2020.1.3,Linux armv7l,60,,0,-0.461544842,-0.326629723,1,0,0,0.6473,button_left,0.6473,1,,,,,,432,NW,UN,33,drance,LUNKER,z,,,,,,-0.461544842,-0.326629723,1,0,0,,0,246,246,371,1,
,,,,,,,,,,,,,,,,,,5ef35f1554cf70092d1997d9,2020-08-10_16h26.16.108,lexical_decision_task_MP,2020.1.3,Linux armv7l,60,,0,-0.482365163,-0.305825297,1,0,0,0.5336,button_left,0.5336,1,,,,,,444,NW,UN,33,minkel,JAUNCE,z,,,,,,-0.482365163,-0.305825297,1,0,0,,0,247,247,383,1,
,,,,,,,,,,,,,,,,,,5ef35f1554cf70092d1997d9,2020-08-10_16h26.16.108,lexical_decision_task_MP,2020.1.3,Linux armv7l,60,,0,0.472593519,-0.332177565,1,0,0,0.5283,button_right,0.5283,0,,,,,,348,NW,"ID",33,dumple,DUMPLE,z,,,,,,0.472593519,-0.332177565,1,0,0,,0,248,248,287,1,
,,,,,,,,,,,,,,,,,,5ef35f1554cf70092d1997d9,2020-08-10_16h26.16.108,lexical_decision_task_MP,2020.1.3,Linux armv7l,60,,0,-0.475425084,-0.31692098,1,0,0,0.5672,button_left,0.5672,1,,,,,,343,NW,"ID",33,aimosy,AIMOSY,z,,,,,,-0.475425084,-0.31692098,1,0,0,,0,249,249,282,1,
,,,,,,,,,,,,,,,,,,5ef35f1554cf70092d1997d9,2020-08-10_16h26.16.108,lexical_decision_task_MP,2020.1.3,Linux armv7l,60,,0,0.471205478,-0.326629723,1,0,0,0.5475,button_right,0.5475,1,,,,,,109,WORD,"ID",33,wonder,WONDER,m,,,,,,0.471205478,-0.326629723,1,0,0,,0,250,250,48,1,
,,,,,,,,,,,,,,,,,,5ef35f1554cf70092d1997d9,2020-08-10_16h26.16.108,lexical_decision_task_MP,2020.1.3,Linux armv7l,60,,0,0.469817437,-0.326629723,1,0,0,0.5974,button_right,0.5974,1,,,,,,19,WORD,UN,50,breast,PATRON,m,,,,,,0.469817437,-0.326629723,1,0,0,,0,251,251,198,1,
,,,,,,,,,,,,,,,,,,5ef35f1554cf70092d1997d9,2020-08-10_16h26.16.108,lexical_decision_task_MP,2020.1.3,Linux armv7l,60,,0,0.469817437,-0.3252427,1,0,0,0.4843,button_right,0.4843,1,,,,,,98,WORD,"ID",33,belong,BELONG,m,,,,,,0.469817437,-0.3252427,1,0,0,,0,252,252,37,1,
,,,,,,,,,,,,,,,,,,5ef35f1554cf70092d1997d9,2020-08-10_16h26.16.108,lexical_decision_task_MP,2020.1.3,Linux armv7l,60,,0,-0.468484963,-0.328016663,1,0,0,0.5354,button_left,0.5354,1,,,,,,341,NW,"ID",33,myrtie,MYRTIE,z,,,,,,-0.468484963,-0.328016663,1,0,0,,0,253,253,280,1,
,,,,,,,,,,,,,,,,,,5ef35f1554cf70092d1997d9,2020-08-10_16h26.16.108,lexical_decision_task_MP,2020.1.3,Linux armv7l,60,,0,0.483697679,-0.301664395,1,0,0,0.5213,button_right,0.5213,1,,,,,,16,WORD,UN,50,charge,FAUCET,m,,,,,,0.483697679,-0.301664395,1,0,0,,0,254,254,195,1,
,,,,,,,,,,,,,,,,,,5ef35f1554cf70092d1997d9,2020-08-10_16h26.16.108,lexical_decision_task_MP,2020.1.3,Linux armv7l,60,,0,0.482309638,-0.301664395,1,0,0,0.5566,button_right,0.5566,1,,,,,,77,WORD,"ID",33,racket,RACKET,m,,,,,,0.482309638,-0.301664395,1,0,0,,0,255,255,16,1,
,,,,,,,,,,,,,,,,,,5ef35f1554cf70092d1997d9,2020-08-10_16h26.16.108,lexical_decision_task_MP,2020.1.3,Linux armv7l,60,,0,-0.461544842,-0.332177565,1,0,0,0.6887,button_left,0.6887,1,,,,,,336,NW,"ID",33,ghodus,GHODUS,z,,,,,,-0.461544842,-0.332177565,1,0,0,,0,256,256,275,1,
,,,,,,,,,,,,,,,,,,5ef35f1554cf70092d1997d9,2020-08-10_16h26.16.108,lexical_decision_task_MP,2020.1.3,Linux armv7l,60,,0,-0.461544842,-0.332177565,1,0,0,0.5913,button_left,0.5913,1,,,,,,362,NW,"ID",50,tireau,TIREAU,z,,,,,,-0.461544842,-0.332177565,1,0,0,,0,257,257,301,1,
,,,,,,,,,,,,,,,,,,5ef35f1554cf70092d1997d9,2020-08-10_16h26.16.108,lexical_decision_task_MP,2020.1.3,Linux armv7l,60,,0,0.464265442,-0.319694858,1,0,0,0.5506,button_right,0.5506,1,,,,,,161,WORD,"ID",50,pastor,PASTOR,m,,,,,,0.464265442,-0.319694858,1,0,0,,0,258,258,100,1,
,,,,,,,,,,,,,,,,,,5ef35f1554cf70092d1997d9,2020-08-10_16h26.16.108,lexical_decision_task_MP,2020.1.3,Linux armv7l,60,,0,-0.469873004,-0.31692098,1,0,0,0.5664,button_left,0.5664,1,,,,,,355,NW,"ID",33,zingly,ZINGLY,z,,,,,,-0.469873004,-0.31692098,1,0,0,,0,259,259,294,1,
,,,,,,,,,,,,,,,,,,5ef35f1554cf70092d1997d9,2020-08-10_16h26.16.108,lexical_decision_task_MP,2020.1.3,Linux armv7l,60,,0,0.462877401,-0.332177565,1,0,0,0.5785,button_right,0.5785,1,,,,,,114,WORD,"ID",33,placid,PLACID,m,,,,,,0.462877401,-0.332177565,1,0,0,,0,260,260,53,1,
,,,,,,,,,,,,,,,,,,5ef35f1554cf70092d1997d9,2020-08-10_16h26.16.108,lexical_decision_task_MP,2020.1.3,Linux armv7l,60,,0,0.462877401,-0.330790626,1,0,0,0.9332,button_right,0.9332,0,,,,,,285,NW,UN,50,reldon,PRUDGE,z,,,,,,0.462877401,-0.330790626,1,0,0,,0,261,261,464,1,
,,,,,,,,,,,,,,,,,,5ef35f1554cf70092d1997d9,2020-08-10_16h26.16.108,lexical_decision_task_MP,2020.1.3,Linux armv7l,60,,0,0.462877401,-0.330790626,1,0,0,0.5738,button_right,0.5738,1,,,,,,157,WORD,"ID",50,dragon,DRAGON,m,,,,,,0.462877401,-0.330790626,1,0,0,,0,262,262,96,1,
,,,,,,,,,,,,,,,,,,5ef35f1554cf70092d1997d9,2020-08-10_16h26.16.108,lexical_decision_task_MP,2020.1.3,Linux armv7l,60,,0,-0.444888602,-0.333564504,1,0,0,0.6931,button_left,0.6931,1,,,,,,322,NW,"ID",33,slanch,SLANCH,z,,,,,,-0.444888602,-0.333564504,1,0,0,,0,263,263,261,1,
,,,,,,,,,,,,,,,,,,5ef35f1554cf70092d1997d9,2020-08-10_16h26.16.108,lexical_decision_task_MP,2020.1.3,Linux armv7l,60,,0,0.469817437,-0.308599175,1,0,0,0.5625,button_right,0.5625,1,,,,,,151,WORD,"ID",50,mystic,MYSTIC,m,,,,,,0.469817437,-0.308599175,1,0,0,,0,264,264,90,1,
,,,,,,,,,,,,,,,,,,5ef35f1554cf70092d1997d9,2020-08-10_16h26.16.108,lexical_decision_task_MP,2020.1.3,Linux armv7l,60,,0,-0.440724521,-0.334951443,1,0,0,0.6291,button_left,0.6291,1,,,,,,320,NW,"ID",33,jockal,JOCKAL,z,,,,,,-0.440724521,-0.334951443,1,0,0,,0,265,265,259,1,
,,,,,,,,,,,,,,,,,,5ef35f1554cf70092d1997d9,2020-08-10_16h26.16.108,lexical_decision_task_MP,2020.1.3,Linux armv7l,60,,0,-0.453216722,-0.32385576,1,0,0,0.6965,button_left,0.6965,1,,,,,,292,NW,UN,50,swance,ABLINT,z,,,,,,-0.453216722,-0.32385576,1,0,0,,0,266,266,471,1,
,,,,,,,,,,,,,,,,,,5ef35f1554cf70092d1997d9,2020-08-10_16h26.16.108,lexical_decision_task_MP,2020.1.3,Linux armv7l,60,,0,0.467041524,-0.3252427,1,0,0,0.6982,button_right,0.6982,1,,,,,,147,WORD,"ID",50,garlic,GARLIC,m,,,,,,0.467041524,-0.3252427,1,0,0,,0,267,267,86,1,
,,,,,,,,,,,,,,,,,,5ef35f1554cf70092d1997d9,2020-08-10_16h26.16.108,lexical_decision_task_MP,2020.1.3,Linux armv7l,60,,0,0.467041524,-0.3252427,1,0,0,0.5144,button_right,0.5144,1,,,,,,47,WORD,UN,50,walnut,INCOME,m,,,,,,0.467041524,-0.3252427,1,0,0,,0,268,268,226,1,
,,,,,,,,,,,,,,,,,,5ef35f1554cf70092d1997d9,2020-08-10_16h26.16.108,lexical_decision_task_MP,2020.1.3,Linux armv7l,60,,0,0.472593519,-0.305825297,1,0,0,0.4499,button_right,0.4499,1,,,,,,129,WORD,"ID",50,marvel,MARVEL,m,,,,,,0.472593519,-0.305825297,1,0,0,,0,269,269,68,1,
,,,,,,,,,,,,,,,,,,5ef35f1554cf70092d1997d9,2020-08-10_16h26.16.108,lexical_decision_task_MP,2020.1.3,Linux armv7l,60,,0,0.472593519,-0.307212236,1,0,0,0.4163,button_right,0.4163,0,,,,,,306,NW,"ID",33,sounge,SOUNGE,z,,,,,,0.472593519,-0.307212236,1,0,0,,0,270,270,245,1,
,,,,,,,,,,,,,,,,,,5ef35f1554cf70092d1997d9,2020-08-10_16h26.16.108,lexical_decision_task_MP,2020.1.3,Linux armv7l,60,,0,-0.4337844,-0.332177565,1,0,0,0.798,button_left,0.798,1,,,,,,417,NW,"ID",50,earoud,EAROUD,z,,,,,,-0.4337844,-0.332177565,1,0,0,,0,271,271,356,1,
,,,,,,,,,,,,,,,,,,5ef35f1554cf70092d1997d9,2020-08-10_16h26.16.108,lexical_decision_task_MP,2020.1.3,Linux armv7l,60,,0,0.465653483,-0.3252427,1,0,0,0.7535,button_right,0.7535,1,,,,,,5,WORD,UN,50,bundle,PLUNGE,m,,,,,,0.465653483,-0.3252427,1,0,0,,0,272,272,184,1,
,,,,,,,,,,,,,,,,,,5ef35f1554cf70092d1997d9,2020-08-10_16h26.16.108,lexical_decision_task_MP,2020.1.3,Linux armv7l,60,,0,-0.440724521,-0.328016663,1,0,0,0.7966,button_left,0.7966,1,,,,,,334,NW,"ID",33,watmeg,WATMEG,z,,,,,,-0.440724521,-0.328016663,1,0,0,,0,273,273,273,1,
,,,,,,,,,,,,,,,,,,5ef35f1554cf70092d1997d9,2020-08-10_16h26.16.108,lexical_decision_task_MP,2020.1.3,Linux armv7l,60,,0,-0.450440682,-0.311373138,1,0,0,0.6742,button_left,0.6742,1,,,,,,309,NW,"ID",33,amiloy,AMILOY,z,,,,,,-0.450440682,-0.311373138,1,0,0,,0,274,274,248,1,
,,,,,,,,,,,,,,,,,,5ef35f1554cf70092d1997d9,2020-08-10_16h26.16.108,lexical_decision_task_MP,2020.1.3,Linux armv7l,60,,0,-0.461544842,-0.300277371,1,0,0,0.6235,button_left,0.6235,1,,,,,,257,NW,UN,50,poluth,VENIOD,z,,,,,,-0.461544842,-0.300277371,1,0,0,,0,275,275,436,1,
,,,,,,,,,,,,,,,,,,5ef35f1554cf70092d1997d9,2020-08-10_16h26.16.108,lexical_decision_task_MP,2020.1.3,Linux armv7l,60,,0,0.475369602,-0.318307919,1,0,0,0.5922,button_right,0.5922,1,,,,,,22,WORD,UN,50,wealth,JOCKEY,m,,,,,,0.475369602,-0.318307919,1,0,0,,0,276,276,201,1,
,,,,,,,,,,,,,,,,,,5ef35f1554cf70092d1997d9,2020-08-10_16h26.16.108,lexical_decision_task_MP,2020.1.3,Linux armv7l,60,,0,0.475369602,-0.318307919,1,0,0,0.4864,button_right,0.4864,1,,,,,,163,WORD,"ID",50,string,STRING,m,,,,,,0.475369602,-0.318307919,1,0,0,,0,277,277,102,1,
,,,,,,,,,,,,,,,,,,5ef35f1554cf70092d1997d9,2020-08-10_16h26.16.108,lexical_decision_task_MP,2020.1.3,Linux armv7l,60,,0,0.475369602,-0.31692098,1,0,0,0.5486,button_right,0.5486,0,,,,,,449,NW,UN,33,phrect,BRUNGE,z,,,,,,0.475369602,-0.31692098,1,0,0,,0,278,278,388,1,
,,,,,,,,,,,,,,,,,,5ef35f1554cf70092d1997d9,2020-08-10_16h26.16.108,lexical_decision_task_MP,2020.1.3,Linux armv7l,60,,0,-0.440724521,-0.319694858,1,0,0,0.7064,button_left,0.7064,1,,,,,,435,NW,UN,33,frutan,IMPURB,z,,,,,,-0.440724521,-0.319694858,1,0,0,,0,279,279,374,1,
,,,,,,,,,,,,,,,,,,5ef35f1554cf70092d1997d9,2020-08-10_16h26.16.108,lexical_decision_task_MP,2020.1.3,Linux armv7l,60,,0,0.472593519,-0.312760078,1,0,0,0.5749,button_right,0.5749,1,,,,,,6,WORD,UN,50,anchor,BUNDLE,m,,,,,,0.472593519,-0.312760078,1,0,0,,0,280,280,185,1,
,,,,,,,,,,,,,,,,,,5ef35f1554cf70092d1997d9,2020-08-10_16h26.16.108,lexical_decision_task_MP,2020.1.3,Linux armv7l,60,,0,0.472593519,-0.312760078,1,0,0,0.5337,button_right,0.5337,1,,,,,,154,WORD,"ID",50,author,AUTHOR,m,,,,,,0.472593519,-0.312760078,1,0,0,,0,281,281,93,1,
,,,,,,,,,,,,,,,,,,5ef35f1554cf70092d1997d9,2020-08-10_16h26.16.108,lexical_decision_task_MP,2020.1.3,Linux armv7l,60,,0,-0.443500604,-0.311373138,1,0,0,0.6523,button_left,0.6523,1,,,,,,313,NW,"ID",33,paurse,PAURSE,z,,,,,,-0.443500604,-0.311373138,1,0,0,,0,282,282,252,1,
,,,,,,,,,,,,,,,,,,5ef35f1554cf70092d1997d9,2020-08-10_16h26.16.108,lexical_decision_task_MP,2020.1.3,Linux armv7l,60,,0,-0.443500604,-0.311373138,1,0,0,0.6158,button_left,0.6158,1,,,,,,446,NW,UN,33,gircue,RUNAMO,z,,,,,,-0.443500604,-0.311373138,1,0,0,,0,283,283,385,1,
,,,,,,,,,,,,,,,,,,5ef35f1554cf70092d1997d9,2020-08-10_16h26.16.108,lexical_decision_task_MP,2020.1.3,Linux armv7l,60,,0,-0.444888602,-0.309986115,1,0,0,0.6166,button_left,0.6166,0,,,,,,94,WORD,"ID",33,travel,TRAVEL,m,,,,,,-0.444888602,-0.309986115,1,0,0,,0,284,284,33,1,
,,,,,,,,,,,,,,,,,,5ef35f1554cf70092d1997d9,2020-08-10_16h26.16.108,lexical_decision_task_MP,2020.1.3,Linux armv7l,60,,0,0.469817437,-0.32385576,1,0,0,0.6981,button_right,0.6981,0,,,,,,413,NW,"ID",50,equats,EQUATS,z,,,,,,0.469817437,-0.32385576,1,0,0,,0,285,285,352,1,
,,,,,,,,,,,,,,,,,,5ef35f1554cf70092d1997d9,2020-08-10_16h26.16.108,lexical_decision_task_MP,2020.1.3,Linux armv7l,60,,0,-0.479589123,-0.264216359,1,0,0,0.7328,button_left,0.7328,1,,,,,,378,NW,"ID",50,shrile,SHRILE,z,,,,,,-0.479589123,-0.264216359,1,0,0,,0,286,286,317,1,
,,,,,,,,,,,,,,,,,,5ef35f1554cf70092d1997d9,2020-08-10_16h26.16.108,lexical_decision_task_MP,2020.1.3,Linux armv7l,60,,0,0.489249844,-0.29334259,1,0,0,0.5522,button_right,0.5522,0,,,,,,260,NW,UN,50,stunch,UNJECT,z,,,,,,0.489249844,-0.29334259,1,0,0,,0,287,287,439,1,
,,,,,,,,,,,,,,,,,,5ef35f1554cf70092d1997d9,2020-08-10_16h26.16.108,lexical_decision_task_MP,2020.1.3,Linux armv7l,60,,0,-0.444888602,-0.300277371,1,0,0,0.6648,button_left,0.6648,1,,,,,,394,NW,"ID",50,spaqux,SPAQUX,z,,,,,,-0.444888602,-0.300277371,1,0,0,,0,288,288,333,1,
,,,,,,,,,,,,,,,,,,5ef35f1554cf70092d1997d9,2020-08-10_16h26.16.108,lexical_decision_task_MP,2020.1.3,Linux armv7l,60,,0,0.472593519,-0.314147017,1,0,0,0.5152,button_right,0.5152,1,,,,,,172,WORD,"ID",50,patrol,PATROL,m,,,,,,0.472593519,-0.314147017,1,0,0,,0,289,289,111,1,
,,,,,,,,,,,,,,,,,,5ef35f1554cf70092d1997d9,2020-08-10_16h26.16.108,lexical_decision_task_MP,2020.1.3,Linux armv7l,60,,0,0.472593519,-0.314147017,1,0,0,0.4708,button_right,0.4708,1,,,,,,197,WORD,UN,33,wicked,STREAM,m,,,,,,0.472593519,-0.314147017,1,0,0,,0,290,290,136,1,
,,,,,,,,,,,,,,,,,,5ef35f1554cf70092d1997d9,2020-08-10_16h26.16.108,lexical_decision_task_MP,2020.1.3,Linux armv7l,60,,0,0.473981561,-0.312760078,1,0,0,0.4629,button_right,0.4629,1,,,,,,178,WORD,"ID",50,inform,INFORM,m,,,,,,0.473981561,-0.312760078,1,0,0,,0,291,291,117,1,
,,,,,,,,,,,,,,,,,,5ef35f1554cf70092d1997d9,2020-08-10_16h26.16.108,lexical_decision_task_MP,2020.1.3,Linux armv7l,60,,0,0.473981561,-0.312760078,1,0,0,0.5323,button_right,0.5323,1,,,,,,57,WORD,UN,50,danger,CHANGE,m,,,,,,0.473981561,-0.312760078,1,0,0,,0,292,292,236,1,
,,,,,,,,,,,,,,,,,,5ef35f1554cf70092d1997d9,2020-08-10_16h26.16.108,lexical_decision_task_MP,2020.1.3,Linux armv7l,60,,0,0.475369602,-0.312760078,1,0,0,0.5343,button_right,0.5343,1,,,,,,118,WORD,"ID",33,flight,FLIGHT,m,,,,,,0.475369602,-0.312760078,1,0,0,,0,293,293,57,1,
,,,,,,,,,,,,,,,,,,5ef35f1554cf70092d1997d9,2020-08-10_16h26.16.108,lexical_decision_task_MP,2020.1.3,Linux armv7l,60,,0,0.475369602,-0.312760078,1,0,0,0.5012,button_right,0.5012,1,,,,,,48,WORD,UN,50,survey,WALNUT,m,,,,,,0.475369602,-0.312760078,1,0,0,,0,294,294,227,1,
,,,,,,,,,,,,,,,,,,5ef35f1554cf70092d1997d9,2020-08-10_16h26.16.108,lexical_decision_task_MP,2020.1.3,Linux armv7l,60,,0,-0.440724521,-0.304438273,1,0,0,0.5671,button_left,0.5671,1,,,,,,333,NW,"ID",33,catrie,CATRIE,z,,,,,,-0.440724521,-0.304438273,1,0,0,,0,295,295,272,1,
,,,,,,,,,,,,,,,,,,5ef35f1554cf70092d1997d9,2020-08-10_16h26.16.108,lexical_decision_task_MP,2020.1.3,Linux armv7l,60,,0,-0.447664642,-0.318307919,1,0,0,0.7492,button_left,0.7492,1,,,,,,389,NW,"ID",50,witmer,WITMER,z,,,,,,-0.447664642,-0.318307919,1,0,0,,0,296,296,328,1,
,,,,,,,,,,,,,,,,,,5ef35f1554cf70092d1997d9,2020-08-10_16h26.16.108,lexical_decision_task_MP,2020.1.3,Linux armv7l,60,,0,-0.447664642,-0.31692098,1,0,0,0.599,button_left,0.599,1,,,,,,423,NW,UN,33,praile,STRELD,z,,,,,,-0.447664642,-0.31692098,1,0,0,,0,297,297,362,1,
,,,,,,,,,,,,,,,,,,5ef35f1554cf70092d1997d9,2020-08-10_16h26.16.108,lexical_decision_task_MP,2020.1.3,Linux armv7l,60,,0,0.482309638,-0.308599175,1,0,0,0.5698,button_right,0.5698,1,,,,,,69,WORD,"ID",33,plenty,PLENTY,m,,,,,,0.482309638,-0.308599175,1,0,0,,0,298,298,8,1,
,,,,,,,,,,,,,,,,,,5ef35f1554cf70092d1997d9,2020-08-10_16h26.16.108,lexical_decision_task_MP,2020.1.3,Linux armv7l,60,,0,0.471205478,-0.319694858,1,0,0,0.4399,button_right,0.4399,1,,,,,,188,WORD,UN,33,censor,SOCIAL,m,,,,,,0.471205478,-0.319694858,1,0,0,,0,299,299,127,1,
,,,,,,,,,,,,,,,,,,5ef35f1554cf70092d1997d9,2020-08-10_16h26.16.108,lexical_decision_task_MP,2020.1.3,Linux armv7l,60,,0,-0.436560482,-0.305825297,1,0,0,0.6033,button_left,0.6033,1,,,,,,298,NW,UN,50,sturch,PIERGY,z,,,,,,-0.436560482,-0.305825297,1,0,0,,0,300,300,477,1,
,,,,,,,,,,,,,,,,,,5ef35f1554cf70092d1997d9,2020-08-10_16h26.16.108,lexical_decision_task_MP,2020.1.3,Linux armv7l,60,,0,0.490637885,-0.301664395,1,0,0,0.4474,button_right,0.4474,1,,,,,,165,WORD,"ID",50,invest,INVEST,m,,,,,,0.490637885,-0.301664395,1,0,0,,0,301,301,104,1,
,,,,,,,,,,,,,,,,,,5ef35f1554cf70092d1997d9,2020-08-10_16h26.16.108,lexical_decision_task_MP,2020.1.3,Linux armv7l,60,,0,0.489249844,-0.301664395,1,0,0,0.7676,button_right,0.7676,1,,,,,,33,WORD,UN,50,jungle,BUTLER,m,,,,,,0.489249844,-0.301664395,1,0,0,,0,302,302,212,1,
,,,,,,,,,,,,,,,,,,5ef35f1554cf70092d1997d9,2020-08-10_16h26.16.108,lexical_decision_task_MP,2020.1.3,Linux armv7l,60,,0,-0.436560482,-0.312760078,1,0,0,0.5361,button_left,0.5361,1,,,,,,419,NW,"ID",50,slount,SLOUNT,z,,,,,,-0.436560482,-0.312760078,1,0,0,,0,303,303,358,1,
,,,,,,,,,,,,,,,,,,5ef35f1554cf70092d1997d9,2020-08-10_16h26.16.108,lexical_decision_task_MP,2020.1.3,Linux armv7l,60,,0,-0.447664642,-0.303051334,1,0,0,0.8048,button_left,0.8048,1,,,,,,426,NW,UN,33,schind,URIVEL,z,,,,,,-0.447664642,-0.303051334,1,0,0,,0,304,304,365,1,
,,,,,,,,,,,,,,,,,,5ef35f1554cf70092d1997d9,2020-08-10_16h26.16.108,lexical_decision_task_MP,2020.1.3,Linux armv7l,60,,0,-0.446276644,-0.303051334,1,0,0,0.6462,button_left,0.6462,1,,,,,,274,NW,UN,50,sleirt,FUMBLO,z,,,,,,-0.446276644,-0.303051334,1,0,0,,0,305,305,453,1,
,,,,,,,,,,,,,,,,,,5ef35f1554cf70092d1997d9,2020-08-10_16h26.16.108,lexical_decision_task_MP,2020.1.3,Linux armv7l,60,,0,-0.444888602,-0.303051334,1,0,0,0.6026,button_left,0.6026,1,,,,,,251,NW,UN,50,stapod,LUPICT,z,,,,,,-0.444888602,-0.303051334,1,0,0,,0,306,306,430,1,
,,,,,,,,,,,,,,,,,,5ef35f1554cf70092d1997d9,2020-08-10_16h26.16.108,lexical_decision_task_MP,2020.1.3,Linux armv7l,60,,0,-0.4337844,-0.318307919,1,0,0,0.6007,button_left,0.6007,1,,,,,,405,NW,"ID",50,flumni,FLUMNI,z,,,,,,-0.4337844,-0.318307919,1,0,0,,0,307,307,344,1,
,,,,,,,,,,,,,,,,,,5ef35f1554cf70092d1997d9,2020-08-10_16h26.16.108,lexical_decision_task_MP,2020.1.3,Linux armv7l,60,,0,-0.4337844,-0.31692098,1,0,0,0.5335,button_left,0.5335,1,,,,,,327,NW,"ID",33,plenac,PLENAC,z,,,,,,-0.4337844,-0.31692098,1,0,0,,0,308,308,266,1,
,,,,,,,,,,,,,,,,,,5ef35f1554cf70092d1997d9,2020-08-10_16h26.16.108,lexical_decision_task_MP,2020.1.3,Linux armv7l,60,,0,0.475369602,-0.318307919,1,0,0,0.6407,button_right,0.6407,1,,,,,,18,WORD,UN,50,patron,HUMBLE,m,,,,,,0.475369602,-0.318307919,1,0,0,,0,309,309,197,1,
,,,,,,,,,,,,,,,,,,5ef35f1554cf70092d1997d9,2020-08-10_16h26.16.108,lexical_decision_task_MP,2020.1.3,Linux armv7l,60,,0,-0.432396444,-0.318307919,1,0,0,0.5851,button_left,0.5851,1,,,,,,370,NW,"ID",50,sleact,SLEACT,z,,,,,,-0.432396444,-0.318307919,1,0,0,,0,310,310,309,1,
,,,,,,,,,,,,,,,,,,5ef35f1554cf70092d1997d9,2020-08-10_16h26.16.108,lexical_decision_task_MP,2020.1.3,Linux armv7l,60,,0,-0.440724521,-0.304438273,1,0,0,0.6615,button_left,0.6615,1,,,,,,424,NW,UN,33,frudge,PRAILE,z,,,,,,-0.440724521,-0.304438273,1,0,0,,0,311,311,363,1,
,,,,,,,,,,,,,,,,,,5ef35f1554cf70092d1997d9,2020-08-10_16h26.16.108,lexical_decision_task_MP,2020.1.3,Linux armv7l,60,,0,0.475369602,-0.309986115,1,0,0,0.5332,button_right,0.5332,1,,,,,,190,WORD,UN,33,stable,BACKUP,m,,,,,,0.475369602,-0.309986115,1,0,0,,0,312,312,129,1,
,,,,,,,,,,,,,,,,,,5ef35f1554cf70092d1997d9,2020-08-10_16h26.16.108,lexical_decision_task_MP,2020.1.3,Linux armv7l,60,,0,0.467041524,-0.3252427,1,0,0,0.5492,button_right,0.5492,1,,,,,,159,WORD,"ID",50,detail,DETAIL,m,,,,,,0.467041524,-0.3252427,1,0,0,,0,313,313,98,1,
,,,,,,,,,,,,,,,,,,5ef35f1554cf70092d1997d9,2020-08-10_16h26.16.108,lexical_decision_task_MP,2020.1.3,Linux armv7l,60,,0,0.467041524,-0.3252427,1,0,0,0.4814,button_right,0.4814,0,,,,,,354,NW,"ID",33,virlex,VIRLEX,z,,,,,,0.467041524,-0.3252427,1,0,0,,0,314,314,293,1,
,,,,,,,,,,,,,,,,,,5ef35f1554cf70092d1997d9,2020-08-10_16h26.16.108,lexical_decision_task_MP,2020.1.3,Linux armv7l,60,,0,0.468429396,-0.32385576,1,0,0,0.5802,button_right,0.5802,1,,,,,,211,WORD,UN,33,verify,INFECT,m,,,,,,0.468429396,-0.32385576,1,0,0,,0,315,315,150,1,
,,,,,,,,,,,,,,,,,,5ef35f1554cf70092d1997d9,2020-08-10_16h26.16.108,lexical_decision_task_MP,2020.1.3,Linux armv7l,60,,0,-0.41157608,-0.346047211,1,0,0,1.2348,button_left,1.2348,1,,,,,,252,NW,UN,50,resait,STAPOD,z,,,,,,-0.41157608,-0.346047211,1,0,0,,0,316,316,431,1,
,,,,,,,,,,,,,,,,,,5ef35f1554cf70092d1997d9,2020-08-10_16h26.16.108,lexical_decision_task_MP,2020.1.3,Linux armv7l,60,,0,0.469817437,-0.321081882,1,0,0,0.6675,button_right,0.6675,1,,,,,,59,WORD,UN,50,pencil,SPLINT,m,,,,,,0.469817437,-0.321081882,1,0,0,,0,317,317,238,1,
,,,,,,,,,,,,,,,,,,5ef35f1554cf70092d1997d9,2020-08-10_16h26.16.108,lexical_decision_task_MP,2020.1.3,Linux armv7l,60,,0,-0.424068281,-0.330790626,1,0,0,0.6115,button_left,0.6115,1,,,,,,264,NW,UN,50,distar,VACKEL,z,,,,,,-0.424068281,-0.330790626,1,0,0,,0,318,318,443,1,
,,,,,,,,,,,,,,,,,,5ef35f1554cf70092d1997d9,2020-08-10_16h26.16.108,lexical_decision_task_MP,2020.1.3,Linux armv7l,60,,0,0.48508572,-0.298890432,1,0,0,0.5765,button_right,0.5765,0,,,,,,338,NW,"ID",33,wreash,WREASH,z,,,,,,0.48508572,-0.298890432,1,0,0,,0,319,319,277,1,
,,,,,,,,,,,,,,,,,,5ef35f1554cf70092d1997d9,2020-08-10_16h26.16.108,lexical_decision_task_MP,2020.1.3,Linux armv7l,60,,0,0.48508572,-0.297503493,1,0,0,0.9815,button_right,0.9815,0,,,,,,476,NW,UN,33,photie,JOSTED,z,,,,,,0.48508572,-0.297503493,1,0,0,,0,320,320,415,1,
,,,,,,,,,,,,,,,,,,5ef35f1554cf70092d1997d9,2020-08-10_16h26.16.108,lexical_decision_task_MP,2020.1.3,Linux armv7l,60,,0,-0.432396444,-0.3252427,1,0,0,0.6632,button_left,0.6632,1,,,,,,340,NW,"ID",33,fiatch,FIATCH,z,,,,,,-0.432396444,-0.3252427,1,0,0,,0,321,321,279,1,
,,,,,,,,,,,,,,,,,,5ef35f1554cf70092d1997d9,2020-08-10_16h26.16.108,lexical_decision_task_MP,2020.1.3,Linux armv7l,60,,0,-0.435172441,-0.304438273,1,0,0,0.7842,button_left,0.7842,1,,,,,,396,NW,"ID",50,flengy,FLENGY,z,,,,,,-0.435172441,-0.304438273,1,0,0,,0,322,322,335,1,
,,,,,,,,,,,,,,,,,,5ef35f1554cf70092d1997d9,2020-08-10_16h26.16.108,lexical_decision_task_MP,2020.1.3,Linux armv7l,60,,0,-0.451828723,-0.257281579,1,0,0,0.6418,button_left,0.6418,1,,,,,,241,NW,UN,50,unwert,SMENCO,z,,,,,,-0.451828723,-0.257281579,1,0,0,,0,323,323,420,1,
,,,,,,,,,,,,,,,,,,5ef35f1554cf70092d1997d9,2020-08-10_16h26.16.108,lexical_decision_task_MP,2020.1.3,Linux armv7l,60,,0,0.472593519,-0.29334259,1,0,0,0.742,button_right,0.742,1,,,,,,192,WORD,UN,33,object,PLAGUE,m,,,,,,0.472593519,-0.29334259,1,0,0,,0,324,324,131,1,
,,,,,,,,,,,,,,,,,,5ef35f1554cf70092d1997d9,2020-08-10_16h26.16.108,lexical_decision_task_MP,2020.1.3,Linux armv7l,60,,0,0.442057122,-0.307212236,1,0,0,0.6182,button_right,0.6182,1,,,,,,62,WORD,"ID",33,region,REGION,m,,,,,,0.442057122,-0.307212236,1,0,0,,0,325,325,1,1,
,,,,,,,,,,,,,,,,,,5ef35f1554cf70092d1997d9,2020-08-10_16h26.16.108,lexical_decision_task_MP,2020.1.3,Linux armv7l,60,,0,-0.467096965,-0.319694858,1,0,0,0.7114,button_left,0.7114,1,,,,,,399,NW,"ID",50,fouret,FOURET,z,,,,,,-0.467096965,-0.319694858,1,0,0,,0,326,326,338,1,
,,,,,,,,,,,,,,,,,,5ef35f1554cf70092d1997d9,2020-08-10_16h26.16.108,lexical_decision_task_MP,2020.1.3,Linux armv7l,60,,0,0.458713277,-0.291955651,1,0,0,0.5311,button_right,0.5311,1,,,,,,214,WORD,UN,33,phobia,INTAKE,m,,,,,,0.458713277,-0.291955651,1,0,0,,0,327,327,153,1,
,,,,,,,,,,,,,,,,,,5ef35f1554cf70092d1997d9,2020-08-10_16h26.16.108,lexical_decision_task_MP,2020.1.3,Linux armv7l,60,,0,-0.493469365,-0.287794749,1,0,0,0.6836,button_left,0.6836,1,,,,,,323,NW,"ID",33,rosail,ROSAIL,z,,,,,,-0.493469365,-0.287794749,1,0,0,,0,328,328,262,1,
,,,,,,,,,,,,,,,,,,5ef35f1554cf70092d1997d9,2020-08-10_16h26.16.108,lexical_decision_task_MP,2020.1.3,Linux armv7l,60,,0,-0.492081324,-0.289181688,1,0,0,0.9458,button_left,0.9458,1,,,,,,246,NW,UN,50,blarge,PIATON,z,,,,,,-0.492081324,-0.289181688,1,0,0,,0,329,329,425,1,
,,,,,,,,,,,,,,,,,,5ef35f1554cf70092d1997d9,2020-08-10_16h26.16.108,lexical_decision_task_MP,2020.1.3,Linux armv7l,60,,0,-0.4337844,-0.344660187,1,0,0,0.8602,button_left,0.8602,1,,,,,,331,NW,"ID",33,gilfew,GILFEW,z,,,,,,-0.4337844,-0.344660187,1,0,0,,0,330,330,270,1,
,,,,,,,,,,,,,,,,,,5ef35f1554cf70092d1997d9,2020-08-10_16h26.16.108,lexical_decision_task_MP,2020.1.3,Linux armv7l,60,,0,0.440669081,-0.318307919,1,0,0,0.5661,button_right,0.5661,0,,,,,,397,NW,"ID",50,camble,CAMBLE,z,,,,,,0.440669081,-0.318307919,1,0,0,,0,331,331,336,1,
,,,,,,,,,,,,,,,,,,5ef35f1554cf70092d1997d9,2020-08-10_16h26.16.108,lexical_decision_task_MP,2020.1.3,Linux armv7l,60,,0,0.440669081,-0.315534041,1,0,0,1.5653,button_right,1.5653,1,,,,,,155,WORD,"ID",50,lizard,LIZARD,m,,,,,,0.440669081,-0.315534041,1,0,0,,0,332,332,94,1,
,,,,,,,,,,,,,,,,,,5ef35f1554cf70092d1997d9,2020-08-10_16h26.16.108,lexical_decision_task_MP,2020.1.3,Linux armv7l,60,,0,0.442057122,-0.311373138,1,0,0,0.755,button_right,0.755,1,,,,,,207,WORD,UN,33,hockey,WREATH,m,,,,,,0.442057122,-0.311373138,1,0,0,,0,333,333,146,1,
,,,,,,,,,,,,,,,,,,5ef35f1554cf70092d1997d9,2020-08-10_16h26.16.108,lexical_decision_task_MP,2020.1.3,Linux armv7l,60,,0,-0.457380803,-0.314147017,1,0,0,0.6599,button_left,0.6599,1,,,,,,453,NW,UN,33,scouge,BOLVIS,z,,,,,,-0.457380803,-0.314147017,1,0,0,,0,334,334,392,1,
,,,,,,,,,,,,,,,,,,5ef35f1554cf70092d1997d9,2020-08-10_16h26.16.108,lexical_decision_task_MP,2020.1.3,Linux armv7l,60,,0,0.436504957,-0.315534041,1,0,0,0.8068,button_right,0.8068,1,,,,,,184,WORD,UN,33,bother,SLEAZY,m,,,,,,0.436504957,-0.315534041,1,0,0,,0,335,335,123,1,
,,,,,,,,,,,,,,,,,,5ef35f1554cf70092d1997d9,2020-08-10_16h26.16.108,lexical_decision_task_MP,2020.1.3,Linux armv7l,60,,0,0.455937364,-0.290568712,1,0,0,0.6381,button_right,0.6381,1,,,,,,27,WORD,UN,50,comedy,SCREAM,m,,,,,,0.455937364,-0.290568712,1,0,0,,0,336,336,206,1,
,,,,,,,,,,,,,,,,,,5ef35f1554cf70092d1997d9,2020-08-10_16h26.16.108,lexical_decision_task_MP,2020.1.3,Linux armv7l,60,,0,0.472593519,-0.275312042,1,0,0,0.5652,button_right,0.5652,1,,,,,,115,WORD,"ID",33,guitar,GUITAR,m,,,,,,0.472593519,-0.275312042,1,0,0,,0,337,337,54,1,
,,,,,,,,,,,,,,,,,,5ef35f1554cf70092d1997d9,2020-08-10_16h26.16.108,lexical_decision_task_MP,2020.1.3,Linux armv7l,60,,0,0.460101318,-0.285020786,1,0,0,0.6294,button_right,0.6294,1,,,,,,63,WORD,"ID",33,launch,LAUNCH,m,,,,,,0.460101318,-0.285020786,1,0,0,,0,338,338,2,1,
,,,,,,,,,,,,,,,,,,5ef35f1554cf70092d1997d9,2020-08-10_16h26.16.108,lexical_decision_task_MP,2020.1.3,Linux armv7l,60,,0,0.46148936,-0.285020786,1,0,0,0.5102,button_right,0.5102,1,,,,,,38,WORD,UN,50,insect,POWDER,m,,,,,,0.46148936,-0.285020786,1,0,0,,0,339,339,217,1,
,,,,,,,,,,,,,,,,,,5ef35f1554cf70092d1997d9,2020-08-10_16h26.16.108,lexical_decision_task_MP,2020.1.3,Linux armv7l,60,,0,0.462877401,-0.285020786,1,0,0,0.5542,button_right,0.5542,1,,,,,,236,WORD,UN,33,grumpy,PIRATE,m,,,,,,0.462877401,-0.285020786,1,0,0,,0,340,340,175,1,
,,,,,,,,,,,,,,,,,,5ef35f1554cf70092d1997d9,2020-08-10_16h26.16.108,lexical_decision_task_MP,2020.1.3,Linux armv7l,60,,0,0.4503852,-0.308599175,1,0,0,0.4667,button_right,0.4667,1,,,,,,32,WORD,UN,50,scream,BUCKLE,m,,,,,,0.4503852,-0.308599175,1,0,0,,0,341,341,211,1,
,,,,,,,,,,,,,,,,,,5ef35f1554cf70092d1997d9,2020-08-10_16h26.16.108,lexical_decision_task_MP,2020.1.3,Linux armv7l,60,,0,-0.458768802,-0.322468821,1,0,0,0.7061,button_left,0.7061,1,,,,,,475,NW,UN,33,josted,PEBRIC,z,,,,,,-0.458768802,-0.322468821,1,0,0,,0,342,342,414,1,
