counterbalancing_condition,instr_done_keyboard.keys,instr_done_touch.x,instr_done_touch.y,instr_done_touch.leftButton,instr_done_touch.midButton,instr_done_touch.rightButton,instr_done_touch.clicked_name,instruction_pages.thisRepN,instruction_pages.thisTrialN,instruction_pages.thisN,instruction_pages.thisIndex,instruction_pages.ran,pageN,phase,instruct_text,has_image,instruct_image,participant,date,expName,psychopyVersion,OS,frameRate,instr_done_keyboard.rt,response.keys,response.corr,response.rt,touch_resp.x,touch_resp.y,touch_resp.leftButton,touch_resp.midButton,touch_resp.rightButton,touch_resp.time,touch_resp.clicked_name,rt,corr,practice_trials.thisRepN,practice_trials.thisTrialN,practice_trials.thisN,practice_trials.thisIndex,practice_trials.ran,TrialID,StimulusType,Condition,PrimeDuration,Prime,Target,corrAns,end_of_practice_trials_pages.thisRepN,end_of_practice_trials_pages.thisTrialN,end_of_practice_trials_pages.thisN,end_of_practice_trials_pages.thisIndex,end_of_practice_trials_pages.ran,break_done_touch.x,break_done_touch.y,break_done_touch.leftButton,break_done_touch.midButton,break_done_touch.rightButton,break_done_keyboard.keys,trials.thisRepN,trials.thisTrialN,trials.thisN,trials.thisIndex,trials.ran,break_done_keyboard.rt
1,,0.077501085,-0.410918511,1,0,0,instr_done_button,0,0,0,0,1,1,instructions,"INSTRUCTIONS
At the start of each trial, look at the hash marks (######) in the center of the screen. After a moment, a string of letters will appear. Your task is to indicate if the letter string forms a word or not (i.e., if it is a nonword). For example, AUTHOR is a word while AUTHON is a nonword.

Press the space bar or touch the button below to continue.",0,,5ef3723b50bced0c4a711686,2020-08-10_12h18.41.167,lexical_decision_task_MP,2020.1.3,MacIntel,60,,,,,,,,,,,,,,,,,,,,,,,,,,,,,,,,,,,,,,,,,,
,space,0.076744249,-0.42801378,0,0,0,,0,1,1,1,1,2,instructions,"If your device has a keyboard, press the 'Z' key for nonwords and the 'M' key for words.





Press the space bar or touch the button below to continue.",1,keyboard-example.gif,5ef3723b50bced0c4a711686,2020-08-10_12h18.41.167,lexical_decision_task_MP,2020.1.3,MacIntel,60,14.90222,,,,,,,,,,,,,,,,,,,,,,,,,,,,,,,,,,,,,,,,,
,space,0.076744249,-0.42801378,0,0,0,,0,2,2,2,1,3,instructions,"If you are using a touchscreen only device, use the buttons on the screen. Do not use the mouse.





Press the space bar or touch the button below to continue.",1,touchscreen-example.gif,5ef3723b50bced0c4a711686,2020-08-10_12h18.41.167,lexical_decision_task_MP,2020.1.3,MacIntel,60,5.1176,,,,,,,,,,,,,,,,,,,,,,,,,,,,,,,,,,,,,,,,,
,space,0.076744249,-0.42801378,0,0,0,,0,3,3,3,1,4,instructions,"It is very important that you respond as quickly and accurately as possible, as each letter string will only be on the screen for two seconds. If you do not respond within this time, the message 'Too slow!' will be displayed and the experiment will progress to the next letter string. The first 20 trials will be practice trials and you will receive feedback on your answers. 

Press the space bar or touch the button below to start the practice trials.",0,,5ef3723b50bced0c4a711686,2020-08-10_12h18.41.167,lexical_decision_task_MP,2020.1.3,MacIntel,60,10.08213,,,,,,,,,,,,,,,,,,,,,,,,,,,,,,,,,,,,,,,,,
,,,,,,,,,,,,,,,,,,5ef3723b50bced0c4a711686,2020-08-10_12h18.41.167,lexical_decision_task_MP,2020.1.3,MacIntel,60,,z,1,1.21513,,,,,,,,1.21513,1,0,0,0,14,1,1015,NW,UN,50,miaber,THRALE,z,,,,,,,,,,,,,,,,,
,,,,,,,,,,,,,,,,,,5ef3723b50bced0c4a711686,2020-08-10_12h18.41.167,lexical_decision_task_MP,2020.1.3,MacIntel,60,,z,1,0.90028,,,,,,,,0.90028,1,0,1,1,8,1,1009,NW,"ID",33,aslert,ASLERT,z,,,,,,,,,,,,,,,,,
,,,,,,,,,,,,,,,,,,5ef3723b50bced0c4a711686,2020-08-10_12h18.41.167,lexical_decision_task_MP,2020.1.3,MacIntel,60,,z,1,0.749905,,,,,,,,0.749905,1,0,2,2,15,1,1016,NW,UN,50,mushed,WHAISE,z,,,,,,,,,,,,,,,,,
,,,,,,,,,,,,,,,,,,5ef3723b50bced0c4a711686,2020-08-10_12h18.41.167,lexical_decision_task_MP,2020.1.3,MacIntel,60,,m,1,0.599035,,,,,,,,0.599035,1,0,3,3,1,1,1002,WORD,"ID",33,adjust,ADJUST,m,,,,,,,,,,,,,,,,,
,,,,,,,,,,,,,,,,,,5ef3723b50bced0c4a711686,2020-08-10_12h18.41.167,lexical_decision_task_MP,2020.1.3,MacIntel,60,,z,1,0.75384,,,,,,,,0.75384,1,0,4,4,9,1,1010,NW,"ID",33,fariny,FARINY,z,,,,,,,,,,,,,,,,,
,,,,,,,,,,,,,,,,,,5ef3723b50bced0c4a711686,2020-08-10_12h18.41.167,lexical_decision_task_MP,2020.1.3,MacIntel,60,,z,1,0.85457,,,,,,,,0.85457,1,0,5,5,12,1,1013,NW,UN,33,adveil,SPRINY,z,,,,,,,,,,,,,,,,,
,,,,,,,,,,,,,,,,,,5ef3723b50bced0c4a711686,2020-08-10_12h18.41.167,lexical_decision_task_MP,2020.1.3,MacIntel,60,,m,1,0.67456,,,,,,,,0.67456,1,0,6,6,5,1,1006,WORD,UN,33,frenzy,OBTAIN,m,,,,,,,,,,,,,,,,,
,,,,,,,,,,,,,,,,,,5ef3723b50bced0c4a711686,2020-08-10_12h18.41.167,lexical_decision_task_MP,2020.1.3,MacIntel,60,,m,1,0.58183,,,,,,,,0.58183,1,0,7,7,4,1,1005,WORD,UN,33,abound,SQUEAK,m,,,,,,,,,,,,,,,,,
,,,,,,,,,,,,,,,,,,5ef3723b50bced0c4a711686,2020-08-10_12h18.41.167,lexical_decision_task_MP,2020.1.3,MacIntel,60,,m,0,0.71473,,,,,,,,0.71473,0,0,8,8,10,1,1011,NW,"ID",50,inlade,INLADE,z,,,,,,,,,,,,,,,,,
,,,,,,,,,,,,,,,,,,5ef3723b50bced0c4a711686,2020-08-10_12h18.41.167,lexical_decision_task_MP,2020.1.3,MacIntel,60,,m,1,0.829845,,,,,,,,0.829845,1,0,9,9,2,1,1003,WORD,"ID",50,almond,ALMOND,m,,,,,,,,,,,,,,,,,
,,,,,,,,,,,,,,,,,,5ef3723b50bced0c4a711686,2020-08-10_12h18.41.167,lexical_decision_task_MP,2020.1.3,MacIntel,60,,m,1,0.68861,,,,,,,,0.68861,1,0,10,10,6,1,1007,WORD,UN,50,tropic,ZOMBIE,m,,,,,,,,,,,,,,,,,
,,,,,,,,,,,,,,,,,,5ef3723b50bced0c4a711686,2020-08-10_12h18.41.167,lexical_decision_task_MP,2020.1.3,MacIntel,60,,z,1,0.73235,,,,,,,,0.73235,1,0,11,11,13,1,1014,NW,UN,33,winfer,ROUPET,z,,,,,,,,,,,,,,,,,
,,,,,,,,,,,,,,,,,,5ef3723b50bced0c4a711686,2020-08-10_12h18.41.167,lexical_decision_task_MP,2020.1.3,MacIntel,60,,m,1,0.672535,,,,,,,,0.672535,1,0,12,12,7,1,1008,WORD,UN,50,hurdle,VOLUME,m,,,,,,,,,,,,,,,,,
,,,,,,,,,,,,,,,,,,5ef3723b50bced0c4a711686,2020-08-10_12h18.41.167,lexical_decision_task_MP,2020.1.3,MacIntel,60,,z,1,1.042365,,,,,,,,1.042365,1,0,13,13,11,1,1012,NW,"ID",50,rashet,RASHET,z,,,,,,,,,,,,,,,,,
,,,,,,,,,,,,,,,,,,5ef3723b50bced0c4a711686,2020-08-10_12h18.41.167,lexical_decision_task_MP,2020.1.3,MacIntel,60,,m,1,0.59922,,,,,,,,0.59922,1,0,14,14,0,1,1001,WORD,"ID",33,utopia,UTOPIA,m,,,,,,,,,,,,,,,,,
,,,,,,,,,,,,,,,,,,5ef3723b50bced0c4a711686,2020-08-10_12h18.41.167,lexical_decision_task_MP,2020.1.3,MacIntel,60,,m,1,0.568865,,,,,,,,0.568865,1,0,15,15,3,1,1004,WORD,"ID",50,matrix,MATRIX,m,,,,,,,,,,,,,,,,,
,space,0.076744249,-0.42801378,0,0,0,,,,,,,1,end_of_practice,"You have completed the practice trials. During the experimental trials, you will not receive feedback, but it is very important that you respond as quickly and accurately as possible. 
Before you begin, please ensure that you are in a comfortable and quiet location and will not be disturbed for about 15 minutes, as we cannot use your data if you do not complete all the trials. 
There will be opportunities to take breaks at regular intervals during the experiment. When you are ready to start the experimental trials, please press space or touch the button below.",,,5ef3723b50bced0c4a711686,2020-08-10_12h18.41.167,lexical_decision_task_MP,2020.1.3,MacIntel,60,13.293785,,,,,,,,,,,,,,,,,,,,,,,,,0,0,0,0,1,,,,,,,,,,,,
,,,,,,,,,,,,,,,,,,5ef3723b50bced0c4a711686,2020-08-10_12h18.41.167,lexical_decision_task_MP,2020.1.3,MacIntel,60,,z,1,0.81925,,,,,,,,0.81925,1,,,,,,416,NW,UN,33,earoud,PATHEL,z,,,,,,0.076744249,-0.42801378,0,0,0,,0,0,0,415,1,
,,,,,,,,,,,,,,,,,,5ef3723b50bced0c4a711686,2020-08-10_12h18.41.167,lexical_decision_task_MP,2020.1.3,MacIntel,60,,z,1,0.675895,,,,,,,,0.675895,1,,,,,,399,NW,UN,33,wearox,FOURET,z,,,,,,0.076744249,-0.42801378,0,0,0,,0,1,1,398,1,
,,,,,,,,,,,,,,,,,,5ef3723b50bced0c4a711686,2020-08-10_12h18.41.167,lexical_decision_task_MP,2020.1.3,MacIntel,60,,z,1,0.78211,,,,,,,,0.78211,1,,,,,,359,NW,"ID",50,fonver,FONVER,z,,,,,,0.076744249,-0.42801378,0,0,0,,0,2,2,358,1,
,,,,,,,,,,,,,,,,,,5ef3723b50bced0c4a711686,2020-08-10_12h18.41.167,lexical_decision_task_MP,2020.1.3,MacIntel,60,,z,1,0.67187,,,,,,,,0.67187,1,,,,,,364,NW,UN,33,guairt,IMPOTE,z,,,,,,0.076744249,-0.42801378,0,0,0,,0,3,3,363,1,
,,,,,,,,,,,,,,,,,,5ef3723b50bced0c4a711686,2020-08-10_12h18.41.167,lexical_decision_task_MP,2020.1.3,MacIntel,60,,z,1,0.68493,,,,,,,,0.68493,1,,,,,,369,NW,UN,33,sleact,WRONCH,z,,,,,,0.076744249,-0.42801378,0,0,0,,0,4,4,368,1,
,,,,,,,,,,,,,,,,,,5ef3723b50bced0c4a711686,2020-08-10_12h18.41.167,lexical_decision_task_MP,2020.1.3,MacIntel,60,,m,1,0.51615,,,,,,,,0.51615,1,,,,,,234,WORD,UN,50,lumber,CLUMSY,m,,,,,,0.076744249,-0.42801378,0,0,0,,0,5,5,233,1,
,,,,,,,,,,,,,,,,,,5ef3723b50bced0c4a711686,2020-08-10_12h18.41.167,lexical_decision_task_MP,2020.1.3,MacIntel,60,,m,1,0.550555,,,,,,,,0.550555,1,,,,,,31,WORD,"ID",33,weapon,WEAPON,m,,,,,,0.076744249,-0.42801378,0,0,0,,0,6,6,30,1,
,,,,,,,,,,,,,,,,,,5ef3723b50bced0c4a711686,2020-08-10_12h18.41.167,lexical_decision_task_MP,2020.1.3,MacIntel,60,,z,1,0.608985,,,,,,,,0.608985,1,,,,,,387,NW,UN,33,cragin,GRONCE,z,,,,,,0.076744249,-0.42801378,0,0,0,,0,7,7,386,1,
,,,,,,,,,,,,,,,,,,5ef3723b50bced0c4a711686,2020-08-10_12h18.41.167,lexical_decision_task_MP,2020.1.3,MacIntel,60,,z,1,0.63513,,,,,,,,0.63513,1,,,,,,273,NW,"ID",33,sortel,SORTEL,z,,,,,,0.076744249,-0.42801378,0,0,0,,0,8,8,272,1,
,,,,,,,,,,,,,,,,,,5ef3723b50bced0c4a711686,2020-08-10_12h18.41.167,lexical_decision_task_MP,2020.1.3,MacIntel,60,,m,1,0.519305,,,,,,,,0.519305,1,,,,,,15,WORD,"ID",33,amount,AMOUNT,m,,,,,,0.076744249,-0.42801378,0,0,0,,0,9,9,14,1,
,,,,,,,,,,,,,,,,,,5ef3723b50bced0c4a711686,2020-08-10_12h18.41.167,lexical_decision_task_MP,2020.1.3,MacIntel,60,,z,1,0.665245,,,,,,,,0.665245,1,,,,,,390,NW,UN,33,theldy,HATRUS,z,,,,,,0.076744249,-0.42801378,0,0,0,,0,10,10,389,1,
,,,,,,,,,,,,,,,,,,5ef3723b50bced0c4a711686,2020-08-10_12h18.41.167,lexical_decision_task_MP,2020.1.3,MacIntel,60,,m,1,0.51644,,,,,,,,0.51644,1,,,,,,147,WORD,UN,33,custom,GARLIC,m,,,,,,0.076744249,-0.42801378,0,0,0,,0,11,11,146,1,
,,,,,,,,,,,,,,,,,,5ef3723b50bced0c4a711686,2020-08-10_12h18.41.167,lexical_decision_task_MP,2020.1.3,MacIntel,60,,z,1,0.64682,,,,,,,,0.64682,1,,,,,,368,NW,UN,33,wronch,HORNAL,z,,,,,,0.076744249,-0.42801378,0,0,0,,0,12,12,367,1,
,,,,,,,,,,,,,,,,,,5ef3723b50bced0c4a711686,2020-08-10_12h18.41.167,lexical_decision_task_MP,2020.1.3,MacIntel,60,,z,1,0.832435,,,,,,,,0.832435,1,,,,,,452,NW,UN,50,bolvis,SURDEN,z,,,,,,0.076744249,-0.42801378,0,0,0,,0,13,13,451,1,
,,,,,,,,,,,,,,,,,,5ef3723b50bced0c4a711686,2020-08-10_12h18.41.167,lexical_decision_task_MP,2020.1.3,MacIntel,60,,z,1,0.722015,,,,,,,,0.722015,1,,,,,,461,NW,UN,50,absult,JUSTRE,z,,,,,,0.076744249,-0.42801378,0,0,0,,0,14,14,460,1,
,,,,,,,,,,,,,,,,,,5ef3723b50bced0c4a711686,2020-08-10_12h18.41.167,lexical_decision_task_MP,2020.1.3,MacIntel,60,,z,1,0.58898,,,,,,,,0.58898,1,,,,,,437,NW,UN,50,baitch,SNAPEL,z,,,,,,0.076744249,-0.42801378,0,0,0,,0,15,15,436,1,
,,,,,,,,,,,,,,,,,,5ef3723b50bced0c4a711686,2020-08-10_12h18.41.167,lexical_decision_task_MP,2020.1.3,MacIntel,60,,z,1,0.605645,,,,,,,,0.605645,1,,,,,,470,NW,UN,50,nobest,CRUDIO,z,,,,,,0.076744249,-0.42801378,0,0,0,,0,16,16,469,1,
,,,,,,,,,,,,,,,,,,5ef3723b50bced0c4a711686,2020-08-10_12h18.41.167,lexical_decision_task_MP,2020.1.3,MacIntel,60,,z,1,0.54941,,,,,,,,0.54941,1,,,,,,356,NW,"ID",50,othnis,OTHNIS,z,,,,,,0.076744249,-0.42801378,0,0,0,,0,17,17,355,1,
,,,,,,,,,,,,,,,,,,5ef3723b50bced0c4a711686,2020-08-10_12h18.41.167,lexical_decision_task_MP,2020.1.3,MacIntel,60,,m,1,0.640145,,,,,,,,0.640145,1,,,,,,123,WORD,UN,33,enough,STRIKE,m,,,,,,0.076744249,-0.42801378,0,0,0,,0,18,18,122,1,
,,,,,,,,,,,,,,,,,,5ef3723b50bced0c4a711686,2020-08-10_12h18.41.167,lexical_decision_task_MP,2020.1.3,MacIntel,60,,z,1,0.666585,,,,,,,,0.666585,1,,,,,,430,NW,UN,50,funtle,CAROEY,z,,,,,,0.076744249,-0.42801378,0,0,0,,0,19,19,429,1,
,,,,,,,,,,,,,,,,,,5ef3723b50bced0c4a711686,2020-08-10_12h18.41.167,lexical_decision_task_MP,2020.1.3,MacIntel,60,,z,1,0.61603,,,,,,,,0.61603,1,,,,,,473,NW,UN,50,hablin,CRIBLE,z,,,,,,0.076744249,-0.42801378,0,0,0,,0,20,20,472,1,
,,,,,,,,,,,,,,,,,,5ef3723b50bced0c4a711686,2020-08-10_12h18.41.167,lexical_decision_task_MP,2020.1.3,MacIntel,60,,z,1,0.71653,,,,,,,,0.71653,1,,,,,,433,NW,UN,50,pitrom,DRANCE,z,,,,,,0.076744249,-0.42801378,0,0,0,,0,21,21,432,1,
,,,,,,,,,,,,,,,,,,5ef3723b50bced0c4a711686,2020-08-10_12h18.41.167,lexical_decision_task_MP,2020.1.3,MacIntel,60,,z,1,0.542255,,,,,,,,0.542255,1,,,,,,245,NW,"ID",33,anougs,ANOUGS,z,,,,,,0.076744249,-0.42801378,0,0,0,,0,22,22,244,1,
,,,,,,,,,,,,,,,,,,5ef3723b50bced0c4a711686,2020-08-10_12h18.41.167,lexical_decision_task_MP,2020.1.3,MacIntel,60,,m,1,0.640425,,,,,,,,0.640425,1,,,,,,238,WORD,UN,50,grumpy,FLOWER,m,,,,,,0.076744249,-0.42801378,0,0,0,,0,23,23,237,1,
,,,,,,,,,,,,,,,,,,5ef3723b50bced0c4a711686,2020-08-10_12h18.41.167,lexical_decision_task_MP,2020.1.3,MacIntel,60,,z,1,0.649625,,,,,,,,0.649625,1,,,,,,397,NW,UN,33,blunde,CAMBLE,z,,,,,,0.076744249,-0.42801378,0,0,0,,0,24,24,396,1,
,,,,,,,,,,,,,,,,,,5ef3723b50bced0c4a711686,2020-08-10_12h18.41.167,lexical_decision_task_MP,2020.1.3,MacIntel,60,,m,1,0.65335,,,,,,,,0.65335,1,,,,,,26,WORD,"ID",33,sprint,SPRINT,m,,,,,,0.076744249,-0.42801378,0,0,0,,0,25,25,25,1,
,,,,,,,,,,,,,,,,,,5ef3723b50bced0c4a711686,2020-08-10_12h18.41.167,lexical_decision_task_MP,2020.1.3,MacIntel,60,,z,1,0.58271,,,,,,,,0.58271,1,,,,,,304,NW,"ID",50,cludie,CLUDIE,z,,,,,,0.076744249,-0.42801378,0,0,0,,0,26,26,303,1,
,,,,,,,,,,,,,,,,,,5ef3723b50bced0c4a711686,2020-08-10_12h18.41.167,lexical_decision_task_MP,2020.1.3,MacIntel,60,,m,1,0.80345,,,,,,,,0.80345,1,,,,,,41,WORD,"ID",33,spring,SPRING,m,,,,,,0.076744249,-0.42801378,0,0,0,,0,27,27,40,1,
,,,,,,,,,,,,,,,,,,5ef3723b50bced0c4a711686,2020-08-10_12h18.41.167,lexical_decision_task_MP,2020.1.3,MacIntel,60,,z,1,0.548375,,,,,,,,0.548375,1,,,,,,456,NW,UN,50,wanigh,BROGET,z,,,,,,0.076744249,-0.42801378,0,0,0,,0,28,28,455,1,
,,,,,,,,,,,,,,,,,,5ef3723b50bced0c4a711686,2020-08-10_12h18.41.167,lexical_decision_task_MP,2020.1.3,MacIntel,60,,z,1,0.598185,,,,,,,,0.598185,1,,,,,,474,NW,UN,50,gorbie,HABLIN,z,,,,,,0.076744249,-0.42801378,0,0,0,,0,29,29,473,1,
,,,,,,,,,,,,,,,,,,5ef3723b50bced0c4a711686,2020-08-10_12h18.41.167,lexical_decision_task_MP,2020.1.3,MacIntel,60,,z,1,0.58234,,,,,,,,0.58234,1,,,,,,458,NW,UN,50,chaite,BARCET,z,,,,,,0.076744249,-0.42801378,0,0,0,,0,30,30,457,1,
,,,,,,,,,,,,,,,,,,5ef3723b50bced0c4a711686,2020-08-10_12h18.41.167,lexical_decision_task_MP,2020.1.3,MacIntel,60,,m,1,0.572695,,,,,,,,0.572695,1,,,,,,74,WORD,"ID",50,plaque,PLAQUE,m,,,,,,0.076744249,-0.42801378,0,0,0,,0,31,31,73,1,
,,,,,,,,,,,,,,,,,,5ef3723b50bced0c4a711686,2020-08-10_12h18.41.167,lexical_decision_task_MP,2020.1.3,MacIntel,60,,m,1,0.582785,,,,,,,,0.582785,1,,,,,,153,WORD,UN,33,author,BEHOLD,m,,,,,,0.076744249,-0.42801378,0,0,0,,0,32,32,152,1,
,,,,,,,,,,,,,,,,,,5ef3723b50bced0c4a711686,2020-08-10_12h18.41.167,lexical_decision_task_MP,2020.1.3,MacIntel,60,,z,1,0.81739,,,,,,,,0.81739,1,,,,,,428,NW,UN,50,chrums,TANDLY,z,,,,,,0.076744249,-0.42801378,0,0,0,,0,33,33,427,1,
,,,,,,,,,,,,,,,,,,5ef3723b50bced0c4a711686,2020-08-10_12h18.41.167,lexical_decision_task_MP,2020.1.3,MacIntel,60,,m,1,0.57482,,,,,,,,0.57482,1,,,,,,158,WORD,UN,33,detail,ISLAND,m,,,,,,0.076744249,-0.42801378,0,0,0,,0,34,34,157,1,
,,,,,,,,,,,,,,,,,,5ef3723b50bced0c4a711686,2020-08-10_12h18.41.167,lexical_decision_task_MP,2020.1.3,MacIntel,60,,z,1,0.56859,,,,,,,,0.56859,1,,,,,,463,NW,UN,50,bafent,KISPEL,z,,,,,,0.076744249,-0.42801378,0,0,0,,0,35,35,462,1,
,,,,,,,,,,,,,,,,,,5ef3723b50bced0c4a711686,2020-08-10_12h18.41.167,lexical_decision_task_MP,2020.1.3,MacIntel,60,,m,1,0.601815,,,,,,,,0.601815,1,,,,,,9,WORD,"ID",33,hustle,HUSTLE,m,,,,,,0.076744249,-0.42801378,0,0,0,,0,36,36,8,1,
,,,,,,,,,,,,,,,,,,5ef3723b50bced0c4a711686,2020-08-10_12h18.41.167,lexical_decision_task_MP,2020.1.3,MacIntel,60,,z,1,0.64211,,,,,,,,0.64211,1,,,,,,396,NW,UN,33,camble,FLENGY,z,,,,,,0.076744249,-0.42801378,0,0,0,,0,37,37,395,1,
,,,,,,,,,,,,,,,,,,5ef3723b50bced0c4a711686,2020-08-10_12h18.41.167,lexical_decision_task_MP,2020.1.3,MacIntel,60,,z,1,0.801745,,,,,,,,0.801745,1,,,,,,296,NW,"ID",33,beinch,BEINCH,z,,,,,,0.076744249,-0.42801378,0,0,0,,0,38,38,295,1,
,,,,,,,,,,,,,,,,,,5ef3723b50bced0c4a711686,2020-08-10_12h18.41.167,lexical_decision_task_MP,2020.1.3,MacIntel,60,,z,1,0.59843,,,,,,,,0.59843,1,,,,,,480,NW,UN,50,knisma,ROBULY,z,,,,,,0.076744249,-0.42801378,0,0,0,,0,39,39,479,1,
,,,,,,,,,,,,,,,,,,5ef3723b50bced0c4a711686,2020-08-10_12h18.41.167,lexical_decision_task_MP,2020.1.3,MacIntel,60,,m,1,0.570685,,,,,,,,0.570685,1,,,,,,113,WORD,"ID",50,chorus,CHORUS,m,,,,,,0.076744249,-0.42801378,0,0,0,,0,40,40,112,1,
,,,,,,,,,,,,,,,,,,5ef3723b50bced0c4a711686,2020-08-10_12h18.41.167,lexical_decision_task_MP,2020.1.3,MacIntel,60,,m,1,0.60063,,,,,,,,0.60063,1,,,,,,200,WORD,UN,50,admire,BEACON,m,,,,,,0.076744249,-0.42801378,0,0,0,,0,41,41,199,1,
,,,,,,,,,,,,,,,,,,5ef3723b50bced0c4a711686,2020-08-10_12h18.41.167,lexical_decision_task_MP,2020.1.3,MacIntel,60,,z,1,0.65772,,,,,,,,0.65772,1,,,,,,460,NW,UN,50,justre,MINGAR,z,,,,,,0.076744249,-0.42801378,0,0,0,,0,42,42,459,1,
,,,,,,,,,,,,,,,,,,5ef3723b50bced0c4a711686,2020-08-10_12h18.41.167,lexical_decision_task_MP,2020.1.3,MacIntel,60,,z,1,0.657365,,,,,,,,0.657365,1,,,,,,391,NW,UN,33,rouncy,THELDY,z,,,,,,0.076744249,-0.42801378,0,0,0,,0,43,43,390,1,
,,,,,,,,,,,,,,,,,,5ef3723b50bced0c4a711686,2020-08-10_12h18.41.167,lexical_decision_task_MP,2020.1.3,MacIntel,60,,m,1,0.63752,,,,,,,,0.63752,1,,,,,,99,WORD,"ID",50,fluent,FLUENT,m,,,,,,0.076744249,-0.42801378,0,0,0,,0,44,44,98,1,
,,,,,,,,,,,,,,,,,,5ef3723b50bced0c4a711686,2020-08-10_12h18.41.167,lexical_decision_task_MP,2020.1.3,MacIntel,60,,m,1,0.693365,,,,,,,,0.693365,1,,,,,,52,WORD,"ID",33,impose,IMPOSE,m,,,,,,0.076744249,-0.42801378,0,0,0,,0,45,45,51,1,
,,,,,,,,,,,,,,,,,,5ef3723b50bced0c4a711686,2020-08-10_12h18.41.167,lexical_decision_task_MP,2020.1.3,MacIntel,60,,m,1,0.634325,,,,,,,,0.634325,1,,,,,,139,WORD,UN,33,prince,DEBRIS,m,,,,,,0.076744249,-0.42801378,0,0,0,,0,46,46,138,1,
,,,,,,,,,,,,,,,,,,5ef3723b50bced0c4a711686,2020-08-10_12h18.41.167,lexical_decision_task_MP,2020.1.3,MacIntel,60,,m,1,0.520445,,,,,,,,0.520445,1,,,,,,202,WORD,UN,50,phrase,FACTOR,m,,,,,,0.076744249,-0.42801378,0,0,0,,0,47,47,201,1,
,,,,,,,,,,,,,,,,,,5ef3723b50bced0c4a711686,2020-08-10_12h18.41.167,lexical_decision_task_MP,2020.1.3,MacIntel,60,,m,1,0.516575,,,,,,,,0.516575,1,,,,,,24,WORD,"ID",33,praise,PRAISE,m,,,,,,0.076744249,-0.42801378,0,0,0,,0,48,48,23,1,
,,,,,,,,,,,,,,,,,,5ef3723b50bced0c4a711686,2020-08-10_12h18.41.167,lexical_decision_task_MP,2020.1.3,MacIntel,60,,z,1,0.666665,,,,,,,,0.666665,1,,,,,,385,NW,UN,33,ancust,VEIGMA,z,,,,,,0.076744249,-0.42801378,0,0,0,,0,49,49,384,1,
,,,,,,,,,,,,,,,,,,5ef3723b50bced0c4a711686,2020-08-10_12h18.41.167,lexical_decision_task_MP,2020.1.3,MacIntel,60,,m,1,0.541265,,,,,,,,0.541265,1,,,,,,12,WORD,"ID",33,orange,ORANGE,m,,,,,,0.076744249,-0.42801378,0,0,0,,0,50,50,11,1,
,,,,,,,,,,,,,,,,,,5ef3723b50bced0c4a711686,2020-08-10_12h18.41.167,lexical_decision_task_MP,2020.1.3,MacIntel,60,,m,1,0.56733,,,,,,,,0.56733,1,,,,,,118,WORD,"ID",50,flight,FLIGHT,m,,,,,,0.076744249,-0.42801378,0,0,0,,0,51,51,117,1,
,,,,,,,,,,,,,,,,,,5ef3723b50bced0c4a711686,2020-08-10_12h18.41.167,lexical_decision_task_MP,2020.1.3,MacIntel,60,,z,1,0.624015,,,,,,,,0.624015,1,,,,,,454,NW,UN,50,tondle,SCOUGE,z,,,,,,0.076744249,-0.42801378,0,0,0,,0,52,52,453,1,
,,,,,,,,,,,,,,,,,,5ef3723b50bced0c4a711686,2020-08-10_12h18.41.167,lexical_decision_task_MP,2020.1.3,MacIntel,60,,z,1,0.65712,,,,,,,,0.65712,1,,,,,,251,NW,"ID",33,lupict,LUPICT,z,,,,,,0.076744249,-0.42801378,0,0,0,,0,53,53,250,1,
,,,,,,,,,,,,,,,,,,5ef3723b50bced0c4a711686,2020-08-10_12h18.41.167,lexical_decision_task_MP,2020.1.3,MacIntel,60,,m,0,0.71904,,,,,,,,0.71904,0,,,,,,266,NW,"ID",33,varmit,VARMIT,z,,,,,,0.076744249,-0.42801378,0,0,0,,0,54,54,265,1,
,,,,,,,,,,,,,,,,,,5ef3723b50bced0c4a711686,2020-08-10_12h18.41.167,lexical_decision_task_MP,2020.1.3,MacIntel,60,,z,1,0.61486,,,,,,,,0.61486,1,,,,,,404,NW,UN,33,syntic,CLUIRM,z,,,,,,0.076744249,-0.42801378,0,0,0,,0,55,55,403,1,
,,,,,,,,,,,,,,,,,,5ef3723b50bced0c4a711686,2020-08-10_12h18.41.167,lexical_decision_task_MP,2020.1.3,MacIntel,60,,m,1,0.634565,,,,,,,,0.634565,1,,,,,,213,WORD,UN,50,intake,SQUEAL,m,,,,,,0.076744249,-0.42801378,0,0,0,,0,56,56,212,1,
,,,,,,,,,,,,,,,,,,5ef3723b50bced0c4a711686,2020-08-10_12h18.41.167,lexical_decision_task_MP,2020.1.3,MacIntel,60,,m,1,0.665495,,,,,,,,0.665495,1,,,,,,98,WORD,"ID",50,belong,BELONG,m,,,,,,0.076744249,-0.42801378,0,0,0,,0,57,57,97,1,
,,,,,,,,,,,,,,,,,,5ef3723b50bced0c4a711686,2020-08-10_12h18.41.167,lexical_decision_task_MP,2020.1.3,MacIntel,60,,m,1,0.56589,,,,,,,,0.56589,1,,,,,,210,WORD,UN,50,infect,MONKEY,m,,,,,,0.076744249,-0.42801378,0,0,0,,0,58,58,209,1,
,,,,,,,,,,,,,,,,,,5ef3723b50bced0c4a711686,2020-08-10_12h18.41.167,lexical_decision_task_MP,2020.1.3,MacIntel,60,,m,1,0.574195,,,,,,,,0.574195,1,,,,,,133,WORD,UN,33,debris,CHROME,m,,,,,,0.076744249,-0.42801378,0,0,0,,0,59,59,132,1,
,,,,,,,,,,,,,,,,,,5ef3723b50bced0c4a711686,2020-08-10_12h18.41.167,lexical_decision_task_MP,2020.1.3,MacIntel,60,,z,1,0.66742,,,,,,,,0.66742,1,,,,,,358,NW,"ID",50,fleack,FLEACK,z,,,,,,0.076744249,-0.42801378,0,0,0,,0,60,60,357,1,
,,,,,,,,,,,,,,,,,,5ef3723b50bced0c4a711686,2020-08-10_12h18.41.167,lexical_decision_task_MP,2020.1.3,MacIntel,60,,m,1,0.66646,,,,,,,,0.66646,1,,,,,,142,WORD,UN,33,orphan,SPRUCE,m,,,,,,0.076744249,-0.42801378,0,0,0,,0,61,61,141,1,
,,,,,,,,,,,,,,,,,,5ef3723b50bced0c4a711686,2020-08-10_12h18.41.167,lexical_decision_task_MP,2020.1.3,MacIntel,60,,z,1,0.604635,,,,,,,,0.604635,1,,,,,,286,NW,"ID",33,reldon,RELDON,z,,,,,,0.076744249,-0.42801378,0,0,0,,0,62,62,285,1,
,,,,,,,,,,,,,,,,,,5ef3723b50bced0c4a711686,2020-08-10_12h18.41.167,lexical_decision_task_MP,2020.1.3,MacIntel,60,,z,1,0.75582,,,,,,,,0.75582,1,,,,,,388,NW,UN,33,witmer,CRAGIN,z,,,,,,0.076744249,-0.42801378,0,0,0,,0,63,63,387,1,
,,,,,,,,,,,,,,,,,,5ef3723b50bced0c4a711686,2020-08-10_12h18.41.167,lexical_decision_task_MP,2020.1.3,MacIntel,60,,z,1,0.80562,,,,,,,,0.80562,1,,,,,,268,NW,"ID",33,packes,PACKES,z,,,,,,0.076744249,-0.42801378,0,0,0,,0,64,64,267,1,
,,,,,,,,,,,,,,,,,,5ef3723b50bced0c4a711686,2020-08-10_12h18.41.167,lexical_decision_task_MP,2020.1.3,MacIntel,60,,z,1,0.774825,,,,,,,,0.774825,1,,,,,,392,NW,UN,33,ganous,ROUNCY,z,,,,,,0.076744249,-0.42801378,0,0,0,,0,65,65,391,1,
,,,,,,,,,,,,,,,,,,5ef3723b50bced0c4a711686,2020-08-10_12h18.41.167,lexical_decision_task_MP,2020.1.3,MacIntel,60,,m,1,0.593175,,,,,,,,0.593175,1,,,,,,30,WORD,"ID",33,orient,ORIENT,m,,,,,,0.076744249,-0.42801378,0,0,0,,0,66,66,29,1,
,,,,,,,,,,,,,,,,,,5ef3723b50bced0c4a711686,2020-08-10_12h18.41.167,lexical_decision_task_MP,2020.1.3,MacIntel,60,,m,1,0.62485,,,,,,,,0.62485,1,,,,,,19,WORD,"ID",33,patron,PATRON,m,,,,,,0.076744249,-0.42801378,0,0,0,,0,67,67,18,1,
,,,,,,,,,,,,,,,,,,5ef3723b50bced0c4a711686,2020-08-10_12h18.41.167,lexical_decision_task_MP,2020.1.3,MacIntel,60,,z,1,1.00794,,,,,,,,1.00794,1,,,,,,420,NW,UN,33,pauche,GUSHOP,z,,,,,,0.076744249,-0.42801378,0,0,0,,0,68,68,419,1,
,,,,,,,,,,,,,,,,,,5ef3723b50bced0c4a711686,2020-08-10_12h18.41.167,lexical_decision_task_MP,2020.1.3,MacIntel,60,,m,1,0.582915,,,,,,,,0.582915,1,,,,,,37,WORD,"ID",33,insult,INSULT,m,,,,,,0.076744249,-0.42801378,0,0,0,,0,69,69,36,1,
,,,,,,,,,,,,,,,,,,5ef3723b50bced0c4a711686,2020-08-10_12h18.41.167,lexical_decision_task_MP,2020.1.3,MacIntel,60,,z,1,0.6027,,,,,,,,0.6027,1,,,,,,317,NW,"ID",50,worbal,WORBAL,z,,,,,,0.076744249,-0.42801378,0,0,0,,0,70,70,316,1,
,,,,,,,,,,,,,,,,,,5ef3723b50bced0c4a711686,2020-08-10_12h18.41.167,lexical_decision_task_MP,2020.1.3,MacIntel,60,,m,1,0.599985,,,,,,,,0.599985,1,,,,,,11,WORD,"ID",33,cruise,CRUISE,m,,,,,,0.076744249,-0.42801378,0,0,0,,0,71,71,10,1,
,,,,,,,,,,,,,,,,,,5ef3723b50bced0c4a711686,2020-08-10_12h18.41.167,lexical_decision_task_MP,2020.1.3,MacIntel,60,,z,0,0.89993,,,,,,,,0.89993,0,,,,,,154,WORD,UN,33,lizard,AUTHOR,m,,,,,,0.076744249,-0.42801378,0,0,0,,0,72,72,153,1,
,,,,,,,,,,,,,,,,,,5ef3723b50bced0c4a711686,2020-08-10_12h18.41.167,lexical_decision_task_MP,2020.1.3,MacIntel,60,,z,1,1.03324,,,,,,,,1.03324,1,,,,,,255,NW,"ID",33,apight,APIGHT,z,,,,,,0.076744249,-0.42801378,0,0,0,,0,73,73,254,1,
,,,,,,,,,,,,,,,,,,5ef3723b50bced0c4a711686,2020-08-10_12h18.41.167,lexical_decision_task_MP,2020.1.3,MacIntel,60,,z,1,0.766085,,,,,,,,0.766085,1,,,,,,294,NW,"ID",33,inhort,INHORT,z,,,,,,0.076744249,-0.42801378,0,0,0,,0,74,74,293,1,
,,,,,,,,,,,,,,,,,,5ef3723b50bced0c4a711686,2020-08-10_12h18.41.167,lexical_decision_task_MP,2020.1.3,MacIntel,60,,z,1,0.65407,,,,,,,,0.65407,1,,,,,,398,NW,UN,33,fouret,BLUNDE,z,,,,,,0.076744249,-0.42801378,0,0,0,,0,75,75,397,1,
,,,,,,,,,,,,,,,,,,5ef3723b50bced0c4a711686,2020-08-10_12h18.41.167,lexical_decision_task_MP,2020.1.3,MacIntel,60,,z,1,0.59954,,,,,,,,0.59954,1,,,,,,329,NW,"ID",50,yarike,YARIKE,z,,,,,,0.076744249,-0.42801378,0,0,0,,0,76,76,328,1,
,,,,,,,,,,,,,,,,,,5ef3723b50bced0c4a711686,2020-08-10_12h18.41.167,lexical_decision_task_MP,2020.1.3,MacIntel,60,,m,1,0.78832,,,,,,,,0.78832,1,,,,,,219,WORD,UN,50,voyage,BUCKET,m,,,,,,0.076744249,-0.42801378,0,0,0,,0,77,77,218,1,
,,,,,,,,,,,,,,,,,,5ef3723b50bced0c4a711686,2020-08-10_12h18.41.167,lexical_decision_task_MP,2020.1.3,MacIntel,60,,m,1,0.589265,,,,,,,,0.589265,1,,,,,,101,WORD,"ID",50,wrench,WRENCH,m,,,,,,0.076744249,-0.42801378,0,0,0,,0,78,78,100,1,
,,,,,,,,,,,,,,,,,,5ef3723b50bced0c4a711686,2020-08-10_12h18.41.167,lexical_decision_task_MP,2020.1.3,MacIntel,60,,m,1,0.76497,,,,,,,,0.76497,1,,,,,,134,WORD,UN,33,import,STAPLE,m,,,,,,0.076744249,-0.42801378,0,0,0,,0,79,79,133,1,
,,,,,,,,,,,,,,,,,,5ef3723b50bced0c4a711686,2020-08-10_12h18.41.167,lexical_decision_task_MP,2020.1.3,MacIntel,60,,m,1,0.55028,,,,,,,,0.55028,1,,,,,,80,WORD,"ID",50,family,FAMILY,m,,,,,,0.076744249,-0.42801378,0,0,0,,0,80,80,79,1,
,,,,,,,,,,,,,,,,,,5ef3723b50bced0c4a711686,2020-08-10_12h18.41.167,lexical_decision_task_MP,2020.1.3,MacIntel,60,,m,1,0.566775,,,,,,,,0.566775,1,,,,,,102,WORD,"ID",50,direct,DIRECT,m,,,,,,0.076744249,-0.42801378,0,0,0,,0,81,81,101,1,
,,,,,,,,,,,,,,,,,,5ef3723b50bced0c4a711686,2020-08-10_12h18.41.167,lexical_decision_task_MP,2020.1.3,MacIntel,60,,z,1,0.76719,,,,,,,,0.76719,1,,,,,,320,NW,"ID",50,jockal,JOCKAL,z,,,,,,0.076744249,-0.42801378,0,0,0,,0,82,82,319,1,
,,,,,,,,,,,,,,,,,,5ef3723b50bced0c4a711686,2020-08-10_12h18.41.167,lexical_decision_task_MP,2020.1.3,MacIntel,60,,z,1,0.737295,,,,,,,,0.737295,1,,,,,,421,NW,UN,50,alcoud,KNISMA,z,,,,,,0.076744249,-0.42801378,0,0,0,,0,83,83,420,1,
,,,,,,,,,,,,,,,,,,5ef3723b50bced0c4a711686,2020-08-10_12h18.41.167,lexical_decision_task_MP,2020.1.3,MacIntel,60,,m,1,0.60342,,,,,,,,0.60342,1,,,,,,82,WORD,"ID",50,stigma,STIGMA,m,,,,,,0.076744249,-0.42801378,0,0,0,,0,84,84,81,1,
,,,,,,,,,,,,,,,,,,5ef3723b50bced0c4a711686,2020-08-10_12h18.41.167,lexical_decision_task_MP,2020.1.3,MacIntel,60,,m,1,0.73252,,,,,,,,0.73252,1,,,,,,84,WORD,"ID",50,mortal,MORTAL,m,,,,,,0.076744249,-0.42801378,0,0,0,,0,85,85,83,1,
,,,,,,,,,,,,,,,,,,5ef3723b50bced0c4a711686,2020-08-10_12h18.41.167,lexical_decision_task_MP,2020.1.3,MacIntel,60,,z,1,0.63354,,,,,,,,0.63354,1,,,,,,395,NW,UN,33,flengy,COLURY,z,,,,,,0.076744249,-0.42801378,0,0,0,,0,86,86,394,1,
,,,,,,,,,,,,,,,,,,5ef3723b50bced0c4a711686,2020-08-10_12h18.41.167,lexical_decision_task_MP,2020.1.3,MacIntel,60,,m,1,0.59897,,,,,,,,0.59897,1,,,,,,215,WORD,UN,50,behalf,PHOBIA,m,,,,,,0.076744249,-0.42801378,0,0,0,,0,87,87,214,1,
,,,,,,,,,,,,,,,,,,5ef3723b50bced0c4a711686,2020-08-10_12h18.41.167,lexical_decision_task_MP,2020.1.3,MacIntel,60,,z,1,0.6034,,,,,,,,0.6034,1,,,,,,469,NW,UN,50,crudio,PADIFS,z,,,,,,0.076744249,-0.42801378,0,0,0,,0,88,88,468,1,
,,,,,,,,,,,,,,,,,,5ef3723b50bced0c4a711686,2020-08-10_12h18.41.167,lexical_decision_task_MP,2020.1.3,MacIntel,60,,z,1,0.999895,,,,,,,,0.999895,1,,,,,,389,NW,UN,33,hatrus,WITMER,z,,,,,,0.076744249,-0.42801378,0,0,0,,0,89,89,388,1,
,,,,,,,,,,,,,,,,,,5ef3723b50bced0c4a711686,2020-08-10_12h18.41.167,lexical_decision_task_MP,2020.1.3,MacIntel,60,,m,1,0.65213,,,,,,,,0.65213,1,,,,,,110,WORD,"ID",50,polite,POLITE,m,,,,,,0.076744249,-0.42801378,0,0,0,,0,90,90,109,1,
,,,,,,,,,,,,,,,,,,5ef3723b50bced0c4a711686,2020-08-10_12h18.41.167,lexical_decision_task_MP,2020.1.3,MacIntel,60,,m,1,0.69088,,,,,,,,0.69088,1,,,,,,182,WORD,UN,50,basket,WINTER,m,,,,,,0.076744249,-0.42801378,0,0,0,,0,91,91,181,1,
,,,,,,,,,,,,,,,,,,5ef3723b50bced0c4a711686,2020-08-10_12h18.41.167,lexical_decision_task_MP,2020.1.3,MacIntel,60,,m,1,0.606695,,,,,,,,0.606695,1,,,,,,162,WORD,UN,33,string,CANDLE,m,,,,,,0.076744249,-0.42801378,0,0,0,,0,92,92,161,1,
,,,,,,,,,,,,,,,,,,5ef3723b50bced0c4a711686,2020-08-10_12h18.41.167,lexical_decision_task_MP,2020.1.3,MacIntel,60,,z,1,0.687525,,,,,,,,0.687525,1,,,,,,289,NW,"ID",33,starby,STARBY,z,,,,,,0.076744249,-0.42801378,0,0,0,,0,93,93,288,1,
,,,,,,,,,,,,,,,,,,5ef3723b50bced0c4a711686,2020-08-10_12h18.41.167,lexical_decision_task_MP,2020.1.3,MacIntel,60,,z,1,0.63603,,,,,,,,0.63603,1,,,,,,299,NW,"ID",33,sturch,STURCH,z,,,,,,0.076744249,-0.42801378,0,0,0,,0,94,94,298,1,
,,,,,,,,,,,,,,,,,,5ef3723b50bced0c4a711686,2020-08-10_12h18.41.167,lexical_decision_task_MP,2020.1.3,MacIntel,60,,m,1,0.631255,,,,,,,,0.631255,1,,,,,,70,WORD,"ID",50,square,SQUARE,m,,,,,,0.076744249,-0.42801378,0,0,0,,0,95,95,69,1,
,,,,,,,,,,,,,,,,,,5ef3723b50bced0c4a711686,2020-08-10_12h18.41.167,lexical_decision_task_MP,2020.1.3,MacIntel,60,,m,1,0.60154,,,,,,,,0.60154,1,,,,,,83,WORD,"ID",50,result,RESULT,m,,,,,,0.076744249,-0.42801378,0,0,0,,0,96,96,82,1,
,,,,,,,,,,,,,,,,,,5ef3723b50bced0c4a711686,2020-08-10_12h18.41.167,lexical_decision_task_MP,2020.1.3,MacIntel,60,,z,1,0.99156,,,,,,,,0.99156,1,,,,,,448,NW,UN,50,brunge,SADENT,z,,,,,,0.076744249,-0.42801378,0,0,0,,0,97,97,447,1,
,,,,,,,,,,,,,,,,,,5ef3723b50bced0c4a711686,2020-08-10_12h18.41.167,lexical_decision_task_MP,2020.1.3,MacIntel,60,,z,1,0.72125,,,,,,,,0.72125,1,,,,,,374,NW,UN,33,yorque,SLIANT,z,,,,,,0.076744249,-0.42801378,0,0,0,,0,98,98,373,1,
,,,,,,,,,,,,,,,,,,5ef3723b50bced0c4a711686,2020-08-10_12h18.41.167,lexical_decision_task_MP,2020.1.3,MacIntel,60,,m,1,0.54077,,,,,,,,0.54077,1,,,,,,44,WORD,"ID",33,danger,DANGER,m,,,,,,0.076744249,-0.42801378,0,0,0,,0,99,99,43,1,
,,,,,,,,,,,,,,,,,,5ef3723b50bced0c4a711686,2020-08-10_12h18.41.167,lexical_decision_task_MP,2020.1.3,MacIntel,60,,m,1,0.53418,,,,,,,,0.53418,1,,,,,,179,WORD,UN,33,silent,BASKET,m,,,,,,0.076744249,-0.42801378,0,0,0,,0,100,100,178,1,
,,,,,,,,,,,,,,,,,,5ef3723b50bced0c4a711686,2020-08-10_12h18.41.167,lexical_decision_task_MP,2020.1.3,MacIntel,60,,z,1,0.634425,,,,,,,,0.634425,1,,,,,,263,NW,"ID",33,dolica,DOLICA,z,,,,,,0.076744249,-0.42801378,0,0,0,,0,101,101,262,1,
,,,,,,,,,,,,,,,,,,5ef3723b50bced0c4a711686,2020-08-10_12h18.41.167,lexical_decision_task_MP,2020.1.3,MacIntel,60,,m,1,0.566505,,,,,,,,0.566505,1,,,,,,157,WORD,UN,33,island,DRAGON,m,,,,,,0.076744249,-0.42801378,0,0,0,,0,102,102,156,1,
,,,,,,,,,,,,,,,,,,5ef3723b50bced0c4a711686,2020-08-10_12h18.41.167,lexical_decision_task_MP,2020.1.3,MacIntel,60,,m,1,0.635335,,,,,,,,0.635335,1,,,,,,163,WORD,UN,33,market,STRING,m,,,,,,0.076744249,-0.42801378,0,0,0,,0,103,103,162,1,
,,,,,,,,,,,,,,,,,,5ef3723b50bced0c4a711686,2020-08-10_12h18.41.167,lexical_decision_task_MP,2020.1.3,MacIntel,60,,z,1,0.819125,,,,,,,,0.819125,1,,,,,,434,NW,UN,50,impurb,PITROM,z,,,,,,0.076744249,-0.42801378,0,0,0,,0,104,104,433,1,
,,,,,,,,,,,,,,,,,,5ef3723b50bced0c4a711686,2020-08-10_12h18.41.167,lexical_decision_task_MP,2020.1.3,MacIntel,60,,m,1,0.63318,,,,,,,,0.63318,1,,,,,,42,WORD,"ID",33,chapel,CHAPEL,m,,,,,,0.076744249,-0.42801378,0,0,0,,0,105,105,41,1,
,,,,,,,,,,,,,,,,,,5ef3723b50bced0c4a711686,2020-08-10_12h18.41.167,lexical_decision_task_MP,2020.1.3,MacIntel,60,,z,1,0.63397,,,,,,,,0.63397,1,,,,,,410,NW,UN,33,orchin,TUNORY,z,,,,,,0.076744249,-0.42801378,0,0,0,,0,106,106,409,1,
,,,,,,,,,,,,,,,,,,5ef3723b50bced0c4a711686,2020-08-10_12h18.41.167,lexical_decision_task_MP,2020.1.3,MacIntel,60,,m,1,0.752135,,,,,,,,0.752135,1,,,,,,77,WORD,"ID",50,racket,RACKET,m,,,,,,0.076744249,-0.42801378,0,0,0,,0,107,107,76,1,
,,,,,,,,,,,,,,,,,,5ef3723b50bced0c4a711686,2020-08-10_12h18.41.167,lexical_decision_task_MP,2020.1.3,MacIntel,60,,m,1,0.916485,,,,,,,,0.916485,1,,,,,,211,WORD,UN,50,verify,INFECT,m,,,,,,0.076744249,-0.42801378,0,0,0,,0,108,108,210,1,
,,,,,,,,,,,,,,,,,,5ef3723b50bced0c4a711686,2020-08-10_12h18.41.167,lexical_decision_task_MP,2020.1.3,MacIntel,60,,m,1,0.603175,,,,,,,,0.603175,1,,,,,,33,WORD,"ID",33,butler,BUTLER,m,,,,,,0.076744249,-0.42801378,0,0,0,,0,109,109,32,1,
,,,,,,,,,,,,,,,,,,5ef3723b50bced0c4a711686,2020-08-10_12h18.41.167,lexical_decision_task_MP,2020.1.3,MacIntel,60,,z,1,0.709005,,,,,,,,0.709005,1,,,,,,269,NW,"ID",33,orchet,ORCHET,z,,,,,,0.076744249,-0.42801378,0,0,0,,0,110,110,268,1,
,,,,,,,,,,,,,,,,,,5ef3723b50bced0c4a711686,2020-08-10_12h18.41.167,lexical_decision_task_MP,2020.1.3,MacIntel,60,,z,1,0.721005,,,,,,,,0.721005,1,,,,,,282,NW,"ID",33,porlex,PORLEX,z,,,,,,0.076744249,-0.42801378,0,0,0,,0,111,111,281,1,
,,,,,,,,,,,,,,,,,,5ef3723b50bced0c4a711686,2020-08-10_12h18.41.167,lexical_decision_task_MP,2020.1.3,MacIntel,60,,z,1,0.616805,,,,,,,,0.616805,1,,,,,,249,NW,"ID",33,batrol,BATROL,z,,,,,,0.076744249,-0.42801378,0,0,0,,0,112,112,248,1,
,,,,,,,,,,,,,,,,,,5ef3723b50bced0c4a711686,2020-08-10_12h18.41.167,lexical_decision_task_MP,2020.1.3,MacIntel,60,,m,1,0.61976,,,,,,,,0.61976,1,,,,,,115,WORD,"ID",50,guitar,GUITAR,m,,,,,,0.076744249,-0.42801378,0,0,0,,0,113,113,114,1,
,,,,,,,,,,,,,,,,,,5ef3723b50bced0c4a711686,2020-08-10_12h18.41.167,lexical_decision_task_MP,2020.1.3,MacIntel,60,,z,1,0.73903,,,,,,,,0.73903,1,,,,,,443,NW,UN,50,jaunce,DORSEX,z,,,,,,0.076744249,-0.42801378,0,0,0,,0,114,114,442,1,
,,,,,,,,,,,,,,,,,,5ef3723b50bced0c4a711686,2020-08-10_12h18.41.167,lexical_decision_task_MP,2020.1.3,MacIntel,60,,m,1,0.849845,,,,,,,,0.849845,1,,,,,,89,WORD,"ID",50,permit,PERMIT,m,,,,,,0.076744249,-0.42801378,0,0,0,,0,115,115,88,1,
,,,,,,,,,,,,,,,,,,5ef3723b50bced0c4a711686,2020-08-10_12h18.41.167,lexical_decision_task_MP,2020.1.3,MacIntel,60,,z,1,0.907465,,,,,,,,0.907465,1,,,,,,258,NW,"ID",33,poluth,POLUTH,z,,,,,,0.076744249,-0.42801378,0,0,0,,0,116,116,257,1,
,,,,,,,,,,,,,,,,,,5ef3723b50bced0c4a711686,2020-08-10_12h18.41.167,lexical_decision_task_MP,2020.1.3,MacIntel,60,,m,1,0.67242,,,,,,,,0.67242,1,,,,,,46,WORD,"ID",33,single,SINGLE,m,,,,,,0.076744249,-0.42801378,0,0,0,,0,117,117,45,1,
,,,,,,,,,,,,,,,,,,5ef3723b50bced0c4a711686,2020-08-10_12h18.41.167,lexical_decision_task_MP,2020.1.3,MacIntel,60,,m,1,0.70186,,,,,,,,0.70186,1,,,,,,50,WORD,"ID",33,snatch,SNATCH,m,,,,,,0.076744249,-0.42801378,0,0,0,,0,118,118,49,1,
,,,,,,,,,,,,,,,,,,5ef3723b50bced0c4a711686,2020-08-10_12h18.41.167,lexical_decision_task_MP,2020.1.3,MacIntel,60,,z,1,0.675155,,,,,,,,0.675155,1,,,,,,383,NW,UN,33,guesco,AUNGRE,z,,,,,,0.076744249,-0.42801378,0,0,0,,0,119,119,382,1,
,,,,,,,,,,,,,,,,,,5ef3723b50bced0c4a711686,2020-08-10_12h18.41.167,lexical_decision_task_MP,2020.1.3,MacIntel,60,,m,1,0.61758,,,,,,,,0.61758,1,,,,,,71,WORD,"ID",50,garden,GARDEN,m,,,,,,0.076744249,-0.42801378,0,0,0,space,0,120,120,70,1,18.9931
,,,,,,,,,,,,,,,,,,5ef3723b50bced0c4a711686,2020-08-10_12h18.41.167,lexical_decision_task_MP,2020.1.3,MacIntel,60,,m,1,0.51572,,,,,,,,0.51572,1,,,,,,97,WORD,"ID",50,client,CLIENT,m,,,,,,0.076744249,-0.42801378,0,0,0,,0,121,121,96,1,
,,,,,,,,,,,,,,,,,,5ef3723b50bced0c4a711686,2020-08-10_12h18.41.167,lexical_decision_task_MP,2020.1.3,MacIntel,60,,m,1,0.549885,,,,,,,,0.549885,1,,,,,,63,WORD,"ID",50,launch,LAUNCH,m,,,,,,0.076744249,-0.42801378,0,0,0,,0,122,122,62,1,
,,,,,,,,,,,,,,,,,,5ef3723b50bced0c4a711686,2020-08-10_12h18.41.167,lexical_decision_task_MP,2020.1.3,MacIntel,60,,z,1,0.55083,,,,,,,,0.55083,1,,,,,,324,NW,"ID",50,steikh,STEIKH,z,,,,,,0.076744249,-0.42801378,0,0,0,,0,123,123,323,1,
,,,,,,,,,,,,,,,,,,5ef3723b50bced0c4a711686,2020-08-10_12h18.41.167,lexical_decision_task_MP,2020.1.3,MacIntel,60,,z,1,0.599495,,,,,,,,0.599495,1,,,,,,259,NW,"ID",33,soudal,SOUDAL,z,,,,,,0.076744249,-0.42801378,0,0,0,,0,124,124,258,1,
,,,,,,,,,,,,,,,,,,5ef3723b50bced0c4a711686,2020-08-10_12h18.41.167,lexical_decision_task_MP,2020.1.3,MacIntel,60,,z,1,0.54273,,,,,,,,0.54273,1,,,,,,280,NW,"ID",33,curbol,CURBOL,z,,,,,,0.076744249,-0.42801378,0,0,0,,0,125,125,279,1,
,,,,,,,,,,,,,,,,,,5ef3723b50bced0c4a711686,2020-08-10_12h18.41.167,lexical_decision_task_MP,2020.1.3,MacIntel,60,,z,1,0.56711,,,,,,,,0.56711,1,,,,,,349,NW,"ID",50,asylen,ASYLEN,z,,,,,,0.076744249,-0.42801378,0,0,0,,0,126,126,348,1,
,,,,,,,,,,,,,,,,,,5ef3723b50bced0c4a711686,2020-08-10_12h18.41.167,lexical_decision_task_MP,2020.1.3,MacIntel,60,,m,1,0.81812,,,,,,,,0.81812,1,,,,,,177,WORD,UN,33,inform,ADVENT,m,,,,,,0.076744249,-0.42801378,0,0,0,,0,127,127,176,1,
,,,,,,,,,,,,,,,,,,5ef3723b50bced0c4a711686,2020-08-10_12h18.41.167,lexical_decision_task_MP,2020.1.3,MacIntel,60,,z,1,0.68863,,,,,,,,0.68863,1,,,,,,455,NW,UN,50,broget,TONDLE,z,,,,,,0.076744249,-0.42801378,0,0,0,,0,128,128,454,1,
,,,,,,,,,,,,,,,,,,5ef3723b50bced0c4a711686,2020-08-10_12h18.41.167,lexical_decision_task_MP,2020.1.3,MacIntel,60,,z,1,0.696505,,,,,,,,0.696505,1,,,,,,429,NW,UN,50,caroey,FUNTLE,z,,,,,,0.076744249,-0.42801378,0,0,0,,0,129,129,428,1,
,,,,,,,,,,,,,,,,,,5ef3723b50bced0c4a711686,2020-08-10_12h18.41.167,lexical_decision_task_MP,2020.1.3,MacIntel,60,,z,1,0.76701,,,,,,,,0.76701,1,,,,,,328,NW,"ID",50,broake,BROAKE,z,,,,,,0.076744249,-0.42801378,0,0,0,,0,130,130,327,1,
,,,,,,,,,,,,,,,,,,5ef3723b50bced0c4a711686,2020-08-10_12h18.41.167,lexical_decision_task_MP,2020.1.3,MacIntel,60,,m,1,0.70691,,,,,,,,0.70691,1,,,,,,2,WORD,"ID",33,bridge,BRIDGE,m,,,,,,0.076744249,-0.42801378,0,0,0,,0,131,131,1,1,
,,,,,,,,,,,,,,,,,,5ef3723b50bced0c4a711686,2020-08-10_12h18.41.167,lexical_decision_task_MP,2020.1.3,MacIntel,60,,m,1,0.56745,,,,,,,,0.56745,1,,,,,,35,WORD,"ID",33,socket,SOCKET,m,,,,,,0.076744249,-0.42801378,0,0,0,,0,132,132,34,1,
,,,,,,,,,,,,,,,,,,5ef3723b50bced0c4a711686,2020-08-10_12h18.41.167,lexical_decision_task_MP,2020.1.3,MacIntel,60,,m,1,0.57616,,,,,,,,0.57616,1,,,,,,235,WORD,UN,50,pirate,GRUMPY,m,,,,,,0.076744249,-0.42801378,0,0,0,,0,133,133,234,1,
,,,,,,,,,,,,,,,,,,5ef3723b50bced0c4a711686,2020-08-10_12h18.41.167,lexical_decision_task_MP,2020.1.3,MacIntel,60,,m,1,0.505185,,,,,,,,0.505185,1,,,,,,3,WORD,"ID",33,knight,KNIGHT,m,,,,,,0.076744249,-0.42801378,0,0,0,,0,134,134,2,1,
,,,,,,,,,,,,,,,,,,5ef3723b50bced0c4a711686,2020-08-10_12h18.41.167,lexical_decision_task_MP,2020.1.3,MacIntel,60,,m,1,0.55853,,,,,,,,0.55853,1,,,,,,25,WORD,"ID",33,domain,DOMAIN,m,,,,,,0.076744249,-0.42801378,0,0,0,,0,135,135,24,1,
,,,,,,,,,,,,,,,,,,5ef3723b50bced0c4a711686,2020-08-10_12h18.41.167,lexical_decision_task_MP,2020.1.3,MacIntel,60,,m,1,0.54971,,,,,,,,0.54971,1,,,,,,8,WORD,"ID",33,abrupt,ABRUPT,m,,,,,,0.076744249,-0.42801378,0,0,0,,0,136,136,7,1,
,,,,,,,,,,,,,,,,,,5ef3723b50bced0c4a711686,2020-08-10_12h18.41.167,lexical_decision_task_MP,2020.1.3,MacIntel,60,,z,1,0.63134,,,,,,,,0.63134,1,,,,,,354,NW,"ID",50,virlex,VIRLEX,z,,,,,,0.076744249,-0.42801378,0,0,0,,0,137,137,353,1,
,,,,,,,,,,,,,,,,,,5ef3723b50bced0c4a711686,2020-08-10_12h18.41.167,lexical_decision_task_MP,2020.1.3,MacIntel,60,,z,1,0.71499,,,,,,,,0.71499,1,,,,,,307,NW,"ID",50,kirafe,KIRAFE,z,,,,,,0.076744249,-0.42801378,0,0,0,,0,138,138,306,1,
,,,,,,,,,,,,,,,,,,5ef3723b50bced0c4a711686,2020-08-10_12h18.41.167,lexical_decision_task_MP,2020.1.3,MacIntel,60,,z,1,0.619455,,,,,,,,0.619455,1,,,,,,277,NW,"ID",33,petain,PETAIN,z,,,,,,0.076744249,-0.42801378,0,0,0,,0,139,139,276,1,
,,,,,,,,,,,,,,,,,,5ef3723b50bced0c4a711686,2020-08-10_12h18.41.167,lexical_decision_task_MP,2020.1.3,MacIntel,60,,m,1,0.55564,,,,,,,,0.55564,1,,,,,,78,WORD,"ID",50,column,COLUMN,m,,,,,,0.076744249,-0.42801378,0,0,0,,0,140,140,77,1,
,,,,,,,,,,,,,,,,,,5ef3723b50bced0c4a711686,2020-08-10_12h18.41.167,lexical_decision_task_MP,2020.1.3,MacIntel,60,,z,1,0.654165,,,,,,,,0.654165,1,,,,,,415,NW,UN,33,pathel,HIGSTA,z,,,,,,0.076744249,-0.42801378,0,0,0,,0,141,141,414,1,
,,,,,,,,,,,,,,,,,,5ef3723b50bced0c4a711686,2020-08-10_12h18.41.167,lexical_decision_task_MP,2020.1.3,MacIntel,60,,z,1,0.635595,,,,,,,,0.635595,1,,,,,,394,NW,UN,33,colury,SPAQUX,z,,,,,,0.076744249,-0.42801378,0,0,0,,0,142,142,393,1,
,,,,,,,,,,,,,,,,,,5ef3723b50bced0c4a711686,2020-08-10_12h18.41.167,lexical_decision_task_MP,2020.1.3,MacIntel,60,,m,1,0.565715,,,,,,,,0.565715,1,,,,,,229,WORD,UN,50,fringe,MOTHER,m,,,,,,0.076744249,-0.42801378,0,0,0,,0,143,143,228,1,
,,,,,,,,,,,,,,,,,,5ef3723b50bced0c4a711686,2020-08-10_12h18.41.167,lexical_decision_task_MP,2020.1.3,MacIntel,60,,m,1,0.600385,,,,,,,,0.600385,1,,,,,,79,WORD,"ID",50,theory,THEORY,m,,,,,,0.076744249,-0.42801378,0,0,0,,0,144,144,78,1,
,,,,,,,,,,,,,,,,,,5ef3723b50bced0c4a711686,2020-08-10_12h18.41.167,lexical_decision_task_MP,2020.1.3,MacIntel,60,,z,1,0.61771,,,,,,,,0.61771,1,,,,,,431,NW,UN,50,lunker,CHRUMS,z,,,,,,0.076744249,-0.42801378,0,0,0,,0,145,145,430,1,
,,,,,,,,,,,,,,,,,,5ef3723b50bced0c4a711686,2020-08-10_12h18.41.167,lexical_decision_task_MP,2020.1.3,MacIntel,60,,m,1,0.769425,,,,,,,,0.769425,1,,,,,,150,WORD,UN,33,mystic,RANDOM,m,,,,,,0.076744249,-0.42801378,0,0,0,,0,146,146,149,1,
,,,,,,,,,,,,,,,,,,5ef3723b50bced0c4a711686,2020-08-10_12h18.41.167,lexical_decision_task_MP,2020.1.3,MacIntel,60,,z,1,0.66585,,,,,,,,0.66585,1,,,,,,283,NW,"ID",33,veralf,VERALF,z,,,,,,0.076744249,-0.42801378,0,0,0,,0,147,147,282,1,
,,,,,,,,,,,,,,,,,,5ef3723b50bced0c4a711686,2020-08-10_12h18.41.167,lexical_decision_task_MP,2020.1.3,MacIntel,60,,z,1,0.937775,,,,,,,,0.937775,1,,,,,,276,NW,"ID",33,yarmon,YARMON,z,,,,,,0.076744249,-0.42801378,0,0,0,,0,148,148,275,1,
,,,,,,,,,,,,,,,,,,5ef3723b50bced0c4a711686,2020-08-10_12h18.41.167,lexical_decision_task_MP,2020.1.3,MacIntel,60,,z,1,0.58138,,,,,,,,0.58138,1,,,,,,375,NW,UN,33,iguare,YORQUE,z,,,,,,0.076744249,-0.42801378,0,0,0,,0,149,149,374,1,
,,,,,,,,,,,,,,,,,,5ef3723b50bced0c4a711686,2020-08-10_12h18.41.167,lexical_decision_task_MP,2020.1.3,MacIntel,60,,m,1,0.60411,,,,,,,,0.60411,1,,,,,,36,WORD,"ID",33,vanish,VANISH,m,,,,,,0.076744249,-0.42801378,0,0,0,,0,150,150,35,1,
,,,,,,,,,,,,,,,,,,5ef3723b50bced0c4a711686,2020-08-10_12h18.41.167,lexical_decision_task_MP,2020.1.3,MacIntel,60,,z,1,0.83047,,,,,,,,0.83047,1,,,,,,476,NW,UN,50,photie,JOSTED,z,,,,,,0.076744249,-0.42801378,0,0,0,,0,151,151,475,1,
,,,,,,,,,,,,,,,,,,5ef3723b50bced0c4a711686,2020-08-10_12h18.41.167,lexical_decision_task_MP,2020.1.3,MacIntel,60,,z,1,0.966625,,,,,,,,0.966625,1,,,,,,465,NW,UN,50,hocite,WHIVEX,z,,,,,,0.076744249,-0.42801378,0,0,0,,0,152,152,464,1,
,,,,,,,,,,,,,,,,,,5ef3723b50bced0c4a711686,2020-08-10_12h18.41.167,lexical_decision_task_MP,2020.1.3,MacIntel,60,,z,1,1.10963,,,,,,,,1.10963,1,,,,,,298,NW,"ID",33,piergy,PIERGY,z,,,,,,0.076744249,-0.42801378,0,0,0,,0,153,153,297,1,
,,,,,,,,,,,,,,,,,,5ef3723b50bced0c4a711686,2020-08-10_12h18.41.167,lexical_decision_task_MP,2020.1.3,MacIntel,60,,z,1,1.17729,,,,,,,,1.17729,1,,,,,,355,NW,"ID",50,zingly,ZINGLY,z,,,,,,0.076744249,-0.42801378,0,0,0,,0,154,154,354,1,
,,,,,,,,,,,,,,,,,,5ef3723b50bced0c4a711686,2020-08-10_12h18.41.167,lexical_decision_task_MP,2020.1.3,MacIntel,60,,z,1,0.617805,,,,,,,,0.617805,1,,,,,,405,NW,UN,33,nouply,FLUMNI,z,,,,,,0.076744249,-0.42801378,0,0,0,,0,155,155,404,1,
,,,,,,,,,,,,,,,,,,5ef3723b50bced0c4a711686,2020-08-10_12h18.41.167,lexical_decision_task_MP,2020.1.3,MacIntel,60,,z,1,0.6231,,,,,,,,0.6231,1,,,,,,309,NW,"ID",50,amiloy,AMILOY,z,,,,,,0.076744249,-0.42801378,0,0,0,,0,156,156,308,1,
,,,,,,,,,,,,,,,,,,5ef3723b50bced0c4a711686,2020-08-10_12h18.41.167,lexical_decision_task_MP,2020.1.3,MacIntel,60,,z,1,0.567675,,,,,,,,0.567675,1,,,,,,337,NW,"ID",50,rejols,REJOLS,z,,,,,,0.076744249,-0.42801378,0,0,0,,0,157,157,336,1,
,,,,,,,,,,,,,,,,,,5ef3723b50bced0c4a711686,2020-08-10_12h18.41.167,lexical_decision_task_MP,2020.1.3,MacIntel,60,,m,1,0.516525,,,,,,,,0.516525,1,,,,,,67,WORD,"ID",50,policy,POLICY,m,,,,,,0.076744249,-0.42801378,0,0,0,,0,158,158,66,1,
,,,,,,,,,,,,,,,,,,5ef3723b50bced0c4a711686,2020-08-10_12h18.41.167,lexical_decision_task_MP,2020.1.3,MacIntel,60,,z,1,0.69178,,,,,,,,0.69178,1,,,,,,422,NW,UN,50,streld,ALCOUD,z,,,,,,0.076744249,-0.42801378,0,0,0,,0,159,159,421,1,
,,,,,,,,,,,,,,,,,,5ef3723b50bced0c4a711686,2020-08-10_12h18.41.167,lexical_decision_task_MP,2020.1.3,MacIntel,60,,m,1,0.552065,,,,,,,,0.552065,1,,,,,,100,WORD,"ID",50,carbon,CARBON,m,,,,,,0.076744249,-0.42801378,0,0,0,,0,160,160,99,1,
,,,,,,,,,,,,,,,,,,5ef3723b50bced0c4a711686,2020-08-10_12h18.41.167,lexical_decision_task_MP,2020.1.3,MacIntel,60,,m,1,0.60147,,,,,,,,0.60147,1,,,,,,87,WORD,"ID",50,filter,FILTER,m,,,,,,0.076744249,-0.42801378,0,0,0,,0,161,161,86,1,
,,,,,,,,,,,,,,,,,,5ef3723b50bced0c4a711686,2020-08-10_12h18.41.167,lexical_decision_task_MP,2020.1.3,MacIntel,60,,z,1,0.6501,,,,,,,,0.6501,1,,,,,,381,NW,UN,33,sarley,HUNIEK,z,,,,,,0.076744249,-0.42801378,0,0,0,,0,162,162,380,1,
,,,,,,,,,,,,,,,,,,5ef3723b50bced0c4a711686,2020-08-10_12h18.41.167,lexical_decision_task_MP,2020.1.3,MacIntel,60,,z,1,0.777415,,,,,,,,0.777415,1,,,,,,363,NW,UN,33,impote,BREALI,z,,,,,,0.076744249,-0.42801378,0,0,0,,0,163,163,362,1,
,,,,,,,,,,,,,,,,,,5ef3723b50bced0c4a711686,2020-08-10_12h18.41.167,lexical_decision_task_MP,2020.1.3,MacIntel,60,,z,1,0.58152,,,,,,,,0.58152,1,,,,,,352,NW,"ID",50,tringe,TRINGE,z,,,,,,0.076744249,-0.42801378,0,0,0,,0,164,164,351,1,
,,,,,,,,,,,,,,,,,,5ef3723b50bced0c4a711686,2020-08-10_12h18.41.167,lexical_decision_task_MP,2020.1.3,MacIntel,60,,z,1,0.657455,,,,,,,,0.657455,1,,,,,,346,NW,"ID",50,saudic,SAUDIC,z,,,,,,0.076744249,-0.42801378,0,0,0,,0,165,165,345,1,
,,,,,,,,,,,,,,,,,,5ef3723b50bced0c4a711686,2020-08-10_12h18.41.167,lexical_decision_task_MP,2020.1.3,MacIntel,60,,m,1,0.559135,,,,,,,,0.559135,1,,,,,,94,WORD,"ID",50,travel,TRAVEL,m,,,,,,0.076744249,-0.42801378,0,0,0,,0,166,166,93,1,
,,,,,,,,,,,,,,,,,,5ef3723b50bced0c4a711686,2020-08-10_12h18.41.167,lexical_decision_task_MP,2020.1.3,MacIntel,60,,z,1,0.698435,,,,,,,,0.698435,1,,,,,,290,NW,"ID",33,splino,SPLINO,z,,,,,,0.076744249,-0.42801378,0,0,0,,0,167,167,289,1,
,,,,,,,,,,,,,,,,,,5ef3723b50bced0c4a711686,2020-08-10_12h18.41.167,lexical_decision_task_MP,2020.1.3,MacIntel,60,,m,1,0.590895,,,,,,,,0.590895,1,,,,,,127,WORD,UN,33,senior,CASTLE,m,,,,,,0.076744249,-0.42801378,0,0,0,,0,168,168,126,1,
,,,,,,,,,,,,,,,,,,5ef3723b50bced0c4a711686,2020-08-10_12h18.41.167,lexical_decision_task_MP,2020.1.3,MacIntel,60,,m,1,0.57526,,,,,,,,0.57526,1,,,,,,56,WORD,"ID",33,ambush,AMBUSH,m,,,,,,0.076744249,-0.42801378,0,0,0,,0,169,169,55,1,
,,,,,,,,,,,,,,,,,,5ef3723b50bced0c4a711686,2020-08-10_12h18.41.167,lexical_decision_task_MP,2020.1.3,MacIntel,60,,m,1,0.51584,,,,,,,,0.51584,1,,,,,,141,WORD,UN,33,spruce,ORPHAN,m,,,,,,0.076744249,-0.42801378,0,0,0,,0,170,170,140,1,
,,,,,,,,,,,,,,,,,,5ef3723b50bced0c4a711686,2020-08-10_12h18.41.167,lexical_decision_task_MP,2020.1.3,MacIntel,60,,m,1,0.524425,,,,,,,,0.524425,1,,,,,,38,WORD,"ID",33,powder,POWDER,m,,,,,,0.076744249,-0.42801378,0,0,0,,0,171,171,37,1,
,,,,,,,,,,,,,,,,,,5ef3723b50bced0c4a711686,2020-08-10_12h18.41.167,lexical_decision_task_MP,2020.1.3,MacIntel,60,,m,1,0.585945,,,,,,,,0.585945,1,,,,,,1,WORD,"ID",33,fright,FRIGHT,m,,,,,,0.076744249,-0.42801378,0,0,0,,0,172,172,0,1,
,,,,,,,,,,,,,,,,,,5ef3723b50bced0c4a711686,2020-08-10_12h18.41.167,lexical_decision_task_MP,2020.1.3,MacIntel,60,,z,1,0.70019,,,,,,,,0.70019,1,,,,,,316,NW,"ID",50,scregm,SCREGM,z,,,,,,0.076744249,-0.42801378,0,0,0,,0,173,173,315,1,
,,,,,,,,,,,,,,,,,,5ef3723b50bced0c4a711686,2020-08-10_12h18.41.167,lexical_decision_task_MP,2020.1.3,MacIntel,60,,m,1,0.73328,,,,,,,,0.73328,1,,,,,,40,WORD,"ID",33,convey,CONVEY,m,,,,,,0.076744249,-0.42801378,0,0,0,,0,174,174,39,1,
,,,,,,,,,,,,,,,,,,5ef3723b50bced0c4a711686,2020-08-10_12h18.41.167,lexical_decision_task_MP,2020.1.3,MacIntel,60,,z,1,0.68171,,,,,,,,0.68171,1,,,,,,330,NW,"ID",50,kensom,KENSOM,z,,,,,,0.076744249,-0.42801378,0,0,0,,0,175,175,329,1,
,,,,,,,,,,,,,,,,,,5ef3723b50bced0c4a711686,2020-08-10_12h18.41.167,lexical_decision_task_MP,2020.1.3,MacIntel,60,,z,1,0.619555,,,,,,,,0.619555,1,,,,,,446,NW,UN,50,gircue,RUNAMO,z,,,,,,0.076744249,-0.42801378,0,0,0,,0,176,176,445,1,
,,,,,,,,,,,,,,,,,,5ef3723b50bced0c4a711686,2020-08-10_12h18.41.167,lexical_decision_task_MP,2020.1.3,MacIntel,60,,z,1,0.85164,,,,,,,,0.85164,1,,,,,,291,NW,"ID",33,pretch,PRETCH,z,,,,,,0.076744249,-0.42801378,0,0,0,,0,177,177,290,1,
,,,,,,,,,,,,,,,,,,5ef3723b50bced0c4a711686,2020-08-10_12h18.41.167,lexical_decision_task_MP,2020.1.3,MacIntel,60,,z,1,0.6424,,,,,,,,0.6424,1,,,,,,409,NW,UN,33,tunory,ELOPIA,z,,,,,,0.076744249,-0.42801378,0,0,0,,0,178,178,408,1,
,,,,,,,,,,,,,,,,,,5ef3723b50bced0c4a711686,2020-08-10_12h18.41.167,lexical_decision_task_MP,2020.1.3,MacIntel,60,,m,0,1.13691,,,,,,,,1.13691,0,,,,,,345,NW,"ID",50,absend,ABSEND,z,,,,,,0.076744249,-0.42801378,0,0,0,,0,179,179,344,1,
,,,,,,,,,,,,,,,,,,5ef3723b50bced0c4a711686,2020-08-10_12h18.41.167,lexical_decision_task_MP,2020.1.3,MacIntel,60,,m,1,0.73322,,,,,,,,0.73322,1,,,,,,130,WORD,UN,33,quench,STUPID,m,,,,,,0.076744249,-0.42801378,0,0,0,,0,180,180,129,1,
,,,,,,,,,,,,,,,,,,5ef3723b50bced0c4a711686,2020-08-10_12h18.41.167,lexical_decision_task_MP,2020.1.3,MacIntel,60,,z,1,0.67065,,,,,,,,0.67065,1,,,,,,382,NW,UN,33,aungre,SARLEY,z,,,,,,0.076744249,-0.42801378,0,0,0,,0,181,181,381,1,
,,,,,,,,,,,,,,,,,,5ef3723b50bced0c4a711686,2020-08-10_12h18.41.167,lexical_decision_task_MP,2020.1.3,MacIntel,60,,z,1,0.835775,,,,,,,,0.835775,1,,,,,,411,NW,UN,33,jiluer,ORCHIN,z,,,,,,0.076744249,-0.42801378,0,0,0,,0,182,182,410,1,
,,,,,,,,,,,,,,,,,,5ef3723b50bced0c4a711686,2020-08-10_12h18.41.167,lexical_decision_task_MP,2020.1.3,MacIntel,60,,z,1,0.564965,,,,,,,,0.564965,1,,,,,,339,NW,"ID",50,fachow,FACHOW,z,,,,,,0.076744249,-0.42801378,0,0,0,,0,183,183,338,1,
,,,,,,,,,,,,,,,,,,5ef3723b50bced0c4a711686,2020-08-10_12h18.41.167,lexical_decision_task_MP,2020.1.3,MacIntel,60,,m,1,0.70721,,,,,,,,0.70721,1,,,,,,224,WORD,UN,50,vulgar,PERIOD,m,,,,,,0.076744249,-0.42801378,0,0,0,,0,184,184,223,1,
,,,,,,,,,,,,,,,,,,5ef3723b50bced0c4a711686,2020-08-10_12h18.41.167,lexical_decision_task_MP,2020.1.3,MacIntel,60,,m,1,0.591715,,,,,,,,0.591715,1,,,,,,193,WORD,UN,50,plague,OBJECT,m,,,,,,0.076744249,-0.42801378,0,0,0,,0,185,185,192,1,
,,,,,,,,,,,,,,,,,,5ef3723b50bced0c4a711686,2020-08-10_12h18.41.167,lexical_decision_task_MP,2020.1.3,MacIntel,60,,m,1,0.5676,,,,,,,,0.5676,1,,,,,,216,WORD,UN,50,liquor,BEHALF,m,,,,,,0.076744249,-0.42801378,0,0,0,,0,186,186,215,1,
,,,,,,,,,,,,,,,,,,5ef3723b50bced0c4a711686,2020-08-10_12h18.41.167,lexical_decision_task_MP,2020.1.3,MacIntel,60,,m,1,0.51464,,,,,,,,0.51464,1,,,,,,51,WORD,"ID",33,hungry,HUNGRY,m,,,,,,0.076744249,-0.42801378,0,0,0,,0,187,187,50,1,
,,,,,,,,,,,,,,,,,,5ef3723b50bced0c4a711686,2020-08-10_12h18.41.167,lexical_decision_task_MP,2020.1.3,MacIntel,60,,m,1,0.48514,,,,,,,,0.48514,1,,,,,,27,WORD,"ID",33,scream,SCREAM,m,,,,,,0.076744249,-0.42801378,0,0,0,,0,188,188,26,1,
,,,,,,,,,,,,,,,,,,5ef3723b50bced0c4a711686,2020-08-10_12h18.41.167,lexical_decision_task_MP,2020.1.3,MacIntel,60,,z,1,0.65069,,,,,,,,0.65069,1,,,,,,334,NW,"ID",50,watmeg,WATMEG,z,,,,,,0.076744249,-0.42801378,0,0,0,,0,189,189,333,1,
,,,,,,,,,,,,,,,,,,5ef3723b50bced0c4a711686,2020-08-10_12h18.41.167,lexical_decision_task_MP,2020.1.3,MacIntel,60,,z,1,0.639975,,,,,,,,0.639975,1,,,,,,311,NW,"ID",50,sproly,SPROLY,z,,,,,,0.076744249,-0.42801378,0,0,0,,0,190,190,310,1,
,,,,,,,,,,,,,,,,,,5ef3723b50bced0c4a711686,2020-08-10_12h18.41.167,lexical_decision_task_MP,2020.1.3,MacIntel,60,,m,1,0.590165,,,,,,,,0.590165,1,,,,,,47,WORD,"ID",33,income,INCOME,m,,,,,,0.076744249,-0.42801378,0,0,0,,0,191,191,46,1,
,,,,,,,,,,,,,,,,,,5ef3723b50bced0c4a711686,2020-08-10_12h18.41.167,lexical_decision_task_MP,2020.1.3,MacIntel,60,,z,1,0.69832,,,,,,,,0.69832,1,,,,,,265,NW,"ID",33,distar,DISTAR,z,,,,,,0.076744249,-0.42801378,0,0,0,,0,192,192,264,1,
,,,,,,,,,,,,,,,,,,5ef3723b50bced0c4a711686,2020-08-10_12h18.41.167,lexical_decision_task_MP,2020.1.3,MacIntel,60,,m,1,0.571525,,,,,,,,0.571525,1,,,,,,14,WORD,"ID",33,almost,ALMOST,m,,,,,,0.076744249,-0.42801378,0,0,0,,0,193,193,13,1,
,,,,,,,,,,,,,,,,,,5ef3723b50bced0c4a711686,2020-08-10_12h18.41.167,lexical_decision_task_MP,2020.1.3,MacIntel,60,,m,1,0.598095,,,,,,,,0.598095,1,,,,,,228,WORD,UN,50,inject,MASTER,m,,,,,,0.076744249,-0.42801378,0,0,0,,0,194,194,227,1,
,,,,,,,,,,,,,,,,,,5ef3723b50bced0c4a711686,2020-08-10_12h18.41.167,lexical_decision_task_MP,2020.1.3,MacIntel,60,,z,1,0.55752,,,,,,,,0.55752,1,,,,,,412,NW,UN,33,equats,JILUER,z,,,,,,0.076744249,-0.42801378,0,0,0,,0,195,195,411,1,
,,,,,,,,,,,,,,,,,,5ef3723b50bced0c4a711686,2020-08-10_12h18.41.167,lexical_decision_task_MP,2020.1.3,MacIntel,60,,m,1,0.935825,,,,,,,,0.935825,1,,,,,,176,WORD,UN,33,advent,STRIFE,m,,,,,,0.076744249,-0.42801378,0,0,0,,0,196,196,175,1,
,,,,,,,,,,,,,,,,,,5ef3723b50bced0c4a711686,2020-08-10_12h18.41.167,lexical_decision_task_MP,2020.1.3,MacIntel,60,,z,1,0.62826,,,,,,,,0.62826,1,,,,,,248,NW,"ID",33,strole,STROLE,z,,,,,,0.076744249,-0.42801378,0,0,0,,0,197,197,247,1,
,,,,,,,,,,,,,,,,,,5ef3723b50bced0c4a711686,2020-08-10_12h18.41.167,lexical_decision_task_MP,2020.1.3,MacIntel,60,,z,1,0.91612,,,,,,,,0.91612,1,,,,,,365,NW,UN,33,toshel,GUAIRT,z,,,,,,0.076744249,-0.42801378,0,0,0,,0,198,198,364,1,
,,,,,,,,,,,,,,,,,,5ef3723b50bced0c4a711686,2020-08-10_12h18.41.167,lexical_decision_task_MP,2020.1.3,MacIntel,60,,m,1,0.62049,,,,,,,,0.62049,1,,,,,,76,WORD,"ID",50,exotic,EXOTIC,m,,,,,,0.076744249,-0.42801378,0,0,0,,0,199,199,75,1,
,,,,,,,,,,,,,,,,,,5ef3723b50bced0c4a711686,2020-08-10_12h18.41.167,lexical_decision_task_MP,2020.1.3,MacIntel,60,,z,1,0.693255,,,,,,,,0.693255,1,,,,,,439,NW,UN,50,saride,LIMPOR,z,,,,,,0.076744249,-0.42801378,0,0,0,,0,200,200,438,1,
,,,,,,,,,,,,,,,,,,5ef3723b50bced0c4a711686,2020-08-10_12h18.41.167,lexical_decision_task_MP,2020.1.3,MacIntel,60,,z,1,0.848965,,,,,,,,0.848965,1,,,,,,293,NW,"ID",33,swance,SWANCE,z,,,,,,0.076744249,-0.42801378,0,0,0,,0,201,201,292,1,
,,,,,,,,,,,,,,,,,,5ef3723b50bced0c4a711686,2020-08-10_12h18.41.167,lexical_decision_task_MP,2020.1.3,MacIntel,60,,m,1,0.805035,,,,,,,,0.805035,1,,,,,,199,WORD,UN,50,beacon,INVOKE,m,,,,,,0.076744249,-0.42801378,0,0,0,,0,202,202,198,1,
,,,,,,,,,,,,,,,,,,5ef3723b50bced0c4a711686,2020-08-10_12h18.41.167,lexical_decision_task_MP,2020.1.3,MacIntel,60,,z,1,0.750495,,,,,,,,0.750495,1,,,,,,407,NW,UN,33,hurnia,SUIVER,z,,,,,,0.076744249,-0.42801378,0,0,0,,0,203,203,406,1,
,,,,,,,,,,,,,,,,,,5ef3723b50bced0c4a711686,2020-08-10_12h18.41.167,lexical_decision_task_MP,2020.1.3,MacIntel,60,,m,1,0.671485,,,,,,,,0.671485,1,,,,,,62,WORD,"ID",50,region,REGION,m,,,,,,0.076744249,-0.42801378,0,0,0,,0,204,204,61,1,
,,,,,,,,,,,,,,,,,,5ef3723b50bced0c4a711686,2020-08-10_12h18.41.167,lexical_decision_task_MP,2020.1.3,MacIntel,60,,z,1,0.882505,,,,,,,,0.882505,1,,,,,,440,NW,UN,50,cainky,SARIDE,z,,,,,,0.076744249,-0.42801378,0,0,0,,0,205,205,439,1,
,,,,,,,,,,,,,,,,,,5ef3723b50bced0c4a711686,2020-08-10_12h18.41.167,lexical_decision_task_MP,2020.1.3,MacIntel,60,,m,1,0.59769,,,,,,,,0.59769,1,,,,,,114,WORD,"ID",50,placid,PLACID,m,,,,,,0.076744249,-0.42801378,0,0,0,,0,206,206,113,1,
,,,,,,,,,,,,,,,,,,5ef3723b50bced0c4a711686,2020-08-10_12h18.41.167,lexical_decision_task_MP,2020.1.3,MacIntel,60,,m,1,0.73118,,,,,,,,0.73118,1,,,,,,66,WORD,"ID",50,gospel,GOSPEL,m,,,,,,0.076744249,-0.42801378,0,0,0,,0,207,207,65,1,
,,,,,,,,,,,,,,,,,,5ef3723b50bced0c4a711686,2020-08-10_12h18.41.167,lexical_decision_task_MP,2020.1.3,MacIntel,60,,z,1,0.66768,,,,,,,,0.66768,1,,,,,,274,NW,"ID",33,fumblo,FUMBLO,z,,,,,,0.076744249,-0.42801378,0,0,0,,0,208,208,273,1,
,,,,,,,,,,,,,,,,,,5ef3723b50bced0c4a711686,2020-08-10_12h18.41.167,lexical_decision_task_MP,2020.1.3,MacIntel,60,,m,1,0.536885,,,,,,,,0.536885,1,,,,,,75,WORD,"ID",50,trophy,TROPHY,m,,,,,,0.076744249,-0.42801378,0,0,0,,0,209,209,74,1,
,,,,,,,,,,,,,,,,,,5ef3723b50bced0c4a711686,2020-08-10_12h18.41.167,lexical_decision_task_MP,2020.1.3,MacIntel,60,,z,1,0.74061,,,,,,,,0.74061,1,,,,,,275,NW,"ID",33,sleirt,SLEIRT,z,,,,,,0.076744249,-0.42801378,0,0,0,,0,210,210,274,1,
,,,,,,,,,,,,,,,,,,5ef3723b50bced0c4a711686,2020-08-10_12h18.41.167,lexical_decision_task_MP,2020.1.3,MacIntel,60,,z,1,0.732335,,,,,,,,0.732335,1,,,,,,408,NW,UN,33,flumni,HURNIA,z,,,,,,0.076744249,-0.42801378,0,0,0,,0,211,211,407,1,
,,,,,,,,,,,,,,,,,,5ef3723b50bced0c4a711686,2020-08-10_12h18.41.167,lexical_decision_task_MP,2020.1.3,MacIntel,60,,m,1,0.60039,,,,,,,,0.60039,1,,,,,,225,WORD,UN,50,kidney,VULGAR,m,,,,,,0.076744249,-0.42801378,0,0,0,,0,212,212,224,1,
,,,,,,,,,,,,,,,,,,5ef3723b50bced0c4a711686,2020-08-10_12h18.41.167,lexical_decision_task_MP,2020.1.3,MacIntel,60,,m,1,0.665425,,,,,,,,0.665425,1,,,,,,239,WORD,UN,50,forest,LUMBER,m,,,,,,0.076744249,-0.42801378,0,0,0,,0,213,213,238,1,
,,,,,,,,,,,,,,,,,,5ef3723b50bced0c4a711686,2020-08-10_12h18.41.167,lexical_decision_task_MP,2020.1.3,MacIntel,60,,m,1,0.53579,,,,,,,,0.53579,1,,,,,,143,WORD,UN,33,sponge,REASON,m,,,,,,0.076744249,-0.42801378,0,0,0,,0,214,214,142,1,
,,,,,,,,,,,,,,,,,,5ef3723b50bced0c4a711686,2020-08-10_12h18.41.167,lexical_decision_task_MP,2020.1.3,MacIntel,60,,m,1,0.48981,,,,,,,,0.48981,1,,,,,,105,WORD,"ID",50,number,NUMBER,m,,,,,,0.076744249,-0.42801378,0,0,0,,0,215,215,104,1,
,,,,,,,,,,,,,,,,,,5ef3723b50bced0c4a711686,2020-08-10_12h18.41.167,lexical_decision_task_MP,2020.1.3,MacIntel,60,,z,1,0.75739,,,,,,,,0.75739,1,,,,,,318,NW,"ID",50,reagly,REAGLY,z,,,,,,0.076744249,-0.42801378,0,0,0,,0,216,216,317,1,
,,,,,,,,,,,,,,,,,,5ef3723b50bced0c4a711686,2020-08-10_12h18.41.167,lexical_decision_task_MP,2020.1.3,MacIntel,60,,m,1,0.75156,,,,,,,,0.75156,1,,,,,,212,WORD,UN,50,squeal,VERIFY,m,,,,,,0.076744249,-0.42801378,0,0,0,,0,217,217,211,1,
,,,,,,,,,,,,,,,,,,5ef3723b50bced0c4a711686,2020-08-10_12h18.41.167,lexical_decision_task_MP,2020.1.3,MacIntel,60,,z,1,0.970075,,,,,,,,0.970075,1,,,,,,393,NW,UN,33,spaqux,GANOUS,z,,,,,,0.076744249,-0.42801378,0,0,0,,0,218,218,392,1,
,,,,,,,,,,,,,,,,,,5ef3723b50bced0c4a711686,2020-08-10_12h18.41.167,lexical_decision_task_MP,2020.1.3,MacIntel,60,,z,1,1.13984,,,,,,,,1.13984,1,,,,,,418,NW,UN,33,slount,SUIDLE,z,,,,,,0.076744249,-0.42801378,0,0,0,,0,219,219,417,1,
,,,,,,,,,,,,,,,,,,5ef3723b50bced0c4a711686,2020-08-10_12h18.41.167,lexical_decision_task_MP,2020.1.3,MacIntel,60,,m,1,0.789565,,,,,,,,0.789565,1,,,,,,226,WORD,UN,50,flower,CASINO,m,,,,,,0.076744249,-0.42801378,0,0,0,,0,220,220,225,1,
,,,,,,,,,,,,,,,,,,5ef3723b50bced0c4a711686,2020-08-10_12h18.41.167,lexical_decision_task_MP,2020.1.3,MacIntel,60,,z,1,0.66978,,,,,,,,0.66978,1,,,,,,267,NW,"ID",33,pasink,PASINK,z,,,,,,0.076744249,-0.42801378,0,0,0,,0,221,221,266,1,
,,,,,,,,,,,,,,,,,,5ef3723b50bced0c4a711686,2020-08-10_12h18.41.167,lexical_decision_task_MP,2020.1.3,MacIntel,60,,z,1,0.67624,,,,,,,,0.67624,1,,,,,,341,NW,"ID",50,myrtie,MYRTIE,z,,,,,,0.076744249,-0.42801378,0,0,0,,0,222,222,340,1,
,,,,,,,,,,,,,,,,,,5ef3723b50bced0c4a711686,2020-08-10_12h18.41.167,lexical_decision_task_MP,2020.1.3,MacIntel,60,,m,1,0.66573,,,,,,,,0.66573,1,,,,,,54,WORD,"ID",33,ramble,RAMBLE,m,,,,,,0.076744249,-0.42801378,0,0,0,,0,223,223,53,1,
,,,,,,,,,,,,,,,,,,5ef3723b50bced0c4a711686,2020-08-10_12h18.41.167,lexical_decision_task_MP,2020.1.3,MacIntel,60,,z,1,0.605665,,,,,,,,0.605665,1,,,,,,451,NW,UN,50,surden,CAINKY,z,,,,,,0.076744249,-0.42801378,0,0,0,,0,224,224,450,1,
,,,,,,,,,,,,,,,,,,5ef3723b50bced0c4a711686,2020-08-10_12h18.41.167,lexical_decision_task_MP,2020.1.3,MacIntel,60,,z,1,0.914545,,,,,,,,0.914545,1,,,,,,432,NW,UN,50,drance,LUNKER,z,,,,,,0.076744249,-0.42801378,0,0,0,,0,225,225,431,1,
,,,,,,,,,,,,,,,,,,5ef3723b50bced0c4a711686,2020-08-10_12h18.41.167,lexical_decision_task_MP,2020.1.3,MacIntel,60,,z,1,0.733045,,,,,,,,0.733045,1,,,,,,402,NW,UN,33,bruats,SYNTIC,z,,,,,,0.076744249,-0.42801378,0,0,0,,0,226,226,401,1,
,,,,,,,,,,,,,,,,,,5ef3723b50bced0c4a711686,2020-08-10_12h18.41.167,lexical_decision_task_MP,2020.1.3,MacIntel,60,,z,1,0.63573,,,,,,,,0.63573,1,,,,,,335,NW,"ID",50,desion,DESION,z,,,,,,0.076744249,-0.42801378,0,0,0,,0,227,227,334,1,
,,,,,,,,,,,,,,,,,,5ef3723b50bced0c4a711686,2020-08-10_12h18.41.167,lexical_decision_task_MP,2020.1.3,MacIntel,60,,m,1,0.49041,,,,,,,,0.49041,1,,,,,,152,WORD,UN,33,behold,ROCKET,m,,,,,,0.076744249,-0.42801378,0,0,0,,0,228,228,151,1,
,,,,,,,,,,,,,,,,,,5ef3723b50bced0c4a711686,2020-08-10_12h18.41.167,lexical_decision_task_MP,2020.1.3,MacIntel,60,,z,1,0.518165,,,,,,,,0.518165,1,,,,,,475,NW,UN,50,robuly,PEBRIC,z,,,,,,0.076744249,-0.42801378,0,0,0,,0,229,229,474,1,
,,,,,,,,,,,,,,,,,,5ef3723b50bced0c4a711686,2020-08-10_12h18.41.167,lexical_decision_task_MP,2020.1.3,MacIntel,60,,m,1,0.60024,,,,,,,,0.60024,1,,,,,,112,WORD,"ID",50,breath,BREATH,m,,,,,,0.076744249,-0.42801378,0,0,0,,0,230,230,111,1,
,,,,,,,,,,,,,,,,,,5ef3723b50bced0c4a711686,2020-08-10_12h18.41.167,lexical_decision_task_MP,2020.1.3,MacIntel,60,,m,1,0.553745,,,,,,,,0.553745,1,,,,,,103,WORD,"ID",50,bounce,BOUNCE,m,,,,,,0.076744249,-0.42801378,0,0,0,,0,231,231,102,1,
,,,,,,,,,,,,,,,,,,5ef3723b50bced0c4a711686,2020-08-10_12h18.41.167,lexical_decision_task_MP,2020.1.3,MacIntel,60,,z,1,0.788045,,,,,,,,0.788045,1,,,,,,338,NW,"ID",50,wreash,WREASH,z,,,,,,0.076744249,-0.42801378,0,0,0,,0,232,232,337,1,
,,,,,,,,,,,,,,,,,,5ef3723b50bced0c4a711686,2020-08-10_12h18.41.167,lexical_decision_task_MP,2020.1.3,MacIntel,60,,m,1,0.651955,,,,,,,,0.651955,1,,,,,,121,WORD,UN,33,linger,THRIVE,m,,,,,,0.076744249,-0.42801378,0,0,0,,0,233,233,120,1,
,,,,,,,,,,,,,,,,,,5ef3723b50bced0c4a711686,2020-08-10_12h18.41.167,lexical_decision_task_MP,2020.1.3,MacIntel,60,,m,1,0.61524,,,,,,,,0.61524,1,,,,,,43,WORD,"ID",33,tongue,TONGUE,m,,,,,,0.076744249,-0.42801378,0,0,0,,0,234,234,42,1,
,,,,,,,,,,,,,,,,,,5ef3723b50bced0c4a711686,2020-08-10_12h18.41.167,lexical_decision_task_MP,2020.1.3,MacIntel,60,,z,1,0.67261,,,,,,,,0.67261,1,,,,,,322,NW,"ID",50,slanch,SLANCH,z,,,,,,0.076744249,-0.42801378,0,0,0,,0,235,235,321,1,
,,,,,,,,,,,,,,,,,,5ef3723b50bced0c4a711686,2020-08-10_12h18.41.167,lexical_decision_task_MP,2020.1.3,MacIntel,60,,m,1,0.56703,,,,,,,,0.56703,1,,,,,,96,WORD,"ID",50,ignore,IGNORE,m,,,,,,0.076744249,-0.42801378,0,0,0,,0,236,236,95,1,
,,,,,,,,,,,,,,,,,,5ef3723b50bced0c4a711686,2020-08-10_12h18.41.167,lexical_decision_task_MP,2020.1.3,MacIntel,60,,m,1,0.76559,,,,,,,,0.76559,1,,,,,,21,WORD,"ID",33,simple,SIMPLE,m,,,,,,0.076744249,-0.42801378,0,0,0,,0,237,237,20,1,
,,,,,,,,,,,,,,,,,,5ef3723b50bced0c4a711686,2020-08-10_12h18.41.167,lexical_decision_task_MP,2020.1.3,MacIntel,60,,m,1,0.609055,,,,,,,,0.609055,1,,,,,,189,WORD,UN,50,backup,CENSOR,m,,,,,,0.076744249,-0.42801378,0,0,0,,0,238,238,188,1,
,,,,,,,,,,,,,,,,,,5ef3723b50bced0c4a711686,2020-08-10_12h18.41.167,lexical_decision_task_MP,2020.1.3,MacIntel,60,,z,1,0.615075,,,,,,,,0.615075,1,,,,,,295,NW,"ID",33,gleath,GLEATH,z,,,,,,0.076744249,-0.42801378,0,0,0,,0,239,239,294,1,
,,,,,,,,,,,,,,,,,,5ef3723b50bced0c4a711686,2020-08-10_12h18.41.167,lexical_decision_task_MP,2020.1.3,MacIntel,60,,z,1,0.80223,,,,,,,,0.80223,1,,,,,,305,NW,"ID",50,forgle,FORGLE,z,,,,,,0.076744249,-0.42801378,0,0,0,,0,240,240,304,1,
,,,,,,,,,,,,,,,,,,5ef3723b50bced0c4a711686,2020-08-10_12h18.41.167,lexical_decision_task_MP,2020.1.3,MacIntel,60,,m,1,0.616985,,,,,,,,0.616985,1,,,,,,217,WORD,UN,50,shrink,LIQUOR,m,,,,,,0.076744249,-0.42801378,0,0,0,space,0,241,241,216,1,14.856705
,,,,,,,,,,,,,,,,,,5ef3723b50bced0c4a711686,2020-08-10_12h18.41.167,lexical_decision_task_MP,2020.1.3,MacIntel,60,,m,1,0.519235,,,,,,,,0.519235,1,,,,,,90,WORD,"ID",50,relish,RELISH,m,,,,,,0.076744249,-0.42801378,0,0,0,,0,242,242,89,1,
,,,,,,,,,,,,,,,,,,5ef3723b50bced0c4a711686,2020-08-10_12h18.41.167,lexical_decision_task_MP,2020.1.3,MacIntel,60,,z,1,0.598385,,,,,,,,0.598385,1,,,,,,372,NW,UN,33,bigent,RAMILY,z,,,,,,0.076744249,-0.42801378,0,0,0,,0,243,243,371,1,
,,,,,,,,,,,,,,,,,,5ef3723b50bced0c4a711686,2020-08-10_12h18.41.167,lexical_decision_task_MP,2020.1.3,MacIntel,60,,m,1,0.64816,,,,,,,,0.64816,1,,,,,,85,WORD,"ID",50,sprawl,SPRAWL,m,,,,,,0.076744249,-0.42801378,0,0,0,,0,244,244,84,1,
,,,,,,,,,,,,,,,,,,5ef3723b50bced0c4a711686,2020-08-10_12h18.41.167,lexical_decision_task_MP,2020.1.3,MacIntel,60,,m,1,0.75059,,,,,,,,0.75059,1,,,,,,59,WORD,"ID",33,splint,SPLINT,m,,,,,,0.076744249,-0.42801378,0,0,0,,0,245,245,58,1,
,,,,,,,,,,,,,,,,,,5ef3723b50bced0c4a711686,2020-08-10_12h18.41.167,lexical_decision_task_MP,2020.1.3,MacIntel,60,,m,1,0.581195,,,,,,,,0.581195,1,,,,,,45,WORD,"ID",33,clergy,CLERGY,m,,,,,,0.076744249,-0.42801378,0,0,0,,0,246,246,44,1,
,,,,,,,,,,,,,,,,,,5ef3723b50bced0c4a711686,2020-08-10_12h18.41.167,lexical_decision_task_MP,2020.1.3,MacIntel,60,,m,1,0.573325,,,,,,,,0.573325,1,,,,,,138,WORD,UN,33,staple,MELODY,m,,,,,,0.076744249,-0.42801378,0,0,0,,0,247,247,137,1,
,,,,,,,,,,,,,,,,,,5ef3723b50bced0c4a711686,2020-08-10_12h18.41.167,lexical_decision_task_MP,2020.1.3,MacIntel,60,,m,1,0.470695,,,,,,,,0.470695,1,,,,,,206,WORD,UN,50,wreath,TAILOR,m,,,,,,0.076744249,-0.42801378,0,0,0,,0,248,248,205,1,
,,,,,,,,,,,,,,,,,,5ef3723b50bced0c4a711686,2020-08-10_12h18.41.167,lexical_decision_task_MP,2020.1.3,MacIntel,60,,m,1,0.55733,,,,,,,,0.55733,1,,,,,,214,WORD,UN,50,phobia,INTAKE,m,,,,,,0.076744249,-0.42801378,0,0,0,,0,249,249,213,1,
,,,,,,,,,,,,,,,,,,5ef3723b50bced0c4a711686,2020-08-10_12h18.41.167,lexical_decision_task_MP,2020.1.3,MacIntel,60,,m,1,0.51571,,,,,,,,0.51571,1,,,,,,136,WORD,UN,33,finger,BLEACH,m,,,,,,0.076744249,-0.42801378,0,0,0,,0,250,250,135,1,
,,,,,,,,,,,,,,,,,,5ef3723b50bced0c4a711686,2020-08-10_12h18.41.167,lexical_decision_task_MP,2020.1.3,MacIntel,60,,z,1,0.64212,,,,,,,,0.64212,1,,,,,,292,NW,"ID",33,ablint,ABLINT,z,,,,,,0.076744249,-0.42801378,0,0,0,,0,251,251,291,1,
,,,,,,,,,,,,,,,,,,5ef3723b50bced0c4a711686,2020-08-10_12h18.41.167,lexical_decision_task_MP,2020.1.3,MacIntel,60,,z,1,0.609505,,,,,,,,0.609505,1,,,,,,426,NW,UN,50,frudge,URIVEL,z,,,,,,0.076744249,-0.42801378,0,0,0,,0,252,252,425,1,
,,,,,,,,,,,,,,,,,,5ef3723b50bced0c4a711686,2020-08-10_12h18.41.167,lexical_decision_task_MP,2020.1.3,MacIntel,60,,m,1,0.720305,,,,,,,,0.720305,1,,,,,,164,WORD,UN,33,invest,MARKET,m,,,,,,0.076744249,-0.42801378,0,0,0,,0,253,253,163,1,
,,,,,,,,,,,,,,,,,,5ef3723b50bced0c4a711686,2020-08-10_12h18.41.167,lexical_decision_task_MP,2020.1.3,MacIntel,60,,m,1,0.58195,,,,,,,,0.58195,1,,,,,,220,WORD,UN,50,mascot,VOYAGE,m,,,,,,0.076744249,-0.42801378,0,0,0,,0,254,254,219,1,
,,,,,,,,,,,,,,,,,,5ef3723b50bced0c4a711686,2020-08-10_12h18.41.167,lexical_decision_task_MP,2020.1.3,MacIntel,60,,z,1,0.715525,,,,,,,,0.715525,1,,,,,,468,NW,UN,50,padifs,WICTOR,z,,,,,,0.076744249,-0.42801378,0,0,0,,0,255,255,467,1,
,,,,,,,,,,,,,,,,,,5ef3723b50bced0c4a711686,2020-08-10_12h18.41.167,lexical_decision_task_MP,2020.1.3,MacIntel,60,,m,1,0.56208,,,,,,,,0.56208,1,,,,,,116,WORD,"ID",50,tumble,TUMBLE,m,,,,,,0.076744249,-0.42801378,0,0,0,,0,256,256,115,1,
,,,,,,,,,,,,,,,,,,5ef3723b50bced0c4a711686,2020-08-10_12h18.41.167,lexical_decision_task_MP,2020.1.3,MacIntel,60,,z,1,0.681685,,,,,,,,0.681685,1,,,,,,467,NW,UN,50,wictor,GORBIE,z,,,,,,0.076744249,-0.42801378,0,0,0,,0,257,257,466,1,
,,,,,,,,,,,,,,,,,,5ef3723b50bced0c4a711686,2020-08-10_12h18.41.167,lexical_decision_task_MP,2020.1.3,MacIntel,60,,m,1,0.58246,,,,,,,,0.58246,1,,,,,,168,WORD,UN,33,genius,ANSWER,m,,,,,,0.076744249,-0.42801378,0,0,0,,0,258,258,167,1,
,,,,,,,,,,,,,,,,,,5ef3723b50bced0c4a711686,2020-08-10_12h18.41.167,lexical_decision_task_MP,2020.1.3,MacIntel,60,,z,1,0.650075,,,,,,,,0.650075,1,,,,,,472,NW,UN,50,crible,CIGNEY,z,,,,,,0.076744249,-0.42801378,0,0,0,,0,259,259,471,1,
,,,,,,,,,,,,,,,,,,5ef3723b50bced0c4a711686,2020-08-10_12h18.41.167,lexical_decision_task_MP,2020.1.3,MacIntel,60,,m,1,0.58267,,,,,,,,0.58267,1,,,,,,151,WORD,UN,33,rocket,MYSTIC,m,,,,,,0.076744249,-0.42801378,0,0,0,,0,260,260,150,1,
,,,,,,,,,,,,,,,,,,5ef3723b50bced0c4a711686,2020-08-10_12h18.41.167,lexical_decision_task_MP,2020.1.3,MacIntel,60,,z,1,0.63653,,,,,,,,0.63653,1,,,,,,419,NW,UN,33,gushop,SLOUNT,z,,,,,,0.076744249,-0.42801378,0,0,0,,0,261,261,418,1,
,,,,,,,,,,,,,,,,,,5ef3723b50bced0c4a711686,2020-08-10_12h18.41.167,lexical_decision_task_MP,2020.1.3,MacIntel,60,,m,1,0.54037,,,,,,,,0.54037,1,,,,,,28,WORD,"ID",33,comedy,COMEDY,m,,,,,,0.076744249,-0.42801378,0,0,0,,0,262,262,27,1,
,,,,,,,,,,,,,,,,,,5ef3723b50bced0c4a711686,2020-08-10_12h18.41.167,lexical_decision_task_MP,2020.1.3,MacIntel,60,,z,0,0.66944,,,,,,,,0.66944,0,,,,,,184,WORD,UN,50,bother,SLEAZY,m,,,,,,0.076744249,-0.42801378,0,0,0,,0,263,263,183,1,
,,,,,,,,,,,,,,,,,,5ef3723b50bced0c4a711686,2020-08-10_12h18.41.167,lexical_decision_task_MP,2020.1.3,MacIntel,60,,m,1,0.63124,,,,,,,,0.63124,1,,,,,,22,WORD,"ID",33,jockey,JOCKEY,m,,,,,,0.076744249,-0.42801378,0,0,0,,0,264,264,21,1,
,,,,,,,,,,,,,,,,,,5ef3723b50bced0c4a711686,2020-08-10_12h18.41.167,lexical_decision_task_MP,2020.1.3,MacIntel,60,,z,1,0.716695,,,,,,,,0.716695,1,,,,,,360,NW,"ID",50,desory,DESORY,z,,,,,,0.076744249,-0.42801378,0,0,0,,0,265,265,359,1,
,,,,,,,,,,,,,,,,,,5ef3723b50bced0c4a711686,2020-08-10_12h18.41.167,lexical_decision_task_MP,2020.1.3,MacIntel,60,,z,1,0.78313,,,,,,,,0.78313,1,,,,,,401,NW,UN,33,elopia,MUSTIL,z,,,,,,0.076744249,-0.42801378,0,0,0,,0,266,266,400,1,
,,,,,,,,,,,,,,,,,,5ef3723b50bced0c4a711686,2020-08-10_12h18.41.167,lexical_decision_task_MP,2020.1.3,MacIntel,60,,m,1,0.6239,,,,,,,,0.6239,1,,,,,,4,WORD,"ID",33,trench,TRENCH,m,,,,,,0.076744249,-0.42801378,0,0,0,,0,267,267,3,1,
,,,,,,,,,,,,,,,,,,5ef3723b50bced0c4a711686,2020-08-10_12h18.41.167,lexical_decision_task_MP,2020.1.3,MacIntel,60,,m,1,0.64965,,,,,,,,0.64965,1,,,,,,128,WORD,UN,33,marvel,SENIOR,m,,,,,,0.076744249,-0.42801378,0,0,0,,0,268,268,127,1,
,,,,,,,,,,,,,,,,,,5ef3723b50bced0c4a711686,2020-08-10_12h18.41.167,lexical_decision_task_MP,2020.1.3,MacIntel,60,,z,1,0.73359,,,,,,,,0.73359,1,,,,,,270,NW,"ID",33,wrimsy,WRIMSY,z,,,,,,0.076744249,-0.42801378,0,0,0,,0,269,269,269,1,
,,,,,,,,,,,,,,,,,,5ef3723b50bced0c4a711686,2020-08-10_12h18.41.167,lexical_decision_task_MP,2020.1.3,MacIntel,60,,m,1,0.71885,,,,,,,,0.71885,1,,,,,,156,WORD,UN,33,pastor,CRADLE,m,,,,,,0.076744249,-0.42801378,0,0,0,,0,270,270,155,1,
,,,,,,,,,,,,,,,,,,5ef3723b50bced0c4a711686,2020-08-10_12h18.41.167,lexical_decision_task_MP,2020.1.3,MacIntel,60,,z,1,0.93856,,,,,,,,0.93856,1,,,,,,436,NW,UN,50,snapel,FRUTAN,z,,,,,,0.076744249,-0.42801378,0,0,0,,0,271,271,435,1,
,,,,,,,,,,,,,,,,,,5ef3723b50bced0c4a711686,2020-08-10_12h18.41.167,lexical_decision_task_MP,2020.1.3,MacIntel,60,,m,1,0.58081,,,,,,,,0.58081,1,,,,,,192,WORD,UN,50,object,PLAGUE,m,,,,,,0.076744249,-0.42801378,0,0,0,,0,272,272,191,1,
,,,,,,,,,,,,,,,,,,5ef3723b50bced0c4a711686,2020-08-10_12h18.41.167,lexical_decision_task_MP,2020.1.3,MacIntel,60,,m,1,0.606105,,,,,,,,0.606105,1,,,,,,232,WORD,UN,50,nature,INJECT,m,,,,,,0.076744249,-0.42801378,0,0,0,,0,273,273,231,1,
,,,,,,,,,,,,,,,,,,5ef3723b50bced0c4a711686,2020-08-10_12h18.41.167,lexical_decision_task_MP,2020.1.3,MacIntel,60,,z,1,0.5824,,,,,,,,0.5824,1,,,,,,336,NW,"ID",50,ghodus,GHODUS,z,,,,,,0.076744249,-0.42801378,0,0,0,,0,274,274,335,1,
,,,,,,,,,,,,,,,,,,5ef3723b50bced0c4a711686,2020-08-10_12h18.41.167,lexical_decision_task_MP,2020.1.3,MacIntel,60,,m,0,0.734515,,,,,,,,0.734515,0,,,,,,386,NW,UN,33,gronce,ANCUST,z,,,,,,0.076744249,-0.42801378,0,0,0,,0,275,275,385,1,
,,,,,,,,,,,,,,,,,,5ef3723b50bced0c4a711686,2020-08-10_12h18.41.167,lexical_decision_task_MP,2020.1.3,MacIntel,60,,m,1,0.733575,,,,,,,,0.733575,1,,,,,,57,WORD,"ID",33,change,CHANGE,m,,,,,,0.076744249,-0.42801378,0,0,0,,0,276,276,56,1,
,,,,,,,,,,,,,,,,,,5ef3723b50bced0c4a711686,2020-08-10_12h18.41.167,lexical_decision_task_MP,2020.1.3,MacIntel,60,,m,1,0.884985,,,,,,,,0.884985,1,,,,,,175,WORD,UN,33,strife,FABRIC,m,,,,,,0.076744249,-0.42801378,0,0,0,,0,277,277,174,1,
,,,,,,,,,,,,,,,,,,5ef3723b50bced0c4a711686,2020-08-10_12h18.41.167,lexical_decision_task_MP,2020.1.3,MacIntel,60,,z,1,1.254945,,,,,,,,1.254945,1,,,,,,348,NW,"ID",50,dumple,DUMPLE,z,,,,,,0.076744249,-0.42801378,0,0,0,,0,278,278,347,1,
,,,,,,,,,,,,,,,,,,5ef3723b50bced0c4a711686,2020-08-10_12h18.41.167,lexical_decision_task_MP,2020.1.3,MacIntel,60,,z,1,0.86621,,,,,,,,0.86621,1,,,,,,423,NW,UN,50,praile,STRELD,z,,,,,,0.076744249,-0.42801378,0,0,0,,0,279,279,422,1,
,,,,,,,,,,,,,,,,,,5ef3723b50bced0c4a711686,2020-08-10_12h18.41.167,lexical_decision_task_MP,2020.1.3,MacIntel,60,,m,1,0.624665,,,,,,,,0.624665,1,,,,,,223,WORD,UN,50,period,KIDNEY,m,,,,,,0.076744249,-0.42801378,0,0,0,,0,280,280,222,1,
,,,,,,,,,,,,,,,,,,5ef3723b50bced0c4a711686,2020-08-10_12h18.41.167,lexical_decision_task_MP,2020.1.3,MacIntel,60,,z,1,0.58604,,,,,,,,0.58604,1,,,,,,288,NW,"ID",33,yaceup,YACEUP,z,,,,,,0.076744249,-0.42801378,0,0,0,,0,281,281,287,1,
,,,,,,,,,,,,,,,,,,5ef3723b50bced0c4a711686,2020-08-10_12h18.41.167,lexical_decision_task_MP,2020.1.3,MacIntel,60,,z,1,0.619025,,,,,,,,0.619025,1,,,,,,246,NW,"ID",33,piaton,PIATON,z,,,,,,0.076744249,-0.42801378,0,0,0,,0,282,282,245,1,
,,,,,,,,,,,,,,,,,,5ef3723b50bced0c4a711686,2020-08-10_12h18.41.167,lexical_decision_task_MP,2020.1.3,MacIntel,60,,m,1,0.581515,,,,,,,,0.581515,1,,,,,,197,WORD,UN,50,wicked,STREAM,m,,,,,,0.076744249,-0.42801378,0,0,0,,0,283,283,196,1,
,,,,,,,,,,,,,,,,,,5ef3723b50bced0c4a711686,2020-08-10_12h18.41.167,lexical_decision_task_MP,2020.1.3,MacIntel,60,,z,1,0.71701,,,,,,,,0.71701,1,,,,,,279,NW,"ID",33,celond,CELOND,z,,,,,,0.076744249,-0.42801378,0,0,0,,0,284,284,278,1,
,,,,,,,,,,,,,,,,,,5ef3723b50bced0c4a711686,2020-08-10_12h18.41.167,lexical_decision_task_MP,2020.1.3,MacIntel,60,,m,1,0.65535,,,,,,,,0.65535,1,,,,,,201,WORD,UN,50,factor,ADMIRE,m,,,,,,0.076744249,-0.42801378,0,0,0,,0,285,285,200,1,
,,,,,,,,,,,,,,,,,,5ef3723b50bced0c4a711686,2020-08-10_12h18.41.167,lexical_decision_task_MP,2020.1.3,MacIntel,60,,z,1,0.76454,,,,,,,,0.76454,1,,,,,,332,NW,"ID",50,vangue,VANGUE,z,,,,,,0.076744249,-0.42801378,0,0,0,,0,286,286,331,1,
,,,,,,,,,,,,,,,,,,5ef3723b50bced0c4a711686,2020-08-10_12h18.41.167,lexical_decision_task_MP,2020.1.3,MacIntel,60,,m,1,0.533055,,,,,,,,0.533055,1,,,,,,180,WORD,UN,33,thrive,SILENT,m,,,,,,0.076744249,-0.42801378,0,0,0,,0,287,287,179,1,
,,,,,,,,,,,,,,,,,,5ef3723b50bced0c4a711686,2020-08-10_12h18.41.167,lexical_decision_task_MP,2020.1.3,MacIntel,60,,m,1,0.62253,,,,,,,,0.62253,1,,,,,,117,WORD,"ID",50,branch,BRANCH,m,,,,,,0.076744249,-0.42801378,0,0,0,,0,288,288,116,1,
,,,,,,,,,,,,,,,,,,5ef3723b50bced0c4a711686,2020-08-10_12h18.41.167,lexical_decision_task_MP,2020.1.3,MacIntel,60,,z,1,0.633215,,,,,,,,0.633215,1,,,,,,466,NW,UN,50,pebric,HOCITE,z,,,,,,0.076744249,-0.42801378,0,0,0,,0,289,289,465,1,
,,,,,,,,,,,,,,,,,,5ef3723b50bced0c4a711686,2020-08-10_12h18.41.167,lexical_decision_task_MP,2020.1.3,MacIntel,60,,m,1,0.58286,,,,,,,,0.58286,1,,,,,,230,WORD,UN,50,export,FRINGE,m,,,,,,0.076744249,-0.42801378,0,0,0,,0,290,290,229,1,
,,,,,,,,,,,,,,,,,,5ef3723b50bced0c4a711686,2020-08-10_12h18.41.167,lexical_decision_task_MP,2020.1.3,MacIntel,60,,z,1,0.63762,,,,,,,,0.63762,1,,,,,,445,NW,UN,50,runamo,MINKEL,z,,,,,,0.076744249,-0.42801378,0,0,0,,0,291,291,444,1,
,,,,,,,,,,,,,,,,,,5ef3723b50bced0c4a711686,2020-08-10_12h18.41.167,lexical_decision_task_MP,2020.1.3,MacIntel,60,,m,1,0.509225,,,,,,,,0.509225,1,,,,,,132,WORD,UN,33,bleach,STRONG,m,,,,,,0.076744249,-0.42801378,0,0,0,,0,292,292,131,1,
,,,,,,,,,,,,,,,,,,5ef3723b50bced0c4a711686,2020-08-10_12h18.41.167,lexical_decision_task_MP,2020.1.3,MacIntel,60,,z,1,0.67135,,,,,,,,0.67135,1,,,,,,306,NW,"ID",50,sounge,SOUNGE,z,,,,,,0.076744249,-0.42801378,0,0,0,,0,293,293,305,1,
,,,,,,,,,,,,,,,,,,5ef3723b50bced0c4a711686,2020-08-10_12h18.41.167,lexical_decision_task_MP,2020.1.3,MacIntel,60,,m,1,0.572735,,,,,,,,0.572735,1,,,,,,148,WORD,UN,33,invade,CUSTOM,m,,,,,,0.076744249,-0.42801378,0,0,0,,0,294,294,147,1,
,,,,,,,,,,,,,,,,,,5ef3723b50bced0c4a711686,2020-08-10_12h18.41.167,lexical_decision_task_MP,2020.1.3,MacIntel,60,,m,1,0.69863,,,,,,,,0.69863,1,,,,,,170,WORD,UN,33,depart,POUNCE,m,,,,,,0.076744249,-0.42801378,0,0,0,,0,295,295,169,1,
,,,,,,,,,,,,,,,,,,5ef3723b50bced0c4a711686,2020-08-10_12h18.41.167,lexical_decision_task_MP,2020.1.3,MacIntel,60,,m,1,0.597845,,,,,,,,0.597845,1,,,,,,53,WORD,"ID",33,police,POLICE,m,,,,,,0.076744249,-0.42801378,0,0,0,,0,296,296,52,1,
,,,,,,,,,,,,,,,,,,5ef3723b50bced0c4a711686,2020-08-10_12h18.41.167,lexical_decision_task_MP,2020.1.3,MacIntel,60,,m,1,0.620225,,,,,,,,0.620225,1,,,,,,18,WORD,"ID",33,humble,HUMBLE,m,,,,,,0.076744249,-0.42801378,0,0,0,,0,297,297,17,1,
,,,,,,,,,,,,,,,,,,5ef3723b50bced0c4a711686,2020-08-10_12h18.41.167,lexical_decision_task_MP,2020.1.3,MacIntel,60,,z,1,0.61698,,,,,,,,0.61698,1,,,,,,371,NW,UN,33,ramily,GEILOY,z,,,,,,0.076744249,-0.42801378,0,0,0,,0,298,298,370,1,
,,,,,,,,,,,,,,,,,,5ef3723b50bced0c4a711686,2020-08-10_12h18.41.167,lexical_decision_task_MP,2020.1.3,MacIntel,60,,z,1,0.659555,,,,,,,,0.659555,1,,,,,,278,NW,"ID",33,unighs,UNIGHS,z,,,,,,0.076744249,-0.42801378,0,0,0,,0,299,299,277,1,
,,,,,,,,,,,,,,,,,,5ef3723b50bced0c4a711686,2020-08-10_12h18.41.167,lexical_decision_task_MP,2020.1.3,MacIntel,60,,z,1,1.057205,,,,,,,,1.057205,1,,,,,,425,NW,UN,50,schind,FRUDGE,z,,,,,,0.076744249,-0.42801378,0,0,0,,0,300,300,424,1,
,,,,,,,,,,,,,,,,,,5ef3723b50bced0c4a711686,2020-08-10_12h18.41.167,lexical_decision_task_MP,2020.1.3,MacIntel,60,,m,1,0.758315,,,,,,,,0.758315,1,,,,,,34,WORD,"ID",33,jungle,JUNGLE,m,,,,,,0.076744249,-0.42801378,0,0,0,,0,301,301,33,1,
,,,,,,,,,,,,,,,,,,5ef3723b50bced0c4a711686,2020-08-10_12h18.41.167,lexical_decision_task_MP,2020.1.3,MacIntel,60,,z,1,0.607295,,,,,,,,0.607295,1,,,,,,450,NW,UN,50,rastoe,PHRECT,z,,,,,,0.076744249,-0.42801378,0,0,0,,0,302,302,449,1,
,,,,,,,,,,,,,,,,,,5ef3723b50bced0c4a711686,2020-08-10_12h18.41.167,lexical_decision_task_MP,2020.1.3,MacIntel,60,,z,1,0.640675,,,,,,,,0.640675,1,,,,,,323,NW,"ID",50,rosail,ROSAIL,z,,,,,,0.076744249,-0.42801378,0,0,0,,0,303,303,322,1,
,,,,,,,,,,,,,,,,,,5ef3723b50bced0c4a711686,2020-08-10_12h18.41.167,lexical_decision_task_MP,2020.1.3,MacIntel,60,,z,1,0.60572,,,,,,,,0.60572,1,,,,,,344,NW,"ID",50,scrily,SCRILY,z,,,,,,0.076744249,-0.42801378,0,0,0,,0,304,304,343,1,
,,,,,,,,,,,,,,,,,,5ef3723b50bced0c4a711686,2020-08-10_12h18.41.167,lexical_decision_task_MP,2020.1.3,MacIntel,60,,m,1,0.62368,,,,,,,,0.62368,1,,,,,,169,WORD,UN,33,pounce,GENIUS,m,,,,,,0.076744249,-0.42801378,0,0,0,,0,305,305,168,1,
,,,,,,,,,,,,,,,,,,5ef3723b50bced0c4a711686,2020-08-10_12h18.41.167,lexical_decision_task_MP,2020.1.3,MacIntel,60,,z,1,0.97453,,,,,,,,0.97453,1,,,,,,357,NW,"ID",50,derain,DERAIN,z,,,,,,0.076744249,-0.42801378,0,0,0,,0,306,306,356,1,
,,,,,,,,,,,,,,,,,,5ef3723b50bced0c4a711686,2020-08-10_12h18.41.167,lexical_decision_task_MP,2020.1.3,MacIntel,60,,z,1,0.63858,,,,,,,,0.63858,1,,,,,,427,NW,UN,50,tandly,SCHIND,z,,,,,,0.076744249,-0.42801378,0,0,0,,0,307,307,426,1,
,,,,,,,,,,,,,,,,,,5ef3723b50bced0c4a711686,2020-08-10_12h18.41.167,lexical_decision_task_MP,2020.1.3,MacIntel,60,,z,1,0.684975,,,,,,,,0.684975,1,,,,,,453,NW,UN,50,scouge,BOLVIS,z,,,,,,0.076744249,-0.42801378,0,0,0,,0,308,308,452,1,
,,,,,,,,,,,,,,,,,,5ef3723b50bced0c4a711686,2020-08-10_12h18.41.167,lexical_decision_task_MP,2020.1.3,MacIntel,60,,m,1,0.581,,,,,,,,0.581,1,,,,,,125,WORD,UN,33,blouse,NICKEL,m,,,,,,0.076744249,-0.42801378,0,0,0,,0,309,309,124,1,
,,,,,,,,,,,,,,,,,,5ef3723b50bced0c4a711686,2020-08-10_12h18.41.167,lexical_decision_task_MP,2020.1.3,MacIntel,60,,z,1,0.57,,,,,,,,0.57,1,,,,,,479,NW,UN,50,josted,LOBUSH,z,,,,,,0.076744249,-0.42801378,0,0,0,,0,310,310,478,1,
,,,,,,,,,,,,,,,,,,5ef3723b50bced0c4a711686,2020-08-10_12h18.41.167,lexical_decision_task_MP,2020.1.3,MacIntel,60,,m,1,0.6206,,,,,,,,0.6206,1,,,,,,159,WORD,UN,33,violet,DETAIL,m,,,,,,0.076744249,-0.42801378,0,0,0,,0,311,311,158,1,
,,,,,,,,,,,,,,,,,,5ef3723b50bced0c4a711686,2020-08-10_12h18.41.167,lexical_decision_task_MP,2020.1.3,MacIntel,60,,m,1,0.675135,,,,,,,,0.675135,1,,,,,,149,WORD,UN,33,random,INVADE,m,,,,,,0.076744249,-0.42801378,0,0,0,,0,312,312,148,1,
,,,,,,,,,,,,,,,,,,5ef3723b50bced0c4a711686,2020-08-10_12h18.41.167,lexical_decision_task_MP,2020.1.3,MacIntel,60,,z,1,0.54945,,,,,,,,0.54945,1,,,,,,414,NW,UN,33,higsta,SERBOL,z,,,,,,0.076744249,-0.42801378,0,0,0,,0,313,313,413,1,
,,,,,,,,,,,,,,,,,,5ef3723b50bced0c4a711686,2020-08-10_12h18.41.167,lexical_decision_task_MP,2020.1.3,MacIntel,60,,m,1,0.60327,,,,,,,,0.60327,1,,,,,,92,WORD,"ID",50,strand,STRAND,m,,,,,,0.076744249,-0.42801378,0,0,0,,0,314,314,91,1,
,,,,,,,,,,,,,,,,,,5ef3723b50bced0c4a711686,2020-08-10_12h18.41.167,lexical_decision_task_MP,2020.1.3,MacIntel,60,,m,1,0.684115,,,,,,,,0.684115,1,,,,,,146,WORD,UN,33,garlic,COUPLE,m,,,,,,0.076744249,-0.42801378,0,0,0,,0,315,315,145,1,
,,,,,,,,,,,,,,,,,,5ef3723b50bced0c4a711686,2020-08-10_12h18.41.167,lexical_decision_task_MP,2020.1.3,MacIntel,60,,z,1,0.638285,,,,,,,,0.638285,1,,,,,,478,NW,UN,50,lobush,ACRISE,z,,,,,,0.076744249,-0.42801378,0,0,0,,0,316,316,477,1,
,,,,,,,,,,,,,,,,,,5ef3723b50bced0c4a711686,2020-08-10_12h18.41.167,lexical_decision_task_MP,2020.1.3,MacIntel,60,,z,1,0.807625,,,,,,,,0.807625,1,,,,,,477,NW,UN,50,acrise,PHOTIE,z,,,,,,0.076744249,-0.42801378,0,0,0,,0,317,317,476,1,
,,,,,,,,,,,,,,,,,,5ef3723b50bced0c4a711686,2020-08-10_12h18.41.167,lexical_decision_task_MP,2020.1.3,MacIntel,60,,m,1,0.7168,,,,,,,,0.7168,1,,,,,,183,WORD,UN,50,sleazy,MILDEW,m,,,,,,0.076744249,-0.42801378,0,0,0,,0,318,318,182,1,
,,,,,,,,,,,,,,,,,,5ef3723b50bced0c4a711686,2020-08-10_12h18.41.167,lexical_decision_task_MP,2020.1.3,MacIntel,60,,z,1,0.792115,,,,,,,,0.792115,1,,,,,,350,NW,"ID",50,nagurs,NAGURS,z,,,,,,0.076744249,-0.42801378,0,0,0,,0,319,319,349,1,
,,,,,,,,,,,,,,,,,,5ef3723b50bced0c4a711686,2020-08-10_12h18.41.167,lexical_decision_task_MP,2020.1.3,MacIntel,60,,z,1,0.753245,,,,,,,,0.753245,1,,,,,,353,NW,"ID",50,clurey,CLUREY,z,,,,,,0.076744249,-0.42801378,0,0,0,,0,320,320,352,1,
,,,,,,,,,,,,,,,,,,5ef3723b50bced0c4a711686,2020-08-10_12h18.41.167,lexical_decision_task_MP,2020.1.3,MacIntel,60,,z,1,0.598475,,,,,,,,0.598475,1,,,,,,376,NW,UN,33,sliant,IGUARE,z,,,,,,0.076744249,-0.42801378,0,0,0,,0,321,321,375,1,
,,,,,,,,,,,,,,,,,,5ef3723b50bced0c4a711686,2020-08-10_12h18.41.167,lexical_decision_task_MP,2020.1.3,MacIntel,60,,m,1,0.53971,,,,,,,,0.53971,1,,,,,,7,WORD,"ID",33,anchor,ANCHOR,m,,,,,,0.076744249,-0.42801378,0,0,0,,0,322,322,6,1,
,,,,,,,,,,,,,,,,,,5ef3723b50bced0c4a711686,2020-08-10_12h18.41.167,lexical_decision_task_MP,2020.1.3,MacIntel,60,,z,1,0.573445,,,,,,,,0.573445,1,,,,,,327,NW,"ID",50,plenac,PLENAC,z,,,,,,0.076744249,-0.42801378,0,0,0,,0,323,323,326,1,
,,,,,,,,,,,,,,,,,,5ef3723b50bced0c4a711686,2020-08-10_12h18.41.167,lexical_decision_task_MP,2020.1.3,MacIntel,60,,m,1,0.55931,,,,,,,,0.55931,1,,,,,,181,WORD,UN,50,winter,GLANCE,m,,,,,,0.076744249,-0.42801378,0,0,0,,0,324,324,180,1,
,,,,,,,,,,,,,,,,,,5ef3723b50bced0c4a711686,2020-08-10_12h18.41.167,lexical_decision_task_MP,2020.1.3,MacIntel,60,,z,1,0.68944,,,,,,,,0.68944,1,,,,,,243,NW,"ID",33,musied,MUSIED,z,,,,,,0.076744249,-0.42801378,0,0,0,,0,325,325,242,1,
,,,,,,,,,,,,,,,,,,5ef3723b50bced0c4a711686,2020-08-10_12h18.41.167,lexical_decision_task_MP,2020.1.3,MacIntel,60,,z,1,0.606,,,,,,,,0.606,1,,,,,,343,NW,"ID",50,aimosy,AIMOSY,z,,,,,,0.076744249,-0.42801378,0,0,0,,0,326,326,342,1,
,,,,,,,,,,,,,,,,,,5ef3723b50bced0c4a711686,2020-08-10_12h18.41.167,lexical_decision_task_MP,2020.1.3,MacIntel,60,,z,1,0.820635,,,,,,,,0.820635,1,,,,,,242,NW,"ID",33,unwert,UNWERT,z,,,,,,0.076744249,-0.42801378,0,0,0,,0,327,327,241,1,
,,,,,,,,,,,,,,,,,,5ef3723b50bced0c4a711686,2020-08-10_12h18.41.167,lexical_decision_task_MP,2020.1.3,MacIntel,60,,m,1,0.572535,,,,,,,,0.572535,1,,,,,,29,WORD,"ID",33,sketch,SKETCH,m,,,,,,0.076744249,-0.42801378,0,0,0,,0,328,328,28,1,
,,,,,,,,,,,,,,,,,,5ef3723b50bced0c4a711686,2020-08-10_12h18.41.167,lexical_decision_task_MP,2020.1.3,MacIntel,60,,m,1,0.600035,,,,,,,,0.600035,1,,,,,,55,WORD,"ID",33,stroke,STROKE,m,,,,,,0.076744249,-0.42801378,0,0,0,,0,329,329,54,1,
,,,,,,,,,,,,,,,,,,5ef3723b50bced0c4a711686,2020-08-10_12h18.41.167,lexical_decision_task_MP,2020.1.3,MacIntel,60,,z,1,0.5831,,,,,,,,0.5831,1,,,,,,256,NW,"ID",33,inlors,INLORS,z,,,,,,0.076744249,-0.42801378,0,0,0,,0,330,330,255,1,
,,,,,,,,,,,,,,,,,,5ef3723b50bced0c4a711686,2020-08-10_12h18.41.167,lexical_decision_task_MP,2020.1.3,MacIntel,60,,z,1,1.07163,,,,,,,,1.07163,1,,,,,,284,NW,"ID",33,shaple,SHAPLE,z,,,,,,0.076744249,-0.42801378,0,0,0,,0,331,331,283,1,
,,,,,,,,,,,,,,,,,,5ef3723b50bced0c4a711686,2020-08-10_12h18.41.167,lexical_decision_task_MP,2020.1.3,MacIntel,60,,m,1,0.89811,,,,,,,,0.89811,1,,,,,,144,WORD,UN,33,parish,SPONGE,m,,,,,,0.076744249,-0.42801378,0,0,0,,0,332,332,143,1,
,,,,,,,,,,,,,,,,,,5ef3723b50bced0c4a711686,2020-08-10_12h18.41.167,lexical_decision_task_MP,2020.1.3,MacIntel,60,,m,1,0.67502,,,,,,,,0.67502,1,,,,,,172,WORD,UN,33,shower,PATROL,m,,,,,,0.076744249,-0.42801378,0,0,0,,0,333,333,171,1,
,,,,,,,,,,,,,,,,,,5ef3723b50bced0c4a711686,2020-08-10_12h18.41.167,lexical_decision_task_MP,2020.1.3,MacIntel,60,,z,1,0.60889,,,,,,,,0.60889,1,,,,,,370,NW,UN,33,geiloy,SLEACT,z,,,,,,0.076744249,-0.42801378,0,0,0,,0,334,334,369,1,
,,,,,,,,,,,,,,,,,,5ef3723b50bced0c4a711686,2020-08-10_12h18.41.167,lexical_decision_task_MP,2020.1.3,MacIntel,60,,m,1,0.58483,,,,,,,,0.58483,1,,,,,,198,WORD,UN,50,invoke,WICKED,m,,,,,,0.076744249,-0.42801378,0,0,0,,0,335,335,197,1,
,,,,,,,,,,,,,,,,,,5ef3723b50bced0c4a711686,2020-08-10_12h18.41.167,lexical_decision_task_MP,2020.1.3,MacIntel,60,,z,1,0.62474,,,,,,,,0.62474,1,,,,,,310,NW,"ID",50,daniet,DANIET,z,,,,,,0.076744249,-0.42801378,0,0,0,,0,336,336,309,1,
,,,,,,,,,,,,,,,,,,5ef3723b50bced0c4a711686,2020-08-10_12h18.41.167,lexical_decision_task_MP,2020.1.3,MacIntel,60,,m,1,0.56721,,,,,,,,0.56721,1,,,,,,203,WORD,UN,50,burden,PHRASE,m,,,,,,0.076744249,-0.42801378,0,0,0,,0,337,337,202,1,
,,,,,,,,,,,,,,,,,,5ef3723b50bced0c4a711686,2020-08-10_12h18.41.167,lexical_decision_task_MP,2020.1.3,MacIntel,60,,m,1,0.585845,,,,,,,,0.585845,1,,,,,,23,WORD,"ID",33,wealth,WEALTH,m,,,,,,0.076744249,-0.42801378,0,0,0,,0,338,338,22,1,
,,,,,,,,,,,,,,,,,,5ef3723b50bced0c4a711686,2020-08-10_12h18.41.167,lexical_decision_task_MP,2020.1.3,MacIntel,60,,m,1,0.565445,,,,,,,,0.565445,1,,,,,,174,WORD,UN,33,fabric,TURKEY,m,,,,,,0.076744249,-0.42801378,0,0,0,,0,339,339,173,1,
,,,,,,,,,,,,,,,,,,5ef3723b50bced0c4a711686,2020-08-10_12h18.41.167,lexical_decision_task_MP,2020.1.3,MacIntel,60,,z,1,0.63329,,,,,,,,0.63329,1,,,,,,315,NW,"ID",50,laston,LASTON,z,,,,,,0.076744249,-0.42801378,0,0,0,,0,340,340,314,1,
,,,,,,,,,,,,,,,,,,5ef3723b50bced0c4a711686,2020-08-10_12h18.41.167,lexical_decision_task_MP,2020.1.3,MacIntel,60,,m,1,0.569855,,,,,,,,0.569855,1,,,,,,107,WORD,"ID",50,slogan,SLOGAN,m,,,,,,0.076744249,-0.42801378,0,0,0,,0,341,341,106,1,
,,,,,,,,,,,,,,,,,,5ef3723b50bced0c4a711686,2020-08-10_12h18.41.167,lexical_decision_task_MP,2020.1.3,MacIntel,60,,m,1,0.68176,,,,,,,,0.68176,1,,,,,,126,WORD,UN,33,castle,ENOUGH,m,,,,,,0.076744249,-0.42801378,0,0,0,,0,342,342,125,1,
,,,,,,,,,,,,,,,,,,5ef3723b50bced0c4a711686,2020-08-10_12h18.41.167,lexical_decision_task_MP,2020.1.3,MacIntel,60,,z,1,1.06529,,,,,,,,1.06529,1,,,,,,462,NW,UN,50,kispel,ABSULT,z,,,,,,0.076744249,-0.42801378,0,0,0,,0,343,343,461,1,
,,,,,,,,,,,,,,,,,,5ef3723b50bced0c4a711686,2020-08-10_12h18.41.167,lexical_decision_task_MP,2020.1.3,MacIntel,60,,m,1,0.550745,,,,,,,,0.550745,1,,,,,,65,WORD,"ID",50,symbol,SYMBOL,m,,,,,,0.076744249,-0.42801378,0,0,0,,0,344,344,64,1,
,,,,,,,,,,,,,,,,,,5ef3723b50bced0c4a711686,2020-08-10_12h18.41.167,lexical_decision_task_MP,2020.1.3,MacIntel,60,,z,1,0.590215,,,,,,,,0.590215,1,,,,,,325,NW,"ID",50,thruse,THRUSE,z,,,,,,0.076744249,-0.42801378,0,0,0,,0,345,345,324,1,
,,,,,,,,,,,,,,,,,,5ef3723b50bced0c4a711686,2020-08-10_12h18.41.167,lexical_decision_task_MP,2020.1.3,MacIntel,60,,m,1,0.53595,,,,,,,,0.53595,1,,,,,,165,WORD,UN,33,starch,INVEST,m,,,,,,0.076744249,-0.42801378,0,0,0,,0,346,346,164,1,
,,,,,,,,,,,,,,,,,,5ef3723b50bced0c4a711686,2020-08-10_12h18.41.167,lexical_decision_task_MP,2020.1.3,MacIntel,60,,z,1,0.75423,,,,,,,,0.75423,1,,,,,,438,NW,UN,50,limpor,BAITCH,z,,,,,,0.076744249,-0.42801378,0,0,0,,0,347,347,437,1,
,,,,,,,,,,,,,,,,,,5ef3723b50bced0c4a711686,2020-08-10_12h18.41.167,lexical_decision_task_MP,2020.1.3,MacIntel,60,,z,1,0.77232,,,,,,,,0.77232,1,,,,,,362,NW,UN,33,breali,TIREAU,z,,,,,,0.076744249,-0.42801378,0,0,0,,0,348,348,361,1,
,,,,,,,,,,,,,,,,,,5ef3723b50bced0c4a711686,2020-08-10_12h18.41.167,lexical_decision_task_MP,2020.1.3,MacIntel,60,,m,1,0.758435,,,,,,,,0.758435,1,,,,,,145,WORD,UN,33,couple,PARISH,m,,,,,,0.076744249,-0.42801378,0,0,0,,0,349,349,144,1,
,,,,,,,,,,,,,,,,,,5ef3723b50bced0c4a711686,2020-08-10_12h18.41.167,lexical_decision_task_MP,2020.1.3,MacIntel,60,,z,1,0.63732,,,,,,,,0.63732,1,,,,,,271,NW,"ID",33,aubrid,AUBRID,z,,,,,,0.076744249,-0.42801378,0,0,0,,0,350,350,270,1,
,,,,,,,,,,,,,,,,,,5ef3723b50bced0c4a711686,2020-08-10_12h18.41.167,lexical_decision_task_MP,2020.1.3,MacIntel,60,,m,1,0.557015,,,,,,,,0.557015,1,,,,,,135,WORD,UN,33,chrome,IMPORT,m,,,,,,0.076744249,-0.42801378,0,0,0,,0,351,351,134,1,
,,,,,,,,,,,,,,,,,,5ef3723b50bced0c4a711686,2020-08-10_12h18.41.167,lexical_decision_task_MP,2020.1.3,MacIntel,60,,m,1,0.640505,,,,,,,,0.640505,1,,,,,,233,WORD,UN,50,clumsy,NATURE,m,,,,,,0.076744249,-0.42801378,0,0,0,,0,352,352,232,1,
,,,,,,,,,,,,,,,,,,5ef3723b50bced0c4a711686,2020-08-10_12h18.41.167,lexical_decision_task_MP,2020.1.3,MacIntel,60,,m,1,0.551385,,,,,,,,0.551385,1,,,,,,108,WORD,"ID",50,reckon,RECKON,m,,,,,,0.076744249,-0.42801378,0,0,0,,0,353,353,107,1,
,,,,,,,,,,,,,,,,,,5ef3723b50bced0c4a711686,2020-08-10_12h18.41.167,lexical_decision_task_MP,2020.1.3,MacIntel,60,,m,1,0.601915,,,,,,,,0.601915,1,,,,,,196,WORD,UN,50,stream,CREDIT,m,,,,,,0.076744249,-0.42801378,0,0,0,,0,354,354,195,1,
,,,,,,,,,,,,,,,,,,5ef3723b50bced0c4a711686,2020-08-10_12h18.41.167,lexical_decision_task_MP,2020.1.3,MacIntel,60,,z,1,0.61792,,,,,,,,0.61792,1,,,,,,400,NW,UN,33,mustil,WEAROX,z,,,,,,0.076744249,-0.42801378,0,0,0,,0,355,355,399,1,
,,,,,,,,,,,,,,,,,,5ef3723b50bced0c4a711686,2020-08-10_12h18.41.167,lexical_decision_task_MP,2020.1.3,MacIntel,60,,z,1,0.600965,,,,,,,,0.600965,1,,,,,,366,NW,UN,33,slique,TOSHEL,z,,,,,,0.076744249,-0.42801378,0,0,0,,0,356,356,365,1,
,,,,,,,,,,,,,,,,,,5ef3723b50bced0c4a711686,2020-08-10_12h18.41.167,lexical_decision_task_MP,2020.1.3,MacIntel,60,,m,1,0.566295,,,,,,,,0.566295,1,,,,,,129,WORD,UN,33,stupid,MARVEL,m,,,,,,0.076744249,-0.42801378,0,0,0,,0,357,357,128,1,
,,,,,,,,,,,,,,,,,,5ef3723b50bced0c4a711686,2020-08-10_12h18.41.167,lexical_decision_task_MP,2020.1.3,MacIntel,60,,m,1,0.61298,,,,,,,,0.61298,1,,,,,,39,WORD,"ID",33,insect,INSECT,m,,,,,,0.076744249,-0.42801378,0,0,0,,0,358,358,38,1,
,,,,,,,,,,,,,,,,,,5ef3723b50bced0c4a711686,2020-08-10_12h18.41.167,lexical_decision_task_MP,2020.1.3,MacIntel,60,,m,1,0.569415,,,,,,,,0.569415,1,,,,,,109,WORD,"ID",50,wonder,WONDER,m,,,,,,0.076744249,-0.42801378,0,0,0,,0,359,359,108,1,
,,,,,,,,,,,,,,,,,,5ef3723b50bced0c4a711686,2020-08-10_12h18.41.167,lexical_decision_task_MP,2020.1.3,MacIntel,60,,z,1,0.602075,,,,,,,,0.602075,1,,,,,,247,NW,"ID",33,blarge,BLARGE,z,,,,,,0.076744249,-0.42801378,0,0,0,,0,360,360,246,1,
,,,,,,,,,,,,,,,,,,5ef3723b50bced0c4a711686,2020-08-10_12h18.41.167,lexical_decision_task_MP,2020.1.3,MacIntel,60,,z,1,1.03344,,,,,,,,1.03344,1,,,,,,260,NW,"ID",33,unject,UNJECT,z,,,,,,0.076744249,-0.42801378,0,0,0,,0,361,361,259,1,
,,,,,,,,,,,,,,,,,,5ef3723b50bced0c4a711686,2020-08-10_12h18.41.167,lexical_decision_task_MP,2020.1.3,MacIntel,60,,z,1,0.56482,,,,,,,,0.56482,1,,,,,,367,NW,UN,33,hornal,SLIQUE,z,,,,,,0.076744249,-0.42801378,0,0,0,space,0,362,362,366,1,21.15033
,,,,,,,,,,,,,,,,,,5ef3723b50bced0c4a711686,2020-08-10_12h18.41.167,lexical_decision_task_MP,2020.1.3,MacIntel,60,,z,1,1.139015,,,,,,,,1.139015,1,,,,,,312,NW,"ID",50,nerawl,NERAWL,z,,,,,,0.076744249,-0.42801378,0,0,0,,0,363,363,311,1,
,,,,,,,,,,,,,,,,,,5ef3723b50bced0c4a711686,2020-08-10_12h18.41.167,lexical_decision_task_MP,2020.1.3,MacIntel,60,,z,1,0.69842,,,,,,,,0.69842,1,,,,,,314,NW,"ID",50,sprine,SPRINE,z,,,,,,0.076744249,-0.42801378,0,0,0,,0,364,364,313,1,
,,,,,,,,,,,,,,,,,,5ef3723b50bced0c4a711686,2020-08-10_12h18.41.167,lexical_decision_task_MP,2020.1.3,MacIntel,60,,m,0,0.8744,,,,,,,,0.8744,0,,,,,,313,NW,"ID",50,paurse,PAURSE,z,,,,,,0.076744249,-0.42801378,0,0,0,,0,365,365,312,1,
,,,,,,,,,,,,,,,,,,5ef3723b50bced0c4a711686,2020-08-10_12h18.41.167,lexical_decision_task_MP,2020.1.3,MacIntel,60,,z,1,0.773445,,,,,,,,0.773445,1,,,,,,380,NW,UN,33,huniek,CAVORY,z,,,,,,0.076744249,-0.42801378,0,0,0,,0,366,366,379,1,
,,,,,,,,,,,,,,,,,,5ef3723b50bced0c4a711686,2020-08-10_12h18.41.167,lexical_decision_task_MP,2020.1.3,MacIntel,60,,z,1,0.47068,,,,,,,,0.47068,1,,,,,,347,NW,"ID",50,kerift,KERIFT,z,,,,,,0.076744249,-0.42801378,0,0,0,,0,367,367,346,1,
,,,,,,,,,,,,,,,,,,5ef3723b50bced0c4a711686,2020-08-10_12h18.41.167,lexical_decision_task_MP,2020.1.3,MacIntel,60,,z,1,0.566915,,,,,,,,0.566915,1,,,,,,326,NW,"ID",50,iguade,IGUADE,z,,,,,,0.076744249,-0.42801378,0,0,0,,0,368,368,325,1,
,,,,,,,,,,,,,,,,,,5ef3723b50bced0c4a711686,2020-08-10_12h18.41.167,lexical_decision_task_MP,2020.1.3,MacIntel,60,,m,1,0.59116,,,,,,,,0.59116,1,,,,,,111,WORD,"ID",50,induce,INDUCE,m,,,,,,0.076744249,-0.42801378,0,0,0,,0,369,369,110,1,
,,,,,,,,,,,,,,,,,,5ef3723b50bced0c4a711686,2020-08-10_12h18.41.167,lexical_decision_task_MP,2020.1.3,MacIntel,60,,m,1,0.624935,,,,,,,,0.624935,1,,,,,,58,WORD,"ID",33,foster,FOSTER,m,,,,,,0.076744249,-0.42801378,0,0,0,,0,370,370,57,1,
,,,,,,,,,,,,,,,,,,5ef3723b50bced0c4a711686,2020-08-10_12h18.41.167,lexical_decision_task_MP,2020.1.3,MacIntel,60,,m,1,0.56019,,,,,,,,0.56019,1,,,,,,6,WORD,"ID",33,bundle,BUNDLE,m,,,,,,0.076744249,-0.42801378,0,0,0,,0,371,371,5,1,
,,,,,,,,,,,,,,,,,,5ef3723b50bced0c4a711686,2020-08-10_12h18.41.167,lexical_decision_task_MP,2020.1.3,MacIntel,60,,z,1,0.59721,,,,,,,,0.59721,1,,,,,,351,NW,"ID",50,tiesch,TIESCH,z,,,,,,0.076744249,-0.42801378,0,0,0,,0,372,372,350,1,
,,,,,,,,,,,,,,,,,,5ef3723b50bced0c4a711686,2020-08-10_12h18.41.167,lexical_decision_task_MP,2020.1.3,MacIntel,60,,m,1,0.616975,,,,,,,,0.616975,1,,,,,,186,WORD,UN,50,course,PORTAL,m,,,,,,0.076744249,-0.42801378,0,0,0,,0,373,373,185,1,
,,,,,,,,,,,,,,,,,,5ef3723b50bced0c4a711686,2020-08-10_12h18.41.167,lexical_decision_task_MP,2020.1.3,MacIntel,60,,m,1,0.553175,,,,,,,,0.553175,1,,,,,,49,WORD,"ID",33,survey,SURVEY,m,,,,,,0.076744249,-0.42801378,0,0,0,,0,374,374,48,1,
,,,,,,,,,,,,,,,,,,5ef3723b50bced0c4a711686,2020-08-10_12h18.41.167,lexical_decision_task_MP,2020.1.3,MacIntel,60,,m,1,0.826565,,,,,,,,0.826565,1,,,,,,207,WORD,UN,50,hockey,WREATH,m,,,,,,0.076744249,-0.42801378,0,0,0,,0,375,375,206,1,
,,,,,,,,,,,,,,,,,,5ef3723b50bced0c4a711686,2020-08-10_12h18.41.167,lexical_decision_task_MP,2020.1.3,MacIntel,60,,m,1,0.55353,,,,,,,,0.55353,1,,,,,,106,WORD,"ID",50,ransom,RANSOM,m,,,,,,0.076744249,-0.42801378,0,0,0,,0,376,376,105,1,
,,,,,,,,,,,,,,,,,,5ef3723b50bced0c4a711686,2020-08-10_12h18.41.167,lexical_decision_task_MP,2020.1.3,MacIntel,60,,m,1,0.67518,,,,,,,,0.67518,1,,,,,,20,WORD,"ID",33,breast,BREAST,m,,,,,,0.076744249,-0.42801378,0,0,0,,0,377,377,19,1,
,,,,,,,,,,,,,,,,,,5ef3723b50bced0c4a711686,2020-08-10_12h18.41.167,lexical_decision_task_MP,2020.1.3,MacIntel,60,,z,1,0.602105,,,,,,,,0.602105,1,,,,,,417,NW,UN,33,suidle,EAROUD,z,,,,,,0.076744249,-0.42801378,0,0,0,,0,378,378,416,1,
,,,,,,,,,,,,,,,,,,5ef3723b50bced0c4a711686,2020-08-10_12h18.41.167,lexical_decision_task_MP,2020.1.3,MacIntel,60,,m,1,0.602195,,,,,,,,0.602195,1,,,,,,91,WORD,"ID",50,expand,EXPAND,m,,,,,,0.076744249,-0.42801378,0,0,0,,0,379,379,90,1,
,,,,,,,,,,,,,,,,,,5ef3723b50bced0c4a711686,2020-08-10_12h18.41.167,lexical_decision_task_MP,2020.1.3,MacIntel,60,,z,1,0.62537,,,,,,,,0.62537,1,,,,,,471,NW,UN,50,cigney,NOBEST,z,,,,,,0.076744249,-0.42801378,0,0,0,,0,380,380,470,1,
,,,,,,,,,,,,,,,,,,5ef3723b50bced0c4a711686,2020-08-10_12h18.41.167,lexical_decision_task_MP,2020.1.3,MacIntel,60,,m,1,0.58348,,,,,,,,0.58348,1,,,,,,237,WORD,UN,50,seldom,POSTER,m,,,,,,0.076744249,-0.42801378,0,0,0,,0,381,381,236,1,
,,,,,,,,,,,,,,,,,,5ef3723b50bced0c4a711686,2020-08-10_12h18.41.167,lexical_decision_task_MP,2020.1.3,MacIntel,60,,z,1,0.750015,,,,,,,,0.750015,1,,,,,,281,NW,"ID",33,melaty,MELATY,z,,,,,,0.076744249,-0.42801378,0,0,0,,0,382,382,280,1,
,,,,,,,,,,,,,,,,,,5ef3723b50bced0c4a711686,2020-08-10_12h18.41.167,lexical_decision_task_MP,2020.1.3,MacIntel,60,,z,1,0.58218,,,,,,,,0.58218,1,,,,,,241,NW,"ID",33,smenco,SMENCO,z,,,,,,0.076744249,-0.42801378,0,0,0,,0,383,383,240,1,
,,,,,,,,,,,,,,,,,,5ef3723b50bced0c4a711686,2020-08-10_12h18.41.167,lexical_decision_task_MP,2020.1.3,MacIntel,60,,m,1,0.6631,,,,,,,,0.6631,1,,,,,,160,WORD,UN,33,dragon,VIOLET,m,,,,,,0.076744249,-0.42801378,0,0,0,,0,384,384,159,1,
,,,,,,,,,,,,,,,,,,5ef3723b50bced0c4a711686,2020-08-10_12h18.41.167,lexical_decision_task_MP,2020.1.3,MacIntel,60,,m,1,0.63326,,,,,,,,0.63326,1,,,,,,81,WORD,"ID",50,friend,FRIEND,m,,,,,,0.076744249,-0.42801378,0,0,0,,0,385,385,80,1,
,,,,,,,,,,,,,,,,,,5ef3723b50bced0c4a711686,2020-08-10_12h18.41.167,lexical_decision_task_MP,2020.1.3,MacIntel,60,,z,1,0.55151,,,,,,,,0.55151,1,,,,,,340,NW,"ID",50,fiatch,FIATCH,z,,,,,,0.076744249,-0.42801378,0,0,0,,0,386,386,339,1,
,,,,,,,,,,,,,,,,,,5ef3723b50bced0c4a711686,2020-08-10_12h18.41.167,lexical_decision_task_MP,2020.1.3,MacIntel,60,,m,0,0.62429,,,,,,,,0.62429,0,,,,,,303,NW,"ID",50,fiream,FIREAM,z,,,,,,0.076744249,-0.42801378,0,0,0,,0,387,387,302,1,
,,,,,,,,,,,,,,,,,,5ef3723b50bced0c4a711686,2020-08-10_12h18.41.167,lexical_decision_task_MP,2020.1.3,MacIntel,60,,m,1,1.09997,,,,,,,,1.09997,1,,,,,,222,WORD,UN,50,casino,HINDER,m,,,,,,0.076744249,-0.42801378,0,0,0,,0,388,388,221,1,
,,,,,,,,,,,,,,,,,,5ef3723b50bced0c4a711686,2020-08-10_12h18.41.167,lexical_decision_task_MP,2020.1.3,MacIntel,60,,z,1,1.12379,,,,,,,,1.12379,1,,,,,,373,NW,UN,33,injore,BIGENT,z,,,,,,0.076744249,-0.42801378,0,0,0,,0,389,389,372,1,
,,,,,,,,,,,,,,,,,,5ef3723b50bced0c4a711686,2020-08-10_12h18.41.167,lexical_decision_task_MP,2020.1.3,MacIntel,60,,m,1,0.532145,,,,,,,,0.532145,1,,,,,,119,WORD,"ID",50,spider,SPIDER,m,,,,,,0.076744249,-0.42801378,0,0,0,,0,390,390,118,1,
,,,,,,,,,,,,,,,,,,5ef3723b50bced0c4a711686,2020-08-10_12h18.41.167,lexical_decision_task_MP,2020.1.3,MacIntel,60,,m,1,0.550135,,,,,,,,0.550135,1,,,,,,205,WORD,UN,50,tailor,LOUNGE,m,,,,,,0.076744249,-0.42801378,0,0,0,,0,391,391,204,1,
,,,,,,,,,,,,,,,,,,5ef3723b50bced0c4a711686,2020-08-10_12h18.41.167,lexical_decision_task_MP,2020.1.3,MacIntel,60,,z,1,0.660235,,,,,,,,0.660235,1,,,,,,264,NW,"ID",33,vackel,VACKEL,z,,,,,,0.076744249,-0.42801378,0,0,0,,0,392,392,263,1,
,,,,,,,,,,,,,,,,,,5ef3723b50bced0c4a711686,2020-08-10_12h18.41.167,lexical_decision_task_MP,2020.1.3,MacIntel,60,,m,1,0.673535,,,,,,,,0.673535,1,,,,,,16,WORD,"ID",33,faucet,FAUCET,m,,,,,,0.076744249,-0.42801378,0,0,0,,0,393,393,15,1,
,,,,,,,,,,,,,,,,,,5ef3723b50bced0c4a711686,2020-08-10_12h18.41.167,lexical_decision_task_MP,2020.1.3,MacIntel,60,,m,1,0.614735,,,,,,,,0.614735,1,,,,,,236,WORD,UN,50,poster,PIRATE,m,,,,,,0.076744249,-0.42801378,0,0,0,,0,394,394,235,1,
,,,,,,,,,,,,,,,,,,5ef3723b50bced0c4a711686,2020-08-10_12h18.41.167,lexical_decision_task_MP,2020.1.3,MacIntel,60,,z,1,0.95737,,,,,,,,0.95737,1,,,,,,342,NW,"ID",50,randow,RANDOW,z,,,,,,0.076744249,-0.42801378,0,0,0,,0,395,395,341,1,
,,,,,,,,,,,,,,,,,,5ef3723b50bced0c4a711686,2020-08-10_12h18.41.167,lexical_decision_task_MP,2020.1.3,MacIntel,60,,m,1,0.66379,,,,,,,,0.66379,1,,,,,,32,WORD,"ID",33,buckle,BUCKLE,m,,,,,,0.076744249,-0.42801378,0,0,0,,0,396,396,31,1,
,,,,,,,,,,,,,,,,,,5ef3723b50bced0c4a711686,2020-08-10_12h18.41.167,lexical_decision_task_MP,2020.1.3,MacIntel,60,,z,1,0.757195,,,,,,,,0.757195,1,,,,,,253,NW,"ID",33,resait,RESAIT,z,,,,,,0.076744249,-0.42801378,0,0,0,,0,397,397,252,1,
,,,,,,,,,,,,,,,,,,5ef3723b50bced0c4a711686,2020-08-10_12h18.41.167,lexical_decision_task_MP,2020.1.3,MacIntel,60,,m,1,0.81723,,,,,,,,0.81723,1,,,,,,204,WORD,UN,50,lounge,BURDEN,m,,,,,,0.076744249,-0.42801378,0,0,0,,0,398,398,203,1,
