counterbalancing_condition,instr_done_keyboard.keys,instr_done_touch.x,instr_done_touch.y,instr_done_touch.leftButton,instr_done_touch.midButton,instr_done_touch.rightButton,instr_done_touch.clicked_name,instruction_pages.thisRepN,instruction_pages.thisTrialN,instruction_pages.thisN,instruction_pages.thisIndex,instruction_pages.ran,pageN,phase,instruct_text,has_image,instruct_image,participant,date,expName,psychopyVersion,OS,frameRate,response.keys,response.corr,touch_resp.x,touch_resp.y,touch_resp.leftButton,touch_resp.midButton,touch_resp.rightButton,touch_resp.time,touch_resp.clicked_name,rt,corr,practice_trials.thisRepN,practice_trials.thisTrialN,practice_trials.thisN,practice_trials.thisIndex,practice_trials.ran,TrialID,StimulusType,Condition,PrimeDuration,Prime,Target,corrAns,response.rt,instr_done_keyboard.rt,end_of_practice_trials_pages.thisRepN,end_of_practice_trials_pages.thisTrialN,end_of_practice_trials_pages.thisN,end_of_practice_trials_pages.thisIndex,end_of_practice_trials_pages.ran,break_done_touch.x,break_done_touch.y,break_done_touch.leftButton,break_done_touch.midButton,break_done_touch.rightButton,break_done_keyboard.keys,trials.thisRepN,trials.thisTrialN,trials.thisN,trials.thisIndex,trials.ran,break_done_keyboard.rt
3,,0.09765625,-0.390625,1,0,0,instr_done_button,0,0,0,0,1,1,instructions,"INSTRUCTIONS
At the start of each trial, look at the hash marks (######) in the center of the screen. After a moment, a string of letters will appear. Your task is to indicate if the letter string forms a word or not (i.e., if it is a nonword). For example, AUTHOR is a word while AUTHON is a nonword.

Press the space bar or touch the button below to continue.",0,,5efc7246abf5130132092e31,2020-08-10_19h31.18.300,lexical_decision_task_MP,2020.1.3,Win32,60,,,,,,,,,,,,,,,,,,,,,,,,,,,,,,,,,,,,,,,,,,
,,0.09765625,-0.390625,1,0,0,instr_done_button,0,1,1,1,1,2,instructions,"If your device has a keyboard, press the 'Z' key for nonwords and the 'M' key for words.





Press the space bar or touch the button below to continue.",1,keyboard-example.gif,5efc7246abf5130132092e31,2020-08-10_19h31.18.300,lexical_decision_task_MP,2020.1.3,Win32,60,,,,,,,,,,,,,,,,,,,,,,,,,,,,,,,,,,,,,,,,,,
,,0.09765625,-0.390625,1,0,0,instr_done_button,0,2,2,2,1,3,instructions,"If you are using a touchscreen only device, use the buttons on the screen. Do not use the mouse.





Press the space bar or touch the button below to continue.",1,touchscreen-example.gif,5efc7246abf5130132092e31,2020-08-10_19h31.18.300,lexical_decision_task_MP,2020.1.3,Win32,60,,,,,,,,,,,,,,,,,,,,,,,,,,,,,,,,,,,,,,,,,,
,,0.09765625,-0.390625,1,0,0,instr_done_button,0,3,3,3,1,4,instructions,"It is very important that you respond as quickly and accurately as possible, as each letter string will only be on the screen for two seconds. If you do not respond within this time, the message 'Too slow!' will be displayed and the experiment will progress to the next letter string. The first 20 trials will be practice trials and you will receive feedback on your answers. 

Press the space bar or touch the button below to start the practice trials.",0,,5efc7246abf5130132092e31,2020-08-10_19h31.18.300,lexical_decision_task_MP,2020.1.3,Win32,60,,,,,,,,,,,,,,,,,,,,,,,,,,,,,,,,,,,,,,,,,,
,,,,,,,,,,,,,,,,,,5efc7246abf5130132092e31,2020-08-10_19h31.18.300,lexical_decision_task_MP,2020.1.3,Win32,60,,0,,,,,,,,,-1,0,0,0,14,1,1015,NW,UN,50,miaber,THRALE,z,,,,,,,,,,,,,,,,,,,
,,,,,,,,,,,,,,,,,,5efc7246abf5130132092e31,2020-08-10_19h31.18.300,lexical_decision_task_MP,2020.1.3,Win32,60,m,1,,,,,,,,1.06715,1,0,1,1,0,1,1001,WORD,"ID",33,utopia,UTOPIA,m,1.06715,,,,,,,,,,,,,,,,,,
,,,,,,,,,,,,,,,,,,5efc7246abf5130132092e31,2020-08-10_19h31.18.300,lexical_decision_task_MP,2020.1.3,Win32,60,z,1,,,,,,,,0.66623,1,0,2,2,11,1,1012,NW,"ID",50,rashet,RASHET,z,0.66623,,,,,,,,,,,,,,,,,,
,,,,,,,,,,,,,,,,,,5efc7246abf5130132092e31,2020-08-10_19h31.18.300,lexical_decision_task_MP,2020.1.3,Win32,60,m,1,,,,,,,,0.70116,1,0,3,3,2,1,1003,WORD,"ID",50,almond,ALMOND,m,0.70116,,,,,,,,,,,,,,,,,,
,,,,,,,,,,,,,,,,,,5efc7246abf5130132092e31,2020-08-10_19h31.18.300,lexical_decision_task_MP,2020.1.3,Win32,60,m,1,,,,,,,,0.70802,1,0,4,4,1,1,1002,WORD,"ID",33,adjust,ADJUST,m,0.70802,,,,,,,,,,,,,,,,,,
,,,,,,,,,,,,,,,,,,5efc7246abf5130132092e31,2020-08-10_19h31.18.300,lexical_decision_task_MP,2020.1.3,Win32,60,z,1,,,,,,,,0.56369,1,0,5,5,9,1,1010,NW,"ID",33,fariny,FARINY,z,0.56369,,,,,,,,,,,,,,,,,,
,,,,,,,,,,,,,,,,,,5efc7246abf5130132092e31,2020-08-10_19h31.18.300,lexical_decision_task_MP,2020.1.3,Win32,60,m,1,,,,,,,,0.472575,1,0,6,6,7,1,1008,WORD,UN,50,hurdle,VOLUME,m,0.472575,,,,,,,,,,,,,,,,,,
,,,,,,,,,,,,,,,,,,5efc7246abf5130132092e31,2020-08-10_19h31.18.300,lexical_decision_task_MP,2020.1.3,Win32,60,m,1,,,,,,,,0.49619,1,0,7,7,3,1,1004,WORD,"ID",50,matrix,MATRIX,m,0.49619,,,,,,,,,,,,,,,,,,
,,,,,,,,,,,,,,,,,,5efc7246abf5130132092e31,2020-08-10_19h31.18.300,lexical_decision_task_MP,2020.1.3,Win32,60,m,1,,,,,,,,0.585915,1,0,8,8,6,1,1007,WORD,UN,50,tropic,ZOMBIE,m,0.585915,,,,,,,,,,,,,,,,,,
,,,,,,,,,,,,,,,,,,5efc7246abf5130132092e31,2020-08-10_19h31.18.300,lexical_decision_task_MP,2020.1.3,Win32,60,m,1,,,,,,,,0.597445,1,0,9,9,4,1,1005,WORD,UN,33,abound,SQUEAK,m,0.597445,,,,,,,,,,,,,,,,,,
,,,,,,,,,,,,,,,,,,5efc7246abf5130132092e31,2020-08-10_19h31.18.300,lexical_decision_task_MP,2020.1.3,Win32,60,z,1,,,,,,,,0.717875,1,0,10,10,10,1,1011,NW,"ID",50,inlade,INLADE,z,0.717875,,,,,,,,,,,,,,,,,,
,,,,,,,,,,,,,,,,,,5efc7246abf5130132092e31,2020-08-10_19h31.18.300,lexical_decision_task_MP,2020.1.3,Win32,60,m,1,,,,,,,,0.531,1,0,11,11,5,1,1006,WORD,UN,33,frenzy,OBTAIN,m,0.531,,,,,,,,,,,,,,,,,,
,,,,,,,,,,,,,,,,,,5efc7246abf5130132092e31,2020-08-10_19h31.18.300,lexical_decision_task_MP,2020.1.3,Win32,60,z,1,,,,,,,,0.66276,1,0,12,12,15,1,1016,NW,UN,50,mushed,WHAISE,z,0.66276,,,,,,,,,,,,,,,,,,
,,,,,,,,,,,,,,,,,,5efc7246abf5130132092e31,2020-08-10_19h31.18.300,lexical_decision_task_MP,2020.1.3,Win32,60,z,1,,,,,,,,0.57361,1,0,13,13,13,1,1014,NW,UN,33,winfer,ROUPET,z,0.57361,,,,,,,,,,,,,,,,,,
,,,,,,,,,,,,,,,,,,5efc7246abf5130132092e31,2020-08-10_19h31.18.300,lexical_decision_task_MP,2020.1.3,Win32,60,m,0,,,,,,,,0.54514,0,0,14,14,8,1,1009,NW,"ID",33,aslert,ASLERT,z,0.54514,,,,,,,,,,,,,,,,,,
,,,,,,,,,,,,,,,,,,5efc7246abf5130132092e31,2020-08-10_19h31.18.300,lexical_decision_task_MP,2020.1.3,Win32,60,z,1,,,,,,,,0.61522,1,0,15,15,12,1,1013,NW,UN,33,adveil,SPRINY,z,0.61522,,,,,,,,,,,,,,,,,,
,space,0.59765625,0.09765625,0,0,0,,,,,,,1,end_of_practice,"You have completed the practice trials. During the experimental trials, you will not receive feedback, but it is very important that you respond as quickly and accurately as possible. 
Before you begin, please ensure that you are in a comfortable and quiet location and will not be disturbed for about 15 minutes, as we cannot use your data if you do not complete all the trials. 
There will be opportunities to take breaks at regular intervals during the experiment. When you are ready to start the experimental trials, please press space or touch the button below.",,,5efc7246abf5130132092e31,2020-08-10_19h31.18.300,lexical_decision_task_MP,2020.1.3,Win32,60,,,,,,,,,,,,,,,,,,,,,,,,,126.0026,0,0,0,0,1,,,,,,,,,,,,
,,,,,,,,,,,,,,,,,,5efc7246abf5130132092e31,2020-08-10_19h31.18.300,lexical_decision_task_MP,2020.1.3,Win32,60,m,1,,,,,,,,0.54186,1,,,,,,39,WORD,UN,50,convey,INSECT,m,0.54186,,,,,,,0.59765625,0.09765625,0,0,0,,0,0,0,218,1,
,,,,,,,,,,,,,,,,,,5efc7246abf5130132092e31,2020-08-10_19h31.18.300,lexical_decision_task_MP,2020.1.3,Win32,60,m,1,,,,,,,,0.88533,1,,,,,,50,WORD,UN,50,hungry,SNATCH,m,0.88533,,,,,,,0.59765625,0.09765625,0,0,0,,0,1,1,229,1,
,,,,,,,,,,,,,,,,,,5efc7246abf5130132092e31,2020-08-10_19h31.18.300,lexical_decision_task_MP,2020.1.3,Win32,60,m,1,,,,,,,,0.82316,1,,,,,,88,WORD,"ID",33,hunger,HUNGER,m,0.82316,,,,,,,0.59765625,0.09765625,0,0,0,,0,2,2,27,1,
,,,,,,,,,,,,,,,,,,5efc7246abf5130132092e31,2020-08-10_19h31.18.300,lexical_decision_task_MP,2020.1.3,Win32,60,z,1,,,,,,,,0.62714,1,,,,,,279,NW,UN,50,curbol,CELOND,z,0.62714,,,,,,,0.59765625,0.09765625,0,0,0,,0,3,3,458,1,
,,,,,,,,,,,,,,,,,,5efc7246abf5130132092e31,2020-08-10_19h31.18.300,lexical_decision_task_MP,2020.1.3,Win32,60,m,1,,,,,,,,0.48271,1,,,,,,193,WORD,UN,33,mildew,OBJECT,m,0.48271,,,,,,,0.59765625,0.09765625,0,0,0,,0,4,4,132,1,
,,,,,,,,,,,,,,,,,,5efc7246abf5130132092e31,2020-08-10_19h31.18.300,lexical_decision_task_MP,2020.1.3,Win32,60,z,1,,,,,,,,0.55316,1,,,,,,291,NW,UN,50,ablint,PRETCH,z,0.55316,,,,,,,0.59765625,0.09765625,0,0,0,,0,5,5,470,1,
,,,,,,,,,,,,,,,,,,5efc7246abf5130132092e31,2020-08-10_19h31.18.300,lexical_decision_task_MP,2020.1.3,Win32,60,z,1,,,,,,,,0.57737,1,,,,,,365,NW,"ID",50,guairt,GUAIRT,z,0.57737,,,,,,,0.59765625,0.09765625,0,0,0,,0,6,6,304,1,
,,,,,,,,,,,,,,,,,,5efc7246abf5130132092e31,2020-08-10_19h31.18.300,lexical_decision_task_MP,2020.1.3,Win32,60,z,1,,,,,,,,0.50262,1,,,,,,300,NW,UN,50,smenco,YARION,z,0.50262,,,,,,,0.59765625,0.09765625,0,0,0,,0,7,7,479,1,
,,,,,,,,,,,,,,,,,,5efc7246abf5130132092e31,2020-08-10_19h31.18.300,lexical_decision_task_MP,2020.1.3,Win32,60,z,1,,,,,,,,0.58081,1,,,,,,414,NW,"ID",50,serbol,SERBOL,z,0.58081,,,,,,,0.59765625,0.09765625,0,0,0,,0,8,8,353,1,
,,,,,,,,,,,,,,,,,,5efc7246abf5130132092e31,2020-08-10_19h31.18.300,lexical_decision_task_MP,2020.1.3,Win32,60,z,1,,,,,,,,0.63248,1,,,,,,436,NW,UN,33,snapel,FRUTAN,z,0.63248,,,,,,,0.59765625,0.09765625,0,0,0,,0,9,9,375,1,
,,,,,,,,,,,,,,,,,,5efc7246abf5130132092e31,2020-08-10_19h31.18.300,lexical_decision_task_MP,2020.1.3,Win32,60,z,1,,,,,,,,0.57513,1,,,,,,432,NW,UN,33,drance,LUNKER,z,0.57513,,,,,,,0.59765625,0.09765625,0,0,0,,0,10,10,371,1,
,,,,,,,,,,,,,,,,,,5efc7246abf5130132092e31,2020-08-10_19h31.18.300,lexical_decision_task_MP,2020.1.3,Win32,60,z,1,,,,,,,,0.46995,1,,,,,,415,NW,"ID",50,higsta,HIGSTA,z,0.46995,,,,,,,0.59765625,0.09765625,0,0,0,,0,11,11,354,1,
,,,,,,,,,,,,,,,,,,5efc7246abf5130132092e31,2020-08-10_19h31.18.300,lexical_decision_task_MP,2020.1.3,Win32,60,z,1,,,,,,,,0.5549,1,,,,,,465,NW,UN,33,bafent,WHIVEX,z,0.5549,,,,,,,0.59765625,0.09765625,0,0,0,,0,12,12,404,1,
,,,,,,,,,,,,,,,,,,5efc7246abf5130132092e31,2020-08-10_19h31.18.300,lexical_decision_task_MP,2020.1.3,Win32,60,z,1,,,,,,,,0.66478,1,,,,,,352,NW,"ID",33,tringe,TRINGE,z,0.66478,,,,,,,0.59765625,0.09765625,0,0,0,,0,13,13,291,1,
,,,,,,,,,,,,,,,,,,5efc7246abf5130132092e31,2020-08-10_19h31.18.300,lexical_decision_task_MP,2020.1.3,Win32,60,m,1,,,,,,,,0.68546,1,,,,,,181,WORD,UN,33,winter,GLANCE,m,0.68546,,,,,,,0.59765625,0.09765625,0,0,0,,0,14,14,120,1,
,,,,,,,,,,,,,,,,,,5efc7246abf5130132092e31,2020-08-10_19h31.18.300,lexical_decision_task_MP,2020.1.3,Win32,60,m,1,,,,,,,,0.444345,1,,,,,,148,WORD,"ID",50,custom,CUSTOM,m,0.444345,,,,,,,0.59765625,0.09765625,0,0,0,,0,15,15,87,1,
,,,,,,,,,,,,,,,,,,5efc7246abf5130132092e31,2020-08-10_19h31.18.300,lexical_decision_task_MP,2020.1.3,Win32,60,z,1,,,,,,,,0.56901,1,,,,,,290,NW,UN,50,pretch,SPLINO,z,0.56901,,,,,,,0.59765625,0.09765625,0,0,0,,0,16,16,469,1,
,,,,,,,,,,,,,,,,,,5efc7246abf5130132092e31,2020-08-10_19h31.18.300,lexical_decision_task_MP,2020.1.3,Win32,60,z,1,,,,,,,,0.554365,1,,,,,,412,NW,"ID",50,jiluer,JILUER,z,0.554365,,,,,,,0.59765625,0.09765625,0,0,0,,0,17,17,351,1,
,,,,,,,,,,,,,,,,,,5efc7246abf5130132092e31,2020-08-10_19h31.18.300,lexical_decision_task_MP,2020.1.3,Win32,60,z,1,,,,,,,,0.53537,1,,,,,,274,NW,UN,50,sleirt,FUMBLO,z,0.53537,,,,,,,0.59765625,0.09765625,0,0,0,,0,18,18,453,1,
,,,,,,,,,,,,,,,,,,5efc7246abf5130132092e31,2020-08-10_19h31.18.300,lexical_decision_task_MP,2020.1.3,Win32,60,z,1,,,,,,,,0.54013,1,,,,,,287,NW,UN,50,yaceup,NYMBEL,z,0.54013,,,,,,,0.59765625,0.09765625,0,0,0,,0,19,19,466,1,
,,,,,,,,,,,,,,,,,,5efc7246abf5130132092e31,2020-08-10_19h31.18.300,lexical_decision_task_MP,2020.1.3,Win32,60,z,1,,,,,,,,0.88575,1,,,,,,413,NW,"ID",50,equats,EQUATS,z,0.88575,,,,,,,0.59765625,0.09765625,0,0,0,,0,20,20,352,1,
,,,,,,,,,,,,,,,,,,5efc7246abf5130132092e31,2020-08-10_19h31.18.300,lexical_decision_task_MP,2020.1.3,Win32,60,m,1,,,,,,,,0.67394,1,,,,,,64,WORD,"ID",33,throne,THRONE,m,0.67394,,,,,,,0.59765625,0.09765625,0,0,0,,0,21,21,3,1,
,,,,,,,,,,,,,,,,,,5efc7246abf5130132092e31,2020-08-10_19h31.18.300,lexical_decision_task_MP,2020.1.3,Win32,60,z,1,,,,,,,,0.654225,1,,,,,,250,NW,UN,50,lupict,MILTED,z,0.654225,,,,,,,0.59765625,0.09765625,0,0,0,,0,22,22,429,1,
,,,,,,,,,,,,,,,,,,5efc7246abf5130132092e31,2020-08-10_19h31.18.300,lexical_decision_task_MP,2020.1.3,Win32,60,z,1,,,,,,,,0.6641,1,,,,,,249,NW,UN,50,milted,BATROL,z,0.6641,,,,,,,0.59765625,0.09765625,0,0,0,,0,23,23,428,1,
,,,,,,,,,,,,,,,,,,5efc7246abf5130132092e31,2020-08-10_19h31.18.300,lexical_decision_task_MP,2020.1.3,Win32,60,m,1,,,,,,,,0.56287,1,,,,,,49,WORD,UN,50,snatch,SURVEY,m,0.56287,,,,,,,0.59765625,0.09765625,0,0,0,,0,24,24,228,1,
,,,,,,,,,,,,,,,,,,5efc7246abf5130132092e31,2020-08-10_19h31.18.300,lexical_decision_task_MP,2020.1.3,Win32,60,m,1,,,,,,,,0.61668,1,,,,,,2,WORD,UN,50,knight,BRIDGE,m,0.61668,,,,,,,0.59765625,0.09765625,0,0,0,,0,25,25,181,1,
,,,,,,,,,,,,,,,,,,5efc7246abf5130132092e31,2020-08-10_19h31.18.300,lexical_decision_task_MP,2020.1.3,Win32,60,m,1,,,,,,,,0.480285,1,,,,,,169,WORD,"ID",50,genius,GENIUS,m,0.480285,,,,,,,0.59765625,0.09765625,0,0,0,,0,26,26,108,1,
,,,,,,,,,,,,,,,,,,5efc7246abf5130132092e31,2020-08-10_19h31.18.300,lexical_decision_task_MP,2020.1.3,Win32,60,m,1,,,,,,,,0.502445,1,,,,,,41,WORD,UN,50,chapel,SPRING,m,0.502445,,,,,,,0.59765625,0.09765625,0,0,0,,0,27,27,220,1,
,,,,,,,,,,,,,,,,,,5efc7246abf5130132092e31,2020-08-10_19h31.18.300,lexical_decision_task_MP,2020.1.3,Win32,60,z,1,,,,,,,,0.606665,1,,,,,,434,NW,UN,33,impurb,PITROM,z,0.606665,,,,,,,0.59765625,0.09765625,0,0,0,,0,28,28,373,1,
,,,,,,,,,,,,,,,,,,5efc7246abf5130132092e31,2020-08-10_19h31.18.300,lexical_decision_task_MP,2020.1.3,Win32,60,m,1,,,,,,,,0.56226,1,,,,,,127,WORD,"ID",50,castle,CASTLE,m,0.56226,,,,,,,0.59765625,0.09765625,0,0,0,,0,29,29,66,1,
,,,,,,,,,,,,,,,,,,5efc7246abf5130132092e31,2020-08-10_19h31.18.300,lexical_decision_task_MP,2020.1.3,Win32,60,z,1,,,,,,,,0.8307,1,,,,,,420,NW,"ID",50,gushop,GUSHOP,z,0.8307,,,,,,,0.59765625,0.09765625,0,0,0,,0,30,30,359,1,
,,,,,,,,,,,,,,,,,,5efc7246abf5130132092e31,2020-08-10_19h31.18.300,lexical_decision_task_MP,2020.1.3,Win32,60,z,1,,,,,,,,0.490355,1,,,,,,296,NW,UN,50,fertic,BEINCH,z,0.490355,,,,,,,0.59765625,0.09765625,0,0,0,,0,31,31,475,1,
,,,,,,,,,,,,,,,,,,5efc7246abf5130132092e31,2020-08-10_19h31.18.300,lexical_decision_task_MP,2020.1.3,Win32,60,z,1,,,,,,,,0.542605,1,,,,,,384,NW,"ID",50,guesco,GUESCO,z,0.542605,,,,,,,0.59765625,0.09765625,0,0,0,,0,32,32,323,1,
,,,,,,,,,,,,,,,,,,5efc7246abf5130132092e31,2020-08-10_19h31.18.300,lexical_decision_task_MP,2020.1.3,Win32,60,m,1,,,,,,,,0.737675,1,,,,,,142,WORD,"ID",50,spruce,SPRUCE,m,0.737675,,,,,,,0.59765625,0.09765625,0,0,0,,0,33,33,81,1,
,,,,,,,,,,,,,,,,,,5efc7246abf5130132092e31,2020-08-10_19h31.18.300,lexical_decision_task_MP,2020.1.3,Win32,60,m,1,,,,,,,,0.79851,1,,,,,,217,WORD,UN,33,shrink,LIQUOR,m,0.79851,,,,,,,0.59765625,0.09765625,0,0,0,,0,34,34,156,1,
,,,,,,,,,,,,,,,,,,5efc7246abf5130132092e31,2020-08-10_19h31.18.300,lexical_decision_task_MP,2020.1.3,Win32,60,z,1,,,,,,,,0.53999,1,,,,,,453,NW,UN,33,scouge,BOLVIS,z,0.53999,,,,,,,0.59765625,0.09765625,0,0,0,,0,35,35,392,1,
,,,,,,,,,,,,,,,,,,5efc7246abf5130132092e31,2020-08-10_19h31.18.300,lexical_decision_task_MP,2020.1.3,Win32,60,z,1,,,,,,,,0.93049,1,,,,,,325,NW,"ID",33,thruse,THRUSE,z,0.93049,,,,,,,0.59765625,0.09765625,0,0,0,,0,36,36,264,1,
,,,,,,,,,,,,,,,,,,5efc7246abf5130132092e31,2020-08-10_19h31.18.300,lexical_decision_task_MP,2020.1.3,Win32,60,z,1,,,,,,,,0.644145,1,,,,,,262,NW,UN,50,dolica,QUILEW,z,0.644145,,,,,,,0.59765625,0.09765625,0,0,0,,0,37,37,441,1,
,,,,,,,,,,,,,,,,,,5efc7246abf5130132092e31,2020-08-10_19h31.18.300,lexical_decision_task_MP,2020.1.3,Win32,60,z,1,,,,,,,,0.55293,1,,,,,,362,NW,"ID",50,tireau,TIREAU,z,0.55293,,,,,,,0.59765625,0.09765625,0,0,0,,0,38,38,301,1,
,,,,,,,,,,,,,,,,,,5efc7246abf5130132092e31,2020-08-10_19h31.18.300,lexical_decision_task_MP,2020.1.3,Win32,60,m,1,,,,,,,,0.584515,1,,,,,,37,WORD,UN,50,powder,INSULT,m,0.584515,,,,,,,0.59765625,0.09765625,0,0,0,,0,39,39,216,1,
,,,,,,,,,,,,,,,,,,5efc7246abf5130132092e31,2020-08-10_19h31.18.300,lexical_decision_task_MP,2020.1.3,Win32,60,z,1,,,,,,,,0.57556,1,,,,,,459,NW,UN,33,mingar,BAFENT,z,0.57556,,,,,,,0.59765625,0.09765625,0,0,0,,0,40,40,398,1,
,,,,,,,,,,,,,,,,,,5efc7246abf5130132092e31,2020-08-10_19h31.18.300,lexical_decision_task_MP,2020.1.3,Win32,60,z,1,,,,,,,,0.556985,1,,,,,,272,NW,UN,50,sortel,DAMILT,z,0.556985,,,,,,,0.59765625,0.09765625,0,0,0,,0,41,41,451,1,
,,,,,,,,,,,,,,,,,,5efc7246abf5130132092e31,2020-08-10_19h31.18.300,lexical_decision_task_MP,2020.1.3,Win32,60,m,1,,,,,,,,0.57048,1,,,,,,218,WORD,UN,33,bucket,SHRINK,m,0.57048,,,,,,,0.59765625,0.09765625,0,0,0,,0,42,42,157,1,
,,,,,,,,,,,,,,,,,,5efc7246abf5130132092e31,2020-08-10_19h31.18.300,lexical_decision_task_MP,2020.1.3,Win32,60,z,1,,,,,,,,1.24219,1,,,,,,469,NW,UN,33,crudio,PADIFS,z,1.24219,,,,,,,0.59765625,0.09765625,0,0,0,,0,43,43,408,1,
,,,,,,,,,,,,,,,,,,5efc7246abf5130132092e31,2020-08-10_19h31.18.300,lexical_decision_task_MP,2020.1.3,Win32,60,m,1,,,,,,,,0.696965,1,,,,,,183,WORD,UN,33,sleazy,MILDEW,m,0.696965,,,,,,,0.59765625,0.09765625,0,0,0,,0,44,44,122,1,
,,,,,,,,,,,,,,,,,,5efc7246abf5130132092e31,2020-08-10_19h31.18.300,lexical_decision_task_MP,2020.1.3,Win32,60,z,1,,,,,,,,0.67256,1,,,,,,299,NW,UN,50,yarion,STURCH,z,0.67256,,,,,,,0.59765625,0.09765625,0,0,0,,0,45,45,478,1,
,,,,,,,,,,,,,,,,,,5efc7246abf5130132092e31,2020-08-10_19h31.18.300,lexical_decision_task_MP,2020.1.3,Win32,60,z,1,,,,,,,,1.30989,1,,,,,,264,NW,UN,50,distar,VACKEL,z,1.30989,,,,,,,0.59765625,0.09765625,0,0,0,,0,46,46,443,1,
,,,,,,,,,,,,,,,,,,5efc7246abf5130132092e31,2020-08-10_19h31.18.300,lexical_decision_task_MP,2020.1.3,Win32,60,z,1,,,,,,,,1.521825,1,,,,,,382,NW,"ID",50,sarley,SARLEY,z,1.521825,,,,,,,0.59765625,0.09765625,0,0,0,,0,47,47,321,1,
,,,,,,,,,,,,,,,,,,5efc7246abf5130132092e31,2020-08-10_19h31.18.300,lexical_decision_task_MP,2020.1.3,Win32,60,z,1,,,,,,,,0.57186,1,,,,,,340,NW,"ID",33,fiatch,FIATCH,z,0.57186,,,,,,,0.59765625,0.09765625,0,0,0,,0,48,48,279,1,
,,,,,,,,,,,,,,,,,,5efc7246abf5130132092e31,2020-08-10_19h31.18.300,lexical_decision_task_MP,2020.1.3,Win32,60,m,1,,,,,,,,1.63594,1,,,,,,236,WORD,UN,33,grumpy,PIRATE,m,1.63594,,,,,,,0.59765625,0.09765625,0,0,0,,0,49,49,175,1,
,,,,,,,,,,,,,,,,,,5efc7246abf5130132092e31,2020-08-10_19h31.18.300,lexical_decision_task_MP,2020.1.3,Win32,60,z,1,,,,,,,,1.371185,1,,,,,,457,NW,UN,33,barcet,WANIGH,z,1.371185,,,,,,,0.59765625,0.09765625,0,0,0,,0,50,50,396,1,
,,,,,,,,,,,,,,,,,,5efc7246abf5130132092e31,2020-08-10_19h31.18.300,lexical_decision_task_MP,2020.1.3,Win32,60,m,1,,,,,,,,1.33592,1,,,,,,134,WORD,"ID",50,staple,STAPLE,m,1.33592,,,,,,,0.59765625,0.09765625,0,0,0,,0,51,51,73,1,
,,,,,,,,,,,,,,,,,,5efc7246abf5130132092e31,2020-08-10_19h31.18.300,lexical_decision_task_MP,2020.1.3,Win32,60,z,1,,,,,,,,0.702825,1,,,,,,336,NW,"ID",33,ghodus,GHODUS,z,0.702825,,,,,,,0.59765625,0.09765625,0,0,0,,0,52,52,275,1,
,,,,,,,,,,,,,,,,,,5efc7246abf5130132092e31,2020-08-10_19h31.18.300,lexical_decision_task_MP,2020.1.3,Win32,60,z,1,,,,,,,,0.634165,1,,,,,,458,NW,UN,33,hocite,BARCET,z,0.634165,,,,,,,0.59765625,0.09765625,0,0,0,,0,53,53,397,1,
,,,,,,,,,,,,,,,,,,5efc7246abf5130132092e31,2020-08-10_19h31.18.300,lexical_decision_task_MP,2020.1.3,Win32,60,z,1,,,,,,,,0.535085,1,,,,,,379,NW,"ID",50,auting,AUTING,z,0.535085,,,,,,,0.59765625,0.09765625,0,0,0,,0,54,54,318,1,
,,,,,,,,,,,,,,,,,,5efc7246abf5130132092e31,2020-08-10_19h31.18.300,lexical_decision_task_MP,2020.1.3,Win32,60,z,1,,,,,,,,0.917035,1,,,,,,374,NW,"ID",50,sliant,SLIANT,z,0.917035,,,,,,,0.59765625,0.09765625,0,0,0,,0,55,55,313,1,
,,,,,,,,,,,,,,,,,,5efc7246abf5130132092e31,2020-08-10_19h31.18.300,lexical_decision_task_MP,2020.1.3,Win32,60,m,1,,,,,,,,0.78087,1,,,,,,158,WORD,"ID",50,island,ISLAND,m,0.78087,,,,,,,0.59765625,0.09765625,0,0,0,,0,56,56,97,1,
,,,,,,,,,,,,,,,,,,5efc7246abf5130132092e31,2020-08-10_19h31.18.300,lexical_decision_task_MP,2020.1.3,Win32,60,m,1,,,,,,,,0.658075,1,,,,,,82,WORD,"ID",33,stigma,STIGMA,m,0.658075,,,,,,,0.59765625,0.09765625,0,0,0,,0,57,57,21,1,
,,,,,,,,,,,,,,,,,,5efc7246abf5130132092e31,2020-08-10_19h31.18.300,lexical_decision_task_MP,2020.1.3,Win32,60,m,1,,,,,,,,0.905915,1,,,,,,179,WORD,"ID",50,basket,BASKET,m,0.905915,,,,,,,0.59765625,0.09765625,0,0,0,,0,58,58,118,1,
,,,,,,,,,,,,,,,,,,5efc7246abf5130132092e31,2020-08-10_19h31.18.300,lexical_decision_task_MP,2020.1.3,Win32,60,m,1,,,,,,,,0.73905,1,,,,,,81,WORD,"ID",33,friend,FRIEND,m,0.73905,,,,,,,0.59765625,0.09765625,0,0,0,,0,59,59,20,1,
,,,,,,,,,,,,,,,,,,5efc7246abf5130132092e31,2020-08-10_19h31.18.300,lexical_decision_task_MP,2020.1.3,Win32,60,m,1,,,,,,,,0.635185,1,,,,,,214,WORD,UN,33,phobia,INTAKE,m,0.635185,,,,,,,0.59765625,0.09765625,0,0,0,,0,60,60,153,1,
,,,,,,,,,,,,,,,,,,5efc7246abf5130132092e31,2020-08-10_19h31.18.300,lexical_decision_task_MP,2020.1.3,Win32,60,z,1,,,,,,,,0.762725,1,,,,,,419,NW,"ID",50,slount,SLOUNT,z,0.762725,,,,,,,0.59765625,0.09765625,0,0,0,,0,61,61,358,1,
,,,,,,,,,,,,,,,,,,5efc7246abf5130132092e31,2020-08-10_19h31.18.300,lexical_decision_task_MP,2020.1.3,Win32,60,z,1,,,,,,,,0.7714,1,,,,,,380,NW,"ID",50,cavory,CAVORY,z,0.7714,,,,,,,0.59765625,0.09765625,0,0,0,,0,62,62,319,1,
,,,,,,,,,,,,,,,,,,5efc7246abf5130132092e31,2020-08-10_19h31.18.300,lexical_decision_task_MP,2020.1.3,Win32,60,z,1,,,,,,,,0.65337,1,,,,,,316,NW,"ID",33,scregm,SCREGM,z,0.65337,,,,,,,0.59765625,0.09765625,0,0,0,,0,63,63,255,1,
,,,,,,,,,,,,,,,,,,5efc7246abf5130132092e31,2020-08-10_19h31.18.300,lexical_decision_task_MP,2020.1.3,Win32,60,z,1,,,,,,,,0.613535,1,,,,,,289,NW,UN,50,splino,STARBY,z,0.613535,,,,,,,0.59765625,0.09765625,0,0,0,,0,64,64,468,1,
,,,,,,,,,,,,,,,,,,5efc7246abf5130132092e31,2020-08-10_19h31.18.300,lexical_decision_task_MP,2020.1.3,Win32,60,z,1,,,,,,,,0.59249,1,,,,,,375,NW,"ID",50,yorque,YORQUE,z,0.59249,,,,,,,0.59765625,0.09765625,0,0,0,,0,65,65,314,1,
,,,,,,,,,,,,,,,,,,5efc7246abf5130132092e31,2020-08-10_19h31.18.300,lexical_decision_task_MP,2020.1.3,Win32,60,m,1,,,,,,,,0.547815,1,,,,,,47,WORD,UN,50,walnut,INCOME,m,0.547815,,,,,,,0.59765625,0.09765625,0,0,0,,0,66,66,226,1,
,,,,,,,,,,,,,,,,,,5efc7246abf5130132092e31,2020-08-10_19h31.18.300,lexical_decision_task_MP,2020.1.3,Win32,60,z,1,,,,,,,,0.70252,1,,,,,,268,NW,UN,50,orchet,PACKES,z,0.70252,,,,,,,0.59765625,0.09765625,0,0,0,,0,67,67,447,1,
,,,,,,,,,,,,,,,,,,5efc7246abf5130132092e31,2020-08-10_19h31.18.300,lexical_decision_task_MP,2020.1.3,Win32,60,m,1,,,,,,,,0.771915,1,,,,,,227,WORD,UN,33,master,SELDOM,m,0.771915,,,,,,,0.59765625,0.09765625,0,0,0,,0,68,68,166,1,
,,,,,,,,,,,,,,,,,,5efc7246abf5130132092e31,2020-08-10_19h31.18.300,lexical_decision_task_MP,2020.1.3,Win32,60,z,1,,,,,,,,0.771005,1,,,,,,396,NW,"ID",50,flengy,FLENGY,z,0.771005,,,,,,,0.59765625,0.09765625,0,0,0,,0,69,69,335,1,
,,,,,,,,,,,,,,,,,,5efc7246abf5130132092e31,2020-08-10_19h31.18.300,lexical_decision_task_MP,2020.1.3,Win32,60,z,1,,,,,,,,0.61624,1,,,,,,377,NW,"ID",50,injore,INJORE,z,0.61624,,,,,,,0.59765625,0.09765625,0,0,0,,0,70,70,316,1,
,,,,,,,,,,,,,,,,,,5efc7246abf5130132092e31,2020-08-10_19h31.18.300,lexical_decision_task_MP,2020.1.3,Win32,60,m,1,,,,,,,,0.649885,1,,,,,,83,WORD,"ID",33,result,RESULT,m,0.649885,,,,,,,0.59765625,0.09765625,0,0,0,,0,71,71,22,1,
,,,,,,,,,,,,,,,,,,5efc7246abf5130132092e31,2020-08-10_19h31.18.300,lexical_decision_task_MP,2020.1.3,Win32,60,m,1,,,,,,,,0.966655,1,,,,,,108,WORD,"ID",33,reckon,RECKON,m,0.966655,,,,,,,0.59765625,0.09765625,0,0,0,,0,72,72,47,1,
,,,,,,,,,,,,,,,,,,5efc7246abf5130132092e31,2020-08-10_19h31.18.300,lexical_decision_task_MP,2020.1.3,Win32,60,z,1,,,,,,,,0.6174,1,,,,,,301,NW,"ID",33,fainch,FAINCH,z,0.6174,,,,,,,0.59765625,0.09765625,0,0,0,,0,73,73,240,1,
,,,,,,,,,,,,,,,,,,5efc7246abf5130132092e31,2020-08-10_19h31.18.300,lexical_decision_task_MP,2020.1.3,Win32,60,m,1,,,,,,,,0.700205,1,,,,,,72,WORD,"ID",33,bright,BRIGHT,m,0.700205,,,,,,,0.59765625,0.09765625,0,0,0,,0,74,74,11,1,
,,,,,,,,,,,,,,,,,,5efc7246abf5130132092e31,2020-08-10_19h31.18.300,lexical_decision_task_MP,2020.1.3,Win32,60,z,1,,,,,,,,0.57341,1,,,,,,426,NW,UN,33,schind,URIVEL,z,0.57341,,,,,,,0.59765625,0.09765625,0,0,0,,0,75,75,365,1,
,,,,,,,,,,,,,,,,,,5efc7246abf5130132092e31,2020-08-10_19h31.18.300,lexical_decision_task_MP,2020.1.3,Win32,60,,0,,,,,,,,0.57341,-1,,,,,,150,WORD,"ID",50,random,RANDOM,m,,,,,,,,0.59765625,0.09765625,0,0,0,,0,76,76,89,1,
,,,,,,,,,,,,,,,,,,5efc7246abf5130132092e31,2020-08-10_19h31.18.300,lexical_decision_task_MP,2020.1.3,Win32,60,m,1,,,,,,,,0.535525,1,,,,,,105,WORD,"ID",33,number,NUMBER,m,0.535525,,,,,,,0.59765625,0.09765625,0,0,0,,0,77,77,44,1,
,,,,,,,,,,,,,,,,,,5efc7246abf5130132092e31,2020-08-10_19h31.18.300,lexical_decision_task_MP,2020.1.3,Win32,60,z,1,,,,,,,,0.51527,1,,,,,,280,NW,UN,50,melaty,CURBOL,z,0.51527,,,,,,,0.59765625,0.09765625,0,0,0,,0,78,78,459,1,
,,,,,,,,,,,,,,,,,,5efc7246abf5130132092e31,2020-08-10_19h31.18.300,lexical_decision_task_MP,2020.1.3,Win32,60,m,1,,,,,,,,0.62229,1,,,,,,111,WORD,"ID",33,induce,INDUCE,m,0.62229,,,,,,,0.59765625,0.09765625,0,0,0,,0,79,79,50,1,
,,,,,,,,,,,,,,,,,,5efc7246abf5130132092e31,2020-08-10_19h31.18.300,lexical_decision_task_MP,2020.1.3,Win32,60,m,1,,,,,,,,0.538245,1,,,,,,154,WORD,"ID",50,author,AUTHOR,m,0.538245,,,,,,,0.59765625,0.09765625,0,0,0,,0,80,80,93,1,
,,,,,,,,,,,,,,,,,,5efc7246abf5130132092e31,2020-08-10_19h31.18.300,lexical_decision_task_MP,2020.1.3,Win32,60,m,1,,,,,,,,0.82762,1,,,,,,27,WORD,UN,50,comedy,SCREAM,m,0.82762,,,,,,,0.59765625,0.09765625,0,0,0,,0,81,81,206,1,
,,,,,,,,,,,,,,,,,,5efc7246abf5130132092e31,2020-08-10_19h31.18.300,lexical_decision_task_MP,2020.1.3,Win32,60,m,1,,,,,,,,0.465205,1,,,,,,9,WORD,UN,50,bridge,HUSTLE,m,0.465205,,,,,,,0.59765625,0.09765625,0,0,0,,0,82,82,188,1,
,,,,,,,,,,,,,,,,,,5efc7246abf5130132092e31,2020-08-10_19h31.18.300,lexical_decision_task_MP,2020.1.3,Win32,60,z,1,,,,,,,,0.664065,1,,,,,,460,NW,UN,33,justre,MINGAR,z,0.664065,,,,,,,0.59765625,0.09765625,0,0,0,,0,83,83,399,1,
,,,,,,,,,,,,,,,,,,5efc7246abf5130132092e31,2020-08-10_19h31.18.300,lexical_decision_task_MP,2020.1.3,Win32,60,z,1,,,,,,,,0.51898,1,,,,,,355,NW,"ID",33,zingly,ZINGLY,z,0.51898,,,,,,,0.59765625,0.09765625,0,0,0,,0,84,84,294,1,
,,,,,,,,,,,,,,,,,,5efc7246abf5130132092e31,2020-08-10_19h31.18.300,lexical_decision_task_MP,2020.1.3,Win32,60,m,1,,,,,,,,0.521655,1,,,,,,79,WORD,"ID",33,theory,THEORY,m,0.521655,,,,,,,0.59765625,0.09765625,0,0,0,,0,85,85,18,1,
,,,,,,,,,,,,,,,,,,5efc7246abf5130132092e31,2020-08-10_19h31.18.300,lexical_decision_task_MP,2020.1.3,Win32,60,z,0,,,,,,,,0.54445,0,,,,,,114,WORD,"ID",33,placid,PLACID,m,0.54445,,,,,,,0.59765625,0.09765625,0,0,0,,0,86,86,53,1,
,,,,,,,,,,,,,,,,,,5efc7246abf5130132092e31,2020-08-10_19h31.18.300,lexical_decision_task_MP,2020.1.3,Win32,60,z,1,,,,,,,,0.564095,1,,,,,,411,NW,"ID",50,orchin,ORCHIN,z,0.564095,,,,,,,0.59765625,0.09765625,0,0,0,,0,87,87,350,1,
,,,,,,,,,,,,,,,,,,5efc7246abf5130132092e31,2020-08-10_19h31.18.300,lexical_decision_task_MP,2020.1.3,Win32,60,z,0,,,,,,,,0.61625,0,,,,,,33,WORD,UN,50,jungle,BUTLER,m,0.61625,,,,,,,0.59765625,0.09765625,0,0,0,,0,88,88,212,1,
,,,,,,,,,,,,,,,,,,5efc7246abf5130132092e31,2020-08-10_19h31.18.300,lexical_decision_task_MP,2020.1.3,Win32,60,m,1,,,,,,,,0.83553,1,,,,,,51,WORD,UN,50,impose,HUNGRY,m,0.83553,,,,,,,0.59765625,0.09765625,0,0,0,,0,89,89,230,1,
,,,,,,,,,,,,,,,,,,5efc7246abf5130132092e31,2020-08-10_19h31.18.300,lexical_decision_task_MP,2020.1.3,Win32,60,z,1,,,,,,,,0.574145,1,,,,,,247,NW,UN,50,strole,BLARGE,z,0.574145,,,,,,,0.59765625,0.09765625,0,0,0,,0,90,90,426,1,
,,,,,,,,,,,,,,,,,,5efc7246abf5130132092e31,2020-08-10_19h31.18.300,lexical_decision_task_MP,2020.1.3,Win32,60,m,1,,,,,,,,0.60996,1,,,,,,117,WORD,"ID",33,branch,BRANCH,m,0.60996,,,,,,,0.59765625,0.09765625,0,0,0,,0,91,91,56,1,
,,,,,,,,,,,,,,,,,,5efc7246abf5130132092e31,2020-08-10_19h31.18.300,lexical_decision_task_MP,2020.1.3,Win32,60,m,1,,,,,,,,0.64351,1,,,,,,200,WORD,UN,33,admire,BEACON,m,0.64351,,,,,,,0.59765625,0.09765625,0,0,0,,0,92,92,139,1,
,,,,,,,,,,,,,,,,,,5efc7246abf5130132092e31,2020-08-10_19h31.18.300,lexical_decision_task_MP,2020.1.3,Win32,60,z,1,,,,,,,,0.7636,1,,,,,,314,NW,"ID",33,sprine,SPRINE,z,0.7636,,,,,,,0.59765625,0.09765625,0,0,0,,0,93,93,253,1,
,,,,,,,,,,,,,,,,,,5efc7246abf5130132092e31,2020-08-10_19h31.18.300,lexical_decision_task_MP,2020.1.3,Win32,60,m,1,,,,,,,,0.59733,1,,,,,,174,WORD,"ID",50,turkey,TURKEY,m,0.59733,,,,,,,0.59765625,0.09765625,0,0,0,,0,94,94,113,1,
,,,,,,,,,,,,,,,,,,5efc7246abf5130132092e31,2020-08-10_19h31.18.300,lexical_decision_task_MP,2020.1.3,Win32,60,m,1,,,,,,,,1.041105,1,,,,,,229,WORD,UN,33,fringe,MOTHER,m,1.041105,,,,,,,0.59765625,0.09765625,0,0,0,,0,95,95,168,1,
,,,,,,,,,,,,,,,,,,5efc7246abf5130132092e31,2020-08-10_19h31.18.300,lexical_decision_task_MP,2020.1.3,Win32,60,m,1,,,,,,,,0.637985,1,,,,,,28,WORD,UN,50,sketch,COMEDY,m,0.637985,,,,,,,0.59765625,0.09765625,0,0,0,,0,96,96,207,1,
,,,,,,,,,,,,,,,,,,5efc7246abf5130132092e31,2020-08-10_19h31.18.300,lexical_decision_task_MP,2020.1.3,Win32,60,m,0,,,,,,,,0.72459,0,,,,,,258,NW,UN,50,soudal,POLUTH,z,0.72459,,,,,,,0.59765625,0.09765625,0,0,0,,0,97,97,437,1,
,,,,,,,,,,,,,,,,,,5efc7246abf5130132092e31,2020-08-10_19h31.18.300,lexical_decision_task_MP,2020.1.3,Win32,60,m,1,,,,,,,,0.680275,1,,,,,,31,WORD,UN,50,buckle,WEAPON,m,0.680275,,,,,,,0.59765625,0.09765625,0,0,0,,0,98,98,210,1,
,,,,,,,,,,,,,,,,,,5efc7246abf5130132092e31,2020-08-10_19h31.18.300,lexical_decision_task_MP,2020.1.3,Win32,60,z,1,,,,,,,,0.57138,1,,,,,,401,NW,"ID",50,mustil,MUSTIL,z,0.57138,,,,,,,0.59765625,0.09765625,0,0,0,,0,99,99,340,1,
,,,,,,,,,,,,,,,,,,5efc7246abf5130132092e31,2020-08-10_19h31.18.300,lexical_decision_task_MP,2020.1.3,Win32,60,m,0,,,,,,,,1.443785,0,,,,,,468,NW,UN,33,padifs,WICTOR,z,1.443785,,,,,,,0.59765625,0.09765625,0,0,0,,0,100,100,407,1,
,,,,,,,,,,,,,,,,,,5efc7246abf5130132092e31,2020-08-10_19h31.18.300,lexical_decision_task_MP,2020.1.3,Win32,60,z,1,,,,,,,,0.75639,1,,,,,,417,NW,"ID",50,earoud,EAROUD,z,0.75639,,,,,,,0.59765625,0.09765625,0,0,0,,0,101,101,356,1,
,,,,,,,,,,,,,,,,,,5efc7246abf5130132092e31,2020-08-10_19h31.18.300,lexical_decision_task_MP,2020.1.3,Win32,60,z,1,,,,,,,,0.538155,1,,,,,,269,NW,UN,50,wrimsy,ORCHET,z,0.538155,,,,,,,0.59765625,0.09765625,0,0,0,,0,102,102,448,1,
,,,,,,,,,,,,,,,,,,5efc7246abf5130132092e31,2020-08-10_19h31.18.300,lexical_decision_task_MP,2020.1.3,Win32,60,z,1,,,,,,,,0.74985,1,,,,,,443,NW,UN,33,jaunce,DORSEX,z,0.74985,,,,,,,0.59765625,0.09765625,0,0,0,,0,103,103,382,1,
,,,,,,,,,,,,,,,,,,5efc7246abf5130132092e31,2020-08-10_19h31.18.300,lexical_decision_task_MP,2020.1.3,Win32,60,z,1,,,,,,,,0.705505,1,,,,,,446,NW,UN,33,gircue,RUNAMO,z,0.705505,,,,,,,0.59765625,0.09765625,0,0,0,,0,104,104,385,1,
,,,,,,,,,,,,,,,,,,5efc7246abf5130132092e31,2020-08-10_19h31.18.300,lexical_decision_task_MP,2020.1.3,Win32,60,z,1,,,,,,,,0.627165,1,,,,,,307,NW,"ID",33,kirafe,KIRAFE,z,0.627165,,,,,,,0.59765625,0.09765625,0,0,0,,0,105,105,246,1,
,,,,,,,,,,,,,,,,,,5efc7246abf5130132092e31,2020-08-10_19h31.18.300,lexical_decision_task_MP,2020.1.3,Win32,60,z,1,,,,,,,,0.75745,1,,,,,,440,NW,UN,33,rastoe,SARIDE,z,0.75745,,,,,,,0.59765625,0.09765625,0,0,0,,0,106,106,379,1,
,,,,,,,,,,,,,,,,,,5efc7246abf5130132092e31,2020-08-10_19h31.18.300,lexical_decision_task_MP,2020.1.3,Win32,60,m,1,,,,,,,,0.84267,1,,,,,,187,WORD,UN,33,social,COURSE,m,0.84267,,,,,,,0.59765625,0.09765625,0,0,0,,0,107,107,126,1,
,,,,,,,,,,,,,,,,,,5efc7246abf5130132092e31,2020-08-10_19h31.18.300,lexical_decision_task_MP,2020.1.3,Win32,60,z,1,,,,,,,,0.63473,1,,,,,,408,NW,"ID",50,hurnia,HURNIA,z,0.63473,,,,,,,0.59765625,0.09765625,0,0,0,,0,108,108,347,1,
,,,,,,,,,,,,,,,,,,5efc7246abf5130132092e31,2020-08-10_19h31.18.300,lexical_decision_task_MP,2020.1.3,Win32,60,m,1,,,,,,,,1.46033,1,,,,,,206,WORD,UN,33,wreath,TAILOR,m,1.46033,,,,,,,0.59765625,0.09765625,0,0,0,,0,109,109,145,1,
,,,,,,,,,,,,,,,,,,5efc7246abf5130132092e31,2020-08-10_19h31.18.300,lexical_decision_task_MP,2020.1.3,Win32,60,m,1,,,,,,,,0.656295,1,,,,,,18,WORD,UN,50,patron,HUMBLE,m,0.656295,,,,,,,0.59765625,0.09765625,0,0,0,,0,110,110,197,1,
,,,,,,,,,,,,,,,,,,5efc7246abf5130132092e31,2020-08-10_19h31.18.300,lexical_decision_task_MP,2020.1.3,Win32,60,z,1,,,,,,,,0.64241,1,,,,,,448,NW,UN,33,brunge,SADENT,z,0.64241,,,,,,,0.59765625,0.09765625,0,0,0,,0,111,111,387,1,
,,,,,,,,,,,,,,,,,,5efc7246abf5130132092e31,2020-08-10_19h31.18.300,lexical_decision_task_MP,2020.1.3,Win32,60,m,1,,,,,,,,0.65481,1,,,,,,164,WORD,"ID",50,market,MARKET,m,0.65481,,,,,,,0.59765625,0.09765625,0,0,0,,0,112,112,103,1,
,,,,,,,,,,,,,,,,,,5efc7246abf5130132092e31,2020-08-10_19h31.18.300,lexical_decision_task_MP,2020.1.3,Win32,60,z,1,,,,,,,,0.688985,1,,,,,,331,NW,"ID",33,gilfew,GILFEW,z,0.688985,,,,,,,0.59765625,0.09765625,0,0,0,,0,113,113,270,1,
,,,,,,,,,,,,,,,,,,5efc7246abf5130132092e31,2020-08-10_19h31.18.300,lexical_decision_task_MP,2020.1.3,Win32,60,m,1,,,,,,,,0.66291,1,,,,,,32,WORD,UN,50,scream,BUCKLE,m,0.66291,,,,,,,0.59765625,0.09765625,0,0,0,,0,114,114,211,1,
,,,,,,,,,,,,,,,,,,5efc7246abf5130132092e31,2020-08-10_19h31.18.300,lexical_decision_task_MP,2020.1.3,Win32,60,z,1,,,,,,,,0.51654,1,,,,,,351,NW,"ID",33,tiesch,TIESCH,z,0.51654,,,,,,,0.59765625,0.09765625,0,0,0,,0,115,115,290,1,
,,,,,,,,,,,,,,,,,,5efc7246abf5130132092e31,2020-08-10_19h31.18.300,lexical_decision_task_MP,2020.1.3,Win32,60,m,1,,,,,,,,0.78378,1,,,,,,149,WORD,"ID",50,invade,INVADE,m,0.78378,,,,,,,0.59765625,0.09765625,0,0,0,,0,116,116,88,1,
,,,,,,,,,,,,,,,,,,5efc7246abf5130132092e31,2020-08-10_19h31.18.300,lexical_decision_task_MP,2020.1.3,Win32,60,m,1,,,,,,,,0.50294,1,,,,,,56,WORD,UN,50,change,AMBUSH,m,0.50294,,,,,,,0.59765625,0.09765625,0,0,0,,0,117,117,235,1,
,,,,,,,,,,,,,,,,,,5efc7246abf5130132092e31,2020-08-10_19h31.18.300,lexical_decision_task_MP,2020.1.3,Win32,60,z,1,,,,,,,,0.826145,1,,,,,,277,NW,UN,50,unighs,PETAIN,z,0.826145,,,,,,,0.59765625,0.09765625,0,0,0,,0,118,118,456,1,
,,,,,,,,,,,,,,,,,,5efc7246abf5130132092e31,2020-08-10_19h31.18.300,lexical_decision_task_MP,2020.1.3,Win32,60,z,1,,,,,,,,0.52222,1,,,,,,466,NW,UN,33,robuly,HOCITE,z,0.52222,,,,,,,0.59765625,0.09765625,0,0,0,,0,119,119,405,1,
,,,,,,,,,,,,,,,,,,5efc7246abf5130132092e31,2020-08-10_19h31.18.300,lexical_decision_task_MP,2020.1.3,Win32,60,m,1,,,,,,,,0.64096,1,,,,,,145,WORD,"ID",50,parish,PARISH,m,0.64096,,,,,,,0.59765625,0.09765625,0,0,0,space,0,120,120,84,1,189.043305
,,,,,,,,,,,,,,,,,,5efc7246abf5130132092e31,2020-08-10_19h31.18.300,lexical_decision_task_MP,2020.1.3,Win32,60,m,1,,,,,,,,0.954815,1,,,,,,168,WORD,"ID",50,answer,ANSWER,m,0.954815,,,,,,,0.59765625,0.09765625,0,0,0,,0,121,121,107,1,
,,,,,,,,,,,,,,,,,,5efc7246abf5130132092e31,2020-08-10_19h31.18.300,lexical_decision_task_MP,2020.1.3,Win32,60,z,1,,,,,,,,0.725415,1,,,,,,378,NW,"ID",50,shrile,SHRILE,z,0.725415,,,,,,,0.59765625,0.09765625,0,0,0,,0,122,122,317,1,
,,,,,,,,,,,,,,,,,,5efc7246abf5130132092e31,2020-08-10_19h31.18.300,lexical_decision_task_MP,2020.1.3,Win32,60,z,1,,,,,,,,0.516975,1,,,,,,474,NW,UN,33,acrise,HABLIN,z,0.516975,,,,,,,0.59765625,0.09765625,0,0,0,,0,123,123,413,1,
,,,,,,,,,,,,,,,,,,5efc7246abf5130132092e31,2020-08-10_19h31.18.300,lexical_decision_task_MP,2020.1.3,Win32,60,z,1,,,,,,,,0.48674,1,,,,,,450,NW,UN,33,cainky,PHRECT,z,0.48674,,,,,,,0.59765625,0.09765625,0,0,0,,0,124,124,389,1,
,,,,,,,,,,,,,,,,,,5efc7246abf5130132092e31,2020-08-10_19h31.18.300,lexical_decision_task_MP,2020.1.3,Win32,60,z,1,,,,,,,,0.447165,1,,,,,,473,NW,UN,33,hablin,CRIBLE,z,0.447165,,,,,,,0.59765625,0.09765625,0,0,0,,0,125,125,412,1,
,,,,,,,,,,,,,,,,,,5efc7246abf5130132092e31,2020-08-10_19h31.18.300,lexical_decision_task_MP,2020.1.3,Win32,60,m,1,,,,,,,,0.514685,1,,,,,,208,WORD,UN,33,search,HOCKEY,m,0.514685,,,,,,,0.59765625,0.09765625,0,0,0,,0,126,126,147,1,
,,,,,,,,,,,,,,,,,,5efc7246abf5130132092e31,2020-08-10_19h31.18.300,lexical_decision_task_MP,2020.1.3,Win32,60,z,1,,,,,,,,0.607065,1,,,,,,339,NW,"ID",33,fachow,FACHOW,z,0.607065,,,,,,,0.59765625,0.09765625,0,0,0,,0,127,127,278,1,
,,,,,,,,,,,,,,,,,,5efc7246abf5130132092e31,2020-08-10_19h31.18.300,lexical_decision_task_MP,2020.1.3,Win32,60,z,0,,,,,,,,0.709,0,,,,,,68,WORD,"ID",33,fumble,FUMBLE,m,0.709,,,,,,,0.59765625,0.09765625,0,0,0,,0,128,128,7,1,
,,,,,,,,,,,,,,,,,,5efc7246abf5130132092e31,2020-08-10_19h31.18.300,lexical_decision_task_MP,2020.1.3,Win32,60,z,1,,,,,,,,0.570865,1,,,,,,320,NW,"ID",33,jockal,JOCKAL,z,0.570865,,,,,,,0.59765625,0.09765625,0,0,0,,0,129,129,259,1,
,,,,,,,,,,,,,,,,,,5efc7246abf5130132092e31,2020-08-10_19h31.18.300,lexical_decision_task_MP,2020.1.3,Win32,60,z,1,,,,,,,,0.4873,1,,,,,,349,NW,"ID",33,asylen,ASYLEN,z,0.4873,,,,,,,0.59765625,0.09765625,0,0,0,,0,130,130,288,1,
,,,,,,,,,,,,,,,,,,5efc7246abf5130132092e31,2020-08-10_19h31.18.300,lexical_decision_task_MP,2020.1.3,Win32,60,m,1,,,,,,,,0.764575,1,,,,,,151,WORD,"ID",50,mystic,MYSTIC,m,0.764575,,,,,,,0.59765625,0.09765625,0,0,0,,0,131,131,90,1,
,,,,,,,,,,,,,,,,,,5efc7246abf5130132092e31,2020-08-10_19h31.18.300,lexical_decision_task_MP,2020.1.3,Win32,60,m,1,,,,,,,,0.74975,1,,,,,,199,WORD,UN,33,plague,INVOKE,m,0.74975,,,,,,,0.59765625,0.09765625,0,0,0,,0,132,132,138,1,
,,,,,,,,,,,,,,,,,,5efc7246abf5130132092e31,2020-08-10_19h31.18.300,lexical_decision_task_MP,2020.1.3,Win32,60,m,1,,,,,,,,0.619725,1,,,,,,216,WORD,UN,33,liquor,BEHALF,m,0.619725,,,,,,,0.59765625,0.09765625,0,0,0,,0,133,133,155,1,
,,,,,,,,,,,,,,,,,,5efc7246abf5130132092e31,2020-08-10_19h31.18.300,lexical_decision_task_MP,2020.1.3,Win32,60,z,1,,,,,,,,0.571825,1,,,,,,429,NW,UN,33,caroey,FUNTLE,z,0.571825,,,,,,,0.59765625,0.09765625,0,0,0,,0,134,134,368,1,
,,,,,,,,,,,,,,,,,,5efc7246abf5130132092e31,2020-08-10_19h31.18.300,lexical_decision_task_MP,2020.1.3,Win32,60,m,1,,,,,,,,0.5532,1,,,,,,211,WORD,UN,33,verify,INFECT,m,0.5532,,,,,,,0.59765625,0.09765625,0,0,0,,0,135,135,150,1,
,,,,,,,,,,,,,,,,,,5efc7246abf5130132092e31,2020-08-10_19h31.18.300,lexical_decision_task_MP,2020.1.3,Win32,60,m,1,,,,,,,,0.575305,1,,,,,,126,WORD,"ID",50,enough,ENOUGH,m,0.575305,,,,,,,0.59765625,0.09765625,0,0,0,,0,136,136,65,1,
,,,,,,,,,,,,,,,,,,5efc7246abf5130132092e31,2020-08-10_19h31.18.300,lexical_decision_task_MP,2020.1.3,Win32,60,z,1,,,,,,,,0.526625,1,,,,,,341,NW,"ID",33,myrtie,MYRTIE,z,0.526625,,,,,,,0.59765625,0.09765625,0,0,0,,0,137,137,280,1,
,,,,,,,,,,,,,,,,,,5efc7246abf5130132092e31,2020-08-10_19h31.18.300,lexical_decision_task_MP,2020.1.3,Win32,60,z,1,,,,,,,,1.21838,1,,,,,,392,NW,"ID",50,rouncy,ROUNCY,z,1.21838,,,,,,,0.59765625,0.09765625,0,0,0,,0,138,138,331,1,
,,,,,,,,,,,,,,,,,,5efc7246abf5130132092e31,2020-08-10_19h31.18.300,lexical_decision_task_MP,2020.1.3,Win32,60,m,1,,,,,,,,0.534905,1,,,,,,171,WORD,"ID",50,depart,DEPART,m,0.534905,,,,,,,0.59765625,0.09765625,0,0,0,,0,139,139,110,1,
,,,,,,,,,,,,,,,,,,5efc7246abf5130132092e31,2020-08-10_19h31.18.300,lexical_decision_task_MP,2020.1.3,Win32,60,m,1,,,,,,,,0.498885,1,,,,,,140,WORD,"ID",50,prince,PRINCE,m,0.498885,,,,,,,0.59765625,0.09765625,0,0,0,,0,140,140,79,1,
,,,,,,,,,,,,,,,,,,5efc7246abf5130132092e31,2020-08-10_19h31.18.300,lexical_decision_task_MP,2020.1.3,Win32,60,m,1,,,,,,,,0.617065,1,,,,,,177,WORD,"ID",50,advent,ADVENT,m,0.617065,,,,,,,0.59765625,0.09765625,0,0,0,,0,141,141,116,1,
,,,,,,,,,,,,,,,,,,5efc7246abf5130132092e31,2020-08-10_19h31.18.300,lexical_decision_task_MP,2020.1.3,Win32,60,m,1,,,,,,,,0.53757,1,,,,,,96,WORD,"ID",33,ignore,IGNORE,m,0.53757,,,,,,,0.59765625,0.09765625,0,0,0,,0,142,142,35,1,
,,,,,,,,,,,,,,,,,,5efc7246abf5130132092e31,2020-08-10_19h31.18.300,lexical_decision_task_MP,2020.1.3,Win32,60,m,1,,,,,,,,0.46848,1,,,,,,91,WORD,"ID",33,expand,EXPAND,m,0.46848,,,,,,,0.59765625,0.09765625,0,0,0,,0,143,143,30,1,
,,,,,,,,,,,,,,,,,,5efc7246abf5130132092e31,2020-08-10_19h31.18.300,lexical_decision_task_MP,2020.1.3,Win32,60,m,1,,,,,,,,0.552665,1,,,,,,87,WORD,"ID",33,filter,FILTER,m,0.552665,,,,,,,0.59765625,0.09765625,0,0,0,,0,144,144,26,1,
,,,,,,,,,,,,,,,,,,5efc7246abf5130132092e31,2020-08-10_19h31.18.300,lexical_decision_task_MP,2020.1.3,Win32,60,z,1,,,,,,,,0.53117,1,,,,,,317,NW,"ID",33,worbal,WORBAL,z,0.53117,,,,,,,0.59765625,0.09765625,0,0,0,,0,145,145,256,1,
,,,,,,,,,,,,,,,,,,5efc7246abf5130132092e31,2020-08-10_19h31.18.300,lexical_decision_task_MP,2020.1.3,Win32,60,m,0,,,,,,,,0.63065,0,,,,,,261,NW,UN,50,quilew,STUNCH,z,0.63065,,,,,,,0.59765625,0.09765625,0,0,0,,0,146,146,440,1,
,,,,,,,,,,,,,,,,,,5efc7246abf5130132092e31,2020-08-10_19h31.18.300,lexical_decision_task_MP,2020.1.3,Win32,60,z,1,,,,,,,,0.695705,1,,,,,,381,NW,"ID",50,huniek,HUNIEK,z,0.695705,,,,,,,0.59765625,0.09765625,0,0,0,,0,147,147,320,1,
,,,,,,,,,,,,,,,,,,5efc7246abf5130132092e31,2020-08-10_19h31.18.300,lexical_decision_task_MP,2020.1.3,Win32,60,z,1,,,,,,,,0.566745,1,,,,,,321,NW,"ID",33,miator,MIATOR,z,0.566745,,,,,,,0.59765625,0.09765625,0,0,0,,0,148,148,260,1,
,,,,,,,,,,,,,,,,,,5efc7246abf5130132092e31,2020-08-10_19h31.18.300,lexical_decision_task_MP,2020.1.3,Win32,60,m,1,,,,,,,,0.456435,1,,,,,,34,WORD,UN,50,socket,JUNGLE,m,0.456435,,,,,,,0.59765625,0.09765625,0,0,0,,0,149,149,213,1,
,,,,,,,,,,,,,,,,,,5efc7246abf5130132092e31,2020-08-10_19h31.18.300,lexical_decision_task_MP,2020.1.3,Win32,60,m,1,,,,,,,,0.569575,1,,,,,,104,WORD,"ID",33,studio,STUDIO,m,0.569575,,,,,,,0.59765625,0.09765625,0,0,0,,0,150,150,43,1,
,,,,,,,,,,,,,,,,,,5efc7246abf5130132092e31,2020-08-10_19h31.18.300,lexical_decision_task_MP,2020.1.3,Win32,60,z,1,,,,,,,,0.55123,1,,,,,,361,NW,"ID",50,pauche,PAUCHE,z,0.55123,,,,,,,0.59765625,0.09765625,0,0,0,,0,151,151,300,1,
,,,,,,,,,,,,,,,,,,5efc7246abf5130132092e31,2020-08-10_19h31.18.300,lexical_decision_task_MP,2020.1.3,Win32,60,z,1,,,,,,,,0.785605,1,,,,,,435,NW,UN,33,frutan,IMPURB,z,0.785605,,,,,,,0.59765625,0.09765625,0,0,0,,0,152,152,374,1,
,,,,,,,,,,,,,,,,,,5efc7246abf5130132092e31,2020-08-10_19h31.18.300,lexical_decision_task_MP,2020.1.3,Win32,60,z,1,,,,,,,,0.70301,1,,,,,,393,NW,"ID",50,ganous,GANOUS,z,0.70301,,,,,,,0.59765625,0.09765625,0,0,0,,0,153,153,332,1,
,,,,,,,,,,,,,,,,,,5efc7246abf5130132092e31,2020-08-10_19h31.18.300,lexical_decision_task_MP,2020.1.3,Win32,60,m,1,,,,,,,,0.71061,1,,,,,,5,WORD,UN,50,bundle,PLUNGE,m,0.71061,,,,,,,0.59765625,0.09765625,0,0,0,,0,154,154,184,1,
,,,,,,,,,,,,,,,,,,5efc7246abf5130132092e31,2020-08-10_19h31.18.300,lexical_decision_task_MP,2020.1.3,Win32,60,m,1,,,,,,,,0.671295,1,,,,,,29,WORD,UN,50,orient,SKETCH,m,0.671295,,,,,,,0.59765625,0.09765625,0,0,0,,0,155,155,208,1,
,,,,,,,,,,,,,,,,,,5efc7246abf5130132092e31,2020-08-10_19h31.18.300,lexical_decision_task_MP,2020.1.3,Win32,60,z,1,,,,,,,,0.860375,1,,,,,,476,NW,UN,33,photie,JOSTED,z,0.860375,,,,,,,0.59765625,0.09765625,0,0,0,,0,156,156,415,1,
,,,,,,,,,,,,,,,,,,5efc7246abf5130132092e31,2020-08-10_19h31.18.300,lexical_decision_task_MP,2020.1.3,Win32,60,m,1,,,,,,,,0.52228,1,,,,,,98,WORD,"ID",33,belong,BELONG,m,0.52228,,,,,,,0.59765625,0.09765625,0,0,0,,0,157,157,37,1,
,,,,,,,,,,,,,,,,,,5efc7246abf5130132092e31,2020-08-10_19h31.18.300,lexical_decision_task_MP,2020.1.3,Win32,60,z,1,,,,,,,,0.593815,1,,,,,,472,NW,UN,33,gorbie,CIGNEY,z,0.593815,,,,,,,0.59765625,0.09765625,0,0,0,,0,158,158,411,1,
,,,,,,,,,,,,,,,,,,5efc7246abf5130132092e31,2020-08-10_19h31.18.300,lexical_decision_task_MP,2020.1.3,Win32,60,m,1,,,,,,,,0.572915,1,,,,,,107,WORD,"ID",33,slogan,SLOGAN,m,0.572915,,,,,,,0.59765625,0.09765625,0,0,0,,0,159,159,46,1,
,,,,,,,,,,,,,,,,,,5efc7246abf5130132092e31,2020-08-10_19h31.18.300,lexical_decision_task_MP,2020.1.3,Win32,60,m,0,,,,,,,,0.44851,0,,,,,,342,NW,"ID",33,randow,RANDOW,z,0.44851,,,,,,,0.59765625,0.09765625,0,0,0,,0,160,160,281,1,
,,,,,,,,,,,,,,,,,,5efc7246abf5130132092e31,2020-08-10_19h31.18.300,lexical_decision_task_MP,2020.1.3,Win32,60,z,1,,,,,,,,0.482315,1,,,,,,265,NW,UN,50,varmit,DISTAR,z,0.482315,,,,,,,0.59765625,0.09765625,0,0,0,,0,161,161,444,1,
,,,,,,,,,,,,,,,,,,5efc7246abf5130132092e31,2020-08-10_19h31.18.300,lexical_decision_task_MP,2020.1.3,Win32,60,z,1,,,,,,,,0.497595,1,,,,,,275,NW,UN,50,yarmon,SLEIRT,z,0.497595,,,,,,,0.59765625,0.09765625,0,0,0,,0,162,162,454,1,
,,,,,,,,,,,,,,,,,,5efc7246abf5130132092e31,2020-08-10_19h31.18.300,lexical_decision_task_MP,2020.1.3,Win32,60,m,1,,,,,,,,0.473715,1,,,,,,146,WORD,"ID",50,couple,COUPLE,m,0.473715,,,,,,,0.59765625,0.09765625,0,0,0,,0,163,163,85,1,
,,,,,,,,,,,,,,,,,,5efc7246abf5130132092e31,2020-08-10_19h31.18.300,lexical_decision_task_MP,2020.1.3,Win32,60,m,1,,,,,,,,0.693,1,,,,,,234,WORD,UN,33,poster,CLUMSY,m,0.693,,,,,,,0.59765625,0.09765625,0,0,0,,0,164,164,173,1,
,,,,,,,,,,,,,,,,,,5efc7246abf5130132092e31,2020-08-10_19h31.18.300,lexical_decision_task_MP,2020.1.3,Win32,60,z,1,,,,,,,,0.519035,1,,,,,,424,NW,UN,33,frudge,PRAILE,z,0.519035,,,,,,,0.59765625,0.09765625,0,0,0,,0,165,165,363,1,
,,,,,,,,,,,,,,,,,,5efc7246abf5130132092e31,2020-08-10_19h31.18.300,lexical_decision_task_MP,2020.1.3,Win32,60,z,1,,,,,,,,0.57877,1,,,,,,335,NW,"ID",33,desion,DESION,z,0.57877,,,,,,,0.59765625,0.09765625,0,0,0,,0,166,166,274,1,
,,,,,,,,,,,,,,,,,,5efc7246abf5130132092e31,2020-08-10_19h31.18.300,lexical_decision_task_MP,2020.1.3,Win32,60,z,1,,,,,,,,0.513285,1,,,,,,397,NW,"ID",50,camble,CAMBLE,z,0.513285,,,,,,,0.59765625,0.09765625,0,0,0,,0,167,167,336,1,
,,,,,,,,,,,,,,,,,,5efc7246abf5130132092e31,2020-08-10_19h31.18.300,lexical_decision_task_MP,2020.1.3,Win32,60,m,1,,,,,,,,0.487485,1,,,,,,157,WORD,"ID",50,dragon,DRAGON,m,0.487485,,,,,,,0.59765625,0.09765625,0,0,0,,0,168,168,96,1,
,,,,,,,,,,,,,,,,,,5efc7246abf5130132092e31,2020-08-10_19h31.18.300,lexical_decision_task_MP,2020.1.3,Win32,60,m,1,,,,,,,,0.53969,1,,,,,,119,WORD,"ID",33,spider,SPIDER,m,0.53969,,,,,,,0.59765625,0.09765625,0,0,0,,0,169,169,58,1,
,,,,,,,,,,,,,,,,,,5efc7246abf5130132092e31,2020-08-10_19h31.18.300,lexical_decision_task_MP,2020.1.3,Win32,60,m,1,,,,,,,,0.52981,1,,,,,,80,WORD,"ID",33,family,FAMILY,m,0.52981,,,,,,,0.59765625,0.09765625,0,0,0,,0,170,170,19,1,
,,,,,,,,,,,,,,,,,,5efc7246abf5130132092e31,2020-08-10_19h31.18.300,lexical_decision_task_MP,2020.1.3,Win32,60,m,1,,,,,,,,0.47421,1,,,,,,233,WORD,UN,33,clumsy,NATURE,m,0.47421,,,,,,,0.59765625,0.09765625,0,0,0,,0,171,171,172,1,
,,,,,,,,,,,,,,,,,,5efc7246abf5130132092e31,2020-08-10_19h31.18.300,lexical_decision_task_MP,2020.1.3,Win32,60,z,1,,,,,,,,0.5051,1,,,,,,254,NW,UN,50,apight,VAROSH,z,0.5051,,,,,,,0.59765625,0.09765625,0,0,0,,0,172,172,433,1,
,,,,,,,,,,,,,,,,,,5efc7246abf5130132092e31,2020-08-10_19h31.18.300,lexical_decision_task_MP,2020.1.3,Win32,60,m,1,,,,,,,,0.50677,1,,,,,,202,WORD,UN,33,phrase,FACTOR,m,0.50677,,,,,,,0.59765625,0.09765625,0,0,0,,0,173,173,141,1,
,,,,,,,,,,,,,,,,,,5efc7246abf5130132092e31,2020-08-10_19h31.18.300,lexical_decision_task_MP,2020.1.3,Win32,60,m,1,,,,,,,,0.477265,1,,,,,,38,WORD,UN,50,insect,POWDER,m,0.477265,,,,,,,0.59765625,0.09765625,0,0,0,,0,174,174,217,1,
,,,,,,,,,,,,,,,,,,5efc7246abf5130132092e31,2020-08-10_19h31.18.300,lexical_decision_task_MP,2020.1.3,Win32,60,z,1,,,,,,,,0.58825,1,,,,,,463,NW,UN,33,chaite,KISPEL,z,0.58825,,,,,,,0.59765625,0.09765625,0,0,0,,0,175,175,402,1,
,,,,,,,,,,,,,,,,,,5efc7246abf5130132092e31,2020-08-10_19h31.18.300,lexical_decision_task_MP,2020.1.3,Win32,60,z,1,,,,,,,,0.659395,1,,,,,,363,NW,"ID",50,breali,BREALI,z,0.659395,,,,,,,0.59765625,0.09765625,0,0,0,,0,176,176,302,1,
,,,,,,,,,,,,,,,,,,5efc7246abf5130132092e31,2020-08-10_19h31.18.300,lexical_decision_task_MP,2020.1.3,Win32,60,z,1,,,,,,,,0.58146,1,,,,,,322,NW,"ID",33,slanch,SLANCH,z,0.58146,,,,,,,0.59765625,0.09765625,0,0,0,,0,177,177,261,1,
,,,,,,,,,,,,,,,,,,5efc7246abf5130132092e31,2020-08-10_19h31.18.300,lexical_decision_task_MP,2020.1.3,Win32,60,m,1,,,,,,,,0.663035,1,,,,,,203,WORD,UN,33,burden,PHRASE,m,0.663035,,,,,,,0.59765625,0.09765625,0,0,0,,0,178,178,142,1,
,,,,,,,,,,,,,,,,,,5efc7246abf5130132092e31,2020-08-10_19h31.18.300,lexical_decision_task_MP,2020.1.3,Win32,60,m,1,,,,,,,,0.466105,1,,,,,,144,WORD,"ID",50,sponge,SPONGE,m,0.466105,,,,,,,0.59765625,0.09765625,0,0,0,,0,179,179,83,1,
,,,,,,,,,,,,,,,,,,5efc7246abf5130132092e31,2020-08-10_19h31.18.300,lexical_decision_task_MP,2020.1.3,Win32,60,z,1,,,,,,,,0.474595,1,,,,,,385,NW,"ID",50,veigma,VEIGMA,z,0.474595,,,,,,,0.59765625,0.09765625,0,0,0,,0,180,180,324,1,
,,,,,,,,,,,,,,,,,,5efc7246abf5130132092e31,2020-08-10_19h31.18.300,lexical_decision_task_MP,2020.1.3,Win32,60,m,1,,,,,,,,0.65185,1,,,,,,45,WORD,UN,50,single,CLERGY,m,0.65185,,,,,,,0.59765625,0.09765625,0,0,0,,0,181,181,224,1,
,,,,,,,,,,,,,,,,,,5efc7246abf5130132092e31,2020-08-10_19h31.18.300,lexical_decision_task_MP,2020.1.3,Win32,60,z,1,,,,,,,,0.55271,1,,,,,,333,NW,"ID",33,catrie,CATRIE,z,0.55271,,,,,,,0.59765625,0.09765625,0,0,0,,0,182,182,272,1,
,,,,,,,,,,,,,,,,,,5efc7246abf5130132092e31,2020-08-10_19h31.18.300,lexical_decision_task_MP,2020.1.3,Win32,60,z,1,,,,,,,,0.55606,1,,,,,,441,NW,UN,33,aboune,RASTOE,z,0.55606,,,,,,,0.59765625,0.09765625,0,0,0,,0,183,183,380,1,
,,,,,,,,,,,,,,,,,,5efc7246abf5130132092e31,2020-08-10_19h31.18.300,lexical_decision_task_MP,2020.1.3,Win32,60,z,1,,,,,,,,0.794835,1,,,,,,416,NW,"ID",50,pathel,PATHEL,z,0.794835,,,,,,,0.59765625,0.09765625,0,0,0,,0,184,184,355,1,
,,,,,,,,,,,,,,,,,,5efc7246abf5130132092e31,2020-08-10_19h31.18.300,lexical_decision_task_MP,2020.1.3,Win32,60,z,1,,,,,,,,0.57382,1,,,,,,455,NW,UN,33,broget,TONDLE,z,0.57382,,,,,,,0.59765625,0.09765625,0,0,0,,0,185,185,394,1,
,,,,,,,,,,,,,,,,,,5efc7246abf5130132092e31,2020-08-10_19h31.18.300,lexical_decision_task_MP,2020.1.3,Win32,60,m,1,,,,,,,,0.6169,1,,,,,,138,WORD,"ID",50,melody,MELODY,m,0.6169,,,,,,,0.59765625,0.09765625,0,0,0,,0,186,186,77,1,
,,,,,,,,,,,,,,,,,,5efc7246abf5130132092e31,2020-08-10_19h31.18.300,lexical_decision_task_MP,2020.1.3,Win32,60,m,1,,,,,,,,0.64717,1,,,,,,201,WORD,UN,33,factor,ADMIRE,m,0.64717,,,,,,,0.59765625,0.09765625,0,0,0,,0,187,187,140,1,
,,,,,,,,,,,,,,,,,,5efc7246abf5130132092e31,2020-08-10_19h31.18.300,lexical_decision_task_MP,2020.1.3,Win32,60,m,1,,,,,,,,0.64607,1,,,,,,240,WORD,UN,33,seldom,FOREST,m,0.64607,,,,,,,0.59765625,0.09765625,0,0,0,,0,188,188,179,1,
,,,,,,,,,,,,,,,,,,5efc7246abf5130132092e31,2020-08-10_19h31.18.300,lexical_decision_task_MP,2020.1.3,Win32,60,z,1,,,,,,,,0.560095,1,,,,,,395,NW,"ID",50,colury,COLURY,z,0.560095,,,,,,,0.59765625,0.09765625,0,0,0,,0,189,189,334,1,
,,,,,,,,,,,,,,,,,,5efc7246abf5130132092e31,2020-08-10_19h31.18.300,lexical_decision_task_MP,2020.1.3,Win32,60,m,1,,,,,,,,0.615605,1,,,,,,43,WORD,UN,50,foster,TONGUE,m,0.615605,,,,,,,0.59765625,0.09765625,0,0,0,,0,190,190,222,1,
,,,,,,,,,,,,,,,,,,5efc7246abf5130132092e31,2020-08-10_19h31.18.300,lexical_decision_task_MP,2020.1.3,Win32,60,m,1,,,,,,,,0.57256,1,,,,,,136,WORD,"ID",50,bleach,BLEACH,m,0.57256,,,,,,,0.59765625,0.09765625,0,0,0,,0,191,191,75,1,
,,,,,,,,,,,,,,,,,,5efc7246abf5130132092e31,2020-08-10_19h31.18.300,lexical_decision_task_MP,2020.1.3,Win32,60,m,1,,,,,,,,0.955005,1,,,,,,118,WORD,"ID",33,flight,FLIGHT,m,0.955005,,,,,,,0.59765625,0.09765625,0,0,0,,0,192,192,57,1,
,,,,,,,,,,,,,,,,,,5efc7246abf5130132092e31,2020-08-10_19h31.18.300,lexical_decision_task_MP,2020.1.3,Win32,60,m,1,,,,,,,,0.541205,1,,,,,,58,WORD,UN,50,splint,FOSTER,m,0.541205,,,,,,,0.59765625,0.09765625,0,0,0,,0,193,193,237,1,
,,,,,,,,,,,,,,,,,,5efc7246abf5130132092e31,2020-08-10_19h31.18.300,lexical_decision_task_MP,2020.1.3,Win32,60,m,1,,,,,,,,0.562815,1,,,,,,143,WORD,"ID",50,reason,REASON,m,0.562815,,,,,,,0.59765625,0.09765625,0,0,0,,0,194,194,82,1,
,,,,,,,,,,,,,,,,,,5efc7246abf5130132092e31,2020-08-10_19h31.18.300,lexical_decision_task_MP,2020.1.3,Win32,60,m,1,,,,,,,,0.5068,1,,,,,,160,WORD,"ID",50,violet,VIOLET,m,0.5068,,,,,,,0.59765625,0.09765625,0,0,0,,0,195,195,99,1,
,,,,,,,,,,,,,,,,,,5efc7246abf5130132092e31,2020-08-10_19h31.18.300,lexical_decision_task_MP,2020.1.3,Win32,60,z,1,,,,,,,,0.61517,1,,,,,,308,NW,"ID",33,psetch,PSETCH,z,0.61517,,,,,,,0.59765625,0.09765625,0,0,0,,0,196,196,247,1,
,,,,,,,,,,,,,,,,,,5efc7246abf5130132092e31,2020-08-10_19h31.18.300,lexical_decision_task_MP,2020.1.3,Win32,60,m,1,,,,,,,,0.51291,1,,,,,,170,WORD,"ID",50,pounce,POUNCE,m,0.51291,,,,,,,0.59765625,0.09765625,0,0,0,,0,197,197,109,1,
,,,,,,,,,,,,,,,,,,5efc7246abf5130132092e31,2020-08-10_19h31.18.300,lexical_decision_task_MP,2020.1.3,Win32,60,m,0,,,,,,,,0.528975,0,,,,,,406,NW,"ID",50,nouply,NOUPLY,z,0.528975,,,,,,,0.59765625,0.09765625,0,0,0,,0,198,198,345,1,
,,,,,,,,,,,,,,,,,,5efc7246abf5130132092e31,2020-08-10_19h31.18.300,lexical_decision_task_MP,2020.1.3,Win32,60,m,1,,,,,,,,0.628805,1,,,,,,224,WORD,UN,33,vulgar,PERIOD,m,0.628805,,,,,,,0.59765625,0.09765625,0,0,0,,0,199,199,163,1,
,,,,,,,,,,,,,,,,,,5efc7246abf5130132092e31,2020-08-10_19h31.18.300,lexical_decision_task_MP,2020.1.3,Win32,60,z,1,,,,,,,,0.732405,1,,,,,,294,NW,UN,50,gleath,INHORT,z,0.732405,,,,,,,0.59765625,0.09765625,0,0,0,,0,200,200,473,1,
,,,,,,,,,,,,,,,,,,5efc7246abf5130132092e31,2020-08-10_19h31.18.300,lexical_decision_task_MP,2020.1.3,Win32,60,m,1,,,,,,,,0.656185,1,,,,,,231,WORD,UN,33,inject,EXPORT,m,0.656185,,,,,,,0.59765625,0.09765625,0,0,0,,0,201,201,170,1,
,,,,,,,,,,,,,,,,,,5efc7246abf5130132092e31,2020-08-10_19h31.18.300,lexical_decision_task_MP,2020.1.3,Win32,60,z,0,,,,,,,,0.71005,0,,,,,,90,WORD,"ID",33,relish,RELISH,m,0.71005,,,,,,,0.59765625,0.09765625,0,0,0,,0,202,202,29,1,
,,,,,,,,,,,,,,,,,,5efc7246abf5130132092e31,2020-08-10_19h31.18.300,lexical_decision_task_MP,2020.1.3,Win32,60,m,1,,,,,,,,0.569855,1,,,,,,152,WORD,"ID",50,rocket,ROCKET,m,0.569855,,,,,,,0.59765625,0.09765625,0,0,0,,0,203,203,91,1,
,,,,,,,,,,,,,,,,,,5efc7246abf5130132092e31,2020-08-10_19h31.18.300,lexical_decision_task_MP,2020.1.3,Win32,60,z,1,,,,,,,,0.71898,1,,,,,,479,NW,UN,33,crible,LOBUSH,z,0.71898,,,,,,,0.59765625,0.09765625,0,0,0,,0,204,204,418,1,
,,,,,,,,,,,,,,,,,,5efc7246abf5130132092e31,2020-08-10_19h31.18.300,lexical_decision_task_MP,2020.1.3,Win32,60,m,1,,,,,,,,1.381945,1,,,,,,52,WORD,UN,50,police,IMPOSE,m,1.381945,,,,,,,0.59765625,0.09765625,0,0,0,,0,205,205,231,1,
,,,,,,,,,,,,,,,,,,5efc7246abf5130132092e31,2020-08-10_19h31.18.300,lexical_decision_task_MP,2020.1.3,Win32,60,z,1,,,,,,,,0.56894,1,,,,,,298,NW,UN,50,sturch,PIERGY,z,0.56894,,,,,,,0.59765625,0.09765625,0,0,0,,0,206,206,477,1,
,,,,,,,,,,,,,,,,,,5efc7246abf5130132092e31,2020-08-10_19h31.18.300,lexical_decision_task_MP,2020.1.3,Win32,60,,0,,,,,,,,0.56894,-1,,,,,,286,NW,UN,50,nymbel,RELDON,z,,,,,,,,0.59765625,0.09765625,0,0,0,,0,207,207,465,1,
,,,,,,,,,,,,,,,,,,5efc7246abf5130132092e31,2020-08-10_19h31.18.300,lexical_decision_task_MP,2020.1.3,Win32,60,m,1,,,,,,,,0.511435,1,,,,,,3,WORD,UN,50,trench,KNIGHT,m,0.511435,,,,,,,0.59765625,0.09765625,0,0,0,,0,208,208,182,1,
,,,,,,,,,,,,,,,,,,5efc7246abf5130132092e31,2020-08-10_19h31.18.300,lexical_decision_task_MP,2020.1.3,Win32,60,m,1,,,,,,,,0.665745,1,,,,,,12,WORD,UN,50,strive,ORANGE,m,0.665745,,,,,,,0.59765625,0.09765625,0,0,0,,0,209,209,191,1,
,,,,,,,,,,,,,,,,,,5efc7246abf5130132092e31,2020-08-10_19h31.18.300,lexical_decision_task_MP,2020.1.3,Win32,60,m,1,,,,,,,,1.709845,1,,,,,,54,WORD,UN,50,stroke,RAMBLE,m,1.709845,,,,,,,0.59765625,0.09765625,0,0,0,,0,210,210,233,1,
,,,,,,,,,,,,,,,,,,5efc7246abf5130132092e31,2020-08-10_19h31.18.300,lexical_decision_task_MP,2020.1.3,Win32,60,m,1,,,,,,,,0.65306,1,,,,,,162,WORD,"ID",50,candle,CANDLE,m,0.65306,,,,,,,0.59765625,0.09765625,0,0,0,,0,211,211,101,1,
,,,,,,,,,,,,,,,,,,5efc7246abf5130132092e31,2020-08-10_19h31.18.300,lexical_decision_task_MP,2020.1.3,Win32,60,z,1,,,,,,,,0.79317,1,,,,,,430,NW,UN,33,chrums,CAROEY,z,0.79317,,,,,,,0.59765625,0.09765625,0,0,0,,0,212,212,369,1,
,,,,,,,,,,,,,,,,,,5efc7246abf5130132092e31,2020-08-10_19h31.18.300,lexical_decision_task_MP,2020.1.3,Win32,60,z,1,,,,,,,,1.23284,1,,,,,,394,NW,"ID",50,spaqux,SPAQUX,z,1.23284,,,,,,,0.59765625,0.09765625,0,0,0,,0,213,213,333,1,
,,,,,,,,,,,,,,,,,,5efc7246abf5130132092e31,2020-08-10_19h31.18.300,lexical_decision_task_MP,2020.1.3,Win32,60,m,1,,,,,,,,1.060355,1,,,,,,8,WORD,UN,50,hustle,ABRUPT,m,1.060355,,,,,,,0.59765625,0.09765625,0,0,0,,0,214,214,187,1,
,,,,,,,,,,,,,,,,,,5efc7246abf5130132092e31,2020-08-10_19h31.18.300,lexical_decision_task_MP,2020.1.3,Win32,60,z,1,,,,,,,,0.547365,1,,,,,,376,NW,"ID",50,iguare,IGUARE,z,0.547365,,,,,,,0.59765625,0.09765625,0,0,0,,0,215,215,315,1,
,,,,,,,,,,,,,,,,,,5efc7246abf5130132092e31,2020-08-10_19h31.18.300,lexical_decision_task_MP,2020.1.3,Win32,60,m,1,,,,,,,,0.68384,1,,,,,,65,WORD,"ID",33,symbol,SYMBOL,m,0.68384,,,,,,,0.59765625,0.09765625,0,0,0,,0,216,216,4,1,
,,,,,,,,,,,,,,,,,,5efc7246abf5130132092e31,2020-08-10_19h31.18.300,lexical_decision_task_MP,2020.1.3,Win32,60,m,1,,,,,,,,0.67892,1,,,,,,122,WORD,"ID",50,linger,LINGER,m,0.67892,,,,,,,0.59765625,0.09765625,0,0,0,,0,217,217,61,1,
,,,,,,,,,,,,,,,,,,5efc7246abf5130132092e31,2020-08-10_19h31.18.300,lexical_decision_task_MP,2020.1.3,Win32,60,z,1,,,,,,,,0.68125,1,,,,,,383,NW,"ID",50,aungre,AUNGRE,z,0.68125,,,,,,,0.59765625,0.09765625,0,0,0,,0,218,218,322,1,
,,,,,,,,,,,,,,,,,,5efc7246abf5130132092e31,2020-08-10_19h31.18.300,lexical_decision_task_MP,2020.1.3,Win32,60,z,1,,,,,,,,0.65576,1,,,,,,368,NW,"ID",50,hornal,HORNAL,z,0.65576,,,,,,,0.59765625,0.09765625,0,0,0,,0,219,219,307,1,
,,,,,,,,,,,,,,,,,,5efc7246abf5130132092e31,2020-08-10_19h31.18.300,lexical_decision_task_MP,2020.1.3,Win32,60,m,1,,,,,,,,0.605765,1,,,,,,185,WORD,UN,33,portal,BOTHER,m,0.605765,,,,,,,0.59765625,0.09765625,0,0,0,,0,220,220,124,1,
,,,,,,,,,,,,,,,,,,5efc7246abf5130132092e31,2020-08-10_19h31.18.300,lexical_decision_task_MP,2020.1.3,Win32,60,z,1,,,,,,,,0.556005,1,,,,,,371,NW,"ID",50,geiloy,GEILOY,z,0.556005,,,,,,,0.59765625,0.09765625,0,0,0,,0,221,221,310,1,
,,,,,,,,,,,,,,,,,,5efc7246abf5130132092e31,2020-08-10_19h31.18.300,lexical_decision_task_MP,2020.1.3,Win32,60,m,1,,,,,,,,0.534055,1,,,,,,175,WORD,"ID",50,fabric,FABRIC,m,0.534055,,,,,,,0.59765625,0.09765625,0,0,0,,0,222,222,114,1,
,,,,,,,,,,,,,,,,,,5efc7246abf5130132092e31,2020-08-10_19h31.18.300,lexical_decision_task_MP,2020.1.3,Win32,60,m,1,,,,,,,,0.799695,1,,,,,,173,WORD,"ID",50,shower,SHOWER,m,0.799695,,,,,,,0.59765625,0.09765625,0,0,0,,0,223,223,112,1,
,,,,,,,,,,,,,,,,,,5efc7246abf5130132092e31,2020-08-10_19h31.18.300,lexical_decision_task_MP,2020.1.3,Win32,60,m,1,,,,,,,,0.563455,1,,,,,,124,WORD,"ID",50,blouse,BLOUSE,m,0.563455,,,,,,,0.59765625,0.09765625,0,0,0,,0,224,224,63,1,
,,,,,,,,,,,,,,,,,,5efc7246abf5130132092e31,2020-08-10_19h31.18.300,lexical_decision_task_MP,2020.1.3,Win32,60,z,1,,,,,,,,0.57076,1,,,,,,292,NW,UN,50,swance,ABLINT,z,0.57076,,,,,,,0.59765625,0.09765625,0,0,0,,0,225,225,471,1,
,,,,,,,,,,,,,,,,,,5efc7246abf5130132092e31,2020-08-10_19h31.18.300,lexical_decision_task_MP,2020.1.3,Win32,60,m,1,,,,,,,,0.66968,1,,,,,,156,WORD,"ID",50,cradle,CRADLE,m,0.66968,,,,,,,0.59765625,0.09765625,0,0,0,,0,226,226,95,1,
,,,,,,,,,,,,,,,,,,5efc7246abf5130132092e31,2020-08-10_19h31.18.300,lexical_decision_task_MP,2020.1.3,Win32,60,m,1,,,,,,,,0.69717,1,,,,,,219,WORD,UN,33,voyage,BUCKET,m,0.69717,,,,,,,0.59765625,0.09765625,0,0,0,,0,227,227,158,1,
,,,,,,,,,,,,,,,,,,5efc7246abf5130132092e31,2020-08-10_19h31.18.300,lexical_decision_task_MP,2020.1.3,Win32,60,m,1,,,,,,,,1.126665,1,,,,,,125,WORD,"ID",50,nickel,NICKEL,m,1.126665,,,,,,,0.59765625,0.09765625,0,0,0,,0,228,228,64,1,
,,,,,,,,,,,,,,,,,,5efc7246abf5130132092e31,2020-08-10_19h31.18.300,lexical_decision_task_MP,2020.1.3,Win32,60,m,1,,,,,,,,0.58236,1,,,,,,213,WORD,UN,33,intake,SQUEAL,m,0.58236,,,,,,,0.59765625,0.09765625,0,0,0,,0,229,229,152,1,
,,,,,,,,,,,,,,,,,,5efc7246abf5130132092e31,2020-08-10_19h31.18.300,lexical_decision_task_MP,2020.1.3,Win32,60,m,1,,,,,,,,0.580445,1,,,,,,63,WORD,"ID",33,launch,LAUNCH,m,0.580445,,,,,,,0.59765625,0.09765625,0,0,0,,0,230,230,2,1,
,,,,,,,,,,,,,,,,,,5efc7246abf5130132092e31,2020-08-10_19h31.18.300,lexical_decision_task_MP,2020.1.3,Win32,60,m,1,,,,,,,,1.733835,1,,,,,,190,WORD,UN,33,stable,BACKUP,m,1.733835,,,,,,,0.59765625,0.09765625,0,0,0,,0,231,231,129,1,
,,,,,,,,,,,,,,,,,,5efc7246abf5130132092e31,2020-08-10_19h31.18.300,lexical_decision_task_MP,2020.1.3,Win32,60,z,1,,,,,,,,0.61942,1,,,,,,327,NW,"ID",33,plenac,PLENAC,z,0.61942,,,,,,,0.59765625,0.09765625,0,0,0,,0,232,232,266,1,
,,,,,,,,,,,,,,,,,,5efc7246abf5130132092e31,2020-08-10_19h31.18.300,lexical_decision_task_MP,2020.1.3,Win32,60,m,1,,,,,,,,0.63986,1,,,,,,123,WORD,"ID",50,strike,STRIKE,m,0.63986,,,,,,,0.59765625,0.09765625,0,0,0,,0,233,233,62,1,
,,,,,,,,,,,,,,,,,,5efc7246abf5130132092e31,2020-08-10_19h31.18.300,lexical_decision_task_MP,2020.1.3,Win32,60,z,1,,,,,,,,0.852505,1,,,,,,284,NW,UN,50,prudge,SHAPLE,z,0.852505,,,,,,,0.59765625,0.09765625,0,0,0,,0,234,234,463,1,
,,,,,,,,,,,,,,,,,,5efc7246abf5130132092e31,2020-08-10_19h31.18.300,lexical_decision_task_MP,2020.1.3,Win32,60,z,1,,,,,,,,0.779195,1,,,,,,288,NW,UN,50,starby,YACEUP,z,0.779195,,,,,,,0.59765625,0.09765625,0,0,0,,0,235,235,467,1,
,,,,,,,,,,,,,,,,,,5efc7246abf5130132092e31,2020-08-10_19h31.18.300,lexical_decision_task_MP,2020.1.3,Win32,60,z,1,,,,,,,,0.68776,1,,,,,,433,NW,UN,33,pitrom,DRANCE,z,0.68776,,,,,,,0.59765625,0.09765625,0,0,0,,0,236,236,372,1,
,,,,,,,,,,,,,,,,,,5efc7246abf5130132092e31,2020-08-10_19h31.18.300,lexical_decision_task_MP,2020.1.3,Win32,60,m,1,,,,,,,,0.941565,1,,,,,,100,WORD,"ID",33,carbon,CARBON,m,0.941565,,,,,,,0.59765625,0.09765625,0,0,0,,0,237,237,39,1,
,,,,,,,,,,,,,,,,,,5efc7246abf5130132092e31,2020-08-10_19h31.18.300,lexical_decision_task_MP,2020.1.3,Win32,60,m,1,,,,,,,,0.58704,1,,,,,,137,WORD,"ID",50,finger,FINGER,m,0.58704,,,,,,,0.59765625,0.09765625,0,0,0,,0,238,238,76,1,
,,,,,,,,,,,,,,,,,,5efc7246abf5130132092e31,2020-08-10_19h31.18.300,lexical_decision_task_MP,2020.1.3,Win32,60,z,1,,,,,,,,0.5225,1,,,,,,256,NW,UN,50,veniod,INLORS,z,0.5225,,,,,,,0.59765625,0.09765625,0,0,0,,0,239,239,435,1,
,,,,,,,,,,,,,,,,,,5efc7246abf5130132092e31,2020-08-10_19h31.18.300,lexical_decision_task_MP,2020.1.3,Win32,60,m,1,,,,,,,,0.59376,1,,,,,,73,WORD,"ID",33,source,SOURCE,m,0.59376,,,,,,,0.59765625,0.09765625,0,0,0,,0,240,240,12,1,
,,,,,,,,,,,,,,,,,,5efc7246abf5130132092e31,2020-08-10_19h31.18.300,lexical_decision_task_MP,2020.1.3,Win32,60,m,0,,,,,,,,0.987555,0,,,,,,259,NW,UN,50,unject,SOUDAL,z,0.987555,,,,,,,0.786458333,-0.0078125,0,0,0,space,0,241,241,438,1,233.65503
,,,,,,,,,,,,,,,,,,5efc7246abf5130132092e31,2020-08-10_19h31.18.300,lexical_decision_task_MP,2020.1.3,Win32,60,m,1,,,,,,,,1.474265,1,,,,,,221,WORD,UN,33,hinder,MASCOT,m,1.474265,,,,,,,0.786458333,-0.0078125,0,0,0,,0,242,242,160,1,
,,,,,,,,,,,,,,,,,,5efc7246abf5130132092e31,2020-08-10_19h31.18.300,lexical_decision_task_MP,2020.1.3,Win32,60,m,1,,,,,,,,0.69227,1,,,,,,120,WORD,"ID",33,strain,STRAIN,m,0.69227,,,,,,,0.786458333,-0.0078125,0,0,0,,0,243,243,59,1,
,,,,,,,,,,,,,,,,,,5efc7246abf5130132092e31,2020-08-10_19h31.18.300,lexical_decision_task_MP,2020.1.3,Win32,60,m,1,,,,,,,,0.509315,1,,,,,,210,WORD,UN,33,infect,MONKEY,m,0.509315,,,,,,,0.786458333,-0.0078125,0,0,0,,0,244,244,149,1,
,,,,,,,,,,,,,,,,,,5efc7246abf5130132092e31,2020-08-10_19h31.18.300,lexical_decision_task_MP,2020.1.3,Win32,60,m,1,,,,,,,,0.75343,1,,,,,,186,WORD,UN,33,course,PORTAL,m,0.75343,,,,,,,0.786458333,-0.0078125,0,0,0,,0,245,245,125,1,
,,,,,,,,,,,,,,,,,,5efc7246abf5130132092e31,2020-08-10_19h31.18.300,lexical_decision_task_MP,2020.1.3,Win32,60,m,1,,,,,,,,0.670285,1,,,,,,95,WORD,"ID",33,thread,THREAD,m,0.670285,,,,,,,0.786458333,-0.0078125,0,0,0,,0,246,246,34,1,
,,,,,,,,,,,,,,,,,,5efc7246abf5130132092e31,2020-08-10_19h31.18.300,lexical_decision_task_MP,2020.1.3,Win32,60,m,1,,,,,,,,0.64047,1,,,,,,225,WORD,UN,33,casino,VULGAR,m,0.64047,,,,,,,0.786458333,-0.0078125,0,0,0,,0,247,247,164,1,
,,,,,,,,,,,,,,,,,,5efc7246abf5130132092e31,2020-08-10_19h31.18.300,lexical_decision_task_MP,2020.1.3,Win32,60,z,1,,,,,,,,0.48959,1,,,,,,447,NW,UN,33,sadent,GIRCUE,z,0.48959,,,,,,,0.786458333,-0.0078125,0,0,0,,0,248,248,386,1,
,,,,,,,,,,,,,,,,,,5efc7246abf5130132092e31,2020-08-10_19h31.18.300,lexical_decision_task_MP,2020.1.3,Win32,60,z,0,,,,,,,,0.90279,0,,,,,,85,WORD,"ID",33,sprawl,SPRAWL,m,0.90279,,,,,,,0.786458333,-0.0078125,0,0,0,,0,249,249,24,1,
,,,,,,,,,,,,,,,,,,5efc7246abf5130132092e31,2020-08-10_19h31.18.300,lexical_decision_task_MP,2020.1.3,Win32,60,z,1,,,,,,,,0.67332,1,,,,,,400,NW,"ID",50,wearox,WEAROX,z,0.67332,,,,,,,0.786458333,-0.0078125,0,0,0,,0,250,250,339,1,
,,,,,,,,,,,,,,,,,,5efc7246abf5130132092e31,2020-08-10_19h31.18.300,lexical_decision_task_MP,2020.1.3,Win32,60,z,1,,,,,,,,0.5654,1,,,,,,422,NW,UN,33,streld,ALCOUD,z,0.5654,,,,,,,0.786458333,-0.0078125,0,0,0,,0,251,251,361,1,
,,,,,,,,,,,,,,,,,,5efc7246abf5130132092e31,2020-08-10_19h31.18.300,lexical_decision_task_MP,2020.1.3,Win32,60,z,1,,,,,,,,0.500985,1,,,,,,407,NW,"ID",50,suiver,SUIVER,z,0.500985,,,,,,,0.786458333,-0.0078125,0,0,0,,0,252,252,346,1,
,,,,,,,,,,,,,,,,,,5efc7246abf5130132092e31,2020-08-10_19h31.18.300,lexical_decision_task_MP,2020.1.3,Win32,60,m,1,,,,,,,,0.689025,1,,,,,,24,WORD,UN,50,domain,PRAISE,m,0.689025,,,,,,,0.786458333,-0.0078125,0,0,0,,0,253,253,203,1,
,,,,,,,,,,,,,,,,,,5efc7246abf5130132092e31,2020-08-10_19h31.18.300,lexical_decision_task_MP,2020.1.3,Win32,60,z,1,,,,,,,,0.75127,1,,,,,,303,NW,"ID",33,fiream,FIREAM,z,0.75127,,,,,,,0.786458333,-0.0078125,0,0,0,,0,254,254,242,1,
,,,,,,,,,,,,,,,,,,5efc7246abf5130132092e31,2020-08-10_19h31.18.300,lexical_decision_task_MP,2020.1.3,Win32,60,z,0,,,,,,,,0.918585,0,,,,,,176,WORD,"ID",50,strife,STRIFE,m,0.918585,,,,,,,0.786458333,-0.0078125,0,0,0,,0,255,255,115,1,
,,,,,,,,,,,,,,,,,,5efc7246abf5130132092e31,2020-08-10_19h31.18.300,lexical_decision_task_MP,2020.1.3,Win32,60,m,1,,,,,,,,0.5479,1,,,,,,86,WORD,"ID",33,rodent,RODENT,m,0.5479,,,,,,,0.786458333,-0.0078125,0,0,0,,0,256,256,25,1,
,,,,,,,,,,,,,,,,,,5efc7246abf5130132092e31,2020-08-10_19h31.18.300,lexical_decision_task_MP,2020.1.3,Win32,60,m,1,,,,,,,,0.511575,1,,,,,,131,WORD,"ID",50,quench,QUENCH,m,0.511575,,,,,,,0.786458333,-0.0078125,0,0,0,,0,257,257,70,1,
,,,,,,,,,,,,,,,,,,5efc7246abf5130132092e31,2020-08-10_19h31.18.300,lexical_decision_task_MP,2020.1.3,Win32,60,z,1,,,,,,,,0.572215,1,,,,,,350,NW,"ID",33,nagurs,NAGURS,z,0.572215,,,,,,,0.786458333,-0.0078125,0,0,0,,0,258,258,289,1,
,,,,,,,,,,,,,,,,,,5efc7246abf5130132092e31,2020-08-10_19h31.18.300,lexical_decision_task_MP,2020.1.3,Win32,60,z,1,,,,,,,,0.56252,1,,,,,,337,NW,"ID",33,rejols,REJOLS,z,0.56252,,,,,,,0.786458333,-0.0078125,0,0,0,,0,259,259,276,1,
,,,,,,,,,,,,,,,,,,5efc7246abf5130132092e31,2020-08-10_19h31.18.300,lexical_decision_task_MP,2020.1.3,Win32,60,m,0,,,,,,,,0.58815,0,,,,,,425,NW,UN,33,urivel,FRUDGE,z,0.58815,,,,,,,0.786458333,-0.0078125,0,0,0,,0,260,260,364,1,
,,,,,,,,,,,,,,,,,,5efc7246abf5130132092e31,2020-08-10_19h31.18.300,lexical_decision_task_MP,2020.1.3,Win32,60,m,1,,,,,,,,0.570985,1,,,,,,165,WORD,"ID",50,invest,INVEST,m,0.570985,,,,,,,0.786458333,-0.0078125,0,0,0,,0,261,261,104,1,
,,,,,,,,,,,,,,,,,,5efc7246abf5130132092e31,2020-08-10_19h31.18.300,lexical_decision_task_MP,2020.1.3,Win32,60,m,1,,,,,,,,0.585595,1,,,,,,1,WORD,UN,50,ethnic,FRIGHT,m,0.585595,,,,,,,0.786458333,-0.0078125,0,0,0,,0,262,262,180,1,
,,,,,,,,,,,,,,,,,,5efc7246abf5130132092e31,2020-08-10_19h31.18.300,lexical_decision_task_MP,2020.1.3,Win32,60,z,1,,,,,,,,0.532015,1,,,,,,313,NW,"ID",33,paurse,PAURSE,z,0.532015,,,,,,,0.786458333,-0.0078125,0,0,0,,0,263,263,252,1,
,,,,,,,,,,,,,,,,,,5efc7246abf5130132092e31,2020-08-10_19h31.18.300,lexical_decision_task_MP,2020.1.3,Win32,60,m,1,,,,,,,,0.762125,1,,,,,,239,WORD,UN,33,forest,LUMBER,m,0.762125,,,,,,,0.786458333,-0.0078125,0,0,0,,0,264,264,178,1,
,,,,,,,,,,,,,,,,,,5efc7246abf5130132092e31,2020-08-10_19h31.18.300,lexical_decision_task_MP,2020.1.3,Win32,60,z,1,,,,,,,,0.51327,1,,,,,,403,NW,"ID",50,bruats,BRUATS,z,0.51327,,,,,,,0.786458333,-0.0078125,0,0,0,,0,265,265,342,1,
,,,,,,,,,,,,,,,,,,5efc7246abf5130132092e31,2020-08-10_19h31.18.300,lexical_decision_task_MP,2020.1.3,Win32,60,m,1,,,,,,,,0.622825,1,,,,,,222,WORD,UN,33,export,HINDER,m,0.622825,,,,,,,0.786458333,-0.0078125,0,0,0,,0,266,266,161,1,
,,,,,,,,,,,,,,,,,,5efc7246abf5130132092e31,2020-08-10_19h31.18.300,lexical_decision_task_MP,2020.1.3,Win32,60,z,1,,,,,,,,0.62043,1,,,,,,409,NW,"ID",50,elopia,ELOPIA,z,0.62043,,,,,,,0.786458333,-0.0078125,0,0,0,,0,267,267,348,1,
,,,,,,,,,,,,,,,,,,5efc7246abf5130132092e31,2020-08-10_19h31.18.300,lexical_decision_task_MP,2020.1.3,Win32,60,m,1,,,,,,,,0.55601,1,,,,,,135,WORD,"ID",50,import,IMPORT,m,0.55601,,,,,,,0.786458333,-0.0078125,0,0,0,,0,268,268,74,1,
,,,,,,,,,,,,,,,,,,5efc7246abf5130132092e31,2020-08-10_19h31.18.300,lexical_decision_task_MP,2020.1.3,Win32,60,z,1,,,,,,,,0.82659,1,,,,,,244,NW,UN,50,anougs,EATRIC,z,0.82659,,,,,,,0.786458333,-0.0078125,0,0,0,,0,269,269,423,1,
,,,,,,,,,,,,,,,,,,5efc7246abf5130132092e31,2020-08-10_19h31.18.300,lexical_decision_task_MP,2020.1.3,Win32,60,m,1,,,,,,,,0.49538,1,,,,,,130,WORD,"ID",50,stupid,STUPID,m,0.49538,,,,,,,0.786458333,-0.0078125,0,0,0,,0,270,270,69,1,
,,,,,,,,,,,,,,,,,,5efc7246abf5130132092e31,2020-08-10_19h31.18.300,lexical_decision_task_MP,2020.1.3,Win32,60,m,1,,,,,,,,0.547515,1,,,,,,94,WORD,"ID",33,travel,TRAVEL,m,0.547515,,,,,,,0.786458333,-0.0078125,0,0,0,,0,271,271,33,1,
,,,,,,,,,,,,,,,,,,5efc7246abf5130132092e31,2020-08-10_19h31.18.300,lexical_decision_task_MP,2020.1.3,Win32,60,m,1,,,,,,,,0.615535,1,,,,,,71,WORD,"ID",33,garden,GARDEN,m,0.615535,,,,,,,0.786458333,-0.0078125,0,0,0,,0,272,272,10,1,
,,,,,,,,,,,,,,,,,,5efc7246abf5130132092e31,2020-08-10_19h31.18.300,lexical_decision_task_MP,2020.1.3,Win32,60,m,1,,,,,,,,0.55058,1,,,,,,132,WORD,"ID",50,strong,STRONG,m,0.55058,,,,,,,0.786458333,-0.0078125,0,0,0,,0,273,273,71,1,
,,,,,,,,,,,,,,,,,,5efc7246abf5130132092e31,2020-08-10_19h31.18.300,lexical_decision_task_MP,2020.1.3,Win32,60,m,1,,,,,,,,0.52388,1,,,,,,195,WORD,UN,33,credit,RESIGN,m,0.52388,,,,,,,0.786458333,-0.0078125,0,0,0,,0,274,274,134,1,
,,,,,,,,,,,,,,,,,,5efc7246abf5130132092e31,2020-08-10_19h31.18.300,lexical_decision_task_MP,2020.1.3,Win32,60,z,1,,,,,,,,0.54876,1,,,,,,263,NW,UN,50,vackel,DOLICA,z,0.54876,,,,,,,0.786458333,-0.0078125,0,0,0,,0,275,275,442,1,
,,,,,,,,,,,,,,,,,,5efc7246abf5130132092e31,2020-08-10_19h31.18.300,lexical_decision_task_MP,2020.1.3,Win32,60,m,1,,,,,,,,0.646915,1,,,,,,14,WORD,UN,50,orange,ALMOST,m,0.646915,,,,,,,0.786458333,-0.0078125,0,0,0,,0,276,276,193,1,
,,,,,,,,,,,,,,,,,,5efc7246abf5130132092e31,2020-08-10_19h31.18.300,lexical_decision_task_MP,2020.1.3,Win32,60,z,1,,,,,,,,0.878205,1,,,,,,330,NW,"ID",33,kensom,KENSOM,z,0.878205,,,,,,,0.786458333,-0.0078125,0,0,0,,0,277,277,269,1,
,,,,,,,,,,,,,,,,,,5efc7246abf5130132092e31,2020-08-10_19h31.18.300,lexical_decision_task_MP,2020.1.3,Win32,60,z,1,,,,,,,,0.50777,1,,,,,,391,NW,"ID",50,theldy,THELDY,z,0.50777,,,,,,,0.786458333,-0.0078125,0,0,0,,0,278,278,330,1,
,,,,,,,,,,,,,,,,,,5efc7246abf5130132092e31,2020-08-10_19h31.18.300,lexical_decision_task_MP,2020.1.3,Win32,60,z,1,,,,,,,,0.503515,1,,,,,,311,NW,"ID",33,sproly,SPROLY,z,0.503515,,,,,,,0.786458333,-0.0078125,0,0,0,,0,279,279,250,1,
,,,,,,,,,,,,,,,,,,5efc7246abf5130132092e31,2020-08-10_19h31.18.300,lexical_decision_task_MP,2020.1.3,Win32,60,z,1,,,,,,,,0.687865,1,,,,,,372,NW,"ID",50,ramily,RAMILY,z,0.687865,,,,,,,0.786458333,-0.0078125,0,0,0,,0,280,280,311,1,
,,,,,,,,,,,,,,,,,,5efc7246abf5130132092e31,2020-08-10_19h31.18.300,lexical_decision_task_MP,2020.1.3,Win32,60,z,1,,,,,,,,0.536775,1,,,,,,428,NW,UN,33,funtle,TANDLY,z,0.536775,,,,,,,0.786458333,-0.0078125,0,0,0,,0,281,281,367,1,
,,,,,,,,,,,,,,,,,,5efc7246abf5130132092e31,2020-08-10_19h31.18.300,lexical_decision_task_MP,2020.1.3,Win32,60,z,1,,,,,,,,0.841,1,,,,,,354,NW,"ID",33,virlex,VIRLEX,z,0.841,,,,,,,0.786458333,-0.0078125,0,0,0,,0,282,282,293,1,
,,,,,,,,,,,,,,,,,,5efc7246abf5130132092e31,2020-08-10_19h31.18.300,lexical_decision_task_MP,2020.1.3,Win32,60,z,1,,,,,,,,0.92349,1,,,,,,454,NW,UN,33,tondle,SCOUGE,z,0.92349,,,,,,,0.786458333,-0.0078125,0,0,0,,0,283,283,393,1,
,,,,,,,,,,,,,,,,,,5efc7246abf5130132092e31,2020-08-10_19h31.18.300,lexical_decision_task_MP,2020.1.3,Win32,60,m,1,,,,,,,,0.5844,1,,,,,,13,WORD,UN,50,almost,STRIVE,m,0.5844,,,,,,,0.786458333,-0.0078125,0,0,0,,0,284,284,192,1,
,,,,,,,,,,,,,,,,,,5efc7246abf5130132092e31,2020-08-10_19h31.18.300,lexical_decision_task_MP,2020.1.3,Win32,60,z,1,,,,,,,,0.482125,1,,,,,,480,NW,UN,33,knisma,ROBULY,z,0.482125,,,,,,,0.786458333,-0.0078125,0,0,0,,0,285,285,419,1,
,,,,,,,,,,,,,,,,,,5efc7246abf5130132092e31,2020-08-10_19h31.18.300,lexical_decision_task_MP,2020.1.3,Win32,60,z,0,,,,,,,,0.56643,0,,,,,,30,WORD,UN,50,weapon,ORIENT,m,0.56643,,,,,,,0.786458333,-0.0078125,0,0,0,,0,286,286,209,1,
,,,,,,,,,,,,,,,,,,5efc7246abf5130132092e31,2020-08-10_19h31.18.300,lexical_decision_task_MP,2020.1.3,Win32,60,z,1,,,,,,,,0.521395,1,,,,,,323,NW,"ID",33,rosail,ROSAIL,z,0.521395,,,,,,,0.786458333,-0.0078125,0,0,0,,0,287,287,262,1,
,,,,,,,,,,,,,,,,,,5efc7246abf5130132092e31,2020-08-10_19h31.18.300,lexical_decision_task_MP,2020.1.3,Win32,60,m,1,,,,,,,,0.470895,1,,,,,,159,WORD,"ID",50,detail,DETAIL,m,0.470895,,,,,,,0.786458333,-0.0078125,0,0,0,,0,288,288,98,1,
,,,,,,,,,,,,,,,,,,5efc7246abf5130132092e31,2020-08-10_19h31.18.300,lexical_decision_task_MP,2020.1.3,Win32,60,z,1,,,,,,,,0.57579,1,,,,,,246,NW,UN,50,blarge,PIATON,z,0.57579,,,,,,,0.786458333,-0.0078125,0,0,0,,0,289,289,425,1,
,,,,,,,,,,,,,,,,,,5efc7246abf5130132092e31,2020-08-10_19h31.18.300,lexical_decision_task_MP,2020.1.3,Win32,60,z,1,,,,,,,,0.51273,1,,,,,,267,NW,UN,50,packes,PASINK,z,0.51273,,,,,,,0.786458333,-0.0078125,0,0,0,,0,290,290,446,1,
,,,,,,,,,,,,,,,,,,5efc7246abf5130132092e31,2020-08-10_19h31.18.300,lexical_decision_task_MP,2020.1.3,Win32,60,m,1,,,,,,,,0.73955,1,,,,,,235,WORD,UN,33,pirate,GRUMPY,m,0.73955,,,,,,,0.786458333,-0.0078125,0,0,0,,0,291,291,174,1,
,,,,,,,,,,,,,,,,,,5efc7246abf5130132092e31,2020-08-10_19h31.18.300,lexical_decision_task_MP,2020.1.3,Win32,60,m,1,,,,,,,,0.52293,1,,,,,,101,WORD,"ID",33,wrench,WRENCH,m,0.52293,,,,,,,0.786458333,-0.0078125,0,0,0,,0,292,292,40,1,
,,,,,,,,,,,,,,,,,,5efc7246abf5130132092e31,2020-08-10_19h31.18.300,lexical_decision_task_MP,2020.1.3,Win32,60,m,1,,,,,,,,0.636455,1,,,,,,16,WORD,UN,50,charge,FAUCET,m,0.636455,,,,,,,0.786458333,-0.0078125,0,0,0,,0,293,293,195,1,
,,,,,,,,,,,,,,,,,,5efc7246abf5130132092e31,2020-08-10_19h31.18.300,lexical_decision_task_MP,2020.1.3,Win32,60,z,1,,,,,,,,0.5654,1,,,,,,278,NW,UN,50,celond,UNIGHS,z,0.5654,,,,,,,0.786458333,-0.0078125,0,0,0,,0,294,294,457,1,
,,,,,,,,,,,,,,,,,,5efc7246abf5130132092e31,2020-08-10_19h31.18.300,lexical_decision_task_MP,2020.1.3,Win32,60,m,1,,,,,,,,0.716305,1,,,,,,212,WORD,UN,33,squeal,VERIFY,m,0.716305,,,,,,,0.786458333,-0.0078125,0,0,0,,0,295,295,151,1,
,,,,,,,,,,,,,,,,,,5efc7246abf5130132092e31,2020-08-10_19h31.18.300,lexical_decision_task_MP,2020.1.3,Win32,60,m,1,,,,,,,,0.530475,1,,,,,,89,WORD,"ID",33,permit,PERMIT,m,0.530475,,,,,,,0.786458333,-0.0078125,0,0,0,,0,296,296,28,1,
,,,,,,,,,,,,,,,,,,5efc7246abf5130132092e31,2020-08-10_19h31.18.300,lexical_decision_task_MP,2020.1.3,Win32,60,z,1,,,,,,,,0.697495,1,,,,,,306,NW,"ID",33,sounge,SOUNGE,z,0.697495,,,,,,,0.786458333,-0.0078125,0,0,0,,0,297,297,245,1,
,,,,,,,,,,,,,,,,,,5efc7246abf5130132092e31,2020-08-10_19h31.18.300,lexical_decision_task_MP,2020.1.3,Win32,60,m,1,,,,,,,,0.56576,1,,,,,,189,WORD,UN,33,backup,CENSOR,m,0.56576,,,,,,,0.786458333,-0.0078125,0,0,0,,0,298,298,128,1,
,,,,,,,,,,,,,,,,,,5efc7246abf5130132092e31,2020-08-10_19h31.18.300,lexical_decision_task_MP,2020.1.3,Win32,60,m,1,,,,,,,,0.662095,1,,,,,,192,WORD,UN,33,object,PLAGUE,m,0.662095,,,,,,,0.786458333,-0.0078125,0,0,0,,0,299,299,131,1,
,,,,,,,,,,,,,,,,,,5efc7246abf5130132092e31,2020-08-10_19h31.18.300,lexical_decision_task_MP,2020.1.3,Win32,60,m,0,,,,,,,,0.720365,0,,,,,,295,NW,UN,50,beinch,GLEATH,z,0.720365,,,,,,,0.786458333,-0.0078125,0,0,0,,0,300,300,474,1,
,,,,,,,,,,,,,,,,,,5efc7246abf5130132092e31,2020-08-10_19h31.18.300,lexical_decision_task_MP,2020.1.3,Win32,60,m,1,,,,,,,,0.667505,1,,,,,,115,WORD,"ID",33,guitar,GUITAR,m,0.667505,,,,,,,0.786458333,-0.0078125,0,0,0,,0,301,301,54,1,
,,,,,,,,,,,,,,,,,,5efc7246abf5130132092e31,2020-08-10_19h31.18.300,lexical_decision_task_MP,2020.1.3,Win32,60,z,1,,,,,,,,0.521045,1,,,,,,477,NW,UN,33,lobush,PHOTIE,z,0.521045,,,,,,,0.786458333,-0.0078125,0,0,0,,0,302,302,416,1,
,,,,,,,,,,,,,,,,,,5efc7246abf5130132092e31,2020-08-10_19h31.18.300,lexical_decision_task_MP,2020.1.3,Win32,60,z,1,,,,,,,,0.60019,1,,,,,,439,NW,UN,33,saride,LIMPOR,z,0.60019,,,,,,,0.786458333,-0.0078125,0,0,0,,0,303,303,378,1,
,,,,,,,,,,,,,,,,,,5efc7246abf5130132092e31,2020-08-10_19h31.18.300,lexical_decision_task_MP,2020.1.3,Win32,60,m,1,,,,,,,,0.665255,1,,,,,,230,WORD,UN,33,mother,FRINGE,m,0.665255,,,,,,,0.786458333,-0.0078125,0,0,0,,0,304,304,169,1,
,,,,,,,,,,,,,,,,,,5efc7246abf5130132092e31,2020-08-10_19h31.18.300,lexical_decision_task_MP,2020.1.3,Win32,60,m,1,,,,,,,,0.696595,1,,,,,,6,WORD,UN,50,anchor,BUNDLE,m,0.696595,,,,,,,0.786458333,-0.0078125,0,0,0,,0,305,305,185,1,
,,,,,,,,,,,,,,,,,,5efc7246abf5130132092e31,2020-08-10_19h31.18.300,lexical_decision_task_MP,2020.1.3,Win32,60,m,1,,,,,,,,0.572735,1,,,,,,139,WORD,"ID",50,debris,DEBRIS,m,0.572735,,,,,,,0.786458333,-0.0078125,0,0,0,,0,306,306,78,1,
,,,,,,,,,,,,,,,,,,5efc7246abf5130132092e31,2020-08-10_19h31.18.300,lexical_decision_task_MP,2020.1.3,Win32,60,m,1,,,,,,,,0.467045,1,,,,,,78,WORD,"ID",33,column,COLUMN,m,0.467045,,,,,,,0.786458333,-0.0078125,0,0,0,,0,307,307,17,1,
,,,,,,,,,,,,,,,,,,5efc7246abf5130132092e31,2020-08-10_19h31.18.300,lexical_decision_task_MP,2020.1.3,Win32,60,m,1,,,,,,,,0.445615,1,,,,,,44,WORD,UN,50,clergy,DANGER,m,0.445615,,,,,,,0.786458333,-0.0078125,0,0,0,,0,308,308,223,1,
,,,,,,,,,,,,,,,,,,5efc7246abf5130132092e31,2020-08-10_19h31.18.300,lexical_decision_task_MP,2020.1.3,Win32,60,m,1,,,,,,,,0.477955,1,,,,,,121,WORD,"ID",50,thrive,THRIVE,m,0.477955,,,,,,,0.786458333,-0.0078125,0,0,0,,0,309,309,60,1,
,,,,,,,,,,,,,,,,,,5efc7246abf5130132092e31,2020-08-10_19h31.18.300,lexical_decision_task_MP,2020.1.3,Win32,60,z,1,,,,,,,,0.542845,1,,,,,,404,NW,"ID",50,cluirm,CLUIRM,z,0.542845,,,,,,,0.786458333,-0.0078125,0,0,0,,0,310,310,343,1,
,,,,,,,,,,,,,,,,,,5efc7246abf5130132092e31,2020-08-10_19h31.18.300,lexical_decision_task_MP,2020.1.3,Win32,60,m,1,,,,,,,,0.51622,1,,,,,,204,WORD,UN,33,lounge,BURDEN,m,0.51622,,,,,,,0.786458333,-0.0078125,0,0,0,,0,311,311,143,1,
,,,,,,,,,,,,,,,,,,5efc7246abf5130132092e31,2020-08-10_19h31.18.300,lexical_decision_task_MP,2020.1.3,Win32,60,m,1,,,,,,,,0.56381,1,,,,,,167,WORD,"ID",50,design,DESIGN,m,0.56381,,,,,,,0.786458333,-0.0078125,0,0,0,,0,312,312,106,1,
,,,,,,,,,,,,,,,,,,5efc7246abf5130132092e31,2020-08-10_19h31.18.300,lexical_decision_task_MP,2020.1.3,Win32,60,m,1,,,,,,,,0.684385,1,,,,,,42,WORD,UN,50,tongue,CHAPEL,m,0.684385,,,,,,,0.786458333,-0.0078125,0,0,0,,0,313,313,221,1,
,,,,,,,,,,,,,,,,,,5efc7246abf5130132092e31,2020-08-10_19h31.18.300,lexical_decision_task_MP,2020.1.3,Win32,60,z,1,,,,,,,,0.85933,1,,,,,,248,NW,UN,50,batrol,STROLE,z,0.85933,,,,,,,0.786458333,-0.0078125,0,0,0,,0,314,314,427,1,
,,,,,,,,,,,,,,,,,,5efc7246abf5130132092e31,2020-08-10_19h31.18.300,lexical_decision_task_MP,2020.1.3,Win32,60,m,1,,,,,,,,0.61062,1,,,,,,194,WORD,UN,33,resign,ABSENT,m,0.61062,,,,,,,0.786458333,-0.0078125,0,0,0,,0,315,315,133,1,
,,,,,,,,,,,,,,,,,,5efc7246abf5130132092e31,2020-08-10_19h31.18.300,lexical_decision_task_MP,2020.1.3,Win32,60,z,1,,,,,,,,0.717665,1,,,,,,369,NW,"ID",50,wronch,WRONCH,z,0.717665,,,,,,,0.786458333,-0.0078125,0,0,0,,0,316,316,308,1,
,,,,,,,,,,,,,,,,,,5efc7246abf5130132092e31,2020-08-10_19h31.18.300,lexical_decision_task_MP,2020.1.3,Win32,60,z,1,,,,,,,,0.648275,1,,,,,,356,NW,"ID",33,othnis,OTHNIS,z,0.648275,,,,,,,0.786458333,-0.0078125,0,0,0,,0,317,317,295,1,
,,,,,,,,,,,,,,,,,,5efc7246abf5130132092e31,2020-08-10_19h31.18.300,lexical_decision_task_MP,2020.1.3,Win32,60,m,0,,,,,,,,0.53424,0,,,,,,461,NW,UN,33,absult,JUSTRE,z,0.53424,,,,,,,0.786458333,-0.0078125,0,0,0,,0,318,318,400,1,
,,,,,,,,,,,,,,,,,,5efc7246abf5130132092e31,2020-08-10_19h31.18.300,lexical_decision_task_MP,2020.1.3,Win32,60,m,1,,,,,,,,0.581945,1,,,,,,223,WORD,UN,33,period,KIDNEY,m,0.581945,,,,,,,0.786458333,-0.0078125,0,0,0,,0,319,319,162,1,
,,,,,,,,,,,,,,,,,,5efc7246abf5130132092e31,2020-08-10_19h31.18.300,lexical_decision_task_MP,2020.1.3,Win32,60,z,1,,,,,,,,0.548225,1,,,,,,270,NW,UN,50,aubrid,WRIMSY,z,0.548225,,,,,,,0.786458333,-0.0078125,0,0,0,,0,320,320,449,1,
,,,,,,,,,,,,,,,,,,5efc7246abf5130132092e31,2020-08-10_19h31.18.300,lexical_decision_task_MP,2020.1.3,Win32,60,z,1,,,,,,,,0.48241,1,,,,,,418,NW,"ID",50,suidle,SUIDLE,z,0.48241,,,,,,,0.786458333,-0.0078125,0,0,0,,0,321,321,357,1,
,,,,,,,,,,,,,,,,,,5efc7246abf5130132092e31,2020-08-10_19h31.18.300,lexical_decision_task_MP,2020.1.3,Win32,60,m,1,,,,,,,,0.569825,1,,,,,,215,WORD,UN,33,lumber,PHOBIA,m,0.569825,,,,,,,0.786458333,-0.0078125,0,0,0,,0,322,322,154,1,
,,,,,,,,,,,,,,,,,,5efc7246abf5130132092e31,2020-08-10_19h31.18.300,lexical_decision_task_MP,2020.1.3,Win32,60,m,1,,,,,,,,0.53237,1,,,,,,129,WORD,"ID",50,marvel,MARVEL,m,0.53237,,,,,,,0.786458333,-0.0078125,0,0,0,,0,323,323,68,1,
,,,,,,,,,,,,,,,,,,5efc7246abf5130132092e31,2020-08-10_19h31.18.300,lexical_decision_task_MP,2020.1.3,Win32,60,z,1,,,,,,,,0.651695,1,,,,,,423,NW,UN,33,praile,STRELD,z,0.651695,,,,,,,0.786458333,-0.0078125,0,0,0,,0,324,324,362,1,
,,,,,,,,,,,,,,,,,,5efc7246abf5130132092e31,2020-08-10_19h31.18.300,lexical_decision_task_MP,2020.1.3,Win32,60,m,1,,,,,,,,0.618175,1,,,,,,209,WORD,UN,33,monkey,SEARCH,m,0.618175,,,,,,,0.786458333,-0.0078125,0,0,0,,0,325,325,148,1,
,,,,,,,,,,,,,,,,,,5efc7246abf5130132092e31,2020-08-10_19h31.18.300,lexical_decision_task_MP,2020.1.3,Win32,60,z,1,,,,,,,,0.598795,1,,,,,,358,NW,"ID",33,fleack,FLEACK,z,0.598795,,,,,,,0.786458333,-0.0078125,0,0,0,,0,326,326,297,1,
,,,,,,,,,,,,,,,,,,5efc7246abf5130132092e31,2020-08-10_19h31.18.300,lexical_decision_task_MP,2020.1.3,Win32,60,m,1,,,,,,,,0.717095,1,,,,,,113,WORD,"ID",33,chorus,CHORUS,m,0.717095,,,,,,,0.786458333,-0.0078125,0,0,0,,0,327,327,52,1,
,,,,,,,,,,,,,,,,,,5efc7246abf5130132092e31,2020-08-10_19h31.18.300,lexical_decision_task_MP,2020.1.3,Win32,60,m,1,,,,,,,,0.88336,1,,,,,,116,WORD,"ID",33,tumble,TUMBLE,m,0.88336,,,,,,,0.786458333,-0.0078125,0,0,0,,0,328,328,55,1,
,,,,,,,,,,,,,,,,,,5efc7246abf5130132092e31,2020-08-10_19h31.18.300,lexical_decision_task_MP,2020.1.3,Win32,60,m,1,,,,,,,,0.61028,1,,,,,,205,WORD,UN,33,tailor,LOUNGE,m,0.61028,,,,,,,0.786458333,-0.0078125,0,0,0,,0,329,329,144,1,
,,,,,,,,,,,,,,,,,,5efc7246abf5130132092e31,2020-08-10_19h31.18.300,lexical_decision_task_MP,2020.1.3,Win32,60,z,1,,,,,,,,0.533875,1,,,,,,241,NW,UN,50,unwert,SMENCO,z,0.533875,,,,,,,0.786458333,-0.0078125,0,0,0,,0,330,330,420,1,
,,,,,,,,,,,,,,,,,,5efc7246abf5130132092e31,2020-08-10_19h31.18.300,lexical_decision_task_MP,2020.1.3,Win32,60,m,1,,,,,,,,0.58834,1,,,,,,40,WORD,UN,50,spring,CONVEY,m,0.58834,,,,,,,0.786458333,-0.0078125,0,0,0,,0,331,331,219,1,
,,,,,,,,,,,,,,,,,,5efc7246abf5130132092e31,2020-08-10_19h31.18.300,lexical_decision_task_MP,2020.1.3,Win32,60,m,1,,,,,,,,0.60585,1,,,,,,66,WORD,"ID",33,gospel,GOSPEL,m,0.60585,,,,,,,0.786458333,-0.0078125,0,0,0,,0,332,332,5,1,
,,,,,,,,,,,,,,,,,,5efc7246abf5130132092e31,2020-08-10_19h31.18.300,lexical_decision_task_MP,2020.1.3,Win32,60,m,1,,,,,,,,0.72184,1,,,,,,166,WORD,"ID",50,starch,STARCH,m,0.72184,,,,,,,0.786458333,-0.0078125,0,0,0,,0,333,333,105,1,
,,,,,,,,,,,,,,,,,,5efc7246abf5130132092e31,2020-08-10_19h31.18.300,lexical_decision_task_MP,2020.1.3,Win32,60,m,1,,,,,,,,0.814625,1,,,,,,184,WORD,UN,33,bother,SLEAZY,m,0.814625,,,,,,,0.786458333,-0.0078125,0,0,0,,0,334,334,123,1,
,,,,,,,,,,,,,,,,,,5efc7246abf5130132092e31,2020-08-10_19h31.18.300,lexical_decision_task_MP,2020.1.3,Win32,60,m,1,,,,,,,,0.55326,1,,,,,,232,WORD,UN,33,nature,INJECT,m,0.55326,,,,,,,0.786458333,-0.0078125,0,0,0,,0,335,335,171,1,
,,,,,,,,,,,,,,,,,,5efc7246abf5130132092e31,2020-08-10_19h31.18.300,lexical_decision_task_MP,2020.1.3,Win32,60,z,1,,,,,,,,0.43903,1,,,,,,334,NW,"ID",33,watmeg,WATMEG,z,0.43903,,,,,,,0.786458333,-0.0078125,0,0,0,,0,336,336,273,1,
,,,,,,,,,,,,,,,,,,5efc7246abf5130132092e31,2020-08-10_19h31.18.300,lexical_decision_task_MP,2020.1.3,Win32,60,z,1,,,,,,,,0.627785,1,,,,,,305,NW,"ID",33,forgle,FORGLE,z,0.627785,,,,,,,0.786458333,-0.0078125,0,0,0,,0,337,337,244,1,
,,,,,,,,,,,,,,,,,,5efc7246abf5130132092e31,2020-08-10_19h31.18.300,lexical_decision_task_MP,2020.1.3,Win32,60,m,0,,,,,,,,0.6599,0,,,,,,462,NW,UN,33,kispel,ABSULT,z,0.6599,,,,,,,0.786458333,-0.0078125,0,0,0,,0,338,338,401,1,
,,,,,,,,,,,,,,,,,,5efc7246abf5130132092e31,2020-08-10_19h31.18.300,lexical_decision_task_MP,2020.1.3,Win32,60,m,1,,,,,,,,0.43455,1,,,,,,161,WORD,"ID",50,pastor,PASTOR,m,0.43455,,,,,,,0.786458333,-0.0078125,0,0,0,,0,339,339,100,1,
,,,,,,,,,,,,,,,,,,5efc7246abf5130132092e31,2020-08-10_19h31.18.300,lexical_decision_task_MP,2020.1.3,Win32,60,m,1,,,,,,,,0.51051,1,,,,,,57,WORD,UN,50,danger,CHANGE,m,0.51051,,,,,,,0.786458333,-0.0078125,0,0,0,,0,340,340,236,1,
,,,,,,,,,,,,,,,,,,5efc7246abf5130132092e31,2020-08-10_19h31.18.300,lexical_decision_task_MP,2020.1.3,Win32,60,m,1,,,,,,,,0.523695,1,,,,,,7,WORD,UN,50,abrupt,ANCHOR,m,0.523695,,,,,,,0.786458333,-0.0078125,0,0,0,,0,341,341,186,1,
,,,,,,,,,,,,,,,,,,5efc7246abf5130132092e31,2020-08-10_19h31.18.300,lexical_decision_task_MP,2020.1.3,Win32,60,z,1,,,,,,,,0.55375,1,,,,,,456,NW,UN,33,wanigh,BROGET,z,0.55375,,,,,,,0.786458333,-0.0078125,0,0,0,,0,342,342,395,1,
,,,,,,,,,,,,,,,,,,5efc7246abf5130132092e31,2020-08-10_19h31.18.300,lexical_decision_task_MP,2020.1.3,Win32,60,z,1,,,,,,,,0.552035,1,,,,,,353,NW,"ID",33,clurey,CLUREY,z,0.552035,,,,,,,0.786458333,-0.0078125,0,0,0,,0,343,343,292,1,
,,,,,,,,,,,,,,,,,,5efc7246abf5130132092e31,2020-08-10_19h31.18.300,lexical_decision_task_MP,2020.1.3,Win32,60,z,1,,,,,,,,0.47564,1,,,,,,442,NW,UN,33,dorsex,ABOUNE,z,0.47564,,,,,,,0.786458333,-0.0078125,0,0,0,,0,344,344,381,1,
,,,,,,,,,,,,,,,,,,5efc7246abf5130132092e31,2020-08-10_19h31.18.300,lexical_decision_task_MP,2020.1.3,Win32,60,z,1,,,,,,,,0.770945,1,,,,,,260,NW,UN,50,stunch,UNJECT,z,0.770945,,,,,,,0.786458333,-0.0078125,0,0,0,,0,345,345,439,1,
,,,,,,,,,,,,,,,,,,5efc7246abf5130132092e31,2020-08-10_19h31.18.300,lexical_decision_task_MP,2020.1.3,Win32,60,z,0,,,,,,,,0.44614,0,,,,,,220,WORD,UN,33,mascot,VOYAGE,m,0.44614,,,,,,,0.786458333,-0.0078125,0,0,0,,0,346,346,159,1,
,,,,,,,,,,,,,,,,,,5efc7246abf5130132092e31,2020-08-10_19h31.18.300,lexical_decision_task_MP,2020.1.3,Win32,60,m,1,,,,,,,,0.53309,1,,,,,,61,WORD,"ID",33,ponder,PONDER,m,0.53309,,,,,,,0.786458333,-0.0078125,0,0,0,,0,347,347,0,1,
,,,,,,,,,,,,,,,,,,5efc7246abf5130132092e31,2020-08-10_19h31.18.300,lexical_decision_task_MP,2020.1.3,Win32,60,m,1,,,,,,,,0.509285,1,,,,,,46,WORD,UN,50,income,SINGLE,m,0.509285,,,,,,,0.786458333,-0.0078125,0,0,0,,0,348,348,225,1,
,,,,,,,,,,,,,,,,,,5efc7246abf5130132092e31,2020-08-10_19h31.18.300,lexical_decision_task_MP,2020.1.3,Win32,60,z,1,,,,,,,,0.58761,1,,,,,,266,NW,UN,50,pasink,VARMIT,z,0.58761,,,,,,,0.786458333,-0.0078125,0,0,0,,0,349,349,445,1,
,,,,,,,,,,,,,,,,,,5efc7246abf5130132092e31,2020-08-10_19h31.18.300,lexical_decision_task_MP,2020.1.3,Win32,60,m,1,,,,,,,,0.743795,1,,,,,,77,WORD,"ID",33,racket,RACKET,m,0.743795,,,,,,,0.786458333,-0.0078125,0,0,0,,0,350,350,16,1,
,,,,,,,,,,,,,,,,,,5efc7246abf5130132092e31,2020-08-10_19h31.18.300,lexical_decision_task_MP,2020.1.3,Win32,60,z,1,,,,,,,,0.55484,1,,,,,,421,NW,UN,33,alcoud,KNISMA,z,0.55484,,,,,,,0.786458333,-0.0078125,0,0,0,,0,351,351,360,1,
,,,,,,,,,,,,,,,,,,5efc7246abf5130132092e31,2020-08-10_19h31.18.300,lexical_decision_task_MP,2020.1.3,Win32,60,m,1,,,,,,,,0.517625,1,,,,,,19,WORD,UN,50,breast,PATRON,m,0.517625,,,,,,,0.786458333,-0.0078125,0,0,0,,0,352,352,198,1,
,,,,,,,,,,,,,,,,,,5efc7246abf5130132092e31,2020-08-10_19h31.18.300,lexical_decision_task_MP,2020.1.3,Win32,60,m,1,,,,,,,,0.40912,1,,,,,,62,WORD,"ID",33,region,REGION,m,0.40912,,,,,,,0.786458333,-0.0078125,0,0,0,,0,353,353,1,1,
,,,,,,,,,,,,,,,,,,5efc7246abf5130132092e31,2020-08-10_19h31.18.300,lexical_decision_task_MP,2020.1.3,Win32,60,m,1,,,,,,,,0.533035,1,,,,,,76,WORD,"ID",33,exotic,EXOTIC,m,0.533035,,,,,,,0.786458333,-0.0078125,0,0,0,,0,354,354,15,1,
,,,,,,,,,,,,,,,,,,5efc7246abf5130132092e31,2020-08-10_19h31.18.300,lexical_decision_task_MP,2020.1.3,Win32,60,z,0,,,,,,,,0.59002,0,,,,,,59,WORD,UN,50,pencil,SPLINT,m,0.59002,,,,,,,0.786458333,-0.0078125,0,0,0,,0,355,355,238,1,
,,,,,,,,,,,,,,,,,,5efc7246abf5130132092e31,2020-08-10_19h31.18.300,lexical_decision_task_MP,2020.1.3,Win32,60,z,1,,,,,,,,1.148605,1,,,,,,464,NW,UN,33,whivex,CHAITE,z,1.148605,,,,,,,0.786458333,-0.0078125,0,0,0,,0,356,356,403,1,
,,,,,,,,,,,,,,,,,,5efc7246abf5130132092e31,2020-08-10_19h31.18.300,lexical_decision_task_MP,2020.1.3,Win32,60,z,1,,,,,,,,0.57707,1,,,,,,309,NW,"ID",33,amiloy,AMILOY,z,0.57707,,,,,,,0.786458333,-0.0078125,0,0,0,,0,357,357,248,1,
,,,,,,,,,,,,,,,,,,5efc7246abf5130132092e31,2020-08-10_19h31.18.300,lexical_decision_task_MP,2020.1.3,Win32,60,m,1,,,,,,,,0.478815,1,,,,,,106,WORD,"ID",33,ransom,RANSOM,m,0.478815,,,,,,,0.786458333,-0.0078125,0,0,0,,0,358,358,45,1,
,,,,,,,,,,,,,,,,,,5efc7246abf5130132092e31,2020-08-10_19h31.18.300,lexical_decision_task_MP,2020.1.3,Win32,60,z,1,,,,,,,,0.549775,1,,,,,,402,NW,"ID",50,syntic,SYNTIC,z,0.549775,,,,,,,0.786458333,-0.0078125,0,0,0,,0,359,359,341,1,
,,,,,,,,,,,,,,,,,,5efc7246abf5130132092e31,2020-08-10_19h31.18.300,lexical_decision_task_MP,2020.1.3,Win32,60,z,1,,,,,,,,0.70766,1,,,,,,452,NW,UN,33,bolvis,SURDEN,z,0.70766,,,,,,,0.786458333,-0.0078125,0,0,0,,0,360,360,391,1,
,,,,,,,,,,,,,,,,,,5efc7246abf5130132092e31,2020-08-10_19h31.18.300,lexical_decision_task_MP,2020.1.3,Win32,60,m,0,,,,,,,,0.572275,0,,,,,,345,NW,"ID",33,absend,ABSEND,z,0.572275,,,,,,,0.786458333,-0.0078125,0,0,0,,0,361,361,284,1,
,,,,,,,,,,,,,,,,,,5efc7246abf5130132092e31,2020-08-10_19h31.18.300,lexical_decision_task_MP,2020.1.3,Win32,60,z,1,,,,,,,,0.503685,1,,,,,,438,NW,UN,33,limpor,BAITCH,z,0.503685,,,,,,,0.786458333,-0.0078125,0,0,0,space,0,362,362,377,1,1.472965
,,,,,,,,,,,,,,,,,,5efc7246abf5130132092e31,2020-08-10_19h31.18.300,lexical_decision_task_MP,2020.1.3,Win32,60,z,1,,,,,,,,0.70112,1,,,,,,405,NW,"ID",50,flumni,FLUMNI,z,0.70112,,,,,,,0.786458333,-0.0078125,0,0,0,,0,363,363,344,1,
,,,,,,,,,,,,,,,,,,5efc7246abf5130132092e31,2020-08-10_19h31.18.300,lexical_decision_task_MP,2020.1.3,Win32,60,z,1,,,,,,,,0.51943,1,,,,,,387,NW,"ID",50,gronce,GRONCE,z,0.51943,,,,,,,0.786458333,-0.0078125,0,0,0,,0,364,364,326,1,
,,,,,,,,,,,,,,,,,,5efc7246abf5130132092e31,2020-08-10_19h31.18.300,lexical_decision_task_MP,2020.1.3,Win32,60,z,1,,,,,,,,0.48142,1,,,,,,243,NW,UN,50,eatric,MUSIED,z,0.48142,,,,,,,0.786458333,-0.0078125,0,0,0,,0,365,365,422,1,
,,,,,,,,,,,,,,,,,,5efc7246abf5130132092e31,2020-08-10_19h31.18.300,lexical_decision_task_MP,2020.1.3,Win32,60,z,1,,,,,,,,0.431125,1,,,,,,373,NW,"ID",50,bigent,BIGENT,z,0.431125,,,,,,,0.786458333,-0.0078125,0,0,0,,0,366,366,312,1,
,,,,,,,,,,,,,,,,,,5efc7246abf5130132092e31,2020-08-10_19h31.18.300,lexical_decision_task_MP,2020.1.3,Win32,60,z,1,,,,,,,,0.425755,1,,,,,,444,NW,UN,33,minkel,JAUNCE,z,0.425755,,,,,,,0.786458333,-0.0078125,0,0,0,,0,367,367,383,1,
,,,,,,,,,,,,,,,,,,5efc7246abf5130132092e31,2020-08-10_19h31.18.300,lexical_decision_task_MP,2020.1.3,Win32,60,m,1,,,,,,,,0.678425,1,,,,,,22,WORD,UN,50,wealth,JOCKEY,m,0.678425,,,,,,,0.786458333,-0.0078125,0,0,0,,0,368,368,201,1,
,,,,,,,,,,,,,,,,,,5efc7246abf5130132092e31,2020-08-10_19h31.18.300,lexical_decision_task_MP,2020.1.3,Win32,60,z,1,,,,,,,,0.496765,1,,,,,,478,NW,UN,33,pebric,ACRISE,z,0.496765,,,,,,,0.786458333,-0.0078125,0,0,0,,0,369,369,417,1,
,,,,,,,,,,,,,,,,,,5efc7246abf5130132092e31,2020-08-10_19h31.18.300,lexical_decision_task_MP,2020.1.3,Win32,60,z,1,,,,,,,,0.72591,1,,,,,,255,NW,UN,50,inlors,APIGHT,z,0.72591,,,,,,,0.786458333,-0.0078125,0,0,0,,0,370,370,434,1,
,,,,,,,,,,,,,,,,,,5efc7246abf5130132092e31,2020-08-10_19h31.18.300,lexical_decision_task_MP,2020.1.3,Win32,60,z,1,,,,,,,,0.53432,1,,,,,,347,NW,"ID",33,kerift,KERIFT,z,0.53432,,,,,,,0.786458333,-0.0078125,0,0,0,,0,371,371,286,1,
,,,,,,,,,,,,,,,,,,5efc7246abf5130132092e31,2020-08-10_19h31.18.300,lexical_decision_task_MP,2020.1.3,Win32,60,z,1,,,,,,,,0.58044,1,,,,,,367,NW,"ID",50,slique,SLIQUE,z,0.58044,,,,,,,0.786458333,-0.0078125,0,0,0,,0,372,372,306,1,
,,,,,,,,,,,,,,,,,,5efc7246abf5130132092e31,2020-08-10_19h31.18.300,lexical_decision_task_MP,2020.1.3,Win32,60,z,1,,,,,,,,0.630685,1,,,,,,344,NW,"ID",33,scrily,SCRILY,z,0.630685,,,,,,,0.786458333,-0.0078125,0,0,0,,0,373,373,283,1,
,,,,,,,,,,,,,,,,,,5efc7246abf5130132092e31,2020-08-10_19h31.18.300,lexical_decision_task_MP,2020.1.3,Win32,60,z,0,,,,,,,,0.549805,0,,,,,,15,WORD,UN,50,faucet,AMOUNT,m,0.549805,,,,,,,0.786458333,-0.0078125,0,0,0,,0,374,374,194,1,
,,,,,,,,,,,,,,,,,,5efc7246abf5130132092e31,2020-08-10_19h31.18.300,lexical_decision_task_MP,2020.1.3,Win32,60,m,1,,,,,,,,0.79521,1,,,,,,10,WORD,UN,50,cruise,ETHNIC,m,0.79521,,,,,,,0.786458333,-0.0078125,0,0,0,,0,375,375,189,1,
,,,,,,,,,,,,,,,,,,5efc7246abf5130132092e31,2020-08-10_19h31.18.300,lexical_decision_task_MP,2020.1.3,Win32,60,m,1,,,,,,,,0.68478,1,,,,,,141,WORD,"ID",50,orphan,ORPHAN,m,0.68478,,,,,,,0.786458333,-0.0078125,0,0,0,,0,376,376,80,1,
,,,,,,,,,,,,,,,,,,5efc7246abf5130132092e31,2020-08-10_19h31.18.300,lexical_decision_task_MP,2020.1.3,Win32,60,z,1,,,,,,,,0.527695,1,,,,,,283,NW,UN,50,shaple,VERALF,z,0.527695,,,,,,,0.786458333,-0.0078125,0,0,0,,0,377,377,462,1,
,,,,,,,,,,,,,,,,,,5efc7246abf5130132092e31,2020-08-10_19h31.18.300,lexical_decision_task_MP,2020.1.3,Win32,60,m,1,,,,,,,,0.738875,1,,,,,,163,WORD,"ID",50,string,STRING,m,0.738875,,,,,,,0.786458333,-0.0078125,0,0,0,,0,378,378,102,1,
,,,,,,,,,,,,,,,,,,5efc7246abf5130132092e31,2020-08-10_19h31.18.300,lexical_decision_task_MP,2020.1.3,Win32,60,z,1,,,,,,,,1.05852,1,,,,,,329,NW,"ID",33,yarike,YARIKE,z,1.05852,,,,,,,0.786458333,-0.0078125,0,0,0,,0,379,379,268,1,
,,,,,,,,,,,,,,,,,,5efc7246abf5130132092e31,2020-08-10_19h31.18.300,lexical_decision_task_MP,2020.1.3,Win32,60,m,1,,,,,,,,0.542015,1,,,,,,188,WORD,UN,33,censor,SOCIAL,m,0.542015,,,,,,,0.786458333,-0.0078125,0,0,0,,0,380,380,127,1,
,,,,,,,,,,,,,,,,,,5efc7246abf5130132092e31,2020-08-10_19h31.18.300,lexical_decision_task_MP,2020.1.3,Win32,60,m,1,,,,,,,,0.77138,1,,,,,,207,WORD,UN,33,hockey,WREATH,m,0.77138,,,,,,,0.786458333,-0.0078125,0,0,0,,0,381,381,146,1,
,,,,,,,,,,,,,,,,,,5efc7246abf5130132092e31,2020-08-10_19h31.18.300,lexical_decision_task_MP,2020.1.3,Win32,60,m,1,,,,,,,,0.55802,1,,,,,,97,WORD,"ID",33,client,CLIENT,m,0.55802,,,,,,,0.786458333,-0.0078125,0,0,0,,0,382,382,36,1,
,,,,,,,,,,,,,,,,,,5efc7246abf5130132092e31,2020-08-10_19h31.18.300,lexical_decision_task_MP,2020.1.3,Win32,60,m,1,,,,,,,,0.57142,1,,,,,,112,WORD,"ID",33,breath,BREATH,m,0.57142,,,,,,,0.786458333,-0.0078125,0,0,0,,0,383,383,51,1,
,,,,,,,,,,,,,,,,,,5efc7246abf5130132092e31,2020-08-10_19h31.18.300,lexical_decision_task_MP,2020.1.3,Win32,60,z,1,,,,,,,,0.57951,1,,,,,,273,NW,UN,50,fumblo,SORTEL,z,0.57951,,,,,,,0.786458333,-0.0078125,0,0,0,,0,384,384,452,1,
,,,,,,,,,,,,,,,,,,5efc7246abf5130132092e31,2020-08-10_19h31.18.300,lexical_decision_task_MP,2020.1.3,Win32,60,m,1,,,,,,,,0.500645,1,,,,,,110,WORD,"ID",33,polite,POLITE,m,0.500645,,,,,,,0.786458333,-0.0078125,0,0,0,,0,385,385,49,1,
,,,,,,,,,,,,,,,,,,5efc7246abf5130132092e31,2020-08-10_19h31.18.300,lexical_decision_task_MP,2020.1.3,Win32,60,m,0,,,,,,,,0.49226,0,,,,,,390,NW,"ID",50,hatrus,HATRUS,z,0.49226,,,,,,,0.786458333,-0.0078125,0,0,0,,0,386,386,329,1,
,,,,,,,,,,,,,,,,,,5efc7246abf5130132092e31,2020-08-10_19h31.18.300,lexical_decision_task_MP,2020.1.3,Win32,60,z,1,,,,,,,,0.618875,1,,,,,,467,NW,UN,33,wictor,GORBIE,z,0.618875,,,,,,,0.786458333,-0.0078125,0,0,0,,0,387,387,406,1,
,,,,,,,,,,,,,,,,,,5efc7246abf5130132092e31,2020-08-10_19h31.18.300,lexical_decision_task_MP,2020.1.3,Win32,60,z,1,,,,,,,,0.953635,1,,,,,,449,NW,UN,33,phrect,BRUNGE,z,0.953635,,,,,,,0.786458333,-0.0078125,0,0,0,,0,388,388,388,1,
,,,,,,,,,,,,,,,,,,5efc7246abf5130132092e31,2020-08-10_19h31.18.300,lexical_decision_task_MP,2020.1.3,Win32,60,z,1,,,,,,,,0.443785,1,,,,,,427,NW,UN,33,tandly,SCHIND,z,0.443785,,,,,,,0.786458333,-0.0078125,0,0,0,,0,389,389,366,1,
,,,,,,,,,,,,,,,,,,5efc7246abf5130132092e31,2020-08-10_19h31.18.300,lexical_decision_task_MP,2020.1.3,Win32,60,m,1,,,,,,,,0.562055,1,,,,,,153,WORD,"ID",50,behold,BEHOLD,m,0.562055,,,,,,,0.786458333,-0.0078125,0,0,0,,0,390,390,92,1,
,,,,,,,,,,,,,,,,,,5efc7246abf5130132092e31,2020-08-10_19h31.18.300,lexical_decision_task_MP,2020.1.3,Win32,60,m,1,,,,,,,,0.5595,1,,,,,,196,WORD,UN,33,stream,CREDIT,m,0.5595,,,,,,,0.786458333,-0.0078125,0,0,0,,0,391,391,135,1,
,,,,,,,,,,,,,,,,,,5efc7246abf5130132092e31,2020-08-10_19h31.18.300,lexical_decision_task_MP,2020.1.3,Win32,60,m,1,,,,,,,,0.47208,1,,,,,,20,WORD,UN,50,simple,BREAST,m,0.47208,,,,,,,0.786458333,-0.0078125,0,0,0,,0,392,392,199,1,
,,,,,,,,,,,,,,,,,,5efc7246abf5130132092e31,2020-08-10_19h31.18.300,lexical_decision_task_MP,2020.1.3,Win32,60,m,0,,,,,,,,0.50659,0,,,,,,319,NW,"ID",33,zomber,ZOMBER,z,0.50659,,,,,,,0.786458333,-0.0078125,0,0,0,,0,393,393,258,1,
,,,,,,,,,,,,,,,,,,5efc7246abf5130132092e31,2020-08-10_19h31.18.300,lexical_decision_task_MP,2020.1.3,Win32,60,z,1,,,,,,,,0.612855,1,,,,,,310,NW,"ID",33,daniet,DANIET,z,0.612855,,,,,,,0.786458333,-0.0078125,0,0,0,,0,394,394,249,1,
,,,,,,,,,,,,,,,,,,5efc7246abf5130132092e31,2020-08-10_19h31.18.300,lexical_decision_task_MP,2020.1.3,Win32,60,z,1,,,,,,,,0.47008,1,,,,,,346,NW,"ID",33,saudic,SAUDIC,z,0.47008,,,,,,,0.786458333,-0.0078125,0,0,0,,0,395,395,285,1,
,,,,,,,,,,,,,,,,,,5efc7246abf5130132092e31,2020-08-10_19h31.18.300,lexical_decision_task_MP,2020.1.3,Win32,60,m,1,,,,,,,,0.531995,1,,,,,,133,WORD,"ID",50,chrome,CHROME,m,0.531995,,,,,,,0.786458333,-0.0078125,0,0,0,,0,396,396,72,1,
,,,,,,,,,,,,,,,,,,5efc7246abf5130132092e31,2020-08-10_19h31.18.300,lexical_decision_task_MP,2020.1.3,Win32,60,m,1,,,,,,,,0.5684,1,,,,,,75,WORD,"ID",33,trophy,TROPHY,m,0.5684,,,,,,,0.786458333,-0.0078125,0,0,0,,0,397,397,14,1,
,,,,,,,,,,,,,,,,,,5efc7246abf5130132092e31,2020-08-10_19h31.18.300,lexical_decision_task_MP,2020.1.3,Win32,60,z,1,,,,,,,,0.574325,1,,,,,,304,NW,"ID",33,cludie,CLUDIE,z,0.574325,,,,,,,0.786458333,-0.0078125,0,0,0,,0,398,398,243,1,
,,,,,,,,,,,,,,,,,,5efc7246abf5130132092e31,2020-08-10_19h31.18.300,lexical_decision_task_MP,2020.1.3,Win32,60,z,1,,,,,,,,0.60535,1,,,,,,431,NW,UN,33,lunker,CHRUMS,z,0.60535,,,,,,,0.786458333,-0.0078125,0,0,0,,0,399,399,370,1,
,,,,,,,,,,,,,,,,,,5efc7246abf5130132092e31,2020-08-10_19h31.18.300,lexical_decision_task_MP,2020.1.3,Win32,60,m,1,,,,,,,,0.4825,1,,,,,,155,WORD,"ID",50,lizard,LIZARD,m,0.4825,,,,,,,0.786458333,-0.0078125,0,0,0,,0,400,400,94,1,
,,,,,,,,,,,,,,,,,,5efc7246abf5130132092e31,2020-08-10_19h31.18.300,lexical_decision_task_MP,2020.1.3,Win32,60,m,1,,,,,,,,0.451705,1,,,,,,228,WORD,UN,33,kidney,MASTER,m,0.451705,,,,,,,0.786458333,-0.0078125,0,0,0,,0,401,401,167,1,
,,,,,,,,,,,,,,,,,,5efc7246abf5130132092e31,2020-08-10_19h31.18.300,lexical_decision_task_MP,2020.1.3,Win32,60,m,1,,,,,,,,0.50152,1,,,,,,67,WORD,"ID",33,policy,POLICY,m,0.50152,,,,,,,0.786458333,-0.0078125,0,0,0,,0,402,402,6,1,
,,,,,,,,,,,,,,,,,,5efc7246abf5130132092e31,2020-08-10_19h31.18.300,lexical_decision_task_MP,2020.1.3,Win32,60,m,1,,,,,,,,0.542665,1,,,,,,238,WORD,UN,33,behalf,FLOWER,m,0.542665,,,,,,,0.786458333,-0.0078125,0,0,0,,0,403,403,177,1,
,,,,,,,,,,,,,,,,,,5efc7246abf5130132092e31,2020-08-10_19h31.18.300,lexical_decision_task_MP,2020.1.3,Win32,60,m,1,,,,,,,,0.983065,1,,,,,,74,WORD,"ID",33,plaque,PLAQUE,m,0.983065,,,,,,,0.786458333,-0.0078125,0,0,0,,0,404,404,13,1,
,,,,,,,,,,,,,,,,,,5efc7246abf5130132092e31,2020-08-10_19h31.18.300,lexical_decision_task_MP,2020.1.3,Win32,60,m,0,,,,,,,,1.33096,0,,,,,,437,NW,UN,33,baitch,SNAPEL,z,1.33096,,,,,,,0.786458333,-0.0078125,0,0,0,,0,405,405,376,1,
,,,,,,,,,,,,,,,,,,5efc7246abf5130132092e31,2020-08-10_19h31.18.300,lexical_decision_task_MP,2020.1.3,Win32,60,m,0,,,,,,,,1.70491,0,,,,,,285,NW,UN,50,reldon,PRUDGE,z,1.70491,,,,,,,0.786458333,-0.0078125,0,0,0,,0,406,406,464,1,
,,,,,,,,,,,,,,,,,,5efc7246abf5130132092e31,2020-08-10_19h31.18.300,lexical_decision_task_MP,2020.1.3,Win32,60,z,1,,,,,,,,0.562885,1,,,,,,470,NW,UN,33,nobest,CRUDIO,z,0.562885,,,,,,,0.786458333,-0.0078125,0,0,0,,0,407,407,409,1,
