counterbalancing_condition,instr_done_keyboard.keys,instr_done_touch.x,instr_done_touch.y,instr_done_touch.leftButton,instr_done_touch.midButton,instr_done_touch.rightButton,instr_done_touch.clicked_name,instruction_pages.thisRepN,instruction_pages.thisTrialN,instruction_pages.thisN,instruction_pages.thisIndex,instruction_pages.ran,pageN,phase,instruct_text,has_image,instruct_image,participant,date,expName,psychopyVersion,OS,frameRate,response.keys,response.corr,touch_resp.x,touch_resp.y,touch_resp.leftButton,touch_resp.midButton,touch_resp.rightButton,touch_resp.time,touch_resp.clicked_name,rt,corr,practice_trials.thisRepN,practice_trials.thisTrialN,practice_trials.thisN,practice_trials.thisIndex,practice_trials.ran,TrialID,StimulusType,Condition,PrimeDuration,Prime,Target,corrAns,end_of_practice_trials_pages.thisRepN,end_of_practice_trials_pages.thisTrialN,end_of_practice_trials_pages.thisN,end_of_practice_trials_pages.thisIndex,end_of_practice_trials_pages.ran,break_done_touch.x,break_done_touch.y,break_done_touch.leftButton,break_done_touch.midButton,break_done_touch.rightButton,break_done_keyboard.keys,trials.thisRepN,trials.thisTrialN,trials.thisN,trials.thisIndex,trials.ran,break_done_touch.clicked_name
3,,-0.081589958,-0.414225941,1,0,0,instr_done_button,0,0,0,0,1,1,instructions,"INSTRUCTIONS
At the start of each trial, look at the hash marks (######) in the center of the screen. After a moment, a string of letters will appear. Your task is to indicate if the letter string forms a word or not (i.e., if it is a nonword). For example, AUTHOR is a word while AUTHON is a nonword.

Press the space bar or touch the button below to continue.",0,,5efdcff83a6844231c003073,2020-08-08_10h24.33.481,lexical_decision_task_MP,2020.1.3,iPhone,60,,,,,,,,,,,,,,,,,,,,,,,,,,,,,,,,,,,,,,,,
,,-0.071129707,-0.40167364,1,0,0,instr_done_button,0,1,1,1,1,2,instructions,"If your device has a keyboard, press the 'Z' key for nonwords and the 'M' key for words.





Press the space bar or touch the button below to continue.",1,keyboard-example.gif,5efdcff83a6844231c003073,2020-08-08_10h24.33.481,lexical_decision_task_MP,2020.1.3,iPhone,60,,,,,,,,,,,,,,,,,,,,,,,,,,,,,,,,,,,,,,,,
,,-0.060669456,-0.412133891,1,0,0,instr_done_button,0,2,2,2,1,3,instructions,"If you are using a touchscreen only device, use the buttons on the screen. Do not use the mouse.





Press the space bar or touch the button below to continue.",1,touchscreen-example.gif,5efdcff83a6844231c003073,2020-08-08_10h24.33.481,lexical_decision_task_MP,2020.1.3,iPhone,60,,,,,,,,,,,,,,,,,,,,,,,,,,,,,,,,,,,,,,,,
,,-0.094142259,-0.416317992,1,0,0,instr_done_button,0,3,3,3,1,4,instructions,"It is very important that you respond as quickly and accurately as possible, as each letter string will only be on the screen for two seconds. If you do not respond within this time, the message 'Too slow!' will be displayed and the experiment will progress to the next letter string. The first 20 trials will be practice trials and you will receive feedback on your answers. 

Press the space bar or touch the button below to start the practice trials.",0,,5efdcff83a6844231c003073,2020-08-08_10h24.33.481,lexical_decision_task_MP,2020.1.3,iPhone,60,,,,,,,,,,,,,,,,,,,,,,,,,,,,,,,,,,,,,,,,
,,,,,,,,,,,,,,,,,,5efdcff83a6844231c003073,2020-08-08_10h24.33.481,lexical_decision_task_MP,2020.1.3,iPhone,60,,0,0.510460251,-0.336820084,1,0,0,1.131,button_right,1.131,1,0,0,0,7,1,1008,WORD,UN,50,hurdle,VOLUME,m,,,,,,,,,,,,,,,,,
,,,,,,,,,,,,,,,,,,5efdcff83a6844231c003073,2020-08-08_10h24.33.481,lexical_decision_task_MP,2020.1.3,iPhone,60,,0,0.510460251,-0.336820084,1,0,0,0.718,button_right,0.718,1,0,1,1,5,1,1006,WORD,UN,33,frenzy,OBTAIN,m,,,,,,,,,,,,,,,,,
,,,,,,,,,,,,,,,,,,5efdcff83a6844231c003073,2020-08-08_10h24.33.481,lexical_decision_task_MP,2020.1.3,iPhone,60,,0,0.49790795,-0.326359833,1,0,0,0.82,button_right,0.82,0,0,2,2,10,1,1011,NW,"ID",50,inlade,INLADE,z,,,,,,,,,,,,,,,,,
,,,,,,,,,,,,,,,,,,5efdcff83a6844231c003073,2020-08-08_10h24.33.481,lexical_decision_task_MP,2020.1.3,iPhone,60,,0,0.487447699,-0.332635983,1,0,0,0.87,button_right,0.87,1,0,3,3,0,1,1001,WORD,"ID",33,utopia,UTOPIA,m,,,,,,,,,,,,,,,,,
,,,,,,,,,,,,,,,,,,5efdcff83a6844231c003073,2020-08-08_10h24.33.481,lexical_decision_task_MP,2020.1.3,iPhone,60,,0,-0.447698745,-0.282426778,1,0,0,0.703,button_left,0.703,1,0,4,4,15,1,1016,NW,UN,50,mushed,WHAISE,z,,,,,,,,,,,,,,,,,
,,,,,,,,,,,,,,,,,,5efdcff83a6844231c003073,2020-08-08_10h24.33.481,lexical_decision_task_MP,2020.1.3,iPhone,60,,0,-0.428870293,-0.280334728,1,0,0,0.804,button_left,0.804,1,0,5,5,11,1,1012,NW,"ID",50,rashet,RASHET,z,,,,,,,,,,,,,,,,,
,,,,,,,,,,,,,,,,,,5efdcff83a6844231c003073,2020-08-08_10h24.33.481,lexical_decision_task_MP,2020.1.3,iPhone,60,,0,0.460251046,-0.328451883,1,0,0,0.72,button_right,0.72,1,0,6,6,3,1,1004,WORD,"ID",50,matrix,MATRIX,m,,,,,,,,,,,,,,,,,
,,,,,,,,,,,,,,,,,,5efdcff83a6844231c003073,2020-08-08_10h24.33.481,lexical_decision_task_MP,2020.1.3,iPhone,60,,0,0.466527197,-0.309623431,1,0,0,0.861,button_right,0.861,0,0,7,7,12,1,1013,NW,UN,33,adveil,SPRINY,z,,,,,,,,,,,,,,,,,
,,,,,,,,,,,,,,,,,,5efdcff83a6844231c003073,2020-08-08_10h24.33.481,lexical_decision_task_MP,2020.1.3,iPhone,60,,0,0.50209205,-0.307531381,1,0,0,0.947,button_right,0.947,0,0,8,8,9,1,1010,NW,"ID",33,fariny,FARINY,z,,,,,,,,,,,,,,,,,
,,,,,,,,,,,,,,,,,,5efdcff83a6844231c003073,2020-08-08_10h24.33.481,lexical_decision_task_MP,2020.1.3,iPhone,60,,0,-0.451882845,-0.29916318,1,0,0,0.881,button_left,0.881,1,0,9,9,13,1,1014,NW,UN,33,winfer,ROUPET,z,,,,,,,,,,,,,,,,,
,,,,,,,,,,,,,,,,,,5efdcff83a6844231c003073,2020-08-08_10h24.33.481,lexical_decision_task_MP,2020.1.3,iPhone,60,,0,0.458158996,-0.307531381,1,0,0,0.797,button_right,0.797,1,0,10,10,1,1,1002,WORD,"ID",33,adjust,ADJUST,m,,,,,,,,,,,,,,,,,
,,,,,,,,,,,,,,,,,,5efdcff83a6844231c003073,2020-08-08_10h24.33.481,lexical_decision_task_MP,2020.1.3,iPhone,60,,0,0.468619247,-0.311715481,1,0,0,0.949,button_right,0.949,1,0,11,11,4,1,1005,WORD,UN,33,abound,SQUEAK,m,,,,,,,,,,,,,,,,,
,,,,,,,,,,,,,,,,,,5efdcff83a6844231c003073,2020-08-08_10h24.33.481,lexical_decision_task_MP,2020.1.3,iPhone,60,,0,-0.470711297,-0.292887029,1,0,0,0.769,button_left,0.769,1,0,12,12,14,1,1015,NW,UN,50,miaber,THRALE,z,,,,,,,,,,,,,,,,,
,,,,,,,,,,,,,,,,,,5efdcff83a6844231c003073,2020-08-08_10h24.33.481,lexical_decision_task_MP,2020.1.3,iPhone,60,,0,-0.430962343,-0.330543933,1,0,0,0.795,button_left,0.795,1,0,13,13,8,1,1009,NW,"ID",33,aslert,ASLERT,z,,,,,,,,,,,,,,,,,
,,,,,,,,,,,,,,,,,,5efdcff83a6844231c003073,2020-08-08_10h24.33.481,lexical_decision_task_MP,2020.1.3,iPhone,60,,0,0.506276151,-0.320083682,1,0,0,0.571,button_right,0.571,1,0,14,14,2,1,1003,WORD,"ID",50,almond,ALMOND,m,,,,,,,,,,,,,,,,,
,,,,,,,,,,,,,,,,,,5efdcff83a6844231c003073,2020-08-08_10h24.33.481,lexical_decision_task_MP,2020.1.3,iPhone,60,,0,0.491631799,-0.309623431,1,0,0,0.684,button_right,0.684,1,0,15,15,6,1,1007,WORD,UN,50,tropic,ZOMBIE,m,,,,,,,,,,,,,,,,,
,,-0.052301255,-0.414225941,1,0,0,instr_done_button,,,,,,1,end_of_practice,"You have completed the practice trials. During the experimental trials, you will not receive feedback, but it is very important that you respond as quickly and accurately as possible. 
Before you begin, please ensure that you are in a comfortable and quiet location and will not be disturbed for about 25 minutes, as we cannot use your data if you do not complete all the trials. 
There will be opportunities to take breaks at regular intervals during the experiment. When you are ready to start the experimental trials, please press space or touch the button below.",,,5efdcff83a6844231c003073,2020-08-08_10h24.33.481,lexical_decision_task_MP,2020.1.3,iPhone,60,,,,,,,,,,,,,,,,,,,,,,,,0,0,0,0,1,,,,,,,,,,,,
,,,,,,,,,,,,,,,,,,5efdcff83a6844231c003073,2020-08-08_10h24.33.481,lexical_decision_task_MP,2020.1.3,iPhone,60,,0,-0.372384937,-0.284518828,1,0,0,0.821,button_left,0.821,1,,,,,,306,NW,"ID",33,sounge,SOUNGE,z,,,,,,-0.372384937,-0.284518828,1,0,0,,0,0,0,245,1,
,,,,,,,,,,,,,,,,,,5efdcff83a6844231c003073,2020-08-08_10h24.33.481,lexical_decision_task_MP,2020.1.3,iPhone,60,,0,-0.39748954,-0.29916318,1,0,0,0.823,button_left,0.823,1,,,,,,379,NW,"ID",50,auting,AUTING,z,,,,,,-0.39748954,-0.29916318,1,0,0,,0,1,1,318,1,
,,,,,,,,,,,,,,,,,,5efdcff83a6844231c003073,2020-08-08_10h24.33.481,lexical_decision_task_MP,2020.1.3,iPhone,60,,0,-0.416317992,-0.313807531,1,0,0,0.88,button_left,0.88,1,,,,,,479,NW,UN,33,crible,LOBUSH,z,,,,,,-0.416317992,-0.313807531,1,0,0,,0,2,2,418,1,
,,,,,,,,,,,,,,,,,,5efdcff83a6844231c003073,2020-08-08_10h24.33.481,lexical_decision_task_MP,2020.1.3,iPhone,60,,0,-0.447698745,-0.309623431,1,0,0,0.985,button_left,0.985,1,,,,,,439,NW,UN,33,saride,LIMPOR,z,,,,,,-0.447698745,-0.309623431,1,0,0,,0,3,3,378,1,
,,,,,,,,,,,,,,,,,,5efdcff83a6844231c003073,2020-08-08_10h24.33.481,lexical_decision_task_MP,2020.1.3,iPhone,60,,0,0.479079498,-0.336820084,1,0,0,0.689,button_right,0.689,1,,,,,,192,WORD,UN,33,object,PLAGUE,m,,,,,,0.479079498,-0.336820084,1,0,0,,0,4,4,131,1,
,,,,,,,,,,,,,,,,,,5efdcff83a6844231c003073,2020-08-08_10h24.33.481,lexical_decision_task_MP,2020.1.3,iPhone,60,,0,-0.435146444,-0.326359833,1,0,0,0.822,button_left,0.822,1,,,,,,370,NW,"ID",50,sleact,SLEACT,z,,,,,,-0.435146444,-0.326359833,1,0,0,,0,5,5,309,1,
,,,,,,,,,,,,,,,,,,5efdcff83a6844231c003073,2020-08-08_10h24.33.481,lexical_decision_task_MP,2020.1.3,iPhone,60,,0,0.506276151,-0.332635983,1,0,0,0.654,button_right,0.654,1,,,,,,160,WORD,"ID",50,violet,VIOLET,m,,,,,,0.506276151,-0.332635983,1,0,0,,0,6,6,99,1,
,,,,,,,,,,,,,,,,,,5efdcff83a6844231c003073,2020-08-08_10h24.33.481,lexical_decision_task_MP,2020.1.3,iPhone,60,,0,0.485355649,-0.332635983,1,0,0,0.644,button_right,0.644,1,,,,,,236,WORD,UN,33,grumpy,PIRATE,m,,,,,,0.485355649,-0.332635983,1,0,0,,0,7,7,175,1,
,,,,,,,,,,,,,,,,,,5efdcff83a6844231c003073,2020-08-08_10h24.33.481,lexical_decision_task_MP,2020.1.3,iPhone,60,,0,-0.462343096,-0.315899582,1,0,0,0.804,button_left,0.804,1,,,,,,426,NW,UN,33,schind,URIVEL,z,,,,,,-0.462343096,-0.315899582,1,0,0,,0,8,8,365,1,
,,,,,,,,,,,,,,,,,,5efdcff83a6844231c003073,2020-08-08_10h24.33.481,lexical_decision_task_MP,2020.1.3,iPhone,60,,0,-0.493723849,-0.274058577,1,0,0,0.703,button_left,0.703,1,,,,,,401,NW,"ID",50,mustil,MUSTIL,z,,,,,,-0.493723849,-0.274058577,1,0,0,,0,9,9,340,1,
,,,,,,,,,,,,,,,,,,5efdcff83a6844231c003073,2020-08-08_10h24.33.481,lexical_decision_task_MP,2020.1.3,iPhone,60,,0,0.516736402,-0.326359833,1,0,0,0.637,button_right,0.637,1,,,,,,201,WORD,UN,33,factor,ADMIRE,m,,,,,,0.516736402,-0.326359833,1,0,0,,0,10,10,140,1,
,,,,,,,,,,,,,,,,,,5efdcff83a6844231c003073,2020-08-08_10h24.33.481,lexical_decision_task_MP,2020.1.3,iPhone,60,,0,-0.50209205,-0.280334728,1,0,0,0.688,button_left,0.688,1,,,,,,441,NW,UN,33,aboune,RASTOE,z,,,,,,-0.50209205,-0.280334728,1,0,0,,0,11,11,380,1,
,,,,,,,,,,,,,,,,,,5efdcff83a6844231c003073,2020-08-08_10h24.33.481,lexical_decision_task_MP,2020.1.3,iPhone,60,,0,-0.523012552,-0.274058577,1,0,0,0.719,button_left,0.719,1,,,,,,443,NW,UN,33,jaunce,DORSEX,z,,,,,,-0.523012552,-0.274058577,1,0,0,,0,12,12,382,1,
,,,,,,,,,,,,,,,,,,5efdcff83a6844231c003073,2020-08-08_10h24.33.481,lexical_decision_task_MP,2020.1.3,iPhone,60,,0,0.512552301,-0.332635983,1,0,0,0.571,button_right,0.571,1,,,,,,28,WORD,UN,50,sketch,COMEDY,m,,,,,,0.512552301,-0.332635983,1,0,0,,0,13,13,207,1,
,,,,,,,,,,,,,,,,,,5efdcff83a6844231c003073,2020-08-08_10h24.33.481,lexical_decision_task_MP,2020.1.3,iPhone,60,,0,-0.516736402,-0.288702929,1,0,0,0.735,button_left,0.735,1,,,,,,353,NW,"ID",33,clurey,CLUREY,z,,,,,,-0.516736402,-0.288702929,1,0,0,,0,14,14,292,1,
,,,,,,,,,,,,,,,,,,5efdcff83a6844231c003073,2020-08-08_10h24.33.481,lexical_decision_task_MP,2020.1.3,iPhone,60,,0,0.50209205,-0.336820084,1,0,0,0.736,button_right,0.736,1,,,,,,110,WORD,"ID",33,polite,POLITE,m,,,,,,0.50209205,-0.336820084,1,0,0,,0,15,15,49,1,
,,,,,,,,,,,,,,,,,,5efdcff83a6844231c003073,2020-08-08_10h24.33.481,lexical_decision_task_MP,2020.1.3,iPhone,60,,0,-0.447698745,-0.326359833,1,0,0,0.656,button_left,0.656,1,,,,,,257,NW,UN,50,poluth,VENIOD,z,,,,,,-0.447698745,-0.326359833,1,0,0,,0,16,16,436,1,
,,,,,,,,,,,,,,,,,,5efdcff83a6844231c003073,2020-08-08_10h24.33.481,lexical_decision_task_MP,2020.1.3,iPhone,60,,0,0.5041841,-0.336820084,1,0,0,0.756,button_right,0.756,1,,,,,,8,WORD,UN,50,hustle,ABRUPT,m,,,,,,0.5041841,-0.336820084,1,0,0,,0,17,17,187,1,
,,,,,,,,,,,,,,,,,,5efdcff83a6844231c003073,2020-08-08_10h24.33.481,lexical_decision_task_MP,2020.1.3,iPhone,60,,0,0.508368201,-0.328451883,1,0,0,0.562,button_right,0.562,1,,,,,,203,WORD,UN,33,burden,PHRASE,m,,,,,,0.508368201,-0.328451883,1,0,0,,0,18,18,142,1,
,,,,,,,,,,,,,,,,,,5efdcff83a6844231c003073,2020-08-08_10h24.33.481,lexical_decision_task_MP,2020.1.3,iPhone,60,,0,-0.485355649,-0.29707113,1,0,0,0.796,button_left,0.796,1,,,,,,315,NW,"ID",33,laston,LASTON,z,,,,,,-0.485355649,-0.29707113,1,0,0,,0,19,19,254,1,
,,,,,,,,,,,,,,,,,,5efdcff83a6844231c003073,2020-08-08_10h24.33.481,lexical_decision_task_MP,2020.1.3,iPhone,60,,0,-0.481171548,-0.307531381,1,0,0,0.703,button_left,0.703,1,,,,,,294,NW,UN,50,gleath,INHORT,z,,,,,,-0.481171548,-0.307531381,1,0,0,,0,20,20,473,1,
,,,,,,,,,,,,,,,,,,5efdcff83a6844231c003073,2020-08-08_10h24.33.481,lexical_decision_task_MP,2020.1.3,iPhone,60,,0,-0.514644351,-0.280334728,1,0,0,0.706,button_left,0.706,1,,,,,,336,NW,"ID",33,ghodus,GHODUS,z,,,,,,-0.514644351,-0.280334728,1,0,0,,0,21,21,275,1,
,,,,,,,,,,,,,,,,,,5efdcff83a6844231c003073,2020-08-08_10h24.33.481,lexical_decision_task_MP,2020.1.3,iPhone,60,,0,0.493723849,-0.347280335,1,0,0,0.554,button_right,0.554,1,,,,,,132,WORD,"ID",50,strong,STRONG,m,,,,,,0.493723849,-0.347280335,1,0,0,,0,22,22,71,1,
,,,,,,,,,,,,,,,,,,5efdcff83a6844231c003073,2020-08-08_10h24.33.481,lexical_decision_task_MP,2020.1.3,iPhone,60,,0,-0.479079498,-0.29707113,1,0,0,0.673,button_left,0.673,1,,,,,,343,NW,"ID",33,aimosy,AIMOSY,z,,,,,,-0.479079498,-0.29707113,1,0,0,,0,23,23,282,1,
,,,,,,,,,,,,,,,,,,5efdcff83a6844231c003073,2020-08-08_10h24.33.481,lexical_decision_task_MP,2020.1.3,iPhone,60,,0,0.485355649,-0.338912134,1,0,0,0.705,button_right,0.705,1,,,,,,90,WORD,"ID",33,relish,RELISH,m,,,,,,0.485355649,-0.338912134,1,0,0,,0,24,24,29,1,
,,,,,,,,,,,,,,,,,,5efdcff83a6844231c003073,2020-08-08_10h24.33.481,lexical_decision_task_MP,2020.1.3,iPhone,60,,0,0.487447699,-0.332635983,1,0,0,0.627,button_right,0.627,0,,,,,,345,NW,"ID",33,absend,ABSEND,z,,,,,,0.487447699,-0.332635983,1,0,0,,0,25,25,284,1,
,,,,,,,,,,,,,,,,,,5efdcff83a6844231c003073,2020-08-08_10h24.33.481,lexical_decision_task_MP,2020.1.3,iPhone,60,,0,0.487447699,-0.330543933,1,0,0,0.621,button_right,0.621,1,,,,,,135,WORD,"ID",50,import,IMPORT,m,,,,,,0.487447699,-0.330543933,1,0,0,,0,26,26,74,1,
,,,,,,,,,,,,,,,,,,5efdcff83a6844231c003073,2020-08-08_10h24.33.481,lexical_decision_task_MP,2020.1.3,iPhone,60,,0,-0.456066946,-0.311715481,1,0,0,0.588,button_left,0.588,1,,,,,,245,NW,UN,50,piaton,ANOUGS,z,,,,,,-0.456066946,-0.311715481,1,0,0,,0,27,27,424,1,
,,,,,,,,,,,,,,,,,,5efdcff83a6844231c003073,2020-08-08_10h24.33.481,lexical_decision_task_MP,2020.1.3,iPhone,60,,0,-0.464435146,-0.313807531,1,0,0,1.035,button_left,1.035,1,,,,,,392,NW,"ID",50,rouncy,ROUNCY,z,,,,,,-0.464435146,-0.313807531,1,0,0,,0,28,28,331,1,
,,,,,,,,,,,,,,,,,,5efdcff83a6844231c003073,2020-08-08_10h24.33.481,lexical_decision_task_MP,2020.1.3,iPhone,60,,0,-0.470711297,-0.29916318,1,0,0,0.707,button_left,0.707,1,,,,,,269,NW,UN,50,wrimsy,ORCHET,z,,,,,,-0.470711297,-0.29916318,1,0,0,,0,29,29,448,1,
,,,,,,,,,,,,,,,,,,5efdcff83a6844231c003073,2020-08-08_10h24.33.481,lexical_decision_task_MP,2020.1.3,iPhone,60,,0,0.468619247,-0.341004184,1,0,0,1.267,button_right,1.267,1,,,,,,161,WORD,"ID",50,pastor,PASTOR,m,,,,,,0.468619247,-0.341004184,1,0,0,,0,30,30,100,1,
,,,,,,,,,,,,,,,,,,5efdcff83a6844231c003073,2020-08-08_10h24.33.481,lexical_decision_task_MP,2020.1.3,iPhone,60,,0,-0.458158996,-0.29916318,1,0,0,0.75,button_left,0.75,1,,,,,,468,NW,UN,33,padifs,WICTOR,z,,,,,,-0.458158996,-0.29916318,1,0,0,,0,31,31,407,1,
,,,,,,,,,,,,,,,,,,5efdcff83a6844231c003073,2020-08-08_10h24.33.481,lexical_decision_task_MP,2020.1.3,iPhone,60,,0,-0.443514644,-0.311715481,1,0,0,0.705,button_left,0.705,1,,,,,,393,NW,"ID",50,ganous,GANOUS,z,,,,,,-0.443514644,-0.311715481,1,0,0,,0,32,32,332,1,
,,,,,,,,,,,,,,,,,,5efdcff83a6844231c003073,2020-08-08_10h24.33.481,lexical_decision_task_MP,2020.1.3,iPhone,60,,0,0.491631799,-0.332635983,1,0,0,0.736,button_right,0.736,1,,,,,,225,WORD,UN,33,casino,VULGAR,m,,,,,,0.491631799,-0.332635983,1,0,0,,0,33,33,164,1,
,,,,,,,,,,,,,,,,,,5efdcff83a6844231c003073,2020-08-08_10h24.33.481,lexical_decision_task_MP,2020.1.3,iPhone,60,,0,0.5041841,-0.324267782,1,0,0,0.65,button_right,0.65,1,,,,,,74,WORD,"ID",33,plaque,PLAQUE,m,,,,,,0.5041841,-0.324267782,1,0,0,,0,34,34,13,1,
,,,,,,,,,,,,,,,,,,5efdcff83a6844231c003073,2020-08-08_10h24.33.481,lexical_decision_task_MP,2020.1.3,iPhone,60,,0,0.50209205,-0.320083682,1,0,0,0.555,button_right,0.555,1,,,,,,164,WORD,"ID",50,market,MARKET,m,,,,,,0.50209205,-0.320083682,1,0,0,,0,35,35,103,1,
,,,,,,,,,,,,,,,,,,5efdcff83a6844231c003073,2020-08-08_10h24.33.481,lexical_decision_task_MP,2020.1.3,iPhone,60,,0,-0.453974895,-0.315899582,1,0,0,0.823,button_left,0.823,1,,,,,,299,NW,UN,50,yarion,STURCH,z,,,,,,-0.453974895,-0.315899582,1,0,0,,0,36,36,478,1,
,,,,,,,,,,,,,,,,,,5efdcff83a6844231c003073,2020-08-08_10h24.33.481,lexical_decision_task_MP,2020.1.3,iPhone,60,,0,-0.470711297,-0.322175732,1,0,0,0.855,button_left,0.855,1,,,,,,355,NW,"ID",33,zingly,ZINGLY,z,,,,,,-0.470711297,-0.322175732,1,0,0,,0,37,37,294,1,
,,,,,,,,,,,,,,,,,,5efdcff83a6844231c003073,2020-08-08_10h24.33.481,lexical_decision_task_MP,2020.1.3,iPhone,60,,0,-0.474895397,-0.311715481,1,0,0,0.788,button_left,0.788,1,,,,,,472,NW,UN,33,gorbie,CIGNEY,z,,,,,,-0.474895397,-0.311715481,1,0,0,,0,38,38,411,1,
,,,,,,,,,,,,,,,,,,5efdcff83a6844231c003073,2020-08-08_10h24.33.481,lexical_decision_task_MP,2020.1.3,iPhone,60,,0,0.49790795,-0.322175732,1,0,0,0.654,button_right,0.654,1,,,,,,210,WORD,UN,33,infect,MONKEY,m,,,,,,0.49790795,-0.322175732,1,0,0,,0,39,39,149,1,
,,,,,,,,,,,,,,,,,,5efdcff83a6844231c003073,2020-08-08_10h24.33.481,lexical_decision_task_MP,2020.1.3,iPhone,60,,0,0.49790795,-0.326359833,1,0,0,0.77,button_right,0.77,1,,,,,,206,WORD,UN,33,wreath,TAILOR,m,,,,,,0.49790795,-0.326359833,1,0,0,,0,40,40,145,1,
,,,,,,,,,,,,,,,,,,5efdcff83a6844231c003073,2020-08-08_10h24.33.481,lexical_decision_task_MP,2020.1.3,iPhone,60,,0,0.4958159,-0.332635983,1,0,0,0.768,button_right,0.768,1,,,,,,59,WORD,UN,50,pencil,SPLINT,m,,,,,,0.4958159,-0.332635983,1,0,0,,0,41,41,238,1,
,,,,,,,,,,,,,,,,,,5efdcff83a6844231c003073,2020-08-08_10h24.33.481,lexical_decision_task_MP,2020.1.3,iPhone,60,,0,-0.445606695,-0.313807531,1,0,0,0.786,button_left,0.786,1,,,,,,328,NW,"ID",33,broake,BROAKE,z,,,,,,-0.445606695,-0.313807531,1,0,0,,0,42,42,267,1,
,,,,,,,,,,,,,,,,,,5efdcff83a6844231c003073,2020-08-08_10h24.33.481,lexical_decision_task_MP,2020.1.3,iPhone,60,,0,-0.430962343,-0.317991632,1,0,0,0.691,button_left,0.691,1,,,,,,283,NW,UN,50,shaple,VERALF,z,,,,,,-0.430962343,-0.317991632,1,0,0,,0,43,43,462,1,
,,,,,,,,,,,,,,,,,,5efdcff83a6844231c003073,2020-08-08_10h24.33.481,lexical_decision_task_MP,2020.1.3,iPhone,60,,0,-0.441422594,-0.309623431,1,0,0,0.599,button_left,0.599,1,,,,,,471,NW,UN,33,cigney,NOBEST,z,,,,,,-0.441422594,-0.309623431,1,0,0,,0,44,44,410,1,
,,,,,,,,,,,,,,,,,,5efdcff83a6844231c003073,2020-08-08_10h24.33.481,lexical_decision_task_MP,2020.1.3,iPhone,60,,0,0.470711297,-0.334728033,1,0,0,1.305,button_right,1.305,1,,,,,,84,WORD,"ID",33,mortal,MORTAL,m,,,,,,0.470711297,-0.334728033,1,0,0,,0,45,45,23,1,
,,,,,,,,,,,,,,,,,,5efdcff83a6844231c003073,2020-08-08_10h24.33.481,lexical_decision_task_MP,2020.1.3,iPhone,60,,0,-0.447698745,-0.278242678,1,0,0,0.787,button_left,0.787,1,,,,,,396,NW,"ID",50,flengy,FLENGY,z,,,,,,-0.447698745,-0.278242678,1,0,0,,0,46,46,335,1,
,,,,,,,,,,,,,,,,,,5efdcff83a6844231c003073,2020-08-08_10h24.33.481,lexical_decision_task_MP,2020.1.3,iPhone,60,,0,0.479079498,-0.332635983,1,0,0,0.738,button_right,0.738,1,,,,,,131,WORD,"ID",50,quench,QUENCH,m,,,,,,0.479079498,-0.332635983,1,0,0,,0,47,47,70,1,
,,,,,,,,,,,,,,,,,,5efdcff83a6844231c003073,2020-08-08_10h24.33.481,lexical_decision_task_MP,2020.1.3,iPhone,60,,0,0.50209205,-0.324267782,1,0,0,0.722,button_right,0.722,1,,,,,,119,WORD,"ID",33,spider,SPIDER,m,,,,,,0.50209205,-0.324267782,1,0,0,,0,48,48,58,1,
,,,,,,,,,,,,,,,,,,5efdcff83a6844231c003073,2020-08-08_10h24.33.481,lexical_decision_task_MP,2020.1.3,iPhone,60,,0,0.5041841,-0.315899582,1,0,0,0.633,button_right,0.633,1,,,,,,212,WORD,UN,33,squeal,VERIFY,m,,,,,,0.5041841,-0.315899582,1,0,0,,0,49,49,151,1,
,,,,,,,,,,,,,,,,,,5efdcff83a6844231c003073,2020-08-08_10h24.33.481,lexical_decision_task_MP,2020.1.3,iPhone,60,,0,0.510460251,-0.326359833,1,0,0,0.754,button_right,0.754,0,,,,,,291,NW,UN,50,ablint,PRETCH,z,,,,,,0.510460251,-0.326359833,1,0,0,,0,50,50,470,1,
,,,,,,,,,,,,,,,,,,5efdcff83a6844231c003073,2020-08-08_10h24.33.481,lexical_decision_task_MP,2020.1.3,iPhone,60,,0,0.481171548,-0.334728033,1,0,0,1.047,button_right,1.047,1,,,,,,89,WORD,"ID",33,permit,PERMIT,m,,,,,,0.481171548,-0.334728033,1,0,0,,0,51,51,28,1,
,,,,,,,,,,,,,,,,,,5efdcff83a6844231c003073,2020-08-08_10h24.33.481,lexical_decision_task_MP,2020.1.3,iPhone,60,,0,-0.472803347,-0.292887029,1,0,0,0.821,button_left,0.821,1,,,,,,365,NW,"ID",50,guairt,GUAIRT,z,,,,,,-0.472803347,-0.292887029,1,0,0,,0,52,52,304,1,
,,,,,,,,,,,,,,,,,,5efdcff83a6844231c003073,2020-08-08_10h24.33.481,lexical_decision_task_MP,2020.1.3,iPhone,60,,0,-0.481171548,-0.282426778,1,0,0,0.797,button_left,0.797,1,,,,,,400,NW,"ID",50,wearox,WEAROX,z,,,,,,-0.481171548,-0.282426778,1,0,0,,0,53,53,339,1,
,,,,,,,,,,,,,,,,,,5efdcff83a6844231c003073,2020-08-08_10h24.33.481,lexical_decision_task_MP,2020.1.3,iPhone,60,,0,-0.456066946,-0.317991632,1,0,0,1.089,button_left,1.089,1,,,,,,325,NW,"ID",33,thruse,THRUSE,z,,,,,,-0.456066946,-0.317991632,1,0,0,,0,54,54,264,1,
,,,,,,,,,,,,,,,,,,5efdcff83a6844231c003073,2020-08-08_10h24.33.481,lexical_decision_task_MP,2020.1.3,iPhone,60,,0,-0.464435146,-0.292887029,1,0,0,1.006,button_left,1.006,1,,,,,,425,NW,UN,33,urivel,FRUDGE,z,,,,,,-0.464435146,-0.292887029,1,0,0,,0,55,55,364,1,
,,,,,,,,,,,,,,,,,,5efdcff83a6844231c003073,2020-08-08_10h24.33.481,lexical_decision_task_MP,2020.1.3,iPhone,60,,0,0.464435146,-0.334728033,1,0,0,0.62,button_right,0.62,1,,,,,,126,WORD,"ID",50,enough,ENOUGH,m,,,,,,0.464435146,-0.334728033,1,0,0,,0,56,56,65,1,
,,,,,,,,,,,,,,,,,,5efdcff83a6844231c003073,2020-08-08_10h24.33.481,lexical_decision_task_MP,2020.1.3,iPhone,60,,0,-0.468619247,-0.288702929,1,0,0,0.718,button_left,0.718,1,,,,,,356,NW,"ID",33,othnis,OTHNIS,z,,,,,,-0.468619247,-0.288702929,1,0,0,,0,57,57,295,1,
,,,,,,,,,,,,,,,,,,5efdcff83a6844231c003073,2020-08-08_10h24.33.481,lexical_decision_task_MP,2020.1.3,iPhone,60,,0,-0.470711297,-0.309623431,1,0,0,0.987,button_left,0.987,1,,,,,,440,NW,UN,33,rastoe,SARIDE,z,,,,,,-0.470711297,-0.309623431,1,0,0,,0,58,58,379,1,
,,,,,,,,,,,,,,,,,,5efdcff83a6844231c003073,2020-08-08_10h24.33.481,lexical_decision_task_MP,2020.1.3,iPhone,60,,0,-0.476987448,-0.29916318,1,0,0,1.086,button_left,1.086,1,,,,,,452,NW,UN,33,bolvis,SURDEN,z,,,,,,-0.476987448,-0.29916318,1,0,0,,0,59,59,391,1,
,,,,,,,,,,,,,,,,,,5efdcff83a6844231c003073,2020-08-08_10h24.33.481,lexical_decision_task_MP,2020.1.3,iPhone,60,,0,-0.483263598,-0.294979079,1,0,0,0.706,button_left,0.706,1,,,,,,339,NW,"ID",33,fachow,FACHOW,z,,,,,,-0.483263598,-0.294979079,1,0,0,,0,60,60,278,1,
,,,,,,,,,,,,,,,,,,5efdcff83a6844231c003073,2020-08-08_10h24.33.481,lexical_decision_task_MP,2020.1.3,iPhone,60,,0,-0.487447699,-0.292887029,1,0,0,0.65,button_left,0.65,1,,,,,,417,NW,"ID",50,earoud,EAROUD,z,,,,,,-0.487447699,-0.292887029,1,0,0,,0,61,61,356,1,
,,,,,,,,,,,,,,,,,,5efdcff83a6844231c003073,2020-08-08_10h24.33.481,lexical_decision_task_MP,2020.1.3,iPhone,60,,0,0.458158996,-0.338912134,1,0,0,0.637,button_right,0.637,1,,,,,,67,WORD,"ID",33,policy,POLICY,m,,,,,,0.458158996,-0.338912134,1,0,0,,0,62,62,6,1,
,,,,,,,,,,,,,,,,,,5efdcff83a6844231c003073,2020-08-08_10h24.33.481,lexical_decision_task_MP,2020.1.3,iPhone,60,,0,-0.474895397,-0.305439331,1,0,0,0.768,button_left,0.768,1,,,,,,447,NW,UN,33,sadent,GIRCUE,z,,,,,,-0.474895397,-0.305439331,1,0,0,,0,63,63,386,1,
,,,,,,,,,,,,,,,,,,5efdcff83a6844231c003073,2020-08-08_10h24.33.481,lexical_decision_task_MP,2020.1.3,iPhone,60,,0,0.481171548,-0.336820084,1,0,0,0.737,button_right,0.737,1,,,,,,51,WORD,UN,50,impose,HUNGRY,m,,,,,,0.481171548,-0.336820084,1,0,0,,0,64,64,230,1,
,,,,,,,,,,,,,,,,,,5efdcff83a6844231c003073,2020-08-08_10h24.33.481,lexical_decision_task_MP,2020.1.3,iPhone,60,,0,-0.435146444,-0.311715481,1,0,0,0.679,button_left,0.679,1,,,,,,327,NW,"ID",33,plenac,PLENAC,z,,,,,,-0.435146444,-0.311715481,1,0,0,,0,65,65,266,1,
,,,,,,,,,,,,,,,,,,5efdcff83a6844231c003073,2020-08-08_10h24.33.481,lexical_decision_task_MP,2020.1.3,iPhone,60,,0,-0.40376569,-0.307531381,1,0,0,0.571,button_left,0.571,1,,,,,,292,NW,UN,50,swance,ABLINT,z,,,,,,-0.40376569,-0.307531381,1,0,0,,0,66,66,471,1,
,,,,,,,,,,,,,,,,,,5efdcff83a6844231c003073,2020-08-08_10h24.33.481,lexical_decision_task_MP,2020.1.3,iPhone,60,,0,-0.443514644,-0.30125523,1,0,0,0.689,button_left,0.689,1,,,,,,446,NW,UN,33,gircue,RUNAMO,z,,,,,,-0.443514644,-0.30125523,1,0,0,,0,67,67,385,1,
,,,,,,,,,,,,,,,,,,5efdcff83a6844231c003073,2020-08-08_10h24.33.481,lexical_decision_task_MP,2020.1.3,iPhone,60,,0,-0.437238494,-0.317991632,1,0,0,0.601,button_left,0.601,1,,,,,,385,NW,"ID",50,veigma,VEIGMA,z,,,,,,-0.437238494,-0.317991632,1,0,0,,0,68,68,324,1,
,,,,,,,,,,,,,,,,,,5efdcff83a6844231c003073,2020-08-08_10h24.33.481,lexical_decision_task_MP,2020.1.3,iPhone,60,,0,0.439330544,-0.338912134,1,0,0,0.622,button_right,0.622,1,,,,,,78,WORD,"ID",33,column,COLUMN,m,,,,,,0.439330544,-0.338912134,1,0,0,,0,69,69,17,1,
,,,,,,,,,,,,,,,,,,5efdcff83a6844231c003073,2020-08-08_10h24.33.481,lexical_decision_task_MP,2020.1.3,iPhone,60,,0,0.470711297,-0.324267782,1,0,0,0.62,button_right,0.62,1,,,,,,11,WORD,UN,50,amount,CRUISE,m,,,,,,0.470711297,-0.324267782,1,0,0,,0,70,70,190,1,
,,,,,,,,,,,,,,,,,,5efdcff83a6844231c003073,2020-08-08_10h24.33.481,lexical_decision_task_MP,2020.1.3,iPhone,60,,0,-0.443514644,-0.311715481,1,0,0,0.786,button_left,0.786,1,,,,,,422,NW,UN,33,streld,ALCOUD,z,,,,,,-0.443514644,-0.311715481,1,0,0,,0,71,71,361,1,
,,,,,,,,,,,,,,,,,,5efdcff83a6844231c003073,2020-08-08_10h24.33.481,lexical_decision_task_MP,2020.1.3,iPhone,60,,0,-0.449790795,-0.307531381,1,0,0,0.771,button_left,0.771,1,,,,,,316,NW,"ID",33,scregm,SCREGM,z,,,,,,-0.449790795,-0.307531381,1,0,0,,0,72,72,255,1,
,,,,,,,,,,,,,,,,,,5efdcff83a6844231c003073,2020-08-08_10h24.33.481,lexical_decision_task_MP,2020.1.3,iPhone,60,,0,0.49790795,-0.328451883,1,0,0,0.986,button_right,0.986,1,,,,,,117,WORD,"ID",33,branch,BRANCH,m,,,,,,0.49790795,-0.328451883,1,0,0,,0,73,73,56,1,
,,,,,,,,,,,,,,,,,,5efdcff83a6844231c003073,2020-08-08_10h24.33.481,lexical_decision_task_MP,2020.1.3,iPhone,60,,0,0.50209205,-0.326359833,1,0,0,0.603,button_right,0.603,1,,,,,,162,WORD,"ID",50,candle,CANDLE,m,,,,,,0.50209205,-0.326359833,1,0,0,,0,74,74,101,1,
,,,,,,,,,,,,,,,,,,5efdcff83a6844231c003073,2020-08-08_10h24.33.481,lexical_decision_task_MP,2020.1.3,iPhone,60,,0,-0.451882845,-0.30125523,1,0,0,0.687,button_left,0.687,1,,,,,,270,NW,UN,50,aubrid,WRIMSY,z,,,,,,-0.451882845,-0.30125523,1,0,0,,0,75,75,449,1,
,,,,,,,,,,,,,,,,,,5efdcff83a6844231c003073,2020-08-08_10h24.33.481,lexical_decision_task_MP,2020.1.3,iPhone,60,,0,-0.451882845,-0.309623431,1,0,0,0.667,button_left,0.667,1,,,,,,281,NW,UN,50,porlex,MELATY,z,,,,,,-0.451882845,-0.309623431,1,0,0,,0,76,76,460,1,
,,,,,,,,,,,,,,,,,,5efdcff83a6844231c003073,2020-08-08_10h24.33.481,lexical_decision_task_MP,2020.1.3,iPhone,60,,0,-0.470711297,-0.294979079,1,0,0,0.587,button_left,0.587,1,,,,,,279,NW,UN,50,curbol,CELOND,z,,,,,,-0.470711297,-0.294979079,1,0,0,,0,77,77,458,1,
,,,,,,,,,,,,,,,,,,5efdcff83a6844231c003073,2020-08-08_10h24.33.481,lexical_decision_task_MP,2020.1.3,iPhone,60,,0,-0.487447699,-0.282426778,1,0,0,0.62,button_left,0.62,1,,,,,,467,NW,UN,33,wictor,GORBIE,z,,,,,,-0.487447699,-0.282426778,1,0,0,,0,78,78,406,1,
,,,,,,,,,,,,,,,,,,5efdcff83a6844231c003073,2020-08-08_10h24.33.481,lexical_decision_task_MP,2020.1.3,iPhone,60,,0,0.49790795,-0.330543933,1,0,0,0.616,button_right,0.616,1,,,,,,4,WORD,UN,50,plunge,TRENCH,m,,,,,,0.49790795,-0.330543933,1,0,0,,0,79,79,183,1,
,,,,,,,,,,,,,,,,,,5efdcff83a6844231c003073,2020-08-08_10h24.33.481,lexical_decision_task_MP,2020.1.3,iPhone,60,,0,-0.464435146,-0.286610879,1,0,0,0.703,button_left,0.703,1,,,,,,241,NW,UN,50,unwert,SMENCO,z,,,,,,-0.464435146,-0.286610879,1,0,0,,0,80,80,420,1,
,,,,,,,,,,,,,,,,,,5efdcff83a6844231c003073,2020-08-08_10h24.33.481,lexical_decision_task_MP,2020.1.3,iPhone,60,,0,-0.458158996,-0.29916318,1,0,0,0.686,button_left,0.686,1,,,,,,352,NW,"ID",33,tringe,TRINGE,z,,,,,,-0.458158996,-0.29916318,1,0,0,,0,81,81,291,1,
,,,,,,,,,,,,,,,,,,5efdcff83a6844231c003073,2020-08-08_10h24.33.481,lexical_decision_task_MP,2020.1.3,iPhone,60,,0,0.483263598,-0.336820084,1,0,0,0.655,button_right,0.655,1,,,,,,64,WORD,"ID",33,throne,THRONE,m,,,,,,0.483263598,-0.336820084,1,0,0,,0,82,82,3,1,
,,,,,,,,,,,,,,,,,,5efdcff83a6844231c003073,2020-08-08_10h24.33.481,lexical_decision_task_MP,2020.1.3,iPhone,60,,0,-0.441422594,-0.29916318,1,0,0,0.636,button_left,0.636,1,,,,,,406,NW,"ID",50,nouply,NOUPLY,z,,,,,,-0.441422594,-0.29916318,1,0,0,,0,83,83,345,1,
,,,,,,,,,,,,,,,,,,5efdcff83a6844231c003073,2020-08-08_10h24.33.481,lexical_decision_task_MP,2020.1.3,iPhone,60,,0,-0.462343096,-0.288702929,1,0,0,0.719,button_left,0.719,1,,,,,,251,NW,UN,50,stapod,LUPICT,z,,,,,,-0.462343096,-0.288702929,1,0,0,,0,84,84,430,1,
,,,,,,,,,,,,,,,,,,5efdcff83a6844231c003073,2020-08-08_10h24.33.481,lexical_decision_task_MP,2020.1.3,iPhone,60,,0,0.485355649,-0.330543933,1,0,0,0.589,button_right,0.589,1,,,,,,73,WORD,"ID",33,source,SOURCE,m,,,,,,0.485355649,-0.330543933,1,0,0,,0,85,85,12,1,
,,,,,,,,,,,,,,,,,,5efdcff83a6844231c003073,2020-08-08_10h24.33.481,lexical_decision_task_MP,2020.1.3,iPhone,60,,0,-0.435146444,-0.29916318,1,0,0,0.739,button_left,0.739,1,,,,,,300,NW,UN,50,smenco,YARION,z,,,,,,-0.435146444,-0.29916318,1,0,0,,0,86,86,479,1,
,,,,,,,,,,,,,,,,,,5efdcff83a6844231c003073,2020-08-08_10h24.33.481,lexical_decision_task_MP,2020.1.3,iPhone,60,,0,0.487447699,-0.332635983,1,0,0,0.625,button_right,0.625,1,,,,,,220,WORD,UN,33,mascot,VOYAGE,m,,,,,,0.487447699,-0.332635983,1,0,0,,0,87,87,159,1,
,,,,,,,,,,,,,,,,,,5efdcff83a6844231c003073,2020-08-08_10h24.33.481,lexical_decision_task_MP,2020.1.3,iPhone,60,,0,-0.458158996,-0.307531381,1,0,0,0.762,button_left,0.762,1,,,,,,338,NW,"ID",33,wreash,WREASH,z,,,,,,-0.458158996,-0.307531381,1,0,0,,0,88,88,277,1,
,,,,,,,,,,,,,,,,,,5efdcff83a6844231c003073,2020-08-08_10h24.33.481,lexical_decision_task_MP,2020.1.3,iPhone,60,,0,-0.49790795,-0.280334728,1,0,0,0.786,button_left,0.786,1,,,,,,289,NW,UN,50,splino,STARBY,z,,,,,,-0.49790795,-0.280334728,1,0,0,,0,89,89,468,1,
,,,,,,,,,,,,,,,,,,5efdcff83a6844231c003073,2020-08-08_10h24.33.481,lexical_decision_task_MP,2020.1.3,iPhone,60,,0,0.479079498,-0.336820084,1,0,0,0.654,button_right,0.654,1,,,,,,1,WORD,UN,50,ethnic,FRIGHT,m,,,,,,0.479079498,-0.336820084,1,0,0,,0,90,90,180,1,
,,,,,,,,,,,,,,,,,,5efdcff83a6844231c003073,2020-08-08_10h24.33.481,lexical_decision_task_MP,2020.1.3,iPhone,60,,0,0.4958159,-0.324267782,1,0,0,0.624,button_right,0.624,1,,,,,,83,WORD,"ID",33,result,RESULT,m,,,,,,0.4958159,-0.324267782,1,0,0,,0,91,91,22,1,
,,,,,,,,,,,,,,,,,,5efdcff83a6844231c003073,2020-08-08_10h24.33.481,lexical_decision_task_MP,2020.1.3,iPhone,60,,0,0.49790795,-0.326359833,1,0,0,0.618,button_right,0.618,1,,,,,,100,WORD,"ID",33,carbon,CARBON,m,,,,,,0.49790795,-0.326359833,1,0,0,,0,92,92,39,1,
,,,,,,,,,,,,,,,,,,5efdcff83a6844231c003073,2020-08-08_10h24.33.481,lexical_decision_task_MP,2020.1.3,iPhone,60,,0,0.520920502,-0.326359833,1,0,0,0.815,button_right,0.815,0,,,,,,303,NW,"ID",33,fiream,FIREAM,z,,,,,,0.520920502,-0.326359833,1,0,0,,0,93,93,242,1,
,,,,,,,,,,,,,,,,,,5efdcff83a6844231c003073,2020-08-08_10h24.33.481,lexical_decision_task_MP,2020.1.3,iPhone,60,,0,0.525104603,-0.326359833,1,0,0,0.632,button_right,0.632,1,,,,,,194,WORD,UN,33,resign,ABSENT,m,,,,,,0.525104603,-0.326359833,1,0,0,,0,94,94,133,1,
,,,,,,,,,,,,,,,,,,5efdcff83a6844231c003073,2020-08-08_10h24.33.481,lexical_decision_task_MP,2020.1.3,iPhone,60,,0,-0.510460251,-0.286610879,1,0,0,0.636,button_left,0.636,1,,,,,,445,NW,UN,33,runamo,MINKEL,z,,,,,,-0.510460251,-0.286610879,1,0,0,,0,95,95,384,1,
,,,,,,,,,,,,,,,,,,5efdcff83a6844231c003073,2020-08-08_10h24.33.481,lexical_decision_task_MP,2020.1.3,iPhone,60,,0,-0.4958159,-0.282426778,1,0,0,0.737,button_left,0.737,1,,,,,,464,NW,UN,33,whivex,CHAITE,z,,,,,,-0.4958159,-0.282426778,1,0,0,,0,96,96,403,1,
,,,,,,,,,,,,,,,,,,5efdcff83a6844231c003073,2020-08-08_10h24.33.481,lexical_decision_task_MP,2020.1.3,iPhone,60,,0,0.508368201,-0.328451883,1,0,0,0.607,button_right,0.607,1,,,,,,196,WORD,UN,33,stream,CREDIT,m,,,,,,0.508368201,-0.328451883,1,0,0,,0,97,97,135,1,
,,,,,,,,,,,,,,,,,,5efdcff83a6844231c003073,2020-08-08_10h24.33.481,lexical_decision_task_MP,2020.1.3,iPhone,60,,0,-0.5,-0.282426778,1,0,0,0.672,button_left,0.672,1,,,,,,363,NW,"ID",50,breali,BREALI,z,,,,,,-0.5,-0.282426778,1,0,0,,0,98,98,302,1,
,,,,,,,,,,,,,,,,,,5efdcff83a6844231c003073,2020-08-08_10h24.33.481,lexical_decision_task_MP,2020.1.3,iPhone,60,,0,0.481171548,-0.326359833,1,0,0,0.62,button_right,0.62,1,,,,,,124,WORD,"ID",50,blouse,BLOUSE,m,,,,,,0.481171548,-0.326359833,1,0,0,,0,99,99,63,1,
,,,,,,,,,,,,,,,,,,5efdcff83a6844231c003073,2020-08-08_10h24.33.481,lexical_decision_task_MP,2020.1.3,iPhone,60,,0,0.439330544,-0.324267782,1,0,0,0.704,button_right,0.704,1,,,,,,68,WORD,"ID",33,fumble,FUMBLE,m,,,,,,0.439330544,-0.324267782,1,0,0,,0,100,100,7,1,
,,,,,,,,,,,,,,,,,,5efdcff83a6844231c003073,2020-08-08_10h24.33.481,lexical_decision_task_MP,2020.1.3,iPhone,60,,0,0.445606695,-0.332635983,1,0,0,0.736,button_right,0.736,1,,,,,,24,WORD,UN,50,domain,PRAISE,m,,,,,,0.445606695,-0.332635983,1,0,0,,0,101,101,203,1,
,,,,,,,,,,,,,,,,,,5efdcff83a6844231c003073,2020-08-08_10h24.33.481,lexical_decision_task_MP,2020.1.3,iPhone,60,,0,0.456066946,-0.328451883,1,0,0,0.727,button_right,0.727,1,,,,,,41,WORD,UN,50,chapel,SPRING,m,,,,,,0.456066946,-0.328451883,1,0,0,,0,102,102,220,1,
,,,,,,,,,,,,,,,,,,5efdcff83a6844231c003073,2020-08-08_10h24.33.481,lexical_decision_task_MP,2020.1.3,iPhone,60,,0,0.479079498,-0.315899582,1,0,0,0.607,button_right,0.607,1,,,,,,153,WORD,"ID",50,behold,BEHOLD,m,,,,,,0.479079498,-0.315899582,1,0,0,,0,103,103,92,1,
,,,,,,,,,,,,,,,,,,5efdcff83a6844231c003073,2020-08-08_10h24.33.481,lexical_decision_task_MP,2020.1.3,iPhone,60,,0,0.487447699,-0.317991632,1,0,0,0.634,button_right,0.634,1,,,,,,149,WORD,"ID",50,invade,INVADE,m,,,,,,0.487447699,-0.317991632,1,0,0,,0,104,104,88,1,
,,,,,,,,,,,,,,,,,,5efdcff83a6844231c003073,2020-08-08_10h24.33.481,lexical_decision_task_MP,2020.1.3,iPhone,60,,0,0.520920502,-0.309623431,1,0,0,0.654,button_right,0.654,1,,,,,,96,WORD,"ID",33,ignore,IGNORE,m,,,,,,0.520920502,-0.309623431,1,0,0,,0,105,105,35,1,
,,,,,,,,,,,,,,,,,,5efdcff83a6844231c003073,2020-08-08_10h24.33.481,lexical_decision_task_MP,2020.1.3,iPhone,60,,0,0.485355649,-0.326359833,1,0,0,0.646,button_right,0.646,1,,,,,,134,WORD,"ID",50,staple,STAPLE,m,,,,,,0.485355649,-0.326359833,1,0,0,,0,106,106,73,1,
,,,,,,,,,,,,,,,,,,5efdcff83a6844231c003073,2020-08-08_10h24.33.481,lexical_decision_task_MP,2020.1.3,iPhone,60,,0,0.50209205,-0.313807531,1,0,0,0.557,button_right,0.557,1,,,,,,240,WORD,UN,33,seldom,FOREST,m,,,,,,0.50209205,-0.313807531,1,0,0,,0,107,107,179,1,
,,,,,,,,,,,,,,,,,,5efdcff83a6844231c003073,2020-08-08_10h24.33.481,lexical_decision_task_MP,2020.1.3,iPhone,60,,0,0.506276151,-0.313807531,1,0,0,0.604,button_right,0.604,1,,,,,,77,WORD,"ID",33,racket,RACKET,m,,,,,,0.506276151,-0.313807531,1,0,0,,0,108,108,16,1,
,,,,,,,,,,,,,,,,,,5efdcff83a6844231c003073,2020-08-08_10h24.33.481,lexical_decision_task_MP,2020.1.3,iPhone,60,,0,0.506276151,-0.307531381,1,0,0,0.726,button_right,0.726,0,,,,,,360,NW,"ID",33,desory,DESORY,z,,,,,,0.506276151,-0.307531381,1,0,0,,0,109,109,299,1,
,,,,,,,,,,,,,,,,,,5efdcff83a6844231c003073,2020-08-08_10h24.33.481,lexical_decision_task_MP,2020.1.3,iPhone,60,,0,-0.485355649,-0.284518828,1,0,0,0.826,button_left,0.826,1,,,,,,430,NW,UN,33,chrums,CAROEY,z,,,,,,-0.485355649,-0.284518828,1,0,0,,0,110,110,369,1,
,,,,,,,,,,,,,,,,,,5efdcff83a6844231c003073,2020-08-08_10h24.33.481,lexical_decision_task_MP,2020.1.3,iPhone,60,,0,0.479079498,-0.330543933,1,0,0,0.776,button_right,0.776,0,,,,,,319,NW,"ID",33,zomber,ZOMBER,z,,,,,,0.479079498,-0.330543933,1,0,0,,0,111,111,258,1,
,,,,,,,,,,,,,,,,,,5efdcff83a6844231c003073,2020-08-08_10h24.33.481,lexical_decision_task_MP,2020.1.3,iPhone,60,,0,-0.445606695,-0.322175732,1,0,0,1.151,button_left,1.151,1,,,,,,429,NW,UN,33,caroey,FUNTLE,z,,,,,,-0.445606695,-0.322175732,1,0,0,,0,112,112,368,1,
,,,,,,,,,,,,,,,,,,5efdcff83a6844231c003073,2020-08-08_10h24.33.481,lexical_decision_task_MP,2020.1.3,iPhone,60,,0,0.537656904,-0.313807531,1,0,0,1.034,button_right,1.034,1,,,,,,218,WORD,UN,33,bucket,SHRINK,m,,,,,,0.537656904,-0.313807531,1,0,0,,0,113,113,157,1,
,,,,,,,,,,,,,,,,,,5efdcff83a6844231c003073,2020-08-08_10h24.33.481,lexical_decision_task_MP,2020.1.3,iPhone,60,,0,-0.418410042,-0.309623431,1,0,0,1.201,button_left,1.201,1,,,,,,282,NW,UN,50,veralf,PORLEX,z,,,,,,-0.418410042,-0.309623431,1,0,0,,0,114,114,461,1,
,,,,,,,,,,,,,,,,,,5efdcff83a6844231c003073,2020-08-08_10h24.33.481,lexical_decision_task_MP,2020.1.3,iPhone,60,,0,0.514644351,-0.320083682,1,0,0,0.671,button_right,0.671,1,,,,,,116,WORD,"ID",33,tumble,TUMBLE,m,,,,,,0.514644351,-0.320083682,1,0,0,,0,115,115,55,1,
,,,,,,,,,,,,,,,,,,5efdcff83a6844231c003073,2020-08-08_10h24.33.481,lexical_decision_task_MP,2020.1.3,iPhone,60,,0,-0.453974895,-0.288702929,1,0,0,0.789,button_left,0.789,1,,,,,,259,NW,UN,50,unject,SOUDAL,z,,,,,,-0.453974895,-0.288702929,1,0,0,,0,116,116,438,1,
,,,,,,,,,,,,,,,,,,5efdcff83a6844231c003073,2020-08-08_10h24.33.481,lexical_decision_task_MP,2020.1.3,iPhone,60,,0,0.525104603,-0.317991632,1,0,0,0.62,button_right,0.62,1,,,,,,27,WORD,UN,50,comedy,SCREAM,m,,,,,,0.525104603,-0.317991632,1,0,0,,0,117,117,206,1,
,,,,,,,,,,,,,,,,,,5efdcff83a6844231c003073,2020-08-08_10h24.33.481,lexical_decision_task_MP,2020.1.3,iPhone,60,,0,0.508368201,-0.320083682,1,0,0,0.738,button_right,0.738,1,,,,,,3,WORD,UN,50,trench,KNIGHT,m,,,,,,0.508368201,-0.320083682,1,0,0,,0,118,118,182,1,
,,,,,,,,,,,,,,,,,,5efdcff83a6844231c003073,2020-08-08_10h24.33.481,lexical_decision_task_MP,2020.1.3,iPhone,60,,0,0.508368201,-0.309623431,1,0,0,0.571,button_right,0.571,1,,,,,,105,WORD,"ID",33,number,NUMBER,m,,,,,,0.508368201,-0.309623431,1,0,0,,0,119,119,44,1,
,,,,,,,,,,,,,,,,,,5efdcff83a6844231c003073,2020-08-08_10h24.33.481,lexical_decision_task_MP,2020.1.3,iPhone,60,,0,0.506276151,-0.309623431,1,0,0,0.72,button_right,0.72,1,,,,,,133,WORD,"ID",50,chrome,CHROME,m,,,,,,-0.087866109,-0.40376569,1,0,0,,0,120,120,72,1,break_done_button
,,,,,,,,,,,,,,,,,,5efdcff83a6844231c003073,2020-08-08_10h24.33.481,lexical_decision_task_MP,2020.1.3,iPhone,60,,0,0.508368201,-0.324267782,1,0,0,0.551,button_right,0.551,1,,,,,,75,WORD,"ID",33,trophy,TROPHY,m,,,,,,0.508368201,-0.324267782,1,0,0,,0,121,121,14,1,
,,,,,,,,,,,,,,,,,,5efdcff83a6844231c003073,2020-08-08_10h24.33.481,lexical_decision_task_MP,2020.1.3,iPhone,60,,0,0.49790795,-0.280334728,1,0,0,0.554,button_right,0.554,1,,,,,,205,WORD,UN,33,tailor,LOUNGE,m,,,,,,0.49790795,-0.280334728,1,0,0,,0,122,122,144,1,
,,,,,,,,,,,,,,,,,,5efdcff83a6844231c003073,2020-08-08_10h24.33.481,lexical_decision_task_MP,2020.1.3,iPhone,60,,0,-0.441422594,-0.292887029,1,0,0,0.755,button_left,0.755,1,,,,,,442,NW,UN,33,dorsex,ABOUNE,z,,,,,,-0.441422594,-0.292887029,1,0,0,,0,123,123,381,1,
,,,,,,,,,,,,,,,,,,5efdcff83a6844231c003073,2020-08-08_10h24.33.481,lexical_decision_task_MP,2020.1.3,iPhone,60,,0,0.451882845,-0.305439331,1,0,0,0.889,button_right,0.889,1,,,,,,234,WORD,UN,33,poster,CLUMSY,m,,,,,,0.451882845,-0.305439331,1,0,0,,0,124,124,173,1,
,,,,,,,,,,,,,,,,,,5efdcff83a6844231c003073,2020-08-08_10h24.33.481,lexical_decision_task_MP,2020.1.3,iPhone,60,,0,0.50209205,-0.294979079,1,0,0,0.908,button_right,0.908,1,,,,,,221,WORD,UN,33,hinder,MASCOT,m,,,,,,0.50209205,-0.294979079,1,0,0,,0,125,125,160,1,
,,,,,,,,,,,,,,,,,,5efdcff83a6844231c003073,2020-08-08_10h24.33.481,lexical_decision_task_MP,2020.1.3,iPhone,60,,0,-0.451882845,-0.286610879,1,0,0,0.755,button_left,0.755,1,,,,,,378,NW,"ID",50,shrile,SHRILE,z,,,,,,-0.451882845,-0.286610879,1,0,0,,0,126,126,317,1,
,,,,,,,,,,,,,,,,,,5efdcff83a6844231c003073,2020-08-08_10h24.33.481,lexical_decision_task_MP,2020.1.3,iPhone,60,,0,-0.49790795,-0.288702929,1,0,0,0.854,button_left,0.854,1,,,,,,244,NW,UN,50,anougs,EATRIC,z,,,,,,-0.49790795,-0.288702929,1,0,0,,0,127,127,423,1,
,,,,,,,,,,,,,,,,,,5efdcff83a6844231c003073,2020-08-08_10h24.33.481,lexical_decision_task_MP,2020.1.3,iPhone,60,,0,0.514644351,-0.292887029,1,0,0,0.589,button_right,0.589,1,,,,,,157,WORD,"ID",50,dragon,DRAGON,m,,,,,,0.514644351,-0.292887029,1,0,0,,0,128,128,96,1,
,,,,,,,,,,,,,,,,,,5efdcff83a6844231c003073,2020-08-08_10h24.33.481,lexical_decision_task_MP,2020.1.3,iPhone,60,,0,0.5,-0.294979079,1,0,0,0.772,button_right,0.772,0,,,,,,357,NW,"ID",33,derain,DERAIN,z,,,,,,0.5,-0.294979079,1,0,0,,0,129,129,296,1,
,,,,,,,,,,,,,,,,,,5efdcff83a6844231c003073,2020-08-08_10h24.33.481,lexical_decision_task_MP,2020.1.3,iPhone,60,,0,-0.464435146,-0.30125523,1,0,0,0.604,button_left,0.604,1,,,,,,465,NW,UN,33,bafent,WHIVEX,z,,,,,,-0.464435146,-0.30125523,1,0,0,,0,130,130,404,1,
,,,,,,,,,,,,,,,,,,5efdcff83a6844231c003073,2020-08-08_10h24.33.481,lexical_decision_task_MP,2020.1.3,iPhone,60,,0,-0.5,-0.274058577,1,0,0,0.639,button_left,0.639,1,,,,,,275,NW,UN,50,yarmon,SLEIRT,z,,,,,,-0.5,-0.274058577,1,0,0,,0,131,131,454,1,
,,,,,,,,,,,,,,,,,,5efdcff83a6844231c003073,2020-08-08_10h24.33.481,lexical_decision_task_MP,2020.1.3,iPhone,60,,0,0.491631799,-0.307531381,1,0,0,0.704,button_right,0.704,1,,,,,,9,WORD,UN,50,bridge,HUSTLE,m,,,,,,0.491631799,-0.307531381,1,0,0,,0,132,132,188,1,
,,,,,,,,,,,,,,,,,,5efdcff83a6844231c003073,2020-08-08_10h24.33.481,lexical_decision_task_MP,2020.1.3,iPhone,60,,0,-0.479079498,-0.292887029,1,0,0,0.704,button_left,0.704,1,,,,,,366,NW,"ID",50,toshel,TOSHEL,z,,,,,,-0.479079498,-0.292887029,1,0,0,,0,133,133,305,1,
,,,,,,,,,,,,,,,,,,5efdcff83a6844231c003073,2020-08-08_10h24.33.481,lexical_decision_task_MP,2020.1.3,iPhone,60,,0,-0.49790795,-0.278242678,1,0,0,0.722,button_left,0.722,1,,,,,,258,NW,UN,50,soudal,POLUTH,z,,,,,,-0.49790795,-0.278242678,1,0,0,,0,134,134,437,1,
,,,,,,,,,,,,,,,,,,5efdcff83a6844231c003073,2020-08-08_10h24.33.481,lexical_decision_task_MP,2020.1.3,iPhone,60,,0,-0.481171548,-0.282426778,1,0,0,0.634,button_left,0.634,1,,,,,,389,NW,"ID",50,witmer,WITMER,z,,,,,,-0.481171548,-0.282426778,1,0,0,,0,135,135,328,1,
,,,,,,,,,,,,,,,,,,5efdcff83a6844231c003073,2020-08-08_10h24.33.481,lexical_decision_task_MP,2020.1.3,iPhone,60,,0,0.483263598,-0.311715481,1,0,0,0.601,button_right,0.601,1,,,,,,144,WORD,"ID",50,sponge,SPONGE,m,,,,,,0.483263598,-0.311715481,1,0,0,,0,136,136,83,1,
,,,,,,,,,,,,,,,,,,5efdcff83a6844231c003073,2020-08-08_10h24.33.481,lexical_decision_task_MP,2020.1.3,iPhone,60,,0,-0.447698745,-0.307531381,1,0,0,0.772,button_left,0.772,1,,,,,,323,NW,"ID",33,rosail,ROSAIL,z,,,,,,-0.447698745,-0.307531381,1,0,0,,0,137,137,262,1,
,,,,,,,,,,,,,,,,,,5efdcff83a6844231c003073,2020-08-08_10h24.33.481,lexical_decision_task_MP,2020.1.3,iPhone,60,,0,-0.449790795,-0.30125523,1,0,0,0.718,button_left,0.718,1,,,,,,354,NW,"ID",33,virlex,VIRLEX,z,,,,,,-0.449790795,-0.30125523,1,0,0,,0,138,138,293,1,
,,,,,,,,,,,,,,,,,,5efdcff83a6844231c003073,2020-08-08_10h24.33.481,lexical_decision_task_MP,2020.1.3,iPhone,60,,0,0.49790795,-0.313807531,1,0,0,0.539,button_right,0.539,1,,,,,,180,WORD,"ID",50,silent,SILENT,m,,,,,,0.49790795,-0.313807531,1,0,0,,0,139,139,119,1,
,,,,,,,,,,,,,,,,,,5efdcff83a6844231c003073,2020-08-08_10h24.33.481,lexical_decision_task_MP,2020.1.3,iPhone,60,,0,-0.428870293,-0.313807531,1,0,0,0.854,button_left,0.854,1,,,,,,249,NW,UN,50,milted,BATROL,z,,,,,,-0.428870293,-0.313807531,1,0,0,,0,140,140,428,1,
,,,,,,,,,,,,,,,,,,5efdcff83a6844231c003073,2020-08-08_10h24.33.481,lexical_decision_task_MP,2020.1.3,iPhone,60,,0,-0.470711297,-0.30334728,1,0,0,0.72,button_left,0.72,1,,,,,,475,NW,UN,33,josted,PEBRIC,z,,,,,,-0.470711297,-0.30334728,1,0,0,,0,141,141,414,1,
,,,,,,,,,,,,,,,,,,5efdcff83a6844231c003073,2020-08-08_10h24.33.481,lexical_decision_task_MP,2020.1.3,iPhone,60,,0,-0.445606695,-0.311715481,1,0,0,1.134,button_left,1.134,1,,,,,,413,NW,"ID",50,equats,EQUATS,z,,,,,,-0.445606695,-0.311715481,1,0,0,,0,142,142,352,1,
,,,,,,,,,,,,,,,,,,5efdcff83a6844231c003073,2020-08-08_10h24.33.481,lexical_decision_task_MP,2020.1.3,iPhone,60,,0,0.466527197,-0.315899582,1,0,0,0.656,button_right,0.656,1,,,,,,19,WORD,UN,50,breast,PATRON,m,,,,,,0.466527197,-0.315899582,1,0,0,,0,143,143,198,1,
,,,,,,,,,,,,,,,,,,5efdcff83a6844231c003073,2020-08-08_10h24.33.481,lexical_decision_task_MP,2020.1.3,iPhone,60,,0,-0.476987448,-0.282426778,1,0,0,0.687,button_left,0.687,1,,,,,,448,NW,UN,33,brunge,SADENT,z,,,,,,-0.476987448,-0.282426778,1,0,0,,0,144,144,387,1,
,,,,,,,,,,,,,,,,,,5efdcff83a6844231c003073,2020-08-08_10h24.33.481,lexical_decision_task_MP,2020.1.3,iPhone,60,,0,-0.487447699,-0.280334728,1,0,0,0.804,button_left,0.804,1,,,,,,293,NW,UN,50,inhort,SWANCE,z,,,,,,-0.487447699,-0.280334728,1,0,0,,0,145,145,472,1,
,,,,,,,,,,,,,,,,,,5efdcff83a6844231c003073,2020-08-08_10h24.33.481,lexical_decision_task_MP,2020.1.3,iPhone,60,,0,-0.470711297,-0.292887029,1,0,0,0.737,button_left,0.737,1,,,,,,415,NW,"ID",50,higsta,HIGSTA,z,,,,,,-0.470711297,-0.292887029,1,0,0,,0,146,146,354,1,
,,,,,,,,,,,,,,,,,,5efdcff83a6844231c003073,2020-08-08_10h24.33.481,lexical_decision_task_MP,2020.1.3,iPhone,60,,0,0.449790795,-0.326359833,1,0,0,0.703,button_right,0.703,1,,,,,,151,WORD,"ID",50,mystic,MYSTIC,m,,,,,,0.449790795,-0.326359833,1,0,0,,0,147,147,90,1,
,,,,,,,,,,,,,,,,,,5efdcff83a6844231c003073,2020-08-08_10h24.33.481,lexical_decision_task_MP,2020.1.3,iPhone,60,,0,0.481171548,-0.317991632,1,0,0,0.687,button_right,0.687,1,,,,,,13,WORD,UN,50,almost,STRIVE,m,,,,,,0.481171548,-0.317991632,1,0,0,,0,148,148,192,1,
,,,,,,,,,,,,,,,,,,5efdcff83a6844231c003073,2020-08-08_10h24.33.481,lexical_decision_task_MP,2020.1.3,iPhone,60,,0,-0.489539749,-0.290794979,1,0,0,0.837,button_left,0.837,1,,,,,,382,NW,"ID",50,sarley,SARLEY,z,,,,,,-0.489539749,-0.290794979,1,0,0,,0,149,149,321,1,
,,,,,,,,,,,,,,,,,,5efdcff83a6844231c003073,2020-08-08_10h24.33.481,lexical_decision_task_MP,2020.1.3,iPhone,60,,0,-0.466527197,-0.294979079,1,0,0,0.704,button_left,0.704,1,,,,,,404,NW,"ID",50,cluirm,CLUIRM,z,,,,,,-0.466527197,-0.294979079,1,0,0,,0,150,150,343,1,
,,,,,,,,,,,,,,,,,,5efdcff83a6844231c003073,2020-08-08_10h24.33.481,lexical_decision_task_MP,2020.1.3,iPhone,60,,0,0.445606695,-0.328451883,1,0,0,0.688,button_right,0.688,1,,,,,,111,WORD,"ID",33,induce,INDUCE,m,,,,,,0.445606695,-0.328451883,1,0,0,,0,151,151,50,1,
,,,,,,,,,,,,,,,,,,5efdcff83a6844231c003073,2020-08-08_10h24.33.481,lexical_decision_task_MP,2020.1.3,iPhone,60,,0,-0.456066946,-0.292887029,1,0,0,0.901,button_left,0.901,1,,,,,,478,NW,UN,33,pebric,ACRISE,z,,,,,,-0.456066946,-0.292887029,1,0,0,,0,152,152,417,1,
,,,,,,,,,,,,,,,,,,5efdcff83a6844231c003073,2020-08-08_10h24.33.481,lexical_decision_task_MP,2020.1.3,iPhone,60,,0,-0.468619247,-0.294979079,1,0,0,0.716,button_left,0.716,0,,,,,,114,WORD,"ID",33,placid,PLACID,m,,,,,,-0.468619247,-0.294979079,1,0,0,,0,153,153,53,1,
,,,,,,,,,,,,,,,,,,5efdcff83a6844231c003073,2020-08-08_10h24.33.481,lexical_decision_task_MP,2020.1.3,iPhone,60,,0,0.445606695,-0.328451883,1,0,0,0.84,button_right,0.84,1,,,,,,171,WORD,"ID",50,depart,DEPART,m,,,,,,0.445606695,-0.328451883,1,0,0,,0,154,154,110,1,
,,,,,,,,,,,,,,,,,,5efdcff83a6844231c003073,2020-08-08_10h24.33.481,lexical_decision_task_MP,2020.1.3,iPhone,60,,0,-0.466527197,-0.286610879,1,0,0,0.739,button_left,0.739,1,,,,,,469,NW,UN,33,crudio,PADIFS,z,,,,,,-0.466527197,-0.286610879,1,0,0,,0,155,155,408,1,
,,,,,,,,,,,,,,,,,,5efdcff83a6844231c003073,2020-08-08_10h24.33.481,lexical_decision_task_MP,2020.1.3,iPhone,60,,0,0.474895397,-0.322175732,1,0,0,0.589,button_right,0.589,1,,,,,,130,WORD,"ID",50,stupid,STUPID,m,,,,,,0.474895397,-0.322175732,1,0,0,,0,156,156,69,1,
,,,,,,,,,,,,,,,,,,5efdcff83a6844231c003073,2020-08-08_10h24.33.481,lexical_decision_task_MP,2020.1.3,iPhone,60,,0,-0.456066946,-0.30125523,1,0,0,0.72,button_left,0.72,1,,,,,,272,NW,UN,50,sortel,DAMILT,z,,,,,,-0.456066946,-0.30125523,1,0,0,,0,157,157,451,1,
,,,,,,,,,,,,,,,,,,5efdcff83a6844231c003073,2020-08-08_10h24.33.481,lexical_decision_task_MP,2020.1.3,iPhone,60,,0,-0.472803347,-0.290794979,1,0,0,0.805,button_left,0.805,1,,,,,,374,NW,"ID",50,sliant,SLIANT,z,,,,,,-0.472803347,-0.290794979,1,0,0,,0,158,158,313,1,
,,,,,,,,,,,,,,,,,,5efdcff83a6844231c003073,2020-08-08_10h24.33.481,lexical_decision_task_MP,2020.1.3,iPhone,60,,0,0.479079498,-0.320083682,1,0,0,0.722,button_right,0.722,0,,,,,,304,NW,"ID",33,cludie,CLUDIE,z,,,,,,0.479079498,-0.320083682,1,0,0,,0,159,159,243,1,
,,,,,,,,,,,,,,,,,,5efdcff83a6844231c003073,2020-08-08_10h24.33.481,lexical_decision_task_MP,2020.1.3,iPhone,60,,0,0.481171548,-0.320083682,1,0,0,0.753,button_right,0.753,1,,,,,,18,WORD,UN,50,patron,HUMBLE,m,,,,,,0.481171548,-0.320083682,1,0,0,,0,160,160,197,1,
,,,,,,,,,,,,,,,,,,5efdcff83a6844231c003073,2020-08-08_10h24.33.481,lexical_decision_task_MP,2020.1.3,iPhone,60,,0,-0.474895397,-0.288702929,1,0,0,1.089,button_left,1.089,1,,,,,,313,NW,"ID",33,paurse,PAURSE,z,,,,,,-0.474895397,-0.288702929,1,0,0,,0,161,161,252,1,
,,,,,,,,,,,,,,,,,,5efdcff83a6844231c003073,2020-08-08_10h24.33.481,lexical_decision_task_MP,2020.1.3,iPhone,60,,0,0.491631799,-0.30334728,1,0,0,0.705,button_right,0.705,1,,,,,,121,WORD,"ID",50,thrive,THRIVE,m,,,,,,0.491631799,-0.30334728,1,0,0,,0,162,162,60,1,
,,,,,,,,,,,,,,,,,,5efdcff83a6844231c003073,2020-08-08_10h24.33.481,lexical_decision_task_MP,2020.1.3,iPhone,60,,0,0.479079498,-0.309623431,1,0,0,0.774,button_right,0.774,1,,,,,,181,WORD,UN,33,winter,GLANCE,m,,,,,,0.479079498,-0.309623431,1,0,0,,0,163,163,120,1,
,,,,,,,,,,,,,,,,,,5efdcff83a6844231c003073,2020-08-08_10h24.33.481,lexical_decision_task_MP,2020.1.3,iPhone,60,,0,0.487447699,-0.30334728,1,0,0,0.709,button_right,0.709,1,,,,,,223,WORD,UN,33,period,KIDNEY,m,,,,,,0.487447699,-0.30334728,1,0,0,,0,164,164,162,1,
,,,,,,,,,,,,,,,,,,5efdcff83a6844231c003073,2020-08-08_10h24.33.481,lexical_decision_task_MP,2020.1.3,iPhone,60,,0,0.508368201,-0.290794979,1,0,0,0.637,button_right,0.637,1,,,,,,49,WORD,UN,50,snatch,SURVEY,m,,,,,,0.508368201,-0.290794979,1,0,0,,0,165,165,228,1,
,,,,,,,,,,,,,,,,,,5efdcff83a6844231c003073,2020-08-08_10h24.33.481,lexical_decision_task_MP,2020.1.3,iPhone,60,,0,-0.485355649,-0.276150628,1,0,0,0.723,button_left,0.723,1,,,,,,460,NW,UN,33,justre,MINGAR,z,,,,,,-0.485355649,-0.276150628,1,0,0,,0,166,166,399,1,
,,,,,,,,,,,,,,,,,,5efdcff83a6844231c003073,2020-08-08_10h24.33.481,lexical_decision_task_MP,2020.1.3,iPhone,60,,0,-0.445606695,-0.292887029,1,0,0,0.737,button_left,0.737,1,,,,,,427,NW,UN,33,tandly,SCHIND,z,,,,,,-0.445606695,-0.292887029,1,0,0,,0,167,167,366,1,
,,,,,,,,,,,,,,,,,,5efdcff83a6844231c003073,2020-08-08_10h24.33.481,lexical_decision_task_MP,2020.1.3,iPhone,60,,0,-0.470711297,-0.288702929,1,0,0,1.385,button_left,1.385,1,,,,,,409,NW,"ID",50,elopia,ELOPIA,z,,,,,,-0.470711297,-0.288702929,1,0,0,,0,168,168,348,1,
,,,,,,,,,,,,,,,,,,5efdcff83a6844231c003073,2020-08-08_10h24.33.481,lexical_decision_task_MP,2020.1.3,iPhone,60,,0,0.49790795,-0.30334728,1,0,0,0.654,button_right,0.654,1,,,,,,198,WORD,UN,33,invoke,WICKED,m,,,,,,0.49790795,-0.30334728,1,0,0,,0,169,169,137,1,
,,,,,,,,,,,,,,,,,,5efdcff83a6844231c003073,2020-08-08_10h24.33.481,lexical_decision_task_MP,2020.1.3,iPhone,60,,0,-0.464435146,-0.29916318,1,0,0,0.673,button_left,0.673,1,,,,,,262,NW,UN,50,dolica,QUILEW,z,,,,,,-0.464435146,-0.29916318,1,0,0,,0,170,170,441,1,
,,,,,,,,,,,,,,,,,,5efdcff83a6844231c003073,2020-08-08_10h24.33.481,lexical_decision_task_MP,2020.1.3,iPhone,60,,0,0.514644351,-0.30125523,1,0,0,0.601,button_right,0.601,1,,,,,,93,WORD,"ID",33,public,PUBLIC,m,,,,,,0.514644351,-0.30125523,1,0,0,,0,171,171,32,1,
,,,,,,,,,,,,,,,,,,5efdcff83a6844231c003073,2020-08-08_10h24.33.481,lexical_decision_task_MP,2020.1.3,iPhone,60,,0,0.518828452,-0.30334728,1,0,0,0.634,button_right,0.634,1,,,,,,97,WORD,"ID",33,client,CLIENT,m,,,,,,0.518828452,-0.30334728,1,0,0,,0,172,172,36,1,
,,,,,,,,,,,,,,,,,,5efdcff83a6844231c003073,2020-08-08_10h24.33.481,lexical_decision_task_MP,2020.1.3,iPhone,60,,0,0.508368201,-0.29916318,1,0,0,1.189,button_right,1.189,1,,,,,,166,WORD,"ID",50,starch,STARCH,m,,,,,,0.508368201,-0.29916318,1,0,0,,0,173,173,105,1,
,,,,,,,,,,,,,,,,,,5efdcff83a6844231c003073,2020-08-08_10h24.33.481,lexical_decision_task_MP,2020.1.3,iPhone,60,,0,0.518828452,-0.29916318,1,0,0,0.754,button_right,0.754,1,,,,,,6,WORD,UN,50,anchor,BUNDLE,m,,,,,,0.518828452,-0.29916318,1,0,0,,0,174,174,185,1,
,,,,,,,,,,,,,,,,,,5efdcff83a6844231c003073,2020-08-08_10h24.33.481,lexical_decision_task_MP,2020.1.3,iPhone,60,,0,0.520920502,-0.29707113,1,0,0,0.558,button_right,0.558,1,,,,,,179,WORD,"ID",50,basket,BASKET,m,,,,,,0.520920502,-0.29707113,1,0,0,,0,175,175,118,1,
,,,,,,,,,,,,,,,,,,5efdcff83a6844231c003073,2020-08-08_10h24.33.481,lexical_decision_task_MP,2020.1.3,iPhone,60,,0,-0.464435146,-0.282426778,1,0,0,0.765,button_left,0.765,1,,,,,,408,NW,"ID",50,hurnia,HURNIA,z,,,,,,-0.464435146,-0.282426778,1,0,0,,0,176,176,347,1,
,,,,,,,,,,,,,,,,,,5efdcff83a6844231c003073,2020-08-08_10h24.33.481,lexical_decision_task_MP,2020.1.3,iPhone,60,,0,0.525104603,-0.29916318,1,0,0,0.736,button_right,0.736,1,,,,,,158,WORD,"ID",50,island,ISLAND,m,,,,,,0.525104603,-0.29916318,1,0,0,,0,177,177,97,1,
,,,,,,,,,,,,,,,,,,5efdcff83a6844231c003073,2020-08-08_10h24.33.481,lexical_decision_task_MP,2020.1.3,iPhone,60,,0,-0.447698745,-0.30334728,1,0,0,0.737,button_left,0.737,1,,,,,,243,NW,UN,50,eatric,MUSIED,z,,,,,,-0.447698745,-0.30334728,1,0,0,,0,178,178,422,1,
,,,,,,,,,,,,,,,,,,5efdcff83a6844231c003073,2020-08-08_10h24.33.481,lexical_decision_task_MP,2020.1.3,iPhone,60,,0,-0.476987448,-0.284518828,1,0,0,1.571,button_left,1.571,1,,,,,,462,NW,UN,33,kispel,ABSULT,z,,,,,,-0.476987448,-0.284518828,1,0,0,,0,179,179,401,1,
,,,,,,,,,,,,,,,,,,5efdcff83a6844231c003073,2020-08-08_10h24.33.481,lexical_decision_task_MP,2020.1.3,iPhone,60,,0,0.5,-0.315899582,1,0,0,0.67,button_right,0.67,1,,,,,,152,WORD,"ID",50,rocket,ROCKET,m,,,,,,0.5,-0.315899582,1,0,0,,0,180,180,91,1,
,,,,,,,,,,,,,,,,,,5efdcff83a6844231c003073,2020-08-08_10h24.33.481,lexical_decision_task_MP,2020.1.3,iPhone,60,,0,0.491631799,-0.322175732,1,0,0,0.622,button_right,0.622,1,,,,,,173,WORD,"ID",50,shower,SHOWER,m,,,,,,0.491631799,-0.322175732,1,0,0,,0,181,181,112,1,
,,,,,,,,,,,,,,,,,,5efdcff83a6844231c003073,2020-08-08_10h24.33.481,lexical_decision_task_MP,2020.1.3,iPhone,60,,0,-0.474895397,-0.292887029,1,0,0,0.697,button_left,0.697,1,,,,,,310,NW,"ID",33,daniet,DANIET,z,,,,,,-0.474895397,-0.292887029,1,0,0,,0,182,182,249,1,
,,,,,,,,,,,,,,,,,,5efdcff83a6844231c003073,2020-08-08_10h24.33.481,lexical_decision_task_MP,2020.1.3,iPhone,60,,0,0.518828452,-0.307531381,1,0,0,0.623,button_right,0.623,1,,,,,,46,WORD,UN,50,income,SINGLE,m,,,,,,0.518828452,-0.307531381,1,0,0,,0,183,183,225,1,
,,,,,,,,,,,,,,,,,,5efdcff83a6844231c003073,2020-08-08_10h24.33.481,lexical_decision_task_MP,2020.1.3,iPhone,60,,0,-0.443514644,-0.307531381,1,0,0,0.81,button_left,0.81,1,,,,,,246,NW,UN,50,blarge,PIATON,z,,,,,,-0.443514644,-0.307531381,1,0,0,,0,184,184,425,1,
,,,,,,,,,,,,,,,,,,5efdcff83a6844231c003073,2020-08-08_10h24.33.481,lexical_decision_task_MP,2020.1.3,iPhone,60,,0,-0.451882845,-0.29916318,1,0,0,0.756,button_left,0.756,1,,,,,,376,NW,"ID",50,iguare,IGUARE,z,,,,,,-0.451882845,-0.29916318,1,0,0,,0,185,185,315,1,
,,,,,,,,,,,,,,,,,,5efdcff83a6844231c003073,2020-08-08_10h24.33.481,lexical_decision_task_MP,2020.1.3,iPhone,60,,0,,,,,,,,0.756,-1,,,,,,211,WORD,UN,33,verify,INFECT,m,,,,,,0.489539749,-0.320083682,0,0,0,,0,186,186,150,1,
,,,,,,,,,,,,,,,,,,5efdcff83a6844231c003073,2020-08-08_10h24.33.481,lexical_decision_task_MP,2020.1.3,iPhone,60,,0,-0.447698745,-0.292887029,1,0,0,0.773,button_left,0.773,1,,,,,,330,NW,"ID",33,kensom,KENSOM,z,,,,,,-0.447698745,-0.292887029,1,0,0,,0,187,187,269,1,
,,,,,,,,,,,,,,,,,,5efdcff83a6844231c003073,2020-08-08_10h24.33.481,lexical_decision_task_MP,2020.1.3,iPhone,60,,0,0.50209205,-0.324267782,1,0,0,0.76,button_right,0.76,1,,,,,,106,WORD,"ID",33,ransom,RANSOM,m,,,,,,0.50209205,-0.324267782,1,0,0,,0,188,188,45,1,
,,,,,,,,,,,,,,,,,,5efdcff83a6844231c003073,2020-08-08_10h24.33.481,lexical_decision_task_MP,2020.1.3,iPhone,60,,0,0.4958159,-0.326359833,1,0,0,0.672,button_right,0.672,1,,,,,,26,WORD,UN,50,butler,SPRINT,m,,,,,,0.4958159,-0.326359833,1,0,0,,0,189,189,205,1,
,,,,,,,,,,,,,,,,,,5efdcff83a6844231c003073,2020-08-08_10h24.33.481,lexical_decision_task_MP,2020.1.3,iPhone,60,,0,-0.447698745,-0.292887029,1,0,0,0.703,button_left,0.703,1,,,,,,395,NW,"ID",50,colury,COLURY,z,,,,,,-0.447698745,-0.292887029,1,0,0,,0,190,190,334,1,
,,,,,,,,,,,,,,,,,,5efdcff83a6844231c003073,2020-08-08_10h24.33.481,lexical_decision_task_MP,2020.1.3,iPhone,60,,0,-0.464435146,-0.286610879,1,0,0,0.82,button_left,0.82,1,,,,,,383,NW,"ID",50,aungre,AUNGRE,z,,,,,,-0.464435146,-0.286610879,1,0,0,,0,191,191,322,1,
,,,,,,,,,,,,,,,,,,5efdcff83a6844231c003073,2020-08-08_10h24.33.481,lexical_decision_task_MP,2020.1.3,iPhone,60,,0,0.514644351,-0.315899582,1,0,0,0.704,button_right,0.704,0,,,,,,332,NW,"ID",33,vangue,VANGUE,z,,,,,,0.514644351,-0.315899582,1,0,0,,0,192,192,271,1,
,,,,,,,,,,,,,,,,,,5efdcff83a6844231c003073,2020-08-08_10h24.33.481,lexical_decision_task_MP,2020.1.3,iPhone,60,,0,0.50209205,-0.322175732,1,0,0,0.622,button_right,0.622,1,,,,,,172,WORD,"ID",50,patrol,PATROL,m,,,,,,0.50209205,-0.322175732,1,0,0,,0,193,193,111,1,
,,,,,,,,,,,,,,,,,,5efdcff83a6844231c003073,2020-08-08_10h24.33.481,lexical_decision_task_MP,2020.1.3,iPhone,60,,0,0.508368201,-0.309623431,1,0,0,0.621,button_right,0.621,1,,,,,,36,WORD,UN,50,insult,VANISH,m,,,,,,0.508368201,-0.309623431,1,0,0,,0,194,194,215,1,
,,,,,,,,,,,,,,,,,,5efdcff83a6844231c003073,2020-08-08_10h24.33.481,lexical_decision_task_MP,2020.1.3,iPhone,60,,0,-0.483263598,-0.290794979,1,0,0,0.722,button_left,0.722,1,,,,,,277,NW,UN,50,unighs,PETAIN,z,,,,,,-0.483263598,-0.290794979,1,0,0,,0,195,195,456,1,
,,,,,,,,,,,,,,,,,,5efdcff83a6844231c003073,2020-08-08_10h24.33.481,lexical_decision_task_MP,2020.1.3,iPhone,60,,0,0.523012552,-0.313807531,1,0,0,0.507,button_right,0.507,1,,,,,,98,WORD,"ID",33,belong,BELONG,m,,,,,,0.523012552,-0.313807531,1,0,0,,0,196,196,37,1,
,,,,,,,,,,,,,,,,,,5efdcff83a6844231c003073,2020-08-08_10h24.33.481,lexical_decision_task_MP,2020.1.3,iPhone,60,,0,0.506276151,-0.313807531,1,0,0,0.606,button_right,0.606,1,,,,,,53,WORD,UN,50,ramble,POLICE,m,,,,,,0.506276151,-0.313807531,1,0,0,,0,197,197,232,1,
,,,,,,,,,,,,,,,,,,5efdcff83a6844231c003073,2020-08-08_10h24.33.481,lexical_decision_task_MP,2020.1.3,iPhone,60,,0,-0.476987448,-0.280334728,1,0,0,0.748,button_left,0.748,1,,,,,,474,NW,UN,33,acrise,HABLIN,z,,,,,,-0.476987448,-0.280334728,1,0,0,,0,198,198,413,1,
,,,,,,,,,,,,,,,,,,5efdcff83a6844231c003073,2020-08-08_10h24.33.481,lexical_decision_task_MP,2020.1.3,iPhone,60,,0,-0.458158996,-0.286610879,1,0,0,0.787,button_left,0.787,1,,,,,,387,NW,"ID",50,gronce,GRONCE,z,,,,,,-0.458158996,-0.286610879,1,0,0,,0,199,199,326,1,
,,,,,,,,,,,,,,,,,,5efdcff83a6844231c003073,2020-08-08_10h24.33.481,lexical_decision_task_MP,2020.1.3,iPhone,60,,0,-0.460251046,-0.286610879,1,0,0,0.571,button_left,0.571,1,,,,,,394,NW,"ID",50,spaqux,SPAQUX,z,,,,,,-0.460251046,-0.286610879,1,0,0,,0,200,200,333,1,
,,,,,,,,,,,,,,,,,,5efdcff83a6844231c003073,2020-08-08_10h24.33.481,lexical_decision_task_MP,2020.1.3,iPhone,60,,0,-0.466527197,-0.282426778,1,0,0,0.784,button_left,0.784,1,,,,,,337,NW,"ID",33,rejols,REJOLS,z,,,,,,-0.466527197,-0.282426778,1,0,0,,0,201,201,276,1,
,,,,,,,,,,,,,,,,,,5efdcff83a6844231c003073,2020-08-08_10h24.33.481,lexical_decision_task_MP,2020.1.3,iPhone,60,,0,-0.464435146,-0.284518828,1,0,0,0.702,button_left,0.702,1,,,,,,361,NW,"ID",50,pauche,PAUCHE,z,,,,,,-0.464435146,-0.284518828,1,0,0,,0,202,202,300,1,
,,,,,,,,,,,,,,,,,,5efdcff83a6844231c003073,2020-08-08_10h24.33.481,lexical_decision_task_MP,2020.1.3,iPhone,60,,0,0.489539749,-0.326359833,1,0,0,0.738,button_right,0.738,1,,,,,,33,WORD,UN,50,jungle,BUTLER,m,,,,,,0.489539749,-0.326359833,1,0,0,,0,203,203,212,1,
,,,,,,,,,,,,,,,,,,5efdcff83a6844231c003073,2020-08-08_10h24.33.481,lexical_decision_task_MP,2020.1.3,iPhone,60,,0,0.4958159,-0.322175732,1,0,0,0.618,button_right,0.618,1,,,,,,99,WORD,"ID",33,fluent,FLUENT,m,,,,,,0.4958159,-0.322175732,1,0,0,,0,204,204,38,1,
,,,,,,,,,,,,,,,,,,5efdcff83a6844231c003073,2020-08-08_10h24.33.481,lexical_decision_task_MP,2020.1.3,iPhone,60,,0,0.485355649,-0.324267782,1,0,0,0.585,button_right,0.585,1,,,,,,123,WORD,"ID",50,strike,STRIKE,m,,,,,,0.485355649,-0.324267782,1,0,0,,0,205,205,62,1,
,,,,,,,,,,,,,,,,,,5efdcff83a6844231c003073,2020-08-08_10h24.33.481,lexical_decision_task_MP,2020.1.3,iPhone,60,,0,-0.481171548,-0.288702929,1,0,0,0.738,button_left,0.738,1,,,,,,266,NW,UN,50,pasink,VARMIT,z,,,,,,-0.481171548,-0.288702929,1,0,0,,0,206,206,445,1,
,,,,,,,,,,,,,,,,,,5efdcff83a6844231c003073,2020-08-08_10h24.33.481,lexical_decision_task_MP,2020.1.3,iPhone,60,,0,-0.456066946,-0.294979079,1,0,0,0.756,button_left,0.756,1,,,,,,362,NW,"ID",50,tireau,TIREAU,z,,,,,,-0.456066946,-0.294979079,1,0,0,,0,207,207,301,1,
,,,,,,,,,,,,,,,,,,5efdcff83a6844231c003073,2020-08-08_10h24.33.481,lexical_decision_task_MP,2020.1.3,iPhone,60,,0,-0.470711297,-0.286610879,1,0,0,0.756,button_left,0.756,1,,,,,,463,NW,UN,33,chaite,KISPEL,z,,,,,,-0.470711297,-0.286610879,1,0,0,,0,208,208,402,1,
,,,,,,,,,,,,,,,,,,5efdcff83a6844231c003073,2020-08-08_10h24.33.481,lexical_decision_task_MP,2020.1.3,iPhone,60,,0,0.483263598,-0.326359833,1,0,0,0.488,button_right,0.488,0,,,,,,454,NW,UN,33,tondle,SCOUGE,z,,,,,,0.483263598,-0.326359833,1,0,0,,0,209,209,393,1,
,,,,,,,,,,,,,,,,,,5efdcff83a6844231c003073,2020-08-08_10h24.33.481,lexical_decision_task_MP,2020.1.3,iPhone,60,,0,0.49790795,-0.317991632,1,0,0,0.666,button_right,0.666,1,,,,,,143,WORD,"ID",50,reason,REASON,m,,,,,,0.49790795,-0.317991632,1,0,0,,0,210,210,82,1,
,,,,,,,,,,,,,,,,,,5efdcff83a6844231c003073,2020-08-08_10h24.33.481,lexical_decision_task_MP,2020.1.3,iPhone,60,,0,-0.470711297,-0.288702929,1,0,0,0.654,button_left,0.654,0,,,,,,30,WORD,UN,50,weapon,ORIENT,m,,,,,,-0.470711297,-0.288702929,1,0,0,,0,211,211,209,1,
,,,,,,,,,,,,,,,,,,5efdcff83a6844231c003073,2020-08-08_10h24.33.481,lexical_decision_task_MP,2020.1.3,iPhone,60,,0,0.5041841,-0.315899582,1,0,0,0.723,button_right,0.723,1,,,,,,80,WORD,"ID",33,family,FAMILY,m,,,,,,0.5041841,-0.315899582,1,0,0,,0,212,212,19,1,
,,,,,,,,,,,,,,,,,,5efdcff83a6844231c003073,2020-08-08_10h24.33.481,lexical_decision_task_MP,2020.1.3,iPhone,60,,0,0.493723849,-0.322175732,1,0,0,0.621,button_right,0.621,1,,,,,,38,WORD,UN,50,insect,POWDER,m,,,,,,0.493723849,-0.322175732,1,0,0,,0,213,213,217,1,
,,,,,,,,,,,,,,,,,,5efdcff83a6844231c003073,2020-08-08_10h24.33.481,lexical_decision_task_MP,2020.1.3,iPhone,60,,0,-0.481171548,-0.29707113,1,0,0,0.754,button_left,0.754,1,,,,,,340,NW,"ID",33,fiatch,FIATCH,z,,,,,,-0.481171548,-0.29707113,1,0,0,,0,214,214,279,1,
,,,,,,,,,,,,,,,,,,5efdcff83a6844231c003073,2020-08-08_10h24.33.481,lexical_decision_task_MP,2020.1.3,iPhone,60,,0,0.514644351,-0.313807531,1,0,0,0.705,button_right,0.705,1,,,,,,170,WORD,"ID",50,pounce,POUNCE,m,,,,,,0.514644351,-0.313807531,1,0,0,,0,215,215,109,1,
,,,,,,,,,,,,,,,,,,5efdcff83a6844231c003073,2020-08-08_10h24.33.481,lexical_decision_task_MP,2020.1.3,iPhone,60,,0,-0.481171548,-0.307531381,1,0,0,1.004,button_left,1.004,1,,,,,,391,NW,"ID",50,theldy,THELDY,z,,,,,,-0.481171548,-0.307531381,1,0,0,,0,216,216,330,1,
,,,,,,,,,,,,,,,,,,5efdcff83a6844231c003073,2020-08-08_10h24.33.481,lexical_decision_task_MP,2020.1.3,iPhone,60,,0,-0.472803347,-0.292887029,1,0,0,0.766,button_left,0.766,1,,,,,,260,NW,UN,50,stunch,UNJECT,z,,,,,,-0.472803347,-0.292887029,1,0,0,,0,217,217,439,1,
,,,,,,,,,,,,,,,,,,5efdcff83a6844231c003073,2020-08-08_10h24.33.481,lexical_decision_task_MP,2020.1.3,iPhone,60,,0,0.50209205,-0.320083682,1,0,0,0.587,button_right,0.587,1,,,,,,58,WORD,UN,50,splint,FOSTER,m,,,,,,0.50209205,-0.320083682,1,0,0,,0,218,218,237,1,
,,,,,,,,,,,,,,,,,,5efdcff83a6844231c003073,2020-08-08_10h24.33.481,lexical_decision_task_MP,2020.1.3,iPhone,60,,0,-0.472803347,-0.288702929,1,0,0,0.704,button_left,0.704,1,,,,,,367,NW,"ID",50,slique,SLIQUE,z,,,,,,-0.472803347,-0.288702929,1,0,0,,0,219,219,306,1,
,,,,,,,,,,,,,,,,,,5efdcff83a6844231c003073,2020-08-08_10h24.33.481,lexical_decision_task_MP,2020.1.3,iPhone,60,,0,0.520920502,-0.309623431,1,0,0,0.586,button_right,0.586,1,,,,,,108,WORD,"ID",33,reckon,RECKON,m,,,,,,0.520920502,-0.309623431,1,0,0,,0,220,220,47,1,
,,,,,,,,,,,,,,,,,,5efdcff83a6844231c003073,2020-08-08_10h24.33.481,lexical_decision_task_MP,2020.1.3,iPhone,60,,0,0.512552301,-0.313807531,1,0,0,0.669,button_right,0.669,1,,,,,,25,WORD,UN,50,sprint,DOMAIN,m,,,,,,0.512552301,-0.313807531,1,0,0,,0,221,221,204,1,
,,,,,,,,,,,,,,,,,,5efdcff83a6844231c003073,2020-08-08_10h24.33.481,lexical_decision_task_MP,2020.1.3,iPhone,60,,0,-0.5041841,-0.267782427,1,0,0,0.704,button_left,0.704,1,,,,,,334,NW,"ID",33,watmeg,WATMEG,z,,,,,,-0.5041841,-0.267782427,1,0,0,,0,222,222,273,1,
,,,,,,,,,,,,,,,,,,5efdcff83a6844231c003073,2020-08-08_10h24.33.481,lexical_decision_task_MP,2020.1.3,iPhone,60,,0,-0.493723849,-0.280334728,1,0,0,0.817,button_left,0.817,1,,,,,,309,NW,"ID",33,amiloy,AMILOY,z,,,,,,-0.493723849,-0.280334728,1,0,0,,0,223,223,248,1,
,,,,,,,,,,,,,,,,,,5efdcff83a6844231c003073,2020-08-08_10h24.33.481,lexical_decision_task_MP,2020.1.3,iPhone,60,,0,0.50209205,-0.315899582,1,0,0,0.806,button_right,0.806,1,,,,,,82,WORD,"ID",33,stigma,STIGMA,m,,,,,,0.50209205,-0.315899582,1,0,0,,0,224,224,21,1,
,,,,,,,,,,,,,,,,,,5efdcff83a6844231c003073,2020-08-08_10h24.33.481,lexical_decision_task_MP,2020.1.3,iPhone,60,,0,0.518828452,-0.315899582,1,0,0,0.77,button_right,0.77,1,,,,,,235,WORD,UN,33,pirate,GRUMPY,m,,,,,,0.518828452,-0.315899582,1,0,0,,0,225,225,174,1,
,,,,,,,,,,,,,,,,,,5efdcff83a6844231c003073,2020-08-08_10h24.33.481,lexical_decision_task_MP,2020.1.3,iPhone,60,,0,0.508368201,-0.309623431,1,0,0,0.706,button_right,0.706,1,,,,,,39,WORD,UN,50,convey,INSECT,m,,,,,,0.508368201,-0.309623431,1,0,0,,0,226,226,218,1,
,,,,,,,,,,,,,,,,,,5efdcff83a6844231c003073,2020-08-08_10h24.33.481,lexical_decision_task_MP,2020.1.3,iPhone,60,,0,0.510460251,-0.309623431,1,0,0,0.706,button_right,0.706,1,,,,,,146,WORD,"ID",50,couple,COUPLE,m,,,,,,0.510460251,-0.309623431,1,0,0,,0,227,227,85,1,
,,,,,,,,,,,,,,,,,,5efdcff83a6844231c003073,2020-08-08_10h24.33.481,lexical_decision_task_MP,2020.1.3,iPhone,60,,0,-0.447698745,-0.29916318,1,0,0,0.77,button_left,0.77,1,,,,,,480,NW,UN,33,knisma,ROBULY,z,,,,,,-0.447698745,-0.29916318,1,0,0,,0,228,228,419,1,
,,,,,,,,,,,,,,,,,,5efdcff83a6844231c003073,2020-08-08_10h24.33.481,lexical_decision_task_MP,2020.1.3,iPhone,60,,0,0.516736402,-0.29916318,1,0,0,0.689,button_right,0.689,0,,,,,,473,NW,UN,33,hablin,CRIBLE,z,,,,,,0.516736402,-0.29916318,1,0,0,,0,229,229,412,1,
,,,,,,,,,,,,,,,,,,5efdcff83a6844231c003073,2020-08-08_10h24.33.481,lexical_decision_task_MP,2020.1.3,iPhone,60,,0,0.508368201,-0.309623431,1,0,0,0.572,button_right,0.572,1,,,,,,140,WORD,"ID",50,prince,PRINCE,m,,,,,,0.508368201,-0.309623431,1,0,0,,0,230,230,79,1,
,,,,,,,,,,,,,,,,,,5efdcff83a6844231c003073,2020-08-08_10h24.33.481,lexical_decision_task_MP,2020.1.3,iPhone,60,,0,0.516736402,-0.29707113,1,0,0,0.654,button_right,0.654,1,,,,,,76,WORD,"ID",33,exotic,EXOTIC,m,,,,,,0.516736402,-0.29707113,1,0,0,,0,231,231,15,1,
,,,,,,,,,,,,,,,,,,5efdcff83a6844231c003073,2020-08-08_10h24.33.481,lexical_decision_task_MP,2020.1.3,iPhone,60,,0,0.514644351,-0.290794979,1,0,0,0.672,button_right,0.672,1,,,,,,52,WORD,UN,50,police,IMPOSE,m,,,,,,0.514644351,-0.290794979,1,0,0,,0,232,232,231,1,
,,,,,,,,,,,,,,,,,,5efdcff83a6844231c003073,2020-08-08_10h24.33.481,lexical_decision_task_MP,2020.1.3,iPhone,60,,0,-0.5041841,-0.274058577,1,0,0,0.772,button_left,0.772,1,,,,,,311,NW,"ID",33,sproly,SPROLY,z,,,,,,-0.5041841,-0.274058577,1,0,0,,0,233,233,250,1,
,,,,,,,,,,,,,,,,,,5efdcff83a6844231c003073,2020-08-08_10h24.33.481,lexical_decision_task_MP,2020.1.3,iPhone,60,,0,-0.476987448,-0.286610879,1,0,0,1.087,button_left,1.087,1,,,,,,271,NW,UN,50,damilt,AUBRID,z,,,,,,-0.476987448,-0.286610879,1,0,0,,0,234,234,450,1,
,,,,,,,,,,,,,,,,,,5efdcff83a6844231c003073,2020-08-08_10h24.33.481,lexical_decision_task_MP,2020.1.3,iPhone,60,,0,-0.487447699,-0.290794979,1,0,0,0.771,button_left,0.771,1,,,,,,321,NW,"ID",33,miator,MIATOR,z,,,,,,-0.487447699,-0.290794979,1,0,0,,0,235,235,260,1,
,,,,,,,,,,,,,,,,,,5efdcff83a6844231c003073,2020-08-08_10h24.33.481,lexical_decision_task_MP,2020.1.3,iPhone,60,,0,0.489539749,-0.315899582,1,0,0,0.598,button_right,0.598,1,,,,,,174,WORD,"ID",50,turkey,TURKEY,m,,,,,,0.489539749,-0.315899582,1,0,0,,0,236,236,113,1,
,,,,,,,,,,,,,,,,,,5efdcff83a6844231c003073,2020-08-08_10h24.33.481,lexical_decision_task_MP,2020.1.3,iPhone,60,,0,0.493723849,-0.313807531,1,0,0,0.914,button_right,0.914,1,,,,,,35,WORD,UN,50,vanish,SOCKET,m,,,,,,0.493723849,-0.313807531,1,0,0,,0,237,237,214,1,
,,,,,,,,,,,,,,,,,,5efdcff83a6844231c003073,2020-08-08_10h24.33.481,lexical_decision_task_MP,2020.1.3,iPhone,60,,0,-0.491631799,-0.278242678,1,0,0,1.088,button_left,1.088,1,,,,,,423,NW,UN,33,praile,STRELD,z,,,,,,-0.491631799,-0.278242678,1,0,0,,0,238,238,362,1,
,,,,,,,,,,,,,,,,,,5efdcff83a6844231c003073,2020-08-08_10h24.33.481,lexical_decision_task_MP,2020.1.3,iPhone,60,,0,0.491631799,-0.315899582,1,0,0,0.772,button_right,0.772,0,,,,,,314,NW,"ID",33,sprine,SPRINE,z,,,,,,0.491631799,-0.315899582,1,0,0,,0,239,239,253,1,
,,,,,,,,,,,,,,,,,,5efdcff83a6844231c003073,2020-08-08_10h24.33.481,lexical_decision_task_MP,2020.1.3,iPhone,60,,0,0.514644351,-0.30334728,1,0,0,1.288,button_right,1.288,1,,,,,,230,WORD,UN,33,mother,FRINGE,m,,,,,,0.514644351,-0.30334728,1,0,0,,0,240,240,169,1,
,,,,,,,,,,,,,,,,,,5efdcff83a6844231c003073,2020-08-08_10h24.33.481,lexical_decision_task_MP,2020.1.3,iPhone,60,,0,-0.487447699,-0.288702929,1,0,0,0.737,button_left,0.737,1,,,,,,331,NW,"ID",33,gilfew,GILFEW,z,,,,,,-0.10460251,-0.407949791,1,0,0,,0,241,241,270,1,break_done_button
,,,,,,,,,,,,,,,,,,5efdcff83a6844231c003073,2020-08-08_10h24.33.481,lexical_decision_task_MP,2020.1.3,iPhone,60,,0,-0.449790795,-0.322175732,1,0,0,1.107,button_left,1.107,1,,,,,,438,NW,UN,33,limpor,BAITCH,z,,,,,,-0.449790795,-0.322175732,1,0,0,,0,242,242,377,1,
,,,,,,,,,,,,,,,,,,5efdcff83a6844231c003073,2020-08-08_10h24.33.481,lexical_decision_task_MP,2020.1.3,iPhone,60,,0,-0.462343096,-0.29916318,1,0,0,0.671,button_left,0.671,1,,,,,,410,NW,"ID",50,tunory,TUNORY,z,,,,,,-0.462343096,-0.29916318,1,0,0,,0,243,243,349,1,
,,,,,,,,,,,,,,,,,,5efdcff83a6844231c003073,2020-08-08_10h24.33.481,lexical_decision_task_MP,2020.1.3,iPhone,60,,0,0.460251046,-0.341004184,1,0,0,0.889,button_right,0.889,1,,,,,,222,WORD,UN,33,export,HINDER,m,,,,,,0.460251046,-0.341004184,1,0,0,,0,244,244,161,1,
,,,,,,,,,,,,,,,,,,5efdcff83a6844231c003073,2020-08-08_10h24.33.481,lexical_decision_task_MP,2020.1.3,iPhone,60,,0,0.483263598,-0.305439331,1,0,0,0.624,button_right,0.624,0,,,,,,248,NW,UN,50,batrol,STROLE,z,,,,,,0.483263598,-0.305439331,1,0,0,,0,245,245,427,1,
,,,,,,,,,,,,,,,,,,5efdcff83a6844231c003073,2020-08-08_10h24.33.481,lexical_decision_task_MP,2020.1.3,iPhone,60,,0,0.508368201,-0.309623431,1,0,0,0.632,button_right,0.632,1,,,,,,217,WORD,UN,33,shrink,LIQUOR,m,,,,,,0.508368201,-0.309623431,1,0,0,,0,246,246,156,1,
,,,,,,,,,,,,,,,,,,5efdcff83a6844231c003073,2020-08-08_10h24.33.481,lexical_decision_task_MP,2020.1.3,iPhone,60,,0,-0.458158996,-0.307531381,1,0,0,0.755,button_left,0.755,1,,,,,,477,NW,UN,33,lobush,PHOTIE,z,,,,,,-0.458158996,-0.307531381,1,0,0,,0,247,247,416,1,
,,,,,,,,,,,,,,,,,,5efdcff83a6844231c003073,2020-08-08_10h24.33.481,lexical_decision_task_MP,2020.1.3,iPhone,60,,0,-0.464435146,-0.29916318,1,0,0,0.739,button_left,0.739,1,,,,,,317,NW,"ID",33,worbal,WORBAL,z,,,,,,-0.464435146,-0.29916318,1,0,0,,0,248,248,256,1,
,,,,,,,,,,,,,,,,,,5efdcff83a6844231c003073,2020-08-08_10h24.33.481,lexical_decision_task_MP,2020.1.3,iPhone,60,,0,-0.483263598,-0.30125523,1,0,0,0.737,button_left,0.737,1,,,,,,359,NW,"ID",33,fonver,FONVER,z,,,,,,-0.483263598,-0.30125523,1,0,0,,0,249,249,298,1,
,,,,,,,,,,,,,,,,,,5efdcff83a6844231c003073,2020-08-08_10h24.33.481,lexical_decision_task_MP,2020.1.3,iPhone,60,,0,-0.464435146,-0.309623431,1,0,0,0.555,button_left,0.555,1,,,,,,274,NW,UN,50,sleirt,FUMBLO,z,,,,,,-0.464435146,-0.309623431,1,0,0,,0,250,250,453,1,
,,,,,,,,,,,,,,,,,,5efdcff83a6844231c003073,2020-08-08_10h24.33.481,lexical_decision_task_MP,2020.1.3,iPhone,60,,0,-0.476987448,-0.305439331,1,0,0,1.274,button_left,1.274,1,,,,,,364,NW,"ID",50,impote,IMPOTE,z,,,,,,-0.476987448,-0.305439331,1,0,0,,0,251,251,303,1,
,,,,,,,,,,,,,,,,,,5efdcff83a6844231c003073,2020-08-08_10h24.33.481,lexical_decision_task_MP,2020.1.3,iPhone,60,,0,-0.481171548,-0.284518828,1,0,0,0.79,button_left,0.79,1,,,,,,412,NW,"ID",50,jiluer,JILUER,z,,,,,,-0.481171548,-0.284518828,1,0,0,,0,252,252,351,1,
,,,,,,,,,,,,,,,,,,5efdcff83a6844231c003073,2020-08-08_10h24.33.481,lexical_decision_task_MP,2020.1.3,iPhone,60,,0,0.493723849,-0.322175732,1,0,0,0.655,button_right,0.655,1,,,,,,31,WORD,UN,50,buckle,WEAPON,m,,,,,,0.493723849,-0.322175732,1,0,0,,0,253,253,210,1,
,,,,,,,,,,,,,,,,,,5efdcff83a6844231c003073,2020-08-08_10h24.33.481,lexical_decision_task_MP,2020.1.3,iPhone,60,,0,-0.464435146,-0.292887029,1,0,0,0.627,button_left,0.627,1,,,,,,381,NW,"ID",50,huniek,HUNIEK,z,,,,,,-0.464435146,-0.292887029,1,0,0,,0,254,254,320,1,
,,,,,,,,,,,,,,,,,,5efdcff83a6844231c003073,2020-08-08_10h24.33.481,lexical_decision_task_MP,2020.1.3,iPhone,60,,0,0.49790795,-0.322175732,1,0,0,0.682,button_right,0.682,1,,,,,,195,WORD,UN,33,credit,RESIGN,m,,,,,,0.49790795,-0.322175732,1,0,0,,0,255,255,134,1,
,,,,,,,,,,,,,,,,,,5efdcff83a6844231c003073,2020-08-08_10h24.33.481,lexical_decision_task_MP,2020.1.3,iPhone,60,,0,-0.470711297,-0.292887029,1,0,0,0.689,button_left,0.689,1,,,,,,421,NW,UN,33,alcoud,KNISMA,z,,,,,,-0.470711297,-0.292887029,1,0,0,,0,256,256,360,1,
,,,,,,,,,,,,,,,,,,5efdcff83a6844231c003073,2020-08-08_10h24.33.481,lexical_decision_task_MP,2020.1.3,iPhone,60,,0,-0.5,-0.282426778,1,0,0,0.672,button_left,0.672,1,,,,,,265,NW,UN,50,varmit,DISTAR,z,,,,,,-0.5,-0.282426778,1,0,0,,0,257,257,444,1,
,,,,,,,,,,,,,,,,,,5efdcff83a6844231c003073,2020-08-08_10h24.33.481,lexical_decision_task_MP,2020.1.3,iPhone,60,,0,0.508368201,-0.322175732,1,0,0,1.054,button_right,1.054,1,,,,,,145,WORD,"ID",50,parish,PARISH,m,,,,,,0.508368201,-0.322175732,1,0,0,,0,258,258,84,1,
,,,,,,,,,,,,,,,,,,5efdcff83a6844231c003073,2020-08-08_10h24.33.481,lexical_decision_task_MP,2020.1.3,iPhone,60,,0,0.479079498,-0.309623431,1,0,0,0.623,button_right,0.623,1,,,,,,237,WORD,UN,33,glance,POSTER,m,,,,,,0.479079498,-0.309623431,1,0,0,,0,259,259,176,1,
,,,,,,,,,,,,,,,,,,5efdcff83a6844231c003073,2020-08-08_10h24.33.481,lexical_decision_task_MP,2020.1.3,iPhone,60,,0,-0.476987448,-0.286610879,1,0,0,0.79,button_left,0.79,1,,,,,,290,NW,UN,50,pretch,SPLINO,z,,,,,,-0.476987448,-0.286610879,1,0,0,,0,260,260,469,1,
,,,,,,,,,,,,,,,,,,5efdcff83a6844231c003073,2020-08-08_10h24.33.481,lexical_decision_task_MP,2020.1.3,iPhone,60,,0,-0.447698745,-0.315899582,1,0,0,1.051,button_left,1.051,1,,,,,,437,NW,UN,33,baitch,SNAPEL,z,,,,,,-0.447698745,-0.315899582,1,0,0,,0,261,261,376,1,
,,,,,,,,,,,,,,,,,,5efdcff83a6844231c003073,2020-08-08_10h24.33.481,lexical_decision_task_MP,2020.1.3,iPhone,60,,0,0.481171548,-0.315899582,1,0,0,0.639,button_right,0.639,1,,,,,,214,WORD,UN,33,phobia,INTAKE,m,,,,,,0.481171548,-0.315899582,1,0,0,,0,262,262,153,1,
,,,,,,,,,,,,,,,,,,5efdcff83a6844231c003073,2020-08-08_10h24.33.481,lexical_decision_task_MP,2020.1.3,iPhone,60,,0,-0.493723849,-0.288702929,1,0,0,0.753,button_left,0.753,1,,,,,,349,NW,"ID",33,asylen,ASYLEN,z,,,,,,-0.493723849,-0.288702929,1,0,0,,0,263,263,288,1,
,,,,,,,,,,,,,,,,,,5efdcff83a6844231c003073,2020-08-08_10h24.33.481,lexical_decision_task_MP,2020.1.3,iPhone,60,,0,0.485355649,-0.322175732,1,0,0,0.622,button_right,0.622,1,,,,,,127,WORD,"ID",50,castle,CASTLE,m,,,,,,0.485355649,-0.322175732,1,0,0,,0,264,264,66,1,
,,,,,,,,,,,,,,,,,,5efdcff83a6844231c003073,2020-08-08_10h24.33.481,lexical_decision_task_MP,2020.1.3,iPhone,60,,0,0.50209205,-0.311715481,1,0,0,0.689,button_right,0.689,1,,,,,,184,WORD,UN,33,bother,SLEAZY,m,,,,,,0.50209205,-0.311715481,1,0,0,,0,265,265,123,1,
,,,,,,,,,,,,,,,,,,5efdcff83a6844231c003073,2020-08-08_10h24.33.481,lexical_decision_task_MP,2020.1.3,iPhone,60,,0,-0.481171548,-0.286610879,1,0,0,0.74,button_left,0.74,1,,,,,,456,NW,UN,33,wanigh,BROGET,z,,,,,,-0.481171548,-0.286610879,1,0,0,,0,266,266,395,1,
,,,,,,,,,,,,,,,,,,5efdcff83a6844231c003073,2020-08-08_10h24.33.481,lexical_decision_task_MP,2020.1.3,iPhone,60,,0,0.485355649,-0.330543933,1,0,0,0.638,button_right,0.638,1,,,,,,23,WORD,UN,50,praise,WEALTH,m,,,,,,0.485355649,-0.330543933,1,0,0,,0,267,267,202,1,
,,,,,,,,,,,,,,,,,,5efdcff83a6844231c003073,2020-08-08_10h24.33.481,lexical_decision_task_MP,2020.1.3,iPhone,60,,0,0.50209205,-0.309623431,1,0,0,0.54,button_right,0.54,1,,,,,,169,WORD,"ID",50,genius,GENIUS,m,,,,,,0.50209205,-0.309623431,1,0,0,,0,268,268,108,1,
,,,,,,,,,,,,,,,,,,5efdcff83a6844231c003073,2020-08-08_10h24.33.481,lexical_decision_task_MP,2020.1.3,iPhone,60,,0,-0.458158996,-0.307531381,1,0,0,0.887,button_left,0.887,1,,,,,,372,NW,"ID",50,ramily,RAMILY,z,,,,,,-0.458158996,-0.307531381,1,0,0,,0,269,269,311,1,
,,,,,,,,,,,,,,,,,,5efdcff83a6844231c003073,2020-08-08_10h24.33.481,lexical_decision_task_MP,2020.1.3,iPhone,60,,0,0.493723849,-0.320083682,1,0,0,0.563,button_right,0.563,1,,,,,,224,WORD,UN,33,vulgar,PERIOD,m,,,,,,0.493723849,-0.320083682,1,0,0,,0,270,270,163,1,
,,,,,,,,,,,,,,,,,,5efdcff83a6844231c003073,2020-08-08_10h24.33.481,lexical_decision_task_MP,2020.1.3,iPhone,60,,0,-0.441422594,-0.309623431,1,0,0,0.676,button_left,0.676,1,,,,,,312,NW,"ID",33,nerawl,NERAWL,z,,,,,,-0.441422594,-0.309623431,1,0,0,,0,271,271,251,1,
,,,,,,,,,,,,,,,,,,5efdcff83a6844231c003073,2020-08-08_10h24.33.481,lexical_decision_task_MP,2020.1.3,iPhone,60,,0,-0.456066946,-0.30125523,1,0,0,0.811,button_left,0.811,1,,,,,,348,NW,"ID",33,dumple,DUMPLE,z,,,,,,-0.456066946,-0.30125523,1,0,0,,0,272,272,287,1,
,,,,,,,,,,,,,,,,,,5efdcff83a6844231c003073,2020-08-08_10h24.33.481,lexical_decision_task_MP,2020.1.3,iPhone,60,,0,0.491631799,-0.313807531,1,0,0,0.62,button_right,0.62,1,,,,,,125,WORD,"ID",50,nickel,NICKEL,m,,,,,,0.491631799,-0.313807531,1,0,0,,0,273,273,64,1,
,,,,,,,,,,,,,,,,,,5efdcff83a6844231c003073,2020-08-08_10h24.33.481,lexical_decision_task_MP,2020.1.3,iPhone,60,,0,0.508368201,-0.315899582,1,0,0,0.547,button_right,0.547,1,,,,,,70,WORD,"ID",33,square,SQUARE,m,,,,,,0.508368201,-0.315899582,1,0,0,,0,274,274,9,1,
,,,,,,,,,,,,,,,,,,5efdcff83a6844231c003073,2020-08-08_10h24.33.481,lexical_decision_task_MP,2020.1.3,iPhone,60,,0,0.5041841,-0.307531381,1,0,0,0.574,button_right,0.574,1,,,,,,185,WORD,UN,33,portal,BOTHER,m,,,,,,0.5041841,-0.307531381,1,0,0,,0,275,275,124,1,
,,,,,,,,,,,,,,,,,,5efdcff83a6844231c003073,2020-08-08_10h24.33.481,lexical_decision_task_MP,2020.1.3,iPhone,60,,0,-0.487447699,-0.307531381,1,0,0,0.628,button_left,0.628,1,,,,,,444,NW,UN,33,minkel,JAUNCE,z,,,,,,-0.487447699,-0.307531381,1,0,0,,0,276,276,383,1,
,,,,,,,,,,,,,,,,,,5efdcff83a6844231c003073,2020-08-08_10h24.33.481,lexical_decision_task_MP,2020.1.3,iPhone,60,,0,-0.451882845,-0.322175732,1,0,0,0.94,button_left,0.94,1,,,,,,373,NW,"ID",50,bigent,BIGENT,z,,,,,,-0.451882845,-0.322175732,1,0,0,,0,277,277,312,1,
,,,,,,,,,,,,,,,,,,5efdcff83a6844231c003073,2020-08-08_10h24.33.481,lexical_decision_task_MP,2020.1.3,iPhone,60,,0,-0.468619247,-0.294979079,1,0,0,0.9,button_left,0.9,1,,,,,,455,NW,UN,33,broget,TONDLE,z,,,,,,-0.468619247,-0.294979079,1,0,0,,0,278,278,394,1,
,,,,,,,,,,,,,,,,,,5efdcff83a6844231c003073,2020-08-08_10h24.33.481,lexical_decision_task_MP,2020.1.3,iPhone,60,,0,0.512552301,-0.315899582,1,0,0,0.606,button_right,0.606,1,,,,,,231,WORD,UN,33,inject,EXPORT,m,,,,,,0.512552301,-0.315899582,1,0,0,,0,279,279,170,1,
,,,,,,,,,,,,,,,,,,5efdcff83a6844231c003073,2020-08-08_10h24.33.481,lexical_decision_task_MP,2020.1.3,iPhone,60,,0,-0.474895397,-0.30334728,1,0,0,0.731,button_left,0.731,1,,,,,,457,NW,UN,33,barcet,WANIGH,z,,,,,,-0.474895397,-0.30334728,1,0,0,,0,280,280,396,1,
,,,,,,,,,,,,,,,,,,5efdcff83a6844231c003073,2020-08-08_10h24.33.481,lexical_decision_task_MP,2020.1.3,iPhone,60,,0,-0.464435146,-0.313807531,1,0,0,1.138,button_left,1.138,1,,,,,,322,NW,"ID",33,slanch,SLANCH,z,,,,,,-0.464435146,-0.313807531,1,0,0,,0,281,281,261,1,
,,,,,,,,,,,,,,,,,,5efdcff83a6844231c003073,2020-08-08_10h24.33.481,lexical_decision_task_MP,2020.1.3,iPhone,60,,0,-0.470711297,-0.30125523,1,0,0,0.855,button_left,0.855,1,,,,,,358,NW,"ID",33,fleack,FLEACK,z,,,,,,-0.470711297,-0.30125523,1,0,0,,0,282,282,297,1,
,,,,,,,,,,,,,,,,,,5efdcff83a6844231c003073,2020-08-08_10h24.33.481,lexical_decision_task_MP,2020.1.3,iPhone,60,,0,-0.451882845,-0.309623431,1,0,0,0.904,button_left,0.904,1,,,,,,297,NW,UN,50,piergy,FERTIC,z,,,,,,-0.451882845,-0.309623431,1,0,0,,0,283,283,476,1,
,,,,,,,,,,,,,,,,,,5efdcff83a6844231c003073,2020-08-08_10h24.33.481,lexical_decision_task_MP,2020.1.3,iPhone,60,,0,0.479079498,-0.328451883,1,0,0,0.761,button_right,0.761,0,,,,,,398,NW,"ID",50,blunde,BLUNDE,z,,,,,,0.479079498,-0.328451883,1,0,0,,0,284,284,337,1,
,,,,,,,,,,,,,,,,,,5efdcff83a6844231c003073,2020-08-08_10h24.33.481,lexical_decision_task_MP,2020.1.3,iPhone,60,,0,0.49790795,-0.328451883,1,0,0,0.861,button_right,0.861,1,,,,,,56,WORD,UN,50,change,AMBUSH,m,,,,,,0.49790795,-0.328451883,1,0,0,,0,285,285,235,1,
,,,,,,,,,,,,,,,,,,5efdcff83a6844231c003073,2020-08-08_10h24.33.481,lexical_decision_task_MP,2020.1.3,iPhone,60,,0,-0.466527197,-0.30125523,1,0,0,1.038,button_left,1.038,1,,,,,,419,NW,"ID",50,slount,SLOUNT,z,,,,,,-0.466527197,-0.30125523,1,0,0,,0,286,286,358,1,
,,,,,,,,,,,,,,,,,,5efdcff83a6844231c003073,2020-08-08_10h24.33.481,lexical_decision_task_MP,2020.1.3,iPhone,60,,0,-0.483263598,-0.290794979,1,0,0,1.04,button_left,1.04,1,,,,,,254,NW,UN,50,apight,VAROSH,z,,,,,,-0.483263598,-0.290794979,1,0,0,,0,287,287,433,1,
,,,,,,,,,,,,,,,,,,5efdcff83a6844231c003073,2020-08-08_10h24.33.481,lexical_decision_task_MP,2020.1.3,iPhone,60,,0,-0.470711297,-0.29707113,1,0,0,0.823,button_left,0.823,1,,,,,,295,NW,UN,50,beinch,GLEATH,z,,,,,,-0.470711297,-0.29707113,1,0,0,,0,288,288,474,1,
,,,,,,,,,,,,,,,,,,5efdcff83a6844231c003073,2020-08-08_10h24.33.481,lexical_decision_task_MP,2020.1.3,iPhone,60,,0,0.485355649,-0.326359833,1,0,0,0.638,button_right,0.638,1,,,,,,7,WORD,UN,50,abrupt,ANCHOR,m,,,,,,0.485355649,-0.326359833,1,0,0,,0,289,289,186,1,
,,,,,,,,,,,,,,,,,,5efdcff83a6844231c003073,2020-08-08_10h24.33.481,lexical_decision_task_MP,2020.1.3,iPhone,60,,0,0.424686192,-0.349372385,1,0,0,0.755,button_right,0.755,1,,,,,,142,WORD,"ID",50,spruce,SPRUCE,m,,,,,,0.424686192,-0.349372385,1,0,0,,0,290,290,81,1,
,,,,,,,,,,,,,,,,,,5efdcff83a6844231c003073,2020-08-08_10h24.33.481,lexical_decision_task_MP,2020.1.3,iPhone,60,,0,-0.464435146,-0.280334728,1,0,0,0.722,button_left,0.722,1,,,,,,333,NW,"ID",33,catrie,CATRIE,z,,,,,,-0.464435146,-0.280334728,1,0,0,,0,291,291,272,1,
,,,,,,,,,,,,,,,,,,5efdcff83a6844231c003073,2020-08-08_10h24.33.481,lexical_decision_task_MP,2020.1.3,iPhone,60,,0,0.433054393,-0.328451883,1,0,0,0.638,button_right,0.638,1,,,,,,215,WORD,UN,33,lumber,PHOBIA,m,,,,,,0.433054393,-0.328451883,1,0,0,,0,292,292,154,1,
,,,,,,,,,,,,,,,,,,5efdcff83a6844231c003073,2020-08-08_10h24.33.481,lexical_decision_task_MP,2020.1.3,iPhone,60,,0,-0.447698745,-0.290794979,1,0,0,0.655,button_left,0.655,1,,,,,,308,NW,"ID",33,psetch,PSETCH,z,,,,,,-0.447698745,-0.290794979,1,0,0,,0,293,293,247,1,
,,,,,,,,,,,,,,,,,,5efdcff83a6844231c003073,2020-08-08_10h24.33.481,lexical_decision_task_MP,2020.1.3,iPhone,60,,0,-0.443514644,-0.286610879,1,0,0,1.089,button_left,1.089,1,,,,,,278,NW,UN,50,celond,UNIGHS,z,,,,,,-0.443514644,-0.286610879,1,0,0,,0,294,294,457,1,
,,,,,,,,,,,,,,,,,,5efdcff83a6844231c003073,2020-08-08_10h24.33.481,lexical_decision_task_MP,2020.1.3,iPhone,60,,0,0.489539749,-0.294979079,1,0,0,0.539,button_right,0.539,0,,,,,,342,NW,"ID",33,randow,RANDOW,z,,,,,,0.489539749,-0.294979079,1,0,0,,0,295,295,281,1,
,,,,,,,,,,,,,,,,,,5efdcff83a6844231c003073,2020-08-08_10h24.33.481,lexical_decision_task_MP,2020.1.3,iPhone,60,,0,-0.456066946,-0.284518828,1,0,0,0.838,button_left,0.838,1,,,,,,403,NW,"ID",50,bruats,BRUATS,z,,,,,,-0.456066946,-0.284518828,1,0,0,,0,296,296,342,1,
,,,,,,,,,,,,,,,,,,5efdcff83a6844231c003073,2020-08-08_10h24.33.481,lexical_decision_task_MP,2020.1.3,iPhone,60,,0,0.49790795,-0.29916318,1,0,0,0.603,button_right,0.603,1,,,,,,229,WORD,UN,33,fringe,MOTHER,m,,,,,,0.49790795,-0.29916318,1,0,0,,0,297,297,168,1,
,,,,,,,,,,,,,,,,,,5efdcff83a6844231c003073,2020-08-08_10h24.33.481,lexical_decision_task_MP,2020.1.3,iPhone,60,,0,0.491631799,-0.309623431,1,0,0,0.672,button_right,0.672,1,,,,,,115,WORD,"ID",33,guitar,GUITAR,m,,,,,,0.491631799,-0.309623431,1,0,0,,0,298,298,54,1,
,,,,,,,,,,,,,,,,,,5efdcff83a6844231c003073,2020-08-08_10h24.33.481,lexical_decision_task_MP,2020.1.3,iPhone,60,,0,-0.481171548,-0.280334728,1,0,0,0.687,button_left,0.687,1,,,,,,326,NW,"ID",33,iguade,IGUADE,z,,,,,,-0.481171548,-0.280334728,1,0,0,,0,299,299,265,1,
,,,,,,,,,,,,,,,,,,5efdcff83a6844231c003073,2020-08-08_10h24.33.481,lexical_decision_task_MP,2020.1.3,iPhone,60,,0,-0.474895397,-0.280334728,1,0,0,0.921,button_left,0.921,1,,,,,,407,NW,"ID",50,suiver,SUIVER,z,,,,,,-0.474895397,-0.280334728,1,0,0,,0,300,300,346,1,
,,,,,,,,,,,,,,,,,,5efdcff83a6844231c003073,2020-08-08_10h24.33.481,lexical_decision_task_MP,2020.1.3,iPhone,60,,0,-0.464435146,-0.29916318,1,0,0,0.738,button_left,0.738,1,,,,,,399,NW,"ID",50,fouret,FOURET,z,,,,,,-0.464435146,-0.29916318,1,0,0,,0,301,301,338,1,
,,,,,,,,,,,,,,,,,,5efdcff83a6844231c003073,2020-08-08_10h24.33.481,lexical_decision_task_MP,2020.1.3,iPhone,60,,0,-0.476987448,-0.286610879,1,0,0,1.007,button_left,1.007,1,,,,,,255,NW,UN,50,inlors,APIGHT,z,,,,,,-0.476987448,-0.286610879,1,0,0,,0,302,302,434,1,
,,,,,,,,,,,,,,,,,,5efdcff83a6844231c003073,2020-08-08_10h24.33.481,lexical_decision_task_MP,2020.1.3,iPhone,60,,0,0.506276151,-0.294979079,1,0,0,0.558,button_right,0.558,0,,,,,,335,NW,"ID",33,desion,DESION,z,,,,,,0.506276151,-0.294979079,1,0,0,,0,303,303,274,1,
,,,,,,,,,,,,,,,,,,5efdcff83a6844231c003073,2020-08-08_10h24.33.481,lexical_decision_task_MP,2020.1.3,iPhone,60,,0,0.523012552,-0.286610879,1,0,0,0.602,button_right,0.602,1,,,,,,113,WORD,"ID",33,chorus,CHORUS,m,,,,,,0.523012552,-0.286610879,1,0,0,,0,304,304,52,1,
,,,,,,,,,,,,,,,,,,5efdcff83a6844231c003073,2020-08-08_10h24.33.481,lexical_decision_task_MP,2020.1.3,iPhone,60,,0,0.520920502,-0.282426778,1,0,0,0.655,button_right,0.655,1,,,,,,14,WORD,UN,50,orange,ALMOST,m,,,,,,0.520920502,-0.282426778,1,0,0,,0,305,305,193,1,
,,,,,,,,,,,,,,,,,,5efdcff83a6844231c003073,2020-08-08_10h24.33.481,lexical_decision_task_MP,2020.1.3,iPhone,60,,0,0.525104603,-0.280334728,1,0,0,0.671,button_right,0.671,1,,,,,,20,WORD,UN,50,simple,BREAST,m,,,,,,0.525104603,-0.280334728,1,0,0,,0,306,306,199,1,
,,,,,,,,,,,,,,,,,,5efdcff83a6844231c003073,2020-08-08_10h24.33.481,lexical_decision_task_MP,2020.1.3,iPhone,60,,0,0.533472803,-0.286610879,1,0,0,0.522,button_right,0.522,1,,,,,,148,WORD,"ID",50,custom,CUSTOM,m,,,,,,0.533472803,-0.286610879,1,0,0,,0,307,307,87,1,
,,,,,,,,,,,,,,,,,,5efdcff83a6844231c003073,2020-08-08_10h24.33.481,lexical_decision_task_MP,2020.1.3,iPhone,60,,0,-0.476987448,-0.288702929,1,0,0,0.705,button_left,0.705,1,,,,,,263,NW,UN,50,vackel,DOLICA,z,,,,,,-0.476987448,-0.288702929,1,0,0,,0,308,308,442,1,
,,,,,,,,,,,,,,,,,,5efdcff83a6844231c003073,2020-08-08_10h24.33.481,lexical_decision_task_MP,2020.1.3,iPhone,60,,0,0.523012552,-0.292887029,1,0,0,0.705,button_right,0.705,1,,,,,,69,WORD,"ID",33,plenty,PLENTY,m,,,,,,0.523012552,-0.292887029,1,0,0,,0,309,309,8,1,
,,,,,,,,,,,,,,,,,,5efdcff83a6844231c003073,2020-08-08_10h24.33.481,lexical_decision_task_MP,2020.1.3,iPhone,60,,0,0.520920502,-0.292887029,1,0,0,0.971,button_right,0.971,1,,,,,,45,WORD,UN,50,single,CLERGY,m,,,,,,0.520920502,-0.292887029,1,0,0,,0,310,310,224,1,
,,,,,,,,,,,,,,,,,,5efdcff83a6844231c003073,2020-08-08_10h24.33.481,lexical_decision_task_MP,2020.1.3,iPhone,60,,0,-0.468619247,-0.280334728,1,0,0,0.757,button_left,0.757,1,,,,,,375,NW,"ID",50,yorque,YORQUE,z,,,,,,-0.468619247,-0.280334728,1,0,0,,0,311,311,314,1,
,,,,,,,,,,,,,,,,,,5efdcff83a6844231c003073,2020-08-08_10h24.33.481,lexical_decision_task_MP,2020.1.3,iPhone,60,,0,-0.449790795,-0.292887029,1,0,0,0.838,button_left,0.838,1,,,,,,377,NW,"ID",50,injore,INJORE,z,,,,,,-0.449790795,-0.292887029,1,0,0,,0,312,312,316,1,
,,,,,,,,,,,,,,,,,,5efdcff83a6844231c003073,2020-08-08_10h24.33.481,lexical_decision_task_MP,2020.1.3,iPhone,60,,0,0.506276151,-0.313807531,1,0,0,1.104,button_right,1.104,1,,,,,,5,WORD,UN,50,bundle,PLUNGE,m,,,,,,0.506276151,-0.313807531,1,0,0,,0,313,313,184,1,
,,,,,,,,,,,,,,,,,,5efdcff83a6844231c003073,2020-08-08_10h24.33.481,lexical_decision_task_MP,2020.1.3,iPhone,60,,0,0.491631799,-0.324267782,1,0,0,0.588,button_right,0.588,1,,,,,,72,WORD,"ID",33,bright,BRIGHT,m,,,,,,0.491631799,-0.324267782,1,0,0,,0,314,314,11,1,
,,,,,,,,,,,,,,,,,,5efdcff83a6844231c003073,2020-08-08_10h24.33.481,lexical_decision_task_MP,2020.1.3,iPhone,60,,0,-0.456066946,-0.294979079,1,0,0,0.738,button_left,0.738,1,,,,,,386,NW,"ID",50,ancust,ANCUST,z,,,,,,-0.456066946,-0.294979079,1,0,0,,0,315,315,325,1,
,,,,,,,,,,,,,,,,,,5efdcff83a6844231c003073,2020-08-08_10h24.33.481,lexical_decision_task_MP,2020.1.3,iPhone,60,,0,0.514644351,-0.315899582,1,0,0,0.655,button_right,0.655,1,,,,,,177,WORD,"ID",50,advent,ADVENT,m,,,,,,0.514644351,-0.315899582,1,0,0,,0,316,316,116,1,
,,,,,,,,,,,,,,,,,,5efdcff83a6844231c003073,2020-08-08_10h24.33.481,lexical_decision_task_MP,2020.1.3,iPhone,60,,0,0.485355649,-0.322175732,1,0,0,0.672,button_right,0.672,1,,,,,,207,WORD,UN,33,hockey,WREATH,m,,,,,,0.485355649,-0.322175732,1,0,0,,0,317,317,146,1,
,,,,,,,,,,,,,,,,,,5efdcff83a6844231c003073,2020-08-08_10h24.33.481,lexical_decision_task_MP,2020.1.3,iPhone,60,,0,0.508368201,-0.309623431,1,0,0,0.555,button_right,0.555,1,,,,,,103,WORD,"ID",33,bounce,BOUNCE,m,,,,,,0.508368201,-0.309623431,1,0,0,,0,318,318,42,1,
,,,,,,,,,,,,,,,,,,5efdcff83a6844231c003073,2020-08-08_10h24.33.481,lexical_decision_task_MP,2020.1.3,iPhone,60,,0,0.510460251,-0.315899582,1,0,0,0.673,button_right,0.673,1,,,,,,65,WORD,"ID",33,symbol,SYMBOL,m,,,,,,0.510460251,-0.315899582,1,0,0,,0,319,319,4,1,
,,,,,,,,,,,,,,,,,,5efdcff83a6844231c003073,2020-08-08_10h24.33.481,lexical_decision_task_MP,2020.1.3,iPhone,60,,0,-0.458158996,-0.286610879,1,0,0,0.656,button_left,0.656,1,,,,,,252,NW,UN,50,resait,STAPOD,z,,,,,,-0.458158996,-0.286610879,1,0,0,,0,320,320,431,1,
,,,,,,,,,,,,,,,,,,5efdcff83a6844231c003073,2020-08-08_10h24.33.481,lexical_decision_task_MP,2020.1.3,iPhone,60,,0,-0.443514644,-0.292887029,1,0,0,1.089,button_left,1.089,1,,,,,,397,NW,"ID",50,camble,CAMBLE,z,,,,,,-0.443514644,-0.292887029,1,0,0,,0,321,321,336,1,
,,,,,,,,,,,,,,,,,,5efdcff83a6844231c003073,2020-08-08_10h24.33.481,lexical_decision_task_MP,2020.1.3,iPhone,60,,0,0.506276151,-0.322175732,1,0,0,0.605,button_right,0.605,1,,,,,,95,WORD,"ID",33,thread,THREAD,m,,,,,,0.506276151,-0.322175732,1,0,0,,0,322,322,34,1,
,,,,,,,,,,,,,,,,,,5efdcff83a6844231c003073,2020-08-08_10h24.33.481,lexical_decision_task_MP,2020.1.3,iPhone,60,,0,-0.481171548,-0.292887029,1,0,0,0.773,button_left,0.773,1,,,,,,450,NW,UN,33,cainky,PHRECT,z,,,,,,-0.481171548,-0.292887029,1,0,0,,0,323,323,389,1,
,,,,,,,,,,,,,,,,,,5efdcff83a6844231c003073,2020-08-08_10h24.33.481,lexical_decision_task_MP,2020.1.3,iPhone,60,,0,-0.458158996,-0.292887029,1,0,0,1.19,button_left,1.19,1,,,,,,432,NW,UN,33,drance,LUNKER,z,,,,,,-0.458158996,-0.292887029,1,0,0,,0,324,324,371,1,
,,,,,,,,,,,,,,,,,,5efdcff83a6844231c003073,2020-08-08_10h24.33.481,lexical_decision_task_MP,2020.1.3,iPhone,60,,0,0.514644351,-0.326359833,1,0,0,0.657,button_right,0.657,1,,,,,,155,WORD,"ID",50,lizard,LIZARD,m,,,,,,0.514644351,-0.326359833,1,0,0,,0,325,325,94,1,
,,,,,,,,,,,,,,,,,,5efdcff83a6844231c003073,2020-08-08_10h24.33.481,lexical_decision_task_MP,2020.1.3,iPhone,60,,0,0.483263598,-0.330543933,1,0,0,0.856,button_right,0.856,1,,,,,,66,WORD,"ID",33,gospel,GOSPEL,m,,,,,,0.483263598,-0.330543933,1,0,0,,0,326,326,5,1,
,,,,,,,,,,,,,,,,,,5efdcff83a6844231c003073,2020-08-08_10h24.33.481,lexical_decision_task_MP,2020.1.3,iPhone,60,,0,0.476987448,-0.332635983,1,0,0,0.822,button_right,0.822,1,,,,,,129,WORD,"ID",50,marvel,MARVEL,m,,,,,,0.476987448,-0.332635983,1,0,0,,0,327,327,68,1,
,,,,,,,,,,,,,,,,,,5efdcff83a6844231c003073,2020-08-08_10h24.33.481,lexical_decision_task_MP,2020.1.3,iPhone,60,,0,-0.451882845,-0.294979079,1,0,0,0.771,button_left,0.771,1,,,,,,416,NW,"ID",50,pathel,PATHEL,z,,,,,,-0.451882845,-0.294979079,1,0,0,,0,328,328,355,1,
,,,,,,,,,,,,,,,,,,5efdcff83a6844231c003073,2020-08-08_10h24.33.481,lexical_decision_task_MP,2020.1.3,iPhone,60,,0,0.485355649,-0.336820084,1,0,0,0.789,button_right,0.789,1,,,,,,189,WORD,UN,33,backup,CENSOR,m,,,,,,0.485355649,-0.336820084,1,0,0,,0,329,329,128,1,
,,,,,,,,,,,,,,,,,,5efdcff83a6844231c003073,2020-08-08_10h24.33.481,lexical_decision_task_MP,2020.1.3,iPhone,60,,0,0.493723849,-0.326359833,1,0,0,0.723,button_right,0.723,1,,,,,,163,WORD,"ID",50,string,STRING,m,,,,,,0.493723849,-0.326359833,1,0,0,,0,330,330,102,1,
,,,,,,,,,,,,,,,,,,5efdcff83a6844231c003073,2020-08-08_10h24.33.481,lexical_decision_task_MP,2020.1.3,iPhone,60,,0,0.4958159,-0.324267782,1,0,0,0.623,button_right,0.623,0,,,,,,285,NW,UN,50,reldon,PRUDGE,z,,,,,,0.4958159,-0.324267782,1,0,0,,0,331,331,464,1,
,,,,,,,,,,,,,,,,,,5efdcff83a6844231c003073,2020-08-08_10h24.33.481,lexical_decision_task_MP,2020.1.3,iPhone,60,,0,-0.437238494,-0.29707113,1,0,0,0.788,button_left,0.788,1,,,,,,369,NW,"ID",50,wronch,WRONCH,z,,,,,,-0.437238494,-0.29707113,1,0,0,,0,332,332,308,1,
,,,,,,,,,,,,,,,,,,5efdcff83a6844231c003073,2020-08-08_10h24.33.481,lexical_decision_task_MP,2020.1.3,iPhone,60,,0,-0.420502092,-0.29707113,1,0,0,0.59,button_left,0.59,1,,,,,,276,NW,UN,50,petain,YARMON,z,,,,,,-0.420502092,-0.29707113,1,0,0,,0,333,333,455,1,
,,,,,,,,,,,,,,,,,,5efdcff83a6844231c003073,2020-08-08_10h24.33.481,lexical_decision_task_MP,2020.1.3,iPhone,60,,0,-0.380753138,-0.326359833,1,0,0,0.651,button_left,0.651,1,,,,,,420,NW,"ID",50,gushop,GUSHOP,z,,,,,,-0.380753138,-0.326359833,1,0,0,,0,334,334,359,1,
,,,,,,,,,,,,,,,,,,5efdcff83a6844231c003073,2020-08-08_10h24.33.481,lexical_decision_task_MP,2020.1.3,iPhone,60,,0,0.491631799,-0.330543933,1,0,0,1.409,button_right,1.409,1,,,,,,40,WORD,UN,50,spring,CONVEY,m,,,,,,0.491631799,-0.330543933,1,0,0,,0,335,335,219,1,
,,,,,,,,,,,,,,,,,,5efdcff83a6844231c003073,2020-08-08_10h24.33.481,lexical_decision_task_MP,2020.1.3,iPhone,60,,0,0.520920502,-0.320083682,1,0,0,0.634,button_right,0.634,1,,,,,,213,WORD,UN,33,intake,SQUEAL,m,,,,,,0.520920502,-0.320083682,1,0,0,,0,336,336,152,1,
,,,,,,,,,,,,,,,,,,5efdcff83a6844231c003073,2020-08-08_10h24.33.481,lexical_decision_task_MP,2020.1.3,iPhone,60,,0,-0.464435146,-0.286610879,1,0,0,0.687,button_left,0.687,1,,,,,,242,NW,UN,50,musied,UNWERT,z,,,,,,-0.464435146,-0.286610879,1,0,0,,0,337,337,421,1,
,,,,,,,,,,,,,,,,,,5efdcff83a6844231c003073,2020-08-08_10h24.33.481,lexical_decision_task_MP,2020.1.3,iPhone,60,,0,0.531380753,-0.317991632,1,0,0,0.672,button_right,0.672,1,,,,,,15,WORD,UN,50,faucet,AMOUNT,m,,,,,,0.531380753,-0.317991632,1,0,0,,0,338,338,194,1,
,,,,,,,,,,,,,,,,,,5efdcff83a6844231c003073,2020-08-08_10h24.33.481,lexical_decision_task_MP,2020.1.3,iPhone,60,,0,0.533472803,-0.313807531,1,0,0,0.621,button_right,0.621,1,,,,,,118,WORD,"ID",33,flight,FLIGHT,m,,,,,,0.533472803,-0.313807531,1,0,0,,0,339,339,57,1,
,,,,,,,,,,,,,,,,,,5efdcff83a6844231c003073,2020-08-08_10h24.33.481,lexical_decision_task_MP,2020.1.3,iPhone,60,,0,0.506276151,-0.326359833,1,0,0,0.506,button_right,0.506,1,,,,,,12,WORD,UN,50,strive,ORANGE,m,,,,,,0.506276151,-0.326359833,1,0,0,,0,340,340,191,1,
,,,,,,,,,,,,,,,,,,5efdcff83a6844231c003073,2020-08-08_10h24.33.481,lexical_decision_task_MP,2020.1.3,iPhone,60,,0,0.5041841,-0.322175732,1,0,0,0.49,button_right,0.49,1,,,,,,91,WORD,"ID",33,expand,EXPAND,m,,,,,,0.5041841,-0.322175732,1,0,0,,0,341,341,30,1,
,,,,,,,,,,,,,,,,,,5efdcff83a6844231c003073,2020-08-08_10h24.33.481,lexical_decision_task_MP,2020.1.3,iPhone,60,,0,0.491631799,-0.324267782,1,0,0,0.771,button_right,0.771,1,,,,,,139,WORD,"ID",50,debris,DEBRIS,m,,,,,,0.491631799,-0.324267782,1,0,0,,0,342,342,78,1,
,,,,,,,,,,,,,,,,,,5efdcff83a6844231c003073,2020-08-08_10h24.33.481,lexical_decision_task_MP,2020.1.3,iPhone,60,,0,-0.443514644,-0.30125523,1,0,0,1.123,button_left,1.123,1,,,,,,384,NW,"ID",50,guesco,GUESCO,z,,,,,,-0.443514644,-0.30125523,1,0,0,,0,343,343,323,1,
,,,,,,,,,,,,,,,,,,5efdcff83a6844231c003073,2020-08-08_10h24.33.481,lexical_decision_task_MP,2020.1.3,iPhone,60,,0,0.5,-0.326359833,1,0,0,0.666,button_right,0.666,1,,,,,,197,WORD,UN,33,wicked,STREAM,m,,,,,,0.5,-0.326359833,1,0,0,,0,344,344,136,1,
,,,,,,,,,,,,,,,,,,5efdcff83a6844231c003073,2020-08-08_10h24.33.481,lexical_decision_task_MP,2020.1.3,iPhone,60,,0,0.493723849,-0.328451883,1,0,0,0.671,button_right,0.671,1,,,,,,141,WORD,"ID",50,orphan,ORPHAN,m,,,,,,0.493723849,-0.328451883,1,0,0,,0,345,345,80,1,
,,,,,,,,,,,,,,,,,,5efdcff83a6844231c003073,2020-08-08_10h24.33.481,lexical_decision_task_MP,2020.1.3,iPhone,60,,0,0.5041841,-0.326359833,1,0,0,0.754,button_right,0.754,1,,,,,,16,WORD,UN,50,charge,FAUCET,m,,,,,,0.5041841,-0.326359833,1,0,0,,0,346,346,195,1,
,,,,,,,,,,,,,,,,,,5efdcff83a6844231c003073,2020-08-08_10h24.33.481,lexical_decision_task_MP,2020.1.3,iPhone,60,,0,0.491631799,-0.326359833,1,0,0,0.616,button_right,0.616,1,,,,,,128,WORD,"ID",50,senior,SENIOR,m,,,,,,0.491631799,-0.326359833,1,0,0,,0,347,347,67,1,
,,,,,,,,,,,,,,,,,,5efdcff83a6844231c003073,2020-08-08_10h24.33.481,lexical_decision_task_MP,2020.1.3,iPhone,60,,0,0.487447699,-0.332635983,1,0,0,0.672,button_right,0.672,1,,,,,,165,WORD,"ID",50,invest,INVEST,m,,,,,,0.487447699,-0.332635983,1,0,0,,0,348,348,104,1,
,,,,,,,,,,,,,,,,,,5efdcff83a6844231c003073,2020-08-08_10h24.33.481,lexical_decision_task_MP,2020.1.3,iPhone,60,,0,0.491631799,-0.332635983,1,0,0,1.105,button_right,1.105,1,,,,,,168,WORD,"ID",50,answer,ANSWER,m,,,,,,0.491631799,-0.332635983,1,0,0,,0,349,349,107,1,
,,,,,,,,,,,,,,,,,,5efdcff83a6844231c003073,2020-08-08_10h24.33.481,lexical_decision_task_MP,2020.1.3,iPhone,60,,0,0.493723849,-0.326359833,1,0,0,0.69,button_right,0.69,1,,,,,,226,WORD,UN,33,flower,CASINO,m,,,,,,0.493723849,-0.326359833,1,0,0,,0,350,350,165,1,
,,,,,,,,,,,,,,,,,,5efdcff83a6844231c003073,2020-08-08_10h24.33.481,lexical_decision_task_MP,2020.1.3,iPhone,60,,0,0.487447699,-0.322175732,1,0,0,0.553,button_right,0.553,1,,,,,,187,WORD,UN,33,social,COURSE,m,,,,,,0.487447699,-0.322175732,1,0,0,,0,351,351,126,1,
,,,,,,,,,,,,,,,,,,5efdcff83a6844231c003073,2020-08-08_10h24.33.481,lexical_decision_task_MP,2020.1.3,iPhone,60,,0,-0.449790795,-0.30334728,1,0,0,0.743,button_left,0.743,1,,,,,,466,NW,UN,33,robuly,HOCITE,z,,,,,,-0.449790795,-0.30334728,1,0,0,,0,352,352,405,1,
,,,,,,,,,,,,,,,,,,5efdcff83a6844231c003073,2020-08-08_10h24.33.481,lexical_decision_task_MP,2020.1.3,iPhone,60,,0,0.493723849,-0.326359833,1,0,0,0.551,button_right,0.551,1,,,,,,109,WORD,"ID",33,wonder,WONDER,m,,,,,,0.493723849,-0.326359833,1,0,0,,0,353,353,48,1,
