counterbalancing_condition,instr_done_keyboard.keys,instr_done_touch.x,instr_done_touch.y,instr_done_touch.leftButton,instr_done_touch.midButton,instr_done_touch.rightButton,instr_done_touch.clicked_name,instruction_pages.thisRepN,instruction_pages.thisTrialN,instruction_pages.thisN,instruction_pages.thisIndex,instruction_pages.ran,pageN,phase,instruct_text,has_image,instruct_image,participant,date,expName,psychopyVersion,OS,frameRate,instr_done_keyboard.rt,response.keys,response.corr,response.rt,touch_resp.x,touch_resp.y,touch_resp.leftButton,touch_resp.midButton,touch_resp.rightButton,touch_resp.time,touch_resp.clicked_name,rt,corr,practice_trials.thisRepN,practice_trials.thisTrialN,practice_trials.thisN,practice_trials.thisIndex,practice_trials.ran,TrialID,StimulusType,Condition,PrimeDuration,Prime,Target,corrAns,end_of_practice_trials_pages.thisRepN,end_of_practice_trials_pages.thisTrialN,end_of_practice_trials_pages.thisN,end_of_practice_trials_pages.thisIndex,end_of_practice_trials_pages.ran,break_done_touch.x,break_done_touch.y,break_done_touch.leftButton,break_done_touch.midButton,break_done_touch.rightButton,break_done_keyboard.keys,trials.thisRepN,trials.thisTrialN,trials.thisN,trials.thisIndex,trials.ran,break_done_keyboard.rt
2,,-0.066666667,-0.39537037,1,0,0,instr_done_button,0,0,0,0,1,1,instructions,"INSTRUCTIONS
At the start of each trial, look at the hash marks (######) in the center of the screen. After a moment, a string of letters will appear. Your task is to indicate if the letter string forms a word or not (i.e., if it is a nonword). For example, AUTHOR is a word while AUTHON is a nonword.

Press the space bar or touch the button below to continue.",0,,5efe309bf2f94230dc588d40,2020-08-10_16h22.58.631,lexical_decision_task_MP,2020.1.3,Win32,60,,,,,,,,,,,,,,,,,,,,,,,,,,,,,,,,,,,,,,,,,,
,,-0.060185185,-0.401851852,1,0,0,instr_done_button,0,1,1,1,1,2,instructions,"If your device has a keyboard, press the 'Z' key for nonwords and the 'M' key for words.





Press the space bar or touch the button below to continue.",1,keyboard-example.gif,5efe309bf2f94230dc588d40,2020-08-10_16h22.58.631,lexical_decision_task_MP,2020.1.3,Win32,60,,,,,,,,,,,,,,,,,,,,,,,,,,,,,,,,,,,,,,,,,,
,space,-0.060185185,-0.401851852,0,0,0,,0,2,2,2,1,3,instructions,"If you are using a touchscreen only device, use the buttons on the screen. Do not use the mouse.





Press the space bar or touch the button below to continue.",1,touchscreen-example.gif,5efe309bf2f94230dc588d40,2020-08-10_16h22.58.631,lexical_decision_task_MP,2020.1.3,Win32,60,4.488205,,,,,,,,,,,,,,,,,,,,,,,,,,,,,,,,,,,,,,,,,
,space,-0.060185185,-0.401851852,0,0,0,,0,3,3,3,1,4,instructions,"It is very important that you respond as quickly and accurately as possible, as each letter string will only be on the screen for two seconds. If you do not respond within this time, the message 'Too slow!' will be displayed and the experiment will progress to the next letter string. The first 20 trials will be practice trials and you will receive feedback on your answers. 

Press the space bar or touch the button below to start the practice trials.",0,,5efe309bf2f94230dc588d40,2020-08-10_16h22.58.631,lexical_decision_task_MP,2020.1.3,Win32,60,1.96143,,,,,,,,,,,,,,,,,,,,,,,,,,,,,,,,,,,,,,,,,
,,,,,,,,,,,,,,,,,,5efe309bf2f94230dc588d40,2020-08-10_16h22.58.631,lexical_decision_task_MP,2020.1.3,Win32,60,,z,1,1.456175,,,,,,,,1.456175,1,0,0,0,10,1,1011,NW,"ID",50,inlade,INLADE,z,,,,,,,,,,,,,,,,,
,,,,,,,,,,,,,,,,,,5efe309bf2f94230dc588d40,2020-08-10_16h22.58.631,lexical_decision_task_MP,2020.1.3,Win32,60,,z,1,1.30216,,,,,,,,1.30216,1,0,1,1,11,1,1012,NW,"ID",50,rashet,RASHET,z,,,,,,,,,,,,,,,,,
,,,,,,,,,,,,,,,,,,5efe309bf2f94230dc588d40,2020-08-10_16h22.58.631,lexical_decision_task_MP,2020.1.3,Win32,60,,m,1,1.609595,,,,,,,,1.609595,1,0,2,2,1,1,1002,WORD,"ID",33,adjust,ADJUST,m,,,,,,,,,,,,,,,,,
,,,,,,,,,,,,,,,,,,5efe309bf2f94230dc588d40,2020-08-10_16h22.58.631,lexical_decision_task_MP,2020.1.3,Win32,60,,z,1,0.827225,,,,,,,,0.827225,1,0,3,3,13,1,1014,NW,UN,33,winfer,ROUPET,z,,,,,,,,,,,,,,,,,
,,,,,,,,,,,,,,,,,,5efe309bf2f94230dc588d40,2020-08-10_16h22.58.631,lexical_decision_task_MP,2020.1.3,Win32,60,,m,1,0.77432,,,,,,,,0.77432,1,0,4,4,0,1,1001,WORD,"ID",33,utopia,UTOPIA,m,,,,,,,,,,,,,,,,,
,,,,,,,,,,,,,,,,,,5efe309bf2f94230dc588d40,2020-08-10_16h22.58.631,lexical_decision_task_MP,2020.1.3,Win32,60,,m,1,0.56803,,,,,,,,0.56803,1,0,5,5,4,1,1005,WORD,UN,33,abound,SQUEAK,m,,,,,,,,,,,,,,,,,
,,,,,,,,,,,,,,,,,,5efe309bf2f94230dc588d40,2020-08-10_16h22.58.631,lexical_decision_task_MP,2020.1.3,Win32,60,,m,1,0.534765,,,,,,,,0.534765,1,0,6,6,3,1,1004,WORD,"ID",50,matrix,MATRIX,m,,,,,,,,,,,,,,,,,
,,,,,,,,,,,,,,,,,,5efe309bf2f94230dc588d40,2020-08-10_16h22.58.631,lexical_decision_task_MP,2020.1.3,Win32,60,,m,0,0.6732,,,,,,,,0.6732,0,0,7,7,14,1,1015,NW,UN,50,miaber,THRALE,z,,,,,,,,,,,,,,,,,
,,,,,,,,,,,,,,,,,,5efe309bf2f94230dc588d40,2020-08-10_16h22.58.631,lexical_decision_task_MP,2020.1.3,Win32,60,,m,1,0.604575,,,,,,,,0.604575,1,0,8,8,5,1,1006,WORD,UN,33,frenzy,OBTAIN,m,,,,,,,,,,,,,,,,,
,,,,,,,,,,,,,,,,,,5efe309bf2f94230dc588d40,2020-08-10_16h22.58.631,lexical_decision_task_MP,2020.1.3,Win32,60,,z,1,0.84098,,,,,,,,0.84098,1,0,9,9,15,1,1016,NW,UN,50,mushed,WHAISE,z,,,,,,,,,,,,,,,,,
,,,,,,,,,,,,,,,,,,5efe309bf2f94230dc588d40,2020-08-10_16h22.58.631,lexical_decision_task_MP,2020.1.3,Win32,60,,z,1,0.997325,,,,,,,,0.997325,1,0,10,10,12,1,1013,NW,UN,33,adveil,SPRINY,z,,,,,,,,,,,,,,,,,
,,,,,,,,,,,,,,,,,,5efe309bf2f94230dc588d40,2020-08-10_16h22.58.631,lexical_decision_task_MP,2020.1.3,Win32,60,,m,1,0.50077,,,,,,,,0.50077,1,0,11,11,2,1,1003,WORD,"ID",50,almond,ALMOND,m,,,,,,,,,,,,,,,,,
,,,,,,,,,,,,,,,,,,5efe309bf2f94230dc588d40,2020-08-10_16h22.58.631,lexical_decision_task_MP,2020.1.3,Win32,60,,z,1,0.9268,,,,,,,,0.9268,1,0,12,12,9,1,1010,NW,"ID",33,fariny,FARINY,z,,,,,,,,,,,,,,,,,
,,,,,,,,,,,,,,,,,,5efe309bf2f94230dc588d40,2020-08-10_16h22.58.631,lexical_decision_task_MP,2020.1.3,Win32,60,,m,1,0.73886,,,,,,,,0.73886,1,0,13,13,7,1,1008,WORD,UN,50,hurdle,VOLUME,m,,,,,,,,,,,,,,,,,
,,,,,,,,,,,,,,,,,,5efe309bf2f94230dc588d40,2020-08-10_16h22.58.631,lexical_decision_task_MP,2020.1.3,Win32,60,,m,0,0.71206,,,,,,,,0.71206,0,0,14,14,8,1,1009,NW,"ID",33,aslert,ASLERT,z,,,,,,,,,,,,,,,,,
,,,,,,,,,,,,,,,,,,5efe309bf2f94230dc588d40,2020-08-10_16h22.58.631,lexical_decision_task_MP,2020.1.3,Win32,60,,m,1,0.66047,,,,,,,,0.66047,1,0,15,15,6,1,1007,WORD,UN,50,tropic,ZOMBIE,m,,,,,,,,,,,,,,,,,
,space,-0.060185185,-0.401851852,0,0,0,,,,,,,1,end_of_practice,"You have completed the practice trials. During the experimental trials, you will not receive feedback, but it is very important that you respond as quickly and accurately as possible. 
Before you begin, please ensure that you are in a comfortable and quiet location and will not be disturbed for about 15 minutes, as we cannot use your data if you do not complete all the trials. 
There will be opportunities to take breaks at regular intervals during the experiment. When you are ready to start the experimental trials, please press space or touch the button below.",,,5efe309bf2f94230dc588d40,2020-08-10_16h22.58.631,lexical_decision_task_MP,2020.1.3,Win32,60,44.88318,,,,,,,,,,,,,,,,,,,,,,,,,0,0,0,0,1,,,,,,,,,,,,
,,,,,,,,,,,,,,,,,,5efe309bf2f94230dc588d40,2020-08-10_16h22.58.631,lexical_decision_task_MP,2020.1.3,Win32,60,,m,1,0.9452,,,,,,,,0.9452,1,,,,,,187,WORD,UN,33,social,COURSE,m,,,,,,-0.060185185,-0.401851852,0,0,0,,0,0,0,126,1,
,,,,,,,,,,,,,,,,,,5efe309bf2f94230dc588d40,2020-08-10_16h22.58.631,lexical_decision_task_MP,2020.1.3,Win32,60,,z,1,0.93145,,,,,,,,0.93145,1,,,,,,422,NW,UN,33,streld,ALCOUD,z,,,,,,-0.060185185,-0.401851852,0,0,0,,0,1,1,361,1,
,,,,,,,,,,,,,,,,,,5efe309bf2f94230dc588d40,2020-08-10_16h22.58.631,lexical_decision_task_MP,2020.1.3,Win32,60,,m,1,0.57421,,,,,,,,0.57421,1,,,,,,151,WORD,"ID",50,mystic,MYSTIC,m,,,,,,-0.060185185,-0.401851852,0,0,0,,0,2,2,90,1,
,,,,,,,,,,,,,,,,,,5efe309bf2f94230dc588d40,2020-08-10_16h22.58.631,lexical_decision_task_MP,2020.1.3,Win32,60,,m,1,0.96108,,,,,,,,0.96108,1,,,,,,237,WORD,UN,33,glance,POSTER,m,,,,,,-0.060185185,-0.401851852,0,0,0,,0,3,3,176,1,
,,,,,,,,,,,,,,,,,,5efe309bf2f94230dc588d40,2020-08-10_16h22.58.631,lexical_decision_task_MP,2020.1.3,Win32,60,,m,1,0.58058,,,,,,,,0.58058,1,,,,,,112,WORD,"ID",33,breath,BREATH,m,,,,,,-0.060185185,-0.401851852,0,0,0,,0,4,4,51,1,
,,,,,,,,,,,,,,,,,,5efe309bf2f94230dc588d40,2020-08-10_16h22.58.631,lexical_decision_task_MP,2020.1.3,Win32,60,,m,1,0.79367,,,,,,,,0.79367,1,,,,,,124,WORD,"ID",50,blouse,BLOUSE,m,,,,,,-0.060185185,-0.401851852,0,0,0,,0,5,5,63,1,
,,,,,,,,,,,,,,,,,,5efe309bf2f94230dc588d40,2020-08-10_16h22.58.631,lexical_decision_task_MP,2020.1.3,Win32,60,,m,1,0.764765,,,,,,,,0.764765,1,,,,,,185,WORD,UN,33,portal,BOTHER,m,,,,,,-0.060185185,-0.401851852,0,0,0,,0,6,6,124,1,
,,,,,,,,,,,,,,,,,,5efe309bf2f94230dc588d40,2020-08-10_16h22.58.631,lexical_decision_task_MP,2020.1.3,Win32,60,,z,1,0.866925,,,,,,,,0.866925,1,,,,,,349,NW,"ID",33,asylen,ASYLEN,z,,,,,,-0.060185185,-0.401851852,0,0,0,,0,7,7,288,1,
,,,,,,,,,,,,,,,,,,5efe309bf2f94230dc588d40,2020-08-10_16h22.58.631,lexical_decision_task_MP,2020.1.3,Win32,60,,m,1,0.57961,,,,,,,,0.57961,1,,,,,,121,WORD,"ID",50,thrive,THRIVE,m,,,,,,-0.060185185,-0.401851852,0,0,0,,0,8,8,60,1,
,,,,,,,,,,,,,,,,,,5efe309bf2f94230dc588d40,2020-08-10_16h22.58.631,lexical_decision_task_MP,2020.1.3,Win32,60,,m,1,0.76973,,,,,,,,0.76973,1,,,,,,7,WORD,UN,50,abrupt,ANCHOR,m,,,,,,-0.060185185,-0.401851852,0,0,0,,0,9,9,186,1,
,,,,,,,,,,,,,,,,,,5efe309bf2f94230dc588d40,2020-08-10_16h22.58.631,lexical_decision_task_MP,2020.1.3,Win32,60,,z,1,0.96208,,,,,,,,0.96208,1,,,,,,302,NW,"ID",33,miluer,MILUER,z,,,,,,-0.060185185,-0.401851852,0,0,0,,0,10,10,241,1,
,,,,,,,,,,,,,,,,,,5efe309bf2f94230dc588d40,2020-08-10_16h22.58.631,lexical_decision_task_MP,2020.1.3,Win32,60,,m,1,0.544525,,,,,,,,0.544525,1,,,,,,17,WORD,UN,50,humble,CHARGE,m,,,,,,-0.060185185,-0.401851852,0,0,0,,0,11,11,196,1,
,,,,,,,,,,,,,,,,,,5efe309bf2f94230dc588d40,2020-08-10_16h22.58.631,lexical_decision_task_MP,2020.1.3,Win32,60,,m,1,0.58961,,,,,,,,0.58961,1,,,,,,231,WORD,UN,33,inject,EXPORT,m,,,,,,-0.060185185,-0.401851852,0,0,0,,0,12,12,170,1,
,,,,,,,,,,,,,,,,,,5efe309bf2f94230dc588d40,2020-08-10_16h22.58.631,lexical_decision_task_MP,2020.1.3,Win32,60,,z,1,0.80253,,,,,,,,0.80253,1,,,,,,448,NW,UN,33,brunge,SADENT,z,,,,,,-0.060185185,-0.401851852,0,0,0,,0,13,13,387,1,
,,,,,,,,,,,,,,,,,,5efe309bf2f94230dc588d40,2020-08-10_16h22.58.631,lexical_decision_task_MP,2020.1.3,Win32,60,,m,1,0.878075,,,,,,,,0.878075,1,,,,,,225,WORD,UN,33,casino,VULGAR,m,,,,,,-0.060185185,-0.401851852,0,0,0,,0,14,14,164,1,
,,,,,,,,,,,,,,,,,,5efe309bf2f94230dc588d40,2020-08-10_16h22.58.631,lexical_decision_task_MP,2020.1.3,Win32,60,,z,1,0.76551,,,,,,,,0.76551,1,,,,,,441,NW,UN,33,aboune,RASTOE,z,,,,,,-0.060185185,-0.401851852,0,0,0,,0,15,15,380,1,
,,,,,,,,,,,,,,,,,,5efe309bf2f94230dc588d40,2020-08-10_16h22.58.631,lexical_decision_task_MP,2020.1.3,Win32,60,,z,1,0.87901,,,,,,,,0.87901,1,,,,,,375,NW,"ID",50,yorque,YORQUE,z,,,,,,-0.060185185,-0.401851852,0,0,0,,0,16,16,314,1,
,,,,,,,,,,,,,,,,,,5efe309bf2f94230dc588d40,2020-08-10_16h22.58.631,lexical_decision_task_MP,2020.1.3,Win32,60,,m,0,1.186445,,,,,,,,1.186445,0,,,,,,299,NW,UN,50,yarion,STURCH,z,,,,,,-0.060185185,-0.401851852,0,0,0,,0,17,17,478,1,
,,,,,,,,,,,,,,,,,,5efe309bf2f94230dc588d40,2020-08-10_16h22.58.631,lexical_decision_task_MP,2020.1.3,Win32,60,,m,1,0.6036,,,,,,,,0.6036,1,,,,,,21,WORD,UN,50,jockey,SIMPLE,m,,,,,,-0.060185185,-0.401851852,0,0,0,,0,18,18,200,1,
,,,,,,,,,,,,,,,,,,5efe309bf2f94230dc588d40,2020-08-10_16h22.58.631,lexical_decision_task_MP,2020.1.3,Win32,60,,z,1,0.80188,,,,,,,,0.80188,1,,,,,,324,NW,"ID",33,steikh,STEIKH,z,,,,,,-0.060185185,-0.401851852,0,0,0,,0,19,19,263,1,
,,,,,,,,,,,,,,,,,,5efe309bf2f94230dc588d40,2020-08-10_16h22.58.631,lexical_decision_task_MP,2020.1.3,Win32,60,,m,1,0.836865,,,,,,,,0.836865,1,,,,,,67,WORD,"ID",33,policy,POLICY,m,,,,,,-0.060185185,-0.401851852,0,0,0,,0,20,20,6,1,
,,,,,,,,,,,,,,,,,,5efe309bf2f94230dc588d40,2020-08-10_16h22.58.631,lexical_decision_task_MP,2020.1.3,Win32,60,,z,1,0.744835,,,,,,,,0.744835,1,,,,,,288,NW,UN,50,starby,YACEUP,z,,,,,,-0.060185185,-0.401851852,0,0,0,,0,21,21,467,1,
,,,,,,,,,,,,,,,,,,5efe309bf2f94230dc588d40,2020-08-10_16h22.58.631,lexical_decision_task_MP,2020.1.3,Win32,60,,m,1,0.603695,,,,,,,,0.603695,1,,,,,,88,WORD,"ID",33,hunger,HUNGER,m,,,,,,-0.060185185,-0.401851852,0,0,0,,0,22,22,27,1,
,,,,,,,,,,,,,,,,,,5efe309bf2f94230dc588d40,2020-08-10_16h22.58.631,lexical_decision_task_MP,2020.1.3,Win32,60,,z,1,0.653905,,,,,,,,0.653905,1,,,,,,294,NW,UN,50,gleath,INHORT,z,,,,,,-0.060185185,-0.401851852,0,0,0,,0,23,23,473,1,
,,,,,,,,,,,,,,,,,,5efe309bf2f94230dc588d40,2020-08-10_16h22.58.631,lexical_decision_task_MP,2020.1.3,Win32,60,,m,1,0.82211,,,,,,,,0.82211,1,,,,,,176,WORD,"ID",50,strife,STRIFE,m,,,,,,-0.060185185,-0.401851852,0,0,0,,0,24,24,115,1,
,,,,,,,,,,,,,,,,,,5efe309bf2f94230dc588d40,2020-08-10_16h22.58.631,lexical_decision_task_MP,2020.1.3,Win32,60,,m,1,0.605545,,,,,,,,0.605545,1,,,,,,89,WORD,"ID",33,permit,PERMIT,m,,,,,,-0.060185185,-0.401851852,0,0,0,,0,25,25,28,1,
,,,,,,,,,,,,,,,,,,5efe309bf2f94230dc588d40,2020-08-10_16h22.58.631,lexical_decision_task_MP,2020.1.3,Win32,60,,z,1,0.757775,,,,,,,,0.757775,1,,,,,,263,NW,UN,50,vackel,DOLICA,z,,,,,,-0.060185185,-0.401851852,0,0,0,,0,26,26,442,1,
,,,,,,,,,,,,,,,,,,5efe309bf2f94230dc588d40,2020-08-10_16h22.58.631,lexical_decision_task_MP,2020.1.3,Win32,60,,m,1,0.598855,,,,,,,,0.598855,1,,,,,,177,WORD,"ID",50,advent,ADVENT,m,,,,,,-0.060185185,-0.401851852,0,0,0,,0,27,27,116,1,
,,,,,,,,,,,,,,,,,,5efe309bf2f94230dc588d40,2020-08-10_16h22.58.631,lexical_decision_task_MP,2020.1.3,Win32,60,,m,1,0.5993,,,,,,,,0.5993,1,,,,,,60,WORD,UN,50,fright,PENCIL,m,,,,,,-0.060185185,-0.401851852,0,0,0,,0,28,28,239,1,
,,,,,,,,,,,,,,,,,,5efe309bf2f94230dc588d40,2020-08-10_16h22.58.631,lexical_decision_task_MP,2020.1.3,Win32,60,,m,0,0.75154,,,,,,,,0.75154,0,,,,,,284,NW,UN,50,prudge,SHAPLE,z,,,,,,-0.060185185,-0.401851852,0,0,0,,0,29,29,463,1,
,,,,,,,,,,,,,,,,,,5efe309bf2f94230dc588d40,2020-08-10_16h22.58.631,lexical_decision_task_MP,2020.1.3,Win32,60,,z,1,1.30316,,,,,,,,1.30316,1,,,,,,420,NW,"ID",50,gushop,GUSHOP,z,,,,,,-0.060185185,-0.401851852,0,0,0,,0,30,30,359,1,
,,,,,,,,,,,,,,,,,,5efe309bf2f94230dc588d40,2020-08-10_16h22.58.631,lexical_decision_task_MP,2020.1.3,Win32,60,,m,1,0.586245,,,,,,,,0.586245,1,,,,,,167,WORD,"ID",50,design,DESIGN,m,,,,,,-0.060185185,-0.401851852,0,0,0,,0,31,31,106,1,
,,,,,,,,,,,,,,,,,,5efe309bf2f94230dc588d40,2020-08-10_16h22.58.631,lexical_decision_task_MP,2020.1.3,Win32,60,,z,1,1.463655,,,,,,,,1.463655,1,,,,,,253,NW,UN,50,varosh,RESAIT,z,,,,,,-0.060185185,-0.401851852,0,0,0,,0,32,32,432,1,
,,,,,,,,,,,,,,,,,,5efe309bf2f94230dc588d40,2020-08-10_16h22.58.631,lexical_decision_task_MP,2020.1.3,Win32,60,,m,1,0.59985,,,,,,,,0.59985,1,,,,,,91,WORD,"ID",33,expand,EXPAND,m,,,,,,-0.060185185,-0.401851852,0,0,0,,0,33,33,30,1,
,,,,,,,,,,,,,,,,,,5efe309bf2f94230dc588d40,2020-08-10_16h22.58.631,lexical_decision_task_MP,2020.1.3,Win32,60,,z,1,0.78504,,,,,,,,0.78504,1,,,,,,384,NW,"ID",50,guesco,GUESCO,z,,,,,,-0.060185185,-0.401851852,0,0,0,,0,34,34,323,1,
,,,,,,,,,,,,,,,,,,5efe309bf2f94230dc588d40,2020-08-10_16h22.58.631,lexical_decision_task_MP,2020.1.3,Win32,60,,m,1,0.7163,,,,,,,,0.7163,1,,,,,,42,WORD,UN,50,tongue,CHAPEL,m,,,,,,-0.060185185,-0.401851852,0,0,0,,0,35,35,221,1,
,,,,,,,,,,,,,,,,,,5efe309bf2f94230dc588d40,2020-08-10_16h22.58.631,lexical_decision_task_MP,2020.1.3,Win32,60,,m,1,0.486475,,,,,,,,0.486475,1,,,,,,164,WORD,"ID",50,market,MARKET,m,,,,,,-0.060185185,-0.401851852,0,0,0,,0,36,36,103,1,
,,,,,,,,,,,,,,,,,,5efe309bf2f94230dc588d40,2020-08-10_16h22.58.631,lexical_decision_task_MP,2020.1.3,Win32,60,,m,1,0.6223,,,,,,,,0.6223,1,,,,,,144,WORD,"ID",50,sponge,SPONGE,m,,,,,,-0.060185185,-0.401851852,0,0,0,,0,37,37,83,1,
,,,,,,,,,,,,,,,,,,5efe309bf2f94230dc588d40,2020-08-10_16h22.58.631,lexical_decision_task_MP,2020.1.3,Win32,60,,z,0,0.895545,,,,,,,,0.895545,0,,,,,,61,WORD,"ID",33,ponder,PONDER,m,,,,,,-0.060185185,-0.401851852,0,0,0,,0,38,38,0,1,
,,,,,,,,,,,,,,,,,,5efe309bf2f94230dc588d40,2020-08-10_16h22.58.631,lexical_decision_task_MP,2020.1.3,Win32,60,,m,1,0.556585,,,,,,,,0.556585,1,,,,,,13,WORD,UN,50,almost,STRIVE,m,,,,,,-0.060185185,-0.401851852,0,0,0,,0,39,39,192,1,
,,,,,,,,,,,,,,,,,,5efe309bf2f94230dc588d40,2020-08-10_16h22.58.631,lexical_decision_task_MP,2020.1.3,Win32,60,,m,1,0.79507,,,,,,,,0.79507,1,,,,,,196,WORD,UN,33,stream,CREDIT,m,,,,,,-0.060185185,-0.401851852,0,0,0,,0,40,40,135,1,
,,,,,,,,,,,,,,,,,,5efe309bf2f94230dc588d40,2020-08-10_16h22.58.631,lexical_decision_task_MP,2020.1.3,Win32,60,,m,1,0.55752,,,,,,,,0.55752,1,,,,,,210,WORD,UN,33,infect,MONKEY,m,,,,,,-0.060185185,-0.401851852,0,0,0,,0,41,41,149,1,
,,,,,,,,,,,,,,,,,,5efe309bf2f94230dc588d40,2020-08-10_16h22.58.631,lexical_decision_task_MP,2020.1.3,Win32,60,,z,1,1.11089,,,,,,,,1.11089,1,,,,,,271,NW,UN,50,damilt,AUBRID,z,,,,,,-0.060185185,-0.401851852,0,0,0,,0,42,42,450,1,
,,,,,,,,,,,,,,,,,,5efe309bf2f94230dc588d40,2020-08-10_16h22.58.631,lexical_decision_task_MP,2020.1.3,Win32,60,,z,1,0.981015,,,,,,,,0.981015,1,,,,,,378,NW,"ID",50,shrile,SHRILE,z,,,,,,-0.060185185,-0.401851852,0,0,0,,0,43,43,317,1,
,,,,,,,,,,,,,,,,,,5efe309bf2f94230dc588d40,2020-08-10_16h22.58.631,lexical_decision_task_MP,2020.1.3,Win32,60,,z,1,0.992605,,,,,,,,0.992605,1,,,,,,295,NW,UN,50,beinch,GLEATH,z,,,,,,-0.060185185,-0.401851852,0,0,0,,0,44,44,474,1,
,,,,,,,,,,,,,,,,,,5efe309bf2f94230dc588d40,2020-08-10_16h22.58.631,lexical_decision_task_MP,2020.1.3,Win32,60,,m,1,0.652185,,,,,,,,0.652185,1,,,,,,159,WORD,"ID",50,detail,DETAIL,m,,,,,,-0.060185185,-0.401851852,0,0,0,,0,45,45,98,1,
,,,,,,,,,,,,,,,,,,5efe309bf2f94230dc588d40,2020-08-10_16h22.58.631,lexical_decision_task_MP,2020.1.3,Win32,60,,m,1,0.549145,,,,,,,,0.549145,1,,,,,,148,WORD,"ID",50,custom,CUSTOM,m,,,,,,-0.060185185,-0.401851852,0,0,0,,0,46,46,87,1,
,,,,,,,,,,,,,,,,,,5efe309bf2f94230dc588d40,2020-08-10_16h22.58.631,lexical_decision_task_MP,2020.1.3,Win32,60,,m,1,0.747145,,,,,,,,0.747145,1,,,,,,217,WORD,UN,33,shrink,LIQUOR,m,,,,,,-0.060185185,-0.401851852,0,0,0,,0,47,47,156,1,
,,,,,,,,,,,,,,,,,,5efe309bf2f94230dc588d40,2020-08-10_16h22.58.631,lexical_decision_task_MP,2020.1.3,Win32,60,,z,1,0.669385,,,,,,,,0.669385,1,,,,,,466,NW,UN,33,robuly,HOCITE,z,,,,,,-0.060185185,-0.401851852,0,0,0,,0,48,48,405,1,
,,,,,,,,,,,,,,,,,,5efe309bf2f94230dc588d40,2020-08-10_16h22.58.631,lexical_decision_task_MP,2020.1.3,Win32,60,,z,1,0.74418,,,,,,,,0.74418,1,,,,,,419,NW,"ID",50,slount,SLOUNT,z,,,,,,-0.060185185,-0.401851852,0,0,0,,0,49,49,358,1,
,,,,,,,,,,,,,,,,,,5efe309bf2f94230dc588d40,2020-08-10_16h22.58.631,lexical_decision_task_MP,2020.1.3,Win32,60,,m,1,0.65446,,,,,,,,0.65446,1,,,,,,171,WORD,"ID",50,depart,DEPART,m,,,,,,-0.060185185,-0.401851852,0,0,0,,0,50,50,110,1,
,,,,,,,,,,,,,,,,,,5efe309bf2f94230dc588d40,2020-08-10_16h22.58.631,lexical_decision_task_MP,2020.1.3,Win32,60,,m,1,0.88711,,,,,,,,0.88711,1,,,,,,59,WORD,UN,50,pencil,SPLINT,m,,,,,,-0.060185185,-0.401851852,0,0,0,,0,51,51,238,1,
,,,,,,,,,,,,,,,,,,5efe309bf2f94230dc588d40,2020-08-10_16h22.58.631,lexical_decision_task_MP,2020.1.3,Win32,60,,z,1,0.833275,,,,,,,,0.833275,1,,,,,,458,NW,UN,33,hocite,BARCET,z,,,,,,-0.060185185,-0.401851852,0,0,0,,0,52,52,397,1,
,,,,,,,,,,,,,,,,,,5efe309bf2f94230dc588d40,2020-08-10_16h22.58.631,lexical_decision_task_MP,2020.1.3,Win32,60,,m,1,0.572825,,,,,,,,0.572825,1,,,,,,12,WORD,UN,50,strive,ORANGE,m,,,,,,-0.060185185,-0.401851852,0,0,0,,0,53,53,191,1,
,,,,,,,,,,,,,,,,,,5efe309bf2f94230dc588d40,2020-08-10_16h22.58.631,lexical_decision_task_MP,2020.1.3,Win32,60,,z,1,0.7981,,,,,,,,0.7981,1,,,,,,477,NW,UN,33,lobush,PHOTIE,z,,,,,,-0.060185185,-0.401851852,0,0,0,,0,54,54,416,1,
,,,,,,,,,,,,,,,,,,5efe309bf2f94230dc588d40,2020-08-10_16h22.58.631,lexical_decision_task_MP,2020.1.3,Win32,60,,m,1,0.537365,,,,,,,,0.537365,1,,,,,,233,WORD,UN,33,clumsy,NATURE,m,,,,,,-0.060185185,-0.401851852,0,0,0,,0,55,55,172,1,
,,,,,,,,,,,,,,,,,,5efe309bf2f94230dc588d40,2020-08-10_16h22.58.631,lexical_decision_task_MP,2020.1.3,Win32,60,,m,1,0.580785,,,,,,,,0.580785,1,,,,,,203,WORD,UN,33,burden,PHRASE,m,,,,,,-0.060185185,-0.401851852,0,0,0,,0,56,56,142,1,
,,,,,,,,,,,,,,,,,,5efe309bf2f94230dc588d40,2020-08-10_16h22.58.631,lexical_decision_task_MP,2020.1.3,Win32,60,,z,1,0.622565,,,,,,,,0.622565,1,,,,,,321,NW,"ID",33,miator,MIATOR,z,,,,,,-0.060185185,-0.401851852,0,0,0,,0,57,57,260,1,
,,,,,,,,,,,,,,,,,,5efe309bf2f94230dc588d40,2020-08-10_16h22.58.631,lexical_decision_task_MP,2020.1.3,Win32,60,,m,1,0.545645,,,,,,,,0.545645,1,,,,,,166,WORD,"ID",50,starch,STARCH,m,,,,,,-0.060185185,-0.401851852,0,0,0,,0,58,58,105,1,
,,,,,,,,,,,,,,,,,,5efe309bf2f94230dc588d40,2020-08-10_16h22.58.631,lexical_decision_task_MP,2020.1.3,Win32,60,,z,1,0.657625,,,,,,,,0.657625,1,,,,,,247,NW,UN,50,strole,BLARGE,z,,,,,,-0.060185185,-0.401851852,0,0,0,,0,59,59,426,1,
,,,,,,,,,,,,,,,,,,5efe309bf2f94230dc588d40,2020-08-10_16h22.58.631,lexical_decision_task_MP,2020.1.3,Win32,60,,m,1,0.57838,,,,,,,,0.57838,1,,,,,,163,WORD,"ID",50,string,STRING,m,,,,,,-0.060185185,-0.401851852,0,0,0,,0,60,60,102,1,
,,,,,,,,,,,,,,,,,,5efe309bf2f94230dc588d40,2020-08-10_16h22.58.631,lexical_decision_task_MP,2020.1.3,Win32,60,,z,1,0.822735,,,,,,,,0.822735,1,,,,,,382,NW,"ID",50,sarley,SARLEY,z,,,,,,-0.060185185,-0.401851852,0,0,0,,0,61,61,321,1,
,,,,,,,,,,,,,,,,,,5efe309bf2f94230dc588d40,2020-08-10_16h22.58.631,lexical_decision_task_MP,2020.1.3,Win32,60,,z,1,0.63817,,,,,,,,0.63817,1,,,,,,451,NW,UN,33,surden,CAINKY,z,,,,,,-0.060185185,-0.401851852,0,0,0,,0,62,62,390,1,
,,,,,,,,,,,,,,,,,,5efe309bf2f94230dc588d40,2020-08-10_16h22.58.631,lexical_decision_task_MP,2020.1.3,Win32,60,,m,1,0.732445,,,,,,,,0.732445,1,,,,,,47,WORD,UN,50,walnut,INCOME,m,,,,,,-0.060185185,-0.401851852,0,0,0,,0,63,63,226,1,
,,,,,,,,,,,,,,,,,,5efe309bf2f94230dc588d40,2020-08-10_16h22.58.631,lexical_decision_task_MP,2020.1.3,Win32,60,,m,0,0.73711,,,,,,,,0.73711,0,,,,,,268,NW,UN,50,orchet,PACKES,z,,,,,,-0.060185185,-0.401851852,0,0,0,,0,64,64,447,1,
,,,,,,,,,,,,,,,,,,5efe309bf2f94230dc588d40,2020-08-10_16h22.58.631,lexical_decision_task_MP,2020.1.3,Win32,60,,z,1,0.67525,,,,,,,,0.67525,1,,,,,,426,NW,UN,33,schind,URIVEL,z,,,,,,-0.060185185,-0.401851852,0,0,0,,0,65,65,365,1,
,,,,,,,,,,,,,,,,,,5efe309bf2f94230dc588d40,2020-08-10_16h22.58.631,lexical_decision_task_MP,2020.1.3,Win32,60,,m,1,0.70044,,,,,,,,0.70044,1,,,,,,230,WORD,UN,33,mother,FRINGE,m,,,,,,-0.060185185,-0.401851852,0,0,0,,0,66,66,169,1,
,,,,,,,,,,,,,,,,,,5efe309bf2f94230dc588d40,2020-08-10_16h22.58.631,lexical_decision_task_MP,2020.1.3,Win32,60,,m,1,0.640045,,,,,,,,0.640045,1,,,,,,54,WORD,UN,50,stroke,RAMBLE,m,,,,,,-0.060185185,-0.401851852,0,0,0,,0,67,67,233,1,
,,,,,,,,,,,,,,,,,,5efe309bf2f94230dc588d40,2020-08-10_16h22.58.631,lexical_decision_task_MP,2020.1.3,Win32,60,,m,1,0.688775,,,,,,,,0.688775,1,,,,,,101,WORD,"ID",33,wrench,WRENCH,m,,,,,,-0.060185185,-0.401851852,0,0,0,,0,68,68,40,1,
,,,,,,,,,,,,,,,,,,5efe309bf2f94230dc588d40,2020-08-10_16h22.58.631,lexical_decision_task_MP,2020.1.3,Win32,60,,z,1,0.679125,,,,,,,,0.679125,1,,,,,,399,NW,"ID",50,fouret,FOURET,z,,,,,,-0.060185185,-0.401851852,0,0,0,,0,69,69,338,1,
,,,,,,,,,,,,,,,,,,5efe309bf2f94230dc588d40,2020-08-10_16h22.58.631,lexical_decision_task_MP,2020.1.3,Win32,60,,z,1,0.829375,,,,,,,,0.829375,1,,,,,,367,NW,"ID",50,slique,SLIQUE,z,,,,,,-0.060185185,-0.401851852,0,0,0,,0,70,70,306,1,
,,,,,,,,,,,,,,,,,,5efe309bf2f94230dc588d40,2020-08-10_16h22.58.631,lexical_decision_task_MP,2020.1.3,Win32,60,,z,1,0.58981,,,,,,,,0.58981,1,,,,,,438,NW,UN,33,limpor,BAITCH,z,,,,,,-0.060185185,-0.401851852,0,0,0,,0,71,71,377,1,
,,,,,,,,,,,,,,,,,,5efe309bf2f94230dc588d40,2020-08-10_16h22.58.631,lexical_decision_task_MP,2020.1.3,Win32,60,,m,1,0.500855,,,,,,,,0.500855,1,,,,,,31,WORD,UN,50,buckle,WEAPON,m,,,,,,-0.060185185,-0.401851852,0,0,0,,0,72,72,210,1,
,,,,,,,,,,,,,,,,,,5efe309bf2f94230dc588d40,2020-08-10_16h22.58.631,lexical_decision_task_MP,2020.1.3,Win32,60,,m,1,0.517625,,,,,,,,0.517625,1,,,,,,146,WORD,"ID",50,couple,COUPLE,m,,,,,,-0.060185185,-0.401851852,0,0,0,,0,73,73,85,1,
,,,,,,,,,,,,,,,,,,5efe309bf2f94230dc588d40,2020-08-10_16h22.58.631,lexical_decision_task_MP,2020.1.3,Win32,60,,m,1,0.542455,,,,,,,,0.542455,1,,,,,,95,WORD,"ID",33,thread,THREAD,m,,,,,,-0.060185185,-0.401851852,0,0,0,,0,74,74,34,1,
,,,,,,,,,,,,,,,,,,5efe309bf2f94230dc588d40,2020-08-10_16h22.58.631,lexical_decision_task_MP,2020.1.3,Win32,60,,z,0,0.6776,,,,,,,,0.6776,0,,,,,,16,WORD,UN,50,charge,FAUCET,m,,,,,,-0.060185185,-0.401851852,0,0,0,,0,75,75,195,1,
,,,,,,,,,,,,,,,,,,5efe309bf2f94230dc588d40,2020-08-10_16h22.58.631,lexical_decision_task_MP,2020.1.3,Win32,60,,m,1,0.793005,,,,,,,,0.793005,1,,,,,,156,WORD,"ID",50,cradle,CRADLE,m,,,,,,-0.060185185,-0.401851852,0,0,0,,0,76,76,95,1,
,,,,,,,,,,,,,,,,,,5efe309bf2f94230dc588d40,2020-08-10_16h22.58.631,lexical_decision_task_MP,2020.1.3,Win32,60,,z,1,0.93256,,,,,,,,0.93256,1,,,,,,359,NW,"ID",33,fonver,FONVER,z,,,,,,-0.060185185,-0.401851852,0,0,0,,0,77,77,298,1,
,,,,,,,,,,,,,,,,,,5efe309bf2f94230dc588d40,2020-08-10_16h22.58.631,lexical_decision_task_MP,2020.1.3,Win32,60,,m,0,1.10413,,,,,,,,1.10413,0,,,,,,277,NW,UN,50,unighs,PETAIN,z,,,,,,-0.060185185,-0.401851852,0,0,0,,0,78,78,456,1,
,,,,,,,,,,,,,,,,,,5efe309bf2f94230dc588d40,2020-08-10_16h22.58.631,lexical_decision_task_MP,2020.1.3,Win32,60,,z,1,0.69235,,,,,,,,0.69235,1,,,,,,414,NW,"ID",50,serbol,SERBOL,z,,,,,,-0.060185185,-0.401851852,0,0,0,,0,79,79,353,1,
,,,,,,,,,,,,,,,,,,5efe309bf2f94230dc588d40,2020-08-10_16h22.58.631,lexical_decision_task_MP,2020.1.3,Win32,60,,m,1,0.563155,,,,,,,,0.563155,1,,,,,,158,WORD,"ID",50,island,ISLAND,m,,,,,,-0.060185185,-0.401851852,0,0,0,,0,80,80,97,1,
,,,,,,,,,,,,,,,,,,5efe309bf2f94230dc588d40,2020-08-10_16h22.58.631,lexical_decision_task_MP,2020.1.3,Win32,60,,m,1,0.533305,,,,,,,,0.533305,1,,,,,,153,WORD,"ID",50,behold,BEHOLD,m,,,,,,-0.060185185,-0.401851852,0,0,0,,0,81,81,92,1,
,,,,,,,,,,,,,,,,,,5efe309bf2f94230dc588d40,2020-08-10_16h22.58.631,lexical_decision_task_MP,2020.1.3,Win32,60,,m,1,0.72376,,,,,,,,0.72376,1,,,,,,30,WORD,UN,50,weapon,ORIENT,m,,,,,,-0.060185185,-0.401851852,0,0,0,,0,82,82,209,1,
,,,,,,,,,,,,,,,,,,5efe309bf2f94230dc588d40,2020-08-10_16h22.58.631,lexical_decision_task_MP,2020.1.3,Win32,60,,z,1,0.54288,,,,,,,,0.54288,1,,,,,,401,NW,"ID",50,mustil,MUSTIL,z,,,,,,-0.060185185,-0.401851852,0,0,0,,0,83,83,340,1,
,,,,,,,,,,,,,,,,,,5efe309bf2f94230dc588d40,2020-08-10_16h22.58.631,lexical_decision_task_MP,2020.1.3,Win32,60,,m,1,0.55942,,,,,,,,0.55942,1,,,,,,154,WORD,"ID",50,author,AUTHOR,m,,,,,,-0.060185185,-0.401851852,0,0,0,,0,84,84,93,1,
,,,,,,,,,,,,,,,,,,5efe309bf2f94230dc588d40,2020-08-10_16h22.58.631,lexical_decision_task_MP,2020.1.3,Win32,60,,z,1,0.60114,,,,,,,,0.60114,1,,,,,,376,NW,"ID",50,iguare,IGUARE,z,,,,,,-0.060185185,-0.401851852,0,0,0,,0,85,85,315,1,
,,,,,,,,,,,,,,,,,,5efe309bf2f94230dc588d40,2020-08-10_16h22.58.631,lexical_decision_task_MP,2020.1.3,Win32,60,,z,1,0.61786,,,,,,,,0.61786,1,,,,,,251,NW,UN,50,stapod,LUPICT,z,,,,,,-0.060185185,-0.401851852,0,0,0,,0,86,86,430,1,
,,,,,,,,,,,,,,,,,,5efe309bf2f94230dc588d40,2020-08-10_16h22.58.631,lexical_decision_task_MP,2020.1.3,Win32,60,,z,1,0.521895,,,,,,,,0.521895,1,,,,,,470,NW,UN,33,nobest,CRUDIO,z,,,,,,-0.060185185,-0.401851852,0,0,0,,0,87,87,409,1,
,,,,,,,,,,,,,,,,,,5efe309bf2f94230dc588d40,2020-08-10_16h22.58.631,lexical_decision_task_MP,2020.1.3,Win32,60,,z,1,0.715195,,,,,,,,0.715195,1,,,,,,328,NW,"ID",33,broake,BROAKE,z,,,,,,-0.060185185,-0.401851852,0,0,0,,0,88,88,267,1,
,,,,,,,,,,,,,,,,,,5efe309bf2f94230dc588d40,2020-08-10_16h22.58.631,lexical_decision_task_MP,2020.1.3,Win32,60,,m,1,0.516615,,,,,,,,0.516615,1,,,,,,162,WORD,"ID",50,candle,CANDLE,m,,,,,,-0.060185185,-0.401851852,0,0,0,,0,89,89,101,1,
,,,,,,,,,,,,,,,,,,5efe309bf2f94230dc588d40,2020-08-10_16h22.58.631,lexical_decision_task_MP,2020.1.3,Win32,60,,m,1,0.513445,,,,,,,,0.513445,1,,,,,,161,WORD,"ID",50,pastor,PASTOR,m,,,,,,-0.060185185,-0.401851852,0,0,0,,0,90,90,100,1,
,,,,,,,,,,,,,,,,,,5efe309bf2f94230dc588d40,2020-08-10_16h22.58.631,lexical_decision_task_MP,2020.1.3,Win32,60,,z,1,0.480865,,,,,,,,0.480865,1,,,,,,353,NW,"ID",33,clurey,CLUREY,z,,,,,,-0.060185185,-0.401851852,0,0,0,,0,91,91,292,1,
,,,,,,,,,,,,,,,,,,5efe309bf2f94230dc588d40,2020-08-10_16h22.58.631,lexical_decision_task_MP,2020.1.3,Win32,60,,m,1,0.70041,,,,,,,,0.70041,1,,,,,,214,WORD,UN,33,phobia,INTAKE,m,,,,,,-0.060185185,-0.401851852,0,0,0,,0,92,92,153,1,
,,,,,,,,,,,,,,,,,,5efe309bf2f94230dc588d40,2020-08-10_16h22.58.631,lexical_decision_task_MP,2020.1.3,Win32,60,,m,1,0.639985,,,,,,,,0.639985,1,,,,,,64,WORD,"ID",33,throne,THRONE,m,,,,,,-0.060185185,-0.401851852,0,0,0,,0,93,93,3,1,
,,,,,,,,,,,,,,,,,,5efe309bf2f94230dc588d40,2020-08-10_16h22.58.631,lexical_decision_task_MP,2020.1.3,Win32,60,,m,1,0.759655,,,,,,,,0.759655,1,,,,,,125,WORD,"ID",50,nickel,NICKEL,m,,,,,,-0.060185185,-0.401851852,0,0,0,,0,94,94,64,1,
,,,,,,,,,,,,,,,,,,5efe309bf2f94230dc588d40,2020-08-10_16h22.58.631,lexical_decision_task_MP,2020.1.3,Win32,60,,z,1,0.89315,,,,,,,,0.89315,1,,,,,,449,NW,UN,33,phrect,BRUNGE,z,,,,,,-0.060185185,-0.401851852,0,0,0,,0,95,95,388,1,
,,,,,,,,,,,,,,,,,,5efe309bf2f94230dc588d40,2020-08-10_16h22.58.631,lexical_decision_task_MP,2020.1.3,Win32,60,,z,1,0.806345,,,,,,,,0.806345,1,,,,,,356,NW,"ID",33,othnis,OTHNIS,z,,,,,,-0.060185185,-0.401851852,0,0,0,,0,96,96,295,1,
,,,,,,,,,,,,,,,,,,5efe309bf2f94230dc588d40,2020-08-10_16h22.58.631,lexical_decision_task_MP,2020.1.3,Win32,60,,z,1,0.68328,,,,,,,,0.68328,1,,,,,,308,NW,"ID",33,psetch,PSETCH,z,,,,,,-0.060185185,-0.401851852,0,0,0,,0,97,97,247,1,
,,,,,,,,,,,,,,,,,,5efe309bf2f94230dc588d40,2020-08-10_16h22.58.631,lexical_decision_task_MP,2020.1.3,Win32,60,,z,1,0.656365,,,,,,,,0.656365,1,,,,,,406,NW,"ID",50,nouply,NOUPLY,z,,,,,,-0.060185185,-0.401851852,0,0,0,,0,98,98,345,1,
,,,,,,,,,,,,,,,,,,5efe309bf2f94230dc588d40,2020-08-10_16h22.58.631,lexical_decision_task_MP,2020.1.3,Win32,60,,m,1,0.829105,,,,,,,,0.829105,1,,,,,,82,WORD,"ID",33,stigma,STIGMA,m,,,,,,-0.060185185,-0.401851852,0,0,0,,0,99,99,21,1,
,,,,,,,,,,,,,,,,,,5efe309bf2f94230dc588d40,2020-08-10_16h22.58.631,lexical_decision_task_MP,2020.1.3,Win32,60,,z,1,1.0768,,,,,,,,1.0768,1,,,,,,478,NW,UN,33,pebric,ACRISE,z,,,,,,-0.060185185,-0.401851852,0,0,0,,0,100,100,417,1,
,,,,,,,,,,,,,,,,,,5efe309bf2f94230dc588d40,2020-08-10_16h22.58.631,lexical_decision_task_MP,2020.1.3,Win32,60,,m,1,0.62227,,,,,,,,0.62227,1,,,,,,56,WORD,UN,50,change,AMBUSH,m,,,,,,-0.060185185,-0.401851852,0,0,0,,0,101,101,235,1,
,,,,,,,,,,,,,,,,,,5efe309bf2f94230dc588d40,2020-08-10_16h22.58.631,lexical_decision_task_MP,2020.1.3,Win32,60,,m,1,0.70585,,,,,,,,0.70585,1,,,,,,43,WORD,UN,50,foster,TONGUE,m,,,,,,-0.060185185,-0.401851852,0,0,0,,0,102,102,222,1,
,,,,,,,,,,,,,,,,,,5efe309bf2f94230dc588d40,2020-08-10_16h22.58.631,lexical_decision_task_MP,2020.1.3,Win32,60,,m,0,1.52943,,,,,,,,1.52943,0,,,,,,293,NW,UN,50,inhort,SWANCE,z,,,,,,-0.060185185,-0.401851852,0,0,0,,0,103,103,472,1,
,,,,,,,,,,,,,,,,,,5efe309bf2f94230dc588d40,2020-08-10_16h22.58.631,lexical_decision_task_MP,2020.1.3,Win32,60,,z,1,0.971685,,,,,,,,0.971685,1,,,,,,339,NW,"ID",33,fachow,FACHOW,z,,,,,,-0.060185185,-0.401851852,0,0,0,,0,104,104,278,1,
,,,,,,,,,,,,,,,,,,5efe309bf2f94230dc588d40,2020-08-10_16h22.58.631,lexical_decision_task_MP,2020.1.3,Win32,60,,z,1,0.70593,,,,,,,,0.70593,1,,,,,,334,NW,"ID",33,watmeg,WATMEG,z,,,,,,-0.060185185,-0.401851852,0,0,0,,0,105,105,273,1,
,,,,,,,,,,,,,,,,,,5efe309bf2f94230dc588d40,2020-08-10_16h22.58.631,lexical_decision_task_MP,2020.1.3,Win32,60,,z,1,1.06668,,,,,,,,1.06668,1,,,,,,275,NW,UN,50,yarmon,SLEIRT,z,,,,,,-0.060185185,-0.401851852,0,0,0,,0,106,106,454,1,
,,,,,,,,,,,,,,,,,,5efe309bf2f94230dc588d40,2020-08-10_16h22.58.631,lexical_decision_task_MP,2020.1.3,Win32,60,,m,1,0.646145,,,,,,,,0.646145,1,,,,,,105,WORD,"ID",33,number,NUMBER,m,,,,,,-0.060185185,-0.401851852,0,0,0,,0,107,107,44,1,
,,,,,,,,,,,,,,,,,,5efe309bf2f94230dc588d40,2020-08-10_16h22.58.631,lexical_decision_task_MP,2020.1.3,Win32,60,,m,1,0.65009,,,,,,,,0.65009,1,,,,,,216,WORD,UN,33,liquor,BEHALF,m,,,,,,-0.060185185,-0.401851852,0,0,0,,0,108,108,155,1,
,,,,,,,,,,,,,,,,,,5efe309bf2f94230dc588d40,2020-08-10_16h22.58.631,lexical_decision_task_MP,2020.1.3,Win32,60,,m,1,0.5937,,,,,,,,0.5937,1,,,,,,57,WORD,UN,50,danger,CHANGE,m,,,,,,-0.060185185,-0.401851852,0,0,0,,0,109,109,236,1,
,,,,,,,,,,,,,,,,,,5efe309bf2f94230dc588d40,2020-08-10_16h22.58.631,lexical_decision_task_MP,2020.1.3,Win32,60,,z,1,0.648685,,,,,,,,0.648685,1,,,,,,273,NW,UN,50,fumblo,SORTEL,z,,,,,,-0.060185185,-0.401851852,0,0,0,,0,110,110,452,1,
,,,,,,,,,,,,,,,,,,5efe309bf2f94230dc588d40,2020-08-10_16h22.58.631,lexical_decision_task_MP,2020.1.3,Win32,60,,z,1,0.75175,,,,,,,,0.75175,1,,,,,,296,NW,UN,50,fertic,BEINCH,z,,,,,,-0.060185185,-0.401851852,0,0,0,,0,111,111,475,1,
,,,,,,,,,,,,,,,,,,5efe309bf2f94230dc588d40,2020-08-10_16h22.58.631,lexical_decision_task_MP,2020.1.3,Win32,60,,z,1,0.527725,,,,,,,,0.527725,1,,,,,,392,NW,"ID",50,rouncy,ROUNCY,z,,,,,,-0.060185185,-0.401851852,0,0,0,,0,112,112,331,1,
,,,,,,,,,,,,,,,,,,5efe309bf2f94230dc588d40,2020-08-10_16h22.58.631,lexical_decision_task_MP,2020.1.3,Win32,60,,z,1,0.645205,,,,,,,,0.645205,1,,,,,,255,NW,UN,50,inlors,APIGHT,z,,,,,,-0.060185185,-0.401851852,0,0,0,,0,113,113,434,1,
,,,,,,,,,,,,,,,,,,5efe309bf2f94230dc588d40,2020-08-10_16h22.58.631,lexical_decision_task_MP,2020.1.3,Win32,60,,z,1,0.6336,,,,,,,,0.6336,1,,,,,,343,NW,"ID",33,aimosy,AIMOSY,z,,,,,,-0.060185185,-0.401851852,0,0,0,,0,114,114,282,1,
,,,,,,,,,,,,,,,,,,5efe309bf2f94230dc588d40,2020-08-10_16h22.58.631,lexical_decision_task_MP,2020.1.3,Win32,60,,z,1,1.108305,,,,,,,,1.108305,1,,,,,,335,NW,"ID",33,desion,DESION,z,,,,,,-0.060185185,-0.401851852,0,0,0,,0,115,115,274,1,
,,,,,,,,,,,,,,,,,,5efe309bf2f94230dc588d40,2020-08-10_16h22.58.631,lexical_decision_task_MP,2020.1.3,Win32,60,,m,1,0.65704,,,,,,,,0.65704,1,,,,,,131,WORD,"ID",50,quench,QUENCH,m,,,,,,-0.060185185,-0.401851852,0,0,0,,0,116,116,70,1,
,,,,,,,,,,,,,,,,,,5efe309bf2f94230dc588d40,2020-08-10_16h22.58.631,lexical_decision_task_MP,2020.1.3,Win32,60,,m,1,0.61494,,,,,,,,0.61494,1,,,,,,200,WORD,UN,33,admire,BEACON,m,,,,,,-0.060185185,-0.401851852,0,0,0,,0,117,117,139,1,
,,,,,,,,,,,,,,,,,,5efe309bf2f94230dc588d40,2020-08-10_16h22.58.631,lexical_decision_task_MP,2020.1.3,Win32,60,,m,0,1.000625,,,,,,,,1.000625,0,,,,,,411,NW,"ID",50,orchin,ORCHIN,z,,,,,,-0.060185185,-0.401851852,0,0,0,,0,118,118,350,1,
,,,,,,,,,,,,,,,,,,5efe309bf2f94230dc588d40,2020-08-10_16h22.58.631,lexical_decision_task_MP,2020.1.3,Win32,60,,m,1,0.843505,,,,,,,,0.843505,1,,,,,,76,WORD,"ID",33,exotic,EXOTIC,m,,,,,,-0.060185185,-0.401851852,0,0,0,,0,119,119,15,1,
,,,,,,,,,,,,,,,,,,5efe309bf2f94230dc588d40,2020-08-10_16h22.58.631,lexical_decision_task_MP,2020.1.3,Win32,60,,z,1,1.117105,,,,,,,,1.117105,1,,,,,,357,NW,"ID",33,derain,DERAIN,z,,,,,,-0.042592593,-0.281481481,0,0,0,space,0,120,120,296,1,40.62033
,,,,,,,,,,,,,,,,,,5efe309bf2f94230dc588d40,2020-08-10_16h22.58.631,lexical_decision_task_MP,2020.1.3,Win32,60,,m,1,0.846675,,,,,,,,0.846675,1,,,,,,108,WORD,"ID",33,reckon,RECKON,m,,,,,,-0.042592593,-0.281481481,0,0,0,,0,121,121,47,1,
,,,,,,,,,,,,,,,,,,5efe309bf2f94230dc588d40,2020-08-10_16h22.58.631,lexical_decision_task_MP,2020.1.3,Win32,60,,z,1,0.705395,,,,,,,,0.705395,1,,,,,,457,NW,UN,33,barcet,WANIGH,z,,,,,,-0.042592593,-0.281481481,0,0,0,,0,122,122,396,1,
,,,,,,,,,,,,,,,,,,5efe309bf2f94230dc588d40,2020-08-10_16h22.58.631,lexical_decision_task_MP,2020.1.3,Win32,60,,z,1,0.687075,,,,,,,,0.687075,1,,,,,,453,NW,UN,33,scouge,BOLVIS,z,,,,,,-0.042592593,-0.281481481,0,0,0,,0,123,123,392,1,
,,,,,,,,,,,,,,,,,,5efe309bf2f94230dc588d40,2020-08-10_16h22.58.631,lexical_decision_task_MP,2020.1.3,Win32,60,,z,1,0.696735,,,,,,,,0.696735,1,,,,,,316,NW,"ID",33,scregm,SCREGM,z,,,,,,-0.042592593,-0.281481481,0,0,0,,0,124,124,255,1,
,,,,,,,,,,,,,,,,,,5efe309bf2f94230dc588d40,2020-08-10_16h22.58.631,lexical_decision_task_MP,2020.1.3,Win32,60,,m,1,0.632265,,,,,,,,0.632265,1,,,,,,24,WORD,UN,50,domain,PRAISE,m,,,,,,-0.042592593,-0.281481481,0,0,0,,0,125,125,203,1,
,,,,,,,,,,,,,,,,,,5efe309bf2f94230dc588d40,2020-08-10_16h22.58.631,lexical_decision_task_MP,2020.1.3,Win32,60,,z,1,0.66948,,,,,,,,0.66948,1,,,,,,403,NW,"ID",50,bruats,BRUATS,z,,,,,,-0.042592593,-0.281481481,0,0,0,,0,126,126,342,1,
,,,,,,,,,,,,,,,,,,5efe309bf2f94230dc588d40,2020-08-10_16h22.58.631,lexical_decision_task_MP,2020.1.3,Win32,60,,m,1,0.6003,,,,,,,,0.6003,1,,,,,,27,WORD,UN,50,comedy,SCREAM,m,,,,,,-0.042592593,-0.281481481,0,0,0,,0,127,127,206,1,
,,,,,,,,,,,,,,,,,,5efe309bf2f94230dc588d40,2020-08-10_16h22.58.631,lexical_decision_task_MP,2020.1.3,Win32,60,,z,1,1.541415,,,,,,,,1.541415,1,,,,,,468,NW,UN,33,padifs,WICTOR,z,,,,,,-0.042592593,-0.281481481,0,0,0,,0,128,128,407,1,
,,,,,,,,,,,,,,,,,,5efe309bf2f94230dc588d40,2020-08-10_16h22.58.631,lexical_decision_task_MP,2020.1.3,Win32,60,,m,1,0.721835,,,,,,,,0.721835,1,,,,,,74,WORD,"ID",33,plaque,PLAQUE,m,,,,,,-0.042592593,-0.281481481,0,0,0,,0,129,129,13,1,
,,,,,,,,,,,,,,,,,,5efe309bf2f94230dc588d40,2020-08-10_16h22.58.631,lexical_decision_task_MP,2020.1.3,Win32,60,,z,1,0.597105,,,,,,,,0.597105,1,,,,,,365,NW,"ID",50,guairt,GUAIRT,z,,,,,,-0.042592593,-0.281481481,0,0,0,,0,130,130,304,1,
,,,,,,,,,,,,,,,,,,5efe309bf2f94230dc588d40,2020-08-10_16h22.58.631,lexical_decision_task_MP,2020.1.3,Win32,60,,z,1,0.67569,,,,,,,,0.67569,1,,,,,,371,NW,"ID",50,geiloy,GEILOY,z,,,,,,-0.042592593,-0.281481481,0,0,0,,0,131,131,310,1,
,,,,,,,,,,,,,,,,,,5efe309bf2f94230dc588d40,2020-08-10_16h22.58.631,lexical_decision_task_MP,2020.1.3,Win32,60,,z,1,0.58703,,,,,,,,0.58703,1,,,,,,241,NW,UN,50,unwert,SMENCO,z,,,,,,-0.042592593,-0.281481481,0,0,0,,0,132,132,420,1,
,,,,,,,,,,,,,,,,,,5efe309bf2f94230dc588d40,2020-08-10_16h22.58.631,lexical_decision_task_MP,2020.1.3,Win32,60,,m,1,0.58294,,,,,,,,0.58294,1,,,,,,119,WORD,"ID",33,spider,SPIDER,m,,,,,,-0.042592593,-0.281481481,0,0,0,,0,133,133,58,1,
,,,,,,,,,,,,,,,,,,5efe309bf2f94230dc588d40,2020-08-10_16h22.58.631,lexical_decision_task_MP,2020.1.3,Win32,60,,m,1,0.555845,,,,,,,,0.555845,1,,,,,,132,WORD,"ID",50,strong,STRONG,m,,,,,,-0.042592593,-0.281481481,0,0,0,,0,134,134,71,1,
,,,,,,,,,,,,,,,,,,5efe309bf2f94230dc588d40,2020-08-10_16h22.58.631,lexical_decision_task_MP,2020.1.3,Win32,60,,m,1,0.731175,,,,,,,,0.731175,1,,,,,,197,WORD,UN,33,wicked,STREAM,m,,,,,,-0.042592593,-0.281481481,0,0,0,,0,135,135,136,1,
,,,,,,,,,,,,,,,,,,5efe309bf2f94230dc588d40,2020-08-10_16h22.58.631,lexical_decision_task_MP,2020.1.3,Win32,60,,m,1,0.587895,,,,,,,,0.587895,1,,,,,,70,WORD,"ID",33,square,SQUARE,m,,,,,,-0.042592593,-0.281481481,0,0,0,,0,136,136,9,1,
,,,,,,,,,,,,,,,,,,5efe309bf2f94230dc588d40,2020-08-10_16h22.58.631,lexical_decision_task_MP,2020.1.3,Win32,60,,z,1,0.910375,,,,,,,,0.910375,1,,,,,,461,NW,UN,33,absult,JUSTRE,z,,,,,,-0.042592593,-0.281481481,0,0,0,,0,137,137,400,1,
,,,,,,,,,,,,,,,,,,5efe309bf2f94230dc588d40,2020-08-10_16h22.58.631,lexical_decision_task_MP,2020.1.3,Win32,60,,m,1,0.63582,,,,,,,,0.63582,1,,,,,,90,WORD,"ID",33,relish,RELISH,m,,,,,,-0.042592593,-0.281481481,0,0,0,,0,138,138,29,1,
,,,,,,,,,,,,,,,,,,5efe309bf2f94230dc588d40,2020-08-10_16h22.58.631,lexical_decision_task_MP,2020.1.3,Win32,60,,m,1,1.360845,,,,,,,,1.360845,1,,,,,,4,WORD,UN,50,plunge,TRENCH,m,,,,,,-0.042592593,-0.281481481,0,0,0,,0,139,139,183,1,
,,,,,,,,,,,,,,,,,,5efe309bf2f94230dc588d40,2020-08-10_16h22.58.631,lexical_decision_task_MP,2020.1.3,Win32,60,,m,1,0.757755,,,,,,,,0.757755,1,,,,,,160,WORD,"ID",50,violet,VIOLET,m,,,,,,-0.042592593,-0.281481481,0,0,0,,0,140,140,99,1,
,,,,,,,,,,,,,,,,,,5efe309bf2f94230dc588d40,2020-08-10_16h22.58.631,lexical_decision_task_MP,2020.1.3,Win32,60,,z,1,1.634675,,,,,,,,1.634675,1,,,,,,476,NW,UN,33,photie,JOSTED,z,,,,,,-0.042592593,-0.281481481,0,0,0,,0,141,141,415,1,
,,,,,,,,,,,,,,,,,,5efe309bf2f94230dc588d40,2020-08-10_16h22.58.631,lexical_decision_task_MP,2020.1.3,Win32,60,,m,0,0.88931,,,,,,,,0.88931,0,,,,,,260,NW,UN,50,stunch,UNJECT,z,,,,,,-0.042592593,-0.281481481,0,0,0,,0,142,142,439,1,
,,,,,,,,,,,,,,,,,,5efe309bf2f94230dc588d40,2020-08-10_16h22.58.631,lexical_decision_task_MP,2020.1.3,Win32,60,,z,1,0.80248,,,,,,,,0.80248,1,,,,,,427,NW,UN,33,tandly,SCHIND,z,,,,,,-0.042592593,-0.281481481,0,0,0,,0,143,143,366,1,
,,,,,,,,,,,,,,,,,,5efe309bf2f94230dc588d40,2020-08-10_16h22.58.631,lexical_decision_task_MP,2020.1.3,Win32,60,,m,1,0.6818,,,,,,,,0.6818,1,,,,,,157,WORD,"ID",50,dragon,DRAGON,m,,,,,,-0.042592593,-0.281481481,0,0,0,,0,144,144,96,1,
,,,,,,,,,,,,,,,,,,5efe309bf2f94230dc588d40,2020-08-10_16h22.58.631,lexical_decision_task_MP,2020.1.3,Win32,60,,z,1,1.10735,,,,,,,,1.10735,1,,,,,,301,NW,"ID",33,fainch,FAINCH,z,,,,,,-0.042592593,-0.281481481,0,0,0,,0,145,145,240,1,
,,,,,,,,,,,,,,,,,,5efe309bf2f94230dc588d40,2020-08-10_16h22.58.631,lexical_decision_task_MP,2020.1.3,Win32,60,,m,1,0.612905,,,,,,,,0.612905,1,,,,,,193,WORD,UN,33,mildew,OBJECT,m,,,,,,-0.042592593,-0.281481481,0,0,0,,0,146,146,132,1,
,,,,,,,,,,,,,,,,,,5efe309bf2f94230dc588d40,2020-08-10_16h22.58.631,lexical_decision_task_MP,2020.1.3,Win32,60,,z,1,0.847515,,,,,,,,0.847515,1,,,,,,298,NW,UN,50,sturch,PIERGY,z,,,,,,-0.042592593,-0.281481481,0,0,0,,0,147,147,477,1,
,,,,,,,,,,,,,,,,,,5efe309bf2f94230dc588d40,2020-08-10_16h22.58.631,lexical_decision_task_MP,2020.1.3,Win32,60,,m,1,0.54158,,,,,,,,0.54158,1,,,,,,168,WORD,"ID",50,answer,ANSWER,m,,,,,,-0.042592593,-0.281481481,0,0,0,,0,148,148,107,1,
,,,,,,,,,,,,,,,,,,5efe309bf2f94230dc588d40,2020-08-10_16h22.58.631,lexical_decision_task_MP,2020.1.3,Win32,60,,m,1,1.14976,,,,,,,,1.14976,1,,,,,,25,WORD,UN,50,sprint,DOMAIN,m,,,,,,-0.042592593,-0.281481481,0,0,0,,0,149,149,204,1,
,,,,,,,,,,,,,,,,,,5efe309bf2f94230dc588d40,2020-08-10_16h22.58.631,lexical_decision_task_MP,2020.1.3,Win32,60,,z,1,0.67685,,,,,,,,0.67685,1,,,,,,412,NW,"ID",50,jiluer,JILUER,z,,,,,,-0.042592593,-0.281481481,0,0,0,,0,150,150,351,1,
,,,,,,,,,,,,,,,,,,5efe309bf2f94230dc588d40,2020-08-10_16h22.58.631,lexical_decision_task_MP,2020.1.3,Win32,60,,m,0,0.710035,,,,,,,,0.710035,0,,,,,,413,NW,"ID",50,equats,EQUATS,z,,,,,,-0.042592593,-0.281481481,0,0,0,,0,151,151,352,1,
,,,,,,,,,,,,,,,,,,5efe309bf2f94230dc588d40,2020-08-10_16h22.58.631,lexical_decision_task_MP,2020.1.3,Win32,60,,m,1,0.663845,,,,,,,,0.663845,1,,,,,,49,WORD,UN,50,snatch,SURVEY,m,,,,,,-0.042592593,-0.281481481,0,0,0,,0,152,152,228,1,
,,,,,,,,,,,,,,,,,,5efe309bf2f94230dc588d40,2020-08-10_16h22.58.631,lexical_decision_task_MP,2020.1.3,Win32,60,,z,1,0.8054,,,,,,,,0.8054,1,,,,,,439,NW,UN,33,saride,LIMPOR,z,,,,,,-0.042592593,-0.281481481,0,0,0,,0,153,153,378,1,
,,,,,,,,,,,,,,,,,,5efe309bf2f94230dc588d40,2020-08-10_16h22.58.631,lexical_decision_task_MP,2020.1.3,Win32,60,,z,1,0.930375,,,,,,,,0.930375,1,,,,,,434,NW,UN,33,impurb,PITROM,z,,,,,,-0.042592593,-0.281481481,0,0,0,,0,154,154,373,1,
,,,,,,,,,,,,,,,,,,5efe309bf2f94230dc588d40,2020-08-10_16h22.58.631,lexical_decision_task_MP,2020.1.3,Win32,60,,z,1,0.65292,,,,,,,,0.65292,1,,,,,,272,NW,UN,50,sortel,DAMILT,z,,,,,,-0.042592593,-0.281481481,0,0,0,,0,155,155,451,1,
,,,,,,,,,,,,,,,,,,5efe309bf2f94230dc588d40,2020-08-10_16h22.58.631,lexical_decision_task_MP,2020.1.3,Win32,60,,z,1,0.63135,,,,,,,,0.63135,1,,,,,,252,NW,UN,50,resait,STAPOD,z,,,,,,-0.042592593,-0.281481481,0,0,0,,0,156,156,431,1,
,,,,,,,,,,,,,,,,,,5efe309bf2f94230dc588d40,2020-08-10_16h22.58.631,lexical_decision_task_MP,2020.1.3,Win32,60,,m,1,0.8635,,,,,,,,0.8635,1,,,,,,194,WORD,UN,33,resign,ABSENT,m,,,,,,-0.042592593,-0.281481481,0,0,0,,0,157,157,133,1,
,,,,,,,,,,,,,,,,,,5efe309bf2f94230dc588d40,2020-08-10_16h22.58.631,lexical_decision_task_MP,2020.1.3,Win32,60,,m,1,0.6012,,,,,,,,0.6012,1,,,,,,51,WORD,UN,50,impose,HUNGRY,m,,,,,,-0.042592593,-0.281481481,0,0,0,,0,158,158,230,1,
,,,,,,,,,,,,,,,,,,5efe309bf2f94230dc588d40,2020-08-10_16h22.58.631,lexical_decision_task_MP,2020.1.3,Win32,60,,m,1,0.653775,,,,,,,,0.653775,1,,,,,,195,WORD,UN,33,credit,RESIGN,m,,,,,,-0.042592593,-0.281481481,0,0,0,,0,159,159,134,1,
,,,,,,,,,,,,,,,,,,5efe309bf2f94230dc588d40,2020-08-10_16h22.58.631,lexical_decision_task_MP,2020.1.3,Win32,60,,m,1,0.59652,,,,,,,,0.59652,1,,,,,,115,WORD,"ID",33,guitar,GUITAR,m,,,,,,-0.042592593,-0.281481481,0,0,0,,0,160,160,54,1,
,,,,,,,,,,,,,,,,,,5efe309bf2f94230dc588d40,2020-08-10_16h22.58.631,lexical_decision_task_MP,2020.1.3,Win32,60,,z,0,0.640735,,,,,,,,0.640735,0,,,,,,204,WORD,UN,33,lounge,BURDEN,m,,,,,,-0.042592593,-0.281481481,0,0,0,,0,161,161,143,1,
,,,,,,,,,,,,,,,,,,5efe309bf2f94230dc588d40,2020-08-10_16h22.58.631,lexical_decision_task_MP,2020.1.3,Win32,60,,z,1,1.85214,,,,,,,,1.85214,1,,,,,,480,NW,UN,33,knisma,ROBULY,z,,,,,,-0.042592593,-0.281481481,0,0,0,,0,162,162,419,1,
,,,,,,,,,,,,,,,,,,5efe309bf2f94230dc588d40,2020-08-10_16h22.58.631,lexical_decision_task_MP,2020.1.3,Win32,60,,z,1,1.210295,,,,,,,,1.210295,1,,,,,,256,NW,UN,50,veniod,INLORS,z,,,,,,-0.042592593,-0.281481481,0,0,0,,0,163,163,435,1,
,,,,,,,,,,,,,,,,,,5efe309bf2f94230dc588d40,2020-08-10_16h22.58.631,lexical_decision_task_MP,2020.1.3,Win32,60,,m,1,0.523615,,,,,,,,0.523615,1,,,,,,93,WORD,"ID",33,public,PUBLIC,m,,,,,,-0.042592593,-0.281481481,0,0,0,,0,164,164,32,1,
,,,,,,,,,,,,,,,,,,5efe309bf2f94230dc588d40,2020-08-10_16h22.58.631,lexical_decision_task_MP,2020.1.3,Win32,60,,z,1,0.926295,,,,,,,,0.926295,1,,,,,,435,NW,UN,33,frutan,IMPURB,z,,,,,,-0.042592593,-0.281481481,0,0,0,,0,165,165,374,1,
,,,,,,,,,,,,,,,,,,5efe309bf2f94230dc588d40,2020-08-10_16h22.58.631,lexical_decision_task_MP,2020.1.3,Win32,60,,m,1,0.56016,,,,,,,,0.56016,1,,,,,,138,WORD,"ID",50,melody,MELODY,m,,,,,,-0.042592593,-0.281481481,0,0,0,,0,166,166,77,1,
,,,,,,,,,,,,,,,,,,5efe309bf2f94230dc588d40,2020-08-10_16h22.58.631,lexical_decision_task_MP,2020.1.3,Win32,60,,,0,,,,,,,,,0.56016,-1,,,,,,363,NW,"ID",50,breali,BREALI,z,,,,,,-0.042592593,-0.281481481,0,0,0,,0,167,167,302,1,
,,,,,,,,,,,,,,,,,,5efe309bf2f94230dc588d40,2020-08-10_16h22.58.631,lexical_decision_task_MP,2020.1.3,Win32,60,,m,1,0.53944,,,,,,,,0.53944,1,,,,,,103,WORD,"ID",33,bounce,BOUNCE,m,,,,,,-0.042592593,-0.281481481,0,0,0,,0,168,168,42,1,
,,,,,,,,,,,,,,,,,,5efe309bf2f94230dc588d40,2020-08-10_16h22.58.631,lexical_decision_task_MP,2020.1.3,Win32,60,,z,1,0.60341,,,,,,,,0.60341,1,,,,,,393,NW,"ID",50,ganous,GANOUS,z,,,,,,-0.042592593,-0.281481481,0,0,0,,0,169,169,332,1,
,,,,,,,,,,,,,,,,,,5efe309bf2f94230dc588d40,2020-08-10_16h22.58.631,lexical_decision_task_MP,2020.1.3,Win32,60,,z,1,0.6084,,,,,,,,0.6084,1,,,,,,467,NW,UN,33,wictor,GORBIE,z,,,,,,-0.042592593,-0.281481481,0,0,0,,0,170,170,406,1,
,,,,,,,,,,,,,,,,,,5efe309bf2f94230dc588d40,2020-08-10_16h22.58.631,lexical_decision_task_MP,2020.1.3,Win32,60,,m,1,0.48246,,,,,,,,0.48246,1,,,,,,39,WORD,UN,50,convey,INSECT,m,,,,,,-0.042592593,-0.281481481,0,0,0,,0,171,171,218,1,
,,,,,,,,,,,,,,,,,,5efe309bf2f94230dc588d40,2020-08-10_16h22.58.631,lexical_decision_task_MP,2020.1.3,Win32,60,,z,1,0.71681,,,,,,,,0.71681,1,,,,,,327,NW,"ID",33,plenac,PLENAC,z,,,,,,-0.042592593,-0.281481481,0,0,0,,0,172,172,266,1,
,,,,,,,,,,,,,,,,,,5efe309bf2f94230dc588d40,2020-08-10_16h22.58.631,lexical_decision_task_MP,2020.1.3,Win32,60,,m,0,0.939635,,,,,,,,0.939635,0,,,,,,429,NW,UN,33,caroey,FUNTLE,z,,,,,,-0.042592593,-0.281481481,0,0,0,,0,173,173,368,1,
,,,,,,,,,,,,,,,,,,5efe309bf2f94230dc588d40,2020-08-10_16h22.58.631,lexical_decision_task_MP,2020.1.3,Win32,60,,z,0,0.57222,,,,,,,,0.57222,0,,,,,,222,WORD,UN,33,export,HINDER,m,,,,,,-0.042592593,-0.281481481,0,0,0,,0,174,174,161,1,
,,,,,,,,,,,,,,,,,,5efe309bf2f94230dc588d40,2020-08-10_16h22.58.631,lexical_decision_task_MP,2020.1.3,Win32,60,,m,0,1.008495,,,,,,,,1.008495,0,,,,,,372,NW,"ID",50,ramily,RAMILY,z,,,,,,-0.042592593,-0.281481481,0,0,0,,0,175,175,311,1,
,,,,,,,,,,,,,,,,,,5efe309bf2f94230dc588d40,2020-08-10_16h22.58.631,lexical_decision_task_MP,2020.1.3,Win32,60,,m,1,0.579655,,,,,,,,0.579655,1,,,,,,188,WORD,UN,33,censor,SOCIAL,m,,,,,,-0.042592593,-0.281481481,0,0,0,,0,176,176,127,1,
,,,,,,,,,,,,,,,,,,5efe309bf2f94230dc588d40,2020-08-10_16h22.58.631,lexical_decision_task_MP,2020.1.3,Win32,60,,m,0,0.641025,,,,,,,,0.641025,0,,,,,,418,NW,"ID",50,suidle,SUIDLE,z,,,,,,-0.042592593,-0.281481481,0,0,0,,0,177,177,357,1,
,,,,,,,,,,,,,,,,,,5efe309bf2f94230dc588d40,2020-08-10_16h22.58.631,lexical_decision_task_MP,2020.1.3,Win32,60,,z,1,0.972965,,,,,,,,0.972965,1,,,,,,428,NW,UN,33,funtle,TANDLY,z,,,,,,-0.042592593,-0.281481481,0,0,0,,0,178,178,367,1,
,,,,,,,,,,,,,,,,,,5efe309bf2f94230dc588d40,2020-08-10_16h22.58.631,lexical_decision_task_MP,2020.1.3,Win32,60,,z,1,0.60601,,,,,,,,0.60601,1,,,,,,279,NW,UN,50,curbol,CELOND,z,,,,,,-0.042592593,-0.281481481,0,0,0,,0,179,179,458,1,
,,,,,,,,,,,,,,,,,,5efe309bf2f94230dc588d40,2020-08-10_16h22.58.631,lexical_decision_task_MP,2020.1.3,Win32,60,,m,1,0.590175,,,,,,,,0.590175,1,,,,,,41,WORD,UN,50,chapel,SPRING,m,,,,,,-0.042592593,-0.281481481,0,0,0,,0,180,180,220,1,
,,,,,,,,,,,,,,,,,,5efe309bf2f94230dc588d40,2020-08-10_16h22.58.631,lexical_decision_task_MP,2020.1.3,Win32,60,,z,1,0.595305,,,,,,,,0.595305,1,,,,,,360,NW,"ID",33,desory,DESORY,z,,,,,,-0.042592593,-0.281481481,0,0,0,,0,181,181,299,1,
,,,,,,,,,,,,,,,,,,5efe309bf2f94230dc588d40,2020-08-10_16h22.58.631,lexical_decision_task_MP,2020.1.3,Win32,60,,m,1,0.58699,,,,,,,,0.58699,1,,,,,,53,WORD,UN,50,ramble,POLICE,m,,,,,,-0.042592593,-0.281481481,0,0,0,,0,182,182,232,1,
,,,,,,,,,,,,,,,,,,5efe309bf2f94230dc588d40,2020-08-10_16h22.58.631,lexical_decision_task_MP,2020.1.3,Win32,60,,m,1,0.661645,,,,,,,,0.661645,1,,,,,,205,WORD,UN,33,tailor,LOUNGE,m,,,,,,-0.042592593,-0.281481481,0,0,0,,0,183,183,144,1,
,,,,,,,,,,,,,,,,,,5efe309bf2f94230dc588d40,2020-08-10_16h22.58.631,lexical_decision_task_MP,2020.1.3,Win32,60,,z,1,0.87134,,,,,,,,0.87134,1,,,,,,243,NW,UN,50,eatric,MUSIED,z,,,,,,-0.042592593,-0.281481481,0,0,0,,0,184,184,422,1,
,,,,,,,,,,,,,,,,,,5efe309bf2f94230dc588d40,2020-08-10_16h22.58.631,lexical_decision_task_MP,2020.1.3,Win32,60,,z,1,0.91284,,,,,,,,0.91284,1,,,,,,391,NW,"ID",50,theldy,THELDY,z,,,,,,-0.042592593,-0.281481481,0,0,0,,0,185,185,330,1,
,,,,,,,,,,,,,,,,,,5efe309bf2f94230dc588d40,2020-08-10_16h22.58.631,lexical_decision_task_MP,2020.1.3,Win32,60,,m,1,0.64881,,,,,,,,0.64881,1,,,,,,22,WORD,UN,50,wealth,JOCKEY,m,,,,,,-0.042592593,-0.281481481,0,0,0,,0,186,186,201,1,
,,,,,,,,,,,,,,,,,,5efe309bf2f94230dc588d40,2020-08-10_16h22.58.631,lexical_decision_task_MP,2020.1.3,Win32,60,,z,1,0.76479,,,,,,,,0.76479,1,,,,,,354,NW,"ID",33,virlex,VIRLEX,z,,,,,,-0.042592593,-0.281481481,0,0,0,,0,187,187,293,1,
,,,,,,,,,,,,,,,,,,5efe309bf2f94230dc588d40,2020-08-10_16h22.58.631,lexical_decision_task_MP,2020.1.3,Win32,60,,m,0,0.97968,,,,,,,,0.97968,0,,,,,,460,NW,UN,33,justre,MINGAR,z,,,,,,-0.042592593,-0.281481481,0,0,0,,0,188,188,399,1,
,,,,,,,,,,,,,,,,,,5efe309bf2f94230dc588d40,2020-08-10_16h22.58.631,lexical_decision_task_MP,2020.1.3,Win32,60,,z,1,0.621665,,,,,,,,0.621665,1,,,,,,249,NW,UN,50,milted,BATROL,z,,,,,,-0.042592593,-0.281481481,0,0,0,,0,189,189,428,1,
,,,,,,,,,,,,,,,,,,5efe309bf2f94230dc588d40,2020-08-10_16h22.58.631,lexical_decision_task_MP,2020.1.3,Win32,60,,m,1,0.52895,,,,,,,,0.52895,1,,,,,,127,WORD,"ID",50,castle,CASTLE,m,,,,,,-0.042592593,-0.281481481,0,0,0,,0,190,190,66,1,
,,,,,,,,,,,,,,,,,,5efe309bf2f94230dc588d40,2020-08-10_16h22.58.631,lexical_decision_task_MP,2020.1.3,Win32,60,,z,1,0.735805,,,,,,,,0.735805,1,,,,,,269,NW,UN,50,wrimsy,ORCHET,z,,,,,,-0.042592593,-0.281481481,0,0,0,,0,191,191,448,1,
,,,,,,,,,,,,,,,,,,5efe309bf2f94230dc588d40,2020-08-10_16h22.58.631,lexical_decision_task_MP,2020.1.3,Win32,60,,m,0,0.7706,,,,,,,,0.7706,0,,,,,,261,NW,UN,50,quilew,STUNCH,z,,,,,,-0.042592593,-0.281481481,0,0,0,,0,192,192,440,1,
,,,,,,,,,,,,,,,,,,5efe309bf2f94230dc588d40,2020-08-10_16h22.58.631,lexical_decision_task_MP,2020.1.3,Win32,60,,z,1,0.580475,,,,,,,,0.580475,1,,,,,,459,NW,UN,33,mingar,BAFENT,z,,,,,,-0.042592593,-0.281481481,0,0,0,,0,193,193,398,1,
,,,,,,,,,,,,,,,,,,5efe309bf2f94230dc588d40,2020-08-10_16h22.58.631,lexical_decision_task_MP,2020.1.3,Win32,60,,z,1,0.53464,,,,,,,,0.53464,1,,,,,,471,NW,UN,33,cigney,NOBEST,z,,,,,,-0.042592593,-0.281481481,0,0,0,,0,194,194,410,1,
,,,,,,,,,,,,,,,,,,5efe309bf2f94230dc588d40,2020-08-10_16h22.58.631,lexical_decision_task_MP,2020.1.3,Win32,60,,m,0,0.650185,,,,,,,,0.650185,0,,,,,,473,NW,UN,33,hablin,CRIBLE,z,,,,,,-0.042592593,-0.281481481,0,0,0,,0,195,195,412,1,
,,,,,,,,,,,,,,,,,,5efe309bf2f94230dc588d40,2020-08-10_16h22.58.631,lexical_decision_task_MP,2020.1.3,Win32,60,,m,1,0.754895,,,,,,,,0.754895,1,,,,,,92,WORD,"ID",33,strand,STRAND,m,,,,,,-0.042592593,-0.281481481,0,0,0,,0,196,196,31,1,
,,,,,,,,,,,,,,,,,,5efe309bf2f94230dc588d40,2020-08-10_16h22.58.631,lexical_decision_task_MP,2020.1.3,Win32,60,,m,1,0.862745,,,,,,,,0.862745,1,,,,,,142,WORD,"ID",50,spruce,SPRUCE,m,,,,,,-0.042592593,-0.281481481,0,0,0,,0,197,197,81,1,
,,,,,,,,,,,,,,,,,,5efe309bf2f94230dc588d40,2020-08-10_16h22.58.631,lexical_decision_task_MP,2020.1.3,Win32,60,,z,0,0.974825,,,,,,,,0.974825,0,,,,,,5,WORD,UN,50,bundle,PLUNGE,m,,,,,,-0.042592593,-0.281481481,0,0,0,,0,198,198,184,1,
,,,,,,,,,,,,,,,,,,5efe309bf2f94230dc588d40,2020-08-10_16h22.58.631,lexical_decision_task_MP,2020.1.3,Win32,60,,z,1,0.638095,,,,,,,,0.638095,1,,,,,,258,NW,UN,50,soudal,POLUTH,z,,,,,,-0.042592593,-0.281481481,0,0,0,,0,199,199,437,1,
,,,,,,,,,,,,,,,,,,5efe309bf2f94230dc588d40,2020-08-10_16h22.58.631,lexical_decision_task_MP,2020.1.3,Win32,60,,z,1,0.48685,,,,,,,,0.48685,1,,,,,,405,NW,"ID",50,flumni,FLUMNI,z,,,,,,-0.042592593,-0.281481481,0,0,0,,0,200,200,344,1,
,,,,,,,,,,,,,,,,,,5efe309bf2f94230dc588d40,2020-08-10_16h22.58.631,lexical_decision_task_MP,2020.1.3,Win32,60,,z,1,0.804005,,,,,,,,0.804005,1,,,,,,307,NW,"ID",33,kirafe,KIRAFE,z,,,,,,-0.042592593,-0.281481481,0,0,0,,0,201,201,246,1,
,,,,,,,,,,,,,,,,,,5efe309bf2f94230dc588d40,2020-08-10_16h22.58.631,lexical_decision_task_MP,2020.1.3,Win32,60,,m,1,0.53511,,,,,,,,0.53511,1,,,,,,65,WORD,"ID",33,symbol,SYMBOL,m,,,,,,-0.042592593,-0.281481481,0,0,0,,0,202,202,4,1,
,,,,,,,,,,,,,,,,,,5efe309bf2f94230dc588d40,2020-08-10_16h22.58.631,lexical_decision_task_MP,2020.1.3,Win32,60,,m,1,0.546355,,,,,,,,0.546355,1,,,,,,192,WORD,UN,33,object,PLAGUE,m,,,,,,-0.042592593,-0.281481481,0,0,0,,0,203,203,131,1,
,,,,,,,,,,,,,,,,,,5efe309bf2f94230dc588d40,2020-08-10_16h22.58.631,lexical_decision_task_MP,2020.1.3,Win32,60,,m,1,0.565965,,,,,,,,0.565965,1,,,,,,228,WORD,UN,33,kidney,MASTER,m,,,,,,-0.042592593,-0.281481481,0,0,0,,0,204,204,167,1,
,,,,,,,,,,,,,,,,,,5efe309bf2f94230dc588d40,2020-08-10_16h22.58.631,lexical_decision_task_MP,2020.1.3,Win32,60,,z,1,0.59927,,,,,,,,0.59927,1,,,,,,323,NW,"ID",33,rosail,ROSAIL,z,,,,,,-0.042592593,-0.281481481,0,0,0,,0,205,205,262,1,
,,,,,,,,,,,,,,,,,,5efe309bf2f94230dc588d40,2020-08-10_16h22.58.631,lexical_decision_task_MP,2020.1.3,Win32,60,,z,1,0.59858,,,,,,,,0.59858,1,,,,,,410,NW,"ID",50,tunory,TUNORY,z,,,,,,-0.042592593,-0.281481481,0,0,0,,0,206,206,349,1,
,,,,,,,,,,,,,,,,,,5efe309bf2f94230dc588d40,2020-08-10_16h22.58.631,lexical_decision_task_MP,2020.1.3,Win32,60,,z,0,0.526685,,,,,,,,0.526685,0,,,,,,140,WORD,"ID",50,prince,PRINCE,m,,,,,,-0.042592593,-0.281481481,0,0,0,,0,207,207,79,1,
,,,,,,,,,,,,,,,,,,5efe309bf2f94230dc588d40,2020-08-10_16h22.58.631,lexical_decision_task_MP,2020.1.3,Win32,60,,m,0,0.780895,,,,,,,,0.780895,0,,,,,,248,NW,UN,50,batrol,STROLE,z,,,,,,-0.042592593,-0.281481481,0,0,0,,0,208,208,427,1,
,,,,,,,,,,,,,,,,,,5efe309bf2f94230dc588d40,2020-08-10_16h22.58.631,lexical_decision_task_MP,2020.1.3,Win32,60,,m,1,0.617575,,,,,,,,0.617575,1,,,,,,34,WORD,UN,50,socket,JUNGLE,m,,,,,,-0.042592593,-0.281481481,0,0,0,,0,209,209,213,1,
,,,,,,,,,,,,,,,,,,5efe309bf2f94230dc588d40,2020-08-10_16h22.58.631,lexical_decision_task_MP,2020.1.3,Win32,60,,m,1,0.60356,,,,,,,,0.60356,1,,,,,,145,WORD,"ID",50,parish,PARISH,m,,,,,,-0.042592593,-0.281481481,0,0,0,,0,210,210,84,1,
,,,,,,,,,,,,,,,,,,5efe309bf2f94230dc588d40,2020-08-10_16h22.58.631,lexical_decision_task_MP,2020.1.3,Win32,60,,m,1,0.604915,,,,,,,,0.604915,1,,,,,,20,WORD,UN,50,simple,BREAST,m,,,,,,-0.042592593,-0.281481481,0,0,0,,0,211,211,199,1,
,,,,,,,,,,,,,,,,,,5efe309bf2f94230dc588d40,2020-08-10_16h22.58.631,lexical_decision_task_MP,2020.1.3,Win32,60,,m,1,0.590675,,,,,,,,0.590675,1,,,,,,26,WORD,UN,50,butler,SPRINT,m,,,,,,-0.042592593,-0.281481481,0,0,0,,0,212,212,205,1,
,,,,,,,,,,,,,,,,,,5efe309bf2f94230dc588d40,2020-08-10_16h22.58.631,lexical_decision_task_MP,2020.1.3,Win32,60,,m,1,0.50992,,,,,,,,0.50992,1,,,,,,36,WORD,UN,50,insult,VANISH,m,,,,,,-0.042592593,-0.281481481,0,0,0,,0,213,213,215,1,
,,,,,,,,,,,,,,,,,,5efe309bf2f94230dc588d40,2020-08-10_16h22.58.631,lexical_decision_task_MP,2020.1.3,Win32,60,,m,1,0.47236,,,,,,,,0.47236,1,,,,,,150,WORD,"ID",50,random,RANDOM,m,,,,,,-0.042592593,-0.281481481,0,0,0,,0,214,214,89,1,
,,,,,,,,,,,,,,,,,,5efe309bf2f94230dc588d40,2020-08-10_16h22.58.631,lexical_decision_task_MP,2020.1.3,Win32,60,,z,0,0.682125,,,,,,,,0.682125,0,,,,,,114,WORD,"ID",33,placid,PLACID,m,,,,,,-0.042592593,-0.281481481,0,0,0,,0,215,215,53,1,
,,,,,,,,,,,,,,,,,,5efe309bf2f94230dc588d40,2020-08-10_16h22.58.631,lexical_decision_task_MP,2020.1.3,Win32,60,,m,1,0.479305,,,,,,,,0.479305,1,,,,,,143,WORD,"ID",50,reason,REASON,m,,,,,,-0.042592593,-0.281481481,0,0,0,,0,216,216,82,1,
,,,,,,,,,,,,,,,,,,5efe309bf2f94230dc588d40,2020-08-10_16h22.58.631,lexical_decision_task_MP,2020.1.3,Win32,60,,z,1,0.50661,,,,,,,,0.50661,1,,,,,,306,NW,"ID",33,sounge,SOUNGE,z,,,,,,-0.042592593,-0.281481481,0,0,0,,0,217,217,245,1,
,,,,,,,,,,,,,,,,,,5efe309bf2f94230dc588d40,2020-08-10_16h22.58.631,lexical_decision_task_MP,2020.1.3,Win32,60,,z,1,0.52978,,,,,,,,0.52978,1,,,,,,305,NW,"ID",33,forgle,FORGLE,z,,,,,,-0.042592593,-0.281481481,0,0,0,,0,218,218,244,1,
,,,,,,,,,,,,,,,,,,5efe309bf2f94230dc588d40,2020-08-10_16h22.58.631,lexical_decision_task_MP,2020.1.3,Win32,60,,m,1,0.492725,,,,,,,,0.492725,1,,,,,,69,WORD,"ID",33,plenty,PLENTY,m,,,,,,-0.042592593,-0.281481481,0,0,0,,0,219,219,8,1,
,,,,,,,,,,,,,,,,,,5efe309bf2f94230dc588d40,2020-08-10_16h22.58.631,lexical_decision_task_MP,2020.1.3,Win32,60,,z,1,0.56514,,,,,,,,0.56514,1,,,,,,364,NW,"ID",50,impote,IMPOTE,z,,,,,,-0.042592593,-0.281481481,0,0,0,,0,220,220,303,1,
,,,,,,,,,,,,,,,,,,5efe309bf2f94230dc588d40,2020-08-10_16h22.58.631,lexical_decision_task_MP,2020.1.3,Win32,60,,m,1,0.55116,,,,,,,,0.55116,1,,,,,,128,WORD,"ID",50,senior,SENIOR,m,,,,,,-0.042592593,-0.281481481,0,0,0,,0,221,221,67,1,
,,,,,,,,,,,,,,,,,,5efe309bf2f94230dc588d40,2020-08-10_16h22.58.631,lexical_decision_task_MP,2020.1.3,Win32,60,,z,1,0.46081,,,,,,,,0.46081,1,,,,,,340,NW,"ID",33,fiatch,FIATCH,z,,,,,,-0.042592593,-0.281481481,0,0,0,,0,222,222,279,1,
,,,,,,,,,,,,,,,,,,5efe309bf2f94230dc588d40,2020-08-10_16h22.58.631,lexical_decision_task_MP,2020.1.3,Win32,60,,z,1,0.5833,,,,,,,,0.5833,1,,,,,,398,NW,"ID",50,blunde,BLUNDE,z,,,,,,-0.042592593,-0.281481481,0,0,0,,0,223,223,337,1,
,,,,,,,,,,,,,,,,,,5efe309bf2f94230dc588d40,2020-08-10_16h22.58.631,lexical_decision_task_MP,2020.1.3,Win32,60,,m,0,0.51523,,,,,,,,0.51523,0,,,,,,425,NW,UN,33,urivel,FRUDGE,z,,,,,,-0.042592593,-0.281481481,0,0,0,,0,224,224,364,1,
,,,,,,,,,,,,,,,,,,5efe309bf2f94230dc588d40,2020-08-10_16h22.58.631,lexical_decision_task_MP,2020.1.3,Win32,60,,m,0,0.934135,,,,,,,,0.934135,0,,,,,,407,NW,"ID",50,suiver,SUIVER,z,,,,,,-0.042592593,-0.281481481,0,0,0,,0,225,225,346,1,
,,,,,,,,,,,,,,,,,,5efe309bf2f94230dc588d40,2020-08-10_16h22.58.631,lexical_decision_task_MP,2020.1.3,Win32,60,,z,1,0.641085,,,,,,,,0.641085,1,,,,,,368,NW,"ID",50,hornal,HORNAL,z,,,,,,-0.042592593,-0.281481481,0,0,0,,0,226,226,307,1,
,,,,,,,,,,,,,,,,,,5efe309bf2f94230dc588d40,2020-08-10_16h22.58.631,lexical_decision_task_MP,2020.1.3,Win32,60,,z,1,0.532335,,,,,,,,0.532335,1,,,,,,446,NW,UN,33,gircue,RUNAMO,z,,,,,,-0.042592593,-0.281481481,0,0,0,,0,227,227,385,1,
,,,,,,,,,,,,,,,,,,5efe309bf2f94230dc588d40,2020-08-10_16h22.58.631,lexical_decision_task_MP,2020.1.3,Win32,60,,m,0,0.878695,,,,,,,,0.878695,0,,,,,,433,NW,UN,33,pitrom,DRANCE,z,,,,,,-0.042592593,-0.281481481,0,0,0,,0,228,228,372,1,
,,,,,,,,,,,,,,,,,,5efe309bf2f94230dc588d40,2020-08-10_16h22.58.631,lexical_decision_task_MP,2020.1.3,Win32,60,,z,1,0.761635,,,,,,,,0.761635,1,,,,,,388,NW,"ID",50,cragin,CRAGIN,z,,,,,,-0.042592593,-0.281481481,0,0,0,,0,229,229,327,1,
,,,,,,,,,,,,,,,,,,5efe309bf2f94230dc588d40,2020-08-10_16h22.58.631,lexical_decision_task_MP,2020.1.3,Win32,60,,z,1,0.60179,,,,,,,,0.60179,1,,,,,,387,NW,"ID",50,gronce,GRONCE,z,,,,,,-0.042592593,-0.281481481,0,0,0,,0,230,230,326,1,
,,,,,,,,,,,,,,,,,,5efe309bf2f94230dc588d40,2020-08-10_16h22.58.631,lexical_decision_task_MP,2020.1.3,Win32,60,,m,1,0.633905,,,,,,,,0.633905,1,,,,,,8,WORD,UN,50,hustle,ABRUPT,m,,,,,,-0.042592593,-0.281481481,0,0,0,,0,231,231,187,1,
,,,,,,,,,,,,,,,,,,5efe309bf2f94230dc588d40,2020-08-10_16h22.58.631,lexical_decision_task_MP,2020.1.3,Win32,60,,z,1,0.65571,,,,,,,,0.65571,1,,,,,,383,NW,"ID",50,aungre,AUNGRE,z,,,,,,-0.042592593,-0.281481481,0,0,0,,0,232,232,322,1,
,,,,,,,,,,,,,,,,,,5efe309bf2f94230dc588d40,2020-08-10_16h22.58.631,lexical_decision_task_MP,2020.1.3,Win32,60,,z,0,0.5651,,,,,,,,0.5651,0,,,,,,181,WORD,UN,33,winter,GLANCE,m,,,,,,-0.042592593,-0.281481481,0,0,0,,0,233,233,120,1,
,,,,,,,,,,,,,,,,,,5efe309bf2f94230dc588d40,2020-08-10_16h22.58.631,lexical_decision_task_MP,2020.1.3,Win32,60,,z,1,0.71236,,,,,,,,0.71236,1,,,,,,283,NW,UN,50,shaple,VERALF,z,,,,,,-0.042592593,-0.281481481,0,0,0,,0,234,234,462,1,
,,,,,,,,,,,,,,,,,,5efe309bf2f94230dc588d40,2020-08-10_16h22.58.631,lexical_decision_task_MP,2020.1.3,Win32,60,,m,1,0.647695,,,,,,,,0.647695,1,,,,,,236,WORD,UN,33,grumpy,PIRATE,m,,,,,,-0.042592593,-0.281481481,0,0,0,,0,235,235,175,1,
,,,,,,,,,,,,,,,,,,5efe309bf2f94230dc588d40,2020-08-10_16h22.58.631,lexical_decision_task_MP,2020.1.3,Win32,60,,m,1,0.46336,,,,,,,,0.46336,1,,,,,,172,WORD,"ID",50,patrol,PATROL,m,,,,,,-0.042592593,-0.281481481,0,0,0,,0,236,236,111,1,
,,,,,,,,,,,,,,,,,,5efe309bf2f94230dc588d40,2020-08-10_16h22.58.631,lexical_decision_task_MP,2020.1.3,Win32,60,,z,1,0.655005,,,,,,,,0.655005,1,,,,,,344,NW,"ID",33,scrily,SCRILY,z,,,,,,-0.042592593,-0.281481481,0,0,0,,0,237,237,283,1,
,,,,,,,,,,,,,,,,,,5efe309bf2f94230dc588d40,2020-08-10_16h22.58.631,lexical_decision_task_MP,2020.1.3,Win32,60,,z,1,0.703715,,,,,,,,0.703715,1,,,,,,245,NW,UN,50,piaton,ANOUGS,z,,,,,,-0.042592593,-0.281481481,0,0,0,,0,238,238,424,1,
,,,,,,,,,,,,,,,,,,5efe309bf2f94230dc588d40,2020-08-10_16h22.58.631,lexical_decision_task_MP,2020.1.3,Win32,60,,z,0,0.61225,,,,,,,,0.61225,0,,,,,,213,WORD,UN,33,intake,SQUEAL,m,,,,,,-0.042592593,-0.281481481,0,0,0,,0,239,239,152,1,
,,,,,,,,,,,,,,,,,,5efe309bf2f94230dc588d40,2020-08-10_16h22.58.631,lexical_decision_task_MP,2020.1.3,Win32,60,,z,1,0.5719,,,,,,,,0.5719,1,,,,,,350,NW,"ID",33,nagurs,NAGURS,z,,,,,,-0.042592593,-0.281481481,0,0,0,,0,240,240,289,1,
,,,,,,,,,,,,,,,,,,5efe309bf2f94230dc588d40,2020-08-10_16h22.58.631,lexical_decision_task_MP,2020.1.3,Win32,60,,z,1,0.532065,,,,,,,,0.532065,1,,,,,,312,NW,"ID",33,nerawl,NERAWL,z,,,,,,-0.042592593,-0.281481481,0,0,0,space,0,241,241,251,1,1.71489
,,,,,,,,,,,,,,,,,,5efe309bf2f94230dc588d40,2020-08-10_16h22.58.631,lexical_decision_task_MP,2020.1.3,Win32,60,,z,1,1.09248,,,,,,,,1.09248,1,,,,,,326,NW,"ID",33,iguade,IGUADE,z,,,,,,-0.042592593,-0.281481481,0,0,0,,0,242,242,265,1,
,,,,,,,,,,,,,,,,,,5efe309bf2f94230dc588d40,2020-08-10_16h22.58.631,lexical_decision_task_MP,2020.1.3,Win32,60,,m,1,0.479445,,,,,,,,0.479445,1,,,,,,175,WORD,"ID",50,fabric,FABRIC,m,,,,,,-0.042592593,-0.281481481,0,0,0,,0,243,243,114,1,
,,,,,,,,,,,,,,,,,,5efe309bf2f94230dc588d40,2020-08-10_16h22.58.631,lexical_decision_task_MP,2020.1.3,Win32,60,,m,1,0.562485,,,,,,,,0.562485,1,,,,,,191,WORD,UN,33,beacon,STABLE,m,,,,,,-0.042592593,-0.281481481,0,0,0,,0,244,244,130,1,
,,,,,,,,,,,,,,,,,,5efe309bf2f94230dc588d40,2020-08-10_16h22.58.631,lexical_decision_task_MP,2020.1.3,Win32,60,,z,1,0.925945,,,,,,,,0.925945,1,,,,,,291,NW,UN,50,ablint,PRETCH,z,,,,,,-0.042592593,-0.281481481,0,0,0,,0,245,245,470,1,
,,,,,,,,,,,,,,,,,,5efe309bf2f94230dc588d40,2020-08-10_16h22.58.631,lexical_decision_task_MP,2020.1.3,Win32,60,,m,1,0.54874,,,,,,,,0.54874,1,,,,,,104,WORD,"ID",33,studio,STUDIO,m,,,,,,-0.042592593,-0.281481481,0,0,0,,0,246,246,43,1,
,,,,,,,,,,,,,,,,,,5efe309bf2f94230dc588d40,2020-08-10_16h22.58.631,lexical_decision_task_MP,2020.1.3,Win32,60,,m,1,0.46935,,,,,,,,0.46935,1,,,,,,173,WORD,"ID",50,shower,SHOWER,m,,,,,,-0.042592593,-0.281481481,0,0,0,,0,247,247,112,1,
,,,,,,,,,,,,,,,,,,5efe309bf2f94230dc588d40,2020-08-10_16h22.58.631,lexical_decision_task_MP,2020.1.3,Win32,60,,z,1,0.47843,,,,,,,,0.47843,1,,,,,,450,NW,UN,33,cainky,PHRECT,z,,,,,,-0.042592593,-0.281481481,0,0,0,,0,248,248,389,1,
,,,,,,,,,,,,,,,,,,5efe309bf2f94230dc588d40,2020-08-10_16h22.58.631,lexical_decision_task_MP,2020.1.3,Win32,60,,m,0,0.425455,,,,,,,,0.425455,0,,,,,,319,NW,"ID",33,zomber,ZOMBER,z,,,,,,-0.042592593,-0.281481481,0,0,0,,0,249,249,258,1,
,,,,,,,,,,,,,,,,,,5efe309bf2f94230dc588d40,2020-08-10_16h22.58.631,lexical_decision_task_MP,2020.1.3,Win32,60,,m,1,0.66348,,,,,,,,0.66348,1,,,,,,206,WORD,UN,33,wreath,TAILOR,m,,,,,,-0.042592593,-0.281481481,0,0,0,,0,250,250,145,1,
,,,,,,,,,,,,,,,,,,5efe309bf2f94230dc588d40,2020-08-10_16h22.58.631,lexical_decision_task_MP,2020.1.3,Win32,60,,m,0,0.5572,,,,,,,,0.5572,0,,,,,,345,NW,"ID",33,absend,ABSEND,z,,,,,,-0.042592593,-0.281481481,0,0,0,,0,251,251,284,1,
,,,,,,,,,,,,,,,,,,5efe309bf2f94230dc588d40,2020-08-10_16h22.58.631,lexical_decision_task_MP,2020.1.3,Win32,60,,m,1,0.699465,,,,,,,,0.699465,1,,,,,,186,WORD,UN,33,course,PORTAL,m,,,,,,-0.042592593,-0.281481481,0,0,0,,0,252,252,125,1,
,,,,,,,,,,,,,,,,,,5efe309bf2f94230dc588d40,2020-08-10_16h22.58.631,lexical_decision_task_MP,2020.1.3,Win32,60,,m,1,0.65523,,,,,,,,0.65523,1,,,,,,218,WORD,UN,33,bucket,SHRINK,m,,,,,,-0.042592593,-0.281481481,0,0,0,,0,253,253,157,1,
,,,,,,,,,,,,,,,,,,5efe309bf2f94230dc588d40,2020-08-10_16h22.58.631,lexical_decision_task_MP,2020.1.3,Win32,60,,z,1,0.53589,,,,,,,,0.53589,1,,,,,,395,NW,"ID",50,colury,COLURY,z,,,,,,-0.042592593,-0.281481481,0,0,0,,0,254,254,334,1,
,,,,,,,,,,,,,,,,,,5efe309bf2f94230dc588d40,2020-08-10_16h22.58.631,lexical_decision_task_MP,2020.1.3,Win32,60,,z,1,0.58742,,,,,,,,0.58742,1,,,,,,474,NW,UN,33,acrise,HABLIN,z,,,,,,-0.042592593,-0.281481481,0,0,0,,0,255,255,413,1,
,,,,,,,,,,,,,,,,,,5efe309bf2f94230dc588d40,2020-08-10_16h22.58.631,lexical_decision_task_MP,2020.1.3,Win32,60,,z,1,0.51826,,,,,,,,0.51826,1,,,,,,465,NW,UN,33,bafent,WHIVEX,z,,,,,,-0.042592593,-0.281481481,0,0,0,,0,256,256,404,1,
,,,,,,,,,,,,,,,,,,5efe309bf2f94230dc588d40,2020-08-10_16h22.58.631,lexical_decision_task_MP,2020.1.3,Win32,60,,z,0,0.528925,,,,,,,,0.528925,0,,,,,,29,WORD,UN,50,orient,SKETCH,m,,,,,,-0.042592593,-0.281481481,0,0,0,,0,257,257,208,1,
,,,,,,,,,,,,,,,,,,5efe309bf2f94230dc588d40,2020-08-10_16h22.58.631,lexical_decision_task_MP,2020.1.3,Win32,60,,z,1,0.966985,,,,,,,,0.966985,1,,,,,,409,NW,"ID",50,elopia,ELOPIA,z,,,,,,-0.042592593,-0.281481481,0,0,0,,0,258,258,348,1,
,,,,,,,,,,,,,,,,,,5efe309bf2f94230dc588d40,2020-08-10_16h22.58.631,lexical_decision_task_MP,2020.1.3,Win32,60,,z,1,0.653205,,,,,,,,0.653205,1,,,,,,358,NW,"ID",33,fleack,FLEACK,z,,,,,,-0.042592593,-0.281481481,0,0,0,,0,259,259,297,1,
,,,,,,,,,,,,,,,,,,5efe309bf2f94230dc588d40,2020-08-10_16h22.58.631,lexical_decision_task_MP,2020.1.3,Win32,60,,z,1,0.521375,,,,,,,,0.521375,1,,,,,,442,NW,UN,33,dorsex,ABOUNE,z,,,,,,-0.042592593,-0.281481481,0,0,0,,0,260,260,381,1,
,,,,,,,,,,,,,,,,,,5efe309bf2f94230dc588d40,2020-08-10_16h22.58.631,lexical_decision_task_MP,2020.1.3,Win32,60,,z,1,0.55914,,,,,,,,0.55914,1,,,,,,379,NW,"ID",50,auting,AUTING,z,,,,,,-0.042592593,-0.281481481,0,0,0,,0,261,261,318,1,
,,,,,,,,,,,,,,,,,,5efe309bf2f94230dc588d40,2020-08-10_16h22.58.631,lexical_decision_task_MP,2020.1.3,Win32,60,,m,1,0.661555,,,,,,,,0.661555,1,,,,,,94,WORD,"ID",33,travel,TRAVEL,m,,,,,,-0.042592593,-0.281481481,0,0,0,,0,262,262,33,1,
,,,,,,,,,,,,,,,,,,5efe309bf2f94230dc588d40,2020-08-10_16h22.58.631,lexical_decision_task_MP,2020.1.3,Win32,60,,m,1,0.451775,,,,,,,,0.451775,1,,,,,,62,WORD,"ID",33,region,REGION,m,,,,,,-0.042592593,-0.281481481,0,0,0,,0,263,263,1,1,
,,,,,,,,,,,,,,,,,,5efe309bf2f94230dc588d40,2020-08-10_16h22.58.631,lexical_decision_task_MP,2020.1.3,Win32,60,,m,1,0.6117,,,,,,,,0.6117,1,,,,,,77,WORD,"ID",33,racket,RACKET,m,,,,,,-0.042592593,-0.281481481,0,0,0,,0,264,264,16,1,
,,,,,,,,,,,,,,,,,,5efe309bf2f94230dc588d40,2020-08-10_16h22.58.631,lexical_decision_task_MP,2020.1.3,Win32,60,,m,0,0.61053,,,,,,,,0.61053,0,,,,,,452,NW,UN,33,bolvis,SURDEN,z,,,,,,-0.042592593,-0.281481481,0,0,0,,0,265,265,391,1,
,,,,,,,,,,,,,,,,,,5efe309bf2f94230dc588d40,2020-08-10_16h22.58.631,lexical_decision_task_MP,2020.1.3,Win32,60,,z,1,0.533685,,,,,,,,0.533685,1,,,,,,292,NW,UN,50,swance,ABLINT,z,,,,,,-0.042592593,-0.281481481,0,0,0,,0,266,266,471,1,
,,,,,,,,,,,,,,,,,,5efe309bf2f94230dc588d40,2020-08-10_16h22.58.631,lexical_decision_task_MP,2020.1.3,Win32,60,,m,1,0.643845,,,,,,,,0.643845,1,,,,,,33,WORD,UN,50,jungle,BUTLER,m,,,,,,-0.042592593,-0.281481481,0,0,0,,0,267,267,212,1,
,,,,,,,,,,,,,,,,,,5efe309bf2f94230dc588d40,2020-08-10_16h22.58.631,lexical_decision_task_MP,2020.1.3,Win32,60,,m,1,0.80001,,,,,,,,0.80001,1,,,,,,107,WORD,"ID",33,slogan,SLOGAN,m,,,,,,-0.042592593,-0.281481481,0,0,0,,0,268,268,46,1,
,,,,,,,,,,,,,,,,,,5efe309bf2f94230dc588d40,2020-08-10_16h22.58.631,lexical_decision_task_MP,2020.1.3,Win32,60,,m,1,0.478995,,,,,,,,0.478995,1,,,,,,38,WORD,UN,50,insect,POWDER,m,,,,,,-0.042592593,-0.281481481,0,0,0,,0,269,269,217,1,
,,,,,,,,,,,,,,,,,,5efe309bf2f94230dc588d40,2020-08-10_16h22.58.631,lexical_decision_task_MP,2020.1.3,Win32,60,,z,1,0.809155,,,,,,,,0.809155,1,,,,,,445,NW,UN,33,runamo,MINKEL,z,,,,,,-0.042592593,-0.281481481,0,0,0,,0,270,270,384,1,
,,,,,,,,,,,,,,,,,,5efe309bf2f94230dc588d40,2020-08-10_16h22.58.631,lexical_decision_task_MP,2020.1.3,Win32,60,,m,1,0.49728,,,,,,,,0.49728,1,,,,,,28,WORD,UN,50,sketch,COMEDY,m,,,,,,-0.042592593,-0.281481481,0,0,0,,0,271,271,207,1,
,,,,,,,,,,,,,,,,,,5efe309bf2f94230dc588d40,2020-08-10_16h22.58.631,lexical_decision_task_MP,2020.1.3,Win32,60,,z,1,0.69448,,,,,,,,0.69448,1,,,,,,455,NW,UN,33,broget,TONDLE,z,,,,,,-0.042592593,-0.281481481,0,0,0,,0,272,272,394,1,
,,,,,,,,,,,,,,,,,,5efe309bf2f94230dc588d40,2020-08-10_16h22.58.631,lexical_decision_task_MP,2020.1.3,Win32,60,,m,1,0.527,,,,,,,,0.527,1,,,,,,6,WORD,UN,50,anchor,BUNDLE,m,,,,,,-0.042592593,-0.281481481,0,0,0,,0,273,273,185,1,
,,,,,,,,,,,,,,,,,,5efe309bf2f94230dc588d40,2020-08-10_16h22.58.631,lexical_decision_task_MP,2020.1.3,Win32,60,,z,1,0.43634,,,,,,,,0.43634,1,,,,,,265,NW,UN,50,varmit,DISTAR,z,,,,,,-0.042592593,-0.281481481,0,0,0,,0,274,274,444,1,
,,,,,,,,,,,,,,,,,,5efe309bf2f94230dc588d40,2020-08-10_16h22.58.631,lexical_decision_task_MP,2020.1.3,Win32,60,,z,1,0.76086,,,,,,,,0.76086,1,,,,,,423,NW,UN,33,praile,STRELD,z,,,,,,-0.042592593,-0.281481481,0,0,0,,0,275,275,362,1,
,,,,,,,,,,,,,,,,,,5efe309bf2f94230dc588d40,2020-08-10_16h22.58.631,lexical_decision_task_MP,2020.1.3,Win32,60,,m,1,0.537045,,,,,,,,0.537045,1,,,,,,174,WORD,"ID",50,turkey,TURKEY,m,,,,,,-0.042592593,-0.281481481,0,0,0,,0,276,276,113,1,
,,,,,,,,,,,,,,,,,,5efe309bf2f94230dc588d40,2020-08-10_16h22.58.631,lexical_decision_task_MP,2020.1.3,Win32,60,,m,1,0.59602,,,,,,,,0.59602,1,,,,,,209,WORD,UN,33,monkey,SEARCH,m,,,,,,-0.042592593,-0.281481481,0,0,0,,0,277,277,148,1,
,,,,,,,,,,,,,,,,,,5efe309bf2f94230dc588d40,2020-08-10_16h22.58.631,lexical_decision_task_MP,2020.1.3,Win32,60,,m,1,0.47357,,,,,,,,0.47357,1,,,,,,117,WORD,"ID",33,branch,BRANCH,m,,,,,,-0.042592593,-0.281481481,0,0,0,,0,278,278,56,1,
,,,,,,,,,,,,,,,,,,5efe309bf2f94230dc588d40,2020-08-10_16h22.58.631,lexical_decision_task_MP,2020.1.3,Win32,60,,m,1,0.515665,,,,,,,,0.515665,1,,,,,,202,WORD,UN,33,phrase,FACTOR,m,,,,,,-0.042592593,-0.281481481,0,0,0,,0,279,279,141,1,
,,,,,,,,,,,,,,,,,,5efe309bf2f94230dc588d40,2020-08-10_16h22.58.631,lexical_decision_task_MP,2020.1.3,Win32,60,,m,1,0.571815,,,,,,,,0.571815,1,,,,,,63,WORD,"ID",33,launch,LAUNCH,m,,,,,,-0.042592593,-0.281481481,0,0,0,,0,280,280,2,1,
,,,,,,,,,,,,,,,,,,5efe309bf2f94230dc588d40,2020-08-10_16h22.58.631,lexical_decision_task_MP,2020.1.3,Win32,60,,z,1,0.86136,,,,,,,,0.86136,1,,,,,,472,NW,UN,33,gorbie,CIGNEY,z,,,,,,-0.042592593,-0.281481481,0,0,0,,0,281,281,411,1,
,,,,,,,,,,,,,,,,,,5efe309bf2f94230dc588d40,2020-08-10_16h22.58.631,lexical_decision_task_MP,2020.1.3,Win32,60,,m,0,0.926215,,,,,,,,0.926215,0,,,,,,416,NW,"ID",50,pathel,PATHEL,z,,,,,,-0.042592593,-0.281481481,0,0,0,,0,282,282,355,1,
,,,,,,,,,,,,,,,,,,5efe309bf2f94230dc588d40,2020-08-10_16h22.58.631,lexical_decision_task_MP,2020.1.3,Win32,60,,z,1,0.95757,,,,,,,,0.95757,1,,,,,,336,NW,"ID",33,ghodus,GHODUS,z,,,,,,-0.042592593,-0.281481481,0,0,0,,0,283,283,275,1,
,,,,,,,,,,,,,,,,,,5efe309bf2f94230dc588d40,2020-08-10_16h22.58.631,lexical_decision_task_MP,2020.1.3,Win32,60,,m,1,0.5898,,,,,,,,0.5898,1,,,,,,58,WORD,UN,50,splint,FOSTER,m,,,,,,-0.042592593,-0.281481481,0,0,0,,0,284,284,237,1,
,,,,,,,,,,,,,,,,,,5efe309bf2f94230dc588d40,2020-08-10_16h22.58.631,lexical_decision_task_MP,2020.1.3,Win32,60,,z,1,0.551605,,,,,,,,0.551605,1,,,,,,310,NW,"ID",33,daniet,DANIET,z,,,,,,-0.042592593,-0.281481481,0,0,0,,0,285,285,249,1,
,,,,,,,,,,,,,,,,,,5efe309bf2f94230dc588d40,2020-08-10_16h22.58.631,lexical_decision_task_MP,2020.1.3,Win32,60,,z,1,0.677925,,,,,,,,0.677925,1,,,,,,436,NW,UN,33,snapel,FRUTAN,z,,,,,,-0.042592593,-0.281481481,0,0,0,,0,286,286,375,1,
,,,,,,,,,,,,,,,,,,5efe309bf2f94230dc588d40,2020-08-10_16h22.58.631,lexical_decision_task_MP,2020.1.3,Win32,60,,m,1,0.48992,,,,,,,,0.48992,1,,,,,,170,WORD,"ID",50,pounce,POUNCE,m,,,,,,-0.042592593,-0.281481481,0,0,0,,0,287,287,109,1,
,,,,,,,,,,,,,,,,,,5efe309bf2f94230dc588d40,2020-08-10_16h22.58.631,lexical_decision_task_MP,2020.1.3,Win32,60,,m,1,0.46221,,,,,,,,0.46221,1,,,,,,72,WORD,"ID",33,bright,BRIGHT,m,,,,,,-0.042592593,-0.281481481,0,0,0,,0,288,288,11,1,
,,,,,,,,,,,,,,,,,,5efe309bf2f94230dc588d40,2020-08-10_16h22.58.631,lexical_decision_task_MP,2020.1.3,Win32,60,,m,0,0.401165,,,,,,,,0.401165,0,,,,,,286,NW,UN,50,nymbel,RELDON,z,,,,,,-0.042592593,-0.281481481,0,0,0,,0,289,289,465,1,
,,,,,,,,,,,,,,,,,,5efe309bf2f94230dc588d40,2020-08-10_16h22.58.631,lexical_decision_task_MP,2020.1.3,Win32,60,,m,1,0.90906,,,,,,,,0.90906,1,,,,,,99,WORD,"ID",33,fluent,FLUENT,m,,,,,,-0.042592593,-0.281481481,0,0,0,,0,290,290,38,1,
,,,,,,,,,,,,,,,,,,5efe309bf2f94230dc588d40,2020-08-10_16h22.58.631,lexical_decision_task_MP,2020.1.3,Win32,60,,z,1,0.675835,,,,,,,,0.675835,1,,,,,,332,NW,"ID",33,vangue,VANGUE,z,,,,,,-0.042592593,-0.281481481,0,0,0,,0,291,291,271,1,
,,,,,,,,,,,,,,,,,,5efe309bf2f94230dc588d40,2020-08-10_16h22.58.631,lexical_decision_task_MP,2020.1.3,Win32,60,,z,1,0.824165,,,,,,,,0.824165,1,,,,,,381,NW,"ID",50,huniek,HUNIEK,z,,,,,,-0.042592593,-0.281481481,0,0,0,,0,292,292,320,1,
,,,,,,,,,,,,,,,,,,5efe309bf2f94230dc588d40,2020-08-10_16h22.58.631,lexical_decision_task_MP,2020.1.3,Win32,60,,m,1,0.791245,,,,,,,,0.791245,1,,,,,,211,WORD,UN,33,verify,INFECT,m,,,,,,-0.042592593,-0.281481481,0,0,0,,0,293,293,150,1,
,,,,,,,,,,,,,,,,,,5efe309bf2f94230dc588d40,2020-08-10_16h22.58.631,lexical_decision_task_MP,2020.1.3,Win32,60,,z,1,0.70787,,,,,,,,0.70787,1,,,,,,369,NW,"ID",50,wronch,WRONCH,z,,,,,,-0.042592593,-0.281481481,0,0,0,,0,294,294,308,1,
,,,,,,,,,,,,,,,,,,5efe309bf2f94230dc588d40,2020-08-10_16h22.58.631,lexical_decision_task_MP,2020.1.3,Win32,60,,z,1,0.786625,,,,,,,,0.786625,1,,,,,,333,NW,"ID",33,catrie,CATRIE,z,,,,,,-0.042592593,-0.281481481,0,0,0,,0,295,295,272,1,
,,,,,,,,,,,,,,,,,,5efe309bf2f94230dc588d40,2020-08-10_16h22.58.631,lexical_decision_task_MP,2020.1.3,Win32,60,,z,1,0.46333,,,,,,,,0.46333,1,,,,,,404,NW,"ID",50,cluirm,CLUIRM,z,,,,,,-0.042592593,-0.281481481,0,0,0,,0,296,296,343,1,
,,,,,,,,,,,,,,,,,,5efe309bf2f94230dc588d40,2020-08-10_16h22.58.631,lexical_decision_task_MP,2020.1.3,Win32,60,,m,1,0.602265,,,,,,,,0.602265,1,,,,,,1,WORD,UN,50,ethnic,FRIGHT,m,,,,,,-0.042592593,-0.281481481,0,0,0,,0,297,297,180,1,
,,,,,,,,,,,,,,,,,,5efe309bf2f94230dc588d40,2020-08-10_16h22.58.631,lexical_decision_task_MP,2020.1.3,Win32,60,,m,1,0.495155,,,,,,,,0.495155,1,,,,,,118,WORD,"ID",33,flight,FLIGHT,m,,,,,,-0.042592593,-0.281481481,0,0,0,,0,298,298,57,1,
,,,,,,,,,,,,,,,,,,5efe309bf2f94230dc588d40,2020-08-10_16h22.58.631,lexical_decision_task_MP,2020.1.3,Win32,60,,z,1,1.583655,,,,,,,,1.583655,1,,,,,,297,NW,UN,50,piergy,FERTIC,z,,,,,,-0.042592593,-0.281481481,0,0,0,,0,299,299,476,1,
,,,,,,,,,,,,,,,,,,5efe309bf2f94230dc588d40,2020-08-10_16h22.58.631,lexical_decision_task_MP,2020.1.3,Win32,60,,z,1,0.82926,,,,,,,,0.82926,1,,,,,,270,NW,UN,50,aubrid,WRIMSY,z,,,,,,-0.042592593,-0.281481481,0,0,0,,0,300,300,449,1,
,,,,,,,,,,,,,,,,,,5efe309bf2f94230dc588d40,2020-08-10_16h22.58.631,lexical_decision_task_MP,2020.1.3,Win32,60,,z,1,0.61357,,,,,,,,0.61357,1,,,,,,341,NW,"ID",33,myrtie,MYRTIE,z,,,,,,-0.042592593,-0.281481481,0,0,0,,0,301,301,280,1,
,,,,,,,,,,,,,,,,,,5efe309bf2f94230dc588d40,2020-08-10_16h22.58.631,lexical_decision_task_MP,2020.1.3,Win32,60,,m,1,0.5029,,,,,,,,0.5029,1,,,,,,129,WORD,"ID",50,marvel,MARVEL,m,,,,,,-0.042592593,-0.281481481,0,0,0,,0,302,302,68,1,
,,,,,,,,,,,,,,,,,,5efe309bf2f94230dc588d40,2020-08-10_16h22.58.631,lexical_decision_task_MP,2020.1.3,Win32,60,,m,1,0.60595,,,,,,,,0.60595,1,,,,,,240,WORD,UN,33,seldom,FOREST,m,,,,,,-0.042592593,-0.281481481,0,0,0,,0,303,303,179,1,
,,,,,,,,,,,,,,,,,,5efe309bf2f94230dc588d40,2020-08-10_16h22.58.631,lexical_decision_task_MP,2020.1.3,Win32,60,,m,1,0.583815,,,,,,,,0.583815,1,,,,,,18,WORD,UN,50,patron,HUMBLE,m,,,,,,-0.042592593,-0.281481481,0,0,0,,0,304,304,197,1,
,,,,,,,,,,,,,,,,,,5efe309bf2f94230dc588d40,2020-08-10_16h22.58.631,lexical_decision_task_MP,2020.1.3,Win32,60,,z,1,0.930485,,,,,,,,0.930485,1,,,,,,330,NW,"ID",33,kensom,KENSOM,z,,,,,,-0.042592593,-0.281481481,0,0,0,,0,305,305,269,1,
,,,,,,,,,,,,,,,,,,5efe309bf2f94230dc588d40,2020-08-10_16h22.58.631,lexical_decision_task_MP,2020.1.3,Win32,60,,z,1,0.677145,,,,,,,,0.677145,1,,,,,,370,NW,"ID",50,sleact,SLEACT,z,,,,,,-0.042592593,-0.281481481,0,0,0,,0,306,306,309,1,
,,,,,,,,,,,,,,,,,,5efe309bf2f94230dc588d40,2020-08-10_16h22.58.631,lexical_decision_task_MP,2020.1.3,Win32,60,,m,1,0.453335,,,,,,,,0.453335,1,,,,,,182,WORD,UN,33,absent,WINTER,m,,,,,,-0.042592593,-0.281481481,0,0,0,,0,307,307,121,1,
,,,,,,,,,,,,,,,,,,5efe309bf2f94230dc588d40,2020-08-10_16h22.58.631,lexical_decision_task_MP,2020.1.3,Win32,60,,m,1,0.72033,,,,,,,,0.72033,1,,,,,,155,WORD,"ID",50,lizard,LIZARD,m,,,,,,-0.042592593,-0.281481481,0,0,0,,0,308,308,94,1,
,,,,,,,,,,,,,,,,,,5efe309bf2f94230dc588d40,2020-08-10_16h22.58.631,lexical_decision_task_MP,2020.1.3,Win32,60,,z,1,0.807285,,,,,,,,0.807285,1,,,,,,479,NW,UN,33,crible,LOBUSH,z,,,,,,-0.042592593,-0.281481481,0,0,0,,0,309,309,418,1,
,,,,,,,,,,,,,,,,,,5efe309bf2f94230dc588d40,2020-08-10_16h22.58.631,lexical_decision_task_MP,2020.1.3,Win32,60,,m,1,0.46357,,,,,,,,0.46357,1,,,,,,123,WORD,"ID",50,strike,STRIKE,m,,,,,,-0.042592593,-0.281481481,0,0,0,,0,310,310,62,1,
,,,,,,,,,,,,,,,,,,5efe309bf2f94230dc588d40,2020-08-10_16h22.58.631,lexical_decision_task_MP,2020.1.3,Win32,60,,m,1,0.506605,,,,,,,,0.506605,1,,,,,,48,WORD,UN,50,survey,WALNUT,m,,,,,,-0.042592593,-0.281481481,0,0,0,,0,311,311,227,1,
,,,,,,,,,,,,,,,,,,5efe309bf2f94230dc588d40,2020-08-10_16h22.58.631,lexical_decision_task_MP,2020.1.3,Win32,60,,m,0,0.48261,,,,,,,,0.48261,0,,,,,,348,NW,"ID",33,dumple,DUMPLE,z,,,,,,-0.042592593,-0.281481481,0,0,0,,0,312,312,287,1,
,,,,,,,,,,,,,,,,,,5efe309bf2f94230dc588d40,2020-08-10_16h22.58.631,lexical_decision_task_MP,2020.1.3,Win32,60,,m,0,1.84552,,,,,,,,1.84552,0,,,,,,440,NW,UN,33,rastoe,SARIDE,z,,,,,,-0.042592593,-0.281481481,0,0,0,,0,313,313,379,1,
,,,,,,,,,,,,,,,,,,5efe309bf2f94230dc588d40,2020-08-10_16h22.58.631,lexical_decision_task_MP,2020.1.3,Win32,60,,m,1,0.65931,,,,,,,,0.65931,1,,,,,,11,WORD,UN,50,amount,CRUISE,m,,,,,,-0.042592593,-0.281481481,0,0,0,,0,314,314,190,1,
,,,,,,,,,,,,,,,,,,5efe309bf2f94230dc588d40,2020-08-10_16h22.58.631,lexical_decision_task_MP,2020.1.3,Win32,60,,z,1,0.82564,,,,,,,,0.82564,1,,,,,,337,NW,"ID",33,rejols,REJOLS,z,,,,,,-0.042592593,-0.281481481,0,0,0,,0,315,315,276,1,
,,,,,,,,,,,,,,,,,,5efe309bf2f94230dc588d40,2020-08-10_16h22.58.631,lexical_decision_task_MP,2020.1.3,Win32,60,,z,1,1.233165,,,,,,,,1.233165,1,,,,,,338,NW,"ID",33,wreash,WREASH,z,,,,,,-0.042592593,-0.281481481,0,0,0,,0,316,316,277,1,
,,,,,,,,,,,,,,,,,,5efe309bf2f94230dc588d40,2020-08-10_16h22.58.631,lexical_decision_task_MP,2020.1.3,Win32,60,,m,1,0.473075,,,,,,,,0.473075,1,,,,,,130,WORD,"ID",50,stupid,STUPID,m,,,,,,-0.042592593,-0.281481481,0,0,0,,0,317,317,69,1,
,,,,,,,,,,,,,,,,,,5efe309bf2f94230dc588d40,2020-08-10_16h22.58.631,lexical_decision_task_MP,2020.1.3,Win32,60,,z,1,0.77083,,,,,,,,0.77083,1,,,,,,320,NW,"ID",33,jockal,JOCKAL,z,,,,,,-0.042592593,-0.281481481,0,0,0,,0,318,318,259,1,
,,,,,,,,,,,,,,,,,,5efe309bf2f94230dc588d40,2020-08-10_16h22.58.631,lexical_decision_task_MP,2020.1.3,Win32,60,,m,1,0.56496,,,,,,,,0.56496,1,,,,,,55,WORD,UN,50,ambush,STROKE,m,,,,,,-0.042592593,-0.281481481,0,0,0,,0,319,319,234,1,
,,,,,,,,,,,,,,,,,,5efe309bf2f94230dc588d40,2020-08-10_16h22.58.631,lexical_decision_task_MP,2020.1.3,Win32,60,,z,0,0.88597,,,,,,,,0.88597,0,,,,,,184,WORD,UN,33,bother,SLEAZY,m,,,,,,-0.042592593,-0.281481481,0,0,0,,0,320,320,123,1,
,,,,,,,,,,,,,,,,,,5efe309bf2f94230dc588d40,2020-08-10_16h22.58.631,lexical_decision_task_MP,2020.1.3,Win32,60,,z,1,1.0643,,,,,,,,1.0643,1,,,,,,254,NW,UN,50,apight,VAROSH,z,,,,,,-0.042592593,-0.281481481,0,0,0,,0,321,321,433,1,
,,,,,,,,,,,,,,,,,,5efe309bf2f94230dc588d40,2020-08-10_16h22.58.631,lexical_decision_task_MP,2020.1.3,Win32,60,,z,1,1.19184,,,,,,,,1.19184,1,,,,,,373,NW,"ID",50,bigent,BIGENT,z,,,,,,-0.042592593,-0.281481481,0,0,0,,0,322,322,312,1,
,,,,,,,,,,,,,,,,,,5efe309bf2f94230dc588d40,2020-08-10_16h22.58.631,lexical_decision_task_MP,2020.1.3,Win32,60,,z,1,1.85496,,,,,,,,1.85496,1,,,,,,475,NW,UN,33,josted,PEBRIC,z,,,,,,-0.042592593,-0.281481481,0,0,0,,0,323,323,414,1,
,,,,,,,,,,,,,,,,,,5efe309bf2f94230dc588d40,2020-08-10_16h22.58.631,lexical_decision_task_MP,2020.1.3,Win32,60,,m,1,0.589755,,,,,,,,0.589755,1,,,,,,10,WORD,UN,50,cruise,ETHNIC,m,,,,,,-0.042592593,-0.281481481,0,0,0,,0,324,324,189,1,
,,,,,,,,,,,,,,,,,,5efe309bf2f94230dc588d40,2020-08-10_16h22.58.631,lexical_decision_task_MP,2020.1.3,Win32,60,,m,1,0.881955,,,,,,,,0.881955,1,,,,,,86,WORD,"ID",33,rodent,RODENT,m,,,,,,-0.042592593,-0.281481481,0,0,0,,0,325,325,25,1,
,,,,,,,,,,,,,,,,,,5efe309bf2f94230dc588d40,2020-08-10_16h22.58.631,lexical_decision_task_MP,2020.1.3,Win32,60,,m,1,0.63408,,,,,,,,0.63408,1,,,,,,226,WORD,UN,33,flower,CASINO,m,,,,,,-0.042592593,-0.281481481,0,0,0,,0,326,326,165,1,
,,,,,,,,,,,,,,,,,,5efe309bf2f94230dc588d40,2020-08-10_16h22.58.631,lexical_decision_task_MP,2020.1.3,Win32,60,,m,1,0.88717,,,,,,,,0.88717,1,,,,,,147,WORD,"ID",50,garlic,GARLIC,m,,,,,,-0.042592593,-0.281481481,0,0,0,,0,327,327,86,1,
,,,,,,,,,,,,,,,,,,5efe309bf2f94230dc588d40,2020-08-10_16h22.58.631,lexical_decision_task_MP,2020.1.3,Win32,60,,m,1,0.96091,,,,,,,,0.96091,1,,,,,,183,WORD,UN,33,sleazy,MILDEW,m,,,,,,-0.042592593,-0.281481481,0,0,0,,0,328,328,122,1,
,,,,,,,,,,,,,,,,,,5efe309bf2f94230dc588d40,2020-08-10_16h22.58.631,lexical_decision_task_MP,2020.1.3,Win32,60,,m,1,0.860855,,,,,,,,0.860855,1,,,,,,68,WORD,"ID",33,fumble,FUMBLE,m,,,,,,-0.042592593,-0.281481481,0,0,0,,0,329,329,7,1,
,,,,,,,,,,,,,,,,,,5efe309bf2f94230dc588d40,2020-08-10_16h22.58.631,lexical_decision_task_MP,2020.1.3,Win32,60,,m,1,0.60535,,,,,,,,0.60535,1,,,,,,149,WORD,"ID",50,invade,INVADE,m,,,,,,-0.042592593,-0.281481481,0,0,0,,0,330,330,88,1,
,,,,,,,,,,,,,,,,,,5efe309bf2f94230dc588d40,2020-08-10_16h22.58.631,lexical_decision_task_MP,2020.1.3,Win32,60,,m,1,0.724185,,,,,,,,0.724185,1,,,,,,73,WORD,"ID",33,source,SOURCE,m,,,,,,-0.042592593,-0.281481481,0,0,0,,0,331,331,12,1,
,,,,,,,,,,,,,,,,,,5efe309bf2f94230dc588d40,2020-08-10_16h22.58.631,lexical_decision_task_MP,2020.1.3,Win32,60,,m,1,0.77149,,,,,,,,0.77149,1,,,,,,212,WORD,UN,33,squeal,VERIFY,m,,,,,,-0.042592593,-0.281481481,0,0,0,,0,332,332,151,1,
,,,,,,,,,,,,,,,,,,5efe309bf2f94230dc588d40,2020-08-10_16h22.58.631,lexical_decision_task_MP,2020.1.3,Win32,60,,m,1,0.565655,,,,,,,,0.565655,1,,,,,,165,WORD,"ID",50,invest,INVEST,m,,,,,,-0.042592593,-0.281481481,0,0,0,,0,333,333,104,1,
,,,,,,,,,,,,,,,,,,5efe309bf2f94230dc588d40,2020-08-10_16h22.58.631,lexical_decision_task_MP,2020.1.3,Win32,60,,z,1,0.681055,,,,,,,,0.681055,1,,,,,,386,NW,"ID",50,ancust,ANCUST,z,,,,,,-0.042592593,-0.281481481,0,0,0,,0,334,334,325,1,
,,,,,,,,,,,,,,,,,,5efe309bf2f94230dc588d40,2020-08-10_16h22.58.631,lexical_decision_task_MP,2020.1.3,Win32,60,,z,1,1.15926,,,,,,,,1.15926,1,,,,,,389,NW,"ID",50,witmer,WITMER,z,,,,,,-0.042592593,-0.281481481,0,0,0,,0,335,335,328,1,
,,,,,,,,,,,,,,,,,,5efe309bf2f94230dc588d40,2020-08-10_16h22.58.631,lexical_decision_task_MP,2020.1.3,Win32,60,,z,1,0.57171,,,,,,,,0.57171,1,,,,,,259,NW,UN,50,unject,SOUDAL,z,,,,,,-0.042592593,-0.281481481,0,0,0,,0,336,336,438,1,
,,,,,,,,,,,,,,,,,,5efe309bf2f94230dc588d40,2020-08-10_16h22.58.631,lexical_decision_task_MP,2020.1.3,Win32,60,,m,1,0.527785,,,,,,,,0.527785,1,,,,,,137,WORD,"ID",50,finger,FINGER,m,,,,,,-0.042592593,-0.281481481,0,0,0,,0,337,337,76,1,
,,,,,,,,,,,,,,,,,,5efe309bf2f94230dc588d40,2020-08-10_16h22.58.631,lexical_decision_task_MP,2020.1.3,Win32,60,,z,1,0.539925,,,,,,,,0.539925,1,,,,,,417,NW,"ID",50,earoud,EAROUD,z,,,,,,-0.042592593,-0.281481481,0,0,0,,0,338,338,356,1,
,,,,,,,,,,,,,,,,,,5efe309bf2f94230dc588d40,2020-08-10_16h22.58.631,lexical_decision_task_MP,2020.1.3,Win32,60,,z,1,0.58585,,,,,,,,0.58585,1,,,,,,329,NW,"ID",33,yarike,YARIKE,z,,,,,,-0.042592593,-0.281481481,0,0,0,,0,339,339,268,1,
,,,,,,,,,,,,,,,,,,5efe309bf2f94230dc588d40,2020-08-10_16h22.58.631,lexical_decision_task_MP,2020.1.3,Win32,60,,z,1,0.7581,,,,,,,,0.7581,1,,,,,,462,NW,UN,33,kispel,ABSULT,z,,,,,,-0.042592593,-0.281481481,0,0,0,,0,340,340,401,1,
,,,,,,,,,,,,,,,,,,5efe309bf2f94230dc588d40,2020-08-10_16h22.58.631,lexical_decision_task_MP,2020.1.3,Win32,60,,z,1,0.65449,,,,,,,,0.65449,1,,,,,,394,NW,"ID",50,spaqux,SPAQUX,z,,,,,,-0.042592593,-0.281481481,0,0,0,,0,341,341,333,1,
,,,,,,,,,,,,,,,,,,5efe309bf2f94230dc588d40,2020-08-10_16h22.58.631,lexical_decision_task_MP,2020.1.3,Win32,60,,z,1,0.487655,,,,,,,,0.487655,1,,,,,,431,NW,UN,33,lunker,CHRUMS,z,,,,,,-0.042592593,-0.281481481,0,0,0,,0,342,342,370,1,
,,,,,,,,,,,,,,,,,,5efe309bf2f94230dc588d40,2020-08-10_16h22.58.631,lexical_decision_task_MP,2020.1.3,Win32,60,,m,1,0.560505,,,,,,,,0.560505,1,,,,,,116,WORD,"ID",33,tumble,TUMBLE,m,,,,,,-0.042592593,-0.281481481,0,0,0,,0,343,343,55,1,
,,,,,,,,,,,,,,,,,,5efe309bf2f94230dc588d40,2020-08-10_16h22.58.631,lexical_decision_task_MP,2020.1.3,Win32,60,,z,1,0.66438,,,,,,,,0.66438,1,,,,,,421,NW,UN,33,alcoud,KNISMA,z,,,,,,-0.042592593,-0.281481481,0,0,0,,0,344,344,360,1,
,,,,,,,,,,,,,,,,,,5efe309bf2f94230dc588d40,2020-08-10_16h22.58.631,lexical_decision_task_MP,2020.1.3,Win32,60,,z,1,0.58336,,,,,,,,0.58336,1,,,,,,437,NW,UN,33,baitch,SNAPEL,z,,,,,,-0.042592593,-0.281481481,0,0,0,,0,345,345,376,1,
,,,,,,,,,,,,,,,,,,5efe309bf2f94230dc588d40,2020-08-10_16h22.58.631,lexical_decision_task_MP,2020.1.3,Win32,60,,z,1,0.805515,,,,,,,,0.805515,1,,,,,,262,NW,UN,50,dolica,QUILEW,z,,,,,,-0.042592593,-0.281481481,0,0,0,,0,346,346,441,1,
,,,,,,,,,,,,,,,,,,5efe309bf2f94230dc588d40,2020-08-10_16h22.58.631,lexical_decision_task_MP,2020.1.3,Win32,60,,z,1,0.795155,,,,,,,,0.795155,1,,,,,,313,NW,"ID",33,paurse,PAURSE,z,,,,,,-0.042592593,-0.281481481,0,0,0,,0,347,347,252,1,
,,,,,,,,,,,,,,,,,,5efe309bf2f94230dc588d40,2020-08-10_16h22.58.631,lexical_decision_task_MP,2020.1.3,Win32,60,,m,0,0.81293,,,,,,,,0.81293,0,,,,,,314,NW,"ID",33,sprine,SPRINE,z,,,,,,-0.042592593,-0.281481481,0,0,0,,0,348,348,253,1,
,,,,,,,,,,,,,,,,,,5efe309bf2f94230dc588d40,2020-08-10_16h22.58.631,lexical_decision_task_MP,2020.1.3,Win32,60,,m,1,0.654955,,,,,,,,0.654955,1,,,,,,50,WORD,UN,50,hungry,SNATCH,m,,,,,,-0.042592593,-0.281481481,0,0,0,,0,349,349,229,1,
,,,,,,,,,,,,,,,,,,5efe309bf2f94230dc588d40,2020-08-10_16h22.58.631,lexical_decision_task_MP,2020.1.3,Win32,60,,m,1,0.5481,,,,,,,,0.5481,1,,,,,,238,WORD,UN,33,behalf,FLOWER,m,,,,,,-0.042592593,-0.281481481,0,0,0,,0,350,350,177,1,
,,,,,,,,,,,,,,,,,,5efe309bf2f94230dc588d40,2020-08-10_16h22.58.631,lexical_decision_task_MP,2020.1.3,Win32,60,,m,0,0.58579,,,,,,,,0.58579,0,,,,,,352,NW,"ID",33,tringe,TRINGE,z,,,,,,-0.042592593,-0.281481481,0,0,0,,0,351,351,291,1,
,,,,,,,,,,,,,,,,,,5efe309bf2f94230dc588d40,2020-08-10_16h22.58.631,lexical_decision_task_MP,2020.1.3,Win32,60,,z,1,0.49287,,,,,,,,0.49287,1,,,,,,444,NW,UN,33,minkel,JAUNCE,z,,,,,,-0.042592593,-0.281481481,0,0,0,,0,352,352,383,1,
,,,,,,,,,,,,,,,,,,5efe309bf2f94230dc588d40,2020-08-10_16h22.58.631,lexical_decision_task_MP,2020.1.3,Win32,60,,m,0,0.540955,,,,,,,,0.540955,0,,,,,,374,NW,"ID",50,sliant,SLIANT,z,,,,,,-0.042592593,-0.281481481,0,0,0,,0,353,353,313,1,
,,,,,,,,,,,,,,,,,,5efe309bf2f94230dc588d40,2020-08-10_16h22.58.631,lexical_decision_task_MP,2020.1.3,Win32,60,,m,1,0.5458,,,,,,,,0.5458,1,,,,,,100,WORD,"ID",33,carbon,CARBON,m,,,,,,-0.042592593,-0.281481481,0,0,0,,0,354,354,39,1,
,,,,,,,,,,,,,,,,,,5efe309bf2f94230dc588d40,2020-08-10_16h22.58.631,lexical_decision_task_MP,2020.1.3,Win32,60,,m,1,0.58318,,,,,,,,0.58318,1,,,,,,75,WORD,"ID",33,trophy,TROPHY,m,,,,,,-0.042592593,-0.281481481,0,0,0,,0,355,355,14,1,
,,,,,,,,,,,,,,,,,,5efe309bf2f94230dc588d40,2020-08-10_16h22.58.631,lexical_decision_task_MP,2020.1.3,Win32,60,,m,1,0.46802,,,,,,,,0.46802,1,,,,,,14,WORD,UN,50,orange,ALMOST,m,,,,,,-0.042592593,-0.281481481,0,0,0,,0,356,356,193,1,
,,,,,,,,,,,,,,,,,,5efe309bf2f94230dc588d40,2020-08-10_16h22.58.631,lexical_decision_task_MP,2020.1.3,Win32,60,,m,1,0.57319,,,,,,,,0.57319,1,,,,,,97,WORD,"ID",33,client,CLIENT,m,,,,,,-0.042592593,-0.281481481,0,0,0,,0,357,357,36,1,
,,,,,,,,,,,,,,,,,,5efe309bf2f94230dc588d40,2020-08-10_16h22.58.631,lexical_decision_task_MP,2020.1.3,Win32,60,,z,1,0.601485,,,,,,,,0.601485,1,,,,,,280,NW,UN,50,melaty,CURBOL,z,,,,,,-0.042592593,-0.281481481,0,0,0,,0,358,358,459,1,
,,,,,,,,,,,,,,,,,,5efe309bf2f94230dc588d40,2020-08-10_16h22.58.631,lexical_decision_task_MP,2020.1.3,Win32,60,,z,0,0.535955,,,,,,,,0.535955,0,,,,,,113,WORD,"ID",33,chorus,CHORUS,m,,,,,,-0.042592593,-0.281481481,0,0,0,,0,359,359,52,1,
,,,,,,,,,,,,,,,,,,5efe309bf2f94230dc588d40,2020-08-10_16h22.58.631,lexical_decision_task_MP,2020.1.3,Win32,60,,z,1,0.790185,,,,,,,,0.790185,1,,,,,,415,NW,"ID",50,higsta,HIGSTA,z,,,,,,-0.042592593,-0.281481481,0,0,0,,0,360,360,354,1,
,,,,,,,,,,,,,,,,,,5efe309bf2f94230dc588d40,2020-08-10_16h22.58.631,lexical_decision_task_MP,2020.1.3,Win32,60,,m,1,0.484065,,,,,,,,0.484065,1,,,,,,23,WORD,UN,50,praise,WEALTH,m,,,,,,-0.042592593,-0.281481481,0,0,0,,0,361,361,202,1,
,,,,,,,,,,,,,,,,,,5efe309bf2f94230dc588d40,2020-08-10_16h22.58.631,lexical_decision_task_MP,2020.1.3,Win32,60,,m,0,0.503955,,,,,,,,0.503955,0,,,,,,430,NW,UN,33,chrums,CAROEY,z,,,,,,-0.042592593,-0.281481481,0,0,0,space,0,362,362,369,1,0.915505
,,,,,,,,,,,,,,,,,,5efe309bf2f94230dc588d40,2020-08-10_16h22.58.631,lexical_decision_task_MP,2020.1.3,Win32,60,,z,0,0.82161,,,,,,,,0.82161,0,,,,,,40,WORD,UN,50,spring,CONVEY,m,,,,,,-0.042592593,-0.281481481,0,0,0,,0,363,363,219,1,
,,,,,,,,,,,,,,,,,,5efe309bf2f94230dc588d40,2020-08-10_16h22.58.631,lexical_decision_task_MP,2020.1.3,Win32,60,,m,1,0.549135,,,,,,,,0.549135,1,,,,,,81,WORD,"ID",33,friend,FRIEND,m,,,,,,-0.042592593,-0.281481481,0,0,0,,0,364,364,20,1,
,,,,,,,,,,,,,,,,,,5efe309bf2f94230dc588d40,2020-08-10_16h22.58.631,lexical_decision_task_MP,2020.1.3,Win32,60,,z,1,0.765255,,,,,,,,0.765255,1,,,,,,287,NW,UN,50,yaceup,NYMBEL,z,,,,,,-0.042592593,-0.281481481,0,0,0,,0,365,365,466,1,
,,,,,,,,,,,,,,,,,,5efe309bf2f94230dc588d40,2020-08-10_16h22.58.631,lexical_decision_task_MP,2020.1.3,Win32,60,,m,1,0.53204,,,,,,,,0.53204,1,,,,,,190,WORD,UN,33,stable,BACKUP,m,,,,,,-0.042592593,-0.281481481,0,0,0,,0,366,366,129,1,
,,,,,,,,,,,,,,,,,,5efe309bf2f94230dc588d40,2020-08-10_16h22.58.631,lexical_decision_task_MP,2020.1.3,Win32,60,,m,1,0.630895,,,,,,,,0.630895,1,,,,,,221,WORD,UN,33,hinder,MASCOT,m,,,,,,-0.042592593,-0.281481481,0,0,0,,0,367,367,160,1,
,,,,,,,,,,,,,,,,,,5efe309bf2f94230dc588d40,2020-08-10_16h22.58.631,lexical_decision_task_MP,2020.1.3,Win32,60,,z,1,0.528875,,,,,,,,0.528875,1,,,,,,309,NW,"ID",33,amiloy,AMILOY,z,,,,,,-0.042592593,-0.281481481,0,0,0,,0,368,368,248,1,
,,,,,,,,,,,,,,,,,,5efe309bf2f94230dc588d40,2020-08-10_16h22.58.631,lexical_decision_task_MP,2020.1.3,Win32,60,,m,1,0.473885,,,,,,,,0.473885,1,,,,,,80,WORD,"ID",33,family,FAMILY,m,,,,,,-0.042592593,-0.281481481,0,0,0,,0,369,369,19,1,
,,,,,,,,,,,,,,,,,,5efe309bf2f94230dc588d40,2020-08-10_16h22.58.631,lexical_decision_task_MP,2020.1.3,Win32,60,,z,1,0.63869,,,,,,,,0.63869,1,,,,,,347,NW,"ID",33,kerift,KERIFT,z,,,,,,-0.042592593,-0.281481481,0,0,0,,0,370,370,286,1,
,,,,,,,,,,,,,,,,,,5efe309bf2f94230dc588d40,2020-08-10_16h22.58.631,lexical_decision_task_MP,2020.1.3,Win32,60,,z,1,0.56593,,,,,,,,0.56593,1,,,,,,304,NW,"ID",33,cludie,CLUDIE,z,,,,,,-0.042592593,-0.281481481,0,0,0,,0,371,371,243,1,
,,,,,,,,,,,,,,,,,,5efe309bf2f94230dc588d40,2020-08-10_16h22.58.631,lexical_decision_task_MP,2020.1.3,Win32,60,,m,1,0.582845,,,,,,,,0.582845,1,,,,,,37,WORD,UN,50,powder,INSULT,m,,,,,,-0.042592593,-0.281481481,0,0,0,,0,372,372,216,1,
,,,,,,,,,,,,,,,,,,5efe309bf2f94230dc588d40,2020-08-10_16h22.58.631,lexical_decision_task_MP,2020.1.3,Win32,60,,m,1,0.550995,,,,,,,,0.550995,1,,,,,,135,WORD,"ID",50,import,IMPORT,m,,,,,,-0.042592593,-0.281481481,0,0,0,,0,373,373,74,1,
,,,,,,,,,,,,,,,,,,5efe309bf2f94230dc588d40,2020-08-10_16h22.58.631,lexical_decision_task_MP,2020.1.3,Win32,60,,m,1,0.643555,,,,,,,,0.643555,1,,,,,,220,WORD,UN,33,mascot,VOYAGE,m,,,,,,-0.042592593,-0.281481481,0,0,0,,0,374,374,159,1,
,,,,,,,,,,,,,,,,,,5efe309bf2f94230dc588d40,2020-08-10_16h22.58.631,lexical_decision_task_MP,2020.1.3,Win32,60,,z,1,0.551615,,,,,,,,0.551615,1,,,,,,366,NW,"ID",50,toshel,TOSHEL,z,,,,,,-0.042592593,-0.281481481,0,0,0,,0,375,375,305,1,
,,,,,,,,,,,,,,,,,,5efe309bf2f94230dc588d40,2020-08-10_16h22.58.631,lexical_decision_task_MP,2020.1.3,Win32,60,,z,1,0.63692,,,,,,,,0.63692,1,,,,,,282,NW,UN,50,veralf,PORLEX,z,,,,,,-0.042592593,-0.281481481,0,0,0,,0,376,376,461,1,
,,,,,,,,,,,,,,,,,,5efe309bf2f94230dc588d40,2020-08-10_16h22.58.631,lexical_decision_task_MP,2020.1.3,Win32,60,,z,1,0.725865,,,,,,,,0.725865,1,,,,,,315,NW,"ID",33,laston,LASTON,z,,,,,,-0.042592593,-0.281481481,0,0,0,,0,377,377,254,1,
,,,,,,,,,,,,,,,,,,5efe309bf2f94230dc588d40,2020-08-10_16h22.58.631,lexical_decision_task_MP,2020.1.3,Win32,60,,m,1,0.48948,,,,,,,,0.48948,1,,,,,,32,WORD,UN,50,scream,BUCKLE,m,,,,,,-0.042592593,-0.281481481,0,0,0,,0,378,378,211,1,
,,,,,,,,,,,,,,,,,,5efe309bf2f94230dc588d40,2020-08-10_16h22.58.631,lexical_decision_task_MP,2020.1.3,Win32,60,,z,1,0.585045,,,,,,,,0.585045,1,,,,,,361,NW,"ID",50,pauche,PAUCHE,z,,,,,,-0.042592593,-0.281481481,0,0,0,,0,379,379,300,1,
,,,,,,,,,,,,,,,,,,5efe309bf2f94230dc588d40,2020-08-10_16h22.58.631,lexical_decision_task_MP,2020.1.3,Win32,60,,m,1,0.53242,,,,,,,,0.53242,1,,,,,,229,WORD,UN,33,fringe,MOTHER,m,,,,,,-0.042592593,-0.281481481,0,0,0,,0,380,380,168,1,
,,,,,,,,,,,,,,,,,,5efe309bf2f94230dc588d40,2020-08-10_16h22.58.631,lexical_decision_task_MP,2020.1.3,Win32,60,,z,1,0.69829,,,,,,,,0.69829,1,,,,,,285,NW,UN,50,reldon,PRUDGE,z,,,,,,-0.042592593,-0.281481481,0,0,0,,0,381,381,464,1,
,,,,,,,,,,,,,,,,,,5efe309bf2f94230dc588d40,2020-08-10_16h22.58.631,lexical_decision_task_MP,2020.1.3,Win32,60,,m,1,0.51019,,,,,,,,0.51019,1,,,,,,109,WORD,"ID",33,wonder,WONDER,m,,,,,,-0.042592593,-0.281481481,0,0,0,,0,382,382,48,1,
,,,,,,,,,,,,,,,,,,5efe309bf2f94230dc588d40,2020-08-10_16h22.58.631,lexical_decision_task_MP,2020.1.3,Win32,60,,z,1,0.518895,,,,,,,,0.518895,1,,,,,,351,NW,"ID",33,tiesch,TIESCH,z,,,,,,-0.042592593,-0.281481481,0,0,0,,0,383,383,290,1,
,,,,,,,,,,,,,,,,,,5efe309bf2f94230dc588d40,2020-08-10_16h22.58.631,lexical_decision_task_MP,2020.1.3,Win32,60,,m,1,0.61823,,,,,,,,0.61823,1,,,,,,35,WORD,UN,50,vanish,SOCKET,m,,,,,,-0.042592593,-0.281481481,0,0,0,,0,384,384,214,1,
,,,,,,,,,,,,,,,,,,5efe309bf2f94230dc588d40,2020-08-10_16h22.58.631,lexical_decision_task_MP,2020.1.3,Win32,60,,z,1,0.52257,,,,,,,,0.52257,1,,,,,,311,NW,"ID",33,sproly,SPROLY,z,,,,,,-0.042592593,-0.281481481,0,0,0,,0,385,385,250,1,
,,,,,,,,,,,,,,,,,,5efe309bf2f94230dc588d40,2020-08-10_16h22.58.631,lexical_decision_task_MP,2020.1.3,Win32,60,,m,1,0.527825,,,,,,,,0.527825,1,,,,,,9,WORD,UN,50,bridge,HUSTLE,m,,,,,,-0.042592593,-0.281481481,0,0,0,,0,386,386,188,1,
,,,,,,,,,,,,,,,,,,5efe309bf2f94230dc588d40,2020-08-10_16h22.58.631,lexical_decision_task_MP,2020.1.3,Win32,60,,m,1,0.705235,,,,,,,,0.705235,1,,,,,,102,WORD,"ID",33,direct,DIRECT,m,,,,,,-0.042592593,-0.281481481,0,0,0,,0,387,387,41,1,
,,,,,,,,,,,,,,,,,,5efe309bf2f94230dc588d40,2020-08-10_16h22.58.631,lexical_decision_task_MP,2020.1.3,Win32,60,,z,1,0.65753,,,,,,,,0.65753,1,,,,,,396,NW,"ID",50,flengy,FLENGY,z,,,,,,-0.042592593,-0.281481481,0,0,0,,0,388,388,335,1,
,,,,,,,,,,,,,,,,,,5efe309bf2f94230dc588d40,2020-08-10_16h22.58.631,lexical_decision_task_MP,2020.1.3,Win32,60,,m,1,0.546835,,,,,,,,0.546835,1,,,,,,19,WORD,UN,50,breast,PATRON,m,,,,,,-0.042592593,-0.281481481,0,0,0,,0,389,389,198,1,
,,,,,,,,,,,,,,,,,,5efe309bf2f94230dc588d40,2020-08-10_16h22.58.631,lexical_decision_task_MP,2020.1.3,Win32,60,,m,1,0.622995,,,,,,,,0.622995,1,,,,,,201,WORD,UN,33,factor,ADMIRE,m,,,,,,-0.042592593,-0.281481481,0,0,0,,0,390,390,140,1,
,,,,,,,,,,,,,,,,,,5efe309bf2f94230dc588d40,2020-08-10_16h22.58.631,lexical_decision_task_MP,2020.1.3,Win32,60,,m,1,0.663295,,,,,,,,0.663295,1,,,,,,199,WORD,UN,33,plague,INVOKE,m,,,,,,-0.042592593,-0.281481481,0,0,0,,0,391,391,138,1,
,,,,,,,,,,,,,,,,,,5efe309bf2f94230dc588d40,2020-08-10_16h22.58.631,lexical_decision_task_MP,2020.1.3,Win32,60,,z,1,0.901255,,,,,,,,0.901255,1,,,,,,424,NW,UN,33,frudge,PRAILE,z,,,,,,-0.042592593,-0.281481481,0,0,0,,0,392,392,363,1,
,,,,,,,,,,,,,,,,,,5efe309bf2f94230dc588d40,2020-08-10_16h22.58.631,lexical_decision_task_MP,2020.1.3,Win32,60,,z,1,0.812505,,,,,,,,0.812505,1,,,,,,257,NW,UN,50,poluth,VENIOD,z,,,,,,-0.042592593,-0.281481481,0,0,0,,0,393,393,436,1,
,,,,,,,,,,,,,,,,,,5efe309bf2f94230dc588d40,2020-08-10_16h22.58.631,lexical_decision_task_MP,2020.1.3,Win32,60,,z,1,0.67001,,,,,,,,0.67001,1,,,,,,274,NW,UN,50,sleirt,FUMBLO,z,,,,,,-0.042592593,-0.281481481,0,0,0,,0,394,394,453,1,
,,,,,,,,,,,,,,,,,,5efe309bf2f94230dc588d40,2020-08-10_16h22.58.631,lexical_decision_task_MP,2020.1.3,Win32,60,,z,1,0.80797,,,,,,,,0.80797,1,,,,,,244,NW,UN,50,anougs,EATRIC,z,,,,,,-0.042592593,-0.281481481,0,0,0,,0,395,395,423,1,
,,,,,,,,,,,,,,,,,,5efe309bf2f94230dc588d40,2020-08-10_16h22.58.631,lexical_decision_task_MP,2020.1.3,Win32,60,,z,1,0.510935,,,,,,,,0.510935,1,,,,,,281,NW,UN,50,porlex,MELATY,z,,,,,,-0.042592593,-0.281481481,0,0,0,,0,396,396,460,1,
,,,,,,,,,,,,,,,,,,5efe309bf2f94230dc588d40,2020-08-10_16h22.58.631,lexical_decision_task_MP,2020.1.3,Win32,60,,m,1,0.681195,,,,,,,,0.681195,1,,,,,,79,WORD,"ID",33,theory,THEORY,m,,,,,,-0.042592593,-0.281481481,0,0,0,,0,397,397,18,1,
,,,,,,,,,,,,,,,,,,5efe309bf2f94230dc588d40,2020-08-10_16h22.58.631,lexical_decision_task_MP,2020.1.3,Win32,60,,m,0,0.65479,,,,,,,,0.65479,0,,,,,,325,NW,"ID",33,thruse,THRUSE,z,,,,,,-0.042592593,-0.281481481,0,0,0,,0,398,398,264,1,
,,,,,,,,,,,,,,,,,,5efe309bf2f94230dc588d40,2020-08-10_16h22.58.631,lexical_decision_task_MP,2020.1.3,Win32,60,,z,1,1.770045,,,,,,,,1.770045,1,,,,,,454,NW,UN,33,tondle,SCOUGE,z,,,,,,-0.042592593,-0.281481481,0,0,0,,0,399,399,393,1,
,,,,,,,,,,,,,,,,,,5efe309bf2f94230dc588d40,2020-08-10_16h22.58.631,lexical_decision_task_MP,2020.1.3,Win32,60,,m,1,0.464745,,,,,,,,0.464745,1,,,,,,232,WORD,UN,33,nature,INJECT,m,,,,,,-0.042592593,-0.281481481,0,0,0,,0,400,400,171,1,
