counterbalancing_condition,instr_done_keyboard.keys,instr_done_touch.x,instr_done_touch.y,instr_done_touch.leftButton,instr_done_touch.midButton,instr_done_touch.rightButton,instr_done_touch.clicked_name,instruction_pages.thisRepN,instruction_pages.thisTrialN,instruction_pages.thisN,instruction_pages.thisIndex,instruction_pages.ran,pageN,phase,instruct_text,has_image,instruct_image,participant,date,expName,psychopyVersion,OS,frameRate,instr_done_keyboard.rt,response.keys,response.corr,response.rt,touch_resp.x,touch_resp.y,touch_resp.leftButton,touch_resp.midButton,touch_resp.rightButton,touch_resp.time,touch_resp.clicked_name,rt,corr,practice_trials.thisRepN,practice_trials.thisTrialN,practice_trials.thisN,practice_trials.thisIndex,practice_trials.ran,TrialID,StimulusType,Condition,PrimeDuration,Prime,Target,corrAns,end_of_practice_trials_pages.thisRepN,end_of_practice_trials_pages.thisTrialN,end_of_practice_trials_pages.thisN,end_of_practice_trials_pages.thisIndex,end_of_practice_trials_pages.ran,break_done_touch.x,break_done_touch.y,break_done_touch.leftButton,break_done_touch.midButton,break_done_touch.rightButton,break_done_keyboard.keys,trials.thisRepN,trials.thisTrialN,trials.thisN,trials.thisIndex,trials.ran,break_done_keyboard.rt
1,,0.079905993,-0.398942421,1,0,0,instr_done_button,0,0,0,0,1,1,instructions,"INSTRUCTIONS
At the start of each trial, look at the hash marks (######) in the center of the screen. After a moment, a string of letters will appear. Your task is to indicate if the letter string forms a word or not (i.e., if it is a nonword). For example, AUTHOR is a word while AUTHON is a nonword.

Press the space bar or touch the button below to continue.",0,,5efff21045937e0f18c41b2e,2020-08-10_13h18.32.102,lexical_decision_task_MP,2020.1.3,Win32,60,,,,,,,,,,,,,,,,,,,,,,,,,,,,,,,,,,,,,,,,,,
,space,0.431257344,-0.485898942,0,0,0,,0,1,1,1,1,2,instructions,"If your device has a keyboard, press the 'Z' key for nonwords and the 'M' key for words.





Press the space bar or touch the button below to continue.",1,keyboard-example.gif,5efff21045937e0f18c41b2e,2020-08-10_13h18.32.102,lexical_decision_task_MP,2020.1.3,Win32,60,14.73689,,,,,,,,,,,,,,,,,,,,,,,,,,,,,,,,,,,,,,,,,
,space,0.431257344,-0.485898942,0,0,0,,0,2,2,2,1,3,instructions,"If you are using a touchscreen only device, use the buttons on the screen. Do not use the mouse.





Press the space bar or touch the button below to continue.",1,touchscreen-example.gif,5efff21045937e0f18c41b2e,2020-08-10_13h18.32.102,lexical_decision_task_MP,2020.1.3,Win32,60,3.445245,,,,,,,,,,,,,,,,,,,,,,,,,,,,,,,,,,,,,,,,,
,space,0.431257344,-0.485898942,0,0,0,,0,3,3,3,1,4,instructions,"It is very important that you respond as quickly and accurately as possible, as each letter string will only be on the screen for two seconds. If you do not respond within this time, the message 'Too slow!' will be displayed and the experiment will progress to the next letter string. The first 20 trials will be practice trials and you will receive feedback on your answers. 

Press the space bar or touch the button below to start the practice trials.",0,,5efff21045937e0f18c41b2e,2020-08-10_13h18.32.102,lexical_decision_task_MP,2020.1.3,Win32,60,7.67427,,,,,,,,,,,,,,,,,,,,,,,,,,,,,,,,,,,,,,,,,
,,,,,,,,,,,,,,,,,,5efff21045937e0f18c41b2e,2020-08-10_13h18.32.102,lexical_decision_task_MP,2020.1.3,Win32,60,,m,0,0.765175,,,,,,,,0.765175,0,0,0,0,13,1,1014,NW,UN,33,winfer,ROUPET,z,,,,,,,,,,,,,,,,,
,,,,,,,,,,,,,,,,,,5efff21045937e0f18c41b2e,2020-08-10_13h18.32.102,lexical_decision_task_MP,2020.1.3,Win32,60,,z,0,0.612785,,,,,,,,0.612785,0,0,1,1,3,1,1004,WORD,"ID",50,matrix,MATRIX,m,,,,,,,,,,,,,,,,,
,,,,,,,,,,,,,,,,,,5efff21045937e0f18c41b2e,2020-08-10_13h18.32.102,lexical_decision_task_MP,2020.1.3,Win32,60,,m,1,0.949645,,,,,,,,0.949645,1,0,2,2,1,1,1002,WORD,"ID",33,adjust,ADJUST,m,,,,,,,,,,,,,,,,,
,,,,,,,,,,,,,,,,,,5efff21045937e0f18c41b2e,2020-08-10_13h18.32.102,lexical_decision_task_MP,2020.1.3,Win32,60,,z,1,0.63241,,,,,,,,0.63241,1,0,3,3,9,1,1010,NW,"ID",33,fariny,FARINY,z,,,,,,,,,,,,,,,,,
,,,,,,,,,,,,,,,,,,5efff21045937e0f18c41b2e,2020-08-10_13h18.32.102,lexical_decision_task_MP,2020.1.3,Win32,60,,z,1,0.68186,,,,,,,,0.68186,1,0,4,4,14,1,1015,NW,UN,50,miaber,THRALE,z,,,,,,,,,,,,,,,,,
,,,,,,,,,,,,,,,,,,5efff21045937e0f18c41b2e,2020-08-10_13h18.32.102,lexical_decision_task_MP,2020.1.3,Win32,60,,m,1,0.499815,,,,,,,,0.499815,1,0,5,5,2,1,1003,WORD,"ID",50,almond,ALMOND,m,,,,,,,,,,,,,,,,,
,,,,,,,,,,,,,,,,,,5efff21045937e0f18c41b2e,2020-08-10_13h18.32.102,lexical_decision_task_MP,2020.1.3,Win32,60,,z,1,0.6323,,,,,,,,0.6323,1,0,6,6,15,1,1016,NW,UN,50,mushed,WHAISE,z,,,,,,,,,,,,,,,,,
,,,,,,,,,,,,,,,,,,5efff21045937e0f18c41b2e,2020-08-10_13h18.32.102,lexical_decision_task_MP,2020.1.3,Win32,60,,m,1,0.61398,,,,,,,,0.61398,1,0,7,7,5,1,1006,WORD,UN,33,frenzy,OBTAIN,m,,,,,,,,,,,,,,,,,
,,,,,,,,,,,,,,,,,,5efff21045937e0f18c41b2e,2020-08-10_13h18.32.102,lexical_decision_task_MP,2020.1.3,Win32,60,,z,1,0.54818,,,,,,,,0.54818,1,0,8,8,8,1,1009,NW,"ID",33,aslert,ASLERT,z,,,,,,,,,,,,,,,,,
,,,,,,,,,,,,,,,,,,5efff21045937e0f18c41b2e,2020-08-10_13h18.32.102,lexical_decision_task_MP,2020.1.3,Win32,60,,m,1,0.65006,,,,,,,,0.65006,1,0,9,9,4,1,1005,WORD,UN,33,abound,SQUEAK,m,,,,,,,,,,,,,,,,,
,,,,,,,,,,,,,,,,,,5efff21045937e0f18c41b2e,2020-08-10_13h18.32.102,lexical_decision_task_MP,2020.1.3,Win32,60,,m,1,0.58532,,,,,,,,0.58532,1,0,10,10,6,1,1007,WORD,UN,50,tropic,ZOMBIE,m,,,,,,,,,,,,,,,,,
,,,,,,,,,,,,,,,,,,5efff21045937e0f18c41b2e,2020-08-10_13h18.32.102,lexical_decision_task_MP,2020.1.3,Win32,60,,m,1,0.518365,,,,,,,,0.518365,1,0,11,11,0,1,1001,WORD,"ID",33,utopia,UTOPIA,m,,,,,,,,,,,,,,,,,
,,,,,,,,,,,,,,,,,,5efff21045937e0f18c41b2e,2020-08-10_13h18.32.102,lexical_decision_task_MP,2020.1.3,Win32,60,,m,0,0.481445,,,,,,,,0.481445,0,0,12,12,12,1,1013,NW,UN,33,adveil,SPRINY,z,,,,,,,,,,,,,,,,,
,,,,,,,,,,,,,,,,,,5efff21045937e0f18c41b2e,2020-08-10_13h18.32.102,lexical_decision_task_MP,2020.1.3,Win32,60,,z,1,0.64106,,,,,,,,0.64106,1,0,13,13,11,1,1012,NW,"ID",50,rashet,RASHET,z,,,,,,,,,,,,,,,,,
,,,,,,,,,,,,,,,,,,5efff21045937e0f18c41b2e,2020-08-10_13h18.32.102,lexical_decision_task_MP,2020.1.3,Win32,60,,m,0,0.51508,,,,,,,,0.51508,0,0,14,14,10,1,1011,NW,"ID",50,inlade,INLADE,z,,,,,,,,,,,,,,,,,
,,,,,,,,,,,,,,,,,,5efff21045937e0f18c41b2e,2020-08-10_13h18.32.102,lexical_decision_task_MP,2020.1.3,Win32,60,,m,1,0.56684,,,,,,,,0.56684,1,0,15,15,7,1,1008,WORD,UN,50,hurdle,VOLUME,m,,,,,,,,,,,,,,,,,
,space,0.431257344,-0.485898942,0,0,0,,,,,,,1,end_of_practice,"You have completed the practice trials. During the experimental trials, you will not receive feedback, but it is very important that you respond as quickly and accurately as possible. 
Before you begin, please ensure that you are in a comfortable and quiet location and will not be disturbed for about 15 minutes, as we cannot use your data if you do not complete all the trials. 
There will be opportunities to take breaks at regular intervals during the experiment. When you are ready to start the experimental trials, please press space or touch the button below.",,,5efff21045937e0f18c41b2e,2020-08-10_13h18.32.102,lexical_decision_task_MP,2020.1.3,Win32,60,5.516475,,,,,,,,,,,,,,,,,,,,,,,,,0,0,0,0,1,,,,,,,,,,,,
,,,,,,,,,,,,,,,,,,5efff21045937e0f18c41b2e,2020-08-10_13h18.32.102,lexical_decision_task_MP,2020.1.3,Win32,60,,m,1,0.761965,,,,,,,,0.761965,1,,,,,,10,WORD,"ID",33,ethnic,ETHNIC,m,,,,,,0.431257344,-0.485898942,0,0,0,,0,0,0,9,1,
,,,,,,,,,,,,,,,,,,5efff21045937e0f18c41b2e,2020-08-10_13h18.32.102,lexical_decision_task_MP,2020.1.3,Win32,60,,z,1,0.54395,,,,,,,,0.54395,1,,,,,,480,NW,UN,50,knisma,ROBULY,z,,,,,,0.431257344,-0.485898942,0,0,0,,0,1,1,479,1,
,,,,,,,,,,,,,,,,,,5efff21045937e0f18c41b2e,2020-08-10_13h18.32.102,lexical_decision_task_MP,2020.1.3,Win32,60,,z,1,0.66445,,,,,,,,0.66445,1,,,,,,340,NW,"ID",50,fiatch,FIATCH,z,,,,,,0.431257344,-0.485898942,0,0,0,,0,2,2,339,1,
,,,,,,,,,,,,,,,,,,5efff21045937e0f18c41b2e,2020-08-10_13h18.32.102,lexical_decision_task_MP,2020.1.3,Win32,60,,z,1,0.63342,,,,,,,,0.63342,1,,,,,,428,NW,UN,50,chrums,TANDLY,z,,,,,,0.431257344,-0.485898942,0,0,0,,0,3,3,427,1,
,,,,,,,,,,,,,,,,,,5efff21045937e0f18c41b2e,2020-08-10_13h18.32.102,lexical_decision_task_MP,2020.1.3,Win32,60,,z,1,0.642505,,,,,,,,0.642505,1,,,,,,346,NW,"ID",50,saudic,SAUDIC,z,,,,,,0.431257344,-0.485898942,0,0,0,,0,4,4,345,1,
,,,,,,,,,,,,,,,,,,5efff21045937e0f18c41b2e,2020-08-10_13h18.32.102,lexical_decision_task_MP,2020.1.3,Win32,60,,m,1,0.7332,,,,,,,,0.7332,1,,,,,,236,WORD,UN,50,poster,PIRATE,m,,,,,,0.431257344,-0.485898942,0,0,0,,0,5,5,235,1,
,,,,,,,,,,,,,,,,,,5efff21045937e0f18c41b2e,2020-08-10_13h18.32.102,lexical_decision_task_MP,2020.1.3,Win32,60,,z,1,0.65985,,,,,,,,0.65985,1,,,,,,410,NW,UN,33,orchin,TUNORY,z,,,,,,0.431257344,-0.485898942,0,0,0,,0,6,6,409,1,
,,,,,,,,,,,,,,,,,,5efff21045937e0f18c41b2e,2020-08-10_13h18.32.102,lexical_decision_task_MP,2020.1.3,Win32,60,,m,1,0.71638,,,,,,,,0.71638,1,,,,,,115,WORD,"ID",50,guitar,GUITAR,m,,,,,,0.431257344,-0.485898942,0,0,0,,0,7,7,114,1,
,,,,,,,,,,,,,,,,,,5efff21045937e0f18c41b2e,2020-08-10_13h18.32.102,lexical_decision_task_MP,2020.1.3,Win32,60,,m,1,0.69728,,,,,,,,0.69728,1,,,,,,82,WORD,"ID",50,stigma,STIGMA,m,,,,,,0.431257344,-0.485898942,0,0,0,,0,8,8,81,1,
,,,,,,,,,,,,,,,,,,5efff21045937e0f18c41b2e,2020-08-10_13h18.32.102,lexical_decision_task_MP,2020.1.3,Win32,60,,m,1,0.727875,,,,,,,,0.727875,1,,,,,,199,WORD,UN,50,beacon,INVOKE,m,,,,,,0.431257344,-0.485898942,0,0,0,,0,9,9,198,1,
,,,,,,,,,,,,,,,,,,5efff21045937e0f18c41b2e,2020-08-10_13h18.32.102,lexical_decision_task_MP,2020.1.3,Win32,60,,z,1,0.651055,,,,,,,,0.651055,1,,,,,,367,NW,UN,33,hornal,SLIQUE,z,,,,,,0.431257344,-0.485898942,0,0,0,,0,10,10,366,1,
,,,,,,,,,,,,,,,,,,5efff21045937e0f18c41b2e,2020-08-10_13h18.32.102,lexical_decision_task_MP,2020.1.3,Win32,60,,z,1,0.6316,,,,,,,,0.6316,1,,,,,,426,NW,UN,50,frudge,URIVEL,z,,,,,,0.431257344,-0.485898942,0,0,0,,0,11,11,425,1,
,,,,,,,,,,,,,,,,,,5efff21045937e0f18c41b2e,2020-08-10_13h18.32.102,lexical_decision_task_MP,2020.1.3,Win32,60,,m,1,0.687775,,,,,,,,0.687775,1,,,,,,184,WORD,UN,50,bother,SLEAZY,m,,,,,,0.431257344,-0.485898942,0,0,0,,0,12,12,183,1,
,,,,,,,,,,,,,,,,,,5efff21045937e0f18c41b2e,2020-08-10_13h18.32.102,lexical_decision_task_MP,2020.1.3,Win32,60,,z,1,0.61155,,,,,,,,0.61155,1,,,,,,429,NW,UN,50,caroey,FUNTLE,z,,,,,,0.431257344,-0.485898942,0,0,0,,0,13,13,428,1,
,,,,,,,,,,,,,,,,,,5efff21045937e0f18c41b2e,2020-08-10_13h18.32.102,lexical_decision_task_MP,2020.1.3,Win32,60,,z,1,0.66024,,,,,,,,0.66024,1,,,,,,408,NW,UN,33,flumni,HURNIA,z,,,,,,0.431257344,-0.485898942,0,0,0,,0,14,14,407,1,
,,,,,,,,,,,,,,,,,,5efff21045937e0f18c41b2e,2020-08-10_13h18.32.102,lexical_decision_task_MP,2020.1.3,Win32,60,,z,1,0.646265,,,,,,,,0.646265,1,,,,,,384,NW,UN,33,veigma,GUESCO,z,,,,,,0.431257344,-0.485898942,0,0,0,,0,15,15,383,1,
,,,,,,,,,,,,,,,,,,5efff21045937e0f18c41b2e,2020-08-10_13h18.32.102,lexical_decision_task_MP,2020.1.3,Win32,60,,z,1,0.6282,,,,,,,,0.6282,1,,,,,,301,NW,"ID",50,fainch,FAINCH,z,,,,,,0.431257344,-0.485898942,0,0,0,,0,16,16,300,1,
,,,,,,,,,,,,,,,,,,5efff21045937e0f18c41b2e,2020-08-10_13h18.32.102,lexical_decision_task_MP,2020.1.3,Win32,60,,m,1,0.647525,,,,,,,,0.647525,1,,,,,,221,WORD,UN,50,hinder,MASCOT,m,,,,,,0.431257344,-0.485898942,0,0,0,,0,17,17,220,1,
,,,,,,,,,,,,,,,,,,5efff21045937e0f18c41b2e,2020-08-10_13h18.32.102,lexical_decision_task_MP,2020.1.3,Win32,60,,z,1,0.690525,,,,,,,,0.690525,1,,,,,,352,NW,"ID",50,tringe,TRINGE,z,,,,,,0.431257344,-0.485898942,0,0,0,,0,18,18,351,1,
,,,,,,,,,,,,,,,,,,5efff21045937e0f18c41b2e,2020-08-10_13h18.32.102,lexical_decision_task_MP,2020.1.3,Win32,60,,m,1,0.62552,,,,,,,,0.62552,1,,,,,,201,WORD,UN,50,factor,ADMIRE,m,,,,,,0.431257344,-0.485898942,0,0,0,,0,19,19,200,1,
,,,,,,,,,,,,,,,,,,5efff21045937e0f18c41b2e,2020-08-10_13h18.32.102,lexical_decision_task_MP,2020.1.3,Win32,60,,z,1,0.624265,,,,,,,,0.624265,1,,,,,,294,NW,"ID",33,inhort,INHORT,z,,,,,,0.431257344,-0.485898942,0,0,0,,0,20,20,293,1,
,,,,,,,,,,,,,,,,,,5efff21045937e0f18c41b2e,2020-08-10_13h18.32.102,lexical_decision_task_MP,2020.1.3,Win32,60,,z,1,0.591985,,,,,,,,0.591985,1,,,,,,349,NW,"ID",50,asylen,ASYLEN,z,,,,,,0.431257344,-0.485898942,0,0,0,,0,21,21,348,1,
,,,,,,,,,,,,,,,,,,5efff21045937e0f18c41b2e,2020-08-10_13h18.32.102,lexical_decision_task_MP,2020.1.3,Win32,60,,z,1,0.66657,,,,,,,,0.66657,1,,,,,,469,NW,UN,50,crudio,PADIFS,z,,,,,,0.431257344,-0.485898942,0,0,0,,0,22,22,468,1,
,,,,,,,,,,,,,,,,,,5efff21045937e0f18c41b2e,2020-08-10_13h18.32.102,lexical_decision_task_MP,2020.1.3,Win32,60,,z,1,0.642785,,,,,,,,0.642785,1,,,,,,357,NW,"ID",50,derain,DERAIN,z,,,,,,0.431257344,-0.485898942,0,0,0,,0,23,23,356,1,
,,,,,,,,,,,,,,,,,,5efff21045937e0f18c41b2e,2020-08-10_13h18.32.102,lexical_decision_task_MP,2020.1.3,Win32,60,,z,1,0.69427,,,,,,,,0.69427,1,,,,,,272,NW,"ID",33,damilt,DAMILT,z,,,,,,0.431257344,-0.485898942,0,0,0,,0,24,24,271,1,
,,,,,,,,,,,,,,,,,,5efff21045937e0f18c41b2e,2020-08-10_13h18.32.102,lexical_decision_task_MP,2020.1.3,Win32,60,,m,1,0.75417,,,,,,,,0.75417,1,,,,,,167,WORD,UN,33,answer,DESIGN,m,,,,,,0.431257344,-0.485898942,0,0,0,,0,25,25,166,1,
,,,,,,,,,,,,,,,,,,5efff21045937e0f18c41b2e,2020-08-10_13h18.32.102,lexical_decision_task_MP,2020.1.3,Win32,60,,m,1,0.571845,,,,,,,,0.571845,1,,,,,,66,WORD,"ID",50,gospel,GOSPEL,m,,,,,,0.431257344,-0.485898942,0,0,0,,0,26,26,65,1,
,,,,,,,,,,,,,,,,,,5efff21045937e0f18c41b2e,2020-08-10_13h18.32.102,lexical_decision_task_MP,2020.1.3,Win32,60,,z,1,0.73732,,,,,,,,0.73732,1,,,,,,442,NW,UN,50,dorsex,ABOUNE,z,,,,,,0.431257344,-0.485898942,0,0,0,,0,27,27,441,1,
,,,,,,,,,,,,,,,,,,5efff21045937e0f18c41b2e,2020-08-10_13h18.32.102,lexical_decision_task_MP,2020.1.3,Win32,60,,z,1,0.73107,,,,,,,,0.73107,1,,,,,,396,NW,UN,33,camble,FLENGY,z,,,,,,0.431257344,-0.485898942,0,0,0,,0,28,28,395,1,
,,,,,,,,,,,,,,,,,,5efff21045937e0f18c41b2e,2020-08-10_13h18.32.102,lexical_decision_task_MP,2020.1.3,Win32,60,,m,1,0.66013,,,,,,,,0.66013,1,,,,,,42,WORD,"ID",33,chapel,CHAPEL,m,,,,,,0.431257344,-0.485898942,0,0,0,,0,29,29,41,1,
,,,,,,,,,,,,,,,,,,5efff21045937e0f18c41b2e,2020-08-10_13h18.32.102,lexical_decision_task_MP,2020.1.3,Win32,60,,m,1,0.569805,,,,,,,,0.569805,1,,,,,,105,WORD,"ID",50,number,NUMBER,m,,,,,,0.431257344,-0.485898942,0,0,0,,0,30,30,104,1,
,,,,,,,,,,,,,,,,,,5efff21045937e0f18c41b2e,2020-08-10_13h18.32.102,lexical_decision_task_MP,2020.1.3,Win32,60,,z,1,0.57746,,,,,,,,0.57746,1,,,,,,306,NW,"ID",50,sounge,SOUNGE,z,,,,,,0.431257344,-0.485898942,0,0,0,,0,31,31,305,1,
,,,,,,,,,,,,,,,,,,5efff21045937e0f18c41b2e,2020-08-10_13h18.32.102,lexical_decision_task_MP,2020.1.3,Win32,60,,m,1,0.62083,,,,,,,,0.62083,1,,,,,,165,WORD,UN,33,starch,INVEST,m,,,,,,0.431257344,-0.485898942,0,0,0,,0,32,32,164,1,
,,,,,,,,,,,,,,,,,,5efff21045937e0f18c41b2e,2020-08-10_13h18.32.102,lexical_decision_task_MP,2020.1.3,Win32,60,,z,1,0.614025,,,,,,,,0.614025,1,,,,,,381,NW,UN,33,sarley,HUNIEK,z,,,,,,0.431257344,-0.485898942,0,0,0,,0,33,33,380,1,
,,,,,,,,,,,,,,,,,,5efff21045937e0f18c41b2e,2020-08-10_13h18.32.102,lexical_decision_task_MP,2020.1.3,Win32,60,,m,1,0.55379,,,,,,,,0.55379,1,,,,,,132,WORD,UN,33,bleach,STRONG,m,,,,,,0.431257344,-0.485898942,0,0,0,,0,34,34,131,1,
,,,,,,,,,,,,,,,,,,5efff21045937e0f18c41b2e,2020-08-10_13h18.32.102,lexical_decision_task_MP,2020.1.3,Win32,60,,m,1,0.60786,,,,,,,,0.60786,1,,,,,,37,WORD,"ID",33,insult,INSULT,m,,,,,,0.431257344,-0.485898942,0,0,0,,0,35,35,36,1,
,,,,,,,,,,,,,,,,,,5efff21045937e0f18c41b2e,2020-08-10_13h18.32.102,lexical_decision_task_MP,2020.1.3,Win32,60,,m,1,0.72597,,,,,,,,0.72597,1,,,,,,142,WORD,UN,33,orphan,SPRUCE,m,,,,,,0.431257344,-0.485898942,0,0,0,,0,36,36,141,1,
,,,,,,,,,,,,,,,,,,5efff21045937e0f18c41b2e,2020-08-10_13h18.32.102,lexical_decision_task_MP,2020.1.3,Win32,60,,z,1,0.72616,,,,,,,,0.72616,1,,,,,,255,NW,"ID",33,apight,APIGHT,z,,,,,,0.431257344,-0.485898942,0,0,0,,0,37,37,254,1,
,,,,,,,,,,,,,,,,,,5efff21045937e0f18c41b2e,2020-08-10_13h18.32.102,lexical_decision_task_MP,2020.1.3,Win32,60,,m,1,0.62454,,,,,,,,0.62454,1,,,,,,214,WORD,UN,50,phobia,INTAKE,m,,,,,,0.431257344,-0.485898942,0,0,0,,0,38,38,213,1,
,,,,,,,,,,,,,,,,,,5efff21045937e0f18c41b2e,2020-08-10_13h18.32.102,lexical_decision_task_MP,2020.1.3,Win32,60,,z,1,0.643255,,,,,,,,0.643255,1,,,,,,458,NW,UN,50,chaite,BARCET,z,,,,,,0.431257344,-0.485898942,0,0,0,,0,39,39,457,1,
,,,,,,,,,,,,,,,,,,5efff21045937e0f18c41b2e,2020-08-10_13h18.32.102,lexical_decision_task_MP,2020.1.3,Win32,60,,z,1,0.58633,,,,,,,,0.58633,1,,,,,,399,NW,UN,33,wearox,FOURET,z,,,,,,0.431257344,-0.485898942,0,0,0,,0,40,40,398,1,
,,,,,,,,,,,,,,,,,,5efff21045937e0f18c41b2e,2020-08-10_13h18.32.102,lexical_decision_task_MP,2020.1.3,Win32,60,,m,1,0.662305,,,,,,,,0.662305,1,,,,,,155,WORD,UN,33,cradle,LIZARD,m,,,,,,0.431257344,-0.485898942,0,0,0,,0,41,41,154,1,
,,,,,,,,,,,,,,,,,,5efff21045937e0f18c41b2e,2020-08-10_13h18.32.102,lexical_decision_task_MP,2020.1.3,Win32,60,,z,1,0.57666,,,,,,,,0.57666,1,,,,,,473,NW,UN,50,hablin,CRIBLE,z,,,,,,0.431257344,-0.485898942,0,0,0,,0,42,42,472,1,
,,,,,,,,,,,,,,,,,,5efff21045937e0f18c41b2e,2020-08-10_13h18.32.102,lexical_decision_task_MP,2020.1.3,Win32,60,,z,1,0.56671,,,,,,,,0.56671,1,,,,,,457,NW,UN,50,barcet,WANIGH,z,,,,,,0.431257344,-0.485898942,0,0,0,,0,43,43,456,1,
,,,,,,,,,,,,,,,,,,5efff21045937e0f18c41b2e,2020-08-10_13h18.32.102,lexical_decision_task_MP,2020.1.3,Win32,60,,m,1,0.54109,,,,,,,,0.54109,1,,,,,,81,WORD,"ID",50,friend,FRIEND,m,,,,,,0.431257344,-0.485898942,0,0,0,,0,44,44,80,1,
,,,,,,,,,,,,,,,,,,5efff21045937e0f18c41b2e,2020-08-10_13h18.32.102,lexical_decision_task_MP,2020.1.3,Win32,60,,m,1,0.58097,,,,,,,,0.58097,1,,,,,,205,WORD,UN,50,tailor,LOUNGE,m,,,,,,0.431257344,-0.485898942,0,0,0,,0,45,45,204,1,
,,,,,,,,,,,,,,,,,,5efff21045937e0f18c41b2e,2020-08-10_13h18.32.102,lexical_decision_task_MP,2020.1.3,Win32,60,,z,1,0.560825,,,,,,,,0.560825,1,,,,,,245,NW,"ID",33,anougs,ANOUGS,z,,,,,,0.431257344,-0.485898942,0,0,0,,0,46,46,244,1,
,,,,,,,,,,,,,,,,,,5efff21045937e0f18c41b2e,2020-08-10_13h18.32.102,lexical_decision_task_MP,2020.1.3,Win32,60,,m,1,0.59147,,,,,,,,0.59147,1,,,,,,158,WORD,UN,33,detail,ISLAND,m,,,,,,0.431257344,-0.485898942,0,0,0,,0,47,47,157,1,
,,,,,,,,,,,,,,,,,,5efff21045937e0f18c41b2e,2020-08-10_13h18.32.102,lexical_decision_task_MP,2020.1.3,Win32,60,,z,1,0.62736,,,,,,,,0.62736,1,,,,,,369,NW,UN,33,sleact,WRONCH,z,,,,,,0.431257344,-0.485898942,0,0,0,,0,48,48,368,1,
,,,,,,,,,,,,,,,,,,5efff21045937e0f18c41b2e,2020-08-10_13h18.32.102,lexical_decision_task_MP,2020.1.3,Win32,60,,m,1,0.759105,,,,,,,,0.759105,1,,,,,,170,WORD,UN,33,depart,POUNCE,m,,,,,,0.431257344,-0.485898942,0,0,0,,0,49,49,169,1,
,,,,,,,,,,,,,,,,,,5efff21045937e0f18c41b2e,2020-08-10_13h18.32.102,lexical_decision_task_MP,2020.1.3,Win32,60,,m,1,0.625505,,,,,,,,0.625505,1,,,,,,230,WORD,UN,50,export,FRINGE,m,,,,,,0.431257344,-0.485898942,0,0,0,,0,50,50,229,1,
,,,,,,,,,,,,,,,,,,5efff21045937e0f18c41b2e,2020-08-10_13h18.32.102,lexical_decision_task_MP,2020.1.3,Win32,60,,m,1,0.621965,,,,,,,,0.621965,1,,,,,,84,WORD,"ID",50,mortal,MORTAL,m,,,,,,0.431257344,-0.485898942,0,0,0,,0,51,51,83,1,
,,,,,,,,,,,,,,,,,,5efff21045937e0f18c41b2e,2020-08-10_13h18.32.102,lexical_decision_task_MP,2020.1.3,Win32,60,,z,1,0.621555,,,,,,,,0.621555,1,,,,,,389,NW,UN,33,hatrus,WITMER,z,,,,,,0.431257344,-0.485898942,0,0,0,,0,52,52,388,1,
,,,,,,,,,,,,,,,,,,5efff21045937e0f18c41b2e,2020-08-10_13h18.32.102,lexical_decision_task_MP,2020.1.3,Win32,60,,z,1,0.74317,,,,,,,,0.74317,1,,,,,,448,NW,UN,50,brunge,SADENT,z,,,,,,0.431257344,-0.485898942,0,0,0,,0,53,53,447,1,
,,,,,,,,,,,,,,,,,,5efff21045937e0f18c41b2e,2020-08-10_13h18.32.102,lexical_decision_task_MP,2020.1.3,Win32,60,,m,1,0.62103,,,,,,,,0.62103,1,,,,,,91,WORD,"ID",50,expand,EXPAND,m,,,,,,0.431257344,-0.485898942,0,0,0,,0,54,54,90,1,
,,,,,,,,,,,,,,,,,,5efff21045937e0f18c41b2e,2020-08-10_13h18.32.102,lexical_decision_task_MP,2020.1.3,Win32,60,,m,1,0.57577,,,,,,,,0.57577,1,,,,,,54,WORD,"ID",33,ramble,RAMBLE,m,,,,,,0.431257344,-0.485898942,0,0,0,,0,55,55,53,1,
,,,,,,,,,,,,,,,,,,5efff21045937e0f18c41b2e,2020-08-10_13h18.32.102,lexical_decision_task_MP,2020.1.3,Win32,60,,m,1,0.617925,,,,,,,,0.617925,1,,,,,,179,WORD,UN,33,silent,BASKET,m,,,,,,0.431257344,-0.485898942,0,0,0,,0,56,56,178,1,
,,,,,,,,,,,,,,,,,,5efff21045937e0f18c41b2e,2020-08-10_13h18.32.102,lexical_decision_task_MP,2020.1.3,Win32,60,,z,1,0.61002,,,,,,,,0.61002,1,,,,,,455,NW,UN,50,broget,TONDLE,z,,,,,,0.431257344,-0.485898942,0,0,0,,0,57,57,454,1,
,,,,,,,,,,,,,,,,,,5efff21045937e0f18c41b2e,2020-08-10_13h18.32.102,lexical_decision_task_MP,2020.1.3,Win32,60,,z,1,0.58007,,,,,,,,0.58007,1,,,,,,267,NW,"ID",33,pasink,PASINK,z,,,,,,0.431257344,-0.485898942,0,0,0,,0,58,58,266,1,
,,,,,,,,,,,,,,,,,,5efff21045937e0f18c41b2e,2020-08-10_13h18.32.102,lexical_decision_task_MP,2020.1.3,Win32,60,,m,1,0.61689,,,,,,,,0.61689,1,,,,,,118,WORD,"ID",50,flight,FLIGHT,m,,,,,,0.431257344,-0.485898942,0,0,0,,0,59,59,117,1,
,,,,,,,,,,,,,,,,,,5efff21045937e0f18c41b2e,2020-08-10_13h18.32.102,lexical_decision_task_MP,2020.1.3,Win32,60,,z,1,0.618255,,,,,,,,0.618255,1,,,,,,249,NW,"ID",33,batrol,BATROL,z,,,,,,0.431257344,-0.485898942,0,0,0,,0,60,60,248,1,
,,,,,,,,,,,,,,,,,,5efff21045937e0f18c41b2e,2020-08-10_13h18.32.102,lexical_decision_task_MP,2020.1.3,Win32,60,,m,1,0.59394,,,,,,,,0.59394,1,,,,,,64,WORD,"ID",50,throne,THRONE,m,,,,,,0.431257344,-0.485898942,0,0,0,,0,61,61,63,1,
,,,,,,,,,,,,,,,,,,5efff21045937e0f18c41b2e,2020-08-10_13h18.32.102,lexical_decision_task_MP,2020.1.3,Win32,60,,m,1,0.5925,,,,,,,,0.5925,1,,,,,,217,WORD,UN,50,shrink,LIQUOR,m,,,,,,0.431257344,-0.485898942,0,0,0,,0,62,62,216,1,
,,,,,,,,,,,,,,,,,,5efff21045937e0f18c41b2e,2020-08-10_13h18.32.102,lexical_decision_task_MP,2020.1.3,Win32,60,,z,1,0.58991,,,,,,,,0.58991,1,,,,,,265,NW,"ID",33,distar,DISTAR,z,,,,,,0.431257344,-0.485898942,0,0,0,,0,63,63,264,1,
,,,,,,,,,,,,,,,,,,5efff21045937e0f18c41b2e,2020-08-10_13h18.32.102,lexical_decision_task_MP,2020.1.3,Win32,60,,z,1,0.65403,,,,,,,,0.65403,1,,,,,,278,NW,"ID",33,unighs,UNIGHS,z,,,,,,0.431257344,-0.485898942,0,0,0,,0,64,64,277,1,
,,,,,,,,,,,,,,,,,,5efff21045937e0f18c41b2e,2020-08-10_13h18.32.102,lexical_decision_task_MP,2020.1.3,Win32,60,,m,1,0.62799,,,,,,,,0.62799,1,,,,,,234,WORD,UN,50,lumber,CLUMSY,m,,,,,,0.431257344,-0.485898942,0,0,0,,0,65,65,233,1,
,,,,,,,,,,,,,,,,,,5efff21045937e0f18c41b2e,2020-08-10_13h18.32.102,lexical_decision_task_MP,2020.1.3,Win32,60,,m,1,0.681435,,,,,,,,0.681435,1,,,,,,222,WORD,UN,50,casino,HINDER,m,,,,,,0.431257344,-0.485898942,0,0,0,,0,66,66,221,1,
,,,,,,,,,,,,,,,,,,5efff21045937e0f18c41b2e,2020-08-10_13h18.32.102,lexical_decision_task_MP,2020.1.3,Win32,60,,z,1,0.53675,,,,,,,,0.53675,1,,,,,,445,NW,UN,50,runamo,MINKEL,z,,,,,,0.431257344,-0.485898942,0,0,0,,0,67,67,444,1,
,,,,,,,,,,,,,,,,,,5efff21045937e0f18c41b2e,2020-08-10_13h18.32.102,lexical_decision_task_MP,2020.1.3,Win32,60,,z,1,0.617215,,,,,,,,0.617215,1,,,,,,416,NW,UN,33,earoud,PATHEL,z,,,,,,0.431257344,-0.485898942,0,0,0,,0,68,68,415,1,
,,,,,,,,,,,,,,,,,,5efff21045937e0f18c41b2e,2020-08-10_13h18.32.102,lexical_decision_task_MP,2020.1.3,Win32,60,,z,1,0.634595,,,,,,,,0.634595,1,,,,,,425,NW,UN,50,schind,FRUDGE,z,,,,,,0.431257344,-0.485898942,0,0,0,,0,69,69,424,1,
,,,,,,,,,,,,,,,,,,5efff21045937e0f18c41b2e,2020-08-10_13h18.32.102,lexical_decision_task_MP,2020.1.3,Win32,60,,z,1,0.600705,,,,,,,,0.600705,1,,,,,,382,NW,UN,33,aungre,SARLEY,z,,,,,,0.431257344,-0.485898942,0,0,0,,0,70,70,381,1,
,,,,,,,,,,,,,,,,,,5efff21045937e0f18c41b2e,2020-08-10_13h18.32.102,lexical_decision_task_MP,2020.1.3,Win32,60,,m,1,0.574395,,,,,,,,0.574395,1,,,,,,157,WORD,UN,33,island,DRAGON,m,,,,,,0.431257344,-0.485898942,0,0,0,,0,71,71,156,1,
,,,,,,,,,,,,,,,,,,5efff21045937e0f18c41b2e,2020-08-10_13h18.32.102,lexical_decision_task_MP,2020.1.3,Win32,60,,z,1,0.548335,,,,,,,,0.548335,1,,,,,,274,NW,"ID",33,fumblo,FUMBLO,z,,,,,,0.431257344,-0.485898942,0,0,0,,0,72,72,273,1,
,,,,,,,,,,,,,,,,,,5efff21045937e0f18c41b2e,2020-08-10_13h18.32.102,lexical_decision_task_MP,2020.1.3,Win32,60,,m,1,0.675605,,,,,,,,0.675605,1,,,,,,172,WORD,UN,33,shower,PATROL,m,,,,,,0.431257344,-0.485898942,0,0,0,,0,73,73,171,1,
,,,,,,,,,,,,,,,,,,5efff21045937e0f18c41b2e,2020-08-10_13h18.32.102,lexical_decision_task_MP,2020.1.3,Win32,60,,z,1,0.5827,,,,,,,,0.5827,1,,,,,,286,NW,"ID",33,reldon,RELDON,z,,,,,,0.431257344,-0.485898942,0,0,0,,0,74,74,285,1,
,,,,,,,,,,,,,,,,,,5efff21045937e0f18c41b2e,2020-08-10_13h18.32.102,lexical_decision_task_MP,2020.1.3,Win32,60,,z,1,0.58959,,,,,,,,0.58959,1,,,,,,275,NW,"ID",33,sleirt,SLEIRT,z,,,,,,0.431257344,-0.485898942,0,0,0,,0,75,75,274,1,
,,,,,,,,,,,,,,,,,,5efff21045937e0f18c41b2e,2020-08-10_13h18.32.102,lexical_decision_task_MP,2020.1.3,Win32,60,,m,1,0.58514,,,,,,,,0.58514,1,,,,,,138,WORD,UN,33,staple,MELODY,m,,,,,,0.431257344,-0.485898942,0,0,0,,0,76,76,137,1,
,,,,,,,,,,,,,,,,,,5efff21045937e0f18c41b2e,2020-08-10_13h18.32.102,lexical_decision_task_MP,2020.1.3,Win32,60,,z,1,0.605115,,,,,,,,0.605115,1,,,,,,392,NW,UN,33,ganous,ROUNCY,z,,,,,,0.431257344,-0.485898942,0,0,0,,0,77,77,391,1,
,,,,,,,,,,,,,,,,,,5efff21045937e0f18c41b2e,2020-08-10_13h18.32.102,lexical_decision_task_MP,2020.1.3,Win32,60,,z,1,0.554875,,,,,,,,0.554875,1,,,,,,422,NW,UN,50,streld,ALCOUD,z,,,,,,0.431257344,-0.485898942,0,0,0,,0,78,78,421,1,
,,,,,,,,,,,,,,,,,,5efff21045937e0f18c41b2e,2020-08-10_13h18.32.102,lexical_decision_task_MP,2020.1.3,Win32,60,,m,1,0.56984,,,,,,,,0.56984,1,,,,,,77,WORD,"ID",50,racket,RACKET,m,,,,,,0.431257344,-0.485898942,0,0,0,,0,79,79,76,1,
,,,,,,,,,,,,,,,,,,5efff21045937e0f18c41b2e,2020-08-10_13h18.32.102,lexical_decision_task_MP,2020.1.3,Win32,60,,m,1,0.58645,,,,,,,,0.58645,1,,,,,,198,WORD,UN,50,invoke,WICKED,m,,,,,,0.431257344,-0.485898942,0,0,0,,0,80,80,197,1,
,,,,,,,,,,,,,,,,,,5efff21045937e0f18c41b2e,2020-08-10_13h18.32.102,lexical_decision_task_MP,2020.1.3,Win32,60,,z,1,0.521705,,,,,,,,0.521705,1,,,,,,307,NW,"ID",50,kirafe,KIRAFE,z,,,,,,0.431257344,-0.485898942,0,0,0,,0,81,81,306,1,
,,,,,,,,,,,,,,,,,,5efff21045937e0f18c41b2e,2020-08-10_13h18.32.102,lexical_decision_task_MP,2020.1.3,Win32,60,,m,1,0.565685,,,,,,,,0.565685,1,,,,,,235,WORD,UN,50,pirate,GRUMPY,m,,,,,,0.431257344,-0.485898942,0,0,0,,0,82,82,234,1,
,,,,,,,,,,,,,,,,,,5efff21045937e0f18c41b2e,2020-08-10_13h18.32.102,lexical_decision_task_MP,2020.1.3,Win32,60,,m,1,0.56927,,,,,,,,0.56927,1,,,,,,204,WORD,UN,50,lounge,BURDEN,m,,,,,,0.431257344,-0.485898942,0,0,0,,0,83,83,203,1,
,,,,,,,,,,,,,,,,,,5efff21045937e0f18c41b2e,2020-08-10_13h18.32.102,lexical_decision_task_MP,2020.1.3,Win32,60,,m,1,0.627345,,,,,,,,0.627345,1,,,,,,131,WORD,UN,33,strong,QUENCH,m,,,,,,0.431257344,-0.485898942,0,0,0,,0,84,84,130,1,
,,,,,,,,,,,,,,,,,,5efff21045937e0f18c41b2e,2020-08-10_13h18.32.102,lexical_decision_task_MP,2020.1.3,Win32,60,,m,1,0.56912,,,,,,,,0.56912,1,,,,,,188,WORD,UN,50,censor,SOCIAL,m,,,,,,0.431257344,-0.485898942,0,0,0,,0,85,85,187,1,
,,,,,,,,,,,,,,,,,,5efff21045937e0f18c41b2e,2020-08-10_13h18.32.102,lexical_decision_task_MP,2020.1.3,Win32,60,,m,1,0.60648,,,,,,,,0.60648,1,,,,,,152,WORD,UN,33,behold,ROCKET,m,,,,,,0.431257344,-0.485898942,0,0,0,,0,86,86,151,1,
,,,,,,,,,,,,,,,,,,5efff21045937e0f18c41b2e,2020-08-10_13h18.32.102,lexical_decision_task_MP,2020.1.3,Win32,60,,m,1,0.553825,,,,,,,,0.553825,1,,,,,,80,WORD,"ID",50,family,FAMILY,m,,,,,,0.431257344,-0.485898942,0,0,0,,0,87,87,79,1,
,,,,,,,,,,,,,,,,,,5efff21045937e0f18c41b2e,2020-08-10_13h18.32.102,lexical_decision_task_MP,2020.1.3,Win32,60,,z,1,0.577605,,,,,,,,0.577605,1,,,,,,441,NW,UN,50,aboune,RASTOE,z,,,,,,0.431257344,-0.485898942,0,0,0,,0,88,88,440,1,
,,,,,,,,,,,,,,,,,,5efff21045937e0f18c41b2e,2020-08-10_13h18.32.102,lexical_decision_task_MP,2020.1.3,Win32,60,,m,1,0.600385,,,,,,,,0.600385,1,,,,,,114,WORD,"ID",50,placid,PLACID,m,,,,,,0.431257344,-0.485898942,0,0,0,,0,89,89,113,1,
,,,,,,,,,,,,,,,,,,5efff21045937e0f18c41b2e,2020-08-10_13h18.32.102,lexical_decision_task_MP,2020.1.3,Win32,60,,m,1,0.900315,,,,,,,,0.900315,1,,,,,,59,WORD,"ID",33,splint,SPLINT,m,,,,,,0.431257344,-0.485898942,0,0,0,,0,90,90,58,1,
,,,,,,,,,,,,,,,,,,5efff21045937e0f18c41b2e,2020-08-10_13h18.32.102,lexical_decision_task_MP,2020.1.3,Win32,60,,z,1,0.77559,,,,,,,,0.77559,1,,,,,,252,NW,"ID",33,stapod,STAPOD,z,,,,,,0.431257344,-0.485898942,0,0,0,,0,91,91,251,1,
,,,,,,,,,,,,,,,,,,5efff21045937e0f18c41b2e,2020-08-10_13h18.32.102,lexical_decision_task_MP,2020.1.3,Win32,60,,m,1,0.54163,,,,,,,,0.54163,1,,,,,,14,WORD,"ID",33,almost,ALMOST,m,,,,,,0.431257344,-0.485898942,0,0,0,,0,92,92,13,1,
,,,,,,,,,,,,,,,,,,5efff21045937e0f18c41b2e,2020-08-10_13h18.32.102,lexical_decision_task_MP,2020.1.3,Win32,60,,m,1,0.58818,,,,,,,,0.58818,1,,,,,,224,WORD,UN,50,vulgar,PERIOD,m,,,,,,0.431257344,-0.485898942,0,0,0,,0,93,93,223,1,
,,,,,,,,,,,,,,,,,,5efff21045937e0f18c41b2e,2020-08-10_13h18.32.102,lexical_decision_task_MP,2020.1.3,Win32,60,,z,1,0.66494,,,,,,,,0.66494,1,,,,,,472,NW,UN,50,crible,CIGNEY,z,,,,,,0.431257344,-0.485898942,0,0,0,,0,94,94,471,1,
,,,,,,,,,,,,,,,,,,5efff21045937e0f18c41b2e,2020-08-10_13h18.32.102,lexical_decision_task_MP,2020.1.3,Win32,60,,m,1,0.935185,,,,,,,,0.935185,1,,,,,,92,WORD,"ID",50,strand,STRAND,m,,,,,,0.431257344,-0.485898942,0,0,0,,0,95,95,91,1,
,,,,,,,,,,,,,,,,,,5efff21045937e0f18c41b2e,2020-08-10_13h18.32.102,lexical_decision_task_MP,2020.1.3,Win32,60,,m,1,0.613775,,,,,,,,0.613775,1,,,,,,16,WORD,"ID",33,faucet,FAUCET,m,,,,,,0.431257344,-0.485898942,0,0,0,,0,96,96,15,1,
,,,,,,,,,,,,,,,,,,5efff21045937e0f18c41b2e,2020-08-10_13h18.32.102,lexical_decision_task_MP,2020.1.3,Win32,60,,z,1,0.59486,,,,,,,,0.59486,1,,,,,,415,NW,UN,33,pathel,HIGSTA,z,,,,,,0.431257344,-0.485898942,0,0,0,,0,97,97,414,1,
,,,,,,,,,,,,,,,,,,5efff21045937e0f18c41b2e,2020-08-10_13h18.32.102,lexical_decision_task_MP,2020.1.3,Win32,60,,z,1,0.60727,,,,,,,,0.60727,1,,,,,,435,NW,UN,50,frutan,IMPURB,z,,,,,,0.431257344,-0.485898942,0,0,0,,0,98,98,434,1,
,,,,,,,,,,,,,,,,,,5efff21045937e0f18c41b2e,2020-08-10_13h18.32.102,lexical_decision_task_MP,2020.1.3,Win32,60,,m,1,0.57226,,,,,,,,0.57226,1,,,,,,159,WORD,UN,33,violet,DETAIL,m,,,,,,0.431257344,-0.485898942,0,0,0,,0,99,99,158,1,
,,,,,,,,,,,,,,,,,,5efff21045937e0f18c41b2e,2020-08-10_13h18.32.102,lexical_decision_task_MP,2020.1.3,Win32,60,,z,1,0.70633,,,,,,,,0.70633,1,,,,,,291,NW,"ID",33,pretch,PRETCH,z,,,,,,0.431257344,-0.485898942,0,0,0,,0,100,100,290,1,
,,,,,,,,,,,,,,,,,,5efff21045937e0f18c41b2e,2020-08-10_13h18.32.102,lexical_decision_task_MP,2020.1.3,Win32,60,,m,1,0.55293,,,,,,,,0.55293,1,,,,,,53,WORD,"ID",33,police,POLICE,m,,,,,,0.431257344,-0.485898942,0,0,0,,0,101,101,52,1,
,,,,,,,,,,,,,,,,,,5efff21045937e0f18c41b2e,2020-08-10_13h18.32.102,lexical_decision_task_MP,2020.1.3,Win32,60,,z,1,0.78434,,,,,,,,0.78434,1,,,,,,353,NW,"ID",50,clurey,CLUREY,z,,,,,,0.431257344,-0.485898942,0,0,0,,0,102,102,352,1,
,,,,,,,,,,,,,,,,,,5efff21045937e0f18c41b2e,2020-08-10_13h18.32.102,lexical_decision_task_MP,2020.1.3,Win32,60,,m,1,0.60671,,,,,,,,0.60671,1,,,,,,181,WORD,UN,50,winter,GLANCE,m,,,,,,0.431257344,-0.485898942,0,0,0,,0,103,103,180,1,
,,,,,,,,,,,,,,,,,,5efff21045937e0f18c41b2e,2020-08-10_13h18.32.102,lexical_decision_task_MP,2020.1.3,Win32,60,,m,1,0.582475,,,,,,,,0.582475,1,,,,,,30,WORD,"ID",33,orient,ORIENT,m,,,,,,0.431257344,-0.485898942,0,0,0,,0,104,104,29,1,
,,,,,,,,,,,,,,,,,,5efff21045937e0f18c41b2e,2020-08-10_13h18.32.102,lexical_decision_task_MP,2020.1.3,Win32,60,,z,1,0.5436,,,,,,,,0.5436,1,,,,,,279,NW,"ID",33,celond,CELOND,z,,,,,,0.431257344,-0.485898942,0,0,0,,0,105,105,278,1,
,,,,,,,,,,,,,,,,,,5efff21045937e0f18c41b2e,2020-08-10_13h18.32.102,lexical_decision_task_MP,2020.1.3,Win32,60,,m,1,0.52063,,,,,,,,0.52063,1,,,,,,117,WORD,"ID",50,branch,BRANCH,m,,,,,,0.431257344,-0.485898942,0,0,0,,0,106,106,116,1,
,,,,,,,,,,,,,,,,,,5efff21045937e0f18c41b2e,2020-08-10_13h18.32.102,lexical_decision_task_MP,2020.1.3,Win32,60,,z,0,0.676095,,,,,,,,0.676095,0,,,,,,20,WORD,"ID",33,breast,BREAST,m,,,,,,0.431257344,-0.485898942,0,0,0,,0,107,107,19,1,
,,,,,,,,,,,,,,,,,,5efff21045937e0f18c41b2e,2020-08-10_13h18.32.102,lexical_decision_task_MP,2020.1.3,Win32,60,,z,1,0.750075,,,,,,,,0.750075,1,,,,,,449,NW,UN,50,phrect,BRUNGE,z,,,,,,0.431257344,-0.485898942,0,0,0,,0,108,108,448,1,
,,,,,,,,,,,,,,,,,,5efff21045937e0f18c41b2e,2020-08-10_13h18.32.102,lexical_decision_task_MP,2020.1.3,Win32,60,,z,1,0.858565,,,,,,,,0.858565,1,,,,,,453,NW,UN,50,scouge,BOLVIS,z,,,,,,0.431257344,-0.485898942,0,0,0,,0,109,109,452,1,
,,,,,,,,,,,,,,,,,,5efff21045937e0f18c41b2e,2020-08-10_13h18.32.102,lexical_decision_task_MP,2020.1.3,Win32,60,,z,1,0.60832,,,,,,,,0.60832,1,,,,,,321,NW,"ID",50,miator,MIATOR,z,,,,,,0.431257344,-0.485898942,0,0,0,,0,110,110,320,1,
,,,,,,,,,,,,,,,,,,5efff21045937e0f18c41b2e,2020-08-10_13h18.32.102,lexical_decision_task_MP,2020.1.3,Win32,60,,m,1,0.55795,,,,,,,,0.55795,1,,,,,,63,WORD,"ID",50,launch,LAUNCH,m,,,,,,0.431257344,-0.485898942,0,0,0,,0,111,111,62,1,
,,,,,,,,,,,,,,,,,,5efff21045937e0f18c41b2e,2020-08-10_13h18.32.102,lexical_decision_task_MP,2020.1.3,Win32,60,,m,1,0.630895,,,,,,,,0.630895,1,,,,,,19,WORD,"ID",33,patron,PATRON,m,,,,,,0.431257344,-0.485898942,0,0,0,,0,112,112,18,1,
,,,,,,,,,,,,,,,,,,5efff21045937e0f18c41b2e,2020-08-10_13h18.32.102,lexical_decision_task_MP,2020.1.3,Win32,60,,m,1,0.647505,,,,,,,,0.647505,1,,,,,,189,WORD,UN,50,backup,CENSOR,m,,,,,,0.431257344,-0.485898942,0,0,0,,0,113,113,188,1,
,,,,,,,,,,,,,,,,,,5efff21045937e0f18c41b2e,2020-08-10_13h18.32.102,lexical_decision_task_MP,2020.1.3,Win32,60,,z,1,0.583705,,,,,,,,0.583705,1,,,,,,339,NW,"ID",50,fachow,FACHOW,z,,,,,,0.431257344,-0.485898942,0,0,0,,0,114,114,338,1,
,,,,,,,,,,,,,,,,,,5efff21045937e0f18c41b2e,2020-08-10_13h18.32.102,lexical_decision_task_MP,2020.1.3,Win32,60,,m,1,0.598905,,,,,,,,0.598905,1,,,,,,153,WORD,UN,33,author,BEHOLD,m,,,,,,0.431257344,-0.485898942,0,0,0,,0,115,115,152,1,
,,,,,,,,,,,,,,,,,,5efff21045937e0f18c41b2e,2020-08-10_13h18.32.102,lexical_decision_task_MP,2020.1.3,Win32,60,,m,1,0.575335,,,,,,,,0.575335,1,,,,,,239,WORD,UN,50,forest,LUMBER,m,,,,,,0.431257344,-0.485898942,0,0,0,,0,116,116,238,1,
,,,,,,,,,,,,,,,,,,5efff21045937e0f18c41b2e,2020-08-10_13h18.32.102,lexical_decision_task_MP,2020.1.3,Win32,60,,m,1,0.602755,,,,,,,,0.602755,1,,,,,,98,WORD,"ID",50,belong,BELONG,m,,,,,,0.431257344,-0.485898942,0,0,0,,0,117,117,97,1,
,,,,,,,,,,,,,,,,,,5efff21045937e0f18c41b2e,2020-08-10_13h18.32.102,lexical_decision_task_MP,2020.1.3,Win32,60,,m,1,0.61159,,,,,,,,0.61159,1,,,,,,180,WORD,UN,33,thrive,SILENT,m,,,,,,0.431257344,-0.485898942,0,0,0,,0,118,118,179,1,
,,,,,,,,,,,,,,,,,,5efff21045937e0f18c41b2e,2020-08-10_13h18.32.102,lexical_decision_task_MP,2020.1.3,Win32,60,,m,1,0.665945,,,,,,,,0.665945,1,,,,,,140,WORD,UN,33,reason,PRINCE,m,,,,,,0.431257344,-0.485898942,0,0,0,,0,119,119,139,1,
,,,,,,,,,,,,,,,,,,5efff21045937e0f18c41b2e,2020-08-10_13h18.32.102,lexical_decision_task_MP,2020.1.3,Win32,60,,z,1,0.534165,,,,,,,,0.534165,1,,,,,,375,NW,UN,33,iguare,YORQUE,z,,,,,,0.431257344,-0.485898942,0,0,0,space,0,120,120,374,1,16.619525
,,,,,,,,,,,,,,,,,,5efff21045937e0f18c41b2e,2020-08-10_13h18.32.102,lexical_decision_task_MP,2020.1.3,Win32,60,,z,1,0.72352,,,,,,,,0.72352,1,,,,,,322,NW,"ID",50,slanch,SLANCH,z,,,,,,0.431257344,-0.485898942,0,0,0,,0,121,121,321,1,
,,,,,,,,,,,,,,,,,,5efff21045937e0f18c41b2e,2020-08-10_13h18.32.102,lexical_decision_task_MP,2020.1.3,Win32,60,,z,1,0.594795,,,,,,,,0.594795,1,,,,,,438,NW,UN,50,limpor,BAITCH,z,,,,,,0.431257344,-0.485898942,0,0,0,,0,122,122,437,1,
,,,,,,,,,,,,,,,,,,5efff21045937e0f18c41b2e,2020-08-10_13h18.32.102,lexical_decision_task_MP,2020.1.3,Win32,60,,m,1,0.6243,,,,,,,,0.6243,1,,,,,,193,WORD,UN,50,plague,OBJECT,m,,,,,,0.431257344,-0.485898942,0,0,0,,0,123,123,192,1,
,,,,,,,,,,,,,,,,,,5efff21045937e0f18c41b2e,2020-08-10_13h18.32.102,lexical_decision_task_MP,2020.1.3,Win32,60,,z,1,0.581505,,,,,,,,0.581505,1,,,,,,373,NW,UN,33,injore,BIGENT,z,,,,,,0.431257344,-0.485898942,0,0,0,,0,124,124,372,1,
,,,,,,,,,,,,,,,,,,5efff21045937e0f18c41b2e,2020-08-10_13h18.32.102,lexical_decision_task_MP,2020.1.3,Win32,60,,m,1,0.58728,,,,,,,,0.58728,1,,,,,,195,WORD,UN,50,credit,RESIGN,m,,,,,,0.431257344,-0.485898942,0,0,0,,0,125,125,194,1,
,,,,,,,,,,,,,,,,,,5efff21045937e0f18c41b2e,2020-08-10_13h18.32.102,lexical_decision_task_MP,2020.1.3,Win32,60,,z,1,0.68739,,,,,,,,0.68739,1,,,,,,439,NW,UN,50,saride,LIMPOR,z,,,,,,0.431257344,-0.485898942,0,0,0,,0,126,126,438,1,
,,,,,,,,,,,,,,,,,,5efff21045937e0f18c41b2e,2020-08-10_13h18.32.102,lexical_decision_task_MP,2020.1.3,Win32,60,,m,1,0.52394,,,,,,,,0.52394,1,,,,,,76,WORD,"ID",50,exotic,EXOTIC,m,,,,,,0.431257344,-0.485898942,0,0,0,,0,127,127,75,1,
,,,,,,,,,,,,,,,,,,5efff21045937e0f18c41b2e,2020-08-10_13h18.32.102,lexical_decision_task_MP,2020.1.3,Win32,60,,m,1,0.71643,,,,,,,,0.71643,1,,,,,,104,WORD,"ID",50,studio,STUDIO,m,,,,,,0.431257344,-0.485898942,0,0,0,,0,128,128,103,1,
,,,,,,,,,,,,,,,,,,5efff21045937e0f18c41b2e,2020-08-10_13h18.32.102,lexical_decision_task_MP,2020.1.3,Win32,60,,z,1,0.632185,,,,,,,,0.632185,1,,,,,,365,NW,UN,33,toshel,GUAIRT,z,,,,,,0.431257344,-0.485898942,0,0,0,,0,129,129,364,1,
,,,,,,,,,,,,,,,,,,5efff21045937e0f18c41b2e,2020-08-10_13h18.32.102,lexical_decision_task_MP,2020.1.3,Win32,60,,m,1,0.522825,,,,,,,,0.522825,1,,,,,,94,WORD,"ID",50,travel,TRAVEL,m,,,,,,0.431257344,-0.485898942,0,0,0,,0,130,130,93,1,
,,,,,,,,,,,,,,,,,,5efff21045937e0f18c41b2e,2020-08-10_13h18.32.102,lexical_decision_task_MP,2020.1.3,Win32,60,,z,1,0.6712,,,,,,,,0.6712,1,,,,,,331,NW,"ID",50,gilfew,GILFEW,z,,,,,,0.431257344,-0.485898942,0,0,0,,0,131,131,330,1,
,,,,,,,,,,,,,,,,,,5efff21045937e0f18c41b2e,2020-08-10_13h18.32.102,lexical_decision_task_MP,2020.1.3,Win32,60,,m,1,0.592955,,,,,,,,0.592955,1,,,,,,50,WORD,"ID",33,snatch,SNATCH,m,,,,,,0.431257344,-0.485898942,0,0,0,,0,132,132,49,1,
,,,,,,,,,,,,,,,,,,5efff21045937e0f18c41b2e,2020-08-10_13h18.32.102,lexical_decision_task_MP,2020.1.3,Win32,60,,z,1,0.598,,,,,,,,0.598,1,,,,,,363,NW,UN,33,impote,BREALI,z,,,,,,0.431257344,-0.485898942,0,0,0,,0,133,133,362,1,
,,,,,,,,,,,,,,,,,,5efff21045937e0f18c41b2e,2020-08-10_13h18.32.102,lexical_decision_task_MP,2020.1.3,Win32,60,,z,1,0.920065,,,,,,,,0.920065,1,,,,,,345,NW,"ID",50,absend,ABSEND,z,,,,,,0.431257344,-0.485898942,0,0,0,,0,134,134,344,1,
,,,,,,,,,,,,,,,,,,5efff21045937e0f18c41b2e,2020-08-10_13h18.32.102,lexical_decision_task_MP,2020.1.3,Win32,60,,m,1,0.608245,,,,,,,,0.608245,1,,,,,,237,WORD,UN,50,seldom,POSTER,m,,,,,,0.431257344,-0.485898942,0,0,0,,0,135,135,236,1,
,,,,,,,,,,,,,,,,,,5efff21045937e0f18c41b2e,2020-08-10_13h18.32.102,lexical_decision_task_MP,2020.1.3,Win32,60,,z,1,0.67446,,,,,,,,0.67446,1,,,,,,413,NW,UN,33,serbol,EQUATS,z,,,,,,0.431257344,-0.485898942,0,0,0,,0,136,136,412,1,
,,,,,,,,,,,,,,,,,,5efff21045937e0f18c41b2e,2020-08-10_13h18.32.102,lexical_decision_task_MP,2020.1.3,Win32,60,,m,1,0.53244,,,,,,,,0.53244,1,,,,,,219,WORD,UN,50,voyage,BUCKET,m,,,,,,0.431257344,-0.485898942,0,0,0,,0,137,137,218,1,
,,,,,,,,,,,,,,,,,,5efff21045937e0f18c41b2e,2020-08-10_13h18.32.102,lexical_decision_task_MP,2020.1.3,Win32,60,,m,1,0.564115,,,,,,,,0.564115,1,,,,,,121,WORD,UN,33,linger,THRIVE,m,,,,,,0.431257344,-0.485898942,0,0,0,,0,138,138,120,1,
,,,,,,,,,,,,,,,,,,5efff21045937e0f18c41b2e,2020-08-10_13h18.32.102,lexical_decision_task_MP,2020.1.3,Win32,60,,m,1,0.587745,,,,,,,,0.587745,1,,,,,,120,WORD,"ID",50,strain,STRAIN,m,,,,,,0.431257344,-0.485898942,0,0,0,,0,139,139,119,1,
,,,,,,,,,,,,,,,,,,5efff21045937e0f18c41b2e,2020-08-10_13h18.32.102,lexical_decision_task_MP,2020.1.3,Win32,60,,z,1,0.60999,,,,,,,,0.60999,1,,,,,,405,NW,UN,33,nouply,FLUMNI,z,,,,,,0.431257344,-0.485898942,0,0,0,,0,140,140,404,1,
,,,,,,,,,,,,,,,,,,5efff21045937e0f18c41b2e,2020-08-10_13h18.32.102,lexical_decision_task_MP,2020.1.3,Win32,60,,m,1,1.1717,,,,,,,,1.1717,1,,,,,,211,WORD,UN,50,verify,INFECT,m,,,,,,0.431257344,-0.485898942,0,0,0,,0,141,141,210,1,
,,,,,,,,,,,,,,,,,,5efff21045937e0f18c41b2e,2020-08-10_13h18.32.102,lexical_decision_task_MP,2020.1.3,Win32,60,,m,1,0.564985,,,,,,,,0.564985,1,,,,,,223,WORD,UN,50,period,KIDNEY,m,,,,,,0.431257344,-0.485898942,0,0,0,,0,142,142,222,1,
,,,,,,,,,,,,,,,,,,5efff21045937e0f18c41b2e,2020-08-10_13h18.32.102,lexical_decision_task_MP,2020.1.3,Win32,60,,m,1,0.570045,,,,,,,,0.570045,1,,,,,,168,WORD,UN,33,genius,ANSWER,m,,,,,,0.431257344,-0.485898942,0,0,0,,0,143,143,167,1,
,,,,,,,,,,,,,,,,,,5efff21045937e0f18c41b2e,2020-08-10_13h18.32.102,lexical_decision_task_MP,2020.1.3,Win32,60,,z,1,0.51546,,,,,,,,0.51546,1,,,,,,351,NW,"ID",50,tiesch,TIESCH,z,,,,,,0.431257344,-0.485898942,0,0,0,,0,144,144,350,1,
,,,,,,,,,,,,,,,,,,5efff21045937e0f18c41b2e,2020-08-10_13h18.32.102,lexical_decision_task_MP,2020.1.3,Win32,60,,m,1,0.57327,,,,,,,,0.57327,1,,,,,,232,WORD,UN,50,nature,INJECT,m,,,,,,0.431257344,-0.485898942,0,0,0,,0,145,145,231,1,
,,,,,,,,,,,,,,,,,,5efff21045937e0f18c41b2e,2020-08-10_13h18.32.102,lexical_decision_task_MP,2020.1.3,Win32,60,,m,1,0.555055,,,,,,,,0.555055,1,,,,,,48,WORD,"ID",33,walnut,WALNUT,m,,,,,,0.431257344,-0.485898942,0,0,0,,0,146,146,47,1,
,,,,,,,,,,,,,,,,,,5efff21045937e0f18c41b2e,2020-08-10_13h18.32.102,lexical_decision_task_MP,2020.1.3,Win32,60,,z,1,0.510175,,,,,,,,0.510175,1,,,,,,451,NW,UN,50,surden,CAINKY,z,,,,,,0.431257344,-0.485898942,0,0,0,,0,147,147,450,1,
,,,,,,,,,,,,,,,,,,5efff21045937e0f18c41b2e,2020-08-10_13h18.32.102,lexical_decision_task_MP,2020.1.3,Win32,60,,m,1,0.57985,,,,,,,,0.57985,1,,,,,,35,WORD,"ID",33,socket,SOCKET,m,,,,,,0.431257344,-0.485898942,0,0,0,,0,148,148,34,1,
,,,,,,,,,,,,,,,,,,5efff21045937e0f18c41b2e,2020-08-10_13h18.32.102,lexical_decision_task_MP,2020.1.3,Win32,60,,z,1,0.53917,,,,,,,,0.53917,1,,,,,,393,NW,UN,33,spaqux,GANOUS,z,,,,,,0.431257344,-0.485898942,0,0,0,,0,149,149,392,1,
,,,,,,,,,,,,,,,,,,5efff21045937e0f18c41b2e,2020-08-10_13h18.32.102,lexical_decision_task_MP,2020.1.3,Win32,60,,m,1,0.55198,,,,,,,,0.55198,1,,,,,,40,WORD,"ID",33,convey,CONVEY,m,,,,,,0.431257344,-0.485898942,0,0,0,,0,150,150,39,1,
,,,,,,,,,,,,,,,,,,5efff21045937e0f18c41b2e,2020-08-10_13h18.32.102,lexical_decision_task_MP,2020.1.3,Win32,60,,z,1,0.618495,,,,,,,,0.618495,1,,,,,,391,NW,UN,33,rouncy,THELDY,z,,,,,,0.431257344,-0.485898942,0,0,0,,0,151,151,390,1,
,,,,,,,,,,,,,,,,,,5efff21045937e0f18c41b2e,2020-08-10_13h18.32.102,lexical_decision_task_MP,2020.1.3,Win32,60,,m,0,0.57585,,,,,,,,0.57585,0,,,,,,303,NW,"ID",50,fiream,FIREAM,z,,,,,,0.431257344,-0.485898942,0,0,0,,0,152,152,302,1,
,,,,,,,,,,,,,,,,,,5efff21045937e0f18c41b2e,2020-08-10_13h18.32.102,lexical_decision_task_MP,2020.1.3,Win32,60,,z,1,0.798955,,,,,,,,0.798955,1,,,,,,338,NW,"ID",50,wreash,WREASH,z,,,,,,0.431257344,-0.485898942,0,0,0,,0,153,153,337,1,
,,,,,,,,,,,,,,,,,,5efff21045937e0f18c41b2e,2020-08-10_13h18.32.102,lexical_decision_task_MP,2020.1.3,Win32,60,,m,1,0.63687,,,,,,,,0.63687,1,,,,,,164,WORD,UN,33,invest,MARKET,m,,,,,,0.431257344,-0.485898942,0,0,0,,0,154,154,163,1,
,,,,,,,,,,,,,,,,,,5efff21045937e0f18c41b2e,2020-08-10_13h18.32.102,lexical_decision_task_MP,2020.1.3,Win32,60,,z,1,0.508855,,,,,,,,0.508855,1,,,,,,467,NW,UN,50,wictor,GORBIE,z,,,,,,0.431257344,-0.485898942,0,0,0,,0,155,155,466,1,
,,,,,,,,,,,,,,,,,,5efff21045937e0f18c41b2e,2020-08-10_13h18.32.102,lexical_decision_task_MP,2020.1.3,Win32,60,,z,0,0.58009,,,,,,,,0.58009,0,,,,,,74,WORD,"ID",50,plaque,PLAQUE,m,,,,,,0.431257344,-0.485898942,0,0,0,,0,156,156,73,1,
,,,,,,,,,,,,,,,,,,5efff21045937e0f18c41b2e,2020-08-10_13h18.32.102,lexical_decision_task_MP,2020.1.3,Win32,60,,m,1,0.63381,,,,,,,,0.63381,1,,,,,,31,WORD,"ID",33,weapon,WEAPON,m,,,,,,0.431257344,-0.485898942,0,0,0,,0,157,157,30,1,
,,,,,,,,,,,,,,,,,,5efff21045937e0f18c41b2e,2020-08-10_13h18.32.102,lexical_decision_task_MP,2020.1.3,Win32,60,,z,1,0.666815,,,,,,,,0.666815,1,,,,,,404,NW,UN,33,syntic,CLUIRM,z,,,,,,0.431257344,-0.485898942,0,0,0,,0,158,158,403,1,
,,,,,,,,,,,,,,,,,,5efff21045937e0f18c41b2e,2020-08-10_13h18.32.102,lexical_decision_task_MP,2020.1.3,Win32,60,,z,1,0.65078,,,,,,,,0.65078,1,,,,,,436,NW,UN,50,snapel,FRUTAN,z,,,,,,0.431257344,-0.485898942,0,0,0,,0,159,159,435,1,
,,,,,,,,,,,,,,,,,,5efff21045937e0f18c41b2e,2020-08-10_13h18.32.102,lexical_decision_task_MP,2020.1.3,Win32,60,,z,1,0.658535,,,,,,,,0.658535,1,,,,,,324,NW,"ID",50,steikh,STEIKH,z,,,,,,0.431257344,-0.485898942,0,0,0,,0,160,160,323,1,
,,,,,,,,,,,,,,,,,,5efff21045937e0f18c41b2e,2020-08-10_13h18.32.102,lexical_decision_task_MP,2020.1.3,Win32,60,,z,1,0.630715,,,,,,,,0.630715,1,,,,,,476,NW,UN,50,photie,JOSTED,z,,,,,,0.431257344,-0.485898942,0,0,0,,0,161,161,475,1,
,,,,,,,,,,,,,,,,,,5efff21045937e0f18c41b2e,2020-08-10_13h18.32.102,lexical_decision_task_MP,2020.1.3,Win32,60,,z,1,0.63364,,,,,,,,0.63364,1,,,,,,421,NW,UN,50,alcoud,KNISMA,z,,,,,,0.431257344,-0.485898942,0,0,0,,0,162,162,420,1,
,,,,,,,,,,,,,,,,,,5efff21045937e0f18c41b2e,2020-08-10_13h18.32.102,lexical_decision_task_MP,2020.1.3,Win32,60,,m,1,0.61592,,,,,,,,0.61592,1,,,,,,43,WORD,"ID",33,tongue,TONGUE,m,,,,,,0.431257344,-0.485898942,0,0,0,,0,163,163,42,1,
,,,,,,,,,,,,,,,,,,5efff21045937e0f18c41b2e,2020-08-10_13h18.32.102,lexical_decision_task_MP,2020.1.3,Win32,60,,z,1,0.58748,,,,,,,,0.58748,1,,,,,,347,NW,"ID",50,kerift,KERIFT,z,,,,,,0.431257344,-0.485898942,0,0,0,,0,164,164,346,1,
,,,,,,,,,,,,,,,,,,5efff21045937e0f18c41b2e,2020-08-10_13h18.32.102,lexical_decision_task_MP,2020.1.3,Win32,60,,z,1,0.683515,,,,,,,,0.683515,1,,,,,,386,NW,UN,33,gronce,ANCUST,z,,,,,,0.431257344,-0.485898942,0,0,0,,0,165,165,385,1,
,,,,,,,,,,,,,,,,,,5efff21045937e0f18c41b2e,2020-08-10_13h18.32.102,lexical_decision_task_MP,2020.1.3,Win32,60,,z,1,0.65949,,,,,,,,0.65949,1,,,,,,388,NW,UN,33,witmer,CRAGIN,z,,,,,,0.431257344,-0.485898942,0,0,0,,0,166,166,387,1,
,,,,,,,,,,,,,,,,,,5efff21045937e0f18c41b2e,2020-08-10_13h18.32.102,lexical_decision_task_MP,2020.1.3,Win32,60,,z,1,0.681015,,,,,,,,0.681015,1,,,,,,277,NW,"ID",33,petain,PETAIN,z,,,,,,0.431257344,-0.485898942,0,0,0,,0,167,167,276,1,
,,,,,,,,,,,,,,,,,,5efff21045937e0f18c41b2e,2020-08-10_13h18.32.102,lexical_decision_task_MP,2020.1.3,Win32,60,,m,1,0.540905,,,,,,,,0.540905,1,,,,,,101,WORD,"ID",50,wrench,WRENCH,m,,,,,,0.431257344,-0.485898942,0,0,0,,0,168,168,100,1,
,,,,,,,,,,,,,,,,,,5efff21045937e0f18c41b2e,2020-08-10_13h18.32.102,lexical_decision_task_MP,2020.1.3,Win32,60,,m,1,0.533625,,,,,,,,0.533625,1,,,,,,191,WORD,UN,50,absent,STABLE,m,,,,,,0.431257344,-0.485898942,0,0,0,,0,169,169,190,1,
,,,,,,,,,,,,,,,,,,5efff21045937e0f18c41b2e,2020-08-10_13h18.32.102,lexical_decision_task_MP,2020.1.3,Win32,60,,m,1,0.57111,,,,,,,,0.57111,1,,,,,,68,WORD,"ID",50,fumble,FUMBLE,m,,,,,,0.431257344,-0.485898942,0,0,0,,0,170,170,67,1,
,,,,,,,,,,,,,,,,,,5efff21045937e0f18c41b2e,2020-08-10_13h18.32.102,lexical_decision_task_MP,2020.1.3,Win32,60,,z,1,0.61462,,,,,,,,0.61462,1,,,,,,390,NW,UN,33,theldy,HATRUS,z,,,,,,0.431257344,-0.485898942,0,0,0,,0,171,171,389,1,
,,,,,,,,,,,,,,,,,,5efff21045937e0f18c41b2e,2020-08-10_13h18.32.102,lexical_decision_task_MP,2020.1.3,Win32,60,,z,1,0.696635,,,,,,,,0.696635,1,,,,,,269,NW,"ID",33,orchet,ORCHET,z,,,,,,0.431257344,-0.485898942,0,0,0,,0,172,172,268,1,
,,,,,,,,,,,,,,,,,,5efff21045937e0f18c41b2e,2020-08-10_13h18.32.102,lexical_decision_task_MP,2020.1.3,Win32,60,,z,1,0.6168,,,,,,,,0.6168,1,,,,,,325,NW,"ID",50,thruse,THRUSE,z,,,,,,0.431257344,-0.485898942,0,0,0,,0,173,173,324,1,
,,,,,,,,,,,,,,,,,,5efff21045937e0f18c41b2e,2020-08-10_13h18.32.102,lexical_decision_task_MP,2020.1.3,Win32,60,,z,1,0.650505,,,,,,,,0.650505,1,,,,,,248,NW,"ID",33,strole,STROLE,z,,,,,,0.431257344,-0.485898942,0,0,0,,0,174,174,247,1,
,,,,,,,,,,,,,,,,,,5efff21045937e0f18c41b2e,2020-08-10_13h18.32.102,lexical_decision_task_MP,2020.1.3,Win32,60,,m,1,0.61417,,,,,,,,0.61417,1,,,,,,128,WORD,UN,33,marvel,SENIOR,m,,,,,,0.431257344,-0.485898942,0,0,0,,0,175,175,127,1,
,,,,,,,,,,,,,,,,,,5efff21045937e0f18c41b2e,2020-08-10_13h18.32.102,lexical_decision_task_MP,2020.1.3,Win32,60,,m,1,0.534435,,,,,,,,0.534435,1,,,,,,175,WORD,UN,33,strife,FABRIC,m,,,,,,0.431257344,-0.485898942,0,0,0,,0,176,176,174,1,
,,,,,,,,,,,,,,,,,,5efff21045937e0f18c41b2e,2020-08-10_13h18.32.102,lexical_decision_task_MP,2020.1.3,Win32,60,,m,1,0.530925,,,,,,,,0.530925,1,,,,,,72,WORD,"ID",50,bright,BRIGHT,m,,,,,,0.431257344,-0.485898942,0,0,0,,0,177,177,71,1,
,,,,,,,,,,,,,,,,,,5efff21045937e0f18c41b2e,2020-08-10_13h18.32.102,lexical_decision_task_MP,2020.1.3,Win32,60,,z,1,0.53638,,,,,,,,0.53638,1,,,,,,412,NW,UN,33,equats,JILUER,z,,,,,,0.431257344,-0.485898942,0,0,0,,0,178,178,411,1,
,,,,,,,,,,,,,,,,,,5efff21045937e0f18c41b2e,2020-08-10_13h18.32.102,lexical_decision_task_MP,2020.1.3,Win32,60,,m,1,0.54826,,,,,,,,0.54826,1,,,,,,197,WORD,UN,50,wicked,STREAM,m,,,,,,0.431257344,-0.485898942,0,0,0,,0,179,179,196,1,
,,,,,,,,,,,,,,,,,,5efff21045937e0f18c41b2e,2020-08-10_13h18.32.102,lexical_decision_task_MP,2020.1.3,Win32,60,,m,1,0.53334,,,,,,,,0.53334,1,,,,,,228,WORD,UN,50,inject,MASTER,m,,,,,,0.431257344,-0.485898942,0,0,0,,0,180,180,227,1,
,,,,,,,,,,,,,,,,,,5efff21045937e0f18c41b2e,2020-08-10_13h18.32.102,lexical_decision_task_MP,2020.1.3,Win32,60,,z,1,0.56732,,,,,,,,0.56732,1,,,,,,446,NW,UN,50,gircue,RUNAMO,z,,,,,,0.431257344,-0.485898942,0,0,0,,0,181,181,445,1,
,,,,,,,,,,,,,,,,,,5efff21045937e0f18c41b2e,2020-08-10_13h18.32.102,lexical_decision_task_MP,2020.1.3,Win32,60,,m,1,0.581675,,,,,,,,0.581675,1,,,,,,160,WORD,UN,33,dragon,VIOLET,m,,,,,,0.431257344,-0.485898942,0,0,0,,0,182,182,159,1,
,,,,,,,,,,,,,,,,,,5efff21045937e0f18c41b2e,2020-08-10_13h18.32.102,lexical_decision_task_MP,2020.1.3,Win32,60,,z,1,0.57173,,,,,,,,0.57173,1,,,,,,364,NW,UN,33,guairt,IMPOTE,z,,,,,,0.431257344,-0.485898942,0,0,0,,0,183,183,363,1,
,,,,,,,,,,,,,,,,,,5efff21045937e0f18c41b2e,2020-08-10_13h18.32.102,lexical_decision_task_MP,2020.1.3,Win32,60,,m,1,0.54928,,,,,,,,0.54928,1,,,,,,36,WORD,"ID",33,vanish,VANISH,m,,,,,,0.431257344,-0.485898942,0,0,0,,0,184,184,35,1,
,,,,,,,,,,,,,,,,,,5efff21045937e0f18c41b2e,2020-08-10_13h18.32.102,lexical_decision_task_MP,2020.1.3,Win32,60,,z,1,0.536905,,,,,,,,0.536905,1,,,,,,444,NW,UN,50,minkel,JAUNCE,z,,,,,,0.431257344,-0.485898942,0,0,0,,0,185,185,443,1,
,,,,,,,,,,,,,,,,,,5efff21045937e0f18c41b2e,2020-08-10_13h18.32.102,lexical_decision_task_MP,2020.1.3,Win32,60,,z,1,0.68111,,,,,,,,0.68111,1,,,,,,440,NW,UN,50,cainky,SARIDE,z,,,,,,0.431257344,-0.485898942,0,0,0,,0,186,186,439,1,
,,,,,,,,,,,,,,,,,,5efff21045937e0f18c41b2e,2020-08-10_13h18.32.102,lexical_decision_task_MP,2020.1.3,Win32,60,,m,1,0.59916,,,,,,,,0.59916,1,,,,,,73,WORD,"ID",50,source,SOURCE,m,,,,,,0.431257344,-0.485898942,0,0,0,,0,187,187,72,1,
,,,,,,,,,,,,,,,,,,5efff21045937e0f18c41b2e,2020-08-10_13h18.32.102,lexical_decision_task_MP,2020.1.3,Win32,60,,m,1,0.55799,,,,,,,,0.55799,1,,,,,,212,WORD,UN,50,squeal,VERIFY,m,,,,,,0.431257344,-0.485898942,0,0,0,,0,188,188,211,1,
,,,,,,,,,,,,,,,,,,5efff21045937e0f18c41b2e,2020-08-10_13h18.32.102,lexical_decision_task_MP,2020.1.3,Win32,60,,z,1,0.685185,,,,,,,,0.685185,1,,,,,,377,NW,UN,33,shrile,INJORE,z,,,,,,0.431257344,-0.485898942,0,0,0,,0,189,189,376,1,
,,,,,,,,,,,,,,,,,,5efff21045937e0f18c41b2e,2020-08-10_13h18.32.102,lexical_decision_task_MP,2020.1.3,Win32,60,,m,1,0.66695,,,,,,,,0.66695,1,,,,,,226,WORD,UN,50,flower,CASINO,m,,,,,,0.431257344,-0.485898942,0,0,0,,0,190,190,225,1,
,,,,,,,,,,,,,,,,,,5efff21045937e0f18c41b2e,2020-08-10_13h18.32.102,lexical_decision_task_MP,2020.1.3,Win32,60,,m,1,0.519765,,,,,,,,0.519765,1,,,,,,148,WORD,UN,33,invade,CUSTOM,m,,,,,,0.431257344,-0.485898942,0,0,0,,0,191,191,147,1,
,,,,,,,,,,,,,,,,,,5efff21045937e0f18c41b2e,2020-08-10_13h18.32.102,lexical_decision_task_MP,2020.1.3,Win32,60,,z,1,0.63646,,,,,,,,0.63646,1,,,,,,475,NW,UN,50,robuly,PEBRIC,z,,,,,,0.431257344,-0.485898942,0,0,0,,0,192,192,474,1,
,,,,,,,,,,,,,,,,,,5efff21045937e0f18c41b2e,2020-08-10_13h18.32.102,lexical_decision_task_MP,2020.1.3,Win32,60,,m,1,0.66891,,,,,,,,0.66891,1,,,,,,187,WORD,UN,50,social,COURSE,m,,,,,,0.431257344,-0.485898942,0,0,0,,0,193,193,186,1,
,,,,,,,,,,,,,,,,,,5efff21045937e0f18c41b2e,2020-08-10_13h18.32.102,lexical_decision_task_MP,2020.1.3,Win32,60,,m,1,0.619885,,,,,,,,0.619885,1,,,,,,144,WORD,UN,33,parish,SPONGE,m,,,,,,0.431257344,-0.485898942,0,0,0,,0,194,194,143,1,
,,,,,,,,,,,,,,,,,,5efff21045937e0f18c41b2e,2020-08-10_13h18.32.102,lexical_decision_task_MP,2020.1.3,Win32,60,,m,1,0.50661,,,,,,,,0.50661,1,,,,,,126,WORD,UN,33,castle,ENOUGH,m,,,,,,0.431257344,-0.485898942,0,0,0,,0,195,195,125,1,
,,,,,,,,,,,,,,,,,,5efff21045937e0f18c41b2e,2020-08-10_13h18.32.102,lexical_decision_task_MP,2020.1.3,Win32,60,,m,1,0.518435,,,,,,,,0.518435,1,,,,,,123,WORD,UN,33,enough,STRIKE,m,,,,,,0.431257344,-0.485898942,0,0,0,,0,196,196,122,1,
,,,,,,,,,,,,,,,,,,5efff21045937e0f18c41b2e,2020-08-10_13h18.32.102,lexical_decision_task_MP,2020.1.3,Win32,60,,m,1,0.568235,,,,,,,,0.568235,1,,,,,,178,WORD,UN,33,mildew,INFORM,m,,,,,,0.431257344,-0.485898942,0,0,0,,0,197,197,177,1,
,,,,,,,,,,,,,,,,,,5efff21045937e0f18c41b2e,2020-08-10_13h18.32.102,lexical_decision_task_MP,2020.1.3,Win32,60,,z,1,0.655995,,,,,,,,0.655995,1,,,,,,320,NW,"ID",50,jockal,JOCKAL,z,,,,,,0.431257344,-0.485898942,0,0,0,,0,198,198,319,1,
,,,,,,,,,,,,,,,,,,5efff21045937e0f18c41b2e,2020-08-10_13h18.32.102,lexical_decision_task_MP,2020.1.3,Win32,60,,m,1,0.591665,,,,,,,,0.591665,1,,,,,,185,WORD,UN,50,portal,BOTHER,m,,,,,,0.431257344,-0.485898942,0,0,0,,0,199,199,184,1,
,,,,,,,,,,,,,,,,,,5efff21045937e0f18c41b2e,2020-08-10_13h18.32.102,lexical_decision_task_MP,2020.1.3,Win32,60,,m,1,0.50433,,,,,,,,0.50433,1,,,,,,11,WORD,"ID",33,cruise,CRUISE,m,,,,,,0.431257344,-0.485898942,0,0,0,,0,200,200,10,1,
,,,,,,,,,,,,,,,,,,5efff21045937e0f18c41b2e,2020-08-10_13h18.32.102,lexical_decision_task_MP,2020.1.3,Win32,60,,m,1,0.468885,,,,,,,,0.468885,1,,,,,,28,WORD,"ID",33,comedy,COMEDY,m,,,,,,0.431257344,-0.485898942,0,0,0,,0,201,201,27,1,
,,,,,,,,,,,,,,,,,,5efff21045937e0f18c41b2e,2020-08-10_13h18.32.102,lexical_decision_task_MP,2020.1.3,Win32,60,,m,1,0.4776,,,,,,,,0.4776,1,,,,,,162,WORD,UN,33,string,CANDLE,m,,,,,,0.431257344,-0.485898942,0,0,0,,0,202,202,161,1,
,,,,,,,,,,,,,,,,,,5efff21045937e0f18c41b2e,2020-08-10_13h18.32.102,lexical_decision_task_MP,2020.1.3,Win32,60,,m,1,0.48496,,,,,,,,0.48496,1,,,,,,240,WORD,UN,50,glance,FOREST,m,,,,,,0.431257344,-0.485898942,0,0,0,,0,203,203,239,1,
,,,,,,,,,,,,,,,,,,5efff21045937e0f18c41b2e,2020-08-10_13h18.32.102,lexical_decision_task_MP,2020.1.3,Win32,60,,z,1,0.51886,,,,,,,,0.51886,1,,,,,,431,NW,UN,50,lunker,CHRUMS,z,,,,,,0.431257344,-0.485898942,0,0,0,,0,204,204,430,1,
,,,,,,,,,,,,,,,,,,5efff21045937e0f18c41b2e,2020-08-10_13h18.32.102,lexical_decision_task_MP,2020.1.3,Win32,60,,m,1,0.699685,,,,,,,,0.699685,1,,,,,,135,WORD,UN,33,chrome,IMPORT,m,,,,,,0.431257344,-0.485898942,0,0,0,,0,205,205,134,1,
,,,,,,,,,,,,,,,,,,5efff21045937e0f18c41b2e,2020-08-10_13h18.32.102,lexical_decision_task_MP,2020.1.3,Win32,60,,z,1,0.640245,,,,,,,,0.640245,1,,,,,,424,NW,UN,50,urivel,PRAILE,z,,,,,,0.431257344,-0.485898942,0,0,0,,0,206,206,423,1,
,,,,,,,,,,,,,,,,,,5efff21045937e0f18c41b2e,2020-08-10_13h18.32.102,lexical_decision_task_MP,2020.1.3,Win32,60,,z,1,0.552245,,,,,,,,0.552245,1,,,,,,264,NW,"ID",33,vackel,VACKEL,z,,,,,,0.431257344,-0.485898942,0,0,0,,0,207,207,263,1,
,,,,,,,,,,,,,,,,,,5efff21045937e0f18c41b2e,2020-08-10_13h18.32.102,lexical_decision_task_MP,2020.1.3,Win32,60,,m,1,0.525505,,,,,,,,0.525505,1,,,,,,119,WORD,"ID",50,spider,SPIDER,m,,,,,,0.431257344,-0.485898942,0,0,0,,0,208,208,118,1,
,,,,,,,,,,,,,,,,,,5efff21045937e0f18c41b2e,2020-08-10_13h18.32.102,lexical_decision_task_MP,2020.1.3,Win32,60,,z,1,0.57003,,,,,,,,0.57003,1,,,,,,383,NW,UN,33,guesco,AUNGRE,z,,,,,,0.431257344,-0.485898942,0,0,0,,0,209,209,382,1,
,,,,,,,,,,,,,,,,,,5efff21045937e0f18c41b2e,2020-08-10_13h18.32.102,lexical_decision_task_MP,2020.1.3,Win32,60,,m,1,0.502625,,,,,,,,0.502625,1,,,,,,210,WORD,UN,50,infect,MONKEY,m,,,,,,0.431257344,-0.485898942,0,0,0,,0,210,210,209,1,
,,,,,,,,,,,,,,,,,,5efff21045937e0f18c41b2e,2020-08-10_13h18.32.102,lexical_decision_task_MP,2020.1.3,Win32,60,,m,1,0.50032,,,,,,,,0.50032,1,,,,,,207,WORD,UN,50,hockey,WREATH,m,,,,,,0.431257344,-0.485898942,0,0,0,,0,211,211,206,1,
,,,,,,,,,,,,,,,,,,5efff21045937e0f18c41b2e,2020-08-10_13h18.32.102,lexical_decision_task_MP,2020.1.3,Win32,60,,z,1,0.59397,,,,,,,,0.59397,1,,,,,,477,NW,UN,50,acrise,PHOTIE,z,,,,,,0.431257344,-0.485898942,0,0,0,,0,212,212,476,1,
,,,,,,,,,,,,,,,,,,5efff21045937e0f18c41b2e,2020-08-10_13h18.32.102,lexical_decision_task_MP,2020.1.3,Win32,60,,z,1,0.64915,,,,,,,,0.64915,1,,,,,,342,NW,"ID",50,randow,RANDOW,z,,,,,,0.431257344,-0.485898942,0,0,0,,0,213,213,341,1,
,,,,,,,,,,,,,,,,,,5efff21045937e0f18c41b2e,2020-08-10_13h18.32.102,lexical_decision_task_MP,2020.1.3,Win32,60,,z,1,0.55036,,,,,,,,0.55036,1,,,,,,313,NW,"ID",50,paurse,PAURSE,z,,,,,,0.431257344,-0.485898942,0,0,0,,0,214,214,312,1,
,,,,,,,,,,,,,,,,,,5efff21045937e0f18c41b2e,2020-08-10_13h18.32.102,lexical_decision_task_MP,2020.1.3,Win32,60,,z,1,0.647675,,,,,,,,0.647675,1,,,,,,316,NW,"ID",50,scregm,SCREGM,z,,,,,,0.431257344,-0.485898942,0,0,0,,0,215,215,315,1,
,,,,,,,,,,,,,,,,,,5efff21045937e0f18c41b2e,2020-08-10_13h18.32.102,lexical_decision_task_MP,2020.1.3,Win32,60,,z,1,0.525375,,,,,,,,0.525375,1,,,,,,246,NW,"ID",33,piaton,PIATON,z,,,,,,0.431257344,-0.485898942,0,0,0,,0,216,216,245,1,
,,,,,,,,,,,,,,,,,,5efff21045937e0f18c41b2e,2020-08-10_13h18.32.102,lexical_decision_task_MP,2020.1.3,Win32,60,,m,1,0.592145,,,,,,,,0.592145,1,,,,,,56,WORD,"ID",33,ambush,AMBUSH,m,,,,,,0.431257344,-0.485898942,0,0,0,,0,217,217,55,1,
,,,,,,,,,,,,,,,,,,5efff21045937e0f18c41b2e,2020-08-10_13h18.32.102,lexical_decision_task_MP,2020.1.3,Win32,60,,z,1,0.696715,,,,,,,,0.696715,1,,,,,,328,NW,"ID",50,broake,BROAKE,z,,,,,,0.431257344,-0.485898942,0,0,0,,0,218,218,327,1,
,,,,,,,,,,,,,,,,,,5efff21045937e0f18c41b2e,2020-08-10_13h18.32.102,lexical_decision_task_MP,2020.1.3,Win32,60,,z,1,0.57574,,,,,,,,0.57574,1,,,,,,406,NW,UN,33,suiver,NOUPLY,z,,,,,,0.431257344,-0.485898942,0,0,0,,0,219,219,405,1,
,,,,,,,,,,,,,,,,,,5efff21045937e0f18c41b2e,2020-08-10_13h18.32.102,lexical_decision_task_MP,2020.1.3,Win32,60,,z,1,0.797785,,,,,,,,0.797785,1,,,,,,468,NW,UN,50,padifs,WICTOR,z,,,,,,0.431257344,-0.485898942,0,0,0,,0,220,220,467,1,
,,,,,,,,,,,,,,,,,,5efff21045937e0f18c41b2e,2020-08-10_13h18.32.102,lexical_decision_task_MP,2020.1.3,Win32,60,,z,1,0.68524,,,,,,,,0.68524,1,,,,,,293,NW,"ID",33,swance,SWANCE,z,,,,,,0.431257344,-0.485898942,0,0,0,,0,221,221,292,1,
,,,,,,,,,,,,,,,,,,5efff21045937e0f18c41b2e,2020-08-10_13h18.32.102,lexical_decision_task_MP,2020.1.3,Win32,60,,m,1,0.561455,,,,,,,,0.561455,1,,,,,,51,WORD,"ID",33,hungry,HUNGRY,m,,,,,,0.431257344,-0.485898942,0,0,0,,0,222,222,50,1,
,,,,,,,,,,,,,,,,,,5efff21045937e0f18c41b2e,2020-08-10_13h18.32.102,lexical_decision_task_MP,2020.1.3,Win32,60,,m,1,0.79094,,,,,,,,0.79094,1,,,,,,192,WORD,UN,50,object,PLAGUE,m,,,,,,0.431257344,-0.485898942,0,0,0,,0,223,223,191,1,
,,,,,,,,,,,,,,,,,,5efff21045937e0f18c41b2e,2020-08-10_13h18.32.102,lexical_decision_task_MP,2020.1.3,Win32,60,,z,1,0.648095,,,,,,,,0.648095,1,,,,,,423,NW,UN,50,praile,STRELD,z,,,,,,0.431257344,-0.485898942,0,0,0,,0,224,224,422,1,
,,,,,,,,,,,,,,,,,,5efff21045937e0f18c41b2e,2020-08-10_13h18.32.102,lexical_decision_task_MP,2020.1.3,Win32,60,,m,1,0.583055,,,,,,,,0.583055,1,,,,,,100,WORD,"ID",50,carbon,CARBON,m,,,,,,0.431257344,-0.485898942,0,0,0,,0,225,225,99,1,
,,,,,,,,,,,,,,,,,,5efff21045937e0f18c41b2e,2020-08-10_13h18.32.102,lexical_decision_task_MP,2020.1.3,Win32,60,,m,1,0.506885,,,,,,,,0.506885,1,,,,,,182,WORD,UN,50,basket,WINTER,m,,,,,,0.431257344,-0.485898942,0,0,0,,0,226,226,181,1,
,,,,,,,,,,,,,,,,,,5efff21045937e0f18c41b2e,2020-08-10_13h18.32.102,lexical_decision_task_MP,2020.1.3,Win32,60,,z,1,0.59679,,,,,,,,0.59679,1,,,,,,285,NW,"ID",33,prudge,PRUDGE,z,,,,,,0.431257344,-0.485898942,0,0,0,,0,227,227,284,1,
,,,,,,,,,,,,,,,,,,5efff21045937e0f18c41b2e,2020-08-10_13h18.32.102,lexical_decision_task_MP,2020.1.3,Win32,60,,m,1,0.534555,,,,,,,,0.534555,1,,,,,,229,WORD,UN,50,fringe,MOTHER,m,,,,,,0.431257344,-0.485898942,0,0,0,,0,228,228,228,1,
,,,,,,,,,,,,,,,,,,5efff21045937e0f18c41b2e,2020-08-10_13h18.32.102,lexical_decision_task_MP,2020.1.3,Win32,60,,m,1,0.627105,,,,,,,,0.627105,1,,,,,,29,WORD,"ID",33,sketch,SKETCH,m,,,,,,0.431257344,-0.485898942,0,0,0,,0,229,229,28,1,
,,,,,,,,,,,,,,,,,,5efff21045937e0f18c41b2e,2020-08-10_13h18.32.102,lexical_decision_task_MP,2020.1.3,Win32,60,,m,1,0.57213,,,,,,,,0.57213,1,,,,,,33,WORD,"ID",33,butler,BUTLER,m,,,,,,0.431257344,-0.485898942,0,0,0,,0,230,230,32,1,
,,,,,,,,,,,,,,,,,,5efff21045937e0f18c41b2e,2020-08-10_13h18.32.102,lexical_decision_task_MP,2020.1.3,Win32,60,,z,1,0.557255,,,,,,,,0.557255,1,,,,,,417,NW,UN,33,suidle,EAROUD,z,,,,,,0.431257344,-0.485898942,0,0,0,,0,231,231,416,1,
,,,,,,,,,,,,,,,,,,5efff21045937e0f18c41b2e,2020-08-10_13h18.32.102,lexical_decision_task_MP,2020.1.3,Win32,60,,z,1,0.56702,,,,,,,,0.56702,1,,,,,,257,NW,"ID",33,veniod,VENIOD,z,,,,,,0.431257344,-0.485898942,0,0,0,,0,232,232,256,1,
,,,,,,,,,,,,,,,,,,5efff21045937e0f18c41b2e,2020-08-10_13h18.32.102,lexical_decision_task_MP,2020.1.3,Win32,60,,m,1,0.53129,,,,,,,,0.53129,1,,,,,,87,WORD,"ID",50,filter,FILTER,m,,,,,,0.431257344,-0.485898942,0,0,0,,0,233,233,86,1,
,,,,,,,,,,,,,,,,,,5efff21045937e0f18c41b2e,2020-08-10_13h18.32.102,lexical_decision_task_MP,2020.1.3,Win32,60,,z,1,0.566445,,,,,,,,0.566445,1,,,,,,251,NW,"ID",33,lupict,LUPICT,z,,,,,,0.431257344,-0.485898942,0,0,0,,0,234,234,250,1,
,,,,,,,,,,,,,,,,,,5efff21045937e0f18c41b2e,2020-08-10_13h18.32.102,lexical_decision_task_MP,2020.1.3,Win32,60,,z,1,0.54716,,,,,,,,0.54716,1,,,,,,262,NW,"ID",33,quilew,QUILEW,z,,,,,,0.431257344,-0.485898942,0,0,0,,0,235,235,261,1,
,,,,,,,,,,,,,,,,,,5efff21045937e0f18c41b2e,2020-08-10_13h18.32.102,lexical_decision_task_MP,2020.1.3,Win32,60,,z,1,0.65439,,,,,,,,0.65439,1,,,,,,253,NW,"ID",33,resait,RESAIT,z,,,,,,0.431257344,-0.485898942,0,0,0,,0,236,236,252,1,
,,,,,,,,,,,,,,,,,,5efff21045937e0f18c41b2e,2020-08-10_13h18.32.102,lexical_decision_task_MP,2020.1.3,Win32,60,,z,1,0.524065,,,,,,,,0.524065,1,,,,,,281,NW,"ID",33,melaty,MELATY,z,,,,,,0.431257344,-0.485898942,0,0,0,,0,237,237,280,1,
,,,,,,,,,,,,,,,,,,5efff21045937e0f18c41b2e,2020-08-10_13h18.32.102,lexical_decision_task_MP,2020.1.3,Win32,60,,z,1,0.515125,,,,,,,,0.515125,1,,,,,,258,NW,"ID",33,poluth,POLUTH,z,,,,,,0.431257344,-0.485898942,0,0,0,,0,238,238,257,1,
,,,,,,,,,,,,,,,,,,5efff21045937e0f18c41b2e,2020-08-10_13h18.32.102,lexical_decision_task_MP,2020.1.3,Win32,60,,z,1,0.602125,,,,,,,,0.602125,1,,,,,,323,NW,"ID",50,rosail,ROSAIL,z,,,,,,0.431257344,-0.485898942,0,0,0,,0,239,239,322,1,
,,,,,,,,,,,,,,,,,,5efff21045937e0f18c41b2e,2020-08-10_13h18.32.102,lexical_decision_task_MP,2020.1.3,Win32,60,,m,1,0.908315,,,,,,,,0.908315,1,,,,,,52,WORD,"ID",33,impose,IMPOSE,m,,,,,,0.431257344,-0.485898942,0,0,0,,0,240,240,51,1,
,,,,,,,,,,,,,,,,,,5efff21045937e0f18c41b2e,2020-08-10_13h18.32.102,lexical_decision_task_MP,2020.1.3,Win32,60,,z,1,0.56978,,,,,,,,0.56978,1,,,,,,401,NW,UN,33,elopia,MUSTIL,z,,,,,,0.431257344,-0.485898942,0,0,0,space,0,241,241,400,1,85.01806
,,,,,,,,,,,,,,,,,,5efff21045937e0f18c41b2e,2020-08-10_13h18.32.102,lexical_decision_task_MP,2020.1.3,Win32,60,,m,1,0.682345,,,,,,,,0.682345,1,,,,,,154,WORD,UN,33,lizard,AUTHOR,m,,,,,,0.431257344,-0.485898942,0,0,0,,0,242,242,153,1,
,,,,,,,,,,,,,,,,,,5efff21045937e0f18c41b2e,2020-08-10_13h18.32.102,lexical_decision_task_MP,2020.1.3,Win32,60,,z,1,0.49957,,,,,,,,0.49957,1,,,,,,283,NW,"ID",33,veralf,VERALF,z,,,,,,0.431257344,-0.485898942,0,0,0,,0,243,243,282,1,
,,,,,,,,,,,,,,,,,,5efff21045937e0f18c41b2e,2020-08-10_13h18.32.102,lexical_decision_task_MP,2020.1.3,Win32,60,,z,1,0.66045,,,,,,,,0.66045,1,,,,,,434,NW,UN,50,impurb,PITROM,z,,,,,,0.431257344,-0.485898942,0,0,0,,0,244,244,433,1,
,,,,,,,,,,,,,,,,,,5efff21045937e0f18c41b2e,2020-08-10_13h18.32.102,lexical_decision_task_MP,2020.1.3,Win32,60,,z,1,0.46011,,,,,,,,0.46011,1,,,,,,450,NW,UN,50,rastoe,PHRECT,z,,,,,,0.431257344,-0.485898942,0,0,0,,0,245,245,449,1,
,,,,,,,,,,,,,,,,,,5efff21045937e0f18c41b2e,2020-08-10_13h18.32.102,lexical_decision_task_MP,2020.1.3,Win32,60,,z,1,0.48498,,,,,,,,0.48498,1,,,,,,414,NW,UN,33,higsta,SERBOL,z,,,,,,0.431257344,-0.485898942,0,0,0,,0,246,246,413,1,
,,,,,,,,,,,,,,,,,,5efff21045937e0f18c41b2e,2020-08-10_13h18.32.102,lexical_decision_task_MP,2020.1.3,Win32,60,,z,1,0.59033,,,,,,,,0.59033,1,,,,,,370,NW,UN,33,geiloy,SLEACT,z,,,,,,0.431257344,-0.485898942,0,0,0,,0,247,247,369,1,
,,,,,,,,,,,,,,,,,,5efff21045937e0f18c41b2e,2020-08-10_13h18.32.102,lexical_decision_task_MP,2020.1.3,Win32,60,,z,1,0.53568,,,,,,,,0.53568,1,,,,,,318,NW,"ID",50,reagly,REAGLY,z,,,,,,0.431257344,-0.485898942,0,0,0,,0,248,248,317,1,
,,,,,,,,,,,,,,,,,,5efff21045937e0f18c41b2e,2020-08-10_13h18.32.102,lexical_decision_task_MP,2020.1.3,Win32,60,,z,1,0.617745,,,,,,,,0.617745,1,,,,,,343,NW,"ID",50,aimosy,AIMOSY,z,,,,,,0.431257344,-0.485898942,0,0,0,,0,249,249,342,1,
,,,,,,,,,,,,,,,,,,5efff21045937e0f18c41b2e,2020-08-10_13h18.32.102,lexical_decision_task_MP,2020.1.3,Win32,60,,z,1,0.96926,,,,,,,,0.96926,1,,,,,,462,NW,UN,50,kispel,ABSULT,z,,,,,,0.431257344,-0.485898942,0,0,0,,0,250,250,461,1,
,,,,,,,,,,,,,,,,,,5efff21045937e0f18c41b2e,2020-08-10_13h18.32.102,lexical_decision_task_MP,2020.1.3,Win32,60,,z,1,0.62685,,,,,,,,0.62685,1,,,,,,362,NW,UN,33,breali,TIREAU,z,,,,,,0.431257344,-0.485898942,0,0,0,,0,251,251,361,1,
,,,,,,,,,,,,,,,,,,5efff21045937e0f18c41b2e,2020-08-10_13h18.32.102,lexical_decision_task_MP,2020.1.3,Win32,60,,z,1,0.60514,,,,,,,,0.60514,1,,,,,,309,NW,"ID",50,amiloy,AMILOY,z,,,,,,0.431257344,-0.485898942,0,0,0,,0,252,252,308,1,
,,,,,,,,,,,,,,,,,,5efff21045937e0f18c41b2e,2020-08-10_13h18.32.102,lexical_decision_task_MP,2020.1.3,Win32,60,,m,1,0.7313,,,,,,,,0.7313,1,,,,,,6,WORD,"ID",33,bundle,BUNDLE,m,,,,,,0.431257344,-0.485898942,0,0,0,,0,253,253,5,1,
,,,,,,,,,,,,,,,,,,5efff21045937e0f18c41b2e,2020-08-10_13h18.32.102,lexical_decision_task_MP,2020.1.3,Win32,60,,z,1,0.58724,,,,,,,,0.58724,1,,,,,,356,NW,"ID",50,othnis,OTHNIS,z,,,,,,0.431257344,-0.485898942,0,0,0,,0,254,254,355,1,
,,,,,,,,,,,,,,,,,,5efff21045937e0f18c41b2e,2020-08-10_13h18.32.102,lexical_decision_task_MP,2020.1.3,Win32,60,,m,1,0.60064,,,,,,,,0.60064,1,,,,,,21,WORD,"ID",33,simple,SIMPLE,m,,,,,,0.431257344,-0.485898942,0,0,0,,0,255,255,20,1,
,,,,,,,,,,,,,,,,,,5efff21045937e0f18c41b2e,2020-08-10_13h18.32.102,lexical_decision_task_MP,2020.1.3,Win32,60,,m,1,0.568025,,,,,,,,0.568025,1,,,,,,136,WORD,UN,33,finger,BLEACH,m,,,,,,0.431257344,-0.485898942,0,0,0,,0,256,256,135,1,
,,,,,,,,,,,,,,,,,,5efff21045937e0f18c41b2e,2020-08-10_13h18.32.102,lexical_decision_task_MP,2020.1.3,Win32,60,,m,1,0.72515,,,,,,,,0.72515,1,,,,,,200,WORD,UN,50,admire,BEACON,m,,,,,,0.431257344,-0.485898942,0,0,0,,0,257,257,199,1,
,,,,,,,,,,,,,,,,,,5efff21045937e0f18c41b2e,2020-08-10_13h18.32.102,lexical_decision_task_MP,2020.1.3,Win32,60,,z,1,0.515845,,,,,,,,0.515845,1,,,,,,471,NW,UN,50,cigney,NOBEST,z,,,,,,0.431257344,-0.485898942,0,0,0,,0,258,258,470,1,
,,,,,,,,,,,,,,,,,,5efff21045937e0f18c41b2e,2020-08-10_13h18.32.102,lexical_decision_task_MP,2020.1.3,Win32,60,,z,1,0.822575,,,,,,,,0.822575,1,,,,,,332,NW,"ID",50,vangue,VANGUE,z,,,,,,0.431257344,-0.485898942,0,0,0,,0,259,259,331,1,
,,,,,,,,,,,,,,,,,,5efff21045937e0f18c41b2e,2020-08-10_13h18.32.102,lexical_decision_task_MP,2020.1.3,Win32,60,,z,1,0.682235,,,,,,,,0.682235,1,,,,,,261,NW,"ID",33,stunch,STUNCH,z,,,,,,0.431257344,-0.485898942,0,0,0,,0,260,260,260,1,
,,,,,,,,,,,,,,,,,,5efff21045937e0f18c41b2e,2020-08-10_13h18.32.102,lexical_decision_task_MP,2020.1.3,Win32,60,,m,1,0.698835,,,,,,,,0.698835,1,,,,,,5,WORD,"ID",33,plunge,PLUNGE,m,,,,,,0.431257344,-0.485898942,0,0,0,,0,261,261,4,1,
,,,,,,,,,,,,,,,,,,5efff21045937e0f18c41b2e,2020-08-10_13h18.32.102,lexical_decision_task_MP,2020.1.3,Win32,60,,m,1,0.510105,,,,,,,,0.510105,1,,,,,,69,WORD,"ID",50,plenty,PLENTY,m,,,,,,0.431257344,-0.485898942,0,0,0,,0,262,262,68,1,
,,,,,,,,,,,,,,,,,,5efff21045937e0f18c41b2e,2020-08-10_13h18.32.102,lexical_decision_task_MP,2020.1.3,Win32,60,,m,1,0.508515,,,,,,,,0.508515,1,,,,,,109,WORD,"ID",50,wonder,WONDER,m,,,,,,0.431257344,-0.485898942,0,0,0,,0,263,263,108,1,
,,,,,,,,,,,,,,,,,,5efff21045937e0f18c41b2e,2020-08-10_13h18.32.102,lexical_decision_task_MP,2020.1.3,Win32,60,,z,1,0.604755,,,,,,,,0.604755,1,,,,,,292,NW,"ID",33,ablint,ABLINT,z,,,,,,0.431257344,-0.485898942,0,0,0,,0,264,264,291,1,
,,,,,,,,,,,,,,,,,,5efff21045937e0f18c41b2e,2020-08-10_13h18.32.102,lexical_decision_task_MP,2020.1.3,Win32,60,,m,1,0.606225,,,,,,,,0.606225,1,,,,,,127,WORD,UN,33,senior,CASTLE,m,,,,,,0.431257344,-0.485898942,0,0,0,,0,265,265,126,1,
,,,,,,,,,,,,,,,,,,5efff21045937e0f18c41b2e,2020-08-10_13h18.32.102,lexical_decision_task_MP,2020.1.3,Win32,60,,z,1,0.57374,,,,,,,,0.57374,1,,,,,,474,NW,UN,50,gorbie,HABLIN,z,,,,,,0.431257344,-0.485898942,0,0,0,,0,266,266,473,1,
,,,,,,,,,,,,,,,,,,5efff21045937e0f18c41b2e,2020-08-10_13h18.32.102,lexical_decision_task_MP,2020.1.3,Win32,60,,m,1,0.59977,,,,,,,,0.59977,1,,,,,,220,WORD,UN,50,mascot,VOYAGE,m,,,,,,0.431257344,-0.485898942,0,0,0,,0,267,267,219,1,
,,,,,,,,,,,,,,,,,,5efff21045937e0f18c41b2e,2020-08-10_13h18.32.102,lexical_decision_task_MP,2020.1.3,Win32,60,,z,1,0.514725,,,,,,,,0.514725,1,,,,,,310,NW,"ID",50,daniet,DANIET,z,,,,,,0.431257344,-0.485898942,0,0,0,,0,268,268,309,1,
,,,,,,,,,,,,,,,,,,5efff21045937e0f18c41b2e,2020-08-10_13h18.32.102,lexical_decision_task_MP,2020.1.3,Win32,60,,m,1,0.55182,,,,,,,,0.55182,1,,,,,,203,WORD,UN,50,burden,PHRASE,m,,,,,,0.431257344,-0.485898942,0,0,0,,0,269,269,202,1,
,,,,,,,,,,,,,,,,,,5efff21045937e0f18c41b2e,2020-08-10_13h18.32.102,lexical_decision_task_MP,2020.1.3,Win32,60,,z,0,0.62475,,,,,,,,0.62475,0,,,,,,166,WORD,UN,33,design,STARCH,m,,,,,,0.431257344,-0.485898942,0,0,0,,0,270,270,165,1,
,,,,,,,,,,,,,,,,,,5efff21045937e0f18c41b2e,2020-08-10_13h18.32.102,lexical_decision_task_MP,2020.1.3,Win32,60,,z,1,0.88184,,,,,,,,0.88184,1,,,,,,341,NW,"ID",50,myrtie,MYRTIE,z,,,,,,0.431257344,-0.485898942,0,0,0,,0,271,271,340,1,
,,,,,,,,,,,,,,,,,,5efff21045937e0f18c41b2e,2020-08-10_13h18.32.102,lexical_decision_task_MP,2020.1.3,Win32,60,,m,1,0.656445,,,,,,,,0.656445,1,,,,,,61,WORD,"ID",50,ponder,PONDER,m,,,,,,0.431257344,-0.485898942,0,0,0,,0,272,272,60,1,
,,,,,,,,,,,,,,,,,,5efff21045937e0f18c41b2e,2020-08-10_13h18.32.102,lexical_decision_task_MP,2020.1.3,Win32,60,,z,1,0.54401,,,,,,,,0.54401,1,,,,,,403,NW,UN,33,cluirm,BRUATS,z,,,,,,0.431257344,-0.485898942,0,0,0,,0,273,273,402,1,
,,,,,,,,,,,,,,,,,,5efff21045937e0f18c41b2e,2020-08-10_13h18.32.102,lexical_decision_task_MP,2020.1.3,Win32,60,,z,1,0.53623,,,,,,,,0.53623,1,,,,,,329,NW,"ID",50,yarike,YARIKE,z,,,,,,0.431257344,-0.485898942,0,0,0,,0,274,274,328,1,
,,,,,,,,,,,,,,,,,,5efff21045937e0f18c41b2e,2020-08-10_13h18.32.102,lexical_decision_task_MP,2020.1.3,Win32,60,,m,1,0.55295,,,,,,,,0.55295,1,,,,,,39,WORD,"ID",33,insect,INSECT,m,,,,,,0.431257344,-0.485898942,0,0,0,,0,275,275,38,1,
,,,,,,,,,,,,,,,,,,5efff21045937e0f18c41b2e,2020-08-10_13h18.32.102,lexical_decision_task_MP,2020.1.3,Win32,60,,m,1,0.492965,,,,,,,,0.492965,1,,,,,,71,WORD,"ID",50,garden,GARDEN,m,,,,,,0.431257344,-0.485898942,0,0,0,,0,276,276,70,1,
,,,,,,,,,,,,,,,,,,5efff21045937e0f18c41b2e,2020-08-10_13h18.32.102,lexical_decision_task_MP,2020.1.3,Win32,60,,m,1,0.64763,,,,,,,,0.64763,1,,,,,,231,WORD,UN,50,mother,EXPORT,m,,,,,,0.431257344,-0.485898942,0,0,0,,0,277,277,230,1,
,,,,,,,,,,,,,,,,,,5efff21045937e0f18c41b2e,2020-08-10_13h18.32.102,lexical_decision_task_MP,2020.1.3,Win32,60,,z,1,0.516675,,,,,,,,0.516675,1,,,,,,302,NW,"ID",50,miluer,MILUER,z,,,,,,0.431257344,-0.485898942,0,0,0,,0,278,278,301,1,
,,,,,,,,,,,,,,,,,,5efff21045937e0f18c41b2e,2020-08-10_13h18.32.102,lexical_decision_task_MP,2020.1.3,Win32,60,,m,1,0.50857,,,,,,,,0.50857,1,,,,,,102,WORD,"ID",50,direct,DIRECT,m,,,,,,0.431257344,-0.485898942,0,0,0,,0,279,279,101,1,
,,,,,,,,,,,,,,,,,,5efff21045937e0f18c41b2e,2020-08-10_13h18.32.102,lexical_decision_task_MP,2020.1.3,Win32,60,,m,1,0.55576,,,,,,,,0.55576,1,,,,,,194,WORD,UN,50,resign,ABSENT,m,,,,,,0.431257344,-0.485898942,0,0,0,,0,280,280,193,1,
,,,,,,,,,,,,,,,,,,5efff21045937e0f18c41b2e,2020-08-10_13h18.32.102,lexical_decision_task_MP,2020.1.3,Win32,60,,z,1,0.78907,,,,,,,,0.78907,1,,,,,,287,NW,"ID",33,nymbel,NYMBEL,z,,,,,,0.431257344,-0.485898942,0,0,0,,0,281,281,286,1,
,,,,,,,,,,,,,,,,,,5efff21045937e0f18c41b2e,2020-08-10_13h18.32.102,lexical_decision_task_MP,2020.1.3,Win32,60,,z,1,0.575015,,,,,,,,0.575015,1,,,,,,394,NW,UN,33,colury,SPAQUX,z,,,,,,0.431257344,-0.485898942,0,0,0,,0,282,282,393,1,
,,,,,,,,,,,,,,,,,,5efff21045937e0f18c41b2e,2020-08-10_13h18.32.102,lexical_decision_task_MP,2020.1.3,Win32,60,,z,1,0.62577,,,,,,,,0.62577,1,,,,,,409,NW,UN,33,tunory,ELOPIA,z,,,,,,0.431257344,-0.485898942,0,0,0,,0,283,283,408,1,
,,,,,,,,,,,,,,,,,,5efff21045937e0f18c41b2e,2020-08-10_13h18.32.102,lexical_decision_task_MP,2020.1.3,Win32,60,,z,1,0.52492,,,,,,,,0.52492,1,,,,,,447,NW,UN,50,sadent,GIRCUE,z,,,,,,0.431257344,-0.485898942,0,0,0,,0,284,284,446,1,
,,,,,,,,,,,,,,,,,,5efff21045937e0f18c41b2e,2020-08-10_13h18.32.102,lexical_decision_task_MP,2020.1.3,Win32,60,,z,1,0.531775,,,,,,,,0.531775,1,,,,,,430,NW,UN,50,funtle,CAROEY,z,,,,,,0.431257344,-0.485898942,0,0,0,,0,285,285,429,1,
,,,,,,,,,,,,,,,,,,5efff21045937e0f18c41b2e,2020-08-10_13h18.32.102,lexical_decision_task_MP,2020.1.3,Win32,60,,z,1,0.598325,,,,,,,,0.598325,1,,,,,,354,NW,"ID",50,virlex,VIRLEX,z,,,,,,0.431257344,-0.485898942,0,0,0,,0,286,286,353,1,
,,,,,,,,,,,,,,,,,,5efff21045937e0f18c41b2e,2020-08-10_13h18.32.102,lexical_decision_task_MP,2020.1.3,Win32,60,,m,1,0.64908,,,,,,,,0.64908,1,,,,,,156,WORD,UN,33,pastor,CRADLE,m,,,,,,0.431257344,-0.485898942,0,0,0,,0,287,287,155,1,
,,,,,,,,,,,,,,,,,,5efff21045937e0f18c41b2e,2020-08-10_13h18.32.102,lexical_decision_task_MP,2020.1.3,Win32,60,,m,1,0.54745,,,,,,,,0.54745,1,,,,,,93,WORD,"ID",50,public,PUBLIC,m,,,,,,0.431257344,-0.485898942,0,0,0,,0,288,288,92,1,
,,,,,,,,,,,,,,,,,,5efff21045937e0f18c41b2e,2020-08-10_13h18.32.102,lexical_decision_task_MP,2020.1.3,Win32,60,,z,1,0.580855,,,,,,,,0.580855,1,,,,,,304,NW,"ID",50,cludie,CLUDIE,z,,,,,,0.431257344,-0.485898942,0,0,0,,0,289,289,303,1,
,,,,,,,,,,,,,,,,,,5efff21045937e0f18c41b2e,2020-08-10_13h18.32.102,lexical_decision_task_MP,2020.1.3,Win32,60,,z,1,0.522955,,,,,,,,0.522955,1,,,,,,259,NW,"ID",33,soudal,SOUDAL,z,,,,,,0.431257344,-0.485898942,0,0,0,,0,290,290,258,1,
,,,,,,,,,,,,,,,,,,5efff21045937e0f18c41b2e,2020-08-10_13h18.32.102,lexical_decision_task_MP,2020.1.3,Win32,60,,m,1,0.59929,,,,,,,,0.59929,1,,,,,,70,WORD,"ID",50,square,SQUARE,m,,,,,,0.431257344,-0.485898942,0,0,0,,0,291,291,69,1,
,,,,,,,,,,,,,,,,,,5efff21045937e0f18c41b2e,2020-08-10_13h18.32.102,lexical_decision_task_MP,2020.1.3,Win32,60,,m,1,0.600455,,,,,,,,0.600455,1,,,,,,125,WORD,UN,33,blouse,NICKEL,m,,,,,,0.431257344,-0.485898942,0,0,0,,0,292,292,124,1,
,,,,,,,,,,,,,,,,,,5efff21045937e0f18c41b2e,2020-08-10_13h18.32.102,lexical_decision_task_MP,2020.1.3,Win32,60,,m,1,0.602745,,,,,,,,0.602745,1,,,,,,150,WORD,UN,33,mystic,RANDOM,m,,,,,,0.431257344,-0.485898942,0,0,0,,0,293,293,149,1,
,,,,,,,,,,,,,,,,,,5efff21045937e0f18c41b2e,2020-08-10_13h18.32.102,lexical_decision_task_MP,2020.1.3,Win32,60,,z,1,0.587175,,,,,,,,0.587175,1,,,,,,280,NW,"ID",33,curbol,CURBOL,z,,,,,,0.431257344,-0.485898942,0,0,0,,0,294,294,279,1,
,,,,,,,,,,,,,,,,,,5efff21045937e0f18c41b2e,2020-08-10_13h18.32.102,lexical_decision_task_MP,2020.1.3,Win32,60,,m,1,0.525125,,,,,,,,0.525125,1,,,,,,3,WORD,"ID",33,knight,KNIGHT,m,,,,,,0.431257344,-0.485898942,0,0,0,,0,295,295,2,1,
,,,,,,,,,,,,,,,,,,5efff21045937e0f18c41b2e,2020-08-10_13h18.32.102,lexical_decision_task_MP,2020.1.3,Win32,60,,z,1,0.741425,,,,,,,,0.741425,1,,,,,,260,NW,"ID",33,unject,UNJECT,z,,,,,,0.431257344,-0.485898942,0,0,0,,0,296,296,259,1,
,,,,,,,,,,,,,,,,,,5efff21045937e0f18c41b2e,2020-08-10_13h18.32.102,lexical_decision_task_MP,2020.1.3,Win32,60,,z,1,0.54432,,,,,,,,0.54432,1,,,,,,419,NW,UN,33,gushop,SLOUNT,z,,,,,,0.431257344,-0.485898942,0,0,0,,0,297,297,418,1,
,,,,,,,,,,,,,,,,,,5efff21045937e0f18c41b2e,2020-08-10_13h18.32.102,lexical_decision_task_MP,2020.1.3,Win32,60,,m,1,0.533145,,,,,,,,0.533145,1,,,,,,17,WORD,"ID",33,charge,CHARGE,m,,,,,,0.431257344,-0.485898942,0,0,0,,0,298,298,16,1,
,,,,,,,,,,,,,,,,,,5efff21045937e0f18c41b2e,2020-08-10_13h18.32.102,lexical_decision_task_MP,2020.1.3,Win32,60,,z,1,0.5027,,,,,,,,0.5027,1,,,,,,254,NW,"ID",33,varosh,VAROSH,z,,,,,,0.431257344,-0.485898942,0,0,0,,0,299,299,253,1,
,,,,,,,,,,,,,,,,,,5efff21045937e0f18c41b2e,2020-08-10_13h18.32.102,lexical_decision_task_MP,2020.1.3,Win32,60,,m,1,0.620285,,,,,,,,0.620285,1,,,,,,213,WORD,UN,50,intake,SQUEAL,m,,,,,,0.431257344,-0.485898942,0,0,0,,0,300,300,212,1,
,,,,,,,,,,,,,,,,,,5efff21045937e0f18c41b2e,2020-08-10_13h18.32.102,lexical_decision_task_MP,2020.1.3,Win32,60,,m,1,0.538415,,,,,,,,0.538415,1,,,,,,238,WORD,UN,50,grumpy,FLOWER,m,,,,,,0.431257344,-0.485898942,0,0,0,,0,301,301,237,1,
,,,,,,,,,,,,,,,,,,5efff21045937e0f18c41b2e,2020-08-10_13h18.32.102,lexical_decision_task_MP,2020.1.3,Win32,60,,z,1,0.7806,,,,,,,,0.7806,1,,,,,,289,NW,"ID",33,starby,STARBY,z,,,,,,0.431257344,-0.485898942,0,0,0,,0,302,302,288,1,
,,,,,,,,,,,,,,,,,,5efff21045937e0f18c41b2e,2020-08-10_13h18.32.102,lexical_decision_task_MP,2020.1.3,Win32,60,,z,1,0.58452,,,,,,,,0.58452,1,,,,,,296,NW,"ID",33,beinch,BEINCH,z,,,,,,0.431257344,-0.485898942,0,0,0,,0,303,303,295,1,
,,,,,,,,,,,,,,,,,,5efff21045937e0f18c41b2e,2020-08-10_13h18.32.102,lexical_decision_task_MP,2020.1.3,Win32,60,,z,1,0.617005,,,,,,,,0.617005,1,,,,,,411,NW,UN,33,jiluer,ORCHIN,z,,,,,,0.431257344,-0.485898942,0,0,0,,0,304,304,410,1,
,,,,,,,,,,,,,,,,,,5efff21045937e0f18c41b2e,2020-08-10_13h18.32.102,lexical_decision_task_MP,2020.1.3,Win32,60,,m,1,0.600205,,,,,,,,0.600205,1,,,,,,143,WORD,UN,33,sponge,REASON,m,,,,,,0.431257344,-0.485898942,0,0,0,,0,305,305,142,1,
,,,,,,,,,,,,,,,,,,5efff21045937e0f18c41b2e,2020-08-10_13h18.32.102,lexical_decision_task_MP,2020.1.3,Win32,60,,z,1,0.539035,,,,,,,,0.539035,1,,,,,,402,NW,UN,33,bruats,SYNTIC,z,,,,,,0.431257344,-0.485898942,0,0,0,,0,306,306,401,1,
,,,,,,,,,,,,,,,,,,5efff21045937e0f18c41b2e,2020-08-10_13h18.32.102,lexical_decision_task_MP,2020.1.3,Win32,60,,z,1,0.497095,,,,,,,,0.497095,1,,,,,,334,NW,"ID",50,watmeg,WATMEG,z,,,,,,0.431257344,-0.485898942,0,0,0,,0,307,307,333,1,
,,,,,,,,,,,,,,,,,,5efff21045937e0f18c41b2e,2020-08-10_13h18.32.102,lexical_decision_task_MP,2020.1.3,Win32,60,,m,1,0.536395,,,,,,,,0.536395,1,,,,,,161,WORD,UN,33,candle,PASTOR,m,,,,,,0.431257344,-0.485898942,0,0,0,,0,308,308,160,1,
,,,,,,,,,,,,,,,,,,5efff21045937e0f18c41b2e,2020-08-10_13h18.32.102,lexical_decision_task_MP,2020.1.3,Win32,60,,m,1,0.54327,,,,,,,,0.54327,1,,,,,,97,WORD,"ID",50,client,CLIENT,m,,,,,,0.431257344,-0.485898942,0,0,0,,0,309,309,96,1,
,,,,,,,,,,,,,,,,,,5efff21045937e0f18c41b2e,2020-08-10_13h18.32.102,lexical_decision_task_MP,2020.1.3,Win32,60,,m,1,0.530415,,,,,,,,0.530415,1,,,,,,79,WORD,"ID",50,theory,THEORY,m,,,,,,0.431257344,-0.485898942,0,0,0,,0,310,310,78,1,
,,,,,,,,,,,,,,,,,,5efff21045937e0f18c41b2e,2020-08-10_13h18.32.102,lexical_decision_task_MP,2020.1.3,Win32,60,,m,1,0.47054,,,,,,,,0.47054,1,,,,,,22,WORD,"ID",33,jockey,JOCKEY,m,,,,,,0.431257344,-0.485898942,0,0,0,,0,311,311,21,1,
,,,,,,,,,,,,,,,,,,5efff21045937e0f18c41b2e,2020-08-10_13h18.32.102,lexical_decision_task_MP,2020.1.3,Win32,60,,m,1,0.460525,,,,,,,,0.460525,1,,,,,,27,WORD,"ID",33,scream,SCREAM,m,,,,,,0.431257344,-0.485898942,0,0,0,,0,312,312,26,1,
,,,,,,,,,,,,,,,,,,5efff21045937e0f18c41b2e,2020-08-10_13h18.32.102,lexical_decision_task_MP,2020.1.3,Win32,60,,z,1,0.530915,,,,,,,,0.530915,1,,,,,,242,NW,"ID",33,unwert,UNWERT,z,,,,,,0.431257344,-0.485898942,0,0,0,,0,313,313,241,1,
,,,,,,,,,,,,,,,,,,5efff21045937e0f18c41b2e,2020-08-10_13h18.32.102,lexical_decision_task_MP,2020.1.3,Win32,60,,z,1,0.49994,,,,,,,,0.49994,1,,,,,,368,NW,UN,33,wronch,HORNAL,z,,,,,,0.431257344,-0.485898942,0,0,0,,0,314,314,367,1,
,,,,,,,,,,,,,,,,,,5efff21045937e0f18c41b2e,2020-08-10_13h18.32.102,lexical_decision_task_MP,2020.1.3,Win32,60,,m,1,0.582365,,,,,,,,0.582365,1,,,,,,9,WORD,"ID",33,hustle,HUSTLE,m,,,,,,0.431257344,-0.485898942,0,0,0,,0,315,315,8,1,
,,,,,,,,,,,,,,,,,,5efff21045937e0f18c41b2e,2020-08-10_13h18.32.102,lexical_decision_task_MP,2020.1.3,Win32,60,,m,1,0.46804,,,,,,,,0.46804,1,,,,,,99,WORD,"ID",50,fluent,FLUENT,m,,,,,,0.431257344,-0.485898942,0,0,0,,0,316,316,98,1,
,,,,,,,,,,,,,,,,,,5efff21045937e0f18c41b2e,2020-08-10_13h18.32.102,lexical_decision_task_MP,2020.1.3,Win32,60,,m,1,0.539645,,,,,,,,0.539645,1,,,,,,116,WORD,"ID",50,tumble,TUMBLE,m,,,,,,0.431257344,-0.485898942,0,0,0,,0,317,317,115,1,
,,,,,,,,,,,,,,,,,,5efff21045937e0f18c41b2e,2020-08-10_13h18.32.102,lexical_decision_task_MP,2020.1.3,Win32,60,,z,1,0.59242,,,,,,,,0.59242,1,,,,,,387,NW,UN,33,cragin,GRONCE,z,,,,,,0.431257344,-0.485898942,0,0,0,,0,318,318,386,1,
,,,,,,,,,,,,,,,,,,5efff21045937e0f18c41b2e,2020-08-10_13h18.32.102,lexical_decision_task_MP,2020.1.3,Win32,60,,z,1,0.50882,,,,,,,,0.50882,1,,,,,,463,NW,UN,50,bafent,KISPEL,z,,,,,,0.431257344,-0.485898942,0,0,0,,0,319,319,462,1,
,,,,,,,,,,,,,,,,,,5efff21045937e0f18c41b2e,2020-08-10_13h18.32.102,lexical_decision_task_MP,2020.1.3,Win32,60,,m,1,0.502,,,,,,,,0.502,1,,,,,,12,WORD,"ID",33,orange,ORANGE,m,,,,,,0.431257344,-0.485898942,0,0,0,,0,320,320,11,1,
,,,,,,,,,,,,,,,,,,5efff21045937e0f18c41b2e,2020-08-10_13h18.32.102,lexical_decision_task_MP,2020.1.3,Win32,60,,z,1,0.583995,,,,,,,,0.583995,1,,,,,,479,NW,UN,50,josted,LOBUSH,z,,,,,,0.431257344,-0.485898942,0,0,0,,0,321,321,478,1,
,,,,,,,,,,,,,,,,,,5efff21045937e0f18c41b2e,2020-08-10_13h18.32.102,lexical_decision_task_MP,2020.1.3,Win32,60,,z,1,0.540945,,,,,,,,0.540945,1,,,,,,378,NW,UN,33,auting,SHRILE,z,,,,,,0.431257344,-0.485898942,0,0,0,,0,322,322,377,1,
,,,,,,,,,,,,,,,,,,5efff21045937e0f18c41b2e,2020-08-10_13h18.32.102,lexical_decision_task_MP,2020.1.3,Win32,60,,m,0,0.52484,,,,,,,,0.52484,0,,,,,,319,NW,"ID",50,zomber,ZOMBER,z,,,,,,0.431257344,-0.485898942,0,0,0,,0,323,323,318,1,
,,,,,,,,,,,,,,,,,,5efff21045937e0f18c41b2e,2020-08-10_13h18.32.102,lexical_decision_task_MP,2020.1.3,Win32,60,,z,1,0.604165,,,,,,,,0.604165,1,,,,,,437,NW,UN,50,baitch,SNAPEL,z,,,,,,0.431257344,-0.485898942,0,0,0,,0,324,324,436,1,
,,,,,,,,,,,,,,,,,,5efff21045937e0f18c41b2e,2020-08-10_13h18.32.102,lexical_decision_task_MP,2020.1.3,Win32,60,,z,1,0.568355,,,,,,,,0.568355,1,,,,,,300,NW,"ID",33,yarion,YARION,z,,,,,,0.431257344,-0.485898942,0,0,0,,0,325,325,299,1,
,,,,,,,,,,,,,,,,,,5efff21045937e0f18c41b2e,2020-08-10_13h18.32.102,lexical_decision_task_MP,2020.1.3,Win32,60,,z,1,0.56835,,,,,,,,0.56835,1,,,,,,295,NW,"ID",33,gleath,GLEATH,z,,,,,,0.431257344,-0.485898942,0,0,0,,0,326,326,294,1,
,,,,,,,,,,,,,,,,,,5efff21045937e0f18c41b2e,2020-08-10_13h18.32.102,lexical_decision_task_MP,2020.1.3,Win32,60,,z,1,0.61046,,,,,,,,0.61046,1,,,,,,273,NW,"ID",33,sortel,SORTEL,z,,,,,,0.431257344,-0.485898942,0,0,0,,0,327,327,272,1,
,,,,,,,,,,,,,,,,,,5efff21045937e0f18c41b2e,2020-08-10_13h18.32.102,lexical_decision_task_MP,2020.1.3,Win32,60,,z,1,0.650675,,,,,,,,0.650675,1,,,,,,398,NW,UN,33,fouret,BLUNDE,z,,,,,,0.431257344,-0.485898942,0,0,0,,0,328,328,397,1,
,,,,,,,,,,,,,,,,,,5efff21045937e0f18c41b2e,2020-08-10_13h18.32.102,lexical_decision_task_MP,2020.1.3,Win32,60,,z,1,0.56843,,,,,,,,0.56843,1,,,,,,290,NW,"ID",33,splino,SPLINO,z,,,,,,0.431257344,-0.485898942,0,0,0,,0,329,329,289,1,
,,,,,,,,,,,,,,,,,,5efff21045937e0f18c41b2e,2020-08-10_13h18.32.102,lexical_decision_task_MP,2020.1.3,Win32,60,,m,1,0.634955,,,,,,,,0.634955,1,,,,,,8,WORD,"ID",33,abrupt,ABRUPT,m,,,,,,0.431257344,-0.485898942,0,0,0,,0,330,330,7,1,
,,,,,,,,,,,,,,,,,,5efff21045937e0f18c41b2e,2020-08-10_13h18.32.102,lexical_decision_task_MP,2020.1.3,Win32,60,,m,1,0.584545,,,,,,,,0.584545,1,,,,,,233,WORD,UN,50,clumsy,NATURE,m,,,,,,0.431257344,-0.485898942,0,0,0,,0,331,331,232,1,
,,,,,,,,,,,,,,,,,,5efff21045937e0f18c41b2e,2020-08-10_13h18.32.102,lexical_decision_task_MP,2020.1.3,Win32,60,,z,1,0.580605,,,,,,,,0.580605,1,,,,,,327,NW,"ID",50,plenac,PLENAC,z,,,,,,0.431257344,-0.485898942,0,0,0,,0,332,332,326,1,
,,,,,,,,,,,,,,,,,,5efff21045937e0f18c41b2e,2020-08-10_13h18.32.102,lexical_decision_task_MP,2020.1.3,Win32,60,,z,1,0.551605,,,,,,,,0.551605,1,,,,,,305,NW,"ID",50,forgle,FORGLE,z,,,,,,0.431257344,-0.485898942,0,0,0,,0,333,333,304,1,
,,,,,,,,,,,,,,,,,,5efff21045937e0f18c41b2e,2020-08-10_13h18.32.102,lexical_decision_task_MP,2020.1.3,Win32,60,,m,1,0.553965,,,,,,,,0.553965,1,,,,,,113,WORD,"ID",50,chorus,CHORUS,m,,,,,,0.431257344,-0.485898942,0,0,0,,0,334,334,112,1,
,,,,,,,,,,,,,,,,,,5efff21045937e0f18c41b2e,2020-08-10_13h18.32.102,lexical_decision_task_MP,2020.1.3,Win32,60,,m,1,0.527045,,,,,,,,0.527045,1,,,,,,95,WORD,"ID",50,thread,THREAD,m,,,,,,0.431257344,-0.485898942,0,0,0,,0,335,335,94,1,
,,,,,,,,,,,,,,,,,,5efff21045937e0f18c41b2e,2020-08-10_13h18.32.102,lexical_decision_task_MP,2020.1.3,Win32,60,,z,1,0.531815,,,,,,,,0.531815,1,,,,,,443,NW,UN,50,jaunce,DORSEX,z,,,,,,0.431257344,-0.485898942,0,0,0,,0,336,336,442,1,
,,,,,,,,,,,,,,,,,,5efff21045937e0f18c41b2e,2020-08-10_13h18.32.102,lexical_decision_task_MP,2020.1.3,Win32,60,,m,1,0.63202,,,,,,,,0.63202,1,,,,,,209,WORD,UN,50,monkey,SEARCH,m,,,,,,0.431257344,-0.485898942,0,0,0,,0,337,337,208,1,
,,,,,,,,,,,,,,,,,,5efff21045937e0f18c41b2e,2020-08-10_13h18.32.102,lexical_decision_task_MP,2020.1.3,Win32,60,,z,1,0.5312,,,,,,,,0.5312,1,,,,,,250,NW,"ID",33,milted,MILTED,z,,,,,,0.431257344,-0.485898942,0,0,0,,0,338,338,249,1,
,,,,,,,,,,,,,,,,,,5efff21045937e0f18c41b2e,2020-08-10_13h18.32.102,lexical_decision_task_MP,2020.1.3,Win32,60,,m,1,0.574885,,,,,,,,0.574885,1,,,,,,13,WORD,"ID",33,strive,STRIVE,m,,,,,,0.431257344,-0.485898942,0,0,0,,0,339,339,12,1,
,,,,,,,,,,,,,,,,,,5efff21045937e0f18c41b2e,2020-08-10_13h18.32.102,lexical_decision_task_MP,2020.1.3,Win32,60,,z,1,0.52147,,,,,,,,0.52147,1,,,,,,361,NW,UN,33,tireau,PAUCHE,z,,,,,,0.431257344,-0.485898942,0,0,0,,0,340,340,360,1,
,,,,,,,,,,,,,,,,,,5efff21045937e0f18c41b2e,2020-08-10_13h18.32.102,lexical_decision_task_MP,2020.1.3,Win32,60,,m,1,0.53374,,,,,,,,0.53374,1,,,,,,83,WORD,"ID",50,result,RESULT,m,,,,,,0.431257344,-0.485898942,0,0,0,,0,341,341,82,1,
,,,,,,,,,,,,,,,,,,5efff21045937e0f18c41b2e,2020-08-10_13h18.32.102,lexical_decision_task_MP,2020.1.3,Win32,60,,m,1,0.569745,,,,,,,,0.569745,1,,,,,,24,WORD,"ID",33,praise,PRAISE,m,,,,,,0.431257344,-0.485898942,0,0,0,,0,342,342,23,1,
,,,,,,,,,,,,,,,,,,5efff21045937e0f18c41b2e,2020-08-10_13h18.32.102,lexical_decision_task_MP,2020.1.3,Win32,60,,z,0,0.4769,,,,,,,,0.4769,0,,,,,,215,WORD,UN,50,behalf,PHOBIA,m,,,,,,0.431257344,-0.485898942,0,0,0,,0,343,343,214,1,
,,,,,,,,,,,,,,,,,,5efff21045937e0f18c41b2e,2020-08-10_13h18.32.102,lexical_decision_task_MP,2020.1.3,Win32,60,,z,1,0.823745,,,,,,,,0.823745,1,,,,,,478,NW,UN,50,lobush,ACRISE,z,,,,,,0.431257344,-0.485898942,0,0,0,,0,344,344,477,1,
,,,,,,,,,,,,,,,,,,5efff21045937e0f18c41b2e,2020-08-10_13h18.32.102,lexical_decision_task_MP,2020.1.3,Win32,60,,m,1,0.82169,,,,,,,,0.82169,1,,,,,,2,WORD,"ID",33,bridge,BRIDGE,m,,,,,,0.431257344,-0.485898942,0,0,0,,0,345,345,1,1,
,,,,,,,,,,,,,,,,,,5efff21045937e0f18c41b2e,2020-08-10_13h18.32.102,lexical_decision_task_MP,2020.1.3,Win32,60,,m,1,0.571005,,,,,,,,0.571005,1,,,,,,58,WORD,"ID",33,foster,FOSTER,m,,,,,,0.431257344,-0.485898942,0,0,0,,0,346,346,57,1,
,,,,,,,,,,,,,,,,,,5efff21045937e0f18c41b2e,2020-08-10_13h18.32.102,lexical_decision_task_MP,2020.1.3,Win32,60,,m,1,0.81647,,,,,,,,0.81647,1,,,,,,145,WORD,UN,33,couple,PARISH,m,,,,,,0.431257344,-0.485898942,0,0,0,,0,347,347,144,1,
,,,,,,,,,,,,,,,,,,5efff21045937e0f18c41b2e,2020-08-10_13h18.32.102,lexical_decision_task_MP,2020.1.3,Win32,60,,m,1,0.523075,,,,,,,,0.523075,1,,,,,,169,WORD,UN,33,pounce,GENIUS,m,,,,,,0.431257344,-0.485898942,0,0,0,,0,348,348,168,1,
,,,,,,,,,,,,,,,,,,5efff21045937e0f18c41b2e,2020-08-10_13h18.32.102,lexical_decision_task_MP,2020.1.3,Win32,60,,m,1,0.55628,,,,,,,,0.55628,1,,,,,,196,WORD,UN,50,stream,CREDIT,m,,,,,,0.431257344,-0.485898942,0,0,0,,0,349,349,195,1,
,,,,,,,,,,,,,,,,,,5efff21045937e0f18c41b2e,2020-08-10_13h18.32.102,lexical_decision_task_MP,2020.1.3,Win32,60,,m,1,0.48214,,,,,,,,0.48214,1,,,,,,85,WORD,"ID",50,sprawl,SPRAWL,m,,,,,,0.431257344,-0.485898942,0,0,0,,0,350,350,84,1,
,,,,,,,,,,,,,,,,,,5efff21045937e0f18c41b2e,2020-08-10_13h18.32.102,lexical_decision_task_MP,2020.1.3,Win32,60,,m,1,0.50239,,,,,,,,0.50239,1,,,,,,78,WORD,"ID",50,column,COLUMN,m,,,,,,0.431257344,-0.485898942,0,0,0,,0,351,351,77,1,
,,,,,,,,,,,,,,,,,,5efff21045937e0f18c41b2e,2020-08-10_13h18.32.102,lexical_decision_task_MP,2020.1.3,Win32,60,,z,1,0.68211,,,,,,,,0.68211,1,,,,,,336,NW,"ID",50,ghodus,GHODUS,z,,,,,,0.431257344,-0.485898942,0,0,0,,0,352,352,335,1,
,,,,,,,,,,,,,,,,,,5efff21045937e0f18c41b2e,2020-08-10_13h18.32.102,lexical_decision_task_MP,2020.1.3,Win32,60,,z,1,0.564695,,,,,,,,0.564695,1,,,,,,460,NW,UN,50,justre,MINGAR,z,,,,,,0.431257344,-0.485898942,0,0,0,,0,353,353,459,1,
,,,,,,,,,,,,,,,,,,5efff21045937e0f18c41b2e,2020-08-10_13h18.32.102,lexical_decision_task_MP,2020.1.3,Win32,60,,m,1,0.55463,,,,,,,,0.55463,1,,,,,,206,WORD,UN,50,wreath,TAILOR,m,,,,,,0.431257344,-0.485898942,0,0,0,,0,354,354,205,1,
,,,,,,,,,,,,,,,,,,5efff21045937e0f18c41b2e,2020-08-10_13h18.32.102,lexical_decision_task_MP,2020.1.3,Win32,60,,z,1,0.52602,,,,,,,,0.52602,1,,,,,,407,NW,UN,33,hurnia,SUIVER,z,,,,,,0.431257344,-0.485898942,0,0,0,,0,355,355,406,1,
,,,,,,,,,,,,,,,,,,5efff21045937e0f18c41b2e,2020-08-10_13h18.32.102,lexical_decision_task_MP,2020.1.3,Win32,60,,z,1,0.66312,,,,,,,,0.66312,1,,,,,,380,NW,UN,33,huniek,CAVORY,z,,,,,,0.431257344,-0.485898942,0,0,0,,0,356,356,379,1,
,,,,,,,,,,,,,,,,,,5efff21045937e0f18c41b2e,2020-08-10_13h18.32.102,lexical_decision_task_MP,2020.1.3,Win32,60,,z,1,0.63102,,,,,,,,0.63102,1,,,,,,372,NW,UN,33,bigent,RAMILY,z,,,,,,0.431257344,-0.485898942,0,0,0,,0,357,357,371,1,
,,,,,,,,,,,,,,,,,,5efff21045937e0f18c41b2e,2020-08-10_13h18.32.102,lexical_decision_task_MP,2020.1.3,Win32,60,,z,1,0.51429,,,,,,,,0.51429,1,,,,,,355,NW,"ID",50,zingly,ZINGLY,z,,,,,,0.431257344,-0.485898942,0,0,0,,0,358,358,354,1,
,,,,,,,,,,,,,,,,,,5efff21045937e0f18c41b2e,2020-08-10_13h18.32.102,lexical_decision_task_MP,2020.1.3,Win32,60,,m,1,0.663795,,,,,,,,0.663795,1,,,,,,151,WORD,UN,33,rocket,MYSTIC,m,,,,,,0.431257344,-0.485898942,0,0,0,,0,359,359,150,1,
,,,,,,,,,,,,,,,,,,5efff21045937e0f18c41b2e,2020-08-10_13h18.32.102,lexical_decision_task_MP,2020.1.3,Win32,60,,m,1,0.517715,,,,,,,,0.517715,1,,,,,,190,WORD,UN,50,stable,BACKUP,m,,,,,,0.431257344,-0.485898942,0,0,0,,0,360,360,189,1,
,,,,,,,,,,,,,,,,,,5efff21045937e0f18c41b2e,2020-08-10_13h18.32.102,lexical_decision_task_MP,2020.1.3,Win32,60,,m,1,0.597155,,,,,,,,0.597155,1,,,,,,208,WORD,UN,50,search,HOCKEY,m,,,,,,0.431257344,-0.485898942,0,0,0,,0,361,361,207,1,
,,,,,,,,,,,,,,,,,,5efff21045937e0f18c41b2e,2020-08-10_13h18.32.102,lexical_decision_task_MP,2020.1.3,Win32,60,,m,1,0.51382,,,,,,,,0.51382,1,,,,,,32,WORD,"ID",33,buckle,BUCKLE,m,,,,,,0.431257344,-0.485898942,0,0,0,space,0,362,362,31,1,24.896985
,,,,,,,,,,,,,,,,,,5efff21045937e0f18c41b2e,2020-08-10_13h18.32.102,lexical_decision_task_MP,2020.1.3,Win32,60,,z,1,0.591665,,,,,,,,0.591665,1,,,,,,400,NW,UN,33,mustil,WEAROX,z,,,,,,0.431257344,-0.485898942,0,0,0,,0,363,363,399,1,
,,,,,,,,,,,,,,,,,,5efff21045937e0f18c41b2e,2020-08-10_13h18.32.102,lexical_decision_task_MP,2020.1.3,Win32,60,,z,1,0.61644,,,,,,,,0.61644,1,,,,,,359,NW,"ID",50,fonver,FONVER,z,,,,,,0.431257344,-0.485898942,0,0,0,,0,364,364,358,1,
,,,,,,,,,,,,,,,,,,5efff21045937e0f18c41b2e,2020-08-10_13h18.32.102,lexical_decision_task_MP,2020.1.3,Win32,60,,z,1,0.4182,,,,,,,,0.4182,1,,,,,,244,NW,"ID",33,eatric,EATRIC,z,,,,,,0.431257344,-0.485898942,0,0,0,,0,365,365,243,1,
,,,,,,,,,,,,,,,,,,5efff21045937e0f18c41b2e,2020-08-10_13h18.32.102,lexical_decision_task_MP,2020.1.3,Win32,60,,m,1,0.530535,,,,,,,,0.530535,1,,,,,,60,WORD,"ID",33,pencil,PENCIL,m,,,,,,0.431257344,-0.485898942,0,0,0,,0,366,366,59,1,
,,,,,,,,,,,,,,,,,,5efff21045937e0f18c41b2e,2020-08-10_13h18.32.102,lexical_decision_task_MP,2020.1.3,Win32,60,,z,1,0.457335,,,,,,,,0.457335,1,,,,,,371,NW,UN,33,ramily,GEILOY,z,,,,,,0.431257344,-0.485898942,0,0,0,,0,367,367,370,1,
,,,,,,,,,,,,,,,,,,5efff21045937e0f18c41b2e,2020-08-10_13h18.32.102,lexical_decision_task_MP,2020.1.3,Win32,60,,z,1,0.49888,,,,,,,,0.49888,1,,,,,,266,NW,"ID",33,varmit,VARMIT,z,,,,,,0.431257344,-0.485898942,0,0,0,,0,368,368,265,1,
,,,,,,,,,,,,,,,,,,5efff21045937e0f18c41b2e,2020-08-10_13h18.32.102,lexical_decision_task_MP,2020.1.3,Win32,60,,m,1,0.530635,,,,,,,,0.530635,1,,,,,,108,WORD,"ID",50,reckon,RECKON,m,,,,,,0.431257344,-0.485898942,0,0,0,,0,369,369,107,1,
,,,,,,,,,,,,,,,,,,5efff21045937e0f18c41b2e,2020-08-10_13h18.32.102,lexical_decision_task_MP,2020.1.3,Win32,60,,m,1,0.50885,,,,,,,,0.50885,1,,,,,,130,WORD,UN,33,quench,STUPID,m,,,,,,0.431257344,-0.485898942,0,0,0,,0,370,370,129,1,
,,,,,,,,,,,,,,,,,,5efff21045937e0f18c41b2e,2020-08-10_13h18.32.102,lexical_decision_task_MP,2020.1.3,Win32,60,,m,1,0.692785,,,,,,,,0.692785,1,,,,,,225,WORD,UN,50,kidney,VULGAR,m,,,,,,0.431257344,-0.485898942,0,0,0,,0,371,371,224,1,
,,,,,,,,,,,,,,,,,,5efff21045937e0f18c41b2e,2020-08-10_13h18.32.102,lexical_decision_task_MP,2020.1.3,Win32,60,,z,1,0.71491,,,,,,,,0.71491,1,,,,,,270,NW,"ID",33,wrimsy,WRIMSY,z,,,,,,0.431257344,-0.485898942,0,0,0,,0,372,372,269,1,
,,,,,,,,,,,,,,,,,,5efff21045937e0f18c41b2e,2020-08-10_13h18.32.102,lexical_decision_task_MP,2020.1.3,Win32,60,,m,1,0.564165,,,,,,,,0.564165,1,,,,,,146,WORD,UN,33,garlic,COUPLE,m,,,,,,0.431257344,-0.485898942,0,0,0,,0,373,373,145,1,
,,,,,,,,,,,,,,,,,,5efff21045937e0f18c41b2e,2020-08-10_13h18.32.102,lexical_decision_task_MP,2020.1.3,Win32,60,,m,1,0.55194,,,,,,,,0.55194,1,,,,,,107,WORD,"ID",50,slogan,SLOGAN,m,,,,,,0.431257344,-0.485898942,0,0,0,,0,374,374,106,1,
,,,,,,,,,,,,,,,,,,5efff21045937e0f18c41b2e,2020-08-10_13h18.32.102,lexical_decision_task_MP,2020.1.3,Win32,60,,m,1,0.495065,,,,,,,,0.495065,1,,,,,,18,WORD,"ID",33,humble,HUMBLE,m,,,,,,0.431257344,-0.485898942,0,0,0,,0,375,375,17,1,
,,,,,,,,,,,,,,,,,,5efff21045937e0f18c41b2e,2020-08-10_13h18.32.102,lexical_decision_task_MP,2020.1.3,Win32,60,,m,1,0.463315,,,,,,,,0.463315,1,,,,,,112,WORD,"ID",50,breath,BREATH,m,,,,,,0.431257344,-0.485898942,0,0,0,,0,376,376,111,1,
,,,,,,,,,,,,,,,,,,5efff21045937e0f18c41b2e,2020-08-10_13h18.32.102,lexical_decision_task_MP,2020.1.3,Win32,60,,z,1,0.51629,,,,,,,,0.51629,1,,,,,,308,NW,"ID",50,psetch,PSETCH,z,,,,,,0.431257344,-0.485898942,0,0,0,,0,377,377,307,1,
,,,,,,,,,,,,,,,,,,5efff21045937e0f18c41b2e,2020-08-10_13h18.32.102,lexical_decision_task_MP,2020.1.3,Win32,60,,z,1,0.55712,,,,,,,,0.55712,1,,,,,,330,NW,"ID",50,kensom,KENSOM,z,,,,,,0.431257344,-0.485898942,0,0,0,,0,378,378,329,1,
,,,,,,,,,,,,,,,,,,5efff21045937e0f18c41b2e,2020-08-10_13h18.32.102,lexical_decision_task_MP,2020.1.3,Win32,60,,m,1,0.588735,,,,,,,,0.588735,1,,,,,,141,WORD,UN,33,spruce,ORPHAN,m,,,,,,0.431257344,-0.485898942,0,0,0,,0,379,379,140,1,
,,,,,,,,,,,,,,,,,,5efff21045937e0f18c41b2e,2020-08-10_13h18.32.102,lexical_decision_task_MP,2020.1.3,Win32,60,,z,1,0.59948,,,,,,,,0.59948,1,,,,,,256,NW,"ID",33,inlors,INLORS,z,,,,,,0.431257344,-0.485898942,0,0,0,,0,380,380,255,1,
,,,,,,,,,,,,,,,,,,5efff21045937e0f18c41b2e,2020-08-10_13h18.32.102,lexical_decision_task_MP,2020.1.3,Win32,60,,m,1,0.555095,,,,,,,,0.555095,1,,,,,,46,WORD,"ID",33,single,SINGLE,m,,,,,,0.431257344,-0.485898942,0,0,0,,0,381,381,45,1,
,,,,,,,,,,,,,,,,,,5efff21045937e0f18c41b2e,2020-08-10_13h18.32.102,lexical_decision_task_MP,2020.1.3,Win32,60,,z,1,0.542775,,,,,,,,0.542775,1,,,,,,312,NW,"ID",50,nerawl,NERAWL,z,,,,,,0.431257344,-0.485898942,0,0,0,,0,382,382,311,1,
,,,,,,,,,,,,,,,,,,5efff21045937e0f18c41b2e,2020-08-10_13h18.32.102,lexical_decision_task_MP,2020.1.3,Win32,60,,m,1,0.582405,,,,,,,,0.582405,1,,,,,,171,WORD,UN,33,patrol,DEPART,m,,,,,,0.431257344,-0.485898942,0,0,0,,0,383,383,170,1,
,,,,,,,,,,,,,,,,,,5efff21045937e0f18c41b2e,2020-08-10_13h18.32.102,lexical_decision_task_MP,2020.1.3,Win32,60,,z,0,0.68813,,,,,,,,0.68813,0,,,,,,176,WORD,UN,33,advent,STRIFE,m,,,,,,0.431257344,-0.485898942,0,0,0,,0,384,384,175,1,
,,,,,,,,,,,,,,,,,,5efff21045937e0f18c41b2e,2020-08-10_13h18.32.102,lexical_decision_task_MP,2020.1.3,Win32,60,,z,1,0.71083,,,,,,,,0.71083,1,,,,,,395,NW,UN,33,flengy,COLURY,z,,,,,,0.431257344,-0.485898942,0,0,0,,0,385,385,394,1,
,,,,,,,,,,,,,,,,,,5efff21045937e0f18c41b2e,2020-08-10_13h18.32.102,lexical_decision_task_MP,2020.1.3,Win32,60,,z,1,0.79767,,,,,,,,0.79767,1,,,,,,433,NW,UN,50,pitrom,DRANCE,z,,,,,,0.431257344,-0.485898942,0,0,0,,0,386,386,432,1,
,,,,,,,,,,,,,,,,,,5efff21045937e0f18c41b2e,2020-08-10_13h18.32.102,lexical_decision_task_MP,2020.1.3,Win32,60,,m,1,0.55549,,,,,,,,0.55549,1,,,,,,15,WORD,"ID",33,amount,AMOUNT,m,,,,,,0.431257344,-0.485898942,0,0,0,,0,387,387,14,1,
,,,,,,,,,,,,,,,,,,5efff21045937e0f18c41b2e,2020-08-10_13h18.32.102,lexical_decision_task_MP,2020.1.3,Win32,60,,z,1,0.567315,,,,,,,,0.567315,1,,,,,,297,NW,"ID",33,fertic,FERTIC,z,,,,,,0.431257344,-0.485898942,0,0,0,,0,388,388,296,1,
,,,,,,,,,,,,,,,,,,5efff21045937e0f18c41b2e,2020-08-10_13h18.32.102,lexical_decision_task_MP,2020.1.3,Win32,60,,z,1,0.731505,,,,,,,,0.731505,1,,,,,,314,NW,"ID",50,sprine,SPRINE,z,,,,,,0.431257344,-0.485898942,0,0,0,,0,389,389,313,1,
,,,,,,,,,,,,,,,,,,5efff21045937e0f18c41b2e,2020-08-10_13h18.32.102,lexical_decision_task_MP,2020.1.3,Win32,60,,m,1,0.638355,,,,,,,,0.638355,1,,,,,,75,WORD,"ID",50,trophy,TROPHY,m,,,,,,0.431257344,-0.485898942,0,0,0,,0,390,390,74,1,
,,,,,,,,,,,,,,,,,,5efff21045937e0f18c41b2e,2020-08-10_13h18.32.102,lexical_decision_task_MP,2020.1.3,Win32,60,,z,1,0.542945,,,,,,,,0.542945,1,,,,,,288,NW,"ID",33,yaceup,YACEUP,z,,,,,,0.431257344,-0.485898942,0,0,0,,0,391,391,287,1,
,,,,,,,,,,,,,,,,,,5efff21045937e0f18c41b2e,2020-08-10_13h18.32.102,lexical_decision_task_MP,2020.1.3,Win32,60,,z,1,0.594205,,,,,,,,0.594205,1,,,,,,465,NW,UN,50,hocite,WHIVEX,z,,,,,,0.431257344,-0.485898942,0,0,0,,0,392,392,464,1,
,,,,,,,,,,,,,,,,,,5efff21045937e0f18c41b2e,2020-08-10_13h18.32.102,lexical_decision_task_MP,2020.1.3,Win32,60,,m,1,0.806695,,,,,,,,0.806695,1,,,,,,218,WORD,UN,50,bucket,SHRINK,m,,,,,,0.431257344,-0.485898942,0,0,0,,0,393,393,217,1,
,,,,,,,,,,,,,,,,,,5efff21045937e0f18c41b2e,2020-08-10_13h18.32.102,lexical_decision_task_MP,2020.1.3,Win32,60,,m,1,0.471265,,,,,,,,0.471265,1,,,,,,173,WORD,UN,33,turkey,SHOWER,m,,,,,,0.431257344,-0.485898942,0,0,0,,0,394,394,172,1,
,,,,,,,,,,,,,,,,,,5efff21045937e0f18c41b2e,2020-08-10_13h18.32.102,lexical_decision_task_MP,2020.1.3,Win32,60,,m,1,0.569,,,,,,,,0.569,1,,,,,,25,WORD,"ID",33,domain,DOMAIN,m,,,,,,0.431257344,-0.485898942,0,0,0,,0,395,395,24,1,
,,,,,,,,,,,,,,,,,,5efff21045937e0f18c41b2e,2020-08-10_13h18.32.102,lexical_decision_task_MP,2020.1.3,Win32,60,,m,1,0.53538,,,,,,,,0.53538,1,,,,,,86,WORD,"ID",50,rodent,RODENT,m,,,,,,0.431257344,-0.485898942,0,0,0,,0,396,396,85,1,
,,,,,,,,,,,,,,,,,,5efff21045937e0f18c41b2e,2020-08-10_13h18.32.102,lexical_decision_task_MP,2020.1.3,Win32,60,,m,1,0.53726,,,,,,,,0.53726,1,,,,,,45,WORD,"ID",33,clergy,CLERGY,m,,,,,,0.431257344,-0.485898942,0,0,0,,0,397,397,44,1,
,,,,,,,,,,,,,,,,,,5efff21045937e0f18c41b2e,2020-08-10_13h18.32.102,lexical_decision_task_MP,2020.1.3,Win32,60,,z,1,0.579765,,,,,,,,0.579765,1,,,,,,268,NW,"ID",33,packes,PACKES,z,,,,,,0.431257344,-0.485898942,0,0,0,,0,398,398,267,1,
,,,,,,,,,,,,,,,,,,5efff21045937e0f18c41b2e,2020-08-10_13h18.32.102,lexical_decision_task_MP,2020.1.3,Win32,60,,m,1,0.551385,,,,,,,,0.551385,1,,,,,,186,WORD,UN,50,course,PORTAL,m,,,,,,0.431257344,-0.485898942,0,0,0,,0,399,399,185,1,
,,,,,,,,,,,,,,,,,,5efff21045937e0f18c41b2e,2020-08-10_13h18.32.102,lexical_decision_task_MP,2020.1.3,Win32,60,,m,1,0.506525,,,,,,,,0.506525,1,,,,,,129,WORD,UN,33,stupid,MARVEL,m,,,,,,0.431257344,-0.485898942,0,0,0,,0,400,400,128,1,
,,,,,,,,,,,,,,,,,,5efff21045937e0f18c41b2e,2020-08-10_13h18.32.102,lexical_decision_task_MP,2020.1.3,Win32,60,,m,1,0.6429,,,,,,,,0.6429,1,,,,,,111,WORD,"ID",50,induce,INDUCE,m,,,,,,0.431257344,-0.485898942,0,0,0,,0,401,401,110,1,
,,,,,,,,,,,,,,,,,,5efff21045937e0f18c41b2e,2020-08-10_13h18.32.102,lexical_decision_task_MP,2020.1.3,Win32,60,,z,1,0.55735,,,,,,,,0.55735,1,,,,,,427,NW,UN,50,tandly,SCHIND,z,,,,,,0.431257344,-0.485898942,0,0,0,,0,402,402,426,1,
