counterbalancing_condition,instr_done_keyboard.keys,instr_done_touch.x,instr_done_touch.y,instr_done_touch.leftButton,instr_done_touch.midButton,instr_done_touch.rightButton,instr_done_touch.clicked_name,instruction_pages.thisRepN,instruction_pages.thisTrialN,instruction_pages.thisN,instruction_pages.thisIndex,instruction_pages.ran,pageN,phase,instruct_text,has_image,instruct_image,participant,date,expName,psychopyVersion,OS,frameRate,response.keys,response.corr,touch_resp.x,touch_resp.y,touch_resp.leftButton,touch_resp.midButton,touch_resp.rightButton,touch_resp.time,touch_resp.clicked_name,rt,corr,practice_trials.thisRepN,practice_trials.thisTrialN,practice_trials.thisN,practice_trials.thisIndex,practice_trials.ran,TrialID,StimulusType,Condition,PrimeDuration,Prime,Target,corrAns,end_of_practice_trials_pages.thisRepN,end_of_practice_trials_pages.thisTrialN,end_of_practice_trials_pages.thisN,end_of_practice_trials_pages.thisIndex,end_of_practice_trials_pages.ran,break_done_touch.x,break_done_touch.y,break_done_touch.leftButton,break_done_touch.midButton,break_done_touch.rightButton,break_done_keyboard.keys,trials.thisRepN,trials.thisTrialN,trials.thisN,trials.thisIndex,trials.ran,break_done_touch.clicked_name
3,,0.100370068,-0.407677205,1,0,0,instr_done_button,0,0,0,0,1,1,instructions,"INSTRUCTIONS
At the start of each trial, look at the hash marks (######) in the center of the screen. After a moment, a string of letters will appear. Your task is to indicate if the letter string forms a word or not (i.e., if it is a nonword). For example, AUTHOR is a word while AUTHON is a nonword.

Press the space bar or touch the button below to continue.",0,,5f010ab6dd343a125d4bd704,2020-08-10_18h21.00.062,lexical_decision_task_MP,2020.1.3,Linux armv8l,60,,,,,,,,,,,,,,,,,,,,,,,,,,,,,,,,,,,,,,,,
,,0.08834415,-0.375283813,1,0,0,instr_done_button,0,1,1,1,1,2,instructions,"If your device has a keyboard, press the 'Z' key for nonwords and the 'M' key for words.





Press the space bar or touch the button below to continue.",1,keyboard-example.gif,5f010ab6dd343a125d4bd704,2020-08-10_18h21.00.062,lexical_decision_task_MP,2020.1.3,Linux armv8l,60,,,,,,,,,,,,,,,,,,,,,,,,,,,,,,,,,,,,,,,,
,,0.0605921,-0.411378988,1,0,0,instr_done_button,0,2,2,2,1,3,instructions,"If you are using a touchscreen only device, use the buttons on the screen. Do not use the mouse.





Press the space bar or touch the button below to continue.",1,touchscreen-example.gif,5f010ab6dd343a125d4bd704,2020-08-10_18h21.00.062,lexical_decision_task_MP,2020.1.3,Linux armv8l,60,,,,,,,,,,,,,,,,,,,,,,,,,,,,,,,,,,,,,,,,
,,0.068917677,-0.409528097,1,0,0,instr_done_button,0,3,3,3,1,4,instructions,"It is very important that you respond as quickly and accurately as possible, as each letter string will only be on the screen for two seconds. If you do not respond within this time, the message 'Too slow!' will be displayed and the experiment will progress to the next letter string. The first 20 trials will be practice trials and you will receive feedback on your answers. 

Press the space bar or touch the button below to start the practice trials.",0,,5f010ab6dd343a125d4bd704,2020-08-10_18h21.00.062,lexical_decision_task_MP,2020.1.3,Linux armv8l,60,,,,,,,,,,,,,,,,,,,,,,,,,,,,,,,,,,,,,,,,
,,,,,,,,,,,,,,,,,,5f010ab6dd343a125d4bd704,2020-08-10_18h21.00.062,lexical_decision_task_MP,2020.1.3,Linux armv8l,60,,0,-0.362164656,-0.307720862,1,0,0,1.735,button_left,1.735,1,0,0,0,11,1,1012,NW,"ID",50,rashet,RASHET,z,,,,,,,,,,,,,,,,,
,,,,,,,,,,,,,,,,,,5f010ab6dd343a125d4bd704,2020-08-10_18h21.00.062,lexical_decision_task_MP,2020.1.3,Linux armv8l,60,,0,-0.341813119,-0.30309338,1,0,0,1.1412,button_left,1.1412,1,0,1,1,9,1,1010,NW,"ID",33,fariny,FARINY,z,,,,,,,,,,,,,,,,,
,,,,,,,,,,,,,,,,,,5f010ab6dd343a125d4bd704,2020-08-10_18h21.00.062,lexical_decision_task_MP,2020.1.3,Linux armv8l,60,,0,-0.351063834,-0.30031662,1,0,0,0.6984,button_left,0.6984,1,0,2,2,8,1,1009,NW,"ID",33,aslert,ASLERT,z,,,,,,,,,,,,,,,,,
,,,,,,,,,,,,,,,,,,5f010ab6dd343a125d4bd704,2020-08-10_18h21.00.062,lexical_decision_task_MP,2020.1.3,Linux armv8l,60,,0,-0.346438482,-0.316976166,1,0,0,0.7351,button_left,0.7351,1,0,3,3,15,1,1016,NW,UN,50,mushed,WHAISE,z,,,,,,,,,,,,,,,,,
,,,,,,,,,,,,,,,,,,5f010ab6dd343a125d4bd704,2020-08-10_18h21.00.062,lexical_decision_task_MP,2020.1.3,Linux armv8l,60,,0,-0.339037927,-0.329933336,1,0,0,0.735,button_left,0.735,1,0,4,4,10,1,1011,NW,"ID",50,inlade,INLADE,z,,,,,,,,,,,,,,,,,
,,,,,,,,,,,,,,,,,,5f010ab6dd343a125d4bd704,2020-08-10_18h21.00.062,lexical_decision_task_MP,2020.1.3,Linux armv8l,60,,0,-0.306660504,-0.312348429,1,0,0,0.6056,button_left,0.6056,1,0,5,5,13,1,1014,NW,UN,33,winfer,ROUPET,z,,,,,,,,,,,,,,,,,
,,,,,,,,,,,,,,,,,,5f010ab6dd343a125d4bd704,2020-08-10_18h21.00.062,lexical_decision_task_MP,2020.1.3,Linux armv8l,60,,0,-0.323311742,-0.316976166,1,0,0,0.6006,button_left,0.6006,0,0,6,6,2,1,1003,WORD,"ID",50,almond,ALMOND,m,,,,,,,,,,,,,,,,,
,,,,,,,,,,,,,,,,,,5f010ab6dd343a125d4bd704,2020-08-10_18h21.00.062,lexical_decision_task_MP,2020.1.3,Linux armv8l,60,,0,0.294634671,-0.354922401,1,0,0,0.6048,button_right,0.6048,1,0,7,7,1,1,1002,WORD,"ID",33,adjust,ADJUST,m,,,,,,,,,,,,,,,,,
,,,,,,,,,,,,,,,,,,5f010ab6dd343a125d4bd704,2020-08-10_18h21.00.062,lexical_decision_task_MP,2020.1.3,Linux armv8l,60,,0,0.272432963,-0.375283813,1,0,0,0.8029,button_right,0.8029,1,0,8,8,0,1,1001,WORD,"ID",33,utopia,UTOPIA,m,,,,,,,,,,,,,,,,,
,,,,,,,,,,,,,,,,,,5f010ab6dd343a125d4bd704,2020-08-10_18h21.00.062,lexical_decision_task_MP,2020.1.3,Linux armv8l,60,,0,0.325161913,-0.301242235,1,0,0,0.7189,button_right,0.7189,1,0,9,9,7,1,1008,WORD,UN,50,hurdle,VOLUME,m,,,,,,,,,,,,,,,,,
,,,,,,,,,,,,,,,,,,5f010ab6dd343a125d4bd704,2020-08-10_18h21.00.062,lexical_decision_task_MP,2020.1.3,Linux armv8l,60,,0,0.302035183,-0.325305684,1,0,0,0.7021,button_right,0.7021,1,0,10,10,6,1,1007,WORD,UN,50,tropic,ZOMBIE,m,,,,,,,,,,,,,,,,,
,,,,,,,,,,,,,,,,,,5f010ab6dd343a125d4bd704,2020-08-10_18h21.00.062,lexical_decision_task_MP,2020.1.3,Linux armv8l,60,,0,0.28260871,-0.319752587,1,0,0,0.6352,button_right,0.6352,1,0,11,11,3,1,1004,WORD,"ID",50,matrix,MATRIX,m,,,,,,,,,,,,,,,,,
,,,,,,,,,,,,,,,,,,5f010ab6dd343a125d4bd704,2020-08-10_18h21.00.062,lexical_decision_task_MP,2020.1.3,Linux armv8l,60,,0,-0.324236817,-0.28735945,1,0,0,0.7557,button_left,0.7557,1,0,12,12,14,1,1015,NW,UN,50,miaber,THRALE,z,,,,,,,,,,,,,,,,,
,,,,,,,,,,,,,,,,,,5f010ab6dd343a125d4bd704,2020-08-10_18h21.00.062,lexical_decision_task_MP,2020.1.3,Linux armv8l,60,,0,0.316836378,-0.282731798,1,0,0,0.6026,button_right,0.6026,0,0,13,13,12,1,1013,NW,UN,33,adveil,SPRINY,z,,,,,,,,,,,,,,,,,
,,,,,,,,,,,,,,,,,,5f010ab6dd343a125d4bd704,2020-08-10_18h21.00.062,lexical_decision_task_MP,2020.1.3,Linux armv8l,60,,0,0.323311869,-0.265146891,1,0,0,0.6506,button_right,0.6506,1,0,14,14,4,1,1005,WORD,UN,33,abound,SQUEAK,m,,,,,,,,,,,,,,,,,
,,,,,,,,,,,,,,,,,,5f010ab6dd343a125d4bd704,2020-08-10_18h21.00.062,lexical_decision_task_MP,2020.1.3,Linux armv8l,60,,0,0.286308967,-0.305869802,1,0,0,0.6707,button_right,0.6707,1,0,15,15,5,1,1006,WORD,UN,33,frenzy,OBTAIN,m,,,,,,,,,,,,,,,,,
,,0.087419086,-0.428963894,1,0,0,instr_done_button,,,,,,1,end_of_practice,"You have completed the practice trials. During the experimental trials, you will not receive feedback, but it is very important that you respond as quickly and accurately as possible. 
Before you begin, please ensure that you are in a comfortable and quiet location and will not be disturbed for about 15 minutes, as we cannot use your data if you do not complete all the trials. 
There will be opportunities to take breaks at regular intervals during the experiment. When you are ready to start the experimental trials, please press space or touch the button below.",,,5f010ab6dd343a125d4bd704,2020-08-10_18h21.00.062,lexical_decision_task_MP,2020.1.3,Linux armv8l,60,,,,,,,,,,,,,,,,,,,,,,,,0,0,0,0,1,,,,,,,,,,,,
,,,,,,,,,,,,,,,,,,5f010ab6dd343a125d4bd704,2020-08-10_18h21.00.062,lexical_decision_task_MP,2020.1.3,Linux armv8l,60,,0,-0.344588343,-0.320678033,1,0,0,0.8622,button_left,0.8622,1,,,,,,349,NW,"ID",33,asylen,ASYLEN,z,,,,,,-0.344588343,-0.320678033,1,0,0,,0,0,0,288,1,
,,,,,,,,,,,,,,,,,,5f010ab6dd343a125d4bd704,2020-08-10_18h21.00.062,lexical_decision_task_MP,2020.1.3,Linux armv8l,60,,0,-0.351063834,-0.328082275,1,0,0,0.7792,button_left,0.7792,1,,,,,,437,NW,UN,33,baitch,SNAPEL,z,,,,,,-0.351063834,-0.328082275,1,0,0,,0,1,1,376,1,
,,,,,,,,,,,,,,,,,,5f010ab6dd343a125d4bd704,2020-08-10_18h21.00.062,lexical_decision_task_MP,2020.1.3,Linux armv8l,60,,0,-0.338112852,-0.291987016,1,0,0,0.6327,button_left,0.6327,1,,,,,,301,NW,"ID",33,fainch,FAINCH,z,,,,,,-0.338112852,-0.291987016,1,0,0,,0,2,2,240,1,
,,,,,,,,,,,,,,,,,,5f010ab6dd343a125d4bd704,2020-08-10_18h21.00.062,lexical_decision_task_MP,2020.1.3,Linux armv8l,60,,0,-0.340888066,-0.288284895,1,0,0,0.6687,button_left,0.6687,1,,,,,,318,NW,"ID",33,reagly,REAGLY,z,,,,,,-0.340888066,-0.288284895,1,0,0,,0,3,3,257,1,
,,,,,,,,,,,,,,,,,,5f010ab6dd343a125d4bd704,2020-08-10_18h21.00.062,lexical_decision_task_MP,2020.1.3,Linux armv8l,60,,0,0.312210931,-0.279029677,1,0,0,0.5253,button_right,0.5253,1,,,,,,240,WORD,UN,33,seldom,FOREST,m,,,,,,0.312210931,-0.279029677,1,0,0,,0,4,4,179,1,
,,,,,,,,,,,,,,,,,,5f010ab6dd343a125d4bd704,2020-08-10_18h21.00.062,lexical_decision_task_MP,2020.1.3,Linux armv8l,60,,0,-0.329787233,-0.319752587,1,0,0,0.7011,button_left,0.7011,1,,,,,,412,NW,"ID",50,jiluer,JILUER,z,,,,,,-0.329787233,-0.319752587,1,0,0,,0,5,5,351,1,
,,,,,,,,,,,,,,,,,,5f010ab6dd343a125d4bd704,2020-08-10_18h21.00.062,lexical_decision_task_MP,2020.1.3,Linux armv8l,60,,0,0.297409905,-0.30309338,1,0,0,0.5897,button_right,0.5897,1,,,,,,29,WORD,UN,50,orient,SKETCH,m,,,,,,0.297409905,-0.30309338,1,0,0,,0,6,6,208,1,
,,,,,,,,,,,,,,,,,,5f010ab6dd343a125d4bd704,2020-08-10_18h21.00.062,lexical_decision_task_MP,2020.1.3,Linux armv8l,60,,0,0.314986165,-0.294763523,1,0,0,0.6887,button_right,0.6887,1,,,,,,227,WORD,UN,33,master,SELDOM,m,,,,,,0.314986165,-0.294763523,1,0,0,,0,7,7,166,1,
,,,,,,,,,,,,,,,,,,5f010ab6dd343a125d4bd704,2020-08-10_18h21.00.062,lexical_decision_task_MP,2020.1.3,Linux armv8l,60,,0,0.309435696,-0.320678033,1,0,0,0.6946,button_right,0.6946,1,,,,,,221,WORD,UN,33,hinder,MASCOT,m,,,,,,0.309435696,-0.320678033,1,0,0,,0,8,8,160,1,
,,,,,,,,,,,,,,,,,,5f010ab6dd343a125d4bd704,2020-08-10_18h21.00.062,lexical_decision_task_MP,2020.1.3,Linux armv8l,60,,0,0.328862169,-0.284582774,1,0,0,0.5758,button_right,0.5758,0,,,,,,377,NW,"ID",50,injore,INJORE,z,,,,,,0.328862169,-0.284582774,1,0,0,,0,9,9,316,1,
,,,,,,,,,,,,,,,,,,5f010ab6dd343a125d4bd704,2020-08-10_18h21.00.062,lexical_decision_task_MP,2020.1.3,Linux armv8l,60,,0,-0.316836251,-0.313274044,1,0,0,0.772,button_left,0.772,1,,,,,,343,NW,"ID",33,aimosy,AIMOSY,z,,,,,,-0.316836251,-0.313274044,1,0,0,,0,10,10,282,1,
,,,,,,,,,,,,,,,,,,5f010ab6dd343a125d4bd704,2020-08-10_18h21.00.062,lexical_decision_task_MP,2020.1.3,Linux armv8l,60,,0,0.283533902,-0.330858951,1,0,0,0.6058,button_right,0.6058,1,,,,,,57,WORD,UN,50,danger,CHANGE,m,,,,,,0.283533902,-0.330858951,1,0,0,,0,11,11,236,1,
,,,,,,,,,,,,,,,,,,5f010ab6dd343a125d4bd704,2020-08-10_18h21.00.062,lexical_decision_task_MP,2020.1.3,Linux armv8l,60,,0,0.291859436,-0.321603648,1,0,0,0.686,button_right,0.686,1,,,,,,4,WORD,UN,50,plunge,TRENCH,m,,,,,,0.291859436,-0.321603648,1,0,0,,0,12,12,183,1,
,,,,,,,,,,,,,,,,,,5f010ab6dd343a125d4bd704,2020-08-10_18h21.00.062,lexical_decision_task_MP,2020.1.3,Linux armv8l,60,,0,-0.318686379,-0.301242235,1,0,0,0.6204,button_left,0.6204,1,,,,,,371,NW,"ID",50,geiloy,GEILOY,z,,,,,,-0.318686379,-0.301242235,1,0,0,,0,13,13,310,1,
,,,,,,,,,,,,,,,,,,5f010ab6dd343a125d4bd704,2020-08-10_18h21.00.062,lexical_decision_task_MP,2020.1.3,Linux armv8l,60,,0,-0.301110077,-0.31512502,1,0,0,0.7267,button_left,0.7267,1,,,,,,439,NW,UN,33,saride,LIMPOR,z,,,,,,-0.301110077,-0.31512502,1,0,0,,0,14,14,378,1,
,,,,,,,,,,,,,,,,,,5f010ab6dd343a125d4bd704,2020-08-10_18h21.00.062,lexical_decision_task_MP,2020.1.3,Linux armv8l,60,,0,-0.291859394,-0.320678033,1,0,0,0.6365,button_left,0.6365,1,,,,,,255,NW,UN,50,inlors,APIGHT,z,,,,,,-0.291859394,-0.320678033,1,0,0,,0,15,15,434,1,
,,,,,,,,,,,,,,,,,,5f010ab6dd343a125d4bd704,2020-08-10_18h21.00.062,lexical_decision_task_MP,2020.1.3,Linux armv8l,60,,0,-0.286308967,-0.321603648,1,0,0,0.6824,button_left,0.6824,1,,,,,,417,NW,"ID",50,earoud,EAROUD,z,,,,,,-0.286308967,-0.321603648,1,0,0,,0,16,16,356,1,
,,,,,,,,,,,,,,,,,,5f010ab6dd343a125d4bd704,2020-08-10_18h21.00.062,lexical_decision_task_MP,2020.1.3,Linux armv8l,60,,0,0.341813151,-0.295689138,1,0,0,0.6272,button_right,0.6272,1,,,,,,189,WORD,UN,33,backup,CENSOR,m,,,,,,0.341813151,-0.295689138,1,0,0,,0,17,17,128,1,
,,,,,,,,,,,,,,,,,,5f010ab6dd343a125d4bd704,2020-08-10_18h21.00.062,lexical_decision_task_MP,2020.1.3,Linux armv8l,60,,0,0.333487532,-0.272551049,1,0,0,0.5601,button_right,0.5601,1,,,,,,180,WORD,"ID",50,silent,SILENT,m,,,,,,0.333487532,-0.272551049,1,0,0,,0,18,18,119,1,
,,,,,,,,,,,,,,,,,,5f010ab6dd343a125d4bd704,2020-08-10_18h21.00.062,lexical_decision_task_MP,2020.1.3,Linux armv8l,60,,0,-0.301110077,-0.304018741,1,0,0,0.6301,button_left,0.6301,1,,,,,,243,NW,UN,50,eatric,MUSIED,z,,,,,,-0.301110077,-0.304018741,1,0,0,,0,19,19,422,1,
,,,,,,,,,,,,,,,,,,5f010ab6dd343a125d4bd704,2020-08-10_18h21.00.062,lexical_decision_task_MP,2020.1.3,Linux armv8l,60,,0,0.33533766,-0.279029677,1,0,0,0.6066,button_right,0.6066,1,,,,,,118,WORD,"ID",33,flight,FLIGHT,m,,,,,,0.33533766,-0.279029677,1,0,0,,0,20,20,57,1,
,,,,,,,,,,,,,,,,,,5f010ab6dd343a125d4bd704,2020-08-10_18h21.00.062,lexical_decision_task_MP,2020.1.3,Linux armv8l,60,,0,-0.293709522,-0.310497369,1,0,0,0.6748,button_left,0.6748,1,,,,,,363,NW,"ID",50,breali,BREALI,z,,,,,,-0.293709522,-0.310497369,1,0,0,,0,21,21,302,1,
,,,,,,,,,,,,,,,,,,5f010ab6dd343a125d4bd704,2020-08-10_18h21.00.062,lexical_decision_task_MP,2020.1.3,Linux armv8l,60,,0,0.32053655,-0.308646308,1,0,0,0.5901,button_right,0.5901,1,,,,,,97,WORD,"ID",33,client,CLIENT,m,,,,,,0.32053655,-0.308646308,1,0,0,,0,22,22,36,1,
,,,,,,,,,,,,,,,,,,5f010ab6dd343a125d4bd704,2020-08-10_18h21.00.062,lexical_decision_task_MP,2020.1.3,Linux armv8l,60,,0,-0.298334863,-0.308646308,1,0,0,0.663,button_left,0.663,1,,,,,,344,NW,"ID",33,scrily,SCRILY,z,,,,,,-0.298334863,-0.308646308,1,0,0,,0,23,23,283,1,
,,,,,,,,,,,,,,,,,,5f010ab6dd343a125d4bd704,2020-08-10_18h21.00.062,lexical_decision_task_MP,2020.1.3,Linux armv8l,60,,0,0.314061059,-0.329007806,1,0,0,0.6048,button_right,0.6048,1,,,,,,130,WORD,"ID",50,stupid,STUPID,m,,,,,,0.314061059,-0.329007806,1,0,0,,0,24,24,69,1,
,,,,,,,,,,,,,,,,,,5f010ab6dd343a125d4bd704,2020-08-10_18h21.00.062,lexical_decision_task_MP,2020.1.3,Linux armv8l,60,,0,-0.305735397,-0.318827142,1,0,0,0.7738,button_left,0.7738,1,,,,,,306,NW,"ID",33,sounge,SOUNGE,z,,,,,,-0.305735397,-0.318827142,1,0,0,,0,25,25,245,1,
,,,,,,,,,,,,,,,,,,5f010ab6dd343a125d4bd704,2020-08-10_18h21.00.062,lexical_decision_task_MP,2020.1.3,Linux armv8l,60,,0,0.278908454,-0.322529093,1,0,0,0.7841,button_right,0.7841,1,,,,,,58,WORD,UN,50,splint,FOSTER,m,,,,,,0.278908454,-0.322529093,1,0,0,,0,26,26,237,1,
,,,,,,,,,,,,,,,,,,5f010ab6dd343a125d4bd704,2020-08-10_18h21.00.062,lexical_decision_task_MP,2020.1.3,Linux armv8l,60,,0,0.32978736,-0.269774543,1,0,0,0.6227,button_right,0.6227,1,,,,,,215,WORD,UN,33,lumber,PHOBIA,m,,,,,,0.32978736,-0.269774543,1,0,0,,0,27,27,154,1,
,,,,,,,,,,,,,,,,,,5f010ab6dd343a125d4bd704,2020-08-10_18h21.00.062,lexical_decision_task_MP,2020.1.3,Linux armv8l,60,,0,-0.311285845,-0.341039615,1,0,0,0.6052,button_left,0.6052,1,,,,,,315,NW,"ID",33,laston,LASTON,z,,,,,,-0.311285845,-0.341039615,1,0,0,,0,28,28,254,1,
,,,,,,,,,,,,,,,,,,5f010ab6dd343a125d4bd704,2020-08-10_18h21.00.062,lexical_decision_task_MP,2020.1.3,Linux armv8l,60,,0,-0.328862169,-0.313274044,1,0,0,0.6987,button_left,0.6987,0,,,,,,207,WORD,UN,33,hockey,WREATH,m,,,,,,-0.328862169,-0.313274044,1,0,0,,0,29,29,146,1,
,,,,,,,,,,,,,,,,,,5f010ab6dd343a125d4bd704,2020-08-10_18h21.00.062,lexical_decision_task_MP,2020.1.3,Linux armv8l,60,,0,-0.296484735,-0.351220279,1,0,0,0.684,button_left,0.684,1,,,,,,430,NW,UN,33,chrums,CAROEY,z,,,,,,-0.296484735,-0.351220279,1,0,0,,0,30,30,369,1,
,,,,,,,,,,,,,,,,,,5f010ab6dd343a125d4bd704,2020-08-10_18h21.00.062,lexical_decision_task_MP,2020.1.3,Linux armv8l,60,,0,-0.300185013,-0.346592712,1,0,0,0.6454,button_left,0.6454,1,,,,,,330,NW,"ID",33,kensom,KENSOM,z,,,,,,-0.300185013,-0.346592712,1,0,0,,0,31,31,269,1,
,,,,,,,,,,,,,,,,,,5f010ab6dd343a125d4bd704,2020-08-10_18h21.00.062,lexical_decision_task_MP,2020.1.3,Linux armv8l,60,,0,0.298334927,-0.304018741,1,0,0,0.6228,button_right,0.6228,1,,,,,,224,WORD,UN,33,vulgar,PERIOD,m,,,,,,0.298334927,-0.304018741,1,0,0,,0,32,32,163,1,
,,,,,,,,,,,,,,,,,,5f010ab6dd343a125d4bd704,2020-08-10_18h21.00.062,lexical_decision_task_MP,2020.1.3,Linux armv8l,60,,0,-0.302035141,-0.347518158,1,0,0,0.5798,button_left,0.5798,1,,,,,,366,NW,"ID",50,toshel,TOSHEL,z,,,,,,-0.302035141,-0.347518158,1,0,0,,0,33,33,305,1,
,,,,,,,,,,,,,,,,,,5f010ab6dd343a125d4bd704,2020-08-10_18h21.00.062,lexical_decision_task_MP,2020.1.3,Linux armv8l,60,,0,-0.324236817,-0.318827142,1,0,0,0.6461,button_left,0.6461,1,,,,,,387,NW,"ID",50,gronce,GRONCE,z,,,,,,-0.324236817,-0.318827142,1,0,0,,0,34,34,326,1,
,,,,,,,,,,,,,,,,,,5f010ab6dd343a125d4bd704,2020-08-10_18h21.00.062,lexical_decision_task_MP,2020.1.3,Linux armv8l,60,,0,-0.300185013,-0.333635373,1,0,0,0.6576,button_left,0.6576,1,,,,,,374,NW,"ID",50,sliant,SLIANT,z,,,,,,-0.300185013,-0.333635373,1,0,0,,0,35,35,313,1,
,,,,,,,,,,,,,,,,,,5f010ab6dd343a125d4bd704,2020-08-10_18h21.00.062,lexical_decision_task_MP,2020.1.3,Linux armv8l,60,,0,0.322386678,-0.301242235,1,0,0,0.506,button_right,0.506,1,,,,,,167,WORD,"ID",50,design,DESIGN,m,,,,,,0.322386678,-0.301242235,1,0,0,,0,36,36,106,1,
,,,,,,,,,,,,,,,,,,5f010ab6dd343a125d4bd704,2020-08-10_18h21.00.062,lexical_decision_task_MP,2020.1.3,Linux armv8l,60,,0,-0.318686379,-0.316976166,1,0,0,0.5866,button_left,0.5866,1,,,,,,353,NW,"ID",33,clurey,CLUREY,z,,,,,,-0.318686379,-0.316976166,1,0,0,,0,37,37,292,1,
,,,,,,,,,,,,,,,,,,5f010ab6dd343a125d4bd704,2020-08-10_18h21.00.062,lexical_decision_task_MP,2020.1.3,Linux armv8l,60,,0,-0.285383903,-0.341965061,1,0,0,0.6424,button_left,0.6424,1,,,,,,478,NW,UN,33,pebric,ACRISE,z,,,,,,-0.285383903,-0.341965061,1,0,0,,0,38,38,417,1,
,,,,,,,,,,,,,,,,,,5f010ab6dd343a125d4bd704,2020-08-10_18h21.00.062,lexical_decision_task_MP,2020.1.3,Linux armv8l,60,,0,0.310360887,-0.302167681,1,0,0,0.6254,button_right,0.6254,1,,,,,,222,WORD,UN,33,export,HINDER,m,,,,,,0.310360887,-0.302167681,1,0,0,,0,39,39,161,1,
,,,,,,,,,,,,,,,,,,5f010ab6dd343a125d4bd704,2020-08-10_18h21.00.062,lexical_decision_task_MP,2020.1.3,Linux armv8l,60,,0,-0.322386678,-0.309571923,1,0,0,0.8923,button_left,0.8923,1,,,,,,425,NW,UN,33,urivel,FRUDGE,z,,,,,,-0.322386678,-0.309571923,1,0,0,,0,40,40,364,1,
,,,,,,,,,,,,,,,,,,5f010ab6dd343a125d4bd704,2020-08-10_18h21.00.062,lexical_decision_task_MP,2020.1.3,Linux armv8l,60,,0,0.313136037,-0.299391259,1,0,0,0.6392,button_right,0.6392,1,,,,,,1,WORD,UN,50,ethnic,FRIGHT,m,,,,,,0.313136037,-0.299391259,1,0,0,,0,41,41,180,1,
,,,,,,,,,,,,,,,,,,5f010ab6dd343a125d4bd704,2020-08-10_18h21.00.062,lexical_decision_task_MP,2020.1.3,Linux armv8l,60,,0,0.302035183,-0.309571923,1,0,0,0.7814,button_right,0.7814,1,,,,,,72,WORD,"ID",33,bright,BRIGHT,m,,,,,,0.302035183,-0.309571923,1,0,0,,0,42,42,11,1,
,,,,,,,,,,,,,,,,,,5f010ab6dd343a125d4bd704,2020-08-10_18h21.00.062,lexical_decision_task_MP,2020.1.3,Linux armv8l,60,,0,-0.303885269,-0.31419949,1,0,0,0.669,button_left,0.669,1,,,,,,416,NW,"ID",50,pathel,PATHEL,z,,,,,,-0.303885269,-0.31419949,1,0,0,,0,43,43,355,1,
,,,,,,,,,,,,,,,,,,5f010ab6dd343a125d4bd704,2020-08-10_18h21.00.062,lexical_decision_task_MP,2020.1.3,Linux armv8l,60,,0,-0.293709522,-0.350294834,1,0,0,0.741,button_left,0.741,1,,,,,,385,NW,"ID",50,veigma,VEIGMA,z,,,,,,-0.293709522,-0.350294834,1,0,0,,0,44,44,324,1,
,,,,,,,,,,,,,,,,,,5f010ab6dd343a125d4bd704,2020-08-10_18h21.00.062,lexical_decision_task_MP,2020.1.3,Linux armv8l,60,,0,0.323311869,-0.297540114,1,0,0,0.5707,button_right,0.5707,1,,,,,,12,WORD,UN,50,strive,ORANGE,m,,,,,,0.323311869,-0.297540114,1,0,0,,0,45,45,191,1,
,,,,,,,,,,,,,,,,,,5f010ab6dd343a125d4bd704,2020-08-10_18h21.00.062,lexical_decision_task_MP,2020.1.3,Linux armv8l,60,,0,-0.290009244,-0.340114,1,0,0,0.652,button_left,0.652,1,,,,,,418,NW,"ID",50,suidle,SUIDLE,z,,,,,,-0.290009244,-0.340114,1,0,0,,0,46,46,357,1,
,,,,,,,,,,,,,,,,,,5f010ab6dd343a125d4bd704,2020-08-10_18h21.00.062,lexical_decision_task_MP,2020.1.3,Linux armv8l,60,,0,0.315911187,-0.296614583,1,0,0,0.6354,button_right,0.6354,1,,,,,,34,WORD,UN,50,socket,JUNGLE,m,,,,,,0.315911187,-0.296614583,1,0,0,,0,47,47,213,1,
,,,,,,,,,,,,,,,,,,5f010ab6dd343a125d4bd704,2020-08-10_18h21.00.062,lexical_decision_task_MP,2020.1.3,Linux armv8l,60,,0,0.296484714,-0.290135956,1,0,0,0.7397,button_right,0.7397,1,,,,,,138,WORD,"ID",50,melody,MELODY,m,,,,,,0.296484714,-0.290135956,1,0,0,,0,48,48,77,1,
,,,,,,,,,,,,,,,,,,5f010ab6dd343a125d4bd704,2020-08-10_18h21.00.062,lexical_decision_task_MP,2020.1.3,Linux armv8l,60,,0,0.312210931,-0.27440211,1,0,0,0.6458,button_right,0.6458,1,,,,,,3,WORD,UN,50,trench,KNIGHT,m,,,,,,0.312210931,-0.27440211,1,0,0,,0,49,49,182,1,
,,,,,,,,,,,,,,,,,,5f010ab6dd343a125d4bd704,2020-08-10_18h21.00.062,lexical_decision_task_MP,2020.1.3,Linux armv8l,60,,0,-0.293709522,-0.332709927,1,0,0,0.7204,button_left,0.7204,1,,,,,,285,NW,UN,50,reldon,PRUDGE,z,,,,,,-0.293709522,-0.332709927,1,0,0,,0,50,50,464,1,
,,,,,,,,,,,,,,,,,,5f010ab6dd343a125d4bd704,2020-08-10_18h21.00.062,lexical_decision_task_MP,2020.1.3,Linux armv8l,60,,0,-0.287234031,-0.339188555,1,0,0,0.7158,button_left,0.7158,1,,,,,,465,NW,UN,33,bafent,WHIVEX,z,,,,,,-0.287234031,-0.339188555,1,0,0,,0,51,51,404,1,
,,,,,,,,,,,,,,,,,,5f010ab6dd343a125d4bd704,2020-08-10_18h21.00.062,lexical_decision_task_MP,2020.1.3,Linux armv8l,60,,0,-0.323311742,-0.299391259,1,0,0,0.7114,button_left,0.7114,1,,,,,,271,NW,UN,50,damilt,AUBRID,z,,,,,,-0.323311742,-0.299391259,1,0,0,,0,52,52,450,1,
,,,,,,,,,,,,,,,,,,5f010ab6dd343a125d4bd704,2020-08-10_18h21.00.062,lexical_decision_task_MP,2020.1.3,Linux armv8l,60,,0,-0.255781661,-0.371581692,1,0,0,0.7424,button_left,0.7424,0,,,,,,212,WORD,UN,33,squeal,VERIFY,m,,,,,,-0.255781661,-0.371581692,1,0,0,,0,53,53,151,1,
,,,,,,,,,,,,,,,,,,5f010ab6dd343a125d4bd704,2020-08-10_18h21.00.062,lexical_decision_task_MP,2020.1.3,Linux armv8l,60,,0,0.296484714,-0.308646308,1,0,0,0.7433,button_right,0.7433,1,,,,,,115,WORD,"ID",33,guitar,GUITAR,m,,,,,,0.296484714,-0.308646308,1,0,0,,0,54,54,54,1,
,,,,,,,,,,,,,,,,,,5f010ab6dd343a125d4bd704,2020-08-10_18h21.00.062,lexical_decision_task_MP,2020.1.3,Linux armv8l,60,,0,-0.269657728,-0.347518158,1,0,0,0.6741,button_left,0.6741,1,,,,,,449,NW,UN,33,phrect,BRUNGE,z,,,,,,-0.269657728,-0.347518158,1,0,0,,0,55,55,388,1,
,,,,,,,,,,,,,,,,,,5f010ab6dd343a125d4bd704,2020-08-10_18h21.00.062,lexical_decision_task_MP,2020.1.3,Linux armv8l,60,,0,-0.289084159,-0.334561072,1,0,0,0.7523,button_left,0.7523,1,,,,,,369,NW,"ID",50,wronch,WRONCH,z,,,,,,-0.289084159,-0.334561072,1,0,0,,0,56,56,308,1,
,,,,,,,,,,,,,,,,,,5f010ab6dd343a125d4bd704,2020-08-10_18h21.00.062,lexical_decision_task_MP,2020.1.3,Linux armv8l,60,,0,-0.269657728,-0.329007806,1,0,0,0.6677,button_left,0.6677,1,,,,,,434,NW,UN,33,impurb,PITROM,z,,,,,,-0.269657728,-0.329007806,1,0,0,,0,57,57,373,1,
,,,,,,,,,,,,,,,,,,5f010ab6dd343a125d4bd704,2020-08-10_18h21.00.062,lexical_decision_task_MP,2020.1.3,Linux armv8l,60,,0,0.281683689,-0.316050466,1,0,0,0.668,button_right,0.668,1,,,,,,75,WORD,"ID",33,trophy,TROPHY,m,,,,,,0.281683689,-0.316050466,1,0,0,,0,58,58,14,1,
,,,,,,,,,,,,,,,,,,5f010ab6dd343a125d4bd704,2020-08-10_18h21.00.062,lexical_decision_task_MP,2020.1.3,Linux armv8l,60,,0,0.323311869,-0.277178616,1,0,0,0.6474,button_right,0.6474,1,,,,,,81,WORD,"ID",33,friend,FRIEND,m,,,,,,0.323311869,-0.277178616,1,0,0,,0,59,59,20,1,
,,,,,,,,,,,,,,,,,,5f010ab6dd343a125d4bd704,2020-08-10_18h21.00.062,lexical_decision_task_MP,2020.1.3,Linux armv8l,60,,0,-0.292784458,-0.316050466,1,0,0,0.7515,button_left,0.7515,1,,,,,,352,NW,"ID",33,tringe,TRINGE,z,,,,,,-0.292784458,-0.316050466,1,0,0,,0,60,60,291,1,
,,,,,,,,,,,,,,,,,,5f010ab6dd343a125d4bd704,2020-08-10_18h21.00.062,lexical_decision_task_MP,2020.1.3,Linux armv8l,60,,0,0.339963023,-0.258668264,1,0,0,0.6351,button_right,0.6351,1,,,,,,71,WORD,"ID",33,garden,GARDEN,m,,,,,,0.339963023,-0.258668264,1,0,0,,0,61,61,10,1,
,,,,,,,,,,,,,,,,,,5f010ab6dd343a125d4bd704,2020-08-10_18h21.00.062,lexical_decision_task_MP,2020.1.3,Linux armv8l,60,,0,-0.286308967,-0.324380154,1,0,0,0.5862,button_left,0.5862,1,,,,,,399,NW,"ID",50,fouret,FOURET,z,,,,,,-0.286308967,-0.324380154,1,0,0,,0,62,62,338,1,
,,,,,,,,,,,,,,,,,,5f010ab6dd343a125d4bd704,2020-08-10_18h21.00.062,lexical_decision_task_MP,2020.1.3,Linux armv8l,60,,0,-0.289084159,-0.317901527,1,0,0,0.6385,button_left,0.6385,1,,,,,,296,NW,UN,50,fertic,BEINCH,z,,,,,,-0.289084159,-0.317901527,1,0,0,,0,63,63,475,1,
,,,,,,,,,,,,,,,,,,5f010ab6dd343a125d4bd704,2020-08-10_18h21.00.062,lexical_decision_task_MP,2020.1.3,Linux armv8l,60,,0,-0.283533753,-0.31512502,1,0,0,0.6564,button_left,0.6564,1,,,,,,381,NW,"ID",50,huniek,HUNIEK,z,,,,,,-0.283533753,-0.31512502,1,0,0,,0,64,64,320,1,
,,,,,,,,,,,,,,,,,,5f010ab6dd343a125d4bd704,2020-08-10_18h21.00.062,lexical_decision_task_MP,2020.1.3,Linux armv8l,60,,0,0.281683689,-0.316050466,1,0,0,0.5527,button_right,0.5527,1,,,,,,153,WORD,"ID",50,behold,BEHOLD,m,,,,,,0.281683689,-0.316050466,1,0,0,,0,65,65,92,1,
,,,,,,,,,,,,,,,,,,5f010ab6dd343a125d4bd704,2020-08-10_18h21.00.062,lexical_decision_task_MP,2020.1.3,Linux armv8l,60,,0,0.292784458,-0.307720862,1,0,0,0.6033,button_right,0.6033,1,,,,,,99,WORD,"ID",33,fluent,FLUENT,m,,,,,,0.292784458,-0.307720862,1,0,0,,0,66,66,38,1,
,,,,,,,,,,,,,,,,,,5f010ab6dd343a125d4bd704,2020-08-10_18h21.00.062,lexical_decision_task_MP,2020.1.3,Linux armv8l,60,,0,0.300185055,-0.30031662,1,0,0,0.5505,button_right,0.5505,1,,,,,,63,WORD,"ID",33,launch,LAUNCH,m,,,,,,0.300185055,-0.30031662,1,0,0,,0,67,67,2,1,
,,,,,,,,,,,,,,,,,,5f010ab6dd343a125d4bd704,2020-08-10_18h21.00.062,lexical_decision_task_MP,2020.1.3,Linux armv8l,60,,0,0.304810418,-0.289210595,1,0,0,0.6059,button_right,0.6059,1,,,,,,197,WORD,UN,33,wicked,STREAM,m,,,,,,0.304810418,-0.289210595,1,0,0,,0,68,68,136,1,
,,,,,,,,,,,,,,,,,,5f010ab6dd343a125d4bd704,2020-08-10_18h21.00.062,lexical_decision_task_MP,2020.1.3,Linux armv8l,60,,0,-0.307585568,-0.295689138,1,0,0,0.5889,button_left,0.5889,0,,,,,,176,WORD,"ID",50,strife,STRIFE,m,,,,,,-0.307585568,-0.295689138,1,0,0,,0,69,69,115,1,
,,,,,,,,,,,,,,,,,,5f010ab6dd343a125d4bd704,2020-08-10_18h21.00.062,lexical_decision_task_MP,2020.1.3,Linux armv8l,60,,0,0.272432963,-0.321603648,1,0,0,0.5793,button_right,0.5793,1,,,,,,110,WORD,"ID",33,polite,POLITE,m,,,,,,0.272432963,-0.321603648,1,0,0,,0,70,70,49,1,
,,,,,,,,,,,,,,,,,,5f010ab6dd343a125d4bd704,2020-08-10_18h21.00.062,lexical_decision_task_MP,2020.1.3,Linux armv8l,60,,0,0.254856618,-0.360475498,1,0,0,0.5899,button_right,0.5899,0,,,,,,291,NW,UN,50,ablint,PRETCH,z,,,,,,0.254856618,-0.360475498,1,0,0,,0,71,71,470,1,
,,,,,,,,,,,,,,,,,,5f010ab6dd343a125d4bd704,2020-08-10_18h21.00.062,lexical_decision_task_MP,2020.1.3,Linux armv8l,60,,0,0.283533902,-0.31512502,1,0,0,0.6054,button_right,0.6054,1,,,,,,162,WORD,"ID",50,candle,CANDLE,m,,,,,,0.283533902,-0.31512502,1,0,0,,0,72,72,101,1,
,,,,,,,,,,,,,,,,,,5f010ab6dd343a125d4bd704,2020-08-10_18h21.00.062,lexical_decision_task_MP,2020.1.3,Linux armv8l,60,,0,-0.297409778,-0.326231215,1,0,0,0.6373,button_left,0.6373,1,,,,,,392,NW,"ID",50,rouncy,ROUNCY,z,,,,,,-0.297409778,-0.326231215,1,0,0,,0,73,73,331,1,
,,,,,,,,,,,,,,,,,,5f010ab6dd343a125d4bd704,2020-08-10_18h21.00.062,lexical_decision_task_MP,2020.1.3,Linux armv8l,60,,0,-0.311285845,-0.316976166,1,0,0,0.6784,button_left,0.6784,1,,,,,,464,NW,UN,33,whivex,CHAITE,z,,,,,,-0.311285845,-0.316976166,1,0,0,,0,74,74,403,1,
,,,,,,,,,,,,,,,,,,5f010ab6dd343a125d4bd704,2020-08-10_18h21.00.062,lexical_decision_task_MP,2020.1.3,Linux armv8l,60,,0,-0.260407024,-0.337337494,1,0,0,0.7265,button_left,0.7265,1,,,,,,333,NW,"ID",33,catrie,CATRIE,z,,,,,,-0.260407024,-0.337337494,1,0,0,,0,75,75,272,1,
,,,,,,,,,,,,,,,,,,5f010ab6dd343a125d4bd704,2020-08-10_18h21.00.062,lexical_decision_task_MP,2020.1.3,Linux armv8l,60,,0,0.331637404,-0.27625317,1,0,0,0.5635,button_right,0.5635,1,,,,,,123,WORD,"ID",50,strike,STRIKE,m,,,,,,0.331637404,-0.27625317,1,0,0,,0,76,76,62,1,
,,,,,,,,,,,,,,,,,,5f010ab6dd343a125d4bd704,2020-08-10_18h21.00.062,lexical_decision_task_MP,2020.1.3,Linux armv8l,60,,0,-0.28075854,-0.310497369,1,0,0,0.6954,button_left,0.6954,1,,,,,,429,NW,UN,33,caroey,FUNTLE,z,,,,,,-0.28075854,-0.310497369,1,0,0,,0,77,77,368,1,
,,,,,,,,,,,,,,,,,,5f010ab6dd343a125d4bd704,2020-08-10_18h21.00.062,lexical_decision_task_MP,2020.1.3,Linux armv8l,60,,0,-0.304810354,-0.320678033,1,0,0,0.7089,button_left,0.7089,1,,,,,,295,NW,UN,50,beinch,GLEATH,z,,,,,,-0.304810354,-0.320678033,1,0,0,,0,78,78,474,1,
,,,,,,,,,,,,,,,,,,5f010ab6dd343a125d4bd704,2020-08-10_18h21.00.062,lexical_decision_task_MP,2020.1.3,Linux armv8l,60,,0,-0.294634586,-0.326231215,1,0,0,0.5813,button_left,0.5813,1,,,,,,453,NW,UN,33,scouge,BOLVIS,z,,,,,,-0.294634586,-0.326231215,1,0,0,,0,79,79,392,1,
,,,,,,,,,,,,,,,,,,5f010ab6dd343a125d4bd704,2020-08-10_18h21.00.062,lexical_decision_task_MP,2020.1.3,Linux armv8l,60,,0,0.296484714,-0.301242235,1,0,0,0.6572,button_right,0.6572,1,,,,,,36,WORD,UN,50,insult,VANISH,m,,,,,,0.296484714,-0.301242235,1,0,0,,0,80,80,215,1,
,,,,,,,,,,,,,,,,,,5f010ab6dd343a125d4bd704,2020-08-10_18h21.00.062,lexical_decision_task_MP,2020.1.3,Linux armv8l,60,,0,-0.290009244,-0.304018741,1,0,0,0.6361,button_left,0.6361,1,,,,,,413,NW,"ID",50,equats,EQUATS,z,,,,,,-0.290009244,-0.304018741,1,0,0,,0,81,81,352,1,
,,,,,,,,,,,,,,,,,,5f010ab6dd343a125d4bd704,2020-08-10_18h21.00.062,lexical_decision_task_MP,2020.1.3,Linux armv8l,60,,0,-0.288159095,-0.319752587,1,0,0,0.606,button_left,0.606,1,,,,,,384,NW,"ID",50,guesco,GUESCO,z,,,,,,-0.288159095,-0.319752587,1,0,0,,0,82,82,323,1,
,,,,,,,,,,,,,,,,,,5f010ab6dd343a125d4bd704,2020-08-10_18h21.00.062,lexical_decision_task_MP,2020.1.3,Linux armv8l,60,,0,-0.297409778,-0.32715683,1,0,0,0.6684,button_left,0.6684,1,,,,,,393,NW,"ID",50,ganous,GANOUS,z,,,,,,-0.297409778,-0.32715683,1,0,0,,0,83,83,332,1,
,,,,,,,,,,,,,,,,,,5f010ab6dd343a125d4bd704,2020-08-10_18h21.00.062,lexical_decision_task_MP,2020.1.3,Linux armv8l,60,,0,-0.281683625,-0.322529093,1,0,0,0.6837,button_left,0.6837,1,,,,,,329,NW,"ID",33,yarike,YARIKE,z,,,,,,-0.281683625,-0.322529093,1,0,0,,0,84,84,268,1,
,,,,,,,,,,,,,,,,,,5f010ab6dd343a125d4bd704,2020-08-10_18h21.00.062,lexical_decision_task_MP,2020.1.3,Linux armv8l,60,,0,0.321461656,-0.316050466,1,0,0,0.6538,button_right,0.6538,1,,,,,,213,WORD,UN,33,intake,SQUEAL,m,,,,,,0.321461656,-0.316050466,1,0,0,,0,85,85,152,1,
,,,,,,,,,,,,,,,,,,5f010ab6dd343a125d4bd704,2020-08-10_18h21.00.062,lexical_decision_task_MP,2020.1.3,Linux armv8l,60,,0,-0.286308967,-0.336411879,1,0,0,0.6739,button_left,0.6739,1,,,,,,388,NW,"ID",50,cragin,CRAGIN,z,,,,,,-0.286308967,-0.336411879,1,0,0,,0,86,86,327,1,
,,,,,,,,,,,,,,,,,,5f010ab6dd343a125d4bd704,2020-08-10_18h21.00.062,lexical_decision_task_MP,2020.1.3,Linux armv8l,60,,0,-0.278908412,-0.335486433,1,0,0,0.6192,button_left,0.6192,1,,,,,,406,NW,"ID",50,nouply,NOUPLY,z,,,,,,-0.278908412,-0.335486433,1,0,0,,0,87,87,345,1,
,,,,,,,,,,,,,,,,,,5f010ab6dd343a125d4bd704,2020-08-10_18h21.00.062,lexical_decision_task_MP,2020.1.3,Linux armv8l,60,,0,-0.261332109,-0.340114,1,0,0,0.6894,button_left,0.6894,1,,,,,,470,NW,UN,33,nobest,CRUDIO,z,,,,,,-0.261332109,-0.340114,1,0,0,,0,88,88,409,1,
,,,,,,,,,,,,,,,,,,5f010ab6dd343a125d4bd704,2020-08-10_18h21.00.062,lexical_decision_task_MP,2020.1.3,Linux armv8l,60,,0,-0.291859394,-0.340114,1,0,0,0.6144,button_left,0.6144,1,,,,,,307,NW,"ID",33,kirafe,KIRAFE,z,,,,,,-0.291859394,-0.340114,1,0,0,,0,89,89,246,1,
,,,,,,,,,,,,,,,,,,5f010ab6dd343a125d4bd704,2020-08-10_18h21.00.062,lexical_decision_task_MP,2020.1.3,Linux armv8l,60,,0,-0.281683625,-0.333635373,1,0,0,0.5822,button_left,0.5822,1,,,,,,401,NW,"ID",50,mustil,MUSTIL,z,,,,,,-0.281683625,-0.333635373,1,0,0,,0,90,90,340,1,
,,,,,,,,,,,,,,,,,,5f010ab6dd343a125d4bd704,2020-08-10_18h21.00.062,lexical_decision_task_MP,2020.1.3,Linux armv8l,60,,0,-0.302035141,-0.31512502,1,0,0,0.678,button_left,0.678,1,,,,,,404,NW,"ID",50,cluirm,CLUIRM,z,,,,,,-0.302035141,-0.31512502,1,0,0,,0,91,91,343,1,
,,,,,,,,,,,,,,,,,,5f010ab6dd343a125d4bd704,2020-08-10_18h21.00.062,lexical_decision_task_MP,2020.1.3,Linux armv8l,60,,0,0.286308967,-0.316976166,1,0,0,0.6289,button_right,0.6289,1,,,,,,124,WORD,"ID",50,blouse,BLOUSE,m,,,,,,0.286308967,-0.316976166,1,0,0,,0,92,92,63,1,
,,,,,,,,,,,,,,,,,,5f010ab6dd343a125d4bd704,2020-08-10_18h21.00.062,lexical_decision_task_MP,2020.1.3,Linux armv8l,60,,0,0.290934414,-0.302167681,1,0,0,0.6972,button_right,0.6972,1,,,,,,66,WORD,"ID",33,gospel,GOSPEL,m,,,,,,0.290934414,-0.302167681,1,0,0,,0,93,93,5,1,
,,,,,,,,,,,,,,,,,,5f010ab6dd343a125d4bd704,2020-08-10_18h21.00.062,lexical_decision_task_MP,2020.1.3,Linux armv8l,60,,0,0.287234073,-0.291987016,1,0,0,0.64,button_right,0.64,1,,,,,,25,WORD,UN,50,sprint,DOMAIN,m,,,,,,0.287234073,-0.291987016,1,0,0,,0,94,94,204,1,
,,,,,,,,,,,,,,,,,,5f010ab6dd343a125d4bd704,2020-08-10_18h21.00.062,lexical_decision_task_MP,2020.1.3,Linux armv8l,60,,0,-0.300185013,-0.302167681,1,0,0,0.7195,button_left,0.7195,1,,,,,,250,NW,UN,50,lupict,MILTED,z,,,,,,-0.300185013,-0.302167681,1,0,0,,0,95,95,429,1,
,,,,,,,,,,,,,,,,,,5f010ab6dd343a125d4bd704,2020-08-10_18h21.00.062,lexical_decision_task_MP,2020.1.3,Linux armv8l,60,,0,0.276133219,-0.322529093,1,0,0,0.6786,button_right,0.6786,1,,,,,,85,WORD,"ID",33,sprawl,SPRAWL,m,,,,,,0.276133219,-0.322529093,1,0,0,,0,96,96,24,1,
,,,,,,,,,,,,,,,,,,5f010ab6dd343a125d4bd704,2020-08-10_18h21.00.062,lexical_decision_task_MP,2020.1.3,Linux armv8l,60,,0,-0.315911187,-0.296614583,1,0,0,0.9527,button_left,0.9527,1,,,,,,284,NW,UN,50,prudge,SHAPLE,z,,,,,,-0.315911187,-0.296614583,1,0,0,,0,97,97,463,1,
,,,,,,,,,,,,,,,,,,5f010ab6dd343a125d4bd704,2020-08-10_18h21.00.062,lexical_decision_task_MP,2020.1.3,Linux armv8l,60,,0,0.286308967,-0.31512502,1,0,0,0.7207,button_right,0.7207,1,,,,,,52,WORD,UN,50,police,IMPOSE,m,,,,,,0.286308967,-0.31512502,1,0,0,,0,98,98,231,1,
,,,,,,,,,,,,,,,,,,5f010ab6dd343a125d4bd704,2020-08-10_18h21.00.062,lexical_decision_task_MP,2020.1.3,Linux armv8l,60,,0,-0.261332109,-0.347518158,1,0,0,0.7918,button_left,0.7918,1,,,,,,304,NW,"ID",33,cludie,CLUDIE,z,,,,,,-0.261332109,-0.347518158,1,0,0,,0,99,99,243,1,
,,,,,,,,,,,,,,,,,,5f010ab6dd343a125d4bd704,2020-08-10_18h21.00.062,lexical_decision_task_MP,2020.1.3,Linux armv8l,60,,0,0.271507941,-0.333635373,1,0,0,0.8912,button_right,0.8912,1,,,,,,33,WORD,UN,50,jungle,BUTLER,m,,,,,,0.271507941,-0.333635373,1,0,0,,0,100,100,212,1,
,,,,,,,,,,,,,,,,,,5f010ab6dd343a125d4bd704,2020-08-10_18h21.00.062,lexical_decision_task_MP,2020.1.3,Linux armv8l,60,,0,-0.296484735,-0.341965061,1,0,0,0.6963,button_left,0.6963,1,,,,,,480,NW,UN,33,knisma,ROBULY,z,,,,,,-0.296484735,-0.341965061,1,0,0,,0,101,101,419,1,
,,,,,,,,,,,,,,,,,,5f010ab6dd343a125d4bd704,2020-08-10_18h21.00.062,lexical_decision_task_MP,2020.1.3,Linux armv8l,60,,0,-0.290009244,-0.335486433,1,0,0,0.7288,button_left,0.7288,1,,,,,,458,NW,UN,33,hocite,BARCET,z,,,,,,-0.290009244,-0.335486433,1,0,0,,0,102,102,397,1,
,,,,,,,,,,,,,,,,,,5f010ab6dd343a125d4bd704,2020-08-10_18h21.00.062,lexical_decision_task_MP,2020.1.3,Linux armv8l,60,,0,0.302960205,-0.291061401,1,0,0,0.6709,button_right,0.6709,1,,,,,,56,WORD,UN,50,change,AMBUSH,m,,,,,,0.302960205,-0.291061401,1,0,0,,0,103,103,235,1,
,,,,,,,,,,,,,,,,,,5f010ab6dd343a125d4bd704,2020-08-10_18h21.00.062,lexical_decision_task_MP,2020.1.3,Linux armv8l,60,,0,0.297409905,-0.307720862,1,0,0,0.6854,button_right,0.6854,1,,,,,,188,WORD,UN,33,censor,SOCIAL,m,,,,,,0.297409905,-0.307720862,1,0,0,,0,104,104,127,1,
,,,,,,,,,,,,,,,,,,5f010ab6dd343a125d4bd704,2020-08-10_18h21.00.062,lexical_decision_task_MP,2020.1.3,Linux armv8l,60,,0,0.314061059,-0.291987016,1,0,0,0.5902,button_right,0.5902,1,,,,,,137,WORD,"ID",50,finger,FINGER,m,,,,,,0.314061059,-0.291987016,1,0,0,,0,105,105,76,1,
,,,,,,,,,,,,,,,,,,5f010ab6dd343a125d4bd704,2020-08-10_18h21.00.062,lexical_decision_task_MP,2020.1.3,Linux armv8l,60,,0,0.322386678,-0.294763523,1,0,0,0.6201,button_right,0.6201,1,,,,,,27,WORD,UN,50,comedy,SCREAM,m,,,,,,0.322386678,-0.294763523,1,0,0,,0,106,106,206,1,
,,,,,,,,,,,,,,,,,,5f010ab6dd343a125d4bd704,2020-08-10_18h21.00.062,lexical_decision_task_MP,2020.1.3,Linux armv8l,60,,0,0.273357985,-0.340114,1,0,0,0.6951,button_right,0.6951,1,,,,,,107,WORD,"ID",33,slogan,SLOGAN,m,,,,,,0.273357985,-0.340114,1,0,0,,0,107,107,46,1,
,,,,,,,,,,,,,,,,,,5f010ab6dd343a125d4bd704,2020-08-10_18h21.00.062,lexical_decision_task_MP,2020.1.3,Linux armv8l,60,,0,0.30573544,-0.294763523,1,0,0,0.5846,button_right,0.5846,1,,,,,,133,WORD,"ID",50,chrome,CHROME,m,,,,,,0.30573544,-0.294763523,1,0,0,,0,108,108,72,1,
,,,,,,,,,,,,,,,,,,5f010ab6dd343a125d4bd704,2020-08-10_18h21.00.062,lexical_decision_task_MP,2020.1.3,Linux armv8l,60,,0,0.313136037,-0.284582774,1,0,0,0.5823,button_right,0.5823,1,,,,,,5,WORD,UN,50,bundle,PLUNGE,m,,,,,,0.313136037,-0.284582774,1,0,0,,0,109,109,184,1,
,,,,,,,,,,,,,,,,,,5f010ab6dd343a125d4bd704,2020-08-10_18h21.00.062,lexical_decision_task_MP,2020.1.3,Linux armv8l,60,,0,0.265957472,-0.338262939,1,0,0,0.5862,button_right,0.5862,1,,,,,,157,WORD,"ID",50,dragon,DRAGON,m,,,,,,0.265957472,-0.338262939,1,0,0,,0,110,110,96,1,
,,,,,,,,,,,,,,,,,,5f010ab6dd343a125d4bd704,2020-08-10_18h21.00.062,lexical_decision_task_MP,2020.1.3,Linux armv8l,60,,0,-0.306660504,-0.30309338,1,0,0,0.6584,button_left,0.6584,1,,,,,,278,NW,UN,50,celond,UNIGHS,z,,,,,,-0.306660504,-0.30309338,1,0,0,,0,111,111,457,1,
,,,,,,,,,,,,,,,,,,5f010ab6dd343a125d4bd704,2020-08-10_18h21.00.062,lexical_decision_task_MP,2020.1.3,Linux armv8l,60,,0,0.295559692,-0.298465644,1,0,0,0.6508,button_right,0.6508,1,,,,,,79,WORD,"ID",33,theory,THEORY,m,,,,,,0.295559692,-0.298465644,1,0,0,,0,112,112,18,1,
,,,,,,,,,,,,,,,,,,5f010ab6dd343a125d4bd704,2020-08-10_18h21.00.062,lexical_decision_task_MP,2020.1.3,Linux armv8l,60,,0,-0.285383903,-0.340114,1,0,0,0.691,button_left,0.691,1,,,,,,476,NW,UN,33,photie,JOSTED,z,,,,,,-0.285383903,-0.340114,1,0,0,,0,113,113,415,1,
,,,,,,,,,,,,,,,,,,5f010ab6dd343a125d4bd704,2020-08-10_18h21.00.062,lexical_decision_task_MP,2020.1.3,Linux armv8l,60,,0,0.28815918,-0.308646308,1,0,0,0.6062,button_right,0.6062,1,,,,,,209,WORD,UN,33,monkey,SEARCH,m,,,,,,0.28815918,-0.308646308,1,0,0,,0,114,114,148,1,
,,,,,,,,,,,,,,,,,,5f010ab6dd343a125d4bd704,2020-08-10_18h21.00.062,lexical_decision_task_MP,2020.1.3,Linux armv8l,60,,0,-0.304810354,-0.317901527,1,0,0,0.7042,button_left,0.7042,1,,,,,,396,NW,"ID",50,flengy,FLENGY,z,,,,,,-0.304810354,-0.317901527,1,0,0,,0,115,115,335,1,
,,,,,,,,,,,,,,,,,,5f010ab6dd343a125d4bd704,2020-08-10_18h21.00.062,lexical_decision_task_MP,2020.1.3,Linux armv8l,60,,0,0.339037916,-0.301242235,1,0,0,0.6402,button_right,0.6402,1,,,,,,74,WORD,"ID",33,plaque,PLAQUE,m,,,,,,0.339037916,-0.301242235,1,0,0,,0,116,116,13,1,
,,,,,,,,,,,,,,,,,,5f010ab6dd343a125d4bd704,2020-08-10_18h21.00.062,lexical_decision_task_MP,2020.1.3,Linux armv8l,60,,0,0.294634671,-0.316976166,1,0,0,0.722,button_right,0.722,1,,,,,,35,WORD,UN,50,vanish,SOCKET,m,,,,,,0.294634671,-0.316976166,1,0,0,,0,117,117,214,1,
,,,,,,,,,,,,,,,,,,5f010ab6dd343a125d4bd704,2020-08-10_18h21.00.062,lexical_decision_task_MP,2020.1.3,Linux armv8l,60,,0,-0.302035141,-0.324380154,1,0,0,0.622,button_left,0.622,1,,,,,,286,NW,UN,50,nymbel,RELDON,z,,,,,,-0.302035141,-0.324380154,1,0,0,,0,118,118,465,1,
,,,,,,,,,,,,,,,,,,5f010ab6dd343a125d4bd704,2020-08-10_18h21.00.062,lexical_decision_task_MP,2020.1.3,Linux armv8l,60,,0,-0.296484735,-0.336411879,1,0,0,0.6626,button_left,0.6626,1,,,,,,263,NW,UN,50,vackel,DOLICA,z,,,,,,-0.296484735,-0.336411879,1,0,0,,0,119,119,442,1,
,,,,,,,,,,,,,,,,,,5f010ab6dd343a125d4bd704,2020-08-10_18h21.00.062,lexical_decision_task_MP,2020.1.3,Linux armv8l,60,,0,0.309435696,-0.293838077,1,0,0,0.6876,button_right,0.6876,1,,,,,,21,WORD,UN,50,jockey,SIMPLE,m,,,,,,0.092969555,-0.393794335,1,0,0,,0,120,120,200,1,break_done_button
,,,,,,,,,,,,,,,,,,5f010ab6dd343a125d4bd704,2020-08-10_18h21.00.062,lexical_decision_task_MP,2020.1.3,Linux armv8l,60,,0,0.277058411,-0.286433834,1,0,0,0.6076,button_right,0.6076,1,,,,,,233,WORD,UN,33,clumsy,NATURE,m,,,,,,0.277058411,-0.286433834,1,0,0,,0,121,121,172,1,
,,,,,,,,,,,,,,,,,,5f010ab6dd343a125d4bd704,2020-08-10_18h21.00.062,lexical_decision_task_MP,2020.1.3,Linux armv8l,60,,0,0.259481981,-0.319752587,1,0,0,0.5873,button_right,0.5873,1,,,,,,216,WORD,UN,33,liquor,BEHALF,m,,,,,,0.259481981,-0.319752587,1,0,0,,0,122,122,155,1,
,,,,,,,,,,,,,,,,,,5f010ab6dd343a125d4bd704,2020-08-10_18h21.00.062,lexical_decision_task_MP,2020.1.3,Linux armv8l,60,,0,-0.320536508,-0.332709927,1,0,0,0.5237,button_left,0.5237,1,,,,,,403,NW,"ID",50,bruats,BRUATS,z,,,,,,-0.320536508,-0.332709927,1,0,0,,0,123,123,342,1,
,,,,,,,,,,,,,,,,,,5f010ab6dd343a125d4bd704,2020-08-10_18h21.00.062,lexical_decision_task_MP,2020.1.3,Linux armv8l,60,,0,-0.327937084,-0.323454709,1,0,0,0.6368,button_left,0.6368,1,,,,,,281,NW,UN,50,porlex,MELATY,z,,,,,,-0.327937084,-0.323454709,1,0,0,,0,124,124,460,1,
,,,,,,,,,,,,,,,,,,5f010ab6dd343a125d4bd704,2020-08-10_18h21.00.062,lexical_decision_task_MP,2020.1.3,Linux armv8l,60,,0,0.280758582,-0.30031662,1,0,0,0.5174,button_right,0.5174,1,,,,,,160,WORD,"ID",50,violet,VIOLET,m,,,,,,0.280758582,-0.30031662,1,0,0,,0,125,125,99,1,
,,,,,,,,,,,,,,,,,,5f010ab6dd343a125d4bd704,2020-08-10_18h21.00.062,lexical_decision_task_MP,2020.1.3,Linux armv8l,60,,0,-0.313135974,-0.313274044,1,0,0,0.5884,button_left,0.5884,1,,,,,,268,NW,UN,50,orchet,PACKES,z,,,,,,-0.313135974,-0.313274044,1,0,0,,0,126,126,447,1,
,,,,,,,,,,,,,,,,,,5f010ab6dd343a125d4bd704,2020-08-10_18h21.00.062,lexical_decision_task_MP,2020.1.3,Linux armv8l,60,,0,-0.304810354,-0.316050466,1,0,0,0.6601,button_left,0.6601,1,,,,,,314,NW,"ID",33,sprine,SPRINE,z,,,,,,-0.304810354,-0.316050466,1,0,0,,0,127,127,253,1,
,,,,,,,,,,,,,,,,,,5f010ab6dd343a125d4bd704,2020-08-10_18h21.00.062,lexical_decision_task_MP,2020.1.3,Linux armv8l,60,,0,0.276133219,-0.31419949,1,0,0,0.6699,button_right,0.6699,1,,,,,,32,WORD,UN,50,scream,BUCKLE,m,,,,,,0.276133219,-0.31419949,1,0,0,,0,128,128,211,1,
,,,,,,,,,,,,,,,,,,5f010ab6dd343a125d4bd704,2020-08-10_18h21.00.062,lexical_decision_task_MP,2020.1.3,Linux armv8l,60,,0,0.259481981,-0.331784312,1,0,0,0.6643,button_right,0.6643,1,,,,,,117,WORD,"ID",33,branch,BRANCH,m,,,,,,0.259481981,-0.331784312,1,0,0,,0,129,129,56,1,
,,,,,,,,,,,,,,,,,,5f010ab6dd343a125d4bd704,2020-08-10_18h21.00.062,lexical_decision_task_MP,2020.1.3,Linux armv8l,60,,0,-0.294634586,-0.310497369,1,0,0,0.6197,button_left,0.6197,1,,,,,,442,NW,UN,33,dorsex,ABOUNE,z,,,,,,-0.294634586,-0.310497369,1,0,0,,0,130,130,381,1,
,,,,,,,,,,,,,,,,,,5f010ab6dd343a125d4bd704,2020-08-10_18h21.00.062,lexical_decision_task_MP,2020.1.3,Linux armv8l,60,,0,0.272432963,-0.31512502,1,0,0,0.6099,button_right,0.6099,1,,,,,,205,WORD,UN,33,tailor,LOUNGE,m,,,,,,0.272432963,-0.31512502,1,0,0,,0,131,131,144,1,
,,,,,,,,,,,,,,,,,,5f010ab6dd343a125d4bd704,2020-08-10_18h21.00.062,lexical_decision_task_MP,2020.1.3,Linux armv8l,60,,0,0.277058411,-0.31419949,1,0,0,0.6095,button_right,0.6095,1,,,,,,83,WORD,"ID",33,result,RESULT,m,,,,,,0.277058411,-0.31419949,1,0,0,,0,132,132,22,1,
,,,,,,,,,,,,,,,,,,5f010ab6dd343a125d4bd704,2020-08-10_18h21.00.062,lexical_decision_task_MP,2020.1.3,Linux armv8l,60,,0,-0.284458839,-0.319752587,1,0,0,0.5924,button_left,0.5924,1,,,,,,272,NW,UN,50,sortel,DAMILT,z,,,,,,-0.284458839,-0.319752587,1,0,0,,0,133,133,451,1,
,,,,,,,,,,,,,,,,,,5f010ab6dd343a125d4bd704,2020-08-10_18h21.00.062,lexical_decision_task_MP,2020.1.3,Linux armv8l,60,,0,-0.278908412,-0.323454709,1,0,0,0.9975,button_left,0.9975,1,,,,,,398,NW,"ID",50,blunde,BLUNDE,z,,,,,,-0.278908412,-0.323454709,1,0,0,,0,134,134,337,1,
,,,,,,,,,,,,,,,,,,5f010ab6dd343a125d4bd704,2020-08-10_18h21.00.062,lexical_decision_task_MP,2020.1.3,Linux armv8l,60,,0,-0.273357985,-0.289210595,1,0,0,0.6162,button_left,0.6162,1,,,,,,256,NW,UN,50,veniod,INLORS,z,,,,,,-0.273357985,-0.289210595,1,0,0,,0,135,135,435,1,
,,,,,,,,,,,,,,,,,,5f010ab6dd343a125d4bd704,2020-08-10_18h21.00.062,lexical_decision_task_MP,2020.1.3,Linux armv8l,60,,0,-0.272432921,-0.294763523,1,0,0,0.61,button_left,0.61,1,,,,,,302,NW,"ID",33,miluer,MILUER,z,,,,,,-0.272432921,-0.294763523,1,0,0,,0,136,136,241,1,
,,,,,,,,,,,,,,,,,,5f010ab6dd343a125d4bd704,2020-08-10_18h21.00.062,lexical_decision_task_MP,2020.1.3,Linux armv8l,60,,0,0.290934414,-0.316050466,1,0,0,0.6044,button_right,0.6044,1,,,,,,101,WORD,"ID",33,wrench,WRENCH,m,,,,,,0.290934414,-0.316050466,1,0,0,,0,137,137,40,1,
,,,,,,,,,,,,,,,,,,5f010ab6dd343a125d4bd704,2020-08-10_18h21.00.062,lexical_decision_task_MP,2020.1.3,Linux armv8l,60,,0,-0.274283049,-0.311422899,1,0,0,0.6685,button_left,0.6685,1,,,,,,289,NW,UN,50,splino,STARBY,z,,,,,,-0.274283049,-0.311422899,1,0,0,,0,138,138,468,1,
,,,,,,,,,,,,,,,,,,5f010ab6dd343a125d4bd704,2020-08-10_18h21.00.062,lexical_decision_task_MP,2020.1.3,Linux armv8l,60,,0,-0.277983348,-0.28735945,1,0,0,0.6993,button_left,0.6993,1,,,,,,310,NW,"ID",33,daniet,DANIET,z,,,,,,-0.277983348,-0.28735945,1,0,0,,0,139,139,249,1,
,,,,,,,,,,,,,,,,,,5f010ab6dd343a125d4bd704,2020-08-10_18h21.00.062,lexical_decision_task_MP,2020.1.3,Linux armv8l,60,,0,-0.266882515,-0.294763523,1,0,0,0.6737,button_left,0.6737,1,,,,,,266,NW,UN,50,pasink,VARMIT,z,,,,,,-0.266882515,-0.294763523,1,0,0,,0,140,140,445,1,
,,,,,,,,,,,,,,,,,,5f010ab6dd343a125d4bd704,2020-08-10_18h21.00.062,lexical_decision_task_MP,2020.1.3,Linux armv8l,60,,0,-0.274283049,-0.307720862,1,0,0,0.6636,button_left,0.6636,1,,,,,,341,NW,"ID",33,myrtie,MYRTIE,z,,,,,,-0.274283049,-0.307720862,1,0,0,,0,141,141,280,1,
,,,,,,,,,,,,,,,,,,5f010ab6dd343a125d4bd704,2020-08-10_18h21.00.062,lexical_decision_task_MP,2020.1.3,Linux armv8l,60,,0,-0.282608668,-0.279955207,1,0,0,0.6714,button_left,0.6714,1,,,,,,283,NW,UN,50,shaple,VERALF,z,,,,,,-0.282608668,-0.279955207,1,0,0,,0,142,142,462,1,
,,,,,,,,,,,,,,,,,,5f010ab6dd343a125d4bd704,2020-08-10_18h21.00.062,lexical_decision_task_MP,2020.1.3,Linux armv8l,60,,0,-0.276133177,-0.291061401,1,0,0,0.6429,button_left,0.6429,1,,,,,,313,NW,"ID",33,paurse,PAURSE,z,,,,,,-0.276133177,-0.291061401,1,0,0,,0,143,143,252,1,
,,,,,,,,,,,,,,,,,,5f010ab6dd343a125d4bd704,2020-08-10_18h21.00.062,lexical_decision_task_MP,2020.1.3,Linux armv8l,60,,0,0.276133219,-0.316976166,1,0,0,0.5938,button_right,0.5938,1,,,,,,229,WORD,UN,33,fringe,MOTHER,m,,,,,,0.276133219,-0.316976166,1,0,0,,0,144,144,168,1,
,,,,,,,,,,,,,,,,,,5f010ab6dd343a125d4bd704,2020-08-10_18h21.00.062,lexical_decision_task_MP,2020.1.3,Linux armv8l,60,,0,-0.26595743,-0.304018741,1,0,0,0.6373,button_left,0.6373,1,,,,,,370,NW,"ID",50,sleact,SLEACT,z,,,,,,-0.26595743,-0.304018741,1,0,0,,0,145,145,309,1,
,,,,,,,,,,,,,,,,,,5f010ab6dd343a125d4bd704,2020-08-10_18h21.00.062,lexical_decision_task_MP,2020.1.3,Linux armv8l,60,,0,-0.271507857,-0.294763523,1,0,0,0.6889,button_left,0.6889,1,,,,,,389,NW,"ID",50,witmer,WITMER,z,,,,,,-0.271507857,-0.294763523,1,0,0,,0,146,146,328,1,
,,,,,,,,,,,,,,,,,,5f010ab6dd343a125d4bd704,2020-08-10_18h21.00.062,lexical_decision_task_MP,2020.1.3,Linux armv8l,60,,0,0.273357985,-0.310497369,1,0,0,0.5749,button_right,0.5749,1,,,,,,113,WORD,"ID",33,chorus,CHORUS,m,,,,,,0.273357985,-0.310497369,1,0,0,,0,147,147,52,1,
,,,,,,,,,,,,,,,,,,5f010ab6dd343a125d4bd704,2020-08-10_18h21.00.062,lexical_decision_task_MP,2020.1.3,Linux armv8l,60,,0,0.283533902,-0.299391259,1,0,0,0.5842,button_right,0.5842,1,,,,,,136,WORD,"ID",50,bleach,BLEACH,m,,,,,,0.283533902,-0.299391259,1,0,0,,0,148,148,75,1,
,,,,,,,,,,,,,,,,,,5f010ab6dd343a125d4bd704,2020-08-10_18h21.00.062,lexical_decision_task_MP,2020.1.3,Linux armv8l,60,,0,-0.286308967,-0.302167681,1,0,0,0.6961,button_left,0.6961,1,,,,,,459,NW,UN,33,mingar,BAFENT,z,,,,,,-0.286308967,-0.302167681,1,0,0,,0,149,149,398,1,
,,,,,,,,,,,,,,,,,,5f010ab6dd343a125d4bd704,2020-08-10_18h21.00.062,lexical_decision_task_MP,2020.1.3,Linux armv8l,60,,0,0.263182237,-0.317901527,1,0,0,0.7584,button_right,0.7584,1,,,,,,186,WORD,UN,33,course,PORTAL,m,,,,,,0.263182237,-0.317901527,1,0,0,,0,150,150,125,1,
,,,,,,,,,,,,,,,,,,5f010ab6dd343a125d4bd704,2020-08-10_18h21.00.062,lexical_decision_task_MP,2020.1.3,Linux armv8l,60,,0,-0.272432921,-0.305869802,1,0,0,0.6635,button_left,0.6635,1,,,,,,461,NW,UN,33,absult,JUSTRE,z,,,,,,-0.272432921,-0.305869802,1,0,0,,0,151,151,400,1,
,,,,,,,,,,,,,,,,,,5f010ab6dd343a125d4bd704,2020-08-10_18h21.00.062,lexical_decision_task_MP,2020.1.3,Linux armv8l,60,,0,0.269657728,-0.329933336,1,0,0,0.6873,button_right,0.6873,1,,,,,,23,WORD,UN,50,praise,WEALTH,m,,,,,,0.269657728,-0.329933336,1,0,0,,0,152,152,202,1,
,,,,,,,,,,,,,,,,,,5f010ab6dd343a125d4bd704,2020-08-10_18h21.00.062,lexical_decision_task_MP,2020.1.3,Linux armv8l,60,,0,0.28260871,-0.308646308,1,0,0,0.6116,button_right,0.6116,1,,,,,,95,WORD,"ID",33,thread,THREAD,m,,,,,,0.28260871,-0.308646308,1,0,0,,0,153,153,34,1,
,,,,,,,,,,,,,,,,,,5f010ab6dd343a125d4bd704,2020-08-10_18h21.00.062,lexical_decision_task_MP,2020.1.3,Linux armv8l,60,,0,-0.274283049,-0.305869802,1,0,0,0.6071,button_left,0.6071,1,,,,,,246,NW,UN,50,blarge,PIATON,z,,,,,,-0.274283049,-0.305869802,1,0,0,,0,154,154,425,1,
,,,,,,,,,,,,,,,,,,5f010ab6dd343a125d4bd704,2020-08-10_18h21.00.062,lexical_decision_task_MP,2020.1.3,Linux armv8l,60,,0,0.298334927,-0.279955207,1,0,0,0.6706,button_right,0.6706,1,,,,,,30,WORD,UN,50,weapon,ORIENT,m,,,,,,0.298334927,-0.279955207,1,0,0,,0,155,155,209,1,
,,,,,,,,,,,,,,,,,,5f010ab6dd343a125d4bd704,2020-08-10_18h21.00.062,lexical_decision_task_MP,2020.1.3,Linux armv8l,60,,0,-0.267807558,-0.30309338,1,0,0,0.6555,button_left,0.6555,1,,,,,,407,NW,"ID",50,suiver,SUIVER,z,,,,,,-0.267807558,-0.30309338,1,0,0,,0,156,156,346,1,
,,,,,,,,,,,,,,,,,,5f010ab6dd343a125d4bd704,2020-08-10_18h21.00.062,lexical_decision_task_MP,2020.1.3,Linux armv8l,60,,0,-0.277058283,-0.316976166,1,0,0,0.5944,button_left,0.5944,1,,,,,,334,NW,"ID",33,watmeg,WATMEG,z,,,,,,-0.277058283,-0.316976166,1,0,0,,0,157,157,273,1,
,,,,,,,,,,,,,,,,,,5f010ab6dd343a125d4bd704,2020-08-10_18h21.00.062,lexical_decision_task_MP,2020.1.3,Linux armv8l,60,,0,0.292784458,-0.313274044,1,0,0,0.5679,button_right,0.5679,1,,,,,,126,WORD,"ID",50,enough,ENOUGH,m,,,,,,0.292784458,-0.313274044,1,0,0,,0,158,158,65,1,
,,,,,,,,,,,,,,,,,,5f010ab6dd343a125d4bd704,2020-08-10_18h21.00.062,lexical_decision_task_MP,2020.1.3,Linux armv8l,60,,0,-0.288159095,-0.302167681,1,0,0,0.636,button_left,0.636,1,,,,,,245,NW,UN,50,piaton,ANOUGS,z,,,,,,-0.288159095,-0.302167681,1,0,0,,0,159,159,424,1,
,,,,,,,,,,,,,,,,,,5f010ab6dd343a125d4bd704,2020-08-10_18h21.00.062,lexical_decision_task_MP,2020.1.3,Linux armv8l,60,,0,0.284458923,-0.31512502,1,0,0,0.7033,button_right,0.7033,1,,,,,,103,WORD,"ID",33,bounce,BOUNCE,m,,,,,,0.284458923,-0.31512502,1,0,0,,0,160,160,42,1,
,,,,,,,,,,,,,,,,,,5f010ab6dd343a125d4bd704,2020-08-10_18h21.00.062,lexical_decision_task_MP,2020.1.3,Linux armv8l,60,,0,-0.273357985,-0.310497369,1,0,0,0.6272,button_left,0.6272,1,,,,,,328,NW,"ID",33,broake,BROAKE,z,,,,,,-0.273357985,-0.310497369,1,0,0,,0,161,161,267,1,
,,,,,,,,,,,,,,,,,,5f010ab6dd343a125d4bd704,2020-08-10_18h21.00.062,lexical_decision_task_MP,2020.1.3,Linux armv8l,60,,0,-0.281683625,-0.312348429,1,0,0,0.9656,button_left,0.9656,1,,,,,,287,NW,UN,50,yaceup,NYMBEL,z,,,,,,-0.281683625,-0.312348429,1,0,0,,0,162,162,466,1,
,,,,,,,,,,,,,,,,,,5f010ab6dd343a125d4bd704,2020-08-10_18h21.00.062,lexical_decision_task_MP,2020.1.3,Linux armv8l,60,,0,0.260407088,-0.335486433,1,0,0,0.8264,button_right,0.8264,1,,,,,,182,WORD,UN,33,absent,WINTER,m,,,,,,0.260407088,-0.335486433,1,0,0,,0,163,163,121,1,
,,,,,,,,,,,,,,,,,,5f010ab6dd343a125d4bd704,2020-08-10_18h21.00.062,lexical_decision_task_MP,2020.1.3,Linux armv8l,60,,0,0.278908454,-0.304944187,1,0,0,0.8408,button_right,0.8408,1,,,,,,184,WORD,UN,33,bother,SLEAZY,m,,,,,,0.278908454,-0.304944187,1,0,0,,0,164,164,123,1,
,,,,,,,,,,,,,,,,,,5f010ab6dd343a125d4bd704,2020-08-10_18h21.00.062,lexical_decision_task_MP,2020.1.3,Linux armv8l,60,,0,0.279833476,-0.308646308,1,0,0,0.5225,button_right,0.5225,1,,,,,,149,WORD,"ID",50,invade,INVADE,m,,,,,,0.279833476,-0.308646308,1,0,0,,0,165,165,88,1,
,,,,,,,,,,,,,,,,,,5f010ab6dd343a125d4bd704,2020-08-10_18h21.00.062,lexical_decision_task_MP,2020.1.3,Linux armv8l,60,,0,0.273357985,-0.312348429,1,0,0,0.6796,button_right,0.6796,0,,,,,,473,NW,UN,33,hablin,CRIBLE,z,,,,,,0.273357985,-0.312348429,1,0,0,,0,166,166,412,1,
,,,,,,,,,,,,,,,,,,5f010ab6dd343a125d4bd704,2020-08-10_18h21.00.062,lexical_decision_task_MP,2020.1.3,Linux armv8l,60,,0,-0.284458839,-0.31512502,1,0,0,0.5576,button_left,0.5576,1,,,,,,455,NW,UN,33,broget,TONDLE,z,,,,,,-0.284458839,-0.31512502,1,0,0,,0,167,167,394,1,
,,,,,,,,,,,,,,,,,,5f010ab6dd343a125d4bd704,2020-08-10_18h21.00.062,lexical_decision_task_MP,2020.1.3,Linux armv8l,60,,0,-0.271507857,-0.307720862,1,0,0,0.588,button_left,0.588,1,,,,,,267,NW,UN,50,packes,PASINK,z,,,,,,-0.271507857,-0.307720862,1,0,0,,0,168,168,446,1,
,,,,,,,,,,,,,,,,,,5f010ab6dd343a125d4bd704,2020-08-10_18h21.00.062,lexical_decision_task_MP,2020.1.3,Linux armv8l,60,,0,-0.282608668,-0.308646308,1,0,0,0.621,button_left,0.621,1,,,,,,269,NW,UN,50,wrimsy,ORCHET,z,,,,,,-0.282608668,-0.308646308,1,0,0,,0,169,169,448,1,
,,,,,,,,,,,,,,,,,,5f010ab6dd343a125d4bd704,2020-08-10_18h21.00.062,lexical_decision_task_MP,2020.1.3,Linux armv8l,60,,0,-0.272432921,-0.304018741,1,0,0,0.6535,button_left,0.6535,1,,,,,,376,NW,"ID",50,iguare,IGUARE,z,,,,,,-0.272432921,-0.304018741,1,0,0,,0,170,170,315,1,
,,,,,,,,,,,,,,,,,,5f010ab6dd343a125d4bd704,2020-08-10_18h21.00.062,lexical_decision_task_MP,2020.1.3,Linux armv8l,60,,0,0.281683689,-0.296614583,1,0,0,0.6412,button_right,0.6412,1,,,,,,194,WORD,UN,33,resign,ABSENT,m,,,,,,0.281683689,-0.296614583,1,0,0,,0,171,171,133,1,
,,,,,,,,,,,,,,,,,,5f010ab6dd343a125d4bd704,2020-08-10_18h21.00.062,lexical_decision_task_MP,2020.1.3,Linux armv8l,60,,0,0.272432963,-0.307720862,1,0,0,0.5469,button_right,0.5469,0,,,,,,305,NW,"ID",33,forgle,FORGLE,z,,,,,,0.272432963,-0.307720862,1,0,0,,0,172,172,244,1,
,,,,,,,,,,,,,,,,,,5f010ab6dd343a125d4bd704,2020-08-10_18h21.00.062,lexical_decision_task_MP,2020.1.3,Linux armv8l,60,,0,-0.273357985,-0.309571923,1,0,0,0.6422,button_left,0.6422,1,,,,,,386,NW,"ID",50,ancust,ANCUST,z,,,,,,-0.273357985,-0.309571923,1,0,0,,0,173,173,325,1,
,,,,,,,,,,,,,,,,,,5f010ab6dd343a125d4bd704,2020-08-10_18h21.00.062,lexical_decision_task_MP,2020.1.3,Linux armv8l,60,,0,0.274283091,-0.308646308,1,0,0,0.585,button_right,0.585,1,,,,,,88,WORD,"ID",33,hunger,HUNGER,m,,,,,,0.274283091,-0.308646308,1,0,0,,0,174,174,27,1,
,,,,,,,,,,,,,,,,,,5f010ab6dd343a125d4bd704,2020-08-10_18h21.00.062,lexical_decision_task_MP,2020.1.3,Linux armv8l,60,,0,0.283533902,-0.297540114,1,0,0,0.6462,button_right,0.6462,1,,,,,,69,WORD,"ID",33,plenty,PLENTY,m,,,,,,0.283533902,-0.297540114,1,0,0,,0,175,175,8,1,
,,,,,,,,,,,,,,,,,,5f010ab6dd343a125d4bd704,2020-08-10_18h21.00.062,lexical_decision_task_MP,2020.1.3,Linux armv8l,60,,0,-0.269657728,-0.316976166,1,0,0,0.6115,button_left,0.6115,1,,,,,,320,NW,"ID",33,jockal,JOCKAL,z,,,,,,-0.269657728,-0.316976166,1,0,0,,0,176,176,259,1,
,,,,,,,,,,,,,,,,,,5f010ab6dd343a125d4bd704,2020-08-10_18h21.00.062,lexical_decision_task_MP,2020.1.3,Linux armv8l,60,,0,0.277983432,-0.304018741,1,0,0,0.5816,button_right,0.5816,1,,,,,,96,WORD,"ID",33,ignore,IGNORE,m,,,,,,0.277983432,-0.304018741,1,0,0,,0,177,177,35,1,
,,,,,,,,,,,,,,,,,,5f010ab6dd343a125d4bd704,2020-08-10_18h21.00.062,lexical_decision_task_MP,2020.1.3,Linux armv8l,60,,0,0.275208198,-0.305869802,1,0,0,0.5716,button_right,0.5716,1,,,,,,143,WORD,"ID",50,reason,REASON,m,,,,,,0.275208198,-0.305869802,1,0,0,,0,178,178,82,1,
,,,,,,,,,,,,,,,,,,5f010ab6dd343a125d4bd704,2020-08-10_18h21.00.062,lexical_decision_task_MP,2020.1.3,Linux armv8l,60,,0,0.283533902,-0.30309338,1,0,0,0.7308,button_right,0.7308,1,,,,,,239,WORD,UN,33,forest,LUMBER,m,,,,,,0.283533902,-0.30309338,1,0,0,,0,179,179,178,1,
,,,,,,,,,,,,,,,,,,5f010ab6dd343a125d4bd704,2020-08-10_18h21.00.062,lexical_decision_task_MP,2020.1.3,Linux armv8l,60,,0,-0.277058283,-0.312348429,1,0,0,0.6184,button_left,0.6184,1,,,,,,467,NW,UN,33,wictor,GORBIE,z,,,,,,-0.277058283,-0.312348429,1,0,0,,0,180,180,406,1,
,,,,,,,,,,,,,,,,,,5f010ab6dd343a125d4bd704,2020-08-10_18h21.00.062,lexical_decision_task_MP,2020.1.3,Linux armv8l,60,,0,0.28260871,-0.30309338,1,0,0,0.6042,button_right,0.6042,1,,,,,,174,WORD,"ID",50,turkey,TURKEY,m,,,,,,0.28260871,-0.30309338,1,0,0,,0,181,181,113,1,
,,,,,,,,,,,,,,,,,,5f010ab6dd343a125d4bd704,2020-08-10_18h21.00.062,lexical_decision_task_MP,2020.1.3,Linux armv8l,60,,0,0.28260871,-0.302167681,1,0,0,0.5775,button_right,0.5775,1,,,,,,98,WORD,"ID",33,belong,BELONG,m,,,,,,0.28260871,-0.302167681,1,0,0,,0,182,182,37,1,
,,,,,,,,,,,,,,,,,,5f010ab6dd343a125d4bd704,2020-08-10_18h21.00.062,lexical_decision_task_MP,2020.1.3,Linux armv8l,60,,0,0.277983432,-0.309571923,1,0,0,0.6548,button_right,0.6548,1,,,,,,10,WORD,UN,50,cruise,ETHNIC,m,,,,,,0.277983432,-0.309571923,1,0,0,,0,183,183,189,1,
,,,,,,,,,,,,,,,,,,5f010ab6dd343a125d4bd704,2020-08-10_18h21.00.062,lexical_decision_task_MP,2020.1.3,Linux armv8l,60,,0,0.286308967,-0.299391259,1,0,0,0.5469,button_right,0.5469,1,,,,,,109,WORD,"ID",33,wonder,WONDER,m,,,,,,0.286308967,-0.299391259,1,0,0,,0,184,184,48,1,
,,,,,,,,,,,,,,,,,,5f010ab6dd343a125d4bd704,2020-08-10_18h21.00.062,lexical_decision_task_MP,2020.1.3,Linux armv8l,60,,0,0.287234073,-0.295689138,1,0,0,0.5853,button_right,0.5853,1,,,,,,61,WORD,"ID",33,ponder,PONDER,m,,,,,,0.287234073,-0.295689138,1,0,0,,0,185,185,0,1,
,,,,,,,,,,,,,,,,,,5f010ab6dd343a125d4bd704,2020-08-10_18h21.00.062,lexical_decision_task_MP,2020.1.3,Linux armv8l,60,,0,-0.26595743,-0.31419949,1,0,0,0.6528,button_left,0.6528,1,,,,,,312,NW,"ID",33,nerawl,NERAWL,z,,,,,,-0.26595743,-0.31419949,1,0,0,,0,186,186,251,1,
,,,,,,,,,,,,,,,,,,5f010ab6dd343a125d4bd704,2020-08-10_18h21.00.062,lexical_decision_task_MP,2020.1.3,Linux armv8l,60,,0,0.2678076,-0.320678033,1,0,0,0.5876,button_right,0.5876,1,,,,,,177,WORD,"ID",50,advent,ADVENT,m,,,,,,0.2678076,-0.320678033,1,0,0,,0,187,187,116,1,
,,,,,,,,,,,,,,,,,,5f010ab6dd343a125d4bd704,2020-08-10_18h21.00.062,lexical_decision_task_MP,2020.1.3,Linux armv8l,60,,0,0.291859436,-0.298465644,1,0,0,0.5844,button_right,0.5844,1,,,,,,84,WORD,"ID",33,mortal,MORTAL,m,,,,,,0.291859436,-0.298465644,1,0,0,,0,188,188,23,1,
,,,,,,,,,,,,,,,,,,5f010ab6dd343a125d4bd704,2020-08-10_18h21.00.062,lexical_decision_task_MP,2020.1.3,Linux armv8l,60,,0,-0.265032366,-0.31512502,1,0,0,0.6692,button_left,0.6692,1,,,,,,327,NW,"ID",33,plenac,PLENAC,z,,,,,,-0.265032366,-0.31512502,1,0,0,,0,189,189,266,1,
,,,,,,,,,,,,,,,,,,5f010ab6dd343a125d4bd704,2020-08-10_18h21.00.062,lexical_decision_task_MP,2020.1.3,Linux armv8l,60,,0,-0.277983348,-0.316050466,1,0,0,0.6775,button_left,0.6775,1,,,,,,394,NW,"ID",50,spaqux,SPAQUX,z,,,,,,-0.277983348,-0.316050466,1,0,0,,0,190,190,333,1,
,,,,,,,,,,,,,,,,,,5f010ab6dd343a125d4bd704,2020-08-10_18h21.00.062,lexical_decision_task_MP,2020.1.3,Linux armv8l,60,,0,-0.281683625,-0.304944187,1,0,0,0.6338,button_left,0.6338,1,,,,,,457,NW,UN,33,barcet,WANIGH,z,,,,,,-0.281683625,-0.304944187,1,0,0,,0,191,191,396,1,
,,,,,,,,,,,,,,,,,,5f010ab6dd343a125d4bd704,2020-08-10_18h21.00.062,lexical_decision_task_MP,2020.1.3,Linux armv8l,60,,0,-0.278908412,-0.310497369,1,0,0,0.5692,button_left,0.5692,1,,,,,,361,NW,"ID",50,pauche,PAUCHE,z,,,,,,-0.278908412,-0.310497369,1,0,0,,0,192,192,300,1,
,,,,,,,,,,,,,,,,,,5f010ab6dd343a125d4bd704,2020-08-10_18h21.00.062,lexical_decision_task_MP,2020.1.3,Linux armv8l,60,,0,-0.28075854,-0.310497369,1,0,0,0.7515,button_left,0.7515,0,,,,,,181,WORD,UN,33,winter,GLANCE,m,,,,,,-0.28075854,-0.310497369,1,0,0,,0,193,193,120,1,
,,,,,,,,,,,,,,,,,,5f010ab6dd343a125d4bd704,2020-08-10_18h21.00.062,lexical_decision_task_MP,2020.1.3,Linux armv8l,60,,0,0.260407088,-0.332709927,1,0,0,0.577,button_right,0.577,0,,,,,,462,NW,UN,33,kispel,ABSULT,z,,,,,,0.260407088,-0.332709927,1,0,0,,0,194,194,401,1,
,,,,,,,,,,,,,,,,,,5f010ab6dd343a125d4bd704,2020-08-10_18h21.00.062,lexical_decision_task_MP,2020.1.3,Linux armv8l,60,,0,-0.287234031,-0.317901527,1,0,0,0.7787,button_left,0.7787,1,,,,,,468,NW,UN,33,padifs,WICTOR,z,,,,,,-0.287234031,-0.317901527,1,0,0,,0,195,195,407,1,
,,,,,,,,,,,,,,,,,,5f010ab6dd343a125d4bd704,2020-08-10_18h21.00.062,lexical_decision_task_MP,2020.1.3,Linux armv8l,60,,0,0.273357985,-0.312348429,1,0,0,0.5999,button_right,0.5999,1,,,,,,238,WORD,UN,33,behalf,FLOWER,m,,,,,,0.273357985,-0.312348429,1,0,0,,0,196,196,177,1,
,,,,,,,,,,,,,,,,,,5f010ab6dd343a125d4bd704,2020-08-10_18h21.00.062,lexical_decision_task_MP,2020.1.3,Linux armv8l,60,,0,-0.281683625,-0.31419949,1,0,0,0.567,button_left,0.567,1,,,,,,443,NW,UN,33,jaunce,DORSEX,z,,,,,,-0.281683625,-0.31419949,1,0,0,,0,197,197,382,1,
,,,,,,,,,,,,,,,,,,5f010ab6dd343a125d4bd704,2020-08-10_18h21.00.062,lexical_decision_task_MP,2020.1.3,Linux armv8l,60,,0,-0.274283049,-0.316050466,1,0,0,0.6005,button_left,0.6005,1,,,,,,400,NW,"ID",50,wearox,WEAROX,z,,,,,,-0.274283049,-0.316050466,1,0,0,,0,198,198,339,1,
,,,,,,,,,,,,,,,,,,5f010ab6dd343a125d4bd704,2020-08-10_18h21.00.062,lexical_decision_task_MP,2020.1.3,Linux armv8l,60,,0,0.271507941,-0.310497369,1,0,0,0.6425,button_right,0.6425,1,,,,,,129,WORD,"ID",50,marvel,MARVEL,m,,,,,,0.271507941,-0.310497369,1,0,0,,0,199,199,68,1,
,,,,,,,,,,,,,,,,,,5f010ab6dd343a125d4bd704,2020-08-10_18h21.00.062,lexical_decision_task_MP,2020.1.3,Linux armv8l,60,,0,-0.281683625,-0.31419949,1,0,0,0.6619,button_left,0.6619,1,,,,,,326,NW,"ID",33,iguade,IGUADE,z,,,,,,-0.281683625,-0.31419949,1,0,0,,0,200,200,265,1,
,,,,,,,,,,,,,,,,,,5f010ab6dd343a125d4bd704,2020-08-10_18h21.00.062,lexical_decision_task_MP,2020.1.3,Linux armv8l,60,,0,0.272432963,-0.325305684,1,0,0,0.5944,button_right,0.5944,1,,,,,,76,WORD,"ID",33,exotic,EXOTIC,m,,,,,,0.272432963,-0.325305684,1,0,0,,0,201,201,15,1,
,,,,,,,,,,,,,,,,,,5f010ab6dd343a125d4bd704,2020-08-10_18h21.00.062,lexical_decision_task_MP,2020.1.3,Linux armv8l,60,,0,-0.282608668,-0.316050466,1,0,0,0.6879,button_left,0.6879,1,,,,,,408,NW,"ID",50,hurnia,HURNIA,z,,,,,,-0.282608668,-0.316050466,1,0,0,,0,202,202,347,1,
,,,,,,,,,,,,,,,,,,5f010ab6dd343a125d4bd704,2020-08-10_18h21.00.062,lexical_decision_task_MP,2020.1.3,Linux armv8l,60,,0,0.266882494,-0.320678033,1,0,0,0.6396,button_right,0.6396,1,,,,,,13,WORD,UN,50,almost,STRIVE,m,,,,,,0.266882494,-0.320678033,1,0,0,,0,203,203,192,1,
,,,,,,,,,,,,,,,,,,5f010ab6dd343a125d4bd704,2020-08-10_18h21.00.062,lexical_decision_task_MP,2020.1.3,Linux armv8l,60,,0,0.257631938,-0.336411879,1,0,0,0.7525,button_right,0.7525,1,,,,,,65,WORD,"ID",33,symbol,SYMBOL,m,,,,,,0.257631938,-0.336411879,1,0,0,,0,204,204,4,1,
,,,,,,,,,,,,,,,,,,5f010ab6dd343a125d4bd704,2020-08-10_18h21.00.062,lexical_decision_task_MP,2020.1.3,Linux armv8l,60,,0,0.276133219,-0.307720862,1,0,0,0.7353,button_right,0.7353,1,,,,,,19,WORD,UN,50,breast,PATRON,m,,,,,,0.276133219,-0.307720862,1,0,0,,0,205,205,198,1,
,,,,,,,,,,,,,,,,,,5f010ab6dd343a125d4bd704,2020-08-10_18h21.00.062,lexical_decision_task_MP,2020.1.3,Linux armv8l,60,,0,-0.287234031,-0.309571923,1,0,0,0.6533,button_left,0.6533,1,,,,,,247,NW,UN,50,strole,BLARGE,z,,,,,,-0.287234031,-0.309571923,1,0,0,,0,206,206,426,1,
,,,,,,,,,,,,,,,,,,5f010ab6dd343a125d4bd704,2020-08-10_18h21.00.062,lexical_decision_task_MP,2020.1.3,Linux armv8l,60,,0,-0.263182237,-0.32715683,1,0,0,0.6599,button_left,0.6599,1,,,,,,298,NW,UN,50,sturch,PIERGY,z,,,,,,-0.263182237,-0.32715683,1,0,0,,0,207,207,477,1,
,,,,,,,,,,,,,,,,,,5f010ab6dd343a125d4bd704,2020-08-10_18h21.00.062,lexical_decision_task_MP,2020.1.3,Linux armv8l,60,,0,-0.274283049,-0.321603648,1,0,0,0.7996,button_left,0.7996,1,,,,,,270,NW,UN,50,aubrid,WRIMSY,z,,,,,,-0.274283049,-0.321603648,1,0,0,,0,208,208,449,1,
,,,,,,,,,,,,,,,,,,5f010ab6dd343a125d4bd704,2020-08-10_18h21.00.062,lexical_decision_task_MP,2020.1.3,Linux armv8l,60,,0,-0.260407024,-0.320678033,1,0,0,0.678,button_left,0.678,1,,,,,,463,NW,UN,33,chaite,KISPEL,z,,,,,,-0.260407024,-0.320678033,1,0,0,,0,209,209,402,1,
,,,,,,,,,,,,,,,,,,5f010ab6dd343a125d4bd704,2020-08-10_18h21.00.062,lexical_decision_task_MP,2020.1.3,Linux armv8l,60,,0,-0.260407024,-0.31512502,1,0,0,0.6029,button_left,0.6029,1,,,,,,259,NW,UN,50,unject,SOUDAL,z,,,,,,-0.260407024,-0.31512502,1,0,0,,0,210,210,438,1,
,,,,,,,,,,,,,,,,,,5f010ab6dd343a125d4bd704,2020-08-10_18h21.00.062,lexical_decision_task_MP,2020.1.3,Linux armv8l,60,,0,0.265957472,-0.316976166,1,0,0,0.6466,button_right,0.6466,1,,,,,,185,WORD,UN,33,portal,BOTHER,m,,,,,,0.265957472,-0.316976166,1,0,0,,0,211,211,124,1,
,,,,,,,,,,,,,,,,,,5f010ab6dd343a125d4bd704,2020-08-10_18h21.00.062,lexical_decision_task_MP,2020.1.3,Linux armv8l,60,,0,-0.286308967,-0.307720862,1,0,0,0.6072,button_left,0.6072,1,,,,,,390,NW,"ID",50,hatrus,HATRUS,z,,,,,,-0.286308967,-0.307720862,1,0,0,,0,212,212,329,1,
,,,,,,,,,,,,,,,,,,5f010ab6dd343a125d4bd704,2020-08-10_18h21.00.062,lexical_decision_task_MP,2020.1.3,Linux armv8l,60,,0,-0.282608668,-0.318827142,1,0,0,0.5514,button_left,0.5514,0,,,,,,114,WORD,"ID",33,placid,PLACID,m,,,,,,-0.282608668,-0.318827142,1,0,0,,0,213,213,53,1,
,,,,,,,,,,,,,,,,,,5f010ab6dd343a125d4bd704,2020-08-10_18h21.00.062,lexical_decision_task_MP,2020.1.3,Linux armv8l,60,,0,-0.261332109,-0.334561072,1,0,0,0.6751,button_left,0.6751,0,,,,,,191,WORD,UN,33,beacon,STABLE,m,,,,,,-0.261332109,-0.334561072,1,0,0,,0,214,214,130,1,
,,,,,,,,,,,,,,,,,,5f010ab6dd343a125d4bd704,2020-08-10_18h21.00.062,lexical_decision_task_MP,2020.1.3,Linux armv8l,60,,0,0.256706746,-0.337337494,1,0,0,0.61,button_right,0.61,1,,,,,,206,WORD,UN,33,wreath,TAILOR,m,,,,,,0.256706746,-0.337337494,1,0,0,,0,215,215,145,1,
,,,,,,,,,,,,,,,,,,5f010ab6dd343a125d4bd704,2020-08-10_18h21.00.062,lexical_decision_task_MP,2020.1.3,Linux armv8l,60,,0,-0.273357985,-0.324380154,1,0,0,0.636,button_left,0.636,1,,,,,,290,NW,UN,50,pretch,SPLINO,z,,,,,,-0.273357985,-0.324380154,1,0,0,,0,216,216,469,1,
,,,,,,,,,,,,,,,,,,5f010ab6dd343a125d4bd704,2020-08-10_18h21.00.062,lexical_decision_task_MP,2020.1.3,Linux armv8l,60,,0,0.273357985,-0.308646308,1,0,0,0.6408,button_right,0.6408,1,,,,,,145,WORD,"ID",50,parish,PARISH,m,,,,,,0.273357985,-0.308646308,1,0,0,,0,217,217,84,1,
,,,,,,,,,,,,,,,,,,5f010ab6dd343a125d4bd704,2020-08-10_18h21.00.062,lexical_decision_task_MP,2020.1.3,Linux armv8l,60,,0,0.279833476,-0.30309338,1,0,0,0.6017,button_right,0.6017,1,,,,,,173,WORD,"ID",50,shower,SHOWER,m,,,,,,0.279833476,-0.30309338,1,0,0,,0,218,218,112,1,
,,,,,,,,,,,,,,,,,,5f010ab6dd343a125d4bd704,2020-08-10_18h21.00.062,lexical_decision_task_MP,2020.1.3,Linux armv8l,60,,0,-0.267807558,-0.329007806,1,0,0,0.8987,button_left,0.8987,1,,,,,,248,NW,UN,50,batrol,STROLE,z,,,,,,-0.267807558,-0.329007806,1,0,0,,0,219,219,427,1,
,,,,,,,,,,,,,,,,,,5f010ab6dd343a125d4bd704,2020-08-10_18h21.00.062,lexical_decision_task_MP,2020.1.3,Linux armv8l,60,,0,0.263182237,-0.324380154,1,0,0,0.6335,button_right,0.6335,1,,,,,,226,WORD,UN,33,flower,CASINO,m,,,,,,0.263182237,-0.324380154,1,0,0,,0,220,220,165,1,
,,,,,,,,,,,,,,,,,,5f010ab6dd343a125d4bd704,2020-08-10_18h21.00.062,lexical_decision_task_MP,2020.1.3,Linux armv8l,60,,0,0.262257216,-0.330858951,1,0,0,0.6078,button_right,0.6078,1,,,,,,40,WORD,UN,50,spring,CONVEY,m,,,,,,0.262257216,-0.330858951,1,0,0,,0,221,221,219,1,
,,,,,,,,,,,,,,,,,,5f010ab6dd343a125d4bd704,2020-08-10_18h21.00.062,lexical_decision_task_MP,2020.1.3,Linux armv8l,60,,0,0.293709564,-0.277178616,1,0,0,0.6693,button_right,0.6693,1,,,,,,214,WORD,UN,33,phobia,INTAKE,m,,,,,,0.293709564,-0.277178616,1,0,0,,0,222,222,153,1,
,,,,,,,,,,,,,,,,,,5f010ab6dd343a125d4bd704,2020-08-10_18h21.00.062,lexical_decision_task_MP,2020.1.3,Linux armv8l,60,,0,-0.271507857,-0.320678033,1,0,0,0.6209,button_left,0.6209,1,,,,,,441,NW,UN,33,aboune,RASTOE,z,,,,,,-0.271507857,-0.320678033,1,0,0,,0,223,223,380,1,
,,,,,,,,,,,,,,,,,,5f010ab6dd343a125d4bd704,2020-08-10_18h21.00.062,lexical_decision_task_MP,2020.1.3,Linux armv8l,60,,0,-0.265032366,-0.328082275,1,0,0,0.5906,button_left,0.5906,1,,,,,,300,NW,UN,50,smenco,YARION,z,,,,,,-0.265032366,-0.328082275,1,0,0,,0,224,224,479,1,
,,,,,,,,,,,,,,,,,,5f010ab6dd343a125d4bd704,2020-08-10_18h21.00.062,lexical_decision_task_MP,2020.1.3,Linux armv8l,60,,0,0.277983432,-0.304018741,1,0,0,0.6859,button_right,0.6859,1,,,,,,43,WORD,UN,50,foster,TONGUE,m,,,,,,0.277983432,-0.304018741,1,0,0,,0,225,225,222,1,
,,,,,,,,,,,,,,,,,,5f010ab6dd343a125d4bd704,2020-08-10_18h21.00.062,lexical_decision_task_MP,2020.1.3,Linux armv8l,60,,0,-0.28075854,-0.296614583,1,0,0,0.6446,button_left,0.6446,1,,,,,,325,NW,"ID",33,thruse,THRUSE,z,,,,,,-0.28075854,-0.296614583,1,0,0,,0,226,226,264,1,
,,,,,,,,,,,,,,,,,,5f010ab6dd343a125d4bd704,2020-08-10_18h21.00.062,lexical_decision_task_MP,2020.1.3,Linux armv8l,60,,0,-0.287234031,-0.30031662,1,0,0,0.6636,button_left,0.6636,1,,,,,,337,NW,"ID",33,rejols,REJOLS,z,,,,,,-0.287234031,-0.30031662,1,0,0,,0,227,227,276,1,
,,,,,,,,,,,,,,,,,,5f010ab6dd343a125d4bd704,2020-08-10_18h21.00.062,lexical_decision_task_MP,2020.1.3,Linux armv8l,60,,0,0.283533902,-0.299391259,1,0,0,0.7119,button_right,0.7119,1,,,,,,64,WORD,"ID",33,throne,THRONE,m,,,,,,0.283533902,-0.299391259,1,0,0,,0,228,228,3,1,
,,,,,,,,,,,,,,,,,,5f010ab6dd343a125d4bd704,2020-08-10_18h21.00.062,lexical_decision_task_MP,2020.1.3,Linux armv8l,60,,0,-0.279833476,-0.310497369,1,0,0,0.5583,button_left,0.5583,1,,,,,,252,NW,UN,50,resait,STAPOD,z,,,,,,-0.279833476,-0.310497369,1,0,0,,0,229,229,431,1,
,,,,,,,,,,,,,,,,,,5f010ab6dd343a125d4bd704,2020-08-10_18h21.00.062,lexical_decision_task_MP,2020.1.3,Linux armv8l,60,,0,0.258556959,-0.336411879,1,0,0,0.6854,button_right,0.6854,1,,,,,,147,WORD,"ID",50,garlic,GARLIC,m,,,,,,0.258556959,-0.336411879,1,0,0,,0,230,230,86,1,
,,,,,,,,,,,,,,,,,,5f010ab6dd343a125d4bd704,2020-08-10_18h21.00.062,lexical_decision_task_MP,2020.1.3,Linux armv8l,60,,0,0.293709564,-0.288284895,1,0,0,0.6635,button_right,0.6635,0,,,,,,364,NW,"ID",50,impote,IMPOTE,z,,,,,,0.293709564,-0.288284895,1,0,0,,0,231,231,303,1,
,,,,,,,,,,,,,,,,,,5f010ab6dd343a125d4bd704,2020-08-10_18h21.00.062,lexical_decision_task_MP,2020.1.3,Linux armv8l,60,,0,-0.304810354,-0.325305684,1,0,0,0.6875,button_left,0.6875,1,,,,,,380,NW,"ID",50,cavory,CAVORY,z,,,,,,-0.304810354,-0.325305684,1,0,0,,0,232,232,319,1,
,,,,,,,,,,,,,,,,,,5f010ab6dd343a125d4bd704,2020-08-10_18h21.00.062,lexical_decision_task_MP,2020.1.3,Linux armv8l,60,,0,0.262257216,-0.31512502,1,0,0,0.66,button_right,0.66,1,,,,,,204,WORD,UN,33,lounge,BURDEN,m,,,,,,0.262257216,-0.31512502,1,0,0,,0,233,233,143,1,
,,,,,,,,,,,,,,,,,,5f010ab6dd343a125d4bd704,2020-08-10_18h21.00.062,lexical_decision_task_MP,2020.1.3,Linux armv8l,60,,0,0.276133219,-0.304018741,1,0,0,0.6271,button_right,0.6271,1,,,,,,120,WORD,"ID",33,strain,STRAIN,m,,,,,,0.276133219,-0.304018741,1,0,0,,0,234,234,59,1,
,,,,,,,,,,,,,,,,,,5f010ab6dd343a125d4bd704,2020-08-10_18h21.00.062,lexical_decision_task_MP,2020.1.3,Linux armv8l,60,,0,0.261332109,-0.321603648,1,0,0,0.7852,button_right,0.7852,1,,,,,,16,WORD,UN,50,charge,FAUCET,m,,,,,,0.261332109,-0.321603648,1,0,0,,0,235,235,195,1,
,,,,,,,,,,,,,,,,,,5f010ab6dd343a125d4bd704,2020-08-10_18h21.00.062,lexical_decision_task_MP,2020.1.3,Linux armv8l,60,,0,-0.287234031,-0.288284895,1,0,0,0.7133,button_left,0.7133,1,,,,,,355,NW,"ID",33,zingly,ZINGLY,z,,,,,,-0.287234031,-0.288284895,1,0,0,,0,236,236,294,1,
,,,,,,,,,,,,,,,,,,5f010ab6dd343a125d4bd704,2020-08-10_18h21.00.062,lexical_decision_task_MP,2020.1.3,Linux armv8l,60,,0,-0.294634586,-0.288284895,1,0,0,1.1426,button_left,1.1426,1,,,,,,395,NW,"ID",50,colury,COLURY,z,,,,,,-0.294634586,-0.288284895,1,0,0,,0,237,237,334,1,
,,,,,,,,,,,,,,,,,,5f010ab6dd343a125d4bd704,2020-08-10_18h21.00.062,lexical_decision_task_MP,2020.1.3,Linux armv8l,60,,0,-0.286308967,-0.32715683,1,0,0,0.9134,button_left,0.9134,1,,,,,,424,NW,UN,33,frudge,PRAILE,z,,,,,,-0.286308967,-0.32715683,1,0,0,,0,238,238,363,1,
,,,,,,,,,,,,,,,,,,5f010ab6dd343a125d4bd704,2020-08-10_18h21.00.062,lexical_decision_task_MP,2020.1.3,Linux armv8l,60,,0,0.277058411,-0.307720862,1,0,0,0.7663,button_right,0.7663,0,,,,,,261,NW,UN,50,quilew,STUNCH,z,,,,,,0.277058411,-0.307720862,1,0,0,,0,239,239,440,1,
,,,,,,,,,,,,,,,,,,5f010ab6dd343a125d4bd704,2020-08-10_18h21.00.062,lexical_decision_task_MP,2020.1.3,Linux armv8l,60,,0,0.276133219,-0.307720862,1,0,0,0.6822,button_right,0.6822,1,,,,,,105,WORD,"ID",33,number,NUMBER,m,,,,,,0.276133219,-0.307720862,1,0,0,,0,240,240,44,1,
,,,,,,,,,,,,,,,,,,5f010ab6dd343a125d4bd704,2020-08-10_18h21.00.062,lexical_decision_task_MP,2020.1.3,Linux armv8l,60,,0,-0.290934287,-0.306795247,1,0,0,0.8175,button_left,0.8175,1,,,,,,342,NW,"ID",33,randow,RANDOW,z,,,,,,0.092969555,-0.412304687,1,0,0,,0,241,241,281,1,break_done_button
,,,,,,,,,,,,,,,,,,5f010ab6dd343a125d4bd704,2020-08-10_18h21.00.062,lexical_decision_task_MP,2020.1.3,Linux armv8l,60,,0,0.265957472,-0.32715683,1,0,0,0.6263,button_right,0.6263,1,,,,,,50,WORD,UN,50,hungry,SNATCH,m,,,,,,0.265957472,-0.32715683,1,0,0,,0,242,242,229,1,
,,,,,,,,,,,,,,,,,,5f010ab6dd343a125d4bd704,2020-08-10_18h21.00.062,lexical_decision_task_MP,2020.1.3,Linux armv8l,60,,0,0.26503245,-0.318827142,1,0,0,0.6039,button_right,0.6039,1,,,,,,179,WORD,"ID",50,basket,BASKET,m,,,,,,0.26503245,-0.318827142,1,0,0,,0,243,243,118,1,
,,,,,,,,,,,,,,,,,,5f010ab6dd343a125d4bd704,2020-08-10_18h21.00.062,lexical_decision_task_MP,2020.1.3,Linux armv8l,60,,0,0.263182237,-0.320678033,1,0,0,0.6368,button_right,0.6368,1,,,,,,7,WORD,UN,50,abrupt,ANCHOR,m,,,,,,0.263182237,-0.320678033,1,0,0,,0,244,244,186,1,
,,,,,,,,,,,,,,,,,,5f010ab6dd343a125d4bd704,2020-08-10_18h21.00.062,lexical_decision_task_MP,2020.1.3,Linux armv8l,60,,0,0.253931597,-0.332709927,1,0,0,0.7101,button_right,0.7101,1,,,,,,92,WORD,"ID",33,strand,STRAND,m,,,,,,0.253931597,-0.332709927,1,0,0,,0,245,245,31,1,
,,,,,,,,,,,,,,,,,,5f010ab6dd343a125d4bd704,2020-08-10_18h21.00.062,lexical_decision_task_MP,2020.1.3,Linux armv8l,60,,0,-0.319611465,-0.316976166,1,0,0,0.7178,button_left,0.7178,1,,,,,,378,NW,"ID",50,shrile,SHRILE,z,,,,,,-0.319611465,-0.316976166,1,0,0,,0,246,246,317,1,
,,,,,,,,,,,,,,,,,,5f010ab6dd343a125d4bd704,2020-08-10_18h21.00.062,lexical_decision_task_MP,2020.1.3,Linux armv8l,60,,0,-0.302960205,-0.326231215,1,0,0,0.7299,button_left,0.7299,1,,,,,,265,NW,UN,50,varmit,DISTAR,z,,,,,,-0.302960205,-0.326231215,1,0,0,,0,247,247,444,1,
,,,,,,,,,,,,,,,,,,5f010ab6dd343a125d4bd704,2020-08-10_18h21.00.062,lexical_decision_task_MP,2020.1.3,Linux armv8l,60,,0,-0.299259949,-0.316050466,1,0,0,0.6198,button_left,0.6198,1,,,,,,451,NW,UN,33,surden,CAINKY,z,,,,,,-0.299259949,-0.316050466,1,0,0,,0,248,248,390,1,
,,,,,,,,,,,,,,,,,,5f010ab6dd343a125d4bd704,2020-08-10_18h21.00.062,lexical_decision_task_MP,2020.1.3,Linux armv8l,60,,0,-0.308510632,-0.31512502,1,0,0,0.7129,button_left,0.7129,1,,,,,,423,NW,UN,33,praile,STRELD,z,,,,,,-0.308510632,-0.31512502,1,0,0,,0,249,249,362,1,
,,,,,,,,,,,,,,,,,,5f010ab6dd343a125d4bd704,2020-08-10_18h21.00.062,lexical_decision_task_MP,2020.1.3,Linux armv8l,60,,0,0.275208198,-0.335486433,1,0,0,0.6163,button_right,0.6163,1,,,,,,172,WORD,"ID",50,patrol,PATROL,m,,,,,,0.275208198,-0.335486433,1,0,0,,0,250,250,111,1,
,,,,,,,,,,,,,,,,,,5f010ab6dd343a125d4bd704,2020-08-10_18h21.00.062,lexical_decision_task_MP,2020.1.3,Linux armv8l,60,,0,-0.31036076,-0.319752587,1,0,0,0.6806,button_left,0.6806,1,,,,,,450,NW,UN,33,cainky,PHRECT,z,,,,,,-0.31036076,-0.319752587,1,0,0,,0,251,251,389,1,
,,,,,,,,,,,,,,,,,,5f010ab6dd343a125d4bd704,2020-08-10_18h21.00.062,lexical_decision_task_MP,2020.1.3,Linux armv8l,60,,0,0.281683689,-0.358624522,1,0,0,0.6119,button_right,0.6119,1,,,,,,223,WORD,UN,33,period,KIDNEY,m,,,,,,0.281683689,-0.358624522,1,0,0,,0,252,252,162,1,
,,,,,,,,,,,,,,,,,,5f010ab6dd343a125d4bd704,2020-08-10_18h21.00.062,lexical_decision_task_MP,2020.1.3,Linux armv8l,60,,0,0.315911187,-0.319752587,1,0,0,0.7041,button_right,0.7041,1,,,,,,46,WORD,UN,50,income,SINGLE,m,,,,,,0.315911187,-0.319752587,1,0,0,,0,253,253,225,1,
,,,,,,,,,,,,,,,,,,5f010ab6dd343a125d4bd704,2020-08-10_18h21.00.062,lexical_decision_task_MP,2020.1.3,Linux armv8l,60,,0,-0.316836251,-0.337337494,1,0,0,0.7115,button_left,0.7115,1,,,,,,383,NW,"ID",50,aungre,AUNGRE,z,,,,,,-0.316836251,-0.337337494,1,0,0,,0,254,254,322,1,
,,,,,,,,,,,,,,,,,,5f010ab6dd343a125d4bd704,2020-08-10_18h21.00.062,lexical_decision_task_MP,2020.1.3,Linux armv8l,60,,0,-0.315911187,-0.317901527,1,0,0,0.8534,button_left,0.8534,1,,,,,,319,NW,"ID",33,zomber,ZOMBER,z,,,,,,-0.315911187,-0.317901527,1,0,0,,0,255,255,258,1,
,,,,,,,,,,,,,,,,,,5f010ab6dd343a125d4bd704,2020-08-10_18h21.00.062,lexical_decision_task_MP,2020.1.3,Linux armv8l,60,,0,0.294634671,-0.292912462,1,0,0,0.6511,button_right,0.6511,1,,,,,,104,WORD,"ID",33,studio,STUDIO,m,,,,,,0.294634671,-0.292912462,1,0,0,,0,256,256,43,1,
,,,,,,,,,,,,,,,,,,5f010ab6dd343a125d4bd704,2020-08-10_18h21.00.062,lexical_decision_task_MP,2020.1.3,Linux armv8l,60,,0,0.279833476,-0.320678033,1,0,0,0.8146,button_right,0.8146,1,,,,,,22,WORD,UN,50,wealth,JOCKEY,m,,,,,,0.279833476,-0.320678033,1,0,0,,0,257,257,201,1,
,,,,,,,,,,,,,,,,,,5f010ab6dd343a125d4bd704,2020-08-10_18h21.00.062,lexical_decision_task_MP,2020.1.3,Linux armv8l,60,,0,0.291859436,-0.319752587,1,0,0,0.6423,button_right,0.6423,1,,,,,,49,WORD,UN,50,snatch,SURVEY,m,,,,,,0.291859436,-0.319752587,1,0,0,,0,258,258,228,1,
,,,,,,,,,,,,,,,,,,5f010ab6dd343a125d4bd704,2020-08-10_18h21.00.062,lexical_decision_task_MP,2020.1.3,Linux armv8l,60,,0,0.286308967,-0.319752587,1,0,0,0.6494,button_right,0.6494,1,,,,,,127,WORD,"ID",50,castle,CASTLE,m,,,,,,0.286308967,-0.319752587,1,0,0,,0,259,259,66,1,
,,,,,,,,,,,,,,,,,,5f010ab6dd343a125d4bd704,2020-08-10_18h21.00.062,lexical_decision_task_MP,2020.1.3,Linux armv8l,60,,0,0.285383945,-0.310497369,1,0,0,0.6394,button_right,0.6394,1,,,,,,193,WORD,UN,33,mildew,OBJECT,m,,,,,,0.285383945,-0.310497369,1,0,0,,0,260,260,132,1,
,,,,,,,,,,,,,,,,,,5f010ab6dd343a125d4bd704,2020-08-10_18h21.00.062,lexical_decision_task_MP,2020.1.3,Linux armv8l,60,,0,0.290934414,-0.317901527,1,0,0,0.656,button_right,0.656,1,,,,,,31,WORD,UN,50,buckle,WEAPON,m,,,,,,0.290934414,-0.317901527,1,0,0,,0,261,261,210,1,
,,,,,,,,,,,,,,,,,,5f010ab6dd343a125d4bd704,2020-08-10_18h21.00.062,lexical_decision_task_MP,2020.1.3,Linux armv8l,60,,0,-0.302035141,-0.336411879,1,0,0,0.7409,button_left,0.7409,1,,,,,,421,NW,UN,33,alcoud,KNISMA,z,,,,,,-0.302035141,-0.336411879,1,0,0,,0,262,262,360,1,
,,,,,,,,,,,,,,,,,,5f010ab6dd343a125d4bd704,2020-08-10_18h21.00.062,lexical_decision_task_MP,2020.1.3,Linux armv8l,60,,0,0.28260871,-0.328082275,1,0,0,0.7433,button_right,0.7433,1,,,,,,225,WORD,UN,33,casino,VULGAR,m,,,,,,0.28260871,-0.328082275,1,0,0,,0,263,263,164,1,
,,,,,,,,,,,,,,,,,,5f010ab6dd343a125d4bd704,2020-08-10_18h21.00.062,lexical_decision_task_MP,2020.1.3,Linux armv8l,60,,0,0.275208198,-0.360475498,1,0,0,0.6483,button_right,0.6483,1,,,,,,87,WORD,"ID",33,filter,FILTER,m,,,,,,0.275208198,-0.360475498,1,0,0,,0,264,264,26,1,
,,,,,,,,,,,,,,,,,,5f010ab6dd343a125d4bd704,2020-08-10_18h21.00.062,lexical_decision_task_MP,2020.1.3,Linux armv8l,60,,0,0.277058411,-0.338262939,1,0,0,0.5838,button_right,0.5838,1,,,,,,60,WORD,UN,50,fright,PENCIL,m,,,,,,0.277058411,-0.338262939,1,0,0,,0,265,265,239,1,
,,,,,,,,,,,,,,,,,,5f010ab6dd343a125d4bd704,2020-08-10_18h21.00.062,lexical_decision_task_MP,2020.1.3,Linux armv8l,60,,0,-0.316836251,-0.330858951,1,0,0,0.6523,button_left,0.6523,0,,,,,,26,WORD,UN,50,butler,SPRINT,m,,,,,,-0.316836251,-0.330858951,1,0,0,,0,266,266,205,1,
,,,,,,,,,,,,,,,,,,5f010ab6dd343a125d4bd704,2020-08-10_18h21.00.062,lexical_decision_task_MP,2020.1.3,Linux armv8l,60,,0,0.272432963,-0.347518158,1,0,0,0.5528,button_right,0.5528,1,,,,,,196,WORD,UN,33,stream,CREDIT,m,,,,,,0.272432963,-0.347518158,1,0,0,,0,267,267,135,1,
,,,,,,,,,,,,,,,,,,5f010ab6dd343a125d4bd704,2020-08-10_18h21.00.062,lexical_decision_task_MP,2020.1.3,Linux armv8l,60,,0,-0.321461614,-0.313274044,1,0,0,0.6691,button_left,0.6691,1,,,,,,257,NW,UN,50,poluth,VENIOD,z,,,,,,-0.321461614,-0.313274044,1,0,0,,0,268,268,436,1,
,,,,,,,,,,,,,,,,,,5f010ab6dd343a125d4bd704,2020-08-10_18h21.00.062,lexical_decision_task_MP,2020.1.3,Linux armv8l,60,,0,-0.311285845,-0.313274044,1,0,0,0.6399,button_left,0.6399,1,,,,,,415,NW,"ID",50,higsta,HIGSTA,z,,,,,,-0.311285845,-0.313274044,1,0,0,,0,269,269,354,1,
,,,,,,,,,,,,,,,,,,5f010ab6dd343a125d4bd704,2020-08-10_18h21.00.062,lexical_decision_task_MP,2020.1.3,Linux armv8l,60,,0,-0.288159095,-0.301242235,1,0,0,0.7927,button_left,0.7927,1,,,,,,321,NW,"ID",33,miator,MIATOR,z,,,,,,-0.288159095,-0.301242235,1,0,0,,0,270,270,260,1,
,,,,,,,,,,,,,,,,,,5f010ab6dd343a125d4bd704,2020-08-10_18h21.00.062,lexical_decision_task_MP,2020.1.3,Linux armv8l,60,,0,0.281683689,-0.336411879,1,0,0,0.6566,button_right,0.6566,1,,,,,,44,WORD,UN,50,clergy,DANGER,m,,,,,,0.281683689,-0.336411879,1,0,0,,0,271,271,223,1,
,,,,,,,,,,,,,,,,,,5f010ab6dd343a125d4bd704,2020-08-10_18h21.00.062,lexical_decision_task_MP,2020.1.3,Linux armv8l,60,,0,0.250231255,-0.362326643,1,0,0,0.6548,button_right,0.6548,1,,,,,,170,WORD,"ID",50,pounce,POUNCE,m,,,,,,0.250231255,-0.362326643,1,0,0,,0,272,272,109,1,
,,,,,,,,,,,,,,,,,,5f010ab6dd343a125d4bd704,2020-08-10_18h21.00.062,lexical_decision_task_MP,2020.1.3,Linux armv8l,60,,0,-0.324236817,-0.288284895,1,0,0,0.695,button_left,0.695,1,,,,,,362,NW,"ID",50,tireau,TIREAU,z,,,,,,-0.324236817,-0.288284895,1,0,0,,0,273,273,301,1,
,,,,,,,,,,,,,,,,,,5f010ab6dd343a125d4bd704,2020-08-10_18h21.00.062,lexical_decision_task_MP,2020.1.3,Linux armv8l,60,,0,0.277983432,-0.328082275,1,0,0,0.5881,button_right,0.5881,1,,,,,,228,WORD,UN,33,kidney,MASTER,m,,,,,,0.277983432,-0.328082275,1,0,0,,0,274,274,167,1,
,,,,,,,,,,,,,,,,,,5f010ab6dd343a125d4bd704,2020-08-10_18h21.00.062,lexical_decision_task_MP,2020.1.3,Linux armv8l,60,,0,-0.160499509,-0.342890591,1,0,0,0.738,button_left,0.738,1,,,,,,299,NW,UN,50,yarion,STURCH,z,,,,,,-0.402867699,-0.330858951,1,0,0,,0,275,275,478,1,
,,,,,,,,,,,,,,,,,,5f010ab6dd343a125d4bd704,2020-08-10_18h21.00.062,lexical_decision_task_MP,2020.1.3,Linux armv8l,60,,0,0.285383945,-0.316976166,1,0,0,0.6101,button_right,0.6101,1,,,,,,199,WORD,UN,33,plague,INVOKE,m,,,,,,0.285383945,-0.316976166,1,0,0,,0,276,276,138,1,
,,,,,,,,,,,,,,,,,,5f010ab6dd343a125d4bd704,2020-08-10_18h21.00.062,lexical_decision_task_MP,2020.1.3,Linux armv8l,60,,0,0.266882494,-0.330858951,1,0,0,0.7516,button_right,0.7516,1,,,,,,48,WORD,UN,50,survey,WALNUT,m,,,,,,0.266882494,-0.330858951,1,0,0,,0,277,277,227,1,
,,,,,,,,,,,,,,,,,,5f010ab6dd343a125d4bd704,2020-08-10_18h21.00.062,lexical_decision_task_MP,2020.1.3,Linux armv8l,60,,0,-0.343663279,-0.304018741,1,0,0,0.7198,button_left,0.7198,1,,,,,,260,NW,UN,50,stunch,UNJECT,z,,,,,,-0.343663279,-0.304018741,1,0,0,,0,278,278,439,1,
,,,,,,,,,,,,,,,,,,5f010ab6dd343a125d4bd704,2020-08-10_18h21.00.062,lexical_decision_task_MP,2020.1.3,Linux armv8l,60,,0,0.285383945,-0.313274044,1,0,0,0.6897,button_right,0.6897,1,,,,,,14,WORD,UN,50,orange,ALMOST,m,,,,,,0.285383945,-0.313274044,1,0,0,,0,279,279,193,1,
,,,,,,,,,,,,,,,,,,5f010ab6dd343a125d4bd704,2020-08-10_18h21.00.062,lexical_decision_task_MP,2020.1.3,Linux armv8l,60,,0,0.292784458,-0.316976166,1,0,0,0.6587,button_right,0.6587,1,,,,,,106,WORD,"ID",33,ransom,RANSOM,m,,,,,,0.292784458,-0.316976166,1,0,0,,0,280,280,45,1,
,,,,,,,,,,,,,,,,,,5f010ab6dd343a125d4bd704,2020-08-10_18h21.00.062,lexical_decision_task_MP,2020.1.3,Linux armv8l,60,,0,0.268732707,-0.301242235,1,0,0,0.4824,button_right,0.4824,1,,,,,,192,WORD,UN,33,object,PLAGUE,m,,,,,,0.268732707,-0.301242235,1,0,0,,0,281,281,131,1,
,,,,,,,,,,,,,,,,,,5f010ab6dd343a125d4bd704,2020-08-10_18h21.00.062,lexical_decision_task_MP,2020.1.3,Linux armv8l,60,,0,-0.231729889,-0.335486433,1,0,0,1.3445,button_left,1.3445,1,,,,,,311,NW,"ID",33,sproly,SPROLY,z,,,,,,-0.231729889,-0.335486433,1,0,0,,0,282,282,250,1,
,,,,,,,,,,,,,,,,,,5f010ab6dd343a125d4bd704,2020-08-10_18h21.00.062,lexical_decision_task_MP,2020.1.3,Linux armv8l,60,,0,-0.253931533,-0.357698907,1,0,0,0.6787,button_left,0.6787,1,,,,,,251,NW,UN,50,stapod,LUPICT,z,,,,,,-0.253931533,-0.357698907,1,0,0,,0,283,283,430,1,
,,,,,,,,,,,,,,,,,,5f010ab6dd343a125d4bd704,2020-08-10_18h21.00.062,lexical_decision_task_MP,2020.1.3,Linux armv8l,60,,0,0.316836378,-0.25033866,1,0,0,0.8112,button_right,0.8112,1,,,,,,108,WORD,"ID",33,reckon,RECKON,m,,,,,,0.316836378,-0.25033866,1,0,0,,0,284,284,47,1,
,,,,,,,,,,,,,,,,,,5f010ab6dd343a125d4bd704,2020-08-10_18h21.00.062,lexical_decision_task_MP,2020.1.3,Linux armv8l,60,,0,0.319611528,-0.313274044,1,0,0,0.8994,button_right,0.8994,1,,,,,,163,WORD,"ID",50,string,STRING,m,,,,,,0.319611528,-0.313274044,1,0,0,,0,285,285,102,1,
,,,,,,,,,,,,,,,,,,5f010ab6dd343a125d4bd704,2020-08-10_18h21.00.062,lexical_decision_task_MP,2020.1.3,Linux armv8l,60,,0,0.315911187,-0.27440211,1,0,0,1.0565,button_right,1.0565,0,,,,,,358,NW,"ID",33,fleack,FLEACK,z,,,,,,0.315911187,-0.27440211,1,0,0,,0,286,286,297,1,
,,,,,,,,,,,,,,,,,,5f010ab6dd343a125d4bd704,2020-08-10_18h21.00.062,lexical_decision_task_MP,2020.1.3,Linux armv8l,60,,0,-0.297409778,-0.352145725,1,0,0,0.8423,button_left,0.8423,1,,,,,,419,NW,"ID",50,slount,SLOUNT,z,,,,,,-0.297409778,-0.352145725,1,0,0,,0,287,287,358,1,
,,,,,,,,,,,,,,,,,,5f010ab6dd343a125d4bd704,2020-08-10_18h21.00.062,lexical_decision_task_MP,2020.1.3,Linux armv8l,60,,0,0.312210931,-0.304944187,1,0,0,0.6238,button_right,0.6238,1,,,,,,208,WORD,UN,33,search,HOCKEY,m,,,,,,0.312210931,-0.304944187,1,0,0,,0,288,288,147,1,
,,,,,,,,,,,,,,,,,,5f010ab6dd343a125d4bd704,2020-08-10_18h21.00.062,lexical_decision_task_MP,2020.1.3,Linux armv8l,60,,0,0.300185055,-0.323454709,1,0,0,0.8347,button_right,0.8347,0,,,,,,273,NW,UN,50,fumblo,SORTEL,z,,,,,,0.300185055,-0.323454709,1,0,0,,0,289,289,452,1,
,,,,,,,,,,,,,,,,,,5f010ab6dd343a125d4bd704,2020-08-10_18h21.00.062,lexical_decision_task_MP,2020.1.3,Linux armv8l,60,,0,-0.326086956,-0.313274044,1,0,0,0.7083,button_left,0.7083,1,,,,,,323,NW,"ID",33,rosail,ROSAIL,z,,,,,,-0.326086956,-0.313274044,1,0,0,,0,290,290,262,1,
,,,,,,,,,,,,,,,,,,5f010ab6dd343a125d4bd704,2020-08-10_18h21.00.062,lexical_decision_task_MP,2020.1.3,Linux armv8l,60,,0,-0.297409778,-0.324380154,1,0,0,0.676,button_left,0.676,1,,,,,,317,NW,"ID",33,worbal,WORBAL,z,,,,,,-0.297409778,-0.324380154,1,0,0,,0,291,291,256,1,
,,,,,,,,,,,,,,,,,,5f010ab6dd343a125d4bd704,2020-08-10_18h21.00.062,lexical_decision_task_MP,2020.1.3,Linux armv8l,60,,0,0.309435696,-0.293838077,1,0,0,0.6394,button_right,0.6394,1,,,,,,41,WORD,UN,50,chapel,SPRING,m,,,,,,0.309435696,-0.293838077,1,0,0,,0,292,292,220,1,
,,,,,,,,,,,,,,,,,,5f010ab6dd343a125d4bd704,2020-08-10_18h21.00.062,lexical_decision_task_MP,2020.1.3,Linux armv8l,60,,0,0.268732707,-0.319752587,1,0,0,0.674,button_right,0.674,1,,,,,,201,WORD,UN,33,factor,ADMIRE,m,,,,,,0.268732707,-0.319752587,1,0,0,,0,293,293,140,1,
,,,,,,,,,,,,,,,,,,5f010ab6dd343a125d4bd704,2020-08-10_18h21.00.062,lexical_decision_task_MP,2020.1.3,Linux armv8l,60,,0,-0.309435696,-0.283657328,1,0,0,0.7938,button_left,0.7938,1,,,,,,316,NW,"ID",33,scregm,SCREGM,z,,,,,,-0.309435696,-0.283657328,1,0,0,,0,294,294,255,1,
,,,,,,,,,,,,,,,,,,5f010ab6dd343a125d4bd704,2020-08-10_18h21.00.062,lexical_decision_task_MP,2020.1.3,Linux armv8l,60,,0,-0.302035141,-0.286433834,1,0,0,1.0481,button_left,1.0481,0,,,,,,144,WORD,"ID",50,sponge,SPONGE,m,,,,,,-0.302035141,-0.286433834,1,0,0,,0,295,295,83,1,
,,,,,,,,,,,,,,,,,,5f010ab6dd343a125d4bd704,2020-08-10_18h21.00.062,lexical_decision_task_MP,2020.1.3,Linux armv8l,60,,0,0.2678076,-0.326231215,1,0,0,0.5683,button_right,0.5683,0,,,,,,254,NW,UN,50,apight,VAROSH,z,,,,,,0.2678076,-0.326231215,1,0,0,,0,296,296,433,1,
,,,,,,,,,,,,,,,,,,5f010ab6dd343a125d4bd704,2020-08-10_18h21.00.062,lexical_decision_task_MP,2020.1.3,Linux armv8l,60,,0,-0.294634586,-0.283657328,1,0,0,0.7286,button_left,0.7286,1,,,,,,405,NW,"ID",50,flumni,FLUMNI,z,,,,,,-0.294634586,-0.283657328,1,0,0,,0,297,297,344,1,
,,,,,,,,,,,,,,,,,,5f010ab6dd343a125d4bd704,2020-08-10_18h21.00.062,lexical_decision_task_MP,2020.1.3,Linux armv8l,60,,0,0.26503245,-0.31419949,1,0,0,0.7691,button_right,0.7691,1,,,,,,125,WORD,"ID",50,nickel,NICKEL,m,,,,,,0.26503245,-0.31419949,1,0,0,,0,298,298,64,1,
,,,,,,,,,,,,,,,,,,5f010ab6dd343a125d4bd704,2020-08-10_18h21.00.062,lexical_decision_task_MP,2020.1.3,Linux armv8l,60,,0,0.264107429,-0.324380154,1,0,0,0.6118,button_right,0.6118,1,,,,,,178,WORD,"ID",50,inform,INFORM,m,,,,,,0.264107429,-0.324380154,1,0,0,,0,299,299,117,1,
,,,,,,,,,,,,,,,,,,5f010ab6dd343a125d4bd704,2020-08-10_18h21.00.062,lexical_decision_task_MP,2020.1.3,Linux armv8l,60,,0,0.283533902,-0.321603648,1,0,0,0.6649,button_right,0.6649,1,,,,,,82,WORD,"ID",33,stigma,STIGMA,m,,,,,,0.283533902,-0.321603648,1,0,0,,0,300,300,21,1,
,,,,,,,,,,,,,,,,,,5f010ab6dd343a125d4bd704,2020-08-10_18h21.00.062,lexical_decision_task_MP,2020.1.3,Linux armv8l,60,,0,-0.309435696,-0.296614583,1,0,0,0.7208,button_left,0.7208,1,,,,,,288,NW,UN,50,starby,YACEUP,z,,,,,,-0.309435696,-0.296614583,1,0,0,,0,301,301,467,1,
,,,,,,,,,,,,,,,,,,5f010ab6dd343a125d4bd704,2020-08-10_18h21.00.062,lexical_decision_task_MP,2020.1.3,Linux armv8l,60,,0,0.316836378,-0.321603648,1,0,0,0.5886,button_right,0.5886,1,,,,,,39,WORD,UN,50,convey,INSECT,m,,,,,,0.316836378,-0.321603648,1,0,0,,0,302,302,218,1,
,,,,,,,,,,,,,,,,,,5f010ab6dd343a125d4bd704,2020-08-10_18h21.00.062,lexical_decision_task_MP,2020.1.3,Linux armv8l,60,,0,-0.302035141,-0.291061401,1,0,0,0.6828,button_left,0.6828,1,,,,,,356,NW,"ID",33,othnis,OTHNIS,z,,,,,,-0.302035141,-0.291061401,1,0,0,,0,303,303,295,1,
,,,,,,,,,,,,,,,,,,5f010ab6dd343a125d4bd704,2020-08-10_18h21.00.062,lexical_decision_task_MP,2020.1.3,Linux armv8l,60,,0,-0.303885269,-0.290135956,1,0,0,0.6652,button_left,0.6652,1,,,,,,431,NW,UN,33,lunker,CHRUMS,z,,,,,,-0.303885269,-0.290135956,1,0,0,,0,304,304,370,1,
,,,,,,,,,,,,,,,,,,5f010ab6dd343a125d4bd704,2020-08-10_18h21.00.062,lexical_decision_task_MP,2020.1.3,Linux armv8l,60,,0,0.284458923,-0.347518158,1,0,0,0.6651,button_right,0.6651,1,,,,,,89,WORD,"ID",33,permit,PERMIT,m,,,,,,0.284458923,-0.347518158,1,0,0,,0,305,305,28,1,
,,,,,,,,,,,,,,,,,,5f010ab6dd343a125d4bd704,2020-08-10_18h21.00.062,lexical_decision_task_MP,2020.1.3,Linux armv8l,60,,0,0.26503245,-0.363252004,1,0,0,0.7251,button_right,0.7251,1,,,,,,15,WORD,UN,50,faucet,AMOUNT,m,,,,,,0.26503245,-0.363252004,1,0,0,,0,306,306,194,1,
,,,,,,,,,,,,,,,,,,5f010ab6dd343a125d4bd704,2020-08-10_18h21.00.062,lexical_decision_task_MP,2020.1.3,Linux armv8l,60,,0,-0.308510632,-0.299391259,1,0,0,0.8163,button_left,0.8163,1,,,,,,479,NW,UN,33,crible,LOBUSH,z,,,,,,-0.308510632,-0.299391259,1,0,0,,0,307,307,418,1,
,,,,,,,,,,,,,,,,,,5f010ab6dd343a125d4bd704,2020-08-10_18h21.00.062,lexical_decision_task_MP,2020.1.3,Linux armv8l,60,,0,-0.286308967,-0.293838077,1,0,0,0.7399,button_left,0.7399,1,,,,,,249,NW,UN,50,milted,BATROL,z,,,,,,-0.286308967,-0.293838077,1,0,0,,0,308,308,428,1,
,,,,,,,,,,,,,,,,,,5f010ab6dd343a125d4bd704,2020-08-10_18h21.00.062,lexical_decision_task_MP,2020.1.3,Linux armv8l,60,,0,-0.277058283,-0.310497369,1,0,0,0.6073,button_left,0.6073,1,,,,,,339,NW,"ID",33,fachow,FACHOW,z,,,,,,-0.277058283,-0.310497369,1,0,0,,0,309,309,278,1,
,,,,,,,,,,,,,,,,,,5f010ab6dd343a125d4bd704,2020-08-10_18h21.00.062,lexical_decision_task_MP,2020.1.3,Linux armv8l,60,,0,-0.304810354,-0.308646308,1,0,0,0.5719,button_left,0.5719,1,,,,,,275,NW,UN,50,yarmon,SLEIRT,z,,,,,,-0.304810354,-0.308646308,1,0,0,,0,310,310,454,1,
,,,,,,,,,,,,,,,,,,5f010ab6dd343a125d4bd704,2020-08-10_18h21.00.062,lexical_decision_task_MP,2020.1.3,Linux armv8l,60,,0,0.28260871,-0.321603648,1,0,0,0.8463,button_right,0.8463,1,,,,,,111,WORD,"ID",33,induce,INDUCE,m,,,,,,0.28260871,-0.321603648,1,0,0,,0,311,311,50,1,
,,,,,,,,,,,,,,,,,,5f010ab6dd343a125d4bd704,2020-08-10_18h21.00.062,lexical_decision_task_MP,2020.1.3,Linux armv8l,60,,0,-0.275208134,-0.299391259,1,0,0,0.6405,button_left,0.6405,1,,,,,,372,NW,"ID",50,ramily,RAMILY,z,,,,,,-0.275208134,-0.299391259,1,0,0,,0,312,312,311,1,
,,,,,,,,,,,,,,,,,,5f010ab6dd343a125d4bd704,2020-08-10_18h21.00.062,lexical_decision_task_MP,2020.1.3,Linux armv8l,60,,0,0.28815918,-0.318827142,1,0,0,0.7675,button_right,0.7675,1,,,,,,122,WORD,"ID",50,linger,LINGER,m,,,,,,0.28815918,-0.318827142,1,0,0,,0,313,313,61,1,
,,,,,,,,,,,,,,,,,,5f010ab6dd343a125d4bd704,2020-08-10_18h21.00.062,lexical_decision_task_MP,2020.1.3,Linux armv8l,60,,0,-0.277058283,-0.309571923,1,0,0,0.8439,button_left,0.8439,1,,,,,,322,NW,"ID",33,slanch,SLANCH,z,,,,,,-0.277058283,-0.309571923,1,0,0,,0,314,314,261,1,
,,,,,,,,,,,,,,,,,,5f010ab6dd343a125d4bd704,2020-08-10_18h21.00.062,lexical_decision_task_MP,2020.1.3,Linux armv8l,60,,0,0.302960205,-0.293838077,1,0,0,0.6605,button_right,0.6605,1,,,,,,80,WORD,"ID",33,family,FAMILY,m,,,,,,0.302960205,-0.293838077,1,0,0,,0,315,315,19,1,
,,,,,,,,,,,,,,,,,,5f010ab6dd343a125d4bd704,2020-08-10_18h21.00.062,lexical_decision_task_MP,2020.1.3,Linux armv8l,60,,0,-0.273357985,-0.289210595,1,0,0,0.6522,button_left,0.6522,1,,,,,,276,NW,UN,50,petain,YARMON,z,,,,,,-0.273357985,-0.289210595,1,0,0,,0,316,316,455,1,
,,,,,,,,,,,,,,,,,,5f010ab6dd343a125d4bd704,2020-08-10_18h21.00.062,lexical_decision_task_MP,2020.1.3,Linux armv8l,60,,0,0.286308967,-0.306795247,1,0,0,0.6807,button_right,0.6807,1,,,,,,38,WORD,UN,50,insect,POWDER,m,,,,,,0.286308967,-0.306795247,1,0,0,,0,317,317,217,1,
,,,,,,,,,,,,,,,,,,5f010ab6dd343a125d4bd704,2020-08-10_18h21.00.062,lexical_decision_task_MP,2020.1.3,Linux armv8l,60,,0,-0.265032366,-0.30309338,1,0,0,0.7462,button_left,0.7462,1,,,,,,354,NW,"ID",33,virlex,VIRLEX,z,,,,,,-0.265032366,-0.30309338,1,0,0,,0,318,318,293,1,
,,,,,,,,,,,,,,,,,,5f010ab6dd343a125d4bd704,2020-08-10_18h21.00.062,lexical_decision_task_MP,2020.1.3,Linux armv8l,60,,0,-0.281683625,-0.282731798,1,0,0,0.7439,button_left,0.7439,1,,,,,,347,NW,"ID",33,kerift,KERIFT,z,,,,,,-0.281683625,-0.282731798,1,0,0,,0,319,319,286,1,
,,,,,,,,,,,,,,,,,,5f010ab6dd343a125d4bd704,2020-08-10_18h21.00.062,lexical_decision_task_MP,2020.1.3,Linux armv8l,60,,0,0.271507941,-0.317901527,1,0,0,0.6417,button_right,0.6417,1,,,,,,42,WORD,UN,50,tongue,CHAPEL,m,,,,,,0.271507941,-0.317901527,1,0,0,,0,320,320,221,1,
,,,,,,,,,,,,,,,,,,5f010ab6dd343a125d4bd704,2020-08-10_18h21.00.062,lexical_decision_task_MP,2020.1.3,Linux armv8l,60,,0,0.280758582,-0.313274044,1,0,0,0.7073,button_right,0.7073,1,,,,,,139,WORD,"ID",50,debris,DEBRIS,m,,,,,,0.280758582,-0.313274044,1,0,0,,0,321,321,78,1,
,,,,,,,,,,,,,,,,,,5f010ab6dd343a125d4bd704,2020-08-10_18h21.00.062,lexical_decision_task_MP,2020.1.3,Linux armv8l,60,,0,-0.296484735,-0.289210595,1,0,0,0.7061,button_left,0.7061,1,,,,,,391,NW,"ID",50,theldy,THELDY,z,,,,,,-0.296484735,-0.289210595,1,0,0,,0,322,322,330,1,
,,,,,,,,,,,,,,,,,,5f010ab6dd343a125d4bd704,2020-08-10_18h21.00.062,lexical_decision_task_MP,2020.1.3,Linux armv8l,60,,0,-0.26595743,-0.301242235,1,0,0,0.8211,button_left,0.8211,1,,,,,,452,NW,UN,33,bolvis,SURDEN,z,,,,,,-0.26595743,-0.301242235,1,0,0,,0,323,323,391,1,
,,,,,,,,,,,,,,,,,,5f010ab6dd343a125d4bd704,2020-08-10_18h21.00.062,lexical_decision_task_MP,2020.1.3,Linux armv8l,60,,0,-0.269657728,-0.301242235,1,0,0,0.6229,button_left,0.6229,1,,,,,,280,NW,UN,50,melaty,CURBOL,z,,,,,,-0.269657728,-0.301242235,1,0,0,,0,324,324,459,1,
,,,,,,,,,,,,,,,,,,5f010ab6dd343a125d4bd704,2020-08-10_18h21.00.062,lexical_decision_task_MP,2020.1.3,Linux armv8l,60,,0,-0.263182237,-0.297540114,1,0,0,0.7612,button_left,0.7612,1,,,,,,446,NW,UN,33,gircue,RUNAMO,z,,,,,,-0.263182237,-0.297540114,1,0,0,,0,325,325,385,1,
,,,,,,,,,,,,,,,,,,5f010ab6dd343a125d4bd704,2020-08-10_18h21.00.062,lexical_decision_task_MP,2020.1.3,Linux armv8l,60,,0,-0.260407024,-0.306795247,1,0,0,0.5879,button_left,0.5879,1,,,,,,448,NW,UN,33,brunge,SADENT,z,,,,,,-0.260407024,-0.306795247,1,0,0,,0,326,326,387,1,
,,,,,,,,,,,,,,,,,,5f010ab6dd343a125d4bd704,2020-08-10_18h21.00.062,lexical_decision_task_MP,2020.1.3,Linux armv8l,60,,0,0.285383945,-0.30309338,1,0,0,0.5899,button_right,0.5899,1,,,,,,135,WORD,"ID",50,import,IMPORT,m,,,,,,0.285383945,-0.30309338,1,0,0,,0,327,327,74,1,
,,,,,,,,,,,,,,,,,,5f010ab6dd343a125d4bd704,2020-08-10_18h21.00.062,lexical_decision_task_MP,2020.1.3,Linux armv8l,60,,0,0.304810418,-0.285508474,1,0,0,0.5819,button_right,0.5819,1,,,,,,91,WORD,"ID",33,expand,EXPAND,m,,,,,,0.304810418,-0.285508474,1,0,0,,0,328,328,30,1,
,,,,,,,,,,,,,,,,,,5f010ab6dd343a125d4bd704,2020-08-10_18h21.00.062,lexical_decision_task_MP,2020.1.3,Linux armv8l,60,,0,-0.266882515,-0.313274044,1,0,0,0.6026,button_left,0.6026,1,,,,,,262,NW,UN,50,dolica,QUILEW,z,,,,,,-0.266882515,-0.313274044,1,0,0,,0,329,329,441,1,
,,,,,,,,,,,,,,,,,,5f010ab6dd343a125d4bd704,2020-08-10_18h21.00.062,lexical_decision_task_MP,2020.1.3,Linux armv8l,60,,0,0.290009393,-0.30309338,1,0,0,0.6254,button_right,0.6254,1,,,,,,8,WORD,UN,50,hustle,ABRUPT,m,,,,,,0.290009393,-0.30309338,1,0,0,,0,330,330,187,1,
,,,,,,,,,,,,,,,,,,5f010ab6dd343a125d4bd704,2020-08-10_18h21.00.062,lexical_decision_task_MP,2020.1.3,Linux armv8l,60,,0,0.290009393,-0.302167681,1,0,0,0.5876,button_right,0.5876,1,,,,,,59,WORD,UN,50,pencil,SPLINT,m,,,,,,0.290009393,-0.302167681,1,0,0,,0,331,331,238,1,
,,,,,,,,,,,,,,,,,,5f010ab6dd343a125d4bd704,2020-08-10_18h21.00.062,lexical_decision_task_MP,2020.1.3,Linux armv8l,60,,0,0.291859436,-0.291061401,1,0,0,0.5931,button_right,0.5931,0,,,,,,360,NW,"ID",33,desory,DESORY,z,,,,,,0.291859436,-0.291061401,1,0,0,,0,332,332,299,1,
,,,,,,,,,,,,,,,,,,5f010ab6dd343a125d4bd704,2020-08-10_18h21.00.062,lexical_decision_task_MP,2020.1.3,Linux armv8l,60,,0,-0.273357985,-0.308646308,1,0,0,0.6166,button_left,0.6166,1,,,,,,466,NW,UN,33,robuly,HOCITE,z,,,,,,-0.273357985,-0.308646308,1,0,0,,0,333,333,405,1,
,,,,,,,,,,,,,,,,,,5f010ab6dd343a125d4bd704,2020-08-10_18h21.00.062,lexical_decision_task_MP,2020.1.3,Linux armv8l,60,,0,0.286308967,-0.295689138,1,0,0,0.6222,button_right,0.6222,1,,,,,,158,WORD,"ID",50,island,ISLAND,m,,,,,,0.286308967,-0.295689138,1,0,0,,0,334,334,97,1,
,,,,,,,,,,,,,,,,,,5f010ab6dd343a125d4bd704,2020-08-10_18h21.00.062,lexical_decision_task_MP,2020.1.3,Linux armv8l,60,,0,-0.273357985,-0.31419949,1,0,0,0.7873,button_left,0.7873,1,,,,,,382,NW,"ID",50,sarley,SARLEY,z,,,,,,-0.273357985,-0.31419949,1,0,0,,0,335,335,321,1,
,,,,,,,,,,,,,,,,,,5f010ab6dd343a125d4bd704,2020-08-10_18h21.00.062,lexical_decision_task_MP,2020.1.3,Linux armv8l,60,,0,0.289084201,-0.298465644,1,0,0,0.5265,button_right,0.5265,0,,,,,,348,NW,"ID",33,dumple,DUMPLE,z,,,,,,0.289084201,-0.298465644,1,0,0,,0,336,336,287,1,
,,,,,,,,,,,,,,,,,,5f010ab6dd343a125d4bd704,2020-08-10_18h21.00.062,lexical_decision_task_MP,2020.1.3,Linux armv8l,60,,0,-0.265032366,-0.293838077,1,0,0,0.6237,button_left,0.6237,1,,,,,,422,NW,UN,33,streld,ALCOUD,z,,,,,,-0.265032366,-0.293838077,1,0,0,,0,337,337,361,1,
,,,,,,,,,,,,,,,,,,5f010ab6dd343a125d4bd704,2020-08-10_18h21.00.062,lexical_decision_task_MP,2020.1.3,Linux armv8l,60,,0,0.28260871,-0.304944187,1,0,0,0.6117,button_right,0.6117,1,,,,,,28,WORD,UN,50,sketch,COMEDY,m,,,,,,0.28260871,-0.304944187,1,0,0,,0,338,338,207,1,
,,,,,,,,,,,,,,,,,,5f010ab6dd343a125d4bd704,2020-08-10_18h21.00.062,lexical_decision_task_MP,2020.1.3,Linux armv8l,60,,0,-0.258556896,-0.301242235,1,0,0,0.9697,button_left,0.9697,0,,,,,,183,WORD,UN,33,sleazy,MILDEW,m,,,,,,-0.258556896,-0.301242235,1,0,0,,0,339,339,122,1,
,,,,,,,,,,,,,,,,,,5f010ab6dd343a125d4bd704,2020-08-10_18h21.00.062,lexical_decision_task_MP,2020.1.3,Linux armv8l,60,,0,-0.258556896,-0.309571923,1,0,0,0.6575,button_left,0.6575,1,,,,,,475,NW,UN,33,josted,PEBRIC,z,,,,,,-0.258556896,-0.309571923,1,0,0,,0,340,340,414,1,
,,,,,,,,,,,,,,,,,,5f010ab6dd343a125d4bd704,2020-08-10_18h21.00.062,lexical_decision_task_MP,2020.1.3,Linux armv8l,60,,0,0.285383945,-0.304944187,1,0,0,0.6712,button_right,0.6712,1,,,,,,236,WORD,UN,33,grumpy,PIRATE,m,,,,,,0.285383945,-0.304944187,1,0,0,,0,341,341,175,1,
