counterbalancing_condition,instr_done_keyboard.keys,instr_done_keyboard.rt,instr_done_touch.x,instr_done_touch.y,instr_done_touch.leftButton,instr_done_touch.midButton,instr_done_touch.rightButton,instruction_pages.thisRepN,instruction_pages.thisTrialN,instruction_pages.thisN,instruction_pages.thisIndex,instruction_pages.ran,pageN,phase,instruct_text,has_image,instruct_image,participant,date,expName,psychopyVersion,OS,frameRate,response.keys,response.corr,response.rt,touch_resp.x,touch_resp.y,touch_resp.leftButton,touch_resp.midButton,touch_resp.rightButton,touch_resp.time,touch_resp.clicked_name,rt,corr,practice_trials.thisRepN,practice_trials.thisTrialN,practice_trials.thisN,practice_trials.thisIndex,practice_trials.ran,TrialID,StimulusType,Condition,PrimeDuration,Prime,Target,corrAns,end_of_practice_trials_pages.thisRepN,end_of_practice_trials_pages.thisTrialN,end_of_practice_trials_pages.thisN,end_of_practice_trials_pages.thisIndex,end_of_practice_trials_pages.ran,break_done_touch.x,break_done_touch.y,break_done_touch.leftButton,break_done_touch.midButton,break_done_touch.rightButton,break_done_keyboard.keys,trials.thisRepN,trials.thisTrialN,trials.thisN,trials.thisIndex,trials.ran,break_done_keyboard.rt
3,space,17.736765,0.462963003,-0.187037058,0,0,0,0,0,0,0,1,1,instructions,"INSTRUCTIONS
At the start of each trial, look at the hash marks (######) in the center of the screen. After a moment, a string of letters will appear. Your task is to indicate if the letter string forms a word or not (i.e., if it is a nonword). For example, AUTHOR is a word while AUTHON is a nonword.

Press the space bar or touch the button below to continue.",0,,5f0452d558d1c26aa28f6d18,2020-08-10_18h47.13.562,lexical_decision_task_MP,2020.1.3,Win32,60,,,,,,,,,,,,,,,,,,,,,,,,,,,,,,,,,,,,,,,,,
,space,18.770775,0.462963003,-0.187037058,0,0,0,0,1,1,1,1,2,instructions,"If your device has a keyboard, press the 'Z' key for nonwords and the 'M' key for words.





Press the space bar or touch the button below to continue.",1,keyboard-example.gif,5f0452d558d1c26aa28f6d18,2020-08-10_18h47.13.562,lexical_decision_task_MP,2020.1.3,Win32,60,,,,,,,,,,,,,,,,,,,,,,,,,,,,,,,,,,,,,,,,,
,space,6.903855,0.462963003,-0.187037058,0,0,0,0,2,2,2,1,3,instructions,"If you are using a touchscreen only device, use the buttons on the screen. Do not use the mouse.





Press the space bar or touch the button below to continue.",1,touchscreen-example.gif,5f0452d558d1c26aa28f6d18,2020-08-10_18h47.13.562,lexical_decision_task_MP,2020.1.3,Win32,60,,,,,,,,,,,,,,,,,,,,,,,,,,,,,,,,,,,,,,,,,
,space,8.62643,0.462963003,-0.187037058,0,0,0,0,3,3,3,1,4,instructions,"It is very important that you respond as quickly and accurately as possible, as each letter string will only be on the screen for two seconds. If you do not respond within this time, the message 'Too slow!' will be displayed and the experiment will progress to the next letter string. The first 20 trials will be practice trials and you will receive feedback on your answers. 

Press the space bar or touch the button below to start the practice trials.",0,,5f0452d558d1c26aa28f6d18,2020-08-10_18h47.13.562,lexical_decision_task_MP,2020.1.3,Win32,60,,,,,,,,,,,,,,,,,,,,,,,,,,,,,,,,,,,,,,,,,
,,,,,,,,,,,,,,,,,,5f0452d558d1c26aa28f6d18,2020-08-10_18h47.13.562,lexical_decision_task_MP,2020.1.3,Win32,60,z,1,0.5262,,,,,,,,0.5262,1,0,0,0,13,1,1014,NW,UN,33,winfer,ROUPET,z,,,,,,,,,,,,,,,,,
,,,,,,,,,,,,,,,,,,5f0452d558d1c26aa28f6d18,2020-08-10_18h47.13.562,lexical_decision_task_MP,2020.1.3,Win32,60,m,1,1.0313,,,,,,,,1.0313,1,0,1,1,7,1,1008,WORD,UN,50,hurdle,VOLUME,m,,,,,,,,,,,,,,,,,
,,,,,,,,,,,,,,,,,,5f0452d558d1c26aa28f6d18,2020-08-10_18h47.13.562,lexical_decision_task_MP,2020.1.3,Win32,60,m,1,0.47526,,,,,,,,0.47526,1,0,2,2,4,1,1005,WORD,UN,33,abound,SQUEAK,m,,,,,,,,,,,,,,,,,
,,,,,,,,,,,,,,,,,,5f0452d558d1c26aa28f6d18,2020-08-10_18h47.13.562,lexical_decision_task_MP,2020.1.3,Win32,60,m,1,0.422825,,,,,,,,0.422825,1,0,3,3,0,1,1001,WORD,"ID",33,utopia,UTOPIA,m,,,,,,,,,,,,,,,,,
,,,,,,,,,,,,,,,,,,5f0452d558d1c26aa28f6d18,2020-08-10_18h47.13.562,lexical_decision_task_MP,2020.1.3,Win32,60,m,0,0.367805,,,,,,,,0.367805,0,0,4,4,9,1,1010,NW,"ID",33,fariny,FARINY,z,,,,,,,,,,,,,,,,,
,,,,,,,,,,,,,,,,,,5f0452d558d1c26aa28f6d18,2020-08-10_18h47.13.562,lexical_decision_task_MP,2020.1.3,Win32,60,z,1,0.055195,,,,,,,,0.055195,1,0,5,5,14,1,1015,NW,UN,50,miaber,THRALE,z,,,,,,,,,,,,,,,,,
,,,,,,,,,,,,,,,,,,5f0452d558d1c26aa28f6d18,2020-08-10_18h47.13.562,lexical_decision_task_MP,2020.1.3,Win32,60,m,0,0.86158,,,,,,,,0.86158,0,0,6,6,10,1,1011,NW,"ID",50,inlade,INLADE,z,,,,,,,,,,,,,,,,,
,,,,,,,,,,,,,,,,,,5f0452d558d1c26aa28f6d18,2020-08-10_18h47.13.562,lexical_decision_task_MP,2020.1.3,Win32,60,m,1,0.959475,,,,,,,,0.959475,1,0,7,7,5,1,1006,WORD,UN,33,frenzy,OBTAIN,m,,,,,,,,,,,,,,,,,
,,,,,,,,,,,,,,,,,,5f0452d558d1c26aa28f6d18,2020-08-10_18h47.13.562,lexical_decision_task_MP,2020.1.3,Win32,60,z,1,1.22658,,,,,,,,1.22658,1,0,8,8,8,1,1009,NW,"ID",33,aslert,ASLERT,z,,,,,,,,,,,,,,,,,
,,,,,,,,,,,,,,,,,,5f0452d558d1c26aa28f6d18,2020-08-10_18h47.13.562,lexical_decision_task_MP,2020.1.3,Win32,60,z,1,1.17754,,,,,,,,1.17754,1,0,9,9,12,1,1013,NW,UN,33,adveil,SPRINY,z,,,,,,,,,,,,,,,,,
,,,,,,,,,,,,,,,,,,5f0452d558d1c26aa28f6d18,2020-08-10_18h47.13.562,lexical_decision_task_MP,2020.1.3,Win32,60,m,1,0.77021,,,,,,,,0.77021,1,0,10,10,6,1,1007,WORD,UN,50,tropic,ZOMBIE,m,,,,,,,,,,,,,,,,,
,,,,,,,,,,,,,,,,,,5f0452d558d1c26aa28f6d18,2020-08-10_18h47.13.562,lexical_decision_task_MP,2020.1.3,Win32,60,m,1,0.93682,,,,,,,,0.93682,1,0,11,11,2,1,1003,WORD,"ID",50,almond,ALMOND,m,,,,,,,,,,,,,,,,,
,,,,,,,,,,,,,,,,,,5f0452d558d1c26aa28f6d18,2020-08-10_18h47.13.562,lexical_decision_task_MP,2020.1.3,Win32,60,m,1,0.7181,,,,,,,,0.7181,1,0,12,12,3,1,1004,WORD,"ID",50,matrix,MATRIX,m,,,,,,,,,,,,,,,,,
,,,,,,,,,,,,,,,,,,5f0452d558d1c26aa28f6d18,2020-08-10_18h47.13.562,lexical_decision_task_MP,2020.1.3,Win32,60,z,1,1.28834,,,,,,,,1.28834,1,0,13,13,11,1,1012,NW,"ID",50,rashet,RASHET,z,,,,,,,,,,,,,,,,,
,,,,,,,,,,,,,,,,,,5f0452d558d1c26aa28f6d18,2020-08-10_18h47.13.562,lexical_decision_task_MP,2020.1.3,Win32,60,m,1,0.709965,,,,,,,,0.709965,1,0,14,14,1,1,1002,WORD,"ID",33,adjust,ADJUST,m,,,,,,,,,,,,,,,,,
,,,,,,,,,,,,,,,,,,5f0452d558d1c26aa28f6d18,2020-08-10_18h47.13.562,lexical_decision_task_MP,2020.1.3,Win32,60,z,1,1.02833,,,,,,,,1.02833,1,0,15,15,15,1,1016,NW,UN,50,mushed,WHAISE,z,,,,,,,,,,,,,,,,,
,space,19.33531,0.310185221,-0.268518598,0,0,0,,,,,,1,end_of_practice,"You have completed the practice trials. During the experimental trials, you will not receive feedback, but it is very important that you respond as quickly and accurately as possible. 
Before you begin, please ensure that you are in a comfortable and quiet location and will not be disturbed for about 15 minutes, as we cannot use your data if you do not complete all the trials. 
There will be opportunities to take breaks at regular intervals during the experiment. When you are ready to start the experimental trials, please press space or touch the button below.",,,5f0452d558d1c26aa28f6d18,2020-08-10_18h47.13.562,lexical_decision_task_MP,2020.1.3,Win32,60,,,,,,,,,,,,,,,,,,,,,,,,,0,0,0,0,1,,,,,,,,,,,,
,,,,,,,,,,,,,,,,,,5f0452d558d1c26aa28f6d18,2020-08-10_18h47.13.562,lexical_decision_task_MP,2020.1.3,Win32,60,z,1,0.121225,,,,,,,,0.121225,1,,,,,,407,NW,"ID",50,suiver,SUIVER,z,,,,,,0.310185221,-0.268518598,0,0,0,,0,0,0,346,1,
,,,,,,,,,,,,,,,,,,5f0452d558d1c26aa28f6d18,2020-08-10_18h47.13.562,lexical_decision_task_MP,2020.1.3,Win32,60,m,1,0.649655,,,,,,,,0.649655,1,,,,,,217,WORD,UN,33,shrink,LIQUOR,m,,,,,,0.310185221,-0.268518598,0,0,0,,0,1,1,156,1,
,,,,,,,,,,,,,,,,,,5f0452d558d1c26aa28f6d18,2020-08-10_18h47.13.562,lexical_decision_task_MP,2020.1.3,Win32,60,z,1,1.02622,,,,,,,,1.02622,1,,,,,,269,NW,UN,50,wrimsy,ORCHET,z,,,,,,0.310185221,-0.268518598,0,0,0,,0,2,2,448,1,
,,,,,,,,,,,,,,,,,,5f0452d558d1c26aa28f6d18,2020-08-10_18h47.13.562,lexical_decision_task_MP,2020.1.3,Win32,60,z,1,1.19261,,,,,,,,1.19261,1,,,,,,285,NW,UN,50,reldon,PRUDGE,z,,,,,,0.310185221,-0.268518598,0,0,0,,0,3,3,464,1,
,,,,,,,,,,,,,,,,,,5f0452d558d1c26aa28f6d18,2020-08-10_18h47.13.562,lexical_decision_task_MP,2020.1.3,Win32,60,m,1,0.630375,,,,,,,,0.630375,1,,,,,,171,WORD,"ID",50,depart,DEPART,m,,,,,,0.310185221,-0.268518598,0,0,0,,0,4,4,110,1,
,,,,,,,,,,,,,,,,,,5f0452d558d1c26aa28f6d18,2020-08-10_18h47.13.562,lexical_decision_task_MP,2020.1.3,Win32,60,z,1,1.532465,,,,,,,,1.532465,1,,,,,,395,NW,"ID",50,colury,COLURY,z,,,,,,0.310185221,-0.268518598,0,0,0,,0,5,5,334,1,
,,,,,,,,,,,,,,,,,,5f0452d558d1c26aa28f6d18,2020-08-10_18h47.13.562,lexical_decision_task_MP,2020.1.3,Win32,60,m,1,1.245315,,,,,,,,1.245315,1,,,,,,50,WORD,UN,50,hungry,SNATCH,m,,,,,,0.310185221,-0.268518598,0,0,0,,0,6,6,229,1,
,,,,,,,,,,,,,,,,,,5f0452d558d1c26aa28f6d18,2020-08-10_18h47.13.562,lexical_decision_task_MP,2020.1.3,Win32,60,z,1,0.679225,,,,,,,,0.679225,1,,,,,,356,NW,"ID",33,othnis,OTHNIS,z,,,,,,0.310185221,-0.268518598,0,0,0,,0,7,7,295,1,
,,,,,,,,,,,,,,,,,,5f0452d558d1c26aa28f6d18,2020-08-10_18h47.13.562,lexical_decision_task_MP,2020.1.3,Win32,60,z,1,1.00421,,,,,,,,1.00421,1,,,,,,464,NW,UN,33,whivex,CHAITE,z,,,,,,0.310185221,-0.268518598,0,0,0,,0,8,8,403,1,
,,,,,,,,,,,,,,,,,,5f0452d558d1c26aa28f6d18,2020-08-10_18h47.13.562,lexical_decision_task_MP,2020.1.3,Win32,60,z,0,0.536175,,,,,,,,0.536175,0,,,,,,131,WORD,"ID",50,quench,QUENCH,m,,,,,,0.310185221,-0.268518598,0,0,0,,0,9,9,70,1,
,,,,,,,,,,,,,,,,,,5f0452d558d1c26aa28f6d18,2020-08-10_18h47.13.562,lexical_decision_task_MP,2020.1.3,Win32,60,z,1,1.12158,,,,,,,,1.12158,1,,,,,,360,NW,"ID",33,desory,DESORY,z,,,,,,0.310185221,-0.268518598,0,0,0,,0,10,10,299,1,
,,,,,,,,,,,,,,,,,,5f0452d558d1c26aa28f6d18,2020-08-10_18h47.13.562,lexical_decision_task_MP,2020.1.3,Win32,60,m,1,0.54355,,,,,,,,0.54355,1,,,,,,62,WORD,"ID",33,region,REGION,m,,,,,,0.310185221,-0.268518598,0,0,0,,0,11,11,1,1,
,,,,,,,,,,,,,,,,,,5f0452d558d1c26aa28f6d18,2020-08-10_18h47.13.562,lexical_decision_task_MP,2020.1.3,Win32,60,m,1,0.73523,,,,,,,,0.73523,1,,,,,,213,WORD,UN,33,intake,SQUEAL,m,,,,,,0.310185221,-0.268518598,0,0,0,,0,12,12,152,1,
,,,,,,,,,,,,,,,,,,5f0452d558d1c26aa28f6d18,2020-08-10_18h47.13.562,lexical_decision_task_MP,2020.1.3,Win32,60,m,1,0.52853,,,,,,,,0.52853,1,,,,,,209,WORD,UN,33,monkey,SEARCH,m,,,,,,0.310185221,-0.268518598,0,0,0,,0,13,13,148,1,
,,,,,,,,,,,,,,,,,,5f0452d558d1c26aa28f6d18,2020-08-10_18h47.13.562,lexical_decision_task_MP,2020.1.3,Win32,60,z,1,0.581385,,,,,,,,0.581385,1,,,,,,263,NW,UN,50,vackel,DOLICA,z,,,,,,0.310185221,-0.268518598,0,0,0,,0,14,14,442,1,
,,,,,,,,,,,,,,,,,,5f0452d558d1c26aa28f6d18,2020-08-10_18h47.13.562,lexical_decision_task_MP,2020.1.3,Win32,60,m,1,0.89795,,,,,,,,0.89795,1,,,,,,106,WORD,"ID",33,ransom,RANSOM,m,,,,,,0.310185221,-0.268518598,0,0,0,,0,15,15,45,1,
,,,,,,,,,,,,,,,,,,5f0452d558d1c26aa28f6d18,2020-08-10_18h47.13.562,lexical_decision_task_MP,2020.1.3,Win32,60,m,1,0.71061,,,,,,,,0.71061,1,,,,,,125,WORD,"ID",50,nickel,NICKEL,m,,,,,,0.310185221,-0.268518598,0,0,0,,0,16,16,64,1,
,,,,,,,,,,,,,,,,,,5f0452d558d1c26aa28f6d18,2020-08-10_18h47.13.562,lexical_decision_task_MP,2020.1.3,Win32,60,m,1,0.611115,,,,,,,,0.611115,1,,,,,,224,WORD,UN,33,vulgar,PERIOD,m,,,,,,0.310185221,-0.268518598,0,0,0,,0,17,17,163,1,
,,,,,,,,,,,,,,,,,,5f0452d558d1c26aa28f6d18,2020-08-10_18h47.13.562,lexical_decision_task_MP,2020.1.3,Win32,60,z,1,0.721445,,,,,,,,0.721445,1,,,,,,320,NW,"ID",33,jockal,JOCKAL,z,,,,,,0.310185221,-0.268518598,0,0,0,,0,18,18,259,1,
,,,,,,,,,,,,,,,,,,5f0452d558d1c26aa28f6d18,2020-08-10_18h47.13.562,lexical_decision_task_MP,2020.1.3,Win32,60,m,1,0.561245,,,,,,,,0.561245,1,,,,,,2,WORD,UN,50,knight,BRIDGE,m,,,,,,0.310185221,-0.268518598,0,0,0,,0,19,19,181,1,
,,,,,,,,,,,,,,,,,,5f0452d558d1c26aa28f6d18,2020-08-10_18h47.13.562,lexical_decision_task_MP,2020.1.3,Win32,60,z,1,1.30175,,,,,,,,1.30175,1,,,,,,287,NW,UN,50,yaceup,NYMBEL,z,,,,,,0.310185221,-0.268518598,0,0,0,,0,20,20,466,1,
,,,,,,,,,,,,,,,,,,5f0452d558d1c26aa28f6d18,2020-08-10_18h47.13.562,lexical_decision_task_MP,2020.1.3,Win32,60,z,1,0.71111,,,,,,,,0.71111,1,,,,,,275,NW,UN,50,yarmon,SLEIRT,z,,,,,,0.310185221,-0.268518598,0,0,0,,0,21,21,454,1,
,,,,,,,,,,,,,,,,,,5f0452d558d1c26aa28f6d18,2020-08-10_18h47.13.562,lexical_decision_task_MP,2020.1.3,Win32,60,m,1,0.6628,,,,,,,,0.6628,1,,,,,,133,WORD,"ID",50,chrome,CHROME,m,,,,,,0.310185221,-0.268518598,0,0,0,,0,22,22,72,1,
,,,,,,,,,,,,,,,,,,5f0452d558d1c26aa28f6d18,2020-08-10_18h47.13.562,lexical_decision_task_MP,2020.1.3,Win32,60,m,1,0.622435,,,,,,,,0.622435,1,,,,,,118,WORD,"ID",33,flight,FLIGHT,m,,,,,,0.310185221,-0.268518598,0,0,0,,0,23,23,57,1,
,,,,,,,,,,,,,,,,,,5f0452d558d1c26aa28f6d18,2020-08-10_18h47.13.562,lexical_decision_task_MP,2020.1.3,Win32,60,z,1,0.694745,,,,,,,,0.694745,1,,,,,,418,NW,"ID",50,suidle,SUIDLE,z,,,,,,0.310185221,-0.268518598,0,0,0,,0,24,24,357,1,
,,,,,,,,,,,,,,,,,,5f0452d558d1c26aa28f6d18,2020-08-10_18h47.13.562,lexical_decision_task_MP,2020.1.3,Win32,60,z,1,0.79882,,,,,,,,0.79882,1,,,,,,376,NW,"ID",50,iguare,IGUARE,z,,,,,,0.310185221,-0.268518598,0,0,0,,0,25,25,315,1,
,,,,,,,,,,,,,,,,,,5f0452d558d1c26aa28f6d18,2020-08-10_18h47.13.562,lexical_decision_task_MP,2020.1.3,Win32,60,z,1,0.522765,,,,,,,,0.522765,1,,,,,,351,NW,"ID",33,tiesch,TIESCH,z,,,,,,0.310185221,-0.268518598,0,0,0,,0,26,26,290,1,
,,,,,,,,,,,,,,,,,,5f0452d558d1c26aa28f6d18,2020-08-10_18h47.13.562,lexical_decision_task_MP,2020.1.3,Win32,60,z,1,0.5442,,,,,,,,0.5442,1,,,,,,375,NW,"ID",50,yorque,YORQUE,z,,,,,,0.310185221,-0.268518598,0,0,0,,0,27,27,314,1,
,,,,,,,,,,,,,,,,,,5f0452d558d1c26aa28f6d18,2020-08-10_18h47.13.562,lexical_decision_task_MP,2020.1.3,Win32,60,m,1,0.562065,,,,,,,,0.562065,1,,,,,,63,WORD,"ID",33,launch,LAUNCH,m,,,,,,0.310185221,-0.268518598,0,0,0,,0,28,28,2,1,
,,,,,,,,,,,,,,,,,,5f0452d558d1c26aa28f6d18,2020-08-10_18h47.13.562,lexical_decision_task_MP,2020.1.3,Win32,60,m,1,0.6904,,,,,,,,0.6904,1,,,,,,19,WORD,UN,50,breast,PATRON,m,,,,,,0.310185221,-0.268518598,0,0,0,,0,29,29,198,1,
,,,,,,,,,,,,,,,,,,5f0452d558d1c26aa28f6d18,2020-08-10_18h47.13.562,lexical_decision_task_MP,2020.1.3,Win32,60,m,1,0.963705,,,,,,,,0.963705,1,,,,,,176,WORD,"ID",50,strife,STRIFE,m,,,,,,0.310185221,-0.268518598,0,0,0,,0,30,30,115,1,
,,,,,,,,,,,,,,,,,,5f0452d558d1c26aa28f6d18,2020-08-10_18h47.13.562,lexical_decision_task_MP,2020.1.3,Win32,60,z,1,0.71236,,,,,,,,0.71236,1,,,,,,416,NW,"ID",50,pathel,PATHEL,z,,,,,,0.310185221,-0.268518598,0,0,0,,0,31,31,355,1,
,,,,,,,,,,,,,,,,,,5f0452d558d1c26aa28f6d18,2020-08-10_18h47.13.562,lexical_decision_task_MP,2020.1.3,Win32,60,m,1,0.54421,,,,,,,,0.54421,1,,,,,,201,WORD,UN,33,factor,ADMIRE,m,,,,,,0.310185221,-0.268518598,0,0,0,,0,32,32,140,1,
,,,,,,,,,,,,,,,,,,5f0452d558d1c26aa28f6d18,2020-08-10_18h47.13.562,lexical_decision_task_MP,2020.1.3,Win32,60,z,1,0.611555,,,,,,,,0.611555,1,,,,,,316,NW,"ID",33,scregm,SCREGM,z,,,,,,0.310185221,-0.268518598,0,0,0,,0,33,33,255,1,
,,,,,,,,,,,,,,,,,,5f0452d558d1c26aa28f6d18,2020-08-10_18h47.13.562,lexical_decision_task_MP,2020.1.3,Win32,60,m,1,0.799605,,,,,,,,0.799605,1,,,,,,222,WORD,UN,33,export,HINDER,m,,,,,,0.310185221,-0.268518598,0,0,0,,0,34,34,161,1,
,,,,,,,,,,,,,,,,,,5f0452d558d1c26aa28f6d18,2020-08-10_18h47.13.562,lexical_decision_task_MP,2020.1.3,Win32,60,z,1,0.753635,,,,,,,,0.753635,1,,,,,,380,NW,"ID",50,cavory,CAVORY,z,,,,,,0.310185221,-0.268518598,0,0,0,,0,35,35,319,1,
,,,,,,,,,,,,,,,,,,5f0452d558d1c26aa28f6d18,2020-08-10_18h47.13.562,lexical_decision_task_MP,2020.1.3,Win32,60,m,1,0.62853,,,,,,,,0.62853,1,,,,,,82,WORD,"ID",33,stigma,STIGMA,m,,,,,,0.310185221,-0.268518598,0,0,0,,0,36,36,21,1,
,,,,,,,,,,,,,,,,,,5f0452d558d1c26aa28f6d18,2020-08-10_18h47.13.562,lexical_decision_task_MP,2020.1.3,Win32,60,z,1,0.95129,,,,,,,,0.95129,1,,,,,,455,NW,UN,33,broget,TONDLE,z,,,,,,0.310185221,-0.268518598,0,0,0,,0,37,37,394,1,
,,,,,,,,,,,,,,,,,,5f0452d558d1c26aa28f6d18,2020-08-10_18h47.13.562,lexical_decision_task_MP,2020.1.3,Win32,60,z,1,0.759905,,,,,,,,0.759905,1,,,,,,367,NW,"ID",50,slique,SLIQUE,z,,,,,,0.310185221,-0.268518598,0,0,0,,0,38,38,306,1,
,,,,,,,,,,,,,,,,,,5f0452d558d1c26aa28f6d18,2020-08-10_18h47.13.562,lexical_decision_task_MP,2020.1.3,Win32,60,z,1,0.549015,,,,,,,,0.549015,1,,,,,,267,NW,UN,50,packes,PASINK,z,,,,,,0.310185221,-0.268518598,0,0,0,,0,39,39,446,1,
,,,,,,,,,,,,,,,,,,5f0452d558d1c26aa28f6d18,2020-08-10_18h47.13.562,lexical_decision_task_MP,2020.1.3,Win32,60,m,1,0.56625,,,,,,,,0.56625,1,,,,,,114,WORD,"ID",33,placid,PLACID,m,,,,,,0.310185221,-0.268518598,0,0,0,,0,40,40,53,1,
,,,,,,,,,,,,,,,,,,5f0452d558d1c26aa28f6d18,2020-08-10_18h47.13.562,lexical_decision_task_MP,2020.1.3,Win32,60,m,1,0.515915,,,,,,,,0.515915,1,,,,,,188,WORD,UN,33,censor,SOCIAL,m,,,,,,0.310185221,-0.268518598,0,0,0,,0,41,41,127,1,
,,,,,,,,,,,,,,,,,,5f0452d558d1c26aa28f6d18,2020-08-10_18h47.13.562,lexical_decision_task_MP,2020.1.3,Win32,60,z,1,0.56173,,,,,,,,0.56173,1,,,,,,391,NW,"ID",50,theldy,THELDY,z,,,,,,0.310185221,-0.268518598,0,0,0,,0,42,42,330,1,
,,,,,,,,,,,,,,,,,,5f0452d558d1c26aa28f6d18,2020-08-10_18h47.13.562,lexical_decision_task_MP,2020.1.3,Win32,60,m,1,0.74791,,,,,,,,0.74791,1,,,,,,32,WORD,UN,50,scream,BUCKLE,m,,,,,,0.310185221,-0.268518598,0,0,0,,0,43,43,211,1,
,,,,,,,,,,,,,,,,,,5f0452d558d1c26aa28f6d18,2020-08-10_18h47.13.562,lexical_decision_task_MP,2020.1.3,Win32,60,z,1,0.729795,,,,,,,,0.729795,1,,,,,,369,NW,"ID",50,wronch,WRONCH,z,,,,,,0.310185221,-0.268518598,0,0,0,,0,44,44,308,1,
,,,,,,,,,,,,,,,,,,5f0452d558d1c26aa28f6d18,2020-08-10_18h47.13.562,lexical_decision_task_MP,2020.1.3,Win32,60,z,1,0.677615,,,,,,,,0.677615,1,,,,,,387,NW,"ID",50,gronce,GRONCE,z,,,,,,0.310185221,-0.268518598,0,0,0,,0,45,45,326,1,
,,,,,,,,,,,,,,,,,,5f0452d558d1c26aa28f6d18,2020-08-10_18h47.13.562,lexical_decision_task_MP,2020.1.3,Win32,60,m,1,0.64409,,,,,,,,0.64409,1,,,,,,89,WORD,"ID",33,permit,PERMIT,m,,,,,,0.310185221,-0.268518598,0,0,0,,0,46,46,28,1,
,,,,,,,,,,,,,,,,,,5f0452d558d1c26aa28f6d18,2020-08-10_18h47.13.562,lexical_decision_task_MP,2020.1.3,Win32,60,m,1,0.54627,,,,,,,,0.54627,1,,,,,,109,WORD,"ID",33,wonder,WONDER,m,,,,,,0.310185221,-0.268518598,0,0,0,,0,47,47,48,1,
,,,,,,,,,,,,,,,,,,5f0452d558d1c26aa28f6d18,2020-08-10_18h47.13.562,lexical_decision_task_MP,2020.1.3,Win32,60,z,1,0.582605,,,,,,,,0.582605,1,,,,,,258,NW,UN,50,soudal,POLUTH,z,,,,,,0.310185221,-0.268518598,0,0,0,,0,48,48,437,1,
,,,,,,,,,,,,,,,,,,5f0452d558d1c26aa28f6d18,2020-08-10_18h47.13.562,lexical_decision_task_MP,2020.1.3,Win32,60,z,1,0.53341,,,,,,,,0.53341,1,,,,,,424,NW,UN,33,frudge,PRAILE,z,,,,,,0.310185221,-0.268518598,0,0,0,,0,49,49,363,1,
,,,,,,,,,,,,,,,,,,5f0452d558d1c26aa28f6d18,2020-08-10_18h47.13.562,lexical_decision_task_MP,2020.1.3,Win32,60,m,1,0.872635,,,,,,,,0.872635,1,,,,,,87,WORD,"ID",33,filter,FILTER,m,,,,,,0.310185221,-0.268518598,0,0,0,,0,50,50,26,1,
,,,,,,,,,,,,,,,,,,5f0452d558d1c26aa28f6d18,2020-08-10_18h47.13.562,lexical_decision_task_MP,2020.1.3,Win32,60,m,1,0.73854,,,,,,,,0.73854,1,,,,,,234,WORD,UN,33,poster,CLUMSY,m,,,,,,0.310185221,-0.268518598,0,0,0,,0,51,51,173,1,
,,,,,,,,,,,,,,,,,,5f0452d558d1c26aa28f6d18,2020-08-10_18h47.13.562,lexical_decision_task_MP,2020.1.3,Win32,60,m,1,0.530925,,,,,,,,0.530925,1,,,,,,169,WORD,"ID",50,genius,GENIUS,m,,,,,,0.310185221,-0.268518598,0,0,0,,0,52,52,108,1,
,,,,,,,,,,,,,,,,,,5f0452d558d1c26aa28f6d18,2020-08-10_18h47.13.562,lexical_decision_task_MP,2020.1.3,Win32,60,m,1,0.527005,,,,,,,,0.527005,1,,,,,,84,WORD,"ID",33,mortal,MORTAL,m,,,,,,0.310185221,-0.268518598,0,0,0,,0,53,53,23,1,
,,,,,,,,,,,,,,,,,,5f0452d558d1c26aa28f6d18,2020-08-10_18h47.13.562,lexical_decision_task_MP,2020.1.3,Win32,60,z,1,0.47796,,,,,,,,0.47796,1,,,,,,334,NW,"ID",33,watmeg,WATMEG,z,,,,,,0.310185221,-0.268518598,0,0,0,,0,54,54,273,1,
,,,,,,,,,,,,,,,,,,5f0452d558d1c26aa28f6d18,2020-08-10_18h47.13.562,lexical_decision_task_MP,2020.1.3,Win32,60,m,1,0.645745,,,,,,,,0.645745,1,,,,,,23,WORD,UN,50,praise,WEALTH,m,,,,,,0.310185221,-0.268518598,0,0,0,,0,55,55,202,1,
,,,,,,,,,,,,,,,,,,5f0452d558d1c26aa28f6d18,2020-08-10_18h47.13.562,lexical_decision_task_MP,2020.1.3,Win32,60,z,0,0.68763,,,,,,,,0.68763,0,,,,,,105,WORD,"ID",33,number,NUMBER,m,,,,,,0.310185221,-0.268518598,0,0,0,,0,56,56,44,1,
,,,,,,,,,,,,,,,,,,5f0452d558d1c26aa28f6d18,2020-08-10_18h47.13.562,lexical_decision_task_MP,2020.1.3,Win32,60,z,1,0.894955,,,,,,,,0.894955,1,,,,,,330,NW,"ID",33,kensom,KENSOM,z,,,,,,0.310185221,-0.268518598,0,0,0,,0,57,57,269,1,
,,,,,,,,,,,,,,,,,,5f0452d558d1c26aa28f6d18,2020-08-10_18h47.13.562,lexical_decision_task_MP,2020.1.3,Win32,60,z,1,0.61209,,,,,,,,0.61209,1,,,,,,254,NW,UN,50,apight,VAROSH,z,,,,,,0.310185221,-0.268518598,0,0,0,,0,58,58,433,1,
,,,,,,,,,,,,,,,,,,5f0452d558d1c26aa28f6d18,2020-08-10_18h47.13.562,lexical_decision_task_MP,2020.1.3,Win32,60,z,1,0.773265,,,,,,,,0.773265,1,,,,,,383,NW,"ID",50,aungre,AUNGRE,z,,,,,,0.310185221,-0.268518598,0,0,0,,0,59,59,322,1,
,,,,,,,,,,,,,,,,,,5f0452d558d1c26aa28f6d18,2020-08-10_18h47.13.562,lexical_decision_task_MP,2020.1.3,Win32,60,z,1,1.04466,,,,,,,,1.04466,1,,,,,,386,NW,"ID",50,ancust,ANCUST,z,,,,,,0.310185221,-0.268518598,0,0,0,,0,60,60,325,1,
,,,,,,,,,,,,,,,,,,5f0452d558d1c26aa28f6d18,2020-08-10_18h47.13.562,lexical_decision_task_MP,2020.1.3,Win32,60,m,0,0.595455,,,,,,,,0.595455,0,,,,,,345,NW,"ID",33,absend,ABSEND,z,,,,,,0.310185221,-0.268518598,0,0,0,,0,61,61,284,1,
,,,,,,,,,,,,,,,,,,5f0452d558d1c26aa28f6d18,2020-08-10_18h47.13.562,lexical_decision_task_MP,2020.1.3,Win32,60,z,1,0.618525,,,,,,,,0.618525,1,,,,,,301,NW,"ID",33,fainch,FAINCH,z,,,,,,0.310185221,-0.268518598,0,0,0,,0,62,62,240,1,
,,,,,,,,,,,,,,,,,,5f0452d558d1c26aa28f6d18,2020-08-10_18h47.13.562,lexical_decision_task_MP,2020.1.3,Win32,60,z,1,0.61262,,,,,,,,0.61262,1,,,,,,371,NW,"ID",50,geiloy,GEILOY,z,,,,,,0.310185221,-0.268518598,0,0,0,,0,63,63,310,1,
,,,,,,,,,,,,,,,,,,5f0452d558d1c26aa28f6d18,2020-08-10_18h47.13.562,lexical_decision_task_MP,2020.1.3,Win32,60,m,1,0.551845,,,,,,,,0.551845,1,,,,,,202,WORD,UN,33,phrase,FACTOR,m,,,,,,0.310185221,-0.268518598,0,0,0,,0,64,64,141,1,
,,,,,,,,,,,,,,,,,,5f0452d558d1c26aa28f6d18,2020-08-10_18h47.13.562,lexical_decision_task_MP,2020.1.3,Win32,60,z,1,0.895195,,,,,,,,0.895195,1,,,,,,286,NW,UN,50,nymbel,RELDON,z,,,,,,0.310185221,-0.268518598,0,0,0,,0,65,65,465,1,
,,,,,,,,,,,,,,,,,,5f0452d558d1c26aa28f6d18,2020-08-10_18h47.13.562,lexical_decision_task_MP,2020.1.3,Win32,60,z,1,1.418795,,,,,,,,1.418795,1,,,,,,354,NW,"ID",33,virlex,VIRLEX,z,,,,,,0.310185221,-0.268518598,0,0,0,,0,66,66,293,1,
,,,,,,,,,,,,,,,,,,5f0452d558d1c26aa28f6d18,2020-08-10_18h47.13.562,lexical_decision_task_MP,2020.1.3,Win32,60,m,1,0.628155,,,,,,,,0.628155,1,,,,,,153,WORD,"ID",50,behold,BEHOLD,m,,,,,,0.310185221,-0.268518598,0,0,0,,0,67,67,92,1,
,,,,,,,,,,,,,,,,,,5f0452d558d1c26aa28f6d18,2020-08-10_18h47.13.562,lexical_decision_task_MP,2020.1.3,Win32,60,m,1,0.706415,,,,,,,,0.706415,1,,,,,,33,WORD,UN,50,jungle,BUTLER,m,,,,,,0.310185221,-0.268518598,0,0,0,,0,68,68,212,1,
,,,,,,,,,,,,,,,,,,5f0452d558d1c26aa28f6d18,2020-08-10_18h47.13.562,lexical_decision_task_MP,2020.1.3,Win32,60,z,1,0.699735,,,,,,,,0.699735,1,,,,,,475,NW,UN,33,josted,PEBRIC,z,,,,,,0.310185221,-0.268518598,0,0,0,,0,69,69,414,1,
,,,,,,,,,,,,,,,,,,5f0452d558d1c26aa28f6d18,2020-08-10_18h47.13.562,lexical_decision_task_MP,2020.1.3,Win32,60,m,1,0.61769,,,,,,,,0.61769,1,,,,,,104,WORD,"ID",33,studio,STUDIO,m,,,,,,0.310185221,-0.268518598,0,0,0,,0,70,70,43,1,
,,,,,,,,,,,,,,,,,,5f0452d558d1c26aa28f6d18,2020-08-10_18h47.13.562,lexical_decision_task_MP,2020.1.3,Win32,60,z,1,0.51173,,,,,,,,0.51173,1,,,,,,474,NW,UN,33,acrise,HABLIN,z,,,,,,0.310185221,-0.268518598,0,0,0,,0,71,71,413,1,
,,,,,,,,,,,,,,,,,,5f0452d558d1c26aa28f6d18,2020-08-10_18h47.13.562,lexical_decision_task_MP,2020.1.3,Win32,60,m,1,0.60252,,,,,,,,0.60252,1,,,,,,174,WORD,"ID",50,turkey,TURKEY,m,,,,,,0.310185221,-0.268518598,0,0,0,,0,72,72,113,1,
,,,,,,,,,,,,,,,,,,5f0452d558d1c26aa28f6d18,2020-08-10_18h47.13.562,lexical_decision_task_MP,2020.1.3,Win32,60,m,0,0.895465,,,,,,,,0.895465,0,,,,,,268,NW,UN,50,orchet,PACKES,z,,,,,,0.310185221,-0.268518598,0,0,0,,0,73,73,447,1,
,,,,,,,,,,,,,,,,,,5f0452d558d1c26aa28f6d18,2020-08-10_18h47.13.562,lexical_decision_task_MP,2020.1.3,Win32,60,z,1,0.711545,,,,,,,,0.711545,1,,,,,,364,NW,"ID",50,impote,IMPOTE,z,,,,,,0.310185221,-0.268518598,0,0,0,,0,74,74,303,1,
,,,,,,,,,,,,,,,,,,5f0452d558d1c26aa28f6d18,2020-08-10_18h47.13.562,lexical_decision_task_MP,2020.1.3,Win32,60,z,1,0.73123,,,,,,,,0.73123,1,,,,,,454,NW,UN,33,tondle,SCOUGE,z,,,,,,0.310185221,-0.268518598,0,0,0,,0,75,75,393,1,
,,,,,,,,,,,,,,,,,,5f0452d558d1c26aa28f6d18,2020-08-10_18h47.13.562,lexical_decision_task_MP,2020.1.3,Win32,60,z,1,0.64762,,,,,,,,0.64762,1,,,,,,350,NW,"ID",33,nagurs,NAGURS,z,,,,,,0.310185221,-0.268518598,0,0,0,,0,76,76,289,1,
,,,,,,,,,,,,,,,,,,5f0452d558d1c26aa28f6d18,2020-08-10_18h47.13.562,lexical_decision_task_MP,2020.1.3,Win32,60,z,1,0.646135,,,,,,,,0.646135,1,,,,,,318,NW,"ID",33,reagly,REAGLY,z,,,,,,0.310185221,-0.268518598,0,0,0,,0,77,77,257,1,
,,,,,,,,,,,,,,,,,,5f0452d558d1c26aa28f6d18,2020-08-10_18h47.13.562,lexical_decision_task_MP,2020.1.3,Win32,60,z,1,0.65564,,,,,,,,0.65564,1,,,,,,406,NW,"ID",50,nouply,NOUPLY,z,,,,,,0.310185221,-0.268518598,0,0,0,,0,78,78,345,1,
,,,,,,,,,,,,,,,,,,5f0452d558d1c26aa28f6d18,2020-08-10_18h47.13.562,lexical_decision_task_MP,2020.1.3,Win32,60,m,1,0.52827,,,,,,,,0.52827,1,,,,,,49,WORD,UN,50,snatch,SURVEY,m,,,,,,0.310185221,-0.268518598,0,0,0,,0,79,79,228,1,
,,,,,,,,,,,,,,,,,,5f0452d558d1c26aa28f6d18,2020-08-10_18h47.13.562,lexical_decision_task_MP,2020.1.3,Win32,60,m,1,0.763125,,,,,,,,0.763125,1,,,,,,207,WORD,UN,33,hockey,WREATH,m,,,,,,0.310185221,-0.268518598,0,0,0,,0,80,80,146,1,
,,,,,,,,,,,,,,,,,,5f0452d558d1c26aa28f6d18,2020-08-10_18h47.13.562,lexical_decision_task_MP,2020.1.3,Win32,60,z,1,0.62448,,,,,,,,0.62448,1,,,,,,435,NW,UN,33,frutan,IMPURB,z,,,,,,0.310185221,-0.268518598,0,0,0,,0,81,81,374,1,
,,,,,,,,,,,,,,,,,,5f0452d558d1c26aa28f6d18,2020-08-10_18h47.13.562,lexical_decision_task_MP,2020.1.3,Win32,60,z,1,0.78424,,,,,,,,0.78424,1,,,,,,246,NW,UN,50,blarge,PIATON,z,,,,,,0.310185221,-0.268518598,0,0,0,,0,82,82,425,1,
,,,,,,,,,,,,,,,,,,5f0452d558d1c26aa28f6d18,2020-08-10_18h47.13.562,lexical_decision_task_MP,2020.1.3,Win32,60,z,1,0.77239,,,,,,,,0.77239,1,,,,,,340,NW,"ID",33,fiatch,FIATCH,z,,,,,,0.310185221,-0.268518598,0,0,0,,0,83,83,279,1,
,,,,,,,,,,,,,,,,,,5f0452d558d1c26aa28f6d18,2020-08-10_18h47.13.562,lexical_decision_task_MP,2020.1.3,Win32,60,z,1,0.629315,,,,,,,,0.629315,1,,,,,,313,NW,"ID",33,paurse,PAURSE,z,,,,,,0.310185221,-0.268518598,0,0,0,,0,84,84,252,1,
,,,,,,,,,,,,,,,,,,5f0452d558d1c26aa28f6d18,2020-08-10_18h47.13.562,lexical_decision_task_MP,2020.1.3,Win32,60,,0,,,,,,,,,0.629315,-1,,,,,,398,NW,"ID",50,blunde,BLUNDE,z,,,,,,0.310185221,-0.268518598,0,0,0,,0,85,85,337,1,
,,,,,,,,,,,,,,,,,,5f0452d558d1c26aa28f6d18,2020-08-10_18h47.13.562,lexical_decision_task_MP,2020.1.3,Win32,60,z,1,0.57141,,,,,,,,0.57141,1,,,,,,300,NW,UN,50,smenco,YARION,z,,,,,,0.310185221,-0.268518598,0,0,0,,0,86,86,479,1,
,,,,,,,,,,,,,,,,,,5f0452d558d1c26aa28f6d18,2020-08-10_18h47.13.562,lexical_decision_task_MP,2020.1.3,Win32,60,z,1,0.74553,,,,,,,,0.74553,1,,,,,,458,NW,UN,33,hocite,BARCET,z,,,,,,0.310185221,-0.268518598,0,0,0,,0,87,87,397,1,
,,,,,,,,,,,,,,,,,,5f0452d558d1c26aa28f6d18,2020-08-10_18h47.13.562,lexical_decision_task_MP,2020.1.3,Win32,60,m,1,0.480875,,,,,,,,0.480875,1,,,,,,124,WORD,"ID",50,blouse,BLOUSE,m,,,,,,0.310185221,-0.268518598,0,0,0,,0,88,88,63,1,
,,,,,,,,,,,,,,,,,,5f0452d558d1c26aa28f6d18,2020-08-10_18h47.13.562,lexical_decision_task_MP,2020.1.3,Win32,60,m,1,0.71729,,,,,,,,0.71729,1,,,,,,185,WORD,UN,33,portal,BOTHER,m,,,,,,0.310185221,-0.268518598,0,0,0,,0,89,89,124,1,
,,,,,,,,,,,,,,,,,,5f0452d558d1c26aa28f6d18,2020-08-10_18h47.13.562,lexical_decision_task_MP,2020.1.3,Win32,60,z,1,0.50366,,,,,,,,0.50366,1,,,,,,410,NW,"ID",50,tunory,TUNORY,z,,,,,,0.310185221,-0.268518598,0,0,0,,0,90,90,349,1,
,,,,,,,,,,,,,,,,,,5f0452d558d1c26aa28f6d18,2020-08-10_18h47.13.562,lexical_decision_task_MP,2020.1.3,Win32,60,z,1,0.49414,,,,,,,,0.49414,1,,,,,,257,NW,UN,50,poluth,VENIOD,z,,,,,,0.310185221,-0.268518598,0,0,0,,0,91,91,436,1,
,,,,,,,,,,,,,,,,,,5f0452d558d1c26aa28f6d18,2020-08-10_18h47.13.562,lexical_decision_task_MP,2020.1.3,Win32,60,m,1,0.50386,,,,,,,,0.50386,1,,,,,,232,WORD,UN,33,nature,INJECT,m,,,,,,0.310185221,-0.268518598,0,0,0,,0,92,92,171,1,
,,,,,,,,,,,,,,,,,,5f0452d558d1c26aa28f6d18,2020-08-10_18h47.13.562,lexical_decision_task_MP,2020.1.3,Win32,60,m,1,0.561575,,,,,,,,0.561575,1,,,,,,211,WORD,UN,33,verify,INFECT,m,,,,,,0.310185221,-0.268518598,0,0,0,,0,93,93,150,1,
,,,,,,,,,,,,,,,,,,5f0452d558d1c26aa28f6d18,2020-08-10_18h47.13.562,lexical_decision_task_MP,2020.1.3,Win32,60,z,1,0.523305,,,,,,,,0.523305,1,,,,,,431,NW,UN,33,lunker,CHRUMS,z,,,,,,0.310185221,-0.268518598,0,0,0,,0,94,94,370,1,
,,,,,,,,,,,,,,,,,,5f0452d558d1c26aa28f6d18,2020-08-10_18h47.13.562,lexical_decision_task_MP,2020.1.3,Win32,60,m,1,0.54421,,,,,,,,0.54421,1,,,,,,41,WORD,UN,50,chapel,SPRING,m,,,,,,0.310185221,-0.268518598,0,0,0,,0,95,95,220,1,
,,,,,,,,,,,,,,,,,,5f0452d558d1c26aa28f6d18,2020-08-10_18h47.13.562,lexical_decision_task_MP,2020.1.3,Win32,60,m,0,0.461165,,,,,,,,0.461165,0,,,,,,447,NW,UN,33,sadent,GIRCUE,z,,,,,,0.310185221,-0.268518598,0,0,0,,0,96,96,386,1,
,,,,,,,,,,,,,,,,,,5f0452d558d1c26aa28f6d18,2020-08-10_18h47.13.562,lexical_decision_task_MP,2020.1.3,Win32,60,z,1,0.56185,,,,,,,,0.56185,1,,,,,,250,NW,UN,50,lupict,MILTED,z,,,,,,0.310185221,-0.268518598,0,0,0,,0,97,97,429,1,
,,,,,,,,,,,,,,,,,,5f0452d558d1c26aa28f6d18,2020-08-10_18h47.13.562,lexical_decision_task_MP,2020.1.3,Win32,60,m,1,0.452075,,,,,,,,0.452075,1,,,,,,67,WORD,"ID",33,policy,POLICY,m,,,,,,0.310185221,-0.268518598,0,0,0,,0,98,98,6,1,
,,,,,,,,,,,,,,,,,,5f0452d558d1c26aa28f6d18,2020-08-10_18h47.13.562,lexical_decision_task_MP,2020.1.3,Win32,60,z,1,0.423755,,,,,,,,0.423755,1,,,,,,404,NW,"ID",50,cluirm,CLUIRM,z,,,,,,0.310185221,-0.268518598,0,0,0,,0,99,99,343,1,
,,,,,,,,,,,,,,,,,,5f0452d558d1c26aa28f6d18,2020-08-10_18h47.13.562,lexical_decision_task_MP,2020.1.3,Win32,60,z,0,0.661705,,,,,,,,0.661705,0,,,,,,20,WORD,UN,50,simple,BREAST,m,,,,,,0.310185221,-0.268518598,0,0,0,,0,100,100,199,1,
,,,,,,,,,,,,,,,,,,5f0452d558d1c26aa28f6d18,2020-08-10_18h47.13.562,lexical_decision_task_MP,2020.1.3,Win32,60,z,1,0.6953,,,,,,,,0.6953,1,,,,,,266,NW,UN,50,pasink,VARMIT,z,,,,,,0.310185221,-0.268518598,0,0,0,,0,101,101,445,1,
,,,,,,,,,,,,,,,,,,5f0452d558d1c26aa28f6d18,2020-08-10_18h47.13.562,lexical_decision_task_MP,2020.1.3,Win32,60,m,1,0.44543,,,,,,,,0.44543,1,,,,,,83,WORD,"ID",33,result,RESULT,m,,,,,,0.310185221,-0.268518598,0,0,0,,0,102,102,22,1,
,,,,,,,,,,,,,,,,,,5f0452d558d1c26aa28f6d18,2020-08-10_18h47.13.562,lexical_decision_task_MP,2020.1.3,Win32,60,m,1,0.67775,,,,,,,,0.67775,1,,,,,,74,WORD,"ID",33,plaque,PLAQUE,m,,,,,,0.310185221,-0.268518598,0,0,0,,0,103,103,13,1,
,,,,,,,,,,,,,,,,,,5f0452d558d1c26aa28f6d18,2020-08-10_18h47.13.562,lexical_decision_task_MP,2020.1.3,Win32,60,z,1,0.482525,,,,,,,,0.482525,1,,,,,,344,NW,"ID",33,scrily,SCRILY,z,,,,,,0.310185221,-0.268518598,0,0,0,,0,104,104,283,1,
,,,,,,,,,,,,,,,,,,5f0452d558d1c26aa28f6d18,2020-08-10_18h47.13.562,lexical_decision_task_MP,2020.1.3,Win32,60,z,0,0.535955,,,,,,,,0.535955,0,,,,,,30,WORD,UN,50,weapon,ORIENT,m,,,,,,0.310185221,-0.268518598,0,0,0,,0,105,105,209,1,
,,,,,,,,,,,,,,,,,,5f0452d558d1c26aa28f6d18,2020-08-10_18h47.13.562,lexical_decision_task_MP,2020.1.3,Win32,60,z,1,0.58757,,,,,,,,0.58757,1,,,,,,470,NW,UN,33,nobest,CRUDIO,z,,,,,,0.310185221,-0.268518598,0,0,0,,0,106,106,409,1,
,,,,,,,,,,,,,,,,,,5f0452d558d1c26aa28f6d18,2020-08-10_18h47.13.562,lexical_decision_task_MP,2020.1.3,Win32,60,m,1,0.580385,,,,,,,,0.580385,1,,,,,,28,WORD,UN,50,sketch,COMEDY,m,,,,,,0.310185221,-0.268518598,0,0,0,,0,107,107,207,1,
,,,,,,,,,,,,,,,,,,5f0452d558d1c26aa28f6d18,2020-08-10_18h47.13.562,lexical_decision_task_MP,2020.1.3,Win32,60,m,1,0.61247,,,,,,,,0.61247,1,,,,,,221,WORD,UN,33,hinder,MASCOT,m,,,,,,0.310185221,-0.268518598,0,0,0,,0,108,108,160,1,
,,,,,,,,,,,,,,,,,,5f0452d558d1c26aa28f6d18,2020-08-10_18h47.13.562,lexical_decision_task_MP,2020.1.3,Win32,60,z,1,0.504905,,,,,,,,0.504905,1,,,,,,264,NW,UN,50,distar,VACKEL,z,,,,,,0.310185221,-0.268518598,0,0,0,,0,109,109,443,1,
,,,,,,,,,,,,,,,,,,5f0452d558d1c26aa28f6d18,2020-08-10_18h47.13.562,lexical_decision_task_MP,2020.1.3,Win32,60,z,1,0.54681,,,,,,,,0.54681,1,,,,,,312,NW,"ID",33,nerawl,NERAWL,z,,,,,,0.310185221,-0.268518598,0,0,0,,0,110,110,251,1,
,,,,,,,,,,,,,,,,,,5f0452d558d1c26aa28f6d18,2020-08-10_18h47.13.562,lexical_decision_task_MP,2020.1.3,Win32,60,m,0,0.657355,,,,,,,,0.657355,0,,,,,,452,NW,UN,33,bolvis,SURDEN,z,,,,,,0.310185221,-0.268518598,0,0,0,,0,111,111,391,1,
,,,,,,,,,,,,,,,,,,5f0452d558d1c26aa28f6d18,2020-08-10_18h47.13.562,lexical_decision_task_MP,2020.1.3,Win32,60,z,1,0.76791,,,,,,,,0.76791,1,,,,,,468,NW,UN,33,padifs,WICTOR,z,,,,,,0.310185221,-0.268518598,0,0,0,,0,112,112,407,1,
,,,,,,,,,,,,,,,,,,5f0452d558d1c26aa28f6d18,2020-08-10_18h47.13.562,lexical_decision_task_MP,2020.1.3,Win32,60,z,1,0.53632,,,,,,,,0.53632,1,,,,,,317,NW,"ID",33,worbal,WORBAL,z,,,,,,0.310185221,-0.268518598,0,0,0,,0,113,113,256,1,
,,,,,,,,,,,,,,,,,,5f0452d558d1c26aa28f6d18,2020-08-10_18h47.13.562,lexical_decision_task_MP,2020.1.3,Win32,60,z,1,0.668735,,,,,,,,0.668735,1,,,,,,252,NW,UN,50,resait,STAPOD,z,,,,,,0.310185221,-0.268518598,0,0,0,,0,114,114,431,1,
,,,,,,,,,,,,,,,,,,5f0452d558d1c26aa28f6d18,2020-08-10_18h47.13.562,lexical_decision_task_MP,2020.1.3,Win32,60,z,1,0.569075,,,,,,,,0.569075,1,,,,,,243,NW,UN,50,eatric,MUSIED,z,,,,,,0.310185221,-0.268518598,0,0,0,,0,115,115,422,1,
,,,,,,,,,,,,,,,,,,5f0452d558d1c26aa28f6d18,2020-08-10_18h47.13.562,lexical_decision_task_MP,2020.1.3,Win32,60,m,1,0.666745,,,,,,,,0.666745,1,,,,,,199,WORD,UN,33,plague,INVOKE,m,,,,,,0.310185221,-0.268518598,0,0,0,,0,116,116,138,1,
,,,,,,,,,,,,,,,,,,5f0452d558d1c26aa28f6d18,2020-08-10_18h47.13.562,lexical_decision_task_MP,2020.1.3,Win32,60,m,1,0.57827,,,,,,,,0.57827,1,,,,,,77,WORD,"ID",33,racket,RACKET,m,,,,,,0.310185221,-0.268518598,0,0,0,,0,117,117,16,1,
,,,,,,,,,,,,,,,,,,5f0452d558d1c26aa28f6d18,2020-08-10_18h47.13.562,lexical_decision_task_MP,2020.1.3,Win32,60,z,1,0.479705,,,,,,,,0.479705,1,,,,,,399,NW,"ID",50,fouret,FOURET,z,,,,,,0.310185221,-0.268518598,0,0,0,,0,118,118,338,1,
,,,,,,,,,,,,,,,,,,5f0452d558d1c26aa28f6d18,2020-08-10_18h47.13.562,lexical_decision_task_MP,2020.1.3,Win32,60,m,0,0.585805,,,,,,,,0.585805,0,,,,,,303,NW,"ID",33,fiream,FIREAM,z,,,,,,0.310185221,-0.268518598,0,0,0,,0,119,119,242,1,
,,,,,,,,,,,,,,,,,,5f0452d558d1c26aa28f6d18,2020-08-10_18h47.13.562,lexical_decision_task_MP,2020.1.3,Win32,60,z,1,0.603135,,,,,,,,0.603135,1,,,,,,366,NW,"ID",50,toshel,TOSHEL,z,,,,,,0.310185221,-0.268518598,0,0,0,space,0,120,120,305,1,12.071165
,,,,,,,,,,,,,,,,,,5f0452d558d1c26aa28f6d18,2020-08-10_18h47.13.562,lexical_decision_task_MP,2020.1.3,Win32,60,,0,,,,,,,,,0.603135,-1,,,,,,51,WORD,UN,50,impose,HUNGRY,m,,,,,,0.310185221,-0.268518598,0,0,0,,0,121,121,230,1,
,,,,,,,,,,,,,,,,,,5f0452d558d1c26aa28f6d18,2020-08-10_18h47.13.562,lexical_decision_task_MP,2020.1.3,Win32,60,,0,,,,,,,,,0.603135,-1,,,,,,325,NW,"ID",33,thruse,THRUSE,z,,,,,,0.310185221,-0.268518598,0,0,0,,0,122,122,264,1,
,,,,,,,,,,,,,,,,,,5f0452d558d1c26aa28f6d18,2020-08-10_18h47.13.562,lexical_decision_task_MP,2020.1.3,Win32,60,m,1,0.50329,,,,,,,,0.50329,1,,,,,,210,WORD,UN,33,infect,MONKEY,m,,,,,,0.310185221,-0.268518598,0,0,0,,0,123,123,149,1,
,,,,,,,,,,,,,,,,,,5f0452d558d1c26aa28f6d18,2020-08-10_18h47.13.562,lexical_decision_task_MP,2020.1.3,Win32,60,z,1,0.85391,,,,,,,,0.85391,1,,,,,,293,NW,UN,50,inhort,SWANCE,z,,,,,,0.310185221,-0.268518598,0,0,0,,0,124,124,472,1,
,,,,,,,,,,,,,,,,,,5f0452d558d1c26aa28f6d18,2020-08-10_18h47.13.562,lexical_decision_task_MP,2020.1.3,Win32,60,z,1,0.46587,,,,,,,,0.46587,1,,,,,,343,NW,"ID",33,aimosy,AIMOSY,z,,,,,,0.310185221,-0.268518598,0,0,0,,0,125,125,282,1,
,,,,,,,,,,,,,,,,,,5f0452d558d1c26aa28f6d18,2020-08-10_18h47.13.562,lexical_decision_task_MP,2020.1.3,Win32,60,m,1,0.682125,,,,,,,,0.682125,1,,,,,,134,WORD,"ID",50,staple,STAPLE,m,,,,,,0.310185221,-0.268518598,0,0,0,,0,126,126,73,1,
,,,,,,,,,,,,,,,,,,5f0452d558d1c26aa28f6d18,2020-08-10_18h47.13.562,lexical_decision_task_MP,2020.1.3,Win32,60,m,1,0.52897,,,,,,,,0.52897,1,,,,,,198,WORD,UN,33,invoke,WICKED,m,,,,,,0.310185221,-0.268518598,0,0,0,,0,127,127,137,1,
,,,,,,,,,,,,,,,,,,5f0452d558d1c26aa28f6d18,2020-08-10_18h47.13.562,lexical_decision_task_MP,2020.1.3,Win32,60,z,1,0.53689,,,,,,,,0.53689,1,,,,,,315,NW,"ID",33,laston,LASTON,z,,,,,,0.310185221,-0.268518598,0,0,0,,0,128,128,254,1,
,,,,,,,,,,,,,,,,,,5f0452d558d1c26aa28f6d18,2020-08-10_18h47.13.562,lexical_decision_task_MP,2020.1.3,Win32,60,m,0,0.81085,,,,,,,,0.81085,0,,,,,,292,NW,UN,50,swance,ABLINT,z,,,,,,0.310185221,-0.268518598,0,0,0,,0,129,129,471,1,
,,,,,,,,,,,,,,,,,,5f0452d558d1c26aa28f6d18,2020-08-10_18h47.13.562,lexical_decision_task_MP,2020.1.3,Win32,60,m,1,0.811815,,,,,,,,0.811815,1,,,,,,6,WORD,UN,50,anchor,BUNDLE,m,,,,,,0.310185221,-0.268518598,0,0,0,,0,130,130,185,1,
,,,,,,,,,,,,,,,,,,5f0452d558d1c26aa28f6d18,2020-08-10_18h47.13.562,lexical_decision_task_MP,2020.1.3,Win32,60,z,1,0.527445,,,,,,,,0.527445,1,,,,,,310,NW,"ID",33,daniet,DANIET,z,,,,,,0.310185221,-0.268518598,0,0,0,,0,131,131,249,1,
,,,,,,,,,,,,,,,,,,5f0452d558d1c26aa28f6d18,2020-08-10_18h47.13.562,lexical_decision_task_MP,2020.1.3,Win32,60,m,1,0.587845,,,,,,,,0.587845,1,,,,,,47,WORD,UN,50,walnut,INCOME,m,,,,,,0.310185221,-0.268518598,0,0,0,,0,132,132,226,1,
,,,,,,,,,,,,,,,,,,5f0452d558d1c26aa28f6d18,2020-08-10_18h47.13.562,lexical_decision_task_MP,2020.1.3,Win32,60,m,0,0.822485,,,,,,,,0.822485,0,,,,,,291,NW,UN,50,ablint,PRETCH,z,,,,,,0.310185221,-0.268518598,0,0,0,,0,133,133,470,1,
,,,,,,,,,,,,,,,,,,5f0452d558d1c26aa28f6d18,2020-08-10_18h47.13.562,lexical_decision_task_MP,2020.1.3,Win32,60,z,1,0.41401,,,,,,,,0.41401,1,,,,,,480,NW,UN,33,knisma,ROBULY,z,,,,,,0.310185221,-0.268518598,0,0,0,,0,134,134,419,1,
,,,,,,,,,,,,,,,,,,5f0452d558d1c26aa28f6d18,2020-08-10_18h47.13.562,lexical_decision_task_MP,2020.1.3,Win32,60,m,1,0.519595,,,,,,,,0.519595,1,,,,,,72,WORD,"ID",33,bright,BRIGHT,m,,,,,,0.310185221,-0.268518598,0,0,0,,0,135,135,11,1,
,,,,,,,,,,,,,,,,,,5f0452d558d1c26aa28f6d18,2020-08-10_18h47.13.562,lexical_decision_task_MP,2020.1.3,Win32,60,m,1,0.5783,,,,,,,,0.5783,1,,,,,,160,WORD,"ID",50,violet,VIOLET,m,,,,,,0.310185221,-0.268518598,0,0,0,,0,136,136,99,1,
,,,,,,,,,,,,,,,,,,5f0452d558d1c26aa28f6d18,2020-08-10_18h47.13.562,lexical_decision_task_MP,2020.1.3,Win32,60,z,1,0.462225,,,,,,,,0.462225,1,,,,,,394,NW,"ID",50,spaqux,SPAQUX,z,,,,,,0.310185221,-0.268518598,0,0,0,,0,137,137,333,1,
,,,,,,,,,,,,,,,,,,5f0452d558d1c26aa28f6d18,2020-08-10_18h47.13.562,lexical_decision_task_MP,2020.1.3,Win32,60,m,1,0.76252,,,,,,,,0.76252,1,,,,,,115,WORD,"ID",33,guitar,GUITAR,m,,,,,,0.310185221,-0.268518598,0,0,0,,0,138,138,54,1,
,,,,,,,,,,,,,,,,,,5f0452d558d1c26aa28f6d18,2020-08-10_18h47.13.562,lexical_decision_task_MP,2020.1.3,Win32,60,z,1,1.450855,,,,,,,,1.450855,1,,,,,,353,NW,"ID",33,clurey,CLUREY,z,,,,,,0.310185221,-0.268518598,0,0,0,,0,139,139,292,1,
,,,,,,,,,,,,,,,,,,5f0452d558d1c26aa28f6d18,2020-08-10_18h47.13.562,lexical_decision_task_MP,2020.1.3,Win32,60,m,0,0.512125,,,,,,,,0.512125,0,,,,,,434,NW,UN,33,impurb,PITROM,z,,,,,,0.310185221,-0.268518598,0,0,0,,0,140,140,373,1,
,,,,,,,,,,,,,,,,,,5f0452d558d1c26aa28f6d18,2020-08-10_18h47.13.562,lexical_decision_task_MP,2020.1.3,Win32,60,m,1,0.5768,,,,,,,,0.5768,1,,,,,,182,WORD,UN,33,absent,WINTER,m,,,,,,0.310185221,-0.268518598,0,0,0,,0,141,141,121,1,
,,,,,,,,,,,,,,,,,,5f0452d558d1c26aa28f6d18,2020-08-10_18h47.13.562,lexical_decision_task_MP,2020.1.3,Win32,60,m,1,0.67714,,,,,,,,0.67714,1,,,,,,22,WORD,UN,50,wealth,JOCKEY,m,,,,,,0.310185221,-0.268518598,0,0,0,,0,142,142,201,1,
,,,,,,,,,,,,,,,,,,5f0452d558d1c26aa28f6d18,2020-08-10_18h47.13.562,lexical_decision_task_MP,2020.1.3,Win32,60,m,1,0.610365,,,,,,,,0.610365,1,,,,,,206,WORD,UN,33,wreath,TAILOR,m,,,,,,0.310185221,-0.268518598,0,0,0,,0,143,143,145,1,
,,,,,,,,,,,,,,,,,,5f0452d558d1c26aa28f6d18,2020-08-10_18h47.13.562,lexical_decision_task_MP,2020.1.3,Win32,60,z,1,0.628355,,,,,,,,0.628355,1,,,,,,377,NW,"ID",50,injore,INJORE,z,,,,,,0.310185221,-0.268518598,0,0,0,,0,144,144,316,1,
,,,,,,,,,,,,,,,,,,5f0452d558d1c26aa28f6d18,2020-08-10_18h47.13.562,lexical_decision_task_MP,2020.1.3,Win32,60,z,1,0.56199,,,,,,,,0.56199,1,,,,,,448,NW,UN,33,brunge,SADENT,z,,,,,,0.310185221,-0.268518598,0,0,0,,0,145,145,387,1,
,,,,,,,,,,,,,,,,,,5f0452d558d1c26aa28f6d18,2020-08-10_18h47.13.562,lexical_decision_task_MP,2020.1.3,Win32,60,m,1,0.511765,,,,,,,,0.511765,1,,,,,,128,WORD,"ID",50,senior,SENIOR,m,,,,,,0.310185221,-0.268518598,0,0,0,,0,146,146,67,1,
,,,,,,,,,,,,,,,,,,5f0452d558d1c26aa28f6d18,2020-08-10_18h47.13.562,lexical_decision_task_MP,2020.1.3,Win32,60,m,1,0.66131,,,,,,,,0.66131,1,,,,,,9,WORD,UN,50,bridge,HUSTLE,m,,,,,,0.310185221,-0.268518598,0,0,0,,0,147,147,188,1,
,,,,,,,,,,,,,,,,,,5f0452d558d1c26aa28f6d18,2020-08-10_18h47.13.562,lexical_decision_task_MP,2020.1.3,Win32,60,z,1,0.44563,,,,,,,,0.44563,1,,,,,,274,NW,UN,50,sleirt,FUMBLO,z,,,,,,0.310185221,-0.268518598,0,0,0,,0,148,148,453,1,
,,,,,,,,,,,,,,,,,,5f0452d558d1c26aa28f6d18,2020-08-10_18h47.13.562,lexical_decision_task_MP,2020.1.3,Win32,60,z,1,0.61689,,,,,,,,0.61689,1,,,,,,283,NW,UN,50,shaple,VERALF,z,,,,,,0.310185221,-0.268518598,0,0,0,,0,149,149,462,1,
,,,,,,,,,,,,,,,,,,5f0452d558d1c26aa28f6d18,2020-08-10_18h47.13.562,lexical_decision_task_MP,2020.1.3,Win32,60,z,0,0.50738,,,,,,,,0.50738,0,,,,,,16,WORD,UN,50,charge,FAUCET,m,,,,,,0.310185221,-0.268518598,0,0,0,,0,150,150,195,1,
,,,,,,,,,,,,,,,,,,5f0452d558d1c26aa28f6d18,2020-08-10_18h47.13.562,lexical_decision_task_MP,2020.1.3,Win32,60,z,1,0.664605,,,,,,,,0.664605,1,,,,,,430,NW,UN,33,chrums,CAROEY,z,,,,,,0.310185221,-0.268518598,0,0,0,,0,151,151,369,1,
,,,,,,,,,,,,,,,,,,5f0452d558d1c26aa28f6d18,2020-08-10_18h47.13.562,lexical_decision_task_MP,2020.1.3,Win32,60,z,1,0.704895,,,,,,,,0.704895,1,,,,,,253,NW,UN,50,varosh,RESAIT,z,,,,,,0.310185221,-0.268518598,0,0,0,,0,152,152,432,1,
,,,,,,,,,,,,,,,,,,5f0452d558d1c26aa28f6d18,2020-08-10_18h47.13.562,lexical_decision_task_MP,2020.1.3,Win32,60,m,1,0.537345,,,,,,,,0.537345,1,,,,,,101,WORD,"ID",33,wrench,WRENCH,m,,,,,,0.310185221,-0.268518598,0,0,0,,0,153,153,40,1,
,,,,,,,,,,,,,,,,,,5f0452d558d1c26aa28f6d18,2020-08-10_18h47.13.562,lexical_decision_task_MP,2020.1.3,Win32,60,z,1,0.56226,,,,,,,,0.56226,1,,,,,,392,NW,"ID",50,rouncy,ROUNCY,z,,,,,,0.310185221,-0.268518598,0,0,0,,0,154,154,331,1,
,,,,,,,,,,,,,,,,,,5f0452d558d1c26aa28f6d18,2020-08-10_18h47.13.562,lexical_decision_task_MP,2020.1.3,Win32,60,z,1,0.51613,,,,,,,,0.51613,1,,,,,,302,NW,"ID",33,miluer,MILUER,z,,,,,,0.310185221,-0.268518598,0,0,0,,0,155,155,241,1,
,,,,,,,,,,,,,,,,,,5f0452d558d1c26aa28f6d18,2020-08-10_18h47.13.562,lexical_decision_task_MP,2020.1.3,Win32,60,z,1,0.84802,,,,,,,,0.84802,1,,,,,,421,NW,UN,33,alcoud,KNISMA,z,,,,,,0.310185221,-0.268518598,0,0,0,,0,156,156,360,1,
,,,,,,,,,,,,,,,,,,5f0452d558d1c26aa28f6d18,2020-08-10_18h47.13.562,lexical_decision_task_MP,2020.1.3,Win32,60,z,1,0.50301,,,,,,,,0.50301,1,,,,,,443,NW,UN,33,jaunce,DORSEX,z,,,,,,0.310185221,-0.268518598,0,0,0,,0,157,157,382,1,
,,,,,,,,,,,,,,,,,,5f0452d558d1c26aa28f6d18,2020-08-10_18h47.13.562,lexical_decision_task_MP,2020.1.3,Win32,60,m,1,0.611545,,,,,,,,0.611545,1,,,,,,102,WORD,"ID",33,direct,DIRECT,m,,,,,,0.310185221,-0.268518598,0,0,0,,0,158,158,41,1,
,,,,,,,,,,,,,,,,,,5f0452d558d1c26aa28f6d18,2020-08-10_18h47.13.562,lexical_decision_task_MP,2020.1.3,Win32,60,m,1,1.26476,,,,,,,,1.26476,1,,,,,,75,WORD,"ID",33,trophy,TROPHY,m,,,,,,0.310185221,-0.268518598,0,0,0,,0,159,159,14,1,
,,,,,,,,,,,,,,,,,,5f0452d558d1c26aa28f6d18,2020-08-10_18h47.13.562,lexical_decision_task_MP,2020.1.3,Win32,60,m,1,0.46177,,,,,,,,0.46177,1,,,,,,205,WORD,UN,33,tailor,LOUNGE,m,,,,,,0.310185221,-0.268518598,0,0,0,,0,160,160,144,1,
,,,,,,,,,,,,,,,,,,5f0452d558d1c26aa28f6d18,2020-08-10_18h47.13.562,lexical_decision_task_MP,2020.1.3,Win32,60,m,1,0.618995,,,,,,,,0.618995,1,,,,,,189,WORD,UN,33,backup,CENSOR,m,,,,,,0.310185221,-0.268518598,0,0,0,,0,161,161,128,1,
,,,,,,,,,,,,,,,,,,5f0452d558d1c26aa28f6d18,2020-08-10_18h47.13.562,lexical_decision_task_MP,2020.1.3,Win32,60,m,1,0.448505,,,,,,,,0.448505,1,,,,,,141,WORD,"ID",50,orphan,ORPHAN,m,,,,,,0.310185221,-0.268518598,0,0,0,,0,162,162,80,1,
,,,,,,,,,,,,,,,,,,5f0452d558d1c26aa28f6d18,2020-08-10_18h47.13.562,lexical_decision_task_MP,2020.1.3,Win32,60,m,0,0.461635,,,,,,,,0.461635,0,,,,,,248,NW,UN,50,batrol,STROLE,z,,,,,,0.310185221,-0.268518598,0,0,0,,0,163,163,427,1,
,,,,,,,,,,,,,,,,,,5f0452d558d1c26aa28f6d18,2020-08-10_18h47.13.562,lexical_decision_task_MP,2020.1.3,Win32,60,z,1,0.45546,,,,,,,,0.45546,1,,,,,,451,NW,UN,33,surden,CAINKY,z,,,,,,0.310185221,-0.268518598,0,0,0,,0,164,164,390,1,
,,,,,,,,,,,,,,,,,,5f0452d558d1c26aa28f6d18,2020-08-10_18h47.13.562,lexical_decision_task_MP,2020.1.3,Win32,60,z,1,0.479435,,,,,,,,0.479435,1,,,,,,331,NW,"ID",33,gilfew,GILFEW,z,,,,,,0.310185221,-0.268518598,0,0,0,,0,165,165,270,1,
,,,,,,,,,,,,,,,,,,5f0452d558d1c26aa28f6d18,2020-08-10_18h47.13.562,lexical_decision_task_MP,2020.1.3,Win32,60,m,1,0.72798,,,,,,,,0.72798,1,,,,,,61,WORD,"ID",33,ponder,PONDER,m,,,,,,0.310185221,-0.268518598,0,0,0,,0,166,166,0,1,
,,,,,,,,,,,,,,,,,,5f0452d558d1c26aa28f6d18,2020-08-10_18h47.13.562,lexical_decision_task_MP,2020.1.3,Win32,60,z,0,0.569545,,,,,,,,0.569545,0,,,,,,81,WORD,"ID",33,friend,FRIEND,m,,,,,,0.310185221,-0.268518598,0,0,0,,0,167,167,20,1,
,,,,,,,,,,,,,,,,,,5f0452d558d1c26aa28f6d18,2020-08-10_18h47.13.562,lexical_decision_task_MP,2020.1.3,Win32,60,m,1,0.488275,,,,,,,,0.488275,1,,,,,,38,WORD,UN,50,insect,POWDER,m,,,,,,0.310185221,-0.268518598,0,0,0,,0,168,168,217,1,
,,,,,,,,,,,,,,,,,,5f0452d558d1c26aa28f6d18,2020-08-10_18h47.13.562,lexical_decision_task_MP,2020.1.3,Win32,60,m,1,0.502445,,,,,,,,0.502445,1,,,,,,180,WORD,"ID",50,silent,SILENT,m,,,,,,0.310185221,-0.268518598,0,0,0,,0,169,169,119,1,
,,,,,,,,,,,,,,,,,,5f0452d558d1c26aa28f6d18,2020-08-10_18h47.13.562,lexical_decision_task_MP,2020.1.3,Win32,60,m,1,1.019355,,,,,,,,1.019355,1,,,,,,46,WORD,UN,50,income,SINGLE,m,,,,,,0.310185221,-0.268518598,0,0,0,,0,170,170,225,1,
,,,,,,,,,,,,,,,,,,5f0452d558d1c26aa28f6d18,2020-08-10_18h47.13.562,lexical_decision_task_MP,2020.1.3,Win32,60,z,1,0.538345,,,,,,,,0.538345,1,,,,,,280,NW,UN,50,melaty,CURBOL,z,,,,,,0.310185221,-0.268518598,0,0,0,,0,171,171,459,1,
,,,,,,,,,,,,,,,,,,5f0452d558d1c26aa28f6d18,2020-08-10_18h47.13.562,lexical_decision_task_MP,2020.1.3,Win32,60,z,1,0.67166,,,,,,,,0.67166,1,,,,,,373,NW,"ID",50,bigent,BIGENT,z,,,,,,0.310185221,-0.268518598,0,0,0,,0,172,172,312,1,
,,,,,,,,,,,,,,,,,,5f0452d558d1c26aa28f6d18,2020-08-10_18h47.13.562,lexical_decision_task_MP,2020.1.3,Win32,60,m,1,0.797535,,,,,,,,0.797535,1,,,,,,195,WORD,UN,33,credit,RESIGN,m,,,,,,0.310185221,-0.268518598,0,0,0,,0,173,173,134,1,
,,,,,,,,,,,,,,,,,,5f0452d558d1c26aa28f6d18,2020-08-10_18h47.13.562,lexical_decision_task_MP,2020.1.3,Win32,60,z,1,0.61659,,,,,,,,0.61659,1,,,,,,338,NW,"ID",33,wreash,WREASH,z,,,,,,0.310185221,-0.268518598,0,0,0,,0,174,174,277,1,
,,,,,,,,,,,,,,,,,,5f0452d558d1c26aa28f6d18,2020-08-10_18h47.13.562,lexical_decision_task_MP,2020.1.3,Win32,60,m,1,0.54689,,,,,,,,0.54689,1,,,,,,119,WORD,"ID",33,spider,SPIDER,m,,,,,,0.310185221,-0.268518598,0,0,0,,0,175,175,58,1,
,,,,,,,,,,,,,,,,,,5f0452d558d1c26aa28f6d18,2020-08-10_18h47.13.562,lexical_decision_task_MP,2020.1.3,Win32,60,z,1,0.627415,,,,,,,,0.627415,1,,,,,,437,NW,UN,33,baitch,SNAPEL,z,,,,,,0.310185221,-0.268518598,0,0,0,,0,176,176,376,1,
,,,,,,,,,,,,,,,,,,5f0452d558d1c26aa28f6d18,2020-08-10_18h47.13.562,lexical_decision_task_MP,2020.1.3,Win32,60,m,1,0.519015,,,,,,,,0.519015,1,,,,,,194,WORD,UN,33,resign,ABSENT,m,,,,,,0.310185221,-0.268518598,0,0,0,,0,177,177,133,1,
,,,,,,,,,,,,,,,,,,5f0452d558d1c26aa28f6d18,2020-08-10_18h47.13.562,lexical_decision_task_MP,2020.1.3,Win32,60,z,1,0.62195,,,,,,,,0.62195,1,,,,,,423,NW,UN,33,praile,STRELD,z,,,,,,0.310185221,-0.268518598,0,0,0,,0,178,178,362,1,
,,,,,,,,,,,,,,,,,,5f0452d558d1c26aa28f6d18,2020-08-10_18h47.13.562,lexical_decision_task_MP,2020.1.3,Win32,60,z,1,0.797965,,,,,,,,0.797965,1,,,,,,368,NW,"ID",50,hornal,HORNAL,z,,,,,,0.310185221,-0.268518598,0,0,0,,0,179,179,307,1,
,,,,,,,,,,,,,,,,,,5f0452d558d1c26aa28f6d18,2020-08-10_18h47.13.562,lexical_decision_task_MP,2020.1.3,Win32,60,z,1,0.652765,,,,,,,,0.652765,1,,,,,,273,NW,UN,50,fumblo,SORTEL,z,,,,,,0.310185221,-0.268518598,0,0,0,,0,180,180,452,1,
,,,,,,,,,,,,,,,,,,5f0452d558d1c26aa28f6d18,2020-08-10_18h47.13.562,lexical_decision_task_MP,2020.1.3,Win32,60,z,1,0.60598,,,,,,,,0.60598,1,,,,,,402,NW,"ID",50,syntic,SYNTIC,z,,,,,,0.310185221,-0.268518598,0,0,0,,0,181,181,341,1,
,,,,,,,,,,,,,,,,,,5f0452d558d1c26aa28f6d18,2020-08-10_18h47.13.562,lexical_decision_task_MP,2020.1.3,Win32,60,z,0,0.78733,,,,,,,,0.78733,0,,,,,,183,WORD,UN,33,sleazy,MILDEW,m,,,,,,0.310185221,-0.268518598,0,0,0,,0,182,182,122,1,
,,,,,,,,,,,,,,,,,,5f0452d558d1c26aa28f6d18,2020-08-10_18h47.13.562,lexical_decision_task_MP,2020.1.3,Win32,60,m,1,0.46216,,,,,,,,0.46216,1,,,,,,94,WORD,"ID",33,travel,TRAVEL,m,,,,,,0.310185221,-0.268518598,0,0,0,,0,183,183,33,1,
,,,,,,,,,,,,,,,,,,5f0452d558d1c26aa28f6d18,2020-08-10_18h47.13.562,lexical_decision_task_MP,2020.1.3,Win32,60,z,1,0.569395,,,,,,,,0.569395,1,,,,,,336,NW,"ID",33,ghodus,GHODUS,z,,,,,,0.310185221,-0.268518598,0,0,0,,0,184,184,275,1,
,,,,,,,,,,,,,,,,,,5f0452d558d1c26aa28f6d18,2020-08-10_18h47.13.562,lexical_decision_task_MP,2020.1.3,Win32,60,z,1,0.69772,,,,,,,,0.69772,1,,,,,,388,NW,"ID",50,cragin,CRAGIN,z,,,,,,0.310185221,-0.268518598,0,0,0,,0,185,185,327,1,
,,,,,,,,,,,,,,,,,,5f0452d558d1c26aa28f6d18,2020-08-10_18h47.13.562,lexical_decision_task_MP,2020.1.3,Win32,60,m,1,0.658005,,,,,,,,0.658005,1,,,,,,90,WORD,"ID",33,relish,RELISH,m,,,,,,0.310185221,-0.268518598,0,0,0,,0,186,186,29,1,
,,,,,,,,,,,,,,,,,,5f0452d558d1c26aa28f6d18,2020-08-10_18h47.13.562,lexical_decision_task_MP,2020.1.3,Win32,60,m,1,0.598945,,,,,,,,0.598945,1,,,,,,159,WORD,"ID",50,detail,DETAIL,m,,,,,,0.310185221,-0.268518598,0,0,0,,0,187,187,98,1,
,,,,,,,,,,,,,,,,,,5f0452d558d1c26aa28f6d18,2020-08-10_18h47.13.562,lexical_decision_task_MP,2020.1.3,Win32,60,m,1,0.530705,,,,,,,,0.530705,1,,,,,,13,WORD,UN,50,almost,STRIVE,m,,,,,,0.310185221,-0.268518598,0,0,0,,0,188,188,192,1,
,,,,,,,,,,,,,,,,,,5f0452d558d1c26aa28f6d18,2020-08-10_18h47.13.562,lexical_decision_task_MP,2020.1.3,Win32,60,z,1,0.64944,,,,,,,,0.64944,1,,,,,,476,NW,UN,33,photie,JOSTED,z,,,,,,0.310185221,-0.268518598,0,0,0,,0,189,189,415,1,
,,,,,,,,,,,,,,,,,,5f0452d558d1c26aa28f6d18,2020-08-10_18h47.13.562,lexical_decision_task_MP,2020.1.3,Win32,60,m,1,1.027355,,,,,,,,1.027355,1,,,,,,162,WORD,"ID",50,candle,CANDLE,m,,,,,,0.310185221,-0.268518598,0,0,0,,0,190,190,101,1,
,,,,,,,,,,,,,,,,,,5f0452d558d1c26aa28f6d18,2020-08-10_18h47.13.562,lexical_decision_task_MP,2020.1.3,Win32,60,z,1,0.48127,,,,,,,,0.48127,1,,,,,,472,NW,UN,33,gorbie,CIGNEY,z,,,,,,0.310185221,-0.268518598,0,0,0,,0,191,191,411,1,
,,,,,,,,,,,,,,,,,,5f0452d558d1c26aa28f6d18,2020-08-10_18h47.13.562,lexical_decision_task_MP,2020.1.3,Win32,60,m,1,0.55556,,,,,,,,0.55556,1,,,,,,96,WORD,"ID",33,ignore,IGNORE,m,,,,,,0.310185221,-0.268518598,0,0,0,,0,192,192,35,1,
,,,,,,,,,,,,,,,,,,5f0452d558d1c26aa28f6d18,2020-08-10_18h47.13.562,lexical_decision_task_MP,2020.1.3,Win32,60,z,1,0.51844,,,,,,,,0.51844,1,,,,,,323,NW,"ID",33,rosail,ROSAIL,z,,,,,,0.310185221,-0.268518598,0,0,0,,0,193,193,262,1,
,,,,,,,,,,,,,,,,,,5f0452d558d1c26aa28f6d18,2020-08-10_18h47.13.562,lexical_decision_task_MP,2020.1.3,Win32,60,z,1,0.76672,,,,,,,,0.76672,1,,,,,,251,NW,UN,50,stapod,LUPICT,z,,,,,,0.310185221,-0.268518598,0,0,0,,0,194,194,430,1,
,,,,,,,,,,,,,,,,,,5f0452d558d1c26aa28f6d18,2020-08-10_18h47.13.562,lexical_decision_task_MP,2020.1.3,Win32,60,z,1,0.56547,,,,,,,,0.56547,1,,,,,,389,NW,"ID",50,witmer,WITMER,z,,,,,,0.310185221,-0.268518598,0,0,0,,0,195,195,328,1,
,,,,,,,,,,,,,,,,,,5f0452d558d1c26aa28f6d18,2020-08-10_18h47.13.562,lexical_decision_task_MP,2020.1.3,Win32,60,m,1,0.56717,,,,,,,,0.56717,1,,,,,,226,WORD,UN,33,flower,CASINO,m,,,,,,0.310185221,-0.268518598,0,0,0,,0,196,196,165,1,
,,,,,,,,,,,,,,,,,,5f0452d558d1c26aa28f6d18,2020-08-10_18h47.13.562,lexical_decision_task_MP,2020.1.3,Win32,60,z,0,0.579785,,,,,,,,0.579785,0,,,,,,40,WORD,UN,50,spring,CONVEY,m,,,,,,0.310185221,-0.268518598,0,0,0,,0,197,197,219,1,
,,,,,,,,,,,,,,,,,,5f0452d558d1c26aa28f6d18,2020-08-10_18h47.13.562,lexical_decision_task_MP,2020.1.3,Win32,60,z,1,0.756455,,,,,,,,0.756455,1,,,,,,401,NW,"ID",50,mustil,MUSTIL,z,,,,,,0.310185221,-0.268518598,0,0,0,,0,198,198,340,1,
,,,,,,,,,,,,,,,,,,5f0452d558d1c26aa28f6d18,2020-08-10_18h47.13.562,lexical_decision_task_MP,2020.1.3,Win32,60,m,1,0.46748,,,,,,,,0.46748,1,,,,,,121,WORD,"ID",50,thrive,THRIVE,m,,,,,,0.310185221,-0.268518598,0,0,0,,0,199,199,60,1,
,,,,,,,,,,,,,,,,,,5f0452d558d1c26aa28f6d18,2020-08-10_18h47.13.562,lexical_decision_task_MP,2020.1.3,Win32,60,z,1,0.547585,,,,,,,,0.547585,1,,,,,,262,NW,UN,50,dolica,QUILEW,z,,,,,,0.310185221,-0.268518598,0,0,0,,0,200,200,441,1,
,,,,,,,,,,,,,,,,,,5f0452d558d1c26aa28f6d18,2020-08-10_18h47.13.562,lexical_decision_task_MP,2020.1.3,Win32,60,m,1,0.6232,,,,,,,,0.6232,1,,,,,,122,WORD,"ID",50,linger,LINGER,m,,,,,,0.310185221,-0.268518598,0,0,0,,0,201,201,61,1,
,,,,,,,,,,,,,,,,,,5f0452d558d1c26aa28f6d18,2020-08-10_18h47.13.562,lexical_decision_task_MP,2020.1.3,Win32,60,m,1,0.47457,,,,,,,,0.47457,1,,,,,,150,WORD,"ID",50,random,RANDOM,m,,,,,,0.310185221,-0.268518598,0,0,0,,0,202,202,89,1,
,,,,,,,,,,,,,,,,,,5f0452d558d1c26aa28f6d18,2020-08-10_18h47.13.562,lexical_decision_task_MP,2020.1.3,Win32,60,m,1,0.46357,,,,,,,,0.46357,1,,,,,,44,WORD,UN,50,clergy,DANGER,m,,,,,,0.310185221,-0.268518598,0,0,0,,0,203,203,223,1,
,,,,,,,,,,,,,,,,,,5f0452d558d1c26aa28f6d18,2020-08-10_18h47.13.562,lexical_decision_task_MP,2020.1.3,Win32,60,m,1,0.424375,,,,,,,,0.424375,1,,,,,,17,WORD,UN,50,humble,CHARGE,m,,,,,,0.310185221,-0.268518598,0,0,0,,0,204,204,196,1,
,,,,,,,,,,,,,,,,,,5f0452d558d1c26aa28f6d18,2020-08-10_18h47.13.562,lexical_decision_task_MP,2020.1.3,Win32,60,m,1,0.461535,,,,,,,,0.461535,1,,,,,,155,WORD,"ID",50,lizard,LIZARD,m,,,,,,0.310185221,-0.268518598,0,0,0,,0,205,205,94,1,
,,,,,,,,,,,,,,,,,,5f0452d558d1c26aa28f6d18,2020-08-10_18h47.13.562,lexical_decision_task_MP,2020.1.3,Win32,60,m,1,0.489295,,,,,,,,0.489295,1,,,,,,129,WORD,"ID",50,marvel,MARVEL,m,,,,,,0.310185221,-0.268518598,0,0,0,,0,206,206,68,1,
,,,,,,,,,,,,,,,,,,5f0452d558d1c26aa28f6d18,2020-08-10_18h47.13.562,lexical_decision_task_MP,2020.1.3,Win32,60,z,1,0.40819,,,,,,,,0.40819,1,,,,,,341,NW,"ID",33,myrtie,MYRTIE,z,,,,,,0.310185221,-0.268518598,0,0,0,,0,207,207,280,1,
,,,,,,,,,,,,,,,,,,5f0452d558d1c26aa28f6d18,2020-08-10_18h47.13.562,lexical_decision_task_MP,2020.1.3,Win32,60,m,1,0.504725,,,,,,,,0.504725,1,,,,,,218,WORD,UN,33,bucket,SHRINK,m,,,,,,0.310185221,-0.268518598,0,0,0,,0,208,208,157,1,
,,,,,,,,,,,,,,,,,,5f0452d558d1c26aa28f6d18,2020-08-10_18h47.13.562,lexical_decision_task_MP,2020.1.3,Win32,60,m,1,0.6158,,,,,,,,0.6158,1,,,,,,139,WORD,"ID",50,debris,DEBRIS,m,,,,,,0.310185221,-0.268518598,0,0,0,,0,209,209,78,1,
,,,,,,,,,,,,,,,,,,5f0452d558d1c26aa28f6d18,2020-08-10_18h47.13.562,lexical_decision_task_MP,2020.1.3,Win32,60,m,1,0.47494,,,,,,,,0.47494,1,,,,,,237,WORD,UN,33,glance,POSTER,m,,,,,,0.310185221,-0.268518598,0,0,0,,0,210,210,176,1,
,,,,,,,,,,,,,,,,,,5f0452d558d1c26aa28f6d18,2020-08-10_18h47.13.562,lexical_decision_task_MP,2020.1.3,Win32,60,m,1,0.478185,,,,,,,,0.478185,1,,,,,,66,WORD,"ID",33,gospel,GOSPEL,m,,,,,,0.310185221,-0.268518598,0,0,0,,0,211,211,5,1,
,,,,,,,,,,,,,,,,,,5f0452d558d1c26aa28f6d18,2020-08-10_18h47.13.562,lexical_decision_task_MP,2020.1.3,Win32,60,m,1,0.638325,,,,,,,,0.638325,1,,,,,,59,WORD,UN,50,pencil,SPLINT,m,,,,,,0.310185221,-0.268518598,0,0,0,,0,212,212,238,1,
,,,,,,,,,,,,,,,,,,5f0452d558d1c26aa28f6d18,2020-08-10_18h47.13.562,lexical_decision_task_MP,2020.1.3,Win32,60,m,1,0.47519,,,,,,,,0.47519,1,,,,,,91,WORD,"ID",33,expand,EXPAND,m,,,,,,0.310185221,-0.268518598,0,0,0,,0,213,213,30,1,
,,,,,,,,,,,,,,,,,,5f0452d558d1c26aa28f6d18,2020-08-10_18h47.13.562,lexical_decision_task_MP,2020.1.3,Win32,60,m,0,0.46188,,,,,,,,0.46188,0,,,,,,461,NW,UN,33,absult,JUSTRE,z,,,,,,0.310185221,-0.268518598,0,0,0,,0,214,214,400,1,
,,,,,,,,,,,,,,,,,,5f0452d558d1c26aa28f6d18,2020-08-10_18h47.13.562,lexical_decision_task_MP,2020.1.3,Win32,60,m,1,0.630665,,,,,,,,0.630665,1,,,,,,52,WORD,UN,50,police,IMPOSE,m,,,,,,0.310185221,-0.268518598,0,0,0,,0,215,215,231,1,
,,,,,,,,,,,,,,,,,,5f0452d558d1c26aa28f6d18,2020-08-10_18h47.13.562,lexical_decision_task_MP,2020.1.3,Win32,60,z,1,0.53274,,,,,,,,0.53274,1,,,,,,384,NW,"ID",50,guesco,GUESCO,z,,,,,,0.310185221,-0.268518598,0,0,0,,0,216,216,323,1,
,,,,,,,,,,,,,,,,,,5f0452d558d1c26aa28f6d18,2020-08-10_18h47.13.562,lexical_decision_task_MP,2020.1.3,Win32,60,m,1,0.62104,,,,,,,,0.62104,1,,,,,,177,WORD,"ID",50,advent,ADVENT,m,,,,,,0.310185221,-0.268518598,0,0,0,,0,217,217,116,1,
,,,,,,,,,,,,,,,,,,5f0452d558d1c26aa28f6d18,2020-08-10_18h47.13.562,lexical_decision_task_MP,2020.1.3,Win32,60,m,1,0.653015,,,,,,,,0.653015,1,,,,,,220,WORD,UN,33,mascot,VOYAGE,m,,,,,,0.310185221,-0.268518598,0,0,0,,0,218,218,159,1,
,,,,,,,,,,,,,,,,,,5f0452d558d1c26aa28f6d18,2020-08-10_18h47.13.562,lexical_decision_task_MP,2020.1.3,Win32,60,m,1,0.485325,,,,,,,,0.485325,1,,,,,,161,WORD,"ID",50,pastor,PASTOR,m,,,,,,0.310185221,-0.268518598,0,0,0,,0,219,219,100,1,
,,,,,,,,,,,,,,,,,,5f0452d558d1c26aa28f6d18,2020-08-10_18h47.13.562,lexical_decision_task_MP,2020.1.3,Win32,60,z,1,0.644485,,,,,,,,0.644485,1,,,,,,456,NW,UN,33,wanigh,BROGET,z,,,,,,0.310185221,-0.268518598,0,0,0,,0,220,220,395,1,
,,,,,,,,,,,,,,,,,,5f0452d558d1c26aa28f6d18,2020-08-10_18h47.13.562,lexical_decision_task_MP,2020.1.3,Win32,60,z,1,0.495,,,,,,,,0.495,1,,,,,,405,NW,"ID",50,flumni,FLUMNI,z,,,,,,0.310185221,-0.268518598,0,0,0,,0,221,221,344,1,
,,,,,,,,,,,,,,,,,,5f0452d558d1c26aa28f6d18,2020-08-10_18h47.13.562,lexical_decision_task_MP,2020.1.3,Win32,60,z,1,0.484735,,,,,,,,0.484735,1,,,,,,305,NW,"ID",33,forgle,FORGLE,z,,,,,,0.310185221,-0.268518598,0,0,0,,0,222,222,244,1,
,,,,,,,,,,,,,,,,,,5f0452d558d1c26aa28f6d18,2020-08-10_18h47.13.562,lexical_decision_task_MP,2020.1.3,Win32,60,z,0,0.486365,,,,,,,,0.486365,0,,,,,,181,WORD,UN,33,winter,GLANCE,m,,,,,,0.310185221,-0.268518598,0,0,0,,0,223,223,120,1,
,,,,,,,,,,,,,,,,,,5f0452d558d1c26aa28f6d18,2020-08-10_18h47.13.562,lexical_decision_task_MP,2020.1.3,Win32,60,m,1,0.416015,,,,,,,,0.416015,1,,,,,,233,WORD,UN,33,clumsy,NATURE,m,,,,,,0.310185221,-0.268518598,0,0,0,,0,224,224,172,1,
,,,,,,,,,,,,,,,,,,5f0452d558d1c26aa28f6d18,2020-08-10_18h47.13.562,lexical_decision_task_MP,2020.1.3,Win32,60,m,1,0.47867,,,,,,,,0.47867,1,,,,,,186,WORD,UN,33,course,PORTAL,m,,,,,,0.310185221,-0.268518598,0,0,0,,0,225,225,125,1,
,,,,,,,,,,,,,,,,,,5f0452d558d1c26aa28f6d18,2020-08-10_18h47.13.562,lexical_decision_task_MP,2020.1.3,Win32,60,z,1,0.561445,,,,,,,,0.561445,1,,,,,,390,NW,"ID",50,hatrus,HATRUS,z,,,,,,0.310185221,-0.268518598,0,0,0,,0,226,226,329,1,
,,,,,,,,,,,,,,,,,,5f0452d558d1c26aa28f6d18,2020-08-10_18h47.13.562,lexical_decision_task_MP,2020.1.3,Win32,60,z,1,0.48755,,,,,,,,0.48755,1,,,,,,457,NW,UN,33,barcet,WANIGH,z,,,,,,0.310185221,-0.268518598,0,0,0,,0,227,227,396,1,
,,,,,,,,,,,,,,,,,,5f0452d558d1c26aa28f6d18,2020-08-10_18h47.13.562,lexical_decision_task_MP,2020.1.3,Win32,60,m,1,0.446155,,,,,,,,0.446155,1,,,,,,143,WORD,"ID",50,reason,REASON,m,,,,,,0.310185221,-0.268518598,0,0,0,,0,228,228,82,1,
,,,,,,,,,,,,,,,,,,5f0452d558d1c26aa28f6d18,2020-08-10_18h47.13.562,lexical_decision_task_MP,2020.1.3,Win32,60,m,0,0.584795,,,,,,,,0.584795,0,,,,,,370,NW,"ID",50,sleact,SLEACT,z,,,,,,0.310185221,-0.268518598,0,0,0,,0,229,229,309,1,
,,,,,,,,,,,,,,,,,,5f0452d558d1c26aa28f6d18,2020-08-10_18h47.13.562,lexical_decision_task_MP,2020.1.3,Win32,60,z,1,0.63896,,,,,,,,0.63896,1,,,,,,379,NW,"ID",50,auting,AUTING,z,,,,,,0.310185221,-0.268518598,0,0,0,,0,230,230,318,1,
,,,,,,,,,,,,,,,,,,5f0452d558d1c26aa28f6d18,2020-08-10_18h47.13.562,lexical_decision_task_MP,2020.1.3,Win32,60,z,1,0.514835,,,,,,,,0.514835,1,,,,,,308,NW,"ID",33,psetch,PSETCH,z,,,,,,0.310185221,-0.268518598,0,0,0,,0,231,231,247,1,
,,,,,,,,,,,,,,,,,,5f0452d558d1c26aa28f6d18,2020-08-10_18h47.13.562,lexical_decision_task_MP,2020.1.3,Win32,60,m,1,0.468415,,,,,,,,0.468415,1,,,,,,36,WORD,UN,50,insult,VANISH,m,,,,,,0.310185221,-0.268518598,0,0,0,,0,232,232,215,1,
,,,,,,,,,,,,,,,,,,5f0452d558d1c26aa28f6d18,2020-08-10_18h47.13.562,lexical_decision_task_MP,2020.1.3,Win32,60,z,0,0.632025,,,,,,,,0.632025,0,,,,,,97,WORD,"ID",33,client,CLIENT,m,,,,,,0.310185221,-0.268518598,0,0,0,,0,233,233,36,1,
,,,,,,,,,,,,,,,,,,5f0452d558d1c26aa28f6d18,2020-08-10_18h47.13.562,lexical_decision_task_MP,2020.1.3,Win32,60,z,1,0.94467,,,,,,,,0.94467,1,,,,,,417,NW,"ID",50,earoud,EAROUD,z,,,,,,0.310185221,-0.268518598,0,0,0,,0,234,234,356,1,
,,,,,,,,,,,,,,,,,,5f0452d558d1c26aa28f6d18,2020-08-10_18h47.13.562,lexical_decision_task_MP,2020.1.3,Win32,60,m,1,0.4276,,,,,,,,0.4276,1,,,,,,137,WORD,"ID",50,finger,FINGER,m,,,,,,0.310185221,-0.268518598,0,0,0,,0,235,235,76,1,
,,,,,,,,,,,,,,,,,,5f0452d558d1c26aa28f6d18,2020-08-10_18h47.13.562,lexical_decision_task_MP,2020.1.3,Win32,60,m,1,0.51051,,,,,,,,0.51051,1,,,,,,197,WORD,UN,33,wicked,STREAM,m,,,,,,0.310185221,-0.268518598,0,0,0,,0,236,236,136,1,
,,,,,,,,,,,,,,,,,,5f0452d558d1c26aa28f6d18,2020-08-10_18h47.13.562,lexical_decision_task_MP,2020.1.3,Win32,60,m,1,0.626075,,,,,,,,0.626075,1,,,,,,25,WORD,UN,50,sprint,DOMAIN,m,,,,,,0.310185221,-0.268518598,0,0,0,,0,237,237,204,1,
,,,,,,,,,,,,,,,,,,5f0452d558d1c26aa28f6d18,2020-08-10_18h47.13.562,lexical_decision_task_MP,2020.1.3,Win32,60,z,1,0.464575,,,,,,,,0.464575,1,,,,,,463,NW,UN,33,chaite,KISPEL,z,,,,,,0.310185221,-0.268518598,0,0,0,,0,238,238,402,1,
,,,,,,,,,,,,,,,,,,5f0452d558d1c26aa28f6d18,2020-08-10_18h47.13.562,lexical_decision_task_MP,2020.1.3,Win32,60,z,0,0.641315,,,,,,,,0.641315,0,,,,,,1,WORD,UN,50,ethnic,FRIGHT,m,,,,,,0.310185221,-0.268518598,0,0,0,,0,239,239,180,1,
,,,,,,,,,,,,,,,,,,5f0452d558d1c26aa28f6d18,2020-08-10_18h47.13.562,lexical_decision_task_MP,2020.1.3,Win32,60,m,1,0.478895,,,,,,,,0.478895,1,,,,,,126,WORD,"ID",50,enough,ENOUGH,m,,,,,,0.310185221,-0.268518598,0,0,0,,0,240,240,65,1,
,,,,,,,,,,,,,,,,,,5f0452d558d1c26aa28f6d18,2020-08-10_18h47.13.562,lexical_decision_task_MP,2020.1.3,Win32,60,z,1,1.098925,,,,,,,,1.098925,1,,,,,,473,NW,UN,33,hablin,CRIBLE,z,,,,,,0.310185221,-0.268518598,0,0,0,space,0,241,241,412,1,12.74475
,,,,,,,,,,,,,,,,,,5f0452d558d1c26aa28f6d18,2020-08-10_18h47.13.562,lexical_decision_task_MP,2020.1.3,Win32,60,m,1,0.511405,,,,,,,,0.511405,1,,,,,,216,WORD,UN,33,liquor,BEHALF,m,,,,,,0.310185221,-0.268518598,0,0,0,,0,242,242,155,1,
,,,,,,,,,,,,,,,,,,5f0452d558d1c26aa28f6d18,2020-08-10_18h47.13.562,lexical_decision_task_MP,2020.1.3,Win32,60,m,0,0.732275,,,,,,,,0.732275,0,,,,,,460,NW,UN,33,justre,MINGAR,z,,,,,,0.310185221,-0.268518598,0,0,0,,0,243,243,399,1,
,,,,,,,,,,,,,,,,,,5f0452d558d1c26aa28f6d18,2020-08-10_18h47.13.562,lexical_decision_task_MP,2020.1.3,Win32,60,z,1,0.51695,,,,,,,,0.51695,1,,,,,,428,NW,UN,33,funtle,TANDLY,z,,,,,,0.310185221,-0.268518598,0,0,0,,0,244,244,367,1,
,,,,,,,,,,,,,,,,,,5f0452d558d1c26aa28f6d18,2020-08-10_18h47.13.562,lexical_decision_task_MP,2020.1.3,Win32,60,m,1,0.49539,,,,,,,,0.49539,1,,,,,,65,WORD,"ID",33,symbol,SYMBOL,m,,,,,,0.310185221,-0.268518598,0,0,0,,0,245,245,4,1,
,,,,,,,,,,,,,,,,,,5f0452d558d1c26aa28f6d18,2020-08-10_18h47.13.562,lexical_decision_task_MP,2020.1.3,Win32,60,m,1,0.60042,,,,,,,,0.60042,1,,,,,,48,WORD,UN,50,survey,WALNUT,m,,,,,,0.310185221,-0.268518598,0,0,0,,0,246,246,227,1,
,,,,,,,,,,,,,,,,,,5f0452d558d1c26aa28f6d18,2020-08-10_18h47.13.562,lexical_decision_task_MP,2020.1.3,Win32,60,z,1,0.501465,,,,,,,,0.501465,1,,,,,,408,NW,"ID",50,hurnia,HURNIA,z,,,,,,0.310185221,-0.268518598,0,0,0,,0,247,247,347,1,
,,,,,,,,,,,,,,,,,,5f0452d558d1c26aa28f6d18,2020-08-10_18h47.13.562,lexical_decision_task_MP,2020.1.3,Win32,60,m,1,0.525875,,,,,,,,0.525875,1,,,,,,76,WORD,"ID",33,exotic,EXOTIC,m,,,,,,0.310185221,-0.268518598,0,0,0,,0,248,248,15,1,
,,,,,,,,,,,,,,,,,,5f0452d558d1c26aa28f6d18,2020-08-10_18h47.13.562,lexical_decision_task_MP,2020.1.3,Win32,60,m,1,0.488235,,,,,,,,0.488235,1,,,,,,120,WORD,"ID",33,strain,STRAIN,m,,,,,,0.310185221,-0.268518598,0,0,0,,0,249,249,59,1,
,,,,,,,,,,,,,,,,,,5f0452d558d1c26aa28f6d18,2020-08-10_18h47.13.562,lexical_decision_task_MP,2020.1.3,Win32,60,m,1,0.46117,,,,,,,,0.46117,1,,,,,,93,WORD,"ID",33,public,PUBLIC,m,,,,,,0.310185221,-0.268518598,0,0,0,,0,250,250,32,1,
,,,,,,,,,,,,,,,,,,5f0452d558d1c26aa28f6d18,2020-08-10_18h47.13.562,lexical_decision_task_MP,2020.1.3,Win32,60,m,1,0.36173,,,,,,,,0.36173,1,,,,,,18,WORD,UN,50,patron,HUMBLE,m,,,,,,0.310185221,-0.268518598,0,0,0,,0,251,251,197,1,
,,,,,,,,,,,,,,,,,,5f0452d558d1c26aa28f6d18,2020-08-10_18h47.13.562,lexical_decision_task_MP,2020.1.3,Win32,60,m,1,0.47889,,,,,,,,0.47889,1,,,,,,230,WORD,UN,33,mother,FRINGE,m,,,,,,0.310185221,-0.268518598,0,0,0,,0,252,252,169,1,
,,,,,,,,,,,,,,,,,,5f0452d558d1c26aa28f6d18,2020-08-10_18h47.13.562,lexical_decision_task_MP,2020.1.3,Win32,60,m,1,0.43932,,,,,,,,0.43932,1,,,,,,193,WORD,UN,33,mildew,OBJECT,m,,,,,,0.310185221,-0.268518598,0,0,0,,0,253,253,132,1,
,,,,,,,,,,,,,,,,,,5f0452d558d1c26aa28f6d18,2020-08-10_18h47.13.562,lexical_decision_task_MP,2020.1.3,Win32,60,m,1,0.368145,,,,,,,,0.368145,1,,,,,,68,WORD,"ID",33,fumble,FUMBLE,m,,,,,,0.310185221,-0.268518598,0,0,0,,0,254,254,7,1,
,,,,,,,,,,,,,,,,,,5f0452d558d1c26aa28f6d18,2020-08-10_18h47.13.562,lexical_decision_task_MP,2020.1.3,Win32,60,m,1,0.41978,,,,,,,,0.41978,1,,,,,,26,WORD,UN,50,butler,SPRINT,m,,,,,,0.310185221,-0.268518598,0,0,0,,0,255,255,205,1,
,,,,,,,,,,,,,,,,,,5f0452d558d1c26aa28f6d18,2020-08-10_18h47.13.562,lexical_decision_task_MP,2020.1.3,Win32,60,z,1,0.398745,,,,,,,,0.398745,1,,,,,,278,NW,UN,50,celond,UNIGHS,z,,,,,,0.310185221,-0.268518598,0,0,0,,0,256,256,457,1,
,,,,,,,,,,,,,,,,,,5f0452d558d1c26aa28f6d18,2020-08-10_18h47.13.562,lexical_decision_task_MP,2020.1.3,Win32,60,z,1,0.398195,,,,,,,,0.398195,1,,,,,,422,NW,UN,33,streld,ALCOUD,z,,,,,,0.310185221,-0.268518598,0,0,0,,0,257,257,361,1,
,,,,,,,,,,,,,,,,,,5f0452d558d1c26aa28f6d18,2020-08-10_18h47.13.562,lexical_decision_task_MP,2020.1.3,Win32,60,m,1,0.469165,,,,,,,,0.469165,1,,,,,,39,WORD,UN,50,convey,INSECT,m,,,,,,0.310185221,-0.268518598,0,0,0,,0,258,258,218,1,
,,,,,,,,,,,,,,,,,,5f0452d558d1c26aa28f6d18,2020-08-10_18h47.13.562,lexical_decision_task_MP,2020.1.3,Win32,60,z,0,0.27912,,,,,,,,0.27912,0,,,,,,78,WORD,"ID",33,column,COLUMN,m,,,,,,0.310185221,-0.268518598,0,0,0,,0,259,259,17,1,
,,,,,,,,,,,,,,,,,,5f0452d558d1c26aa28f6d18,2020-08-10_18h47.13.562,lexical_decision_task_MP,2020.1.3,Win32,60,z,1,0.678475,,,,,,,,0.678475,1,,,,,,342,NW,"ID",33,randow,RANDOW,z,,,,,,0.310185221,-0.268518598,0,0,0,,0,260,260,281,1,
,,,,,,,,,,,,,,,,,,5f0452d558d1c26aa28f6d18,2020-08-10_18h47.13.562,lexical_decision_task_MP,2020.1.3,Win32,60,m,1,0.446955,,,,,,,,0.446955,1,,,,,,240,WORD,UN,33,seldom,FOREST,m,,,,,,0.310185221,-0.268518598,0,0,0,,0,261,261,179,1,
,,,,,,,,,,,,,,,,,,5f0452d558d1c26aa28f6d18,2020-08-10_18h47.13.562,lexical_decision_task_MP,2020.1.3,Win32,60,m,1,0.47809,,,,,,,,0.47809,1,,,,,,208,WORD,UN,33,search,HOCKEY,m,,,,,,0.310185221,-0.268518598,0,0,0,,0,262,262,147,1,
,,,,,,,,,,,,,,,,,,5f0452d558d1c26aa28f6d18,2020-08-10_18h47.13.562,lexical_decision_task_MP,2020.1.3,Win32,60,m,1,0.455545,,,,,,,,0.455545,1,,,,,,53,WORD,UN,50,ramble,POLICE,m,,,,,,0.310185221,-0.268518598,0,0,0,,0,263,263,232,1,
,,,,,,,,,,,,,,,,,,5f0452d558d1c26aa28f6d18,2020-08-10_18h47.13.562,lexical_decision_task_MP,2020.1.3,Win32,60,m,1,0.493495,,,,,,,,0.493495,1,,,,,,98,WORD,"ID",33,belong,BELONG,m,,,,,,0.310185221,-0.268518598,0,0,0,,0,264,264,37,1,
,,,,,,,,,,,,,,,,,,5f0452d558d1c26aa28f6d18,2020-08-10_18h47.13.562,lexical_decision_task_MP,2020.1.3,Win32,60,m,1,0.494775,,,,,,,,0.494775,1,,,,,,203,WORD,UN,33,burden,PHRASE,m,,,,,,0.310185221,-0.268518598,0,0,0,,0,265,265,142,1,
,,,,,,,,,,,,,,,,,,5f0452d558d1c26aa28f6d18,2020-08-10_18h47.13.562,lexical_decision_task_MP,2020.1.3,Win32,60,z,1,0.57881,,,,,,,,0.57881,1,,,,,,249,NW,UN,50,milted,BATROL,z,,,,,,0.310185221,-0.268518598,0,0,0,,0,266,266,428,1,
,,,,,,,,,,,,,,,,,,5f0452d558d1c26aa28f6d18,2020-08-10_18h47.13.562,lexical_decision_task_MP,2020.1.3,Win32,60,z,1,0.63945,,,,,,,,0.63945,1,,,,,,381,NW,"ID",50,huniek,HUNIEK,z,,,,,,0.310185221,-0.268518598,0,0,0,,0,267,267,320,1,
,,,,,,,,,,,,,,,,,,5f0452d558d1c26aa28f6d18,2020-08-10_18h47.13.562,lexical_decision_task_MP,2020.1.3,Win32,60,z,0,0.42032,,,,,,,,0.42032,0,,,,,,212,WORD,UN,33,squeal,VERIFY,m,,,,,,0.310185221,-0.268518598,0,0,0,,0,268,268,151,1,
,,,,,,,,,,,,,,,,,,5f0452d558d1c26aa28f6d18,2020-08-10_18h47.13.562,lexical_decision_task_MP,2020.1.3,Win32,60,m,1,0.480255,,,,,,,,0.480255,1,,,,,,29,WORD,UN,50,orient,SKETCH,m,,,,,,0.310185221,-0.268518598,0,0,0,,0,269,269,208,1,
,,,,,,,,,,,,,,,,,,5f0452d558d1c26aa28f6d18,2020-08-10_18h47.13.562,lexical_decision_task_MP,2020.1.3,Win32,60,m,1,0.383415,,,,,,,,0.383415,1,,,,,,165,WORD,"ID",50,invest,INVEST,m,,,,,,0.310185221,-0.268518598,0,0,0,,0,270,270,104,1,
,,,,,,,,,,,,,,,,,,5f0452d558d1c26aa28f6d18,2020-08-10_18h47.13.562,lexical_decision_task_MP,2020.1.3,Win32,60,z,1,0.56026,,,,,,,,0.56026,1,,,,,,337,NW,"ID",33,rejols,REJOLS,z,,,,,,0.310185221,-0.268518598,0,0,0,,0,271,271,276,1,
,,,,,,,,,,,,,,,,,,5f0452d558d1c26aa28f6d18,2020-08-10_18h47.13.562,lexical_decision_task_MP,2020.1.3,Win32,60,m,1,0.645135,,,,,,,,0.645135,1,,,,,,10,WORD,UN,50,cruise,ETHNIC,m,,,,,,0.310185221,-0.268518598,0,0,0,,0,272,272,189,1,
,,,,,,,,,,,,,,,,,,5f0452d558d1c26aa28f6d18,2020-08-10_18h47.13.562,lexical_decision_task_MP,2020.1.3,Win32,60,z,1,0.54671,,,,,,,,0.54671,1,,,,,,466,NW,UN,33,robuly,HOCITE,z,,,,,,0.310185221,-0.268518598,0,0,0,,0,273,273,405,1,
,,,,,,,,,,,,,,,,,,5f0452d558d1c26aa28f6d18,2020-08-10_18h47.13.562,lexical_decision_task_MP,2020.1.3,Win32,60,z,1,0.55026,,,,,,,,0.55026,1,,,,,,359,NW,"ID",33,fonver,FONVER,z,,,,,,0.310185221,-0.268518598,0,0,0,,0,274,274,298,1,
,,,,,,,,,,,,,,,,,,5f0452d558d1c26aa28f6d18,2020-08-10_18h47.13.562,lexical_decision_task_MP,2020.1.3,Win32,60,z,1,0.76448,,,,,,,,0.76448,1,,,,,,420,NW,"ID",50,gushop,GUSHOP,z,,,,,,0.310185221,-0.268518598,0,0,0,,0,275,275,359,1,
,,,,,,,,,,,,,,,,,,5f0452d558d1c26aa28f6d18,2020-08-10_18h47.13.562,lexical_decision_task_MP,2020.1.3,Win32,60,m,1,0.45509,,,,,,,,0.45509,1,,,,,,223,WORD,UN,33,period,KIDNEY,m,,,,,,0.310185221,-0.268518598,0,0,0,,0,276,276,162,1,
,,,,,,,,,,,,,,,,,,5f0452d558d1c26aa28f6d18,2020-08-10_18h47.13.562,lexical_decision_task_MP,2020.1.3,Win32,60,z,1,0.728155,,,,,,,,0.728155,1,,,,,,469,NW,UN,33,crudio,PADIFS,z,,,,,,0.310185221,-0.268518598,0,0,0,,0,277,277,408,1,
,,,,,,,,,,,,,,,,,,5f0452d558d1c26aa28f6d18,2020-08-10_18h47.13.562,lexical_decision_task_MP,2020.1.3,Win32,60,m,1,0.79827,,,,,,,,0.79827,1,,,,,,239,WORD,UN,33,forest,LUMBER,m,,,,,,0.310185221,-0.268518598,0,0,0,,0,278,278,178,1,
,,,,,,,,,,,,,,,,,,5f0452d558d1c26aa28f6d18,2020-08-10_18h47.13.562,lexical_decision_task_MP,2020.1.3,Win32,60,z,1,0.730255,,,,,,,,0.730255,1,,,,,,438,NW,UN,33,limpor,BAITCH,z,,,,,,0.310185221,-0.268518598,0,0,0,,0,279,279,377,1,
,,,,,,,,,,,,,,,,,,5f0452d558d1c26aa28f6d18,2020-08-10_18h47.13.562,lexical_decision_task_MP,2020.1.3,Win32,60,m,1,0.4951,,,,,,,,0.4951,1,,,,,,238,WORD,UN,33,behalf,FLOWER,m,,,,,,0.310185221,-0.268518598,0,0,0,,0,280,280,177,1,
,,,,,,,,,,,,,,,,,,5f0452d558d1c26aa28f6d18,2020-08-10_18h47.13.562,lexical_decision_task_MP,2020.1.3,Win32,60,z,1,0.71186,,,,,,,,0.71186,1,,,,,,294,NW,UN,50,gleath,INHORT,z,,,,,,0.310185221,-0.268518598,0,0,0,,0,281,281,473,1,
,,,,,,,,,,,,,,,,,,5f0452d558d1c26aa28f6d18,2020-08-10_18h47.13.562,lexical_decision_task_MP,2020.1.3,Win32,60,z,1,0.75553,,,,,,,,0.75553,1,,,,,,355,NW,"ID",33,zingly,ZINGLY,z,,,,,,0.310185221,-0.268518598,0,0,0,,0,282,282,294,1,
,,,,,,,,,,,,,,,,,,5f0452d558d1c26aa28f6d18,2020-08-10_18h47.13.562,lexical_decision_task_MP,2020.1.3,Win32,60,z,1,0.62599,,,,,,,,0.62599,1,,,,,,281,NW,UN,50,porlex,MELATY,z,,,,,,0.310185221,-0.268518598,0,0,0,,0,283,283,460,1,
,,,,,,,,,,,,,,,,,,5f0452d558d1c26aa28f6d18,2020-08-10_18h47.13.562,lexical_decision_task_MP,2020.1.3,Win32,60,m,1,0.53948,,,,,,,,0.53948,1,,,,,,27,WORD,UN,50,comedy,SCREAM,m,,,,,,0.310185221,-0.268518598,0,0,0,,0,284,284,206,1,
,,,,,,,,,,,,,,,,,,5f0452d558d1c26aa28f6d18,2020-08-10_18h47.13.562,lexical_decision_task_MP,2020.1.3,Win32,60,z,1,0.805155,,,,,,,,0.805155,1,,,,,,324,NW,"ID",33,steikh,STEIKH,z,,,,,,0.310185221,-0.268518598,0,0,0,,0,285,285,263,1,
,,,,,,,,,,,,,,,,,,5f0452d558d1c26aa28f6d18,2020-08-10_18h47.13.562,lexical_decision_task_MP,2020.1.3,Win32,60,z,1,0.54512,,,,,,,,0.54512,1,,,,,,446,NW,UN,33,gircue,RUNAMO,z,,,,,,0.310185221,-0.268518598,0,0,0,,0,286,286,385,1,
,,,,,,,,,,,,,,,,,,5f0452d558d1c26aa28f6d18,2020-08-10_18h47.13.562,lexical_decision_task_MP,2020.1.3,Win32,60,m,1,0.54579,,,,,,,,0.54579,1,,,,,,154,WORD,"ID",50,author,AUTHOR,m,,,,,,0.310185221,-0.268518598,0,0,0,,0,287,287,93,1,
,,,,,,,,,,,,,,,,,,5f0452d558d1c26aa28f6d18,2020-08-10_18h47.13.562,lexical_decision_task_MP,2020.1.3,Win32,60,z,1,0.779735,,,,,,,,0.779735,1,,,,,,256,NW,UN,50,veniod,INLORS,z,,,,,,0.310185221,-0.268518598,0,0,0,,0,288,288,435,1,
,,,,,,,,,,,,,,,,,,5f0452d558d1c26aa28f6d18,2020-08-10_18h47.13.562,lexical_decision_task_MP,2020.1.3,Win32,60,m,1,0.944785,,,,,,,,0.944785,1,,,,,,37,WORD,UN,50,powder,INSULT,m,,,,,,0.310185221,-0.268518598,0,0,0,,0,289,289,216,1,
,,,,,,,,,,,,,,,,,,5f0452d558d1c26aa28f6d18,2020-08-10_18h47.13.562,lexical_decision_task_MP,2020.1.3,Win32,60,m,1,0.621075,,,,,,,,0.621075,1,,,,,,192,WORD,UN,33,object,PLAGUE,m,,,,,,0.310185221,-0.268518598,0,0,0,,0,290,290,131,1,
,,,,,,,,,,,,,,,,,,5f0452d558d1c26aa28f6d18,2020-08-10_18h47.13.562,lexical_decision_task_MP,2020.1.3,Win32,60,z,1,0.666525,,,,,,,,0.666525,1,,,,,,361,NW,"ID",50,pauche,PAUCHE,z,,,,,,0.310185221,-0.268518598,0,0,0,,0,291,291,300,1,
,,,,,,,,,,,,,,,,,,5f0452d558d1c26aa28f6d18,2020-08-10_18h47.13.562,lexical_decision_task_MP,2020.1.3,Win32,60,z,1,0.628285,,,,,,,,0.628285,1,,,,,,298,NW,UN,50,sturch,PIERGY,z,,,,,,0.310185221,-0.268518598,0,0,0,,0,292,292,477,1,
,,,,,,,,,,,,,,,,,,5f0452d558d1c26aa28f6d18,2020-08-10_18h47.13.562,lexical_decision_task_MP,2020.1.3,Win32,60,z,1,0.64476,,,,,,,,0.64476,1,,,,,,412,NW,"ID",50,jiluer,JILUER,z,,,,,,0.310185221,-0.268518598,0,0,0,,0,293,293,351,1,
,,,,,,,,,,,,,,,,,,5f0452d558d1c26aa28f6d18,2020-08-10_18h47.13.562,lexical_decision_task_MP,2020.1.3,Win32,60,m,0,0.45207,,,,,,,,0.45207,0,,,,,,449,NW,UN,33,phrect,BRUNGE,z,,,,,,0.310185221,-0.268518598,0,0,0,,0,294,294,388,1,
,,,,,,,,,,,,,,,,,,5f0452d558d1c26aa28f6d18,2020-08-10_18h47.13.562,lexical_decision_task_MP,2020.1.3,Win32,60,m,1,0.48989,,,,,,,,0.48989,1,,,,,,69,WORD,"ID",33,plenty,PLENTY,m,,,,,,0.310185221,-0.268518598,0,0,0,,0,295,295,8,1,
,,,,,,,,,,,,,,,,,,5f0452d558d1c26aa28f6d18,2020-08-10_18h47.13.562,lexical_decision_task_MP,2020.1.3,Win32,60,z,1,0.77866,,,,,,,,0.77866,1,,,,,,288,NW,UN,50,starby,YACEUP,z,,,,,,0.310185221,-0.268518598,0,0,0,,0,296,296,467,1,
,,,,,,,,,,,,,,,,,,5f0452d558d1c26aa28f6d18,2020-08-10_18h47.13.562,lexical_decision_task_MP,2020.1.3,Win32,60,z,1,0.711775,,,,,,,,0.711775,1,,,,,,260,NW,UN,50,stunch,UNJECT,z,,,,,,0.310185221,-0.268518598,0,0,0,,0,297,297,439,1,
,,,,,,,,,,,,,,,,,,5f0452d558d1c26aa28f6d18,2020-08-10_18h47.13.562,lexical_decision_task_MP,2020.1.3,Win32,60,m,1,0.513635,,,,,,,,0.513635,1,,,,,,79,WORD,"ID",33,theory,THEORY,m,,,,,,0.310185221,-0.268518598,0,0,0,,0,298,298,18,1,
,,,,,,,,,,,,,,,,,,5f0452d558d1c26aa28f6d18,2020-08-10_18h47.13.562,lexical_decision_task_MP,2020.1.3,Win32,60,m,1,0.48087,,,,,,,,0.48087,1,,,,,,191,WORD,UN,33,beacon,STABLE,m,,,,,,0.310185221,-0.268518598,0,0,0,,0,299,299,130,1,
,,,,,,,,,,,,,,,,,,5f0452d558d1c26aa28f6d18,2020-08-10_18h47.13.562,lexical_decision_task_MP,2020.1.3,Win32,60,z,1,0.755695,,,,,,,,0.755695,1,,,,,,265,NW,UN,50,varmit,DISTAR,z,,,,,,0.310185221,-0.268518598,0,0,0,,0,300,300,444,1,
,,,,,,,,,,,,,,,,,,5f0452d558d1c26aa28f6d18,2020-08-10_18h47.13.562,lexical_decision_task_MP,2020.1.3,Win32,60,z,1,0.545705,,,,,,,,0.545705,1,,,,,,471,NW,UN,33,cigney,NOBEST,z,,,,,,0.310185221,-0.268518598,0,0,0,,0,301,301,410,1,
,,,,,,,,,,,,,,,,,,5f0452d558d1c26aa28f6d18,2020-08-10_18h47.13.562,lexical_decision_task_MP,2020.1.3,Win32,60,z,0,0.519965,,,,,,,,0.519965,0,,,,,,184,WORD,UN,33,bother,SLEAZY,m,,,,,,0.310185221,-0.268518598,0,0,0,,0,302,302,123,1,
,,,,,,,,,,,,,,,,,,5f0452d558d1c26aa28f6d18,2020-08-10_18h47.13.562,lexical_decision_task_MP,2020.1.3,Win32,60,m,1,0.38607,,,,,,,,0.38607,1,,,,,,123,WORD,"ID",50,strike,STRIKE,m,,,,,,0.310185221,-0.268518598,0,0,0,,0,303,303,62,1,
,,,,,,,,,,,,,,,,,,5f0452d558d1c26aa28f6d18,2020-08-10_18h47.13.562,lexical_decision_task_MP,2020.1.3,Win32,60,z,1,0.623335,,,,,,,,0.623335,1,,,,,,276,NW,UN,50,petain,YARMON,z,,,,,,0.310185221,-0.268518598,0,0,0,,0,304,304,455,1,
,,,,,,,,,,,,,,,,,,5f0452d558d1c26aa28f6d18,2020-08-10_18h47.13.562,lexical_decision_task_MP,2020.1.3,Win32,60,m,1,0.436995,,,,,,,,0.436995,1,,,,,,167,WORD,"ID",50,design,DESIGN,m,,,,,,0.310185221,-0.268518598,0,0,0,,0,305,305,106,1,
,,,,,,,,,,,,,,,,,,5f0452d558d1c26aa28f6d18,2020-08-10_18h47.13.562,lexical_decision_task_MP,2020.1.3,Win32,60,z,0,0.497045,,,,,,,,0.497045,0,,,,,,86,WORD,"ID",33,rodent,RODENT,m,,,,,,0.310185221,-0.268518598,0,0,0,,0,306,306,25,1,
,,,,,,,,,,,,,,,,,,5f0452d558d1c26aa28f6d18,2020-08-10_18h47.13.562,lexical_decision_task_MP,2020.1.3,Win32,60,m,1,0.629995,,,,,,,,0.629995,1,,,,,,43,WORD,UN,50,foster,TONGUE,m,,,,,,0.310185221,-0.268518598,0,0,0,,0,307,307,222,1,
,,,,,,,,,,,,,,,,,,5f0452d558d1c26aa28f6d18,2020-08-10_18h47.13.562,lexical_decision_task_MP,2020.1.3,Win32,60,m,1,0.612025,,,,,,,,0.612025,1,,,,,,35,WORD,UN,50,vanish,SOCKET,m,,,,,,0.310185221,-0.268518598,0,0,0,,0,308,308,214,1,
,,,,,,,,,,,,,,,,,,5f0452d558d1c26aa28f6d18,2020-08-10_18h47.13.562,lexical_decision_task_MP,2020.1.3,Win32,60,z,1,0.6721,,,,,,,,0.6721,1,,,,,,372,NW,"ID",50,ramily,RAMILY,z,,,,,,0.310185221,-0.268518598,0,0,0,,0,309,309,311,1,
,,,,,,,,,,,,,,,,,,5f0452d558d1c26aa28f6d18,2020-08-10_18h47.13.562,lexical_decision_task_MP,2020.1.3,Win32,60,m,0,0.611975,,,,,,,,0.611975,0,,,,,,462,NW,UN,33,kispel,ABSULT,z,,,,,,0.310185221,-0.268518598,0,0,0,,0,310,310,401,1,
,,,,,,,,,,,,,,,,,,5f0452d558d1c26aa28f6d18,2020-08-10_18h47.13.562,lexical_decision_task_MP,2020.1.3,Win32,60,z,1,0.520305,,,,,,,,0.520305,1,,,,,,429,NW,UN,33,caroey,FUNTLE,z,,,,,,0.310185221,-0.268518598,0,0,0,,0,311,311,368,1,
,,,,,,,,,,,,,,,,,,5f0452d558d1c26aa28f6d18,2020-08-10_18h47.13.562,lexical_decision_task_MP,2020.1.3,Win32,60,z,0,0.566755,,,,,,,,0.566755,0,,,,,,142,WORD,"ID",50,spruce,SPRUCE,m,,,,,,0.310185221,-0.268518598,0,0,0,,0,312,312,81,1,
,,,,,,,,,,,,,,,,,,5f0452d558d1c26aa28f6d18,2020-08-10_18h47.13.562,lexical_decision_task_MP,2020.1.3,Win32,60,z,1,0.56157,,,,,,,,0.56157,1,,,,,,362,NW,"ID",50,tireau,TIREAU,z,,,,,,0.310185221,-0.268518598,0,0,0,,0,313,313,301,1,
,,,,,,,,,,,,,,,,,,5f0452d558d1c26aa28f6d18,2020-08-10_18h47.13.562,lexical_decision_task_MP,2020.1.3,Win32,60,m,1,0.51273,,,,,,,,0.51273,1,,,,,,157,WORD,"ID",50,dragon,DRAGON,m,,,,,,0.310185221,-0.268518598,0,0,0,,0,314,314,96,1,
,,,,,,,,,,,,,,,,,,5f0452d558d1c26aa28f6d18,2020-08-10_18h47.13.562,lexical_decision_task_MP,2020.1.3,Win32,60,m,1,0.369055,,,,,,,,0.369055,1,,,,,,178,WORD,"ID",50,inform,INFORM,m,,,,,,0.310185221,-0.268518598,0,0,0,,0,315,315,117,1,
,,,,,,,,,,,,,,,,,,5f0452d558d1c26aa28f6d18,2020-08-10_18h47.13.562,lexical_decision_task_MP,2020.1.3,Win32,60,z,1,0.76562,,,,,,,,0.76562,1,,,,,,322,NW,"ID",33,slanch,SLANCH,z,,,,,,0.310185221,-0.268518598,0,0,0,,0,316,316,261,1,
,,,,,,,,,,,,,,,,,,5f0452d558d1c26aa28f6d18,2020-08-10_18h47.13.562,lexical_decision_task_MP,2020.1.3,Win32,60,z,1,0.628535,,,,,,,,0.628535,1,,,,,,358,NW,"ID",33,fleack,FLEACK,z,,,,,,0.310185221,-0.268518598,0,0,0,,0,317,317,297,1,
,,,,,,,,,,,,,,,,,,5f0452d558d1c26aa28f6d18,2020-08-10_18h47.13.562,lexical_decision_task_MP,2020.1.3,Win32,60,m,1,0.473985,,,,,,,,0.473985,1,,,,,,187,WORD,UN,33,social,COURSE,m,,,,,,0.310185221,-0.268518598,0,0,0,,0,318,318,126,1,
,,,,,,,,,,,,,,,,,,5f0452d558d1c26aa28f6d18,2020-08-10_18h47.13.562,lexical_decision_task_MP,2020.1.3,Win32,60,m,1,0.431275,,,,,,,,0.431275,1,,,,,,175,WORD,"ID",50,fabric,FABRIC,m,,,,,,0.310185221,-0.268518598,0,0,0,,0,319,319,114,1,
,,,,,,,,,,,,,,,,,,5f0452d558d1c26aa28f6d18,2020-08-10_18h47.13.562,lexical_decision_task_MP,2020.1.3,Win32,60,z,1,0.46439,,,,,,,,0.46439,1,,,,,,426,NW,UN,33,schind,URIVEL,z,,,,,,0.310185221,-0.268518598,0,0,0,,0,320,320,365,1,
,,,,,,,,,,,,,,,,,,5f0452d558d1c26aa28f6d18,2020-08-10_18h47.13.562,lexical_decision_task_MP,2020.1.3,Win32,60,m,1,0.453515,,,,,,,,0.453515,1,,,,,,190,WORD,UN,33,stable,BACKUP,m,,,,,,0.310185221,-0.268518598,0,0,0,,0,321,321,129,1,
,,,,,,,,,,,,,,,,,,5f0452d558d1c26aa28f6d18,2020-08-10_18h47.13.562,lexical_decision_task_MP,2020.1.3,Win32,60,m,1,0.63052,,,,,,,,0.63052,1,,,,,,215,WORD,UN,33,lumber,PHOBIA,m,,,,,,0.310185221,-0.268518598,0,0,0,,0,322,322,154,1,
,,,,,,,,,,,,,,,,,,5f0452d558d1c26aa28f6d18,2020-08-10_18h47.13.562,lexical_decision_task_MP,2020.1.3,Win32,60,z,1,0.561885,,,,,,,,0.561885,1,,,,,,242,NW,UN,50,musied,UNWERT,z,,,,,,0.310185221,-0.268518598,0,0,0,,0,323,323,421,1,
,,,,,,,,,,,,,,,,,,5f0452d558d1c26aa28f6d18,2020-08-10_18h47.13.562,lexical_decision_task_MP,2020.1.3,Win32,60,z,1,0.639225,,,,,,,,0.639225,1,,,,,,382,NW,"ID",50,sarley,SARLEY,z,,,,,,0.310185221,-0.268518598,0,0,0,,0,324,324,321,1,
,,,,,,,,,,,,,,,,,,5f0452d558d1c26aa28f6d18,2020-08-10_18h47.13.562,lexical_decision_task_MP,2020.1.3,Win32,60,m,1,0.39554,,,,,,,,0.39554,1,,,,,,136,WORD,"ID",50,bleach,BLEACH,m,,,,,,0.310185221,-0.268518598,0,0,0,,0,325,325,75,1,
,,,,,,,,,,,,,,,,,,5f0452d558d1c26aa28f6d18,2020-08-10_18h47.13.562,lexical_decision_task_MP,2020.1.3,Win32,60,m,1,0.454765,,,,,,,,0.454765,1,,,,,,151,WORD,"ID",50,mystic,MYSTIC,m,,,,,,0.310185221,-0.268518598,0,0,0,,0,326,326,90,1,
,,,,,,,,,,,,,,,,,,5f0452d558d1c26aa28f6d18,2020-08-10_18h47.13.562,lexical_decision_task_MP,2020.1.3,Win32,60,z,1,0.446005,,,,,,,,0.446005,1,,,,,,270,NW,UN,50,aubrid,WRIMSY,z,,,,,,0.310185221,-0.268518598,0,0,0,,0,327,327,449,1,
,,,,,,,,,,,,,,,,,,5f0452d558d1c26aa28f6d18,2020-08-10_18h47.13.562,lexical_decision_task_MP,2020.1.3,Win32,60,m,1,0.484465,,,,,,,,0.484465,1,,,,,,200,WORD,UN,33,admire,BEACON,m,,,,,,0.310185221,-0.268518598,0,0,0,,0,328,328,139,1,
,,,,,,,,,,,,,,,,,,5f0452d558d1c26aa28f6d18,2020-08-10_18h47.13.562,lexical_decision_task_MP,2020.1.3,Win32,60,z,1,0.482155,,,,,,,,0.482155,1,,,,,,245,NW,UN,50,piaton,ANOUGS,z,,,,,,0.310185221,-0.268518598,0,0,0,,0,329,329,424,1,
,,,,,,,,,,,,,,,,,,5f0452d558d1c26aa28f6d18,2020-08-10_18h47.13.562,lexical_decision_task_MP,2020.1.3,Win32,60,z,1,0.5066,,,,,,,,0.5066,1,,,,,,282,NW,UN,50,veralf,PORLEX,z,,,,,,0.310185221,-0.268518598,0,0,0,,0,330,330,461,1,
,,,,,,,,,,,,,,,,,,5f0452d558d1c26aa28f6d18,2020-08-10_18h47.13.562,lexical_decision_task_MP,2020.1.3,Win32,60,z,1,0.538205,,,,,,,,0.538205,1,,,,,,479,NW,UN,33,crible,LOBUSH,z,,,,,,0.310185221,-0.268518598,0,0,0,,0,331,331,418,1,
,,,,,,,,,,,,,,,,,,5f0452d558d1c26aa28f6d18,2020-08-10_18h47.13.562,lexical_decision_task_MP,2020.1.3,Win32,60,z,1,0.53218,,,,,,,,0.53218,1,,,,,,441,NW,UN,33,aboune,RASTOE,z,,,,,,0.310185221,-0.268518598,0,0,0,,0,332,332,380,1,
,,,,,,,,,,,,,,,,,,5f0452d558d1c26aa28f6d18,2020-08-10_18h47.13.562,lexical_decision_task_MP,2020.1.3,Win32,60,z,1,0.734925,,,,,,,,0.734925,1,,,,,,433,NW,UN,33,pitrom,DRANCE,z,,,,,,0.310185221,-0.268518598,0,0,0,,0,333,333,372,1,
,,,,,,,,,,,,,,,,,,5f0452d558d1c26aa28f6d18,2020-08-10_18h47.13.562,lexical_decision_task_MP,2020.1.3,Win32,60,z,1,0.481125,,,,,,,,0.481125,1,,,,,,321,NW,"ID",33,miator,MIATOR,z,,,,,,0.310185221,-0.268518598,0,0,0,,0,334,334,260,1,
,,,,,,,,,,,,,,,,,,5f0452d558d1c26aa28f6d18,2020-08-10_18h47.13.562,lexical_decision_task_MP,2020.1.3,Win32,60,z,1,0.44832,,,,,,,,0.44832,1,,,,,,403,NW,"ID",50,bruats,BRUATS,z,,,,,,0.310185221,-0.268518598,0,0,0,,0,335,335,342,1,
,,,,,,,,,,,,,,,,,,5f0452d558d1c26aa28f6d18,2020-08-10_18h47.13.562,lexical_decision_task_MP,2020.1.3,Win32,60,z,1,0.45801,,,,,,,,0.45801,1,,,,,,440,NW,UN,33,rastoe,SARIDE,z,,,,,,0.310185221,-0.268518598,0,0,0,,0,336,336,379,1,
,,,,,,,,,,,,,,,,,,5f0452d558d1c26aa28f6d18,2020-08-10_18h47.13.562,lexical_decision_task_MP,2020.1.3,Win32,60,m,1,0.43627,,,,,,,,0.43627,1,,,,,,110,WORD,"ID",33,polite,POLITE,m,,,,,,0.310185221,-0.268518598,0,0,0,,0,337,337,49,1,
,,,,,,,,,,,,,,,,,,5f0452d558d1c26aa28f6d18,2020-08-10_18h47.13.562,lexical_decision_task_MP,2020.1.3,Win32,60,m,1,0.395935,,,,,,,,0.395935,1,,,,,,71,WORD,"ID",33,garden,GARDEN,m,,,,,,0.310185221,-0.268518598,0,0,0,,0,338,338,10,1,
,,,,,,,,,,,,,,,,,,5f0452d558d1c26aa28f6d18,2020-08-10_18h47.13.562,lexical_decision_task_MP,2020.1.3,Win32,60,z,0,0.39564,,,,,,,,0.39564,0,,,,,,70,WORD,"ID",33,square,SQUARE,m,,,,,,0.310185221,-0.268518598,0,0,0,,0,339,339,9,1,
,,,,,,,,,,,,,,,,,,5f0452d558d1c26aa28f6d18,2020-08-10_18h47.13.562,lexical_decision_task_MP,2020.1.3,Win32,60,z,1,0.602855,,,,,,,,0.602855,1,,,,,,326,NW,"ID",33,iguade,IGUADE,z,,,,,,0.310185221,-0.268518598,0,0,0,,0,340,340,265,1,
,,,,,,,,,,,,,,,,,,5f0452d558d1c26aa28f6d18,2020-08-10_18h47.13.562,lexical_decision_task_MP,2020.1.3,Win32,60,z,1,0.54468,,,,,,,,0.54468,1,,,,,,400,NW,"ID",50,wearox,WEAROX,z,,,,,,0.310185221,-0.268518598,0,0,0,,0,341,341,339,1,
,,,,,,,,,,,,,,,,,,5f0452d558d1c26aa28f6d18,2020-08-10_18h47.13.562,lexical_decision_task_MP,2020.1.3,Win32,60,m,0,0.4971,,,,,,,,0.4971,0,,,,,,425,NW,UN,33,urivel,FRUDGE,z,,,,,,0.310185221,-0.268518598,0,0,0,,0,342,342,364,1,
,,,,,,,,,,,,,,,,,,5f0452d558d1c26aa28f6d18,2020-08-10_18h47.13.562,lexical_decision_task_MP,2020.1.3,Win32,60,z,1,0.530195,,,,,,,,0.530195,1,,,,,,436,NW,UN,33,snapel,FRUTAN,z,,,,,,0.310185221,-0.268518598,0,0,0,,0,343,343,375,1,
,,,,,,,,,,,,,,,,,,5f0452d558d1c26aa28f6d18,2020-08-10_18h47.13.562,lexical_decision_task_MP,2020.1.3,Win32,60,z,1,0.491065,,,,,,,,0.491065,1,,,,,,327,NW,"ID",33,plenac,PLENAC,z,,,,,,0.310185221,-0.268518598,0,0,0,,0,344,344,266,1,
,,,,,,,,,,,,,,,,,,5f0452d558d1c26aa28f6d18,2020-08-10_18h47.13.562,lexical_decision_task_MP,2020.1.3,Win32,60,z,1,0.5896,,,,,,,,0.5896,1,,,,,,304,NW,"ID",33,cludie,CLUDIE,z,,,,,,0.310185221,-0.268518598,0,0,0,,0,345,345,243,1,
,,,,,,,,,,,,,,,,,,5f0452d558d1c26aa28f6d18,2020-08-10_18h47.13.562,lexical_decision_task_MP,2020.1.3,Win32,60,z,1,0.518445,,,,,,,,0.518445,1,,,,,,296,NW,UN,50,fertic,BEINCH,z,,,,,,0.310185221,-0.268518598,0,0,0,,0,346,346,475,1,
,,,,,,,,,,,,,,,,,,5f0452d558d1c26aa28f6d18,2020-08-10_18h47.13.562,lexical_decision_task_MP,2020.1.3,Win32,60,m,1,0.532925,,,,,,,,0.532925,1,,,,,,5,WORD,UN,50,bundle,PLUNGE,m,,,,,,0.310185221,-0.268518598,0,0,0,,0,347,347,184,1,
,,,,,,,,,,,,,,,,,,5f0452d558d1c26aa28f6d18,2020-08-10_18h47.13.562,lexical_decision_task_MP,2020.1.3,Win32,60,m,1,0.529915,,,,,,,,0.529915,1,,,,,,24,WORD,UN,50,domain,PRAISE,m,,,,,,0.310185221,-0.268518598,0,0,0,,0,348,348,203,1,
,,,,,,,,,,,,,,,,,,5f0452d558d1c26aa28f6d18,2020-08-10_18h47.13.562,lexical_decision_task_MP,2020.1.3,Win32,60,z,1,0.87623,,,,,,,,0.87623,1,,,,,,314,NW,"ID",33,sprine,SPRINE,z,,,,,,0.310185221,-0.268518598,0,0,0,,0,349,349,253,1,
,,,,,,,,,,,,,,,,,,5f0452d558d1c26aa28f6d18,2020-08-10_18h47.13.562,lexical_decision_task_MP,2020.1.3,Win32,60,m,1,0.51095,,,,,,,,0.51095,1,,,,,,12,WORD,UN,50,strive,ORANGE,m,,,,,,0.310185221,-0.268518598,0,0,0,,0,350,350,191,1,
,,,,,,,,,,,,,,,,,,5f0452d558d1c26aa28f6d18,2020-08-10_18h47.13.562,lexical_decision_task_MP,2020.1.3,Win32,60,z,1,0.529045,,,,,,,,0.529045,1,,,,,,279,NW,UN,50,curbol,CELOND,z,,,,,,0.310185221,-0.268518598,0,0,0,,0,351,351,458,1,
,,,,,,,,,,,,,,,,,,5f0452d558d1c26aa28f6d18,2020-08-10_18h47.13.562,lexical_decision_task_MP,2020.1.3,Win32,60,m,1,0.62828,,,,,,,,0.62828,1,,,,,,54,WORD,UN,50,stroke,RAMBLE,m,,,,,,0.310185221,-0.268518598,0,0,0,,0,352,352,233,1,
,,,,,,,,,,,,,,,,,,5f0452d558d1c26aa28f6d18,2020-08-10_18h47.13.562,lexical_decision_task_MP,2020.1.3,Win32,60,m,1,0.58953,,,,,,,,0.58953,1,,,,,,135,WORD,"ID",50,import,IMPORT,m,,,,,,0.310185221,-0.268518598,0,0,0,,0,353,353,74,1,
,,,,,,,,,,,,,,,,,,5f0452d558d1c26aa28f6d18,2020-08-10_18h47.13.562,lexical_decision_task_MP,2020.1.3,Win32,60,z,1,0.78325,,,,,,,,0.78325,1,,,,,,261,NW,UN,50,quilew,STUNCH,z,,,,,,0.310185221,-0.268518598,0,0,0,,0,354,354,440,1,
,,,,,,,,,,,,,,,,,,5f0452d558d1c26aa28f6d18,2020-08-10_18h47.13.562,lexical_decision_task_MP,2020.1.3,Win32,60,m,1,0.54582,,,,,,,,0.54582,1,,,,,,113,WORD,"ID",33,chorus,CHORUS,m,,,,,,0.310185221,-0.268518598,0,0,0,,0,355,355,52,1,
,,,,,,,,,,,,,,,,,,5f0452d558d1c26aa28f6d18,2020-08-10_18h47.13.562,lexical_decision_task_MP,2020.1.3,Win32,60,m,1,0.44451,,,,,,,,0.44451,1,,,,,,138,WORD,"ID",50,melody,MELODY,m,,,,,,0.310185221,-0.268518598,0,0,0,,0,356,356,77,1,
,,,,,,,,,,,,,,,,,,5f0452d558d1c26aa28f6d18,2020-08-10_18h47.13.562,lexical_decision_task_MP,2020.1.3,Win32,60,z,1,0.46173,,,,,,,,0.46173,1,,,,,,385,NW,"ID",50,veigma,VEIGMA,z,,,,,,0.310185221,-0.268518598,0,0,0,,0,357,357,324,1,
,,,,,,,,,,,,,,,,,,5f0452d558d1c26aa28f6d18,2020-08-10_18h47.13.562,lexical_decision_task_MP,2020.1.3,Win32,60,z,1,0.561645,,,,,,,,0.561645,1,,,,,,295,NW,UN,50,beinch,GLEATH,z,,,,,,0.310185221,-0.268518598,0,0,0,,0,358,358,474,1,
,,,,,,,,,,,,,,,,,,5f0452d558d1c26aa28f6d18,2020-08-10_18h47.13.562,lexical_decision_task_MP,2020.1.3,Win32,60,m,1,0.41139,,,,,,,,0.41139,1,,,,,,179,WORD,"ID",50,basket,BASKET,m,,,,,,0.310185221,-0.268518598,0,0,0,,0,359,359,118,1,
,,,,,,,,,,,,,,,,,,5f0452d558d1c26aa28f6d18,2020-08-10_18h47.13.562,lexical_decision_task_MP,2020.1.3,Win32,60,z,1,0.562905,,,,,,,,0.562905,1,,,,,,306,NW,"ID",33,sounge,SOUNGE,z,,,,,,0.310185221,-0.268518598,0,0,0,,0,360,360,245,1,
,,,,,,,,,,,,,,,,,,5f0452d558d1c26aa28f6d18,2020-08-10_18h47.13.562,lexical_decision_task_MP,2020.1.3,Win32,60,z,1,0.528945,,,,,,,,0.528945,1,,,,,,349,NW,"ID",33,asylen,ASYLEN,z,,,,,,0.310185221,-0.268518598,0,0,0,,0,361,361,288,1,
,,,,,,,,,,,,,,,,,,5f0452d558d1c26aa28f6d18,2020-08-10_18h47.13.562,lexical_decision_task_MP,2020.1.3,Win32,60,m,1,0.4715,,,,,,,,0.4715,1,,,,,,149,WORD,"ID",50,invade,INVADE,m,,,,,,0.310185221,-0.268518598,0,0,0,space,0,362,362,88,1,7.364625
,,,,,,,,,,,,,,,,,,5f0452d558d1c26aa28f6d18,2020-08-10_18h47.13.562,lexical_decision_task_MP,2020.1.3,Win32,60,m,1,0.440615,,,,,,,,0.440615,1,,,,,,156,WORD,"ID",50,cradle,CRADLE,m,,,,,,0.310185221,-0.268518598,0,0,0,,0,363,363,95,1,
,,,,,,,,,,,,,,,,,,5f0452d558d1c26aa28f6d18,2020-08-10_18h47.13.562,lexical_decision_task_MP,2020.1.3,Win32,60,m,1,0.323105,,,,,,,,0.323105,1,,,,,,152,WORD,"ID",50,rocket,ROCKET,m,,,,,,0.310185221,-0.268518598,0,0,0,,0,364,364,91,1,
,,,,,,,,,,,,,,,,,,5f0452d558d1c26aa28f6d18,2020-08-10_18h47.13.562,lexical_decision_task_MP,2020.1.3,Win32,60,m,1,0.479955,,,,,,,,0.479955,1,,,,,,214,WORD,UN,33,phobia,INTAKE,m,,,,,,0.310185221,-0.268518598,0,0,0,,0,365,365,153,1,
,,,,,,,,,,,,,,,,,,5f0452d558d1c26aa28f6d18,2020-08-10_18h47.13.562,lexical_decision_task_MP,2020.1.3,Win32,60,m,1,0.38907,,,,,,,,0.38907,1,,,,,,92,WORD,"ID",33,strand,STRAND,m,,,,,,0.310185221,-0.268518598,0,0,0,,0,366,366,31,1,
,,,,,,,,,,,,,,,,,,5f0452d558d1c26aa28f6d18,2020-08-10_18h47.13.562,lexical_decision_task_MP,2020.1.3,Win32,60,z,1,0.4884,,,,,,,,0.4884,1,,,,,,465,NW,UN,33,bafent,WHIVEX,z,,,,,,0.310185221,-0.268518598,0,0,0,,0,367,367,404,1,
,,,,,,,,,,,,,,,,,,5f0452d558d1c26aa28f6d18,2020-08-10_18h47.13.562,lexical_decision_task_MP,2020.1.3,Win32,60,z,1,0.5289,,,,,,,,0.5289,1,,,,,,272,NW,UN,50,sortel,DAMILT,z,,,,,,0.310185221,-0.268518598,0,0,0,,0,368,368,451,1,
,,,,,,,,,,,,,,,,,,5f0452d558d1c26aa28f6d18,2020-08-10_18h47.13.562,lexical_decision_task_MP,2020.1.3,Win32,60,m,1,0.527955,,,,,,,,0.527955,1,,,,,,31,WORD,UN,50,buckle,WEAPON,m,,,,,,0.310185221,-0.268518598,0,0,0,,0,369,369,210,1,
,,,,,,,,,,,,,,,,,,5f0452d558d1c26aa28f6d18,2020-08-10_18h47.13.562,lexical_decision_task_MP,2020.1.3,Win32,60,m,1,0.536,,,,,,,,0.536,1,,,,,,73,WORD,"ID",33,source,SOURCE,m,,,,,,0.310185221,-0.268518598,0,0,0,,0,370,370,12,1,
,,,,,,,,,,,,,,,,,,5f0452d558d1c26aa28f6d18,2020-08-10_18h47.13.562,lexical_decision_task_MP,2020.1.3,Win32,60,z,1,0.528775,,,,,,,,0.528775,1,,,,,,347,NW,"ID",33,kerift,KERIFT,z,,,,,,0.310185221,-0.268518598,0,0,0,,0,371,371,286,1,
,,,,,,,,,,,,,,,,,,5f0452d558d1c26aa28f6d18,2020-08-10_18h47.13.562,lexical_decision_task_MP,2020.1.3,Win32,60,m,0,0.57166,,,,,,,,0.57166,0,,,,,,299,NW,UN,50,yarion,STURCH,z,,,,,,0.310185221,-0.268518598,0,0,0,,0,372,372,478,1,
,,,,,,,,,,,,,,,,,,5f0452d558d1c26aa28f6d18,2020-08-10_18h47.13.562,lexical_decision_task_MP,2020.1.3,Win32,60,z,1,0.51386,,,,,,,,0.51386,1,,,,,,444,NW,UN,33,minkel,JAUNCE,z,,,,,,0.310185221,-0.268518598,0,0,0,,0,373,373,383,1,
,,,,,,,,,,,,,,,,,,5f0452d558d1c26aa28f6d18,2020-08-10_18h47.13.562,lexical_decision_task_MP,2020.1.3,Win32,60,z,1,0.47005,,,,,,,,0.47005,1,,,,,,374,NW,"ID",50,sliant,SLIANT,z,,,,,,0.310185221,-0.268518598,0,0,0,,0,374,374,313,1,
,,,,,,,,,,,,,,,,,,5f0452d558d1c26aa28f6d18,2020-08-10_18h47.13.562,lexical_decision_task_MP,2020.1.3,Win32,60,z,1,0.416105,,,,,,,,0.416105,1,,,,,,333,NW,"ID",33,catrie,CATRIE,z,,,,,,0.310185221,-0.268518598,0,0,0,,0,375,375,272,1,
,,,,,,,,,,,,,,,,,,5f0452d558d1c26aa28f6d18,2020-08-10_18h47.13.562,lexical_decision_task_MP,2020.1.3,Win32,60,z,1,0.46851,,,,,,,,0.46851,1,,,,,,378,NW,"ID",50,shrile,SHRILE,z,,,,,,0.310185221,-0.268518598,0,0,0,,0,376,376,317,1,
,,,,,,,,,,,,,,,,,,5f0452d558d1c26aa28f6d18,2020-08-10_18h47.13.562,lexical_decision_task_MP,2020.1.3,Win32,60,m,0,0.545885,,,,,,,,0.545885,0,,,,,,348,NW,"ID",33,dumple,DUMPLE,z,,,,,,0.310185221,-0.268518598,0,0,0,,0,377,377,287,1,
,,,,,,,,,,,,,,,,,,5f0452d558d1c26aa28f6d18,2020-08-10_18h47.13.562,lexical_decision_task_MP,2020.1.3,Win32,60,z,1,0.405815,,,,,,,,0.405815,1,,,,,,307,NW,"ID",33,kirafe,KIRAFE,z,,,,,,0.310185221,-0.268518598,0,0,0,,0,378,378,246,1,
,,,,,,,,,,,,,,,,,,5f0452d558d1c26aa28f6d18,2020-08-10_18h47.13.562,lexical_decision_task_MP,2020.1.3,Win32,60,m,1,0.522205,,,,,,,,0.522205,1,,,,,,7,WORD,UN,50,abrupt,ANCHOR,m,,,,,,0.310185221,-0.268518598,0,0,0,,0,379,379,186,1,
,,,,,,,,,,,,,,,,,,5f0452d558d1c26aa28f6d18,2020-08-10_18h47.13.562,lexical_decision_task_MP,2020.1.3,Win32,60,z,1,0.46372,,,,,,,,0.46372,1,,,,,,309,NW,"ID",33,amiloy,AMILOY,z,,,,,,0.310185221,-0.268518598,0,0,0,,0,380,380,248,1,
,,,,,,,,,,,,,,,,,,5f0452d558d1c26aa28f6d18,2020-08-10_18h47.13.562,lexical_decision_task_MP,2020.1.3,Win32,60,m,1,0.41193,,,,,,,,0.41193,1,,,,,,229,WORD,UN,33,fringe,MOTHER,m,,,,,,0.310185221,-0.268518598,0,0,0,,0,381,381,168,1,
,,,,,,,,,,,,,,,,,,5f0452d558d1c26aa28f6d18,2020-08-10_18h47.13.562,lexical_decision_task_MP,2020.1.3,Win32,60,m,1,0.437295,,,,,,,,0.437295,1,,,,,,148,WORD,"ID",50,custom,CUSTOM,m,,,,,,0.310185221,-0.268518598,0,0,0,,0,382,382,87,1,
,,,,,,,,,,,,,,,,,,5f0452d558d1c26aa28f6d18,2020-08-10_18h47.13.562,lexical_decision_task_MP,2020.1.3,Win32,60,z,0,0.38813,,,,,,,,0.38813,0,,,,,,60,WORD,UN,50,fright,PENCIL,m,,,,,,0.310185221,-0.268518598,0,0,0,,0,383,383,239,1,
,,,,,,,,,,,,,,,,,,5f0452d558d1c26aa28f6d18,2020-08-10_18h47.13.562,lexical_decision_task_MP,2020.1.3,Win32,60,m,1,0.40164,,,,,,,,0.40164,1,,,,,,163,WORD,"ID",50,string,STRING,m,,,,,,0.310185221,-0.268518598,0,0,0,,0,384,384,102,1,
,,,,,,,,,,,,,,,,,,5f0452d558d1c26aa28f6d18,2020-08-10_18h47.13.562,lexical_decision_task_MP,2020.1.3,Win32,60,z,1,0.61178,,,,,,,,0.61178,1,,,,,,365,NW,"ID",50,guairt,GUAIRT,z,,,,,,0.310185221,-0.268518598,0,0,0,,0,385,385,304,1,
,,,,,,,,,,,,,,,,,,5f0452d558d1c26aa28f6d18,2020-08-10_18h47.13.562,lexical_decision_task_MP,2020.1.3,Win32,60,m,1,0.48405,,,,,,,,0.48405,1,,,,,,99,WORD,"ID",33,fluent,FLUENT,m,,,,,,0.310185221,-0.268518598,0,0,0,,0,386,386,38,1,
,,,,,,,,,,,,,,,,,,5f0452d558d1c26aa28f6d18,2020-08-10_18h47.13.562,lexical_decision_task_MP,2020.1.3,Win32,60,m,1,0.481,,,,,,,,0.481,1,,,,,,140,WORD,"ID",50,prince,PRINCE,m,,,,,,0.310185221,-0.268518598,0,0,0,,0,387,387,79,1,
,,,,,,,,,,,,,,,,,,5f0452d558d1c26aa28f6d18,2020-08-10_18h47.13.562,lexical_decision_task_MP,2020.1.3,Win32,60,m,1,0.422145,,,,,,,,0.422145,1,,,,,,130,WORD,"ID",50,stupid,STUPID,m,,,,,,0.310185221,-0.268518598,0,0,0,,0,388,388,69,1,
,,,,,,,,,,,,,,,,,,5f0452d558d1c26aa28f6d18,2020-08-10_18h47.13.562,lexical_decision_task_MP,2020.1.3,Win32,60,m,1,0.37712,,,,,,,,0.37712,1,,,,,,132,WORD,"ID",50,strong,STRONG,m,,,,,,0.310185221,-0.268518598,0,0,0,,0,389,389,71,1,
,,,,,,,,,,,,,,,,,,5f0452d558d1c26aa28f6d18,2020-08-10_18h47.13.562,lexical_decision_task_MP,2020.1.3,Win32,60,z,1,0.678105,,,,,,,,0.678105,1,,,,,,397,NW,"ID",50,camble,CAMBLE,z,,,,,,0.310185221,-0.268518598,0,0,0,,0,390,390,336,1,
,,,,,,,,,,,,,,,,,,5f0452d558d1c26aa28f6d18,2020-08-10_18h47.13.562,lexical_decision_task_MP,2020.1.3,Win32,60,z,1,0.616915,,,,,,,,0.616915,1,,,,,,247,NW,UN,50,strole,BLARGE,z,,,,,,0.310185221,-0.268518598,0,0,0,,0,391,391,426,1,
,,,,,,,,,,,,,,,,,,5f0452d558d1c26aa28f6d18,2020-08-10_18h47.13.562,lexical_decision_task_MP,2020.1.3,Win32,60,z,1,0.72884,,,,,,,,0.72884,1,,,,,,319,NW,"ID",33,zomber,ZOMBER,z,,,,,,0.310185221,-0.268518598,0,0,0,,0,392,392,258,1,
,,,,,,,,,,,,,,,,,,5f0452d558d1c26aa28f6d18,2020-08-10_18h47.13.562,lexical_decision_task_MP,2020.1.3,Win32,60,z,1,0.530075,,,,,,,,0.530075,1,,,,,,442,NW,UN,33,dorsex,ABOUNE,z,,,,,,0.310185221,-0.268518598,0,0,0,,0,393,393,381,1,
,,,,,,,,,,,,,,,,,,5f0452d558d1c26aa28f6d18,2020-08-10_18h47.13.562,lexical_decision_task_MP,2020.1.3,Win32,60,z,1,0.57766,,,,,,,,0.57766,1,,,,,,411,NW,"ID",50,orchin,ORCHIN,z,,,,,,0.310185221,-0.268518598,0,0,0,,0,394,394,350,1,
,,,,,,,,,,,,,,,,,,5f0452d558d1c26aa28f6d18,2020-08-10_18h47.13.562,lexical_decision_task_MP,2020.1.3,Win32,60,z,1,0.77855,,,,,,,,0.77855,1,,,,,,244,NW,UN,50,anougs,EATRIC,z,,,,,,0.310185221,-0.268518598,0,0,0,,0,395,395,423,1,
,,,,,,,,,,,,,,,,,,5f0452d558d1c26aa28f6d18,2020-08-10_18h47.13.562,lexical_decision_task_MP,2020.1.3,Win32,60,m,1,0.43439,,,,,,,,0.43439,1,,,,,,164,WORD,"ID",50,market,MARKET,m,,,,,,0.310185221,-0.268518598,0,0,0,,0,396,396,103,1,
,,,,,,,,,,,,,,,,,,5f0452d558d1c26aa28f6d18,2020-08-10_18h47.13.562,lexical_decision_task_MP,2020.1.3,Win32,60,m,1,0.465135,,,,,,,,0.465135,1,,,,,,170,WORD,"ID",50,pounce,POUNCE,m,,,,,,0.310185221,-0.268518598,0,0,0,,0,397,397,109,1,
,,,,,,,,,,,,,,,,,,5f0452d558d1c26aa28f6d18,2020-08-10_18h47.13.562,lexical_decision_task_MP,2020.1.3,Win32,60,z,1,0.469485,,,,,,,,0.469485,1,,,,,,346,NW,"ID",33,saudic,SAUDIC,z,,,,,,0.310185221,-0.268518598,0,0,0,,0,398,398,285,1,
,,,,,,,,,,,,,,,,,,5f0452d558d1c26aa28f6d18,2020-08-10_18h47.13.562,lexical_decision_task_MP,2020.1.3,Win32,60,m,1,0.530165,,,,,,,,0.530165,1,,,,,,235,WORD,UN,33,pirate,GRUMPY,m,,,,,,0.310185221,-0.268518598,0,0,0,,0,399,399,174,1,
,,,,,,,,,,,,,,,,,,5f0452d558d1c26aa28f6d18,2020-08-10_18h47.13.562,lexical_decision_task_MP,2020.1.3,Win32,60,z,1,0.682945,,,,,,,,0.682945,1,,,,,,297,NW,UN,50,piergy,FERTIC,z,,,,,,0.310185221,-0.268518598,0,0,0,,0,400,400,476,1,
,,,,,,,,,,,,,,,,,,5f0452d558d1c26aa28f6d18,2020-08-10_18h47.13.562,lexical_decision_task_MP,2020.1.3,Win32,60,m,1,0.450045,,,,,,,,0.450045,1,,,,,,144,WORD,"ID",50,sponge,SPONGE,m,,,,,,0.310185221,-0.268518598,0,0,0,,0,401,401,83,1,
,,,,,,,,,,,,,,,,,,5f0452d558d1c26aa28f6d18,2020-08-10_18h47.13.562,lexical_decision_task_MP,2020.1.3,Win32,60,z,1,0.62906,,,,,,,,0.62906,1,,,,,,357,NW,"ID",33,derain,DERAIN,z,,,,,,0.310185221,-0.268518598,0,0,0,,0,402,402,296,1,
,,,,,,,,,,,,,,,,,,5f0452d558d1c26aa28f6d18,2020-08-10_18h47.13.562,lexical_decision_task_MP,2020.1.3,Win32,60,m,1,0.531555,,,,,,,,0.531555,1,,,,,,58,WORD,UN,50,splint,FOSTER,m,,,,,,0.310185221,-0.268518598,0,0,0,,0,403,403,237,1,
,,,,,,,,,,,,,,,,,,5f0452d558d1c26aa28f6d18,2020-08-10_18h47.13.562,lexical_decision_task_MP,2020.1.3,Win32,60,m,1,0.471615,,,,,,,,0.471615,1,,,,,,158,WORD,"ID",50,island,ISLAND,m,,,,,,0.310185221,-0.268518598,0,0,0,,0,404,404,97,1,
