counterbalancing_condition,instr_done_keyboard.keys,instr_done_keyboard.rt,instr_done_touch.x,instr_done_touch.y,instr_done_touch.leftButton,instr_done_touch.midButton,instr_done_touch.rightButton,instruction_pages.thisRepN,instruction_pages.thisTrialN,instruction_pages.thisN,instruction_pages.thisIndex,instruction_pages.ran,pageN,phase,instruct_text,has_image,instruct_image,participant,date,expName,psychopyVersion,OS,frameRate,response.keys,response.corr,response.rt,touch_resp.x,touch_resp.y,touch_resp.leftButton,touch_resp.midButton,touch_resp.rightButton,touch_resp.time,touch_resp.clicked_name,rt,corr,practice_trials.thisRepN,practice_trials.thisTrialN,practice_trials.thisN,practice_trials.thisIndex,practice_trials.ran,TrialID,StimulusType,Condition,PrimeDuration,Prime,Target,corrAns,end_of_practice_trials_pages.thisRepN,end_of_practice_trials_pages.thisTrialN,end_of_practice_trials_pages.thisN,end_of_practice_trials_pages.thisIndex,end_of_practice_trials_pages.ran,break_done_touch.x,break_done_touch.y,break_done_touch.leftButton,break_done_touch.midButton,break_done_touch.rightButton,break_done_keyboard.keys,trials.thisRepN,trials.thisTrialN,trials.thisN,trials.thisIndex,trials.ran,break_done_keyboard.rt
3,space,10.390915,0.034205729,-0.414570312,0,0,0,0,0,0,0,1,1,instructions,"INSTRUCTIONS
At the start of each trial, look at the hash marks (######) in the center of the screen. After a moment, a string of letters will appear. Your task is to indicate if the letter string forms a word or not (i.e., if it is a nonword). For example, AUTHOR is a word while AUTHON is a nonword.

Press the space bar or touch the button below to continue.",0,,5f0787e0905be01692f34950,2020-08-10_18h19.24.527,lexical_decision_task_MP,2020.1.3,MacIntel,60,,,,,,,,,,,,,,,,,,,,,,,,,,,,,,,,,,,,,,,,,
,space,19.04251,0.034205729,-0.414570312,0,0,0,0,1,1,1,1,2,instructions,"If your device has a keyboard, press the 'Z' key for nonwords and the 'M' key for words.





Press the space bar or touch the button below to continue.",1,keyboard-example.gif,5f0787e0905be01692f34950,2020-08-10_18h19.24.527,lexical_decision_task_MP,2020.1.3,MacIntel,60,,,,,,,,,,,,,,,,,,,,,,,,,,,,,,,,,,,,,,,,,
,space,5.58007,0.034205729,-0.414570312,0,0,0,0,2,2,2,1,3,instructions,"If you are using a touchscreen only device, use the buttons on the screen. Do not use the mouse.





Press the space bar or touch the button below to continue.",1,touchscreen-example.gif,5f0787e0905be01692f34950,2020-08-10_18h19.24.527,lexical_decision_task_MP,2020.1.3,MacIntel,60,,,,,,,,,,,,,,,,,,,,,,,,,,,,,,,,,,,,,,,,,
,space,4.07812,0.034205729,-0.414570312,0,0,0,0,3,3,3,1,4,instructions,"It is very important that you respond as quickly and accurately as possible, as each letter string will only be on the screen for two seconds. If you do not respond within this time, the message 'Too slow!' will be displayed and the experiment will progress to the next letter string. The first 20 trials will be practice trials and you will receive feedback on your answers. 

Press the space bar or touch the button below to start the practice trials.",0,,5f0787e0905be01692f34950,2020-08-10_18h19.24.527,lexical_decision_task_MP,2020.1.3,MacIntel,60,,,,,,,,,,,,,,,,,,,,,,,,,,,,,,,,,,,,,,,,,
,,,,,,,,,,,,,,,,,,5f0787e0905be01692f34950,2020-08-10_18h19.24.527,lexical_decision_task_MP,2020.1.3,MacIntel,60,m,1,1.400735,,,,,,,,1.400735,1,0,0,0,7,1,1008,WORD,UN,50,hurdle,VOLUME,m,,,,,,,,,,,,,,,,,
,,,,,,,,,,,,,,,,,,5f0787e0905be01692f34950,2020-08-10_18h19.24.527,lexical_decision_task_MP,2020.1.3,MacIntel,60,z,1,1.173875,,,,,,,,1.173875,1,0,1,1,12,1,1013,NW,UN,33,adveil,SPRINY,z,,,,,,,,,,,,,,,,,
,,,,,,,,,,,,,,,,,,5f0787e0905be01692f34950,2020-08-10_18h19.24.527,lexical_decision_task_MP,2020.1.3,MacIntel,60,z,1,0.98275,,,,,,,,0.98275,1,0,2,2,14,1,1015,NW,UN,50,miaber,THRALE,z,,,,,,,,,,,,,,,,,
,,,,,,,,,,,,,,,,,,5f0787e0905be01692f34950,2020-08-10_18h19.24.527,lexical_decision_task_MP,2020.1.3,MacIntel,60,z,1,0.991295,,,,,,,,0.991295,1,0,3,3,15,1,1016,NW,UN,50,mushed,WHAISE,z,,,,,,,,,,,,,,,,,
,,,,,,,,,,,,,,,,,,5f0787e0905be01692f34950,2020-08-10_18h19.24.527,lexical_decision_task_MP,2020.1.3,MacIntel,60,z,1,1.350735,,,,,,,,1.350735,1,0,4,4,9,1,1010,NW,"ID",33,fariny,FARINY,z,,,,,,,,,,,,,,,,,
,,,,,,,,,,,,,,,,,,5f0787e0905be01692f34950,2020-08-10_18h19.24.527,lexical_decision_task_MP,2020.1.3,MacIntel,60,m,1,0.85275,,,,,,,,0.85275,1,0,5,5,1,1,1002,WORD,"ID",33,adjust,ADJUST,m,,,,,,,,,,,,,,,,,
,,,,,,,,,,,,,,,,,,5f0787e0905be01692f34950,2020-08-10_18h19.24.527,lexical_decision_task_MP,2020.1.3,MacIntel,60,z,1,0.96895,,,,,,,,0.96895,1,0,6,6,8,1,1009,NW,"ID",33,aslert,ASLERT,z,,,,,,,,,,,,,,,,,
,,,,,,,,,,,,,,,,,,5f0787e0905be01692f34950,2020-08-10_18h19.24.527,lexical_decision_task_MP,2020.1.3,MacIntel,60,m,1,0.91894,,,,,,,,0.91894,1,0,7,7,0,1,1001,WORD,"ID",33,utopia,UTOPIA,m,,,,,,,,,,,,,,,,,
,,,,,,,,,,,,,,,,,,5f0787e0905be01692f34950,2020-08-10_18h19.24.527,lexical_decision_task_MP,2020.1.3,MacIntel,60,z,1,0.800205,,,,,,,,0.800205,1,0,8,8,10,1,1011,NW,"ID",50,inlade,INLADE,z,,,,,,,,,,,,,,,,,
,,,,,,,,,,,,,,,,,,5f0787e0905be01692f34950,2020-08-10_18h19.24.527,lexical_decision_task_MP,2020.1.3,MacIntel,60,m,1,0.699425,,,,,,,,0.699425,1,0,9,9,6,1,1007,WORD,UN,50,tropic,ZOMBIE,m,,,,,,,,,,,,,,,,,
,,,,,,,,,,,,,,,,,,5f0787e0905be01692f34950,2020-08-10_18h19.24.527,lexical_decision_task_MP,2020.1.3,MacIntel,60,m,1,0.72537,,,,,,,,0.72537,1,0,10,10,2,1,1003,WORD,"ID",50,almond,ALMOND,m,,,,,,,,,,,,,,,,,
,,,,,,,,,,,,,,,,,,5f0787e0905be01692f34950,2020-08-10_18h19.24.527,lexical_decision_task_MP,2020.1.3,MacIntel,60,m,1,0.70767,,,,,,,,0.70767,1,0,11,11,4,1,1005,WORD,UN,33,abound,SQUEAK,m,,,,,,,,,,,,,,,,,
,,,,,,,,,,,,,,,,,,5f0787e0905be01692f34950,2020-08-10_18h19.24.527,lexical_decision_task_MP,2020.1.3,MacIntel,60,z,1,0.824715,,,,,,,,0.824715,1,0,12,12,11,1,1012,NW,"ID",50,rashet,RASHET,z,,,,,,,,,,,,,,,,,
,,,,,,,,,,,,,,,,,,5f0787e0905be01692f34950,2020-08-10_18h19.24.527,lexical_decision_task_MP,2020.1.3,MacIntel,60,m,1,0.731095,,,,,,,,0.731095,1,0,13,13,3,1,1004,WORD,"ID",50,matrix,MATRIX,m,,,,,,,,,,,,,,,,,
,,,,,,,,,,,,,,,,,,5f0787e0905be01692f34950,2020-08-10_18h19.24.527,lexical_decision_task_MP,2020.1.3,MacIntel,60,z,1,0.637295,,,,,,,,0.637295,1,0,14,14,13,1,1014,NW,UN,33,winfer,ROUPET,z,,,,,,,,,,,,,,,,,
,,,,,,,,,,,,,,,,,,5f0787e0905be01692f34950,2020-08-10_18h19.24.527,lexical_decision_task_MP,2020.1.3,MacIntel,60,m,1,0.618705,,,,,,,,0.618705,1,0,15,15,5,1,1006,WORD,UN,33,frenzy,OBTAIN,m,,,,,,,,,,,,,,,,,
,space,38.652865,0.034205729,-0.414570312,0,0,0,,,,,,1,end_of_practice,"You have completed the practice trials. During the experimental trials, you will not receive feedback, but it is very important that you respond as quickly and accurately as possible. 
Before you begin, please ensure that you are in a comfortable and quiet location and will not be disturbed for about 15 minutes, as we cannot use your data if you do not complete all the trials. 
There will be opportunities to take breaks at regular intervals during the experiment. When you are ready to start the experimental trials, please press space or touch the button below.",,,5f0787e0905be01692f34950,2020-08-10_18h19.24.527,lexical_decision_task_MP,2020.1.3,MacIntel,60,,,,,,,,,,,,,,,,,,,,,,,,,0,0,0,0,1,,,,,,,,,,,,
,,,,,,,,,,,,,,,,,,5f0787e0905be01692f34950,2020-08-10_18h19.24.527,lexical_decision_task_MP,2020.1.3,MacIntel,60,m,1,0.98091,,,,,,,,0.98091,1,,,,,,210,WORD,UN,33,infect,MONKEY,m,,,,,,0.034205729,-0.414570312,0,0,0,,0,0,0,149,1,
,,,,,,,,,,,,,,,,,,5f0787e0905be01692f34950,2020-08-10_18h19.24.527,lexical_decision_task_MP,2020.1.3,MacIntel,60,z,1,0.8215,,,,,,,,0.8215,1,,,,,,379,NW,"ID",50,auting,AUTING,z,,,,,,0.034205729,-0.414570312,0,0,0,,0,1,1,318,1,
,,,,,,,,,,,,,,,,,,5f0787e0905be01692f34950,2020-08-10_18h19.24.527,lexical_decision_task_MP,2020.1.3,MacIntel,60,z,1,0.851305,,,,,,,,0.851305,1,,,,,,365,NW,"ID",50,guairt,GUAIRT,z,,,,,,0.034205729,-0.414570312,0,0,0,,0,2,2,304,1,
,,,,,,,,,,,,,,,,,,5f0787e0905be01692f34950,2020-08-10_18h19.24.527,lexical_decision_task_MP,2020.1.3,MacIntel,60,m,1,0.615525,,,,,,,,0.615525,1,,,,,,185,WORD,UN,33,portal,BOTHER,m,,,,,,0.034205729,-0.414570312,0,0,0,,0,3,3,124,1,
,,,,,,,,,,,,,,,,,,5f0787e0905be01692f34950,2020-08-10_18h19.24.527,lexical_decision_task_MP,2020.1.3,MacIntel,60,m,1,0.71633,,,,,,,,0.71633,1,,,,,,128,WORD,"ID",50,senior,SENIOR,m,,,,,,0.034205729,-0.414570312,0,0,0,,0,4,4,67,1,
,,,,,,,,,,,,,,,,,,5f0787e0905be01692f34950,2020-08-10_18h19.24.527,lexical_decision_task_MP,2020.1.3,MacIntel,60,z,1,0.882635,,,,,,,,0.882635,1,,,,,,429,NW,UN,33,caroey,FUNTLE,z,,,,,,0.034205729,-0.414570312,0,0,0,,0,5,5,368,1,
,,,,,,,,,,,,,,,,,,5f0787e0905be01692f34950,2020-08-10_18h19.24.527,lexical_decision_task_MP,2020.1.3,MacIntel,60,z,1,1.075515,,,,,,,,1.075515,1,,,,,,418,NW,"ID",50,suidle,SUIDLE,z,,,,,,0.034205729,-0.414570312,0,0,0,,0,6,6,357,1,
,,,,,,,,,,,,,,,,,,5f0787e0905be01692f34950,2020-08-10_18h19.24.527,lexical_decision_task_MP,2020.1.3,MacIntel,60,z,1,0.768935,,,,,,,,0.768935,1,,,,,,394,NW,"ID",50,spaqux,SPAQUX,z,,,,,,0.034205729,-0.414570312,0,0,0,,0,7,7,333,1,
,,,,,,,,,,,,,,,,,,5f0787e0905be01692f34950,2020-08-10_18h19.24.527,lexical_decision_task_MP,2020.1.3,MacIntel,60,z,1,0.8408,,,,,,,,0.8408,1,,,,,,416,NW,"ID",50,pathel,PATHEL,z,,,,,,0.034205729,-0.414570312,0,0,0,,0,8,8,355,1,
,,,,,,,,,,,,,,,,,,5f0787e0905be01692f34950,2020-08-10_18h19.24.527,lexical_decision_task_MP,2020.1.3,MacIntel,60,m,1,0.875055,,,,,,,,0.875055,1,,,,,,215,WORD,UN,33,lumber,PHOBIA,m,,,,,,0.034205729,-0.414570312,0,0,0,,0,9,9,154,1,
,,,,,,,,,,,,,,,,,,5f0787e0905be01692f34950,2020-08-10_18h19.24.527,lexical_decision_task_MP,2020.1.3,MacIntel,60,m,1,0.81992,,,,,,,,0.81992,1,,,,,,16,WORD,UN,50,charge,FAUCET,m,,,,,,0.034205729,-0.414570312,0,0,0,,0,10,10,195,1,
,,,,,,,,,,,,,,,,,,5f0787e0905be01692f34950,2020-08-10_18h19.24.527,lexical_decision_task_MP,2020.1.3,MacIntel,60,z,1,0.75841,,,,,,,,0.75841,1,,,,,,456,NW,UN,33,wanigh,BROGET,z,,,,,,0.034205729,-0.414570312,0,0,0,,0,11,11,395,1,
,,,,,,,,,,,,,,,,,,5f0787e0905be01692f34950,2020-08-10_18h19.24.527,lexical_decision_task_MP,2020.1.3,MacIntel,60,m,1,0.88754,,,,,,,,0.88754,1,,,,,,74,WORD,"ID",33,plaque,PLAQUE,m,,,,,,0.034205729,-0.414570312,0,0,0,,0,12,12,13,1,
,,,,,,,,,,,,,,,,,,5f0787e0905be01692f34950,2020-08-10_18h19.24.527,lexical_decision_task_MP,2020.1.3,MacIntel,60,m,1,0.767075,,,,,,,,0.767075,1,,,,,,166,WORD,"ID",50,starch,STARCH,m,,,,,,0.034205729,-0.414570312,0,0,0,,0,13,13,105,1,
,,,,,,,,,,,,,,,,,,5f0787e0905be01692f34950,2020-08-10_18h19.24.527,lexical_decision_task_MP,2020.1.3,MacIntel,60,m,1,0.802135,,,,,,,,0.802135,1,,,,,,23,WORD,UN,50,praise,WEALTH,m,,,,,,0.034205729,-0.414570312,0,0,0,,0,14,14,202,1,
,,,,,,,,,,,,,,,,,,5f0787e0905be01692f34950,2020-08-10_18h19.24.527,lexical_decision_task_MP,2020.1.3,MacIntel,60,m,1,1.13787,,,,,,,,1.13787,1,,,,,,159,WORD,"ID",50,detail,DETAIL,m,,,,,,0.034205729,-0.414570312,0,0,0,,0,15,15,98,1,
,,,,,,,,,,,,,,,,,,5f0787e0905be01692f34950,2020-08-10_18h19.24.527,lexical_decision_task_MP,2020.1.3,MacIntel,60,z,1,0.87367,,,,,,,,0.87367,1,,,,,,401,NW,"ID",50,mustil,MUSTIL,z,,,,,,0.034205729,-0.414570312,0,0,0,,0,16,16,340,1,
,,,,,,,,,,,,,,,,,,5f0787e0905be01692f34950,2020-08-10_18h19.24.527,lexical_decision_task_MP,2020.1.3,MacIntel,60,m,0,0.788275,,,,,,,,0.788275,0,,,,,,280,NW,UN,50,melaty,CURBOL,z,,,,,,0.034205729,-0.414570312,0,0,0,,0,17,17,459,1,
,,,,,,,,,,,,,,,,,,5f0787e0905be01692f34950,2020-08-10_18h19.24.527,lexical_decision_task_MP,2020.1.3,MacIntel,60,z,1,0.910295,,,,,,,,0.910295,1,,,,,,479,NW,UN,33,crible,LOBUSH,z,,,,,,0.034205729,-0.414570312,0,0,0,,0,18,18,418,1,
,,,,,,,,,,,,,,,,,,5f0787e0905be01692f34950,2020-08-10_18h19.24.527,lexical_decision_task_MP,2020.1.3,MacIntel,60,z,1,0.85093,,,,,,,,0.85093,1,,,,,,275,NW,UN,50,yarmon,SLEIRT,z,,,,,,0.034205729,-0.414570312,0,0,0,,0,19,19,454,1,
,,,,,,,,,,,,,,,,,,5f0787e0905be01692f34950,2020-08-10_18h19.24.527,lexical_decision_task_MP,2020.1.3,MacIntel,60,m,1,0.869255,,,,,,,,0.869255,1,,,,,,199,WORD,UN,33,plague,INVOKE,m,,,,,,0.034205729,-0.414570312,0,0,0,,0,20,20,138,1,
,,,,,,,,,,,,,,,,,,5f0787e0905be01692f34950,2020-08-10_18h19.24.527,lexical_decision_task_MP,2020.1.3,MacIntel,60,z,1,0.67656,,,,,,,,0.67656,1,,,,,,273,NW,UN,50,fumblo,SORTEL,z,,,,,,0.034205729,-0.414570312,0,0,0,,0,21,21,452,1,
,,,,,,,,,,,,,,,,,,5f0787e0905be01692f34950,2020-08-10_18h19.24.527,lexical_decision_task_MP,2020.1.3,MacIntel,60,z,1,0.7004,,,,,,,,0.7004,1,,,,,,471,NW,UN,33,cigney,NOBEST,z,,,,,,0.034205729,-0.414570312,0,0,0,,0,22,22,410,1,
,,,,,,,,,,,,,,,,,,5f0787e0905be01692f34950,2020-08-10_18h19.24.527,lexical_decision_task_MP,2020.1.3,MacIntel,60,m,1,1.049305,,,,,,,,1.049305,1,,,,,,75,WORD,"ID",33,trophy,TROPHY,m,,,,,,0.034205729,-0.414570312,0,0,0,,0,23,23,14,1,
,,,,,,,,,,,,,,,,,,5f0787e0905be01692f34950,2020-08-10_18h19.24.527,lexical_decision_task_MP,2020.1.3,MacIntel,60,z,1,0.768805,,,,,,,,0.768805,1,,,,,,400,NW,"ID",50,wearox,WEAROX,z,,,,,,0.034205729,-0.414570312,0,0,0,,0,24,24,339,1,
,,,,,,,,,,,,,,,,,,5f0787e0905be01692f34950,2020-08-10_18h19.24.527,lexical_decision_task_MP,2020.1.3,MacIntel,60,m,1,0.740775,,,,,,,,0.740775,1,,,,,,25,WORD,UN,50,sprint,DOMAIN,m,,,,,,0.034205729,-0.414570312,0,0,0,,0,25,25,204,1,
,,,,,,,,,,,,,,,,,,5f0787e0905be01692f34950,2020-08-10_18h19.24.527,lexical_decision_task_MP,2020.1.3,MacIntel,60,z,1,0.633135,,,,,,,,0.633135,1,,,,,,308,NW,"ID",33,psetch,PSETCH,z,,,,,,0.034205729,-0.414570312,0,0,0,,0,26,26,247,1,
,,,,,,,,,,,,,,,,,,5f0787e0905be01692f34950,2020-08-10_18h19.24.527,lexical_decision_task_MP,2020.1.3,MacIntel,60,z,0,0.741055,,,,,,,,0.741055,0,,,,,,33,WORD,UN,50,jungle,BUTLER,m,,,,,,0.034205729,-0.414570312,0,0,0,,0,27,27,212,1,
,,,,,,,,,,,,,,,,,,5f0787e0905be01692f34950,2020-08-10_18h19.24.527,lexical_decision_task_MP,2020.1.3,MacIntel,60,m,1,0.851055,,,,,,,,0.851055,1,,,,,,214,WORD,UN,33,phobia,INTAKE,m,,,,,,0.034205729,-0.414570312,0,0,0,,0,28,28,153,1,
,,,,,,,,,,,,,,,,,,5f0787e0905be01692f34950,2020-08-10_18h19.24.527,lexical_decision_task_MP,2020.1.3,MacIntel,60,z,1,0.630565,,,,,,,,0.630565,1,,,,,,327,NW,"ID",33,plenac,PLENAC,z,,,,,,0.034205729,-0.414570312,0,0,0,,0,29,29,266,1,
,,,,,,,,,,,,,,,,,,5f0787e0905be01692f34950,2020-08-10_18h19.24.527,lexical_decision_task_MP,2020.1.3,MacIntel,60,z,1,0.81373,,,,,,,,0.81373,1,,,,,,336,NW,"ID",33,ghodus,GHODUS,z,,,,,,0.034205729,-0.414570312,0,0,0,,0,30,30,275,1,
,,,,,,,,,,,,,,,,,,5f0787e0905be01692f34950,2020-08-10_18h19.24.527,lexical_decision_task_MP,2020.1.3,MacIntel,60,m,1,0.626365,,,,,,,,0.626365,1,,,,,,3,WORD,UN,50,trench,KNIGHT,m,,,,,,0.034205729,-0.414570312,0,0,0,,0,31,31,182,1,
,,,,,,,,,,,,,,,,,,5f0787e0905be01692f34950,2020-08-10_18h19.24.527,lexical_decision_task_MP,2020.1.3,MacIntel,60,z,1,0.714945,,,,,,,,0.714945,1,,,,,,440,NW,UN,33,rastoe,SARIDE,z,,,,,,0.034205729,-0.414570312,0,0,0,,0,32,32,379,1,
,,,,,,,,,,,,,,,,,,5f0787e0905be01692f34950,2020-08-10_18h19.24.527,lexical_decision_task_MP,2020.1.3,MacIntel,60,z,1,0.72534,,,,,,,,0.72534,1,,,,,,391,NW,"ID",50,theldy,THELDY,z,,,,,,0.034205729,-0.414570312,0,0,0,,0,33,33,330,1,
,,,,,,,,,,,,,,,,,,5f0787e0905be01692f34950,2020-08-10_18h19.24.527,lexical_decision_task_MP,2020.1.3,MacIntel,60,z,1,0.80686,,,,,,,,0.80686,1,,,,,,430,NW,UN,33,chrums,CAROEY,z,,,,,,0.034205729,-0.414570312,0,0,0,,0,34,34,369,1,
,,,,,,,,,,,,,,,,,,5f0787e0905be01692f34950,2020-08-10_18h19.24.527,lexical_decision_task_MP,2020.1.3,MacIntel,60,m,1,0.69159,,,,,,,,0.69159,1,,,,,,93,WORD,"ID",33,public,PUBLIC,m,,,,,,0.034205729,-0.414570312,0,0,0,,0,35,35,32,1,
,,,,,,,,,,,,,,,,,,5f0787e0905be01692f34950,2020-08-10_18h19.24.527,lexical_decision_task_MP,2020.1.3,MacIntel,60,z,1,0.69798,,,,,,,,0.69798,1,,,,,,476,NW,UN,33,photie,JOSTED,z,,,,,,0.034205729,-0.414570312,0,0,0,,0,36,36,415,1,
,,,,,,,,,,,,,,,,,,5f0787e0905be01692f34950,2020-08-10_18h19.24.527,lexical_decision_task_MP,2020.1.3,MacIntel,60,z,1,0.742305,,,,,,,,0.742305,1,,,,,,464,NW,UN,33,whivex,CHAITE,z,,,,,,0.034205729,-0.414570312,0,0,0,,0,37,37,403,1,
,,,,,,,,,,,,,,,,,,5f0787e0905be01692f34950,2020-08-10_18h19.24.527,lexical_decision_task_MP,2020.1.3,MacIntel,60,m,1,0.766955,,,,,,,,0.766955,1,,,,,,62,WORD,"ID",33,region,REGION,m,,,,,,0.034205729,-0.414570312,0,0,0,,0,38,38,1,1,
,,,,,,,,,,,,,,,,,,5f0787e0905be01692f34950,2020-08-10_18h19.24.527,lexical_decision_task_MP,2020.1.3,MacIntel,60,z,1,0.71808,,,,,,,,0.71808,1,,,,,,246,NW,UN,50,blarge,PIATON,z,,,,,,0.034205729,-0.414570312,0,0,0,,0,39,39,425,1,
,,,,,,,,,,,,,,,,,,5f0787e0905be01692f34950,2020-08-10_18h19.24.527,lexical_decision_task_MP,2020.1.3,MacIntel,60,m,1,0.86634,,,,,,,,0.86634,1,,,,,,224,WORD,UN,33,vulgar,PERIOD,m,,,,,,0.034205729,-0.414570312,0,0,0,,0,40,40,163,1,
,,,,,,,,,,,,,,,,,,5f0787e0905be01692f34950,2020-08-10_18h19.24.527,lexical_decision_task_MP,2020.1.3,MacIntel,60,m,1,0.82078,,,,,,,,0.82078,1,,,,,,109,WORD,"ID",33,wonder,WONDER,m,,,,,,0.034205729,-0.414570312,0,0,0,,0,41,41,48,1,
,,,,,,,,,,,,,,,,,,5f0787e0905be01692f34950,2020-08-10_18h19.24.527,lexical_decision_task_MP,2020.1.3,MacIntel,60,z,1,0.741855,,,,,,,,0.741855,1,,,,,,376,NW,"ID",50,iguare,IGUARE,z,,,,,,0.034205729,-0.414570312,0,0,0,,0,42,42,315,1,
,,,,,,,,,,,,,,,,,,5f0787e0905be01692f34950,2020-08-10_18h19.24.527,lexical_decision_task_MP,2020.1.3,MacIntel,60,m,1,0.95701,,,,,,,,0.95701,1,,,,,,216,WORD,UN,33,liquor,BEHALF,m,,,,,,0.034205729,-0.414570312,0,0,0,,0,43,43,155,1,
,,,,,,,,,,,,,,,,,,5f0787e0905be01692f34950,2020-08-10_18h19.24.527,lexical_decision_task_MP,2020.1.3,MacIntel,60,z,1,0.767925,,,,,,,,0.767925,1,,,,,,478,NW,UN,33,pebric,ACRISE,z,,,,,,0.034205729,-0.414570312,0,0,0,,0,44,44,417,1,
,,,,,,,,,,,,,,,,,,5f0787e0905be01692f34950,2020-08-10_18h19.24.527,lexical_decision_task_MP,2020.1.3,MacIntel,60,z,1,1.00253,,,,,,,,1.00253,1,,,,,,369,NW,"ID",50,wronch,WRONCH,z,,,,,,0.034205729,-0.414570312,0,0,0,,0,45,45,308,1,
,,,,,,,,,,,,,,,,,,5f0787e0905be01692f34950,2020-08-10_18h19.24.527,lexical_decision_task_MP,2020.1.3,MacIntel,60,m,1,0.79555,,,,,,,,0.79555,1,,,,,,157,WORD,"ID",50,dragon,DRAGON,m,,,,,,0.034205729,-0.414570312,0,0,0,,0,46,46,96,1,
,,,,,,,,,,,,,,,,,,5f0787e0905be01692f34950,2020-08-10_18h19.24.527,lexical_decision_task_MP,2020.1.3,MacIntel,60,z,1,1.060925,,,,,,,,1.060925,1,,,,,,398,NW,"ID",50,blunde,BLUNDE,z,,,,,,0.034205729,-0.414570312,0,0,0,,0,47,47,337,1,
,,,,,,,,,,,,,,,,,,5f0787e0905be01692f34950,2020-08-10_18h19.24.527,lexical_decision_task_MP,2020.1.3,MacIntel,60,z,1,1.142845,,,,,,,,1.142845,1,,,,,,345,NW,"ID",33,absend,ABSEND,z,,,,,,0.034205729,-0.414570312,0,0,0,,0,48,48,284,1,
,,,,,,,,,,,,,,,,,,5f0787e0905be01692f34950,2020-08-10_18h19.24.527,lexical_decision_task_MP,2020.1.3,MacIntel,60,m,1,0.7525,,,,,,,,0.7525,1,,,,,,89,WORD,"ID",33,permit,PERMIT,m,,,,,,0.034205729,-0.414570312,0,0,0,,0,49,49,28,1,
,,,,,,,,,,,,,,,,,,5f0787e0905be01692f34950,2020-08-10_18h19.24.527,lexical_decision_task_MP,2020.1.3,MacIntel,60,z,1,0.78406,,,,,,,,0.78406,1,,,,,,271,NW,UN,50,damilt,AUBRID,z,,,,,,0.034205729,-0.414570312,0,0,0,,0,50,50,450,1,
,,,,,,,,,,,,,,,,,,5f0787e0905be01692f34950,2020-08-10_18h19.24.527,lexical_decision_task_MP,2020.1.3,MacIntel,60,z,0,0.801955,,,,,,,,0.801955,0,,,,,,227,WORD,UN,33,master,SELDOM,m,,,,,,0.034205729,-0.414570312,0,0,0,,0,51,51,166,1,
,,,,,,,,,,,,,,,,,,5f0787e0905be01692f34950,2020-08-10_18h19.24.527,lexical_decision_task_MP,2020.1.3,MacIntel,60,m,1,0.8012,,,,,,,,0.8012,1,,,,,,102,WORD,"ID",33,direct,DIRECT,m,,,,,,0.034205729,-0.414570312,0,0,0,,0,52,52,41,1,
,,,,,,,,,,,,,,,,,,5f0787e0905be01692f34950,2020-08-10_18h19.24.527,lexical_decision_task_MP,2020.1.3,MacIntel,60,m,1,0.914795,,,,,,,,0.914795,1,,,,,,212,WORD,UN,33,squeal,VERIFY,m,,,,,,0.034205729,-0.414570312,0,0,0,,0,53,53,151,1,
,,,,,,,,,,,,,,,,,,5f0787e0905be01692f34950,2020-08-10_18h19.24.527,lexical_decision_task_MP,2020.1.3,MacIntel,60,z,1,0.801785,,,,,,,,0.801785,1,,,,,,311,NW,"ID",33,sproly,SPROLY,z,,,,,,0.034205729,-0.414570312,0,0,0,,0,54,54,250,1,
,,,,,,,,,,,,,,,,,,5f0787e0905be01692f34950,2020-08-10_18h19.24.527,lexical_decision_task_MP,2020.1.3,MacIntel,60,z,1,0.969235,,,,,,,,0.969235,1,,,,,,424,NW,UN,33,frudge,PRAILE,z,,,,,,0.034205729,-0.414570312,0,0,0,,0,55,55,363,1,
,,,,,,,,,,,,,,,,,,5f0787e0905be01692f34950,2020-08-10_18h19.24.527,lexical_decision_task_MP,2020.1.3,MacIntel,60,z,1,0.83879,,,,,,,,0.83879,1,,,,,,434,NW,UN,33,impurb,PITROM,z,,,,,,0.034205729,-0.414570312,0,0,0,,0,56,56,373,1,
,,,,,,,,,,,,,,,,,,5f0787e0905be01692f34950,2020-08-10_18h19.24.527,lexical_decision_task_MP,2020.1.3,MacIntel,60,z,1,0.80855,,,,,,,,0.80855,1,,,,,,344,NW,"ID",33,scrily,SCRILY,z,,,,,,0.034205729,-0.414570312,0,0,0,,0,57,57,283,1,
,,,,,,,,,,,,,,,,,,5f0787e0905be01692f34950,2020-08-10_18h19.24.527,lexical_decision_task_MP,2020.1.3,MacIntel,60,z,1,1.10747,,,,,,,,1.10747,1,,,,,,417,NW,"ID",50,earoud,EAROUD,z,,,,,,0.034205729,-0.414570312,0,0,0,,0,58,58,356,1,
,,,,,,,,,,,,,,,,,,5f0787e0905be01692f34950,2020-08-10_18h19.24.527,lexical_decision_task_MP,2020.1.3,MacIntel,60,m,1,0.683225,,,,,,,,0.683225,1,,,,,,147,WORD,"ID",50,garlic,GARLIC,m,,,,,,0.034205729,-0.414570312,0,0,0,,0,59,59,86,1,
,,,,,,,,,,,,,,,,,,5f0787e0905be01692f34950,2020-08-10_18h19.24.527,lexical_decision_task_MP,2020.1.3,MacIntel,60,m,1,0.774365,,,,,,,,0.774365,1,,,,,,148,WORD,"ID",50,custom,CUSTOM,m,,,,,,0.034205729,-0.414570312,0,0,0,,0,60,60,87,1,
,,,,,,,,,,,,,,,,,,5f0787e0905be01692f34950,2020-08-10_18h19.24.527,lexical_decision_task_MP,2020.1.3,MacIntel,60,m,1,0.768965,,,,,,,,0.768965,1,,,,,,133,WORD,"ID",50,chrome,CHROME,m,,,,,,0.034205729,-0.414570312,0,0,0,,0,61,61,72,1,
,,,,,,,,,,,,,,,,,,5f0787e0905be01692f34950,2020-08-10_18h19.24.527,lexical_decision_task_MP,2020.1.3,MacIntel,60,z,1,0.789205,,,,,,,,0.789205,1,,,,,,377,NW,"ID",50,injore,INJORE,z,,,,,,0.034205729,-0.414570312,0,0,0,,0,62,62,316,1,
,,,,,,,,,,,,,,,,,,5f0787e0905be01692f34950,2020-08-10_18h19.24.527,lexical_decision_task_MP,2020.1.3,MacIntel,60,m,1,0.899705,,,,,,,,0.899705,1,,,,,,188,WORD,UN,33,censor,SOCIAL,m,,,,,,0.034205729,-0.414570312,0,0,0,,0,63,63,127,1,
,,,,,,,,,,,,,,,,,,5f0787e0905be01692f34950,2020-08-10_18h19.24.527,lexical_decision_task_MP,2020.1.3,MacIntel,60,z,1,1.250005,,,,,,,,1.250005,1,,,,,,314,NW,"ID",33,sprine,SPRINE,z,,,,,,0.034205729,-0.414570312,0,0,0,,0,64,64,253,1,
,,,,,,,,,,,,,,,,,,5f0787e0905be01692f34950,2020-08-10_18h19.24.527,lexical_decision_task_MP,2020.1.3,MacIntel,60,z,1,1.01794,,,,,,,,1.01794,1,,,,,,452,NW,UN,33,bolvis,SURDEN,z,,,,,,0.034205729,-0.414570312,0,0,0,,0,65,65,391,1,
,,,,,,,,,,,,,,,,,,5f0787e0905be01692f34950,2020-08-10_18h19.24.527,lexical_decision_task_MP,2020.1.3,MacIntel,60,z,1,0.81662,,,,,,,,0.81662,1,,,,,,281,NW,UN,50,porlex,MELATY,z,,,,,,0.034205729,-0.414570312,0,0,0,,0,66,66,460,1,
,,,,,,,,,,,,,,,,,,5f0787e0905be01692f34950,2020-08-10_18h19.24.527,lexical_decision_task_MP,2020.1.3,MacIntel,60,m,1,0.7509,,,,,,,,0.7509,1,,,,,,161,WORD,"ID",50,pastor,PASTOR,m,,,,,,0.034205729,-0.414570312,0,0,0,,0,67,67,100,1,
,,,,,,,,,,,,,,,,,,5f0787e0905be01692f34950,2020-08-10_18h19.24.527,lexical_decision_task_MP,2020.1.3,MacIntel,60,z,1,0.806655,,,,,,,,0.806655,1,,,,,,340,NW,"ID",33,fiatch,FIATCH,z,,,,,,0.034205729,-0.414570312,0,0,0,,0,68,68,279,1,
,,,,,,,,,,,,,,,,,,5f0787e0905be01692f34950,2020-08-10_18h19.24.527,lexical_decision_task_MP,2020.1.3,MacIntel,60,z,1,0.9178,,,,,,,,0.9178,1,,,,,,439,NW,UN,33,saride,LIMPOR,z,,,,,,0.034205729,-0.414570312,0,0,0,,0,69,69,378,1,
,,,,,,,,,,,,,,,,,,5f0787e0905be01692f34950,2020-08-10_18h19.24.527,lexical_decision_task_MP,2020.1.3,MacIntel,60,m,0,0.75098,,,,,,,,0.75098,0,,,,,,303,NW,"ID",33,fiream,FIREAM,z,,,,,,0.034205729,-0.414570312,0,0,0,,0,70,70,242,1,
,,,,,,,,,,,,,,,,,,5f0787e0905be01692f34950,2020-08-10_18h19.24.527,lexical_decision_task_MP,2020.1.3,MacIntel,60,z,1,0.88485,,,,,,,,0.88485,1,,,,,,454,NW,UN,33,tondle,SCOUGE,z,,,,,,0.034205729,-0.414570312,0,0,0,,0,71,71,393,1,
,,,,,,,,,,,,,,,,,,5f0787e0905be01692f34950,2020-08-10_18h19.24.527,lexical_decision_task_MP,2020.1.3,MacIntel,60,m,1,0.783085,,,,,,,,0.783085,1,,,,,,226,WORD,UN,33,flower,CASINO,m,,,,,,0.034205729,-0.414570312,0,0,0,,0,72,72,165,1,
,,,,,,,,,,,,,,,,,,5f0787e0905be01692f34950,2020-08-10_18h19.24.527,lexical_decision_task_MP,2020.1.3,MacIntel,60,m,1,0.735615,,,,,,,,0.735615,1,,,,,,106,WORD,"ID",33,ransom,RANSOM,m,,,,,,0.034205729,-0.414570312,0,0,0,,0,73,73,45,1,
,,,,,,,,,,,,,,,,,,5f0787e0905be01692f34950,2020-08-10_18h19.24.527,lexical_decision_task_MP,2020.1.3,MacIntel,60,m,1,0.76777,,,,,,,,0.76777,1,,,,,,233,WORD,UN,33,clumsy,NATURE,m,,,,,,0.034205729,-0.414570312,0,0,0,,0,74,74,172,1,
,,,,,,,,,,,,,,,,,,5f0787e0905be01692f34950,2020-08-10_18h19.24.527,lexical_decision_task_MP,2020.1.3,MacIntel,60,m,1,0.76878,,,,,,,,0.76878,1,,,,,,205,WORD,UN,33,tailor,LOUNGE,m,,,,,,0.034205729,-0.414570312,0,0,0,,0,75,75,144,1,
,,,,,,,,,,,,,,,,,,5f0787e0905be01692f34950,2020-08-10_18h19.24.527,lexical_decision_task_MP,2020.1.3,MacIntel,60,m,1,0.75692,,,,,,,,0.75692,1,,,,,,84,WORD,"ID",33,mortal,MORTAL,m,,,,,,0.034205729,-0.414570312,0,0,0,,0,76,76,23,1,
,,,,,,,,,,,,,,,,,,5f0787e0905be01692f34950,2020-08-10_18h19.24.527,lexical_decision_task_MP,2020.1.3,MacIntel,60,z,1,0.755505,,,,,,,,0.755505,1,,,,,,393,NW,"ID",50,ganous,GANOUS,z,,,,,,0.034205729,-0.414570312,0,0,0,,0,77,77,332,1,
,,,,,,,,,,,,,,,,,,5f0787e0905be01692f34950,2020-08-10_18h19.24.527,lexical_decision_task_MP,2020.1.3,MacIntel,60,z,1,0.751865,,,,,,,,0.751865,1,,,,,,270,NW,UN,50,aubrid,WRIMSY,z,,,,,,0.034205729,-0.414570312,0,0,0,,0,78,78,449,1,
,,,,,,,,,,,,,,,,,,5f0787e0905be01692f34950,2020-08-10_18h19.24.527,lexical_decision_task_MP,2020.1.3,MacIntel,60,m,1,0.70037,,,,,,,,0.70037,1,,,,,,144,WORD,"ID",50,sponge,SPONGE,m,,,,,,0.034205729,-0.414570312,0,0,0,,0,79,79,83,1,
,,,,,,,,,,,,,,,,,,5f0787e0905be01692f34950,2020-08-10_18h19.24.527,lexical_decision_task_MP,2020.1.3,MacIntel,60,z,1,0.740795,,,,,,,,0.740795,1,,,,,,441,NW,UN,33,aboune,RASTOE,z,,,,,,0.034205729,-0.414570312,0,0,0,,0,80,80,380,1,
,,,,,,,,,,,,,,,,,,5f0787e0905be01692f34950,2020-08-10_18h19.24.527,lexical_decision_task_MP,2020.1.3,MacIntel,60,m,1,0.83443,,,,,,,,0.83443,1,,,,,,122,WORD,"ID",50,linger,LINGER,m,,,,,,0.034205729,-0.414570312,0,0,0,,0,81,81,61,1,
,,,,,,,,,,,,,,,,,,5f0787e0905be01692f34950,2020-08-10_18h19.24.527,lexical_decision_task_MP,2020.1.3,MacIntel,60,z,1,0.65086,,,,,,,,0.65086,1,,,,,,288,NW,UN,50,starby,YACEUP,z,,,,,,0.034205729,-0.414570312,0,0,0,,0,82,82,467,1,
,,,,,,,,,,,,,,,,,,5f0787e0905be01692f34950,2020-08-10_18h19.24.527,lexical_decision_task_MP,2020.1.3,MacIntel,60,z,1,0.872795,,,,,,,,0.872795,1,,,,,,460,NW,UN,33,justre,MINGAR,z,,,,,,0.034205729,-0.414570312,0,0,0,,0,83,83,399,1,
,,,,,,,,,,,,,,,,,,5f0787e0905be01692f34950,2020-08-10_18h19.24.527,lexical_decision_task_MP,2020.1.3,MacIntel,60,z,1,1.437115,,,,,,,,1.437115,1,,,,,,297,NW,UN,50,piergy,FERTIC,z,,,,,,0.034205729,-0.414570312,0,0,0,,0,84,84,476,1,
,,,,,,,,,,,,,,,,,,5f0787e0905be01692f34950,2020-08-10_18h19.24.527,lexical_decision_task_MP,2020.1.3,MacIntel,60,z,1,0.80602,,,,,,,,0.80602,1,,,,,,347,NW,"ID",33,kerift,KERIFT,z,,,,,,0.034205729,-0.414570312,0,0,0,,0,85,85,286,1,
,,,,,,,,,,,,,,,,,,5f0787e0905be01692f34950,2020-08-10_18h19.24.527,lexical_decision_task_MP,2020.1.3,MacIntel,60,m,1,0.668625,,,,,,,,0.668625,1,,,,,,54,WORD,UN,50,stroke,RAMBLE,m,,,,,,0.034205729,-0.414570312,0,0,0,,0,86,86,233,1,
,,,,,,,,,,,,,,,,,,5f0787e0905be01692f34950,2020-08-10_18h19.24.527,lexical_decision_task_MP,2020.1.3,MacIntel,60,m,1,0.677875,,,,,,,,0.677875,1,,,,,,155,WORD,"ID",50,lizard,LIZARD,m,,,,,,0.034205729,-0.414570312,0,0,0,,0,87,87,94,1,
,,,,,,,,,,,,,,,,,,5f0787e0905be01692f34950,2020-08-10_18h19.24.527,lexical_decision_task_MP,2020.1.3,MacIntel,60,m,1,0.800735,,,,,,,,0.800735,1,,,,,,22,WORD,UN,50,wealth,JOCKEY,m,,,,,,0.034205729,-0.414570312,0,0,0,,0,88,88,201,1,
,,,,,,,,,,,,,,,,,,5f0787e0905be01692f34950,2020-08-10_18h19.24.527,lexical_decision_task_MP,2020.1.3,MacIntel,60,m,1,0.757645,,,,,,,,0.757645,1,,,,,,112,WORD,"ID",33,breath,BREATH,m,,,,,,0.034205729,-0.414570312,0,0,0,,0,89,89,51,1,
,,,,,,,,,,,,,,,,,,5f0787e0905be01692f34950,2020-08-10_18h19.24.527,lexical_decision_task_MP,2020.1.3,MacIntel,60,z,1,0.758585,,,,,,,,0.758585,1,,,,,,294,NW,UN,50,gleath,INHORT,z,,,,,,0.034205729,-0.414570312,0,0,0,,0,90,90,473,1,
,,,,,,,,,,,,,,,,,,5f0787e0905be01692f34950,2020-08-10_18h19.24.527,lexical_decision_task_MP,2020.1.3,MacIntel,60,m,1,0.6698,,,,,,,,0.6698,1,,,,,,153,WORD,"ID",50,behold,BEHOLD,m,,,,,,0.034205729,-0.414570312,0,0,0,,0,91,91,92,1,
,,,,,,,,,,,,,,,,,,5f0787e0905be01692f34950,2020-08-10_18h19.24.527,lexical_decision_task_MP,2020.1.3,MacIntel,60,z,1,0.767365,,,,,,,,0.767365,1,,,,,,368,NW,"ID",50,hornal,HORNAL,z,,,,,,0.034205729,-0.414570312,0,0,0,,0,92,92,307,1,
,,,,,,,,,,,,,,,,,,5f0787e0905be01692f34950,2020-08-10_18h19.24.527,lexical_decision_task_MP,2020.1.3,MacIntel,60,z,1,0.720695,,,,,,,,0.720695,1,,,,,,346,NW,"ID",33,saudic,SAUDIC,z,,,,,,0.034205729,-0.414570312,0,0,0,,0,93,93,285,1,
,,,,,,,,,,,,,,,,,,5f0787e0905be01692f34950,2020-08-10_18h19.24.527,lexical_decision_task_MP,2020.1.3,MacIntel,60,z,1,0.97708,,,,,,,,0.97708,1,,,,,,386,NW,"ID",50,ancust,ANCUST,z,,,,,,0.034205729,-0.414570312,0,0,0,,0,94,94,325,1,
,,,,,,,,,,,,,,,,,,5f0787e0905be01692f34950,2020-08-10_18h19.24.527,lexical_decision_task_MP,2020.1.3,MacIntel,60,z,1,0.66989,,,,,,,,0.66989,1,,,,,,422,NW,UN,33,streld,ALCOUD,z,,,,,,0.034205729,-0.414570312,0,0,0,,0,95,95,361,1,
,,,,,,,,,,,,,,,,,,5f0787e0905be01692f34950,2020-08-10_18h19.24.527,lexical_decision_task_MP,2020.1.3,MacIntel,60,z,1,0.836445,,,,,,,,0.836445,1,,,,,,410,NW,"ID",50,tunory,TUNORY,z,,,,,,0.034205729,-0.414570312,0,0,0,,0,96,96,349,1,
,,,,,,,,,,,,,,,,,,5f0787e0905be01692f34950,2020-08-10_18h19.24.527,lexical_decision_task_MP,2020.1.3,MacIntel,60,z,1,0.770525,,,,,,,,0.770525,1,,,,,,362,NW,"ID",50,tireau,TIREAU,z,,,,,,0.034205729,-0.414570312,0,0,0,,0,97,97,301,1,
,,,,,,,,,,,,,,,,,,5f0787e0905be01692f34950,2020-08-10_18h19.24.527,lexical_decision_task_MP,2020.1.3,MacIntel,60,z,1,0.733275,,,,,,,,0.733275,1,,,,,,278,NW,UN,50,celond,UNIGHS,z,,,,,,0.034205729,-0.414570312,0,0,0,,0,98,98,457,1,
,,,,,,,,,,,,,,,,,,5f0787e0905be01692f34950,2020-08-10_18h19.24.527,lexical_decision_task_MP,2020.1.3,MacIntel,60,z,1,0.648095,,,,,,,,0.648095,1,,,,,,406,NW,"ID",50,nouply,NOUPLY,z,,,,,,0.034205729,-0.414570312,0,0,0,,0,99,99,345,1,
,,,,,,,,,,,,,,,,,,5f0787e0905be01692f34950,2020-08-10_18h19.24.527,lexical_decision_task_MP,2020.1.3,MacIntel,60,m,1,0.886665,,,,,,,,0.886665,1,,,,,,239,WORD,UN,33,forest,LUMBER,m,,,,,,0.034205729,-0.414570312,0,0,0,,0,100,100,178,1,
,,,,,,,,,,,,,,,,,,5f0787e0905be01692f34950,2020-08-10_18h19.24.527,lexical_decision_task_MP,2020.1.3,MacIntel,60,m,1,0.83301,,,,,,,,0.83301,1,,,,,,172,WORD,"ID",50,patrol,PATROL,m,,,,,,0.034205729,-0.414570312,0,0,0,,0,101,101,111,1,
,,,,,,,,,,,,,,,,,,5f0787e0905be01692f34950,2020-08-10_18h19.24.527,lexical_decision_task_MP,2020.1.3,MacIntel,60,m,1,0.77127,,,,,,,,0.77127,1,,,,,,201,WORD,UN,33,factor,ADMIRE,m,,,,,,0.034205729,-0.414570312,0,0,0,,0,102,102,140,1,
,,,,,,,,,,,,,,,,,,5f0787e0905be01692f34950,2020-08-10_18h19.24.527,lexical_decision_task_MP,2020.1.3,MacIntel,60,m,1,0.906095,,,,,,,,0.906095,1,,,,,,225,WORD,UN,33,casino,VULGAR,m,,,,,,0.034205729,-0.414570312,0,0,0,,0,103,103,164,1,
,,,,,,,,,,,,,,,,,,5f0787e0905be01692f34950,2020-08-10_18h19.24.527,lexical_decision_task_MP,2020.1.3,MacIntel,60,z,1,0.773875,,,,,,,,0.773875,1,,,,,,342,NW,"ID",33,randow,RANDOW,z,,,,,,0.034205729,-0.414570312,0,0,0,,0,104,104,281,1,
,,,,,,,,,,,,,,,,,,5f0787e0905be01692f34950,2020-08-10_18h19.24.527,lexical_decision_task_MP,2020.1.3,MacIntel,60,z,1,0.70229,,,,,,,,0.70229,1,,,,,,306,NW,"ID",33,sounge,SOUNGE,z,,,,,,0.034205729,-0.414570312,0,0,0,,0,105,105,245,1,
,,,,,,,,,,,,,,,,,,5f0787e0905be01692f34950,2020-08-10_18h19.24.527,lexical_decision_task_MP,2020.1.3,MacIntel,60,z,1,1.052075,,,,,,,,1.052075,1,,,,,,399,NW,"ID",50,fouret,FOURET,z,,,,,,0.034205729,-0.414570312,0,0,0,,0,106,106,338,1,
,,,,,,,,,,,,,,,,,,5f0787e0905be01692f34950,2020-08-10_18h19.24.527,lexical_decision_task_MP,2020.1.3,MacIntel,60,z,1,0.698465,,,,,,,,0.698465,1,,,,,,407,NW,"ID",50,suiver,SUIVER,z,,,,,,0.034205729,-0.414570312,0,0,0,,0,107,107,346,1,
,,,,,,,,,,,,,,,,,,5f0787e0905be01692f34950,2020-08-10_18h19.24.527,lexical_decision_task_MP,2020.1.3,MacIntel,60,m,1,0.825075,,,,,,,,0.825075,1,,,,,,178,WORD,"ID",50,inform,INFORM,m,,,,,,0.034205729,-0.414570312,0,0,0,,0,108,108,117,1,
,,,,,,,,,,,,,,,,,,5f0787e0905be01692f34950,2020-08-10_18h19.24.527,lexical_decision_task_MP,2020.1.3,MacIntel,60,z,1,1.12191,,,,,,,,1.12191,1,,,,,,248,NW,UN,50,batrol,STROLE,z,,,,,,0.034205729,-0.414570312,0,0,0,,0,109,109,427,1,
,,,,,,,,,,,,,,,,,,5f0787e0905be01692f34950,2020-08-10_18h19.24.527,lexical_decision_task_MP,2020.1.3,MacIntel,60,m,1,0.740665,,,,,,,,0.740665,1,,,,,,82,WORD,"ID",33,stigma,STIGMA,m,,,,,,0.034205729,-0.414570312,0,0,0,,0,110,110,21,1,
,,,,,,,,,,,,,,,,,,5f0787e0905be01692f34950,2020-08-10_18h19.24.527,lexical_decision_task_MP,2020.1.3,MacIntel,60,m,1,0.784365,,,,,,,,0.784365,1,,,,,,209,WORD,UN,33,monkey,SEARCH,m,,,,,,0.034205729,-0.414570312,0,0,0,,0,111,111,148,1,
,,,,,,,,,,,,,,,,,,5f0787e0905be01692f34950,2020-08-10_18h19.24.527,lexical_decision_task_MP,2020.1.3,MacIntel,60,m,1,0.673155,,,,,,,,0.673155,1,,,,,,235,WORD,UN,33,pirate,GRUMPY,m,,,,,,0.034205729,-0.414570312,0,0,0,,0,112,112,174,1,
,,,,,,,,,,,,,,,,,,5f0787e0905be01692f34950,2020-08-10_18h19.24.527,lexical_decision_task_MP,2020.1.3,MacIntel,60,z,1,1.35442,,,,,,,,1.35442,1,,,,,,319,NW,"ID",33,zomber,ZOMBER,z,,,,,,0.034205729,-0.414570312,0,0,0,,0,113,113,258,1,
,,,,,,,,,,,,,,,,,,5f0787e0905be01692f34950,2020-08-10_18h19.24.527,lexical_decision_task_MP,2020.1.3,MacIntel,60,m,1,0.784215,,,,,,,,0.784215,1,,,,,,12,WORD,UN,50,strive,ORANGE,m,,,,,,0.034205729,-0.414570312,0,0,0,,0,114,114,191,1,
,,,,,,,,,,,,,,,,,,5f0787e0905be01692f34950,2020-08-10_18h19.24.527,lexical_decision_task_MP,2020.1.3,MacIntel,60,z,1,0.6531,,,,,,,,0.6531,1,,,,,,477,NW,UN,33,lobush,PHOTIE,z,,,,,,0.034205729,-0.414570312,0,0,0,,0,115,115,416,1,
,,,,,,,,,,,,,,,,,,5f0787e0905be01692f34950,2020-08-10_18h19.24.527,lexical_decision_task_MP,2020.1.3,MacIntel,60,m,1,0.733135,,,,,,,,0.733135,1,,,,,,184,WORD,UN,33,bother,SLEAZY,m,,,,,,0.034205729,-0.414570312,0,0,0,,0,116,116,123,1,
,,,,,,,,,,,,,,,,,,5f0787e0905be01692f34950,2020-08-10_18h19.24.527,lexical_decision_task_MP,2020.1.3,MacIntel,60,z,1,0.73905,,,,,,,,0.73905,1,,,,,,299,NW,UN,50,yarion,STURCH,z,,,,,,0.034205729,-0.414570312,0,0,0,,0,117,117,478,1,
,,,,,,,,,,,,,,,,,,5f0787e0905be01692f34950,2020-08-10_18h19.24.527,lexical_decision_task_MP,2020.1.3,MacIntel,60,z,1,0.74025,,,,,,,,0.74025,1,,,,,,388,NW,"ID",50,cragin,CRAGIN,z,,,,,,0.034205729,-0.414570312,0,0,0,,0,118,118,327,1,
,,,,,,,,,,,,,,,,,,5f0787e0905be01692f34950,2020-08-10_18h19.24.527,lexical_decision_task_MP,2020.1.3,MacIntel,60,z,1,0.721415,,,,,,,,0.721415,1,,,,,,335,NW,"ID",33,desion,DESION,z,,,,,,0.034205729,-0.414570312,0,0,0,,0,119,119,274,1,
,,,,,,,,,,,,,,,,,,5f0787e0905be01692f34950,2020-08-10_18h19.24.527,lexical_decision_task_MP,2020.1.3,MacIntel,60,m,1,0.623495,,,,,,,,0.623495,1,,,,,,123,WORD,"ID",50,strike,STRIKE,m,,,,,,0.034205729,-0.414570312,0,0,0,space,0,120,120,62,1,92.63806
,,,,,,,,,,,,,,,,,,5f0787e0905be01692f34950,2020-08-10_18h19.24.527,lexical_decision_task_MP,2020.1.3,MacIntel,60,m,1,0.91479,,,,,,,,0.91479,1,,,,,,63,WORD,"ID",33,launch,LAUNCH,m,,,,,,0.034205729,-0.414570312,0,0,0,,0,121,121,2,1,
,,,,,,,,,,,,,,,,,,5f0787e0905be01692f34950,2020-08-10_18h19.24.527,lexical_decision_task_MP,2020.1.3,MacIntel,60,z,1,0.648075,,,,,,,,0.648075,1,,,,,,414,NW,"ID",50,serbol,SERBOL,z,,,,,,0.034205729,-0.414570312,0,0,0,,0,122,122,353,1,
,,,,,,,,,,,,,,,,,,5f0787e0905be01692f34950,2020-08-10_18h19.24.527,lexical_decision_task_MP,2020.1.3,MacIntel,60,z,1,0.833025,,,,,,,,0.833025,1,,,,,,332,NW,"ID",33,vangue,VANGUE,z,,,,,,0.034205729,-0.414570312,0,0,0,,0,123,123,271,1,
,,,,,,,,,,,,,,,,,,5f0787e0905be01692f34950,2020-08-10_18h19.24.527,lexical_decision_task_MP,2020.1.3,MacIntel,60,m,1,0.647645,,,,,,,,0.647645,1,,,,,,206,WORD,UN,33,wreath,TAILOR,m,,,,,,0.034205729,-0.414570312,0,0,0,,0,124,124,145,1,
,,,,,,,,,,,,,,,,,,5f0787e0905be01692f34950,2020-08-10_18h19.24.527,lexical_decision_task_MP,2020.1.3,MacIntel,60,z,1,0.818035,,,,,,,,0.818035,1,,,,,,372,NW,"ID",50,ramily,RAMILY,z,,,,,,0.034205729,-0.414570312,0,0,0,,0,125,125,311,1,
,,,,,,,,,,,,,,,,,,5f0787e0905be01692f34950,2020-08-10_18h19.24.527,lexical_decision_task_MP,2020.1.3,MacIntel,60,z,1,1.01632,,,,,,,,1.01632,1,,,,,,373,NW,"ID",50,bigent,BIGENT,z,,,,,,0.034205729,-0.414570312,0,0,0,,0,126,126,312,1,
,,,,,,,,,,,,,,,,,,5f0787e0905be01692f34950,2020-08-10_18h19.24.527,lexical_decision_task_MP,2020.1.3,MacIntel,60,z,1,0.85558,,,,,,,,0.85558,1,,,,,,296,NW,UN,50,fertic,BEINCH,z,,,,,,0.034205729,-0.414570312,0,0,0,,0,127,127,475,1,
,,,,,,,,,,,,,,,,,,5f0787e0905be01692f34950,2020-08-10_18h19.24.527,lexical_decision_task_MP,2020.1.3,MacIntel,60,m,1,0.817365,,,,,,,,0.817365,1,,,,,,104,WORD,"ID",33,studio,STUDIO,m,,,,,,0.034205729,-0.414570312,0,0,0,,0,128,128,43,1,
,,,,,,,,,,,,,,,,,,5f0787e0905be01692f34950,2020-08-10_18h19.24.527,lexical_decision_task_MP,2020.1.3,MacIntel,60,m,1,0.84875,,,,,,,,0.84875,1,,,,,,162,WORD,"ID",50,candle,CANDLE,m,,,,,,0.034205729,-0.414570312,0,0,0,,0,129,129,101,1,
,,,,,,,,,,,,,,,,,,5f0787e0905be01692f34950,2020-08-10_18h19.24.527,lexical_decision_task_MP,2020.1.3,MacIntel,60,m,1,0.850215,,,,,,,,0.850215,1,,,,,,141,WORD,"ID",50,orphan,ORPHAN,m,,,,,,0.034205729,-0.414570312,0,0,0,,0,130,130,80,1,
,,,,,,,,,,,,,,,,,,5f0787e0905be01692f34950,2020-08-10_18h19.24.527,lexical_decision_task_MP,2020.1.3,MacIntel,60,z,1,0.764835,,,,,,,,0.764835,1,,,,,,413,NW,"ID",50,equats,EQUATS,z,,,,,,0.034205729,-0.414570312,0,0,0,,0,131,131,352,1,
,,,,,,,,,,,,,,,,,,5f0787e0905be01692f34950,2020-08-10_18h19.24.527,lexical_decision_task_MP,2020.1.3,MacIntel,60,m,1,0.817985,,,,,,,,0.817985,1,,,,,,52,WORD,UN,50,police,IMPOSE,m,,,,,,0.034205729,-0.414570312,0,0,0,,0,132,132,231,1,
,,,,,,,,,,,,,,,,,,5f0787e0905be01692f34950,2020-08-10_18h19.24.527,lexical_decision_task_MP,2020.1.3,MacIntel,60,m,1,0.73969,,,,,,,,0.73969,1,,,,,,46,WORD,UN,50,income,SINGLE,m,,,,,,0.034205729,-0.414570312,0,0,0,,0,133,133,225,1,
,,,,,,,,,,,,,,,,,,5f0787e0905be01692f34950,2020-08-10_18h19.24.527,lexical_decision_task_MP,2020.1.3,MacIntel,60,z,1,0.78796,,,,,,,,0.78796,1,,,,,,338,NW,"ID",33,wreash,WREASH,z,,,,,,0.034205729,-0.414570312,0,0,0,,0,134,134,277,1,
,,,,,,,,,,,,,,,,,,5f0787e0905be01692f34950,2020-08-10_18h19.24.527,lexical_decision_task_MP,2020.1.3,MacIntel,60,z,1,0.749455,,,,,,,,0.749455,1,,,,,,304,NW,"ID",33,cludie,CLUDIE,z,,,,,,0.034205729,-0.414570312,0,0,0,,0,135,135,243,1,
,,,,,,,,,,,,,,,,,,5f0787e0905be01692f34950,2020-08-10_18h19.24.527,lexical_decision_task_MP,2020.1.3,MacIntel,60,m,1,0.77033,,,,,,,,0.77033,1,,,,,,114,WORD,"ID",33,placid,PLACID,m,,,,,,0.034205729,-0.414570312,0,0,0,,0,136,136,53,1,
,,,,,,,,,,,,,,,,,,5f0787e0905be01692f34950,2020-08-10_18h19.24.527,lexical_decision_task_MP,2020.1.3,MacIntel,60,z,1,0.70414,,,,,,,,0.70414,1,,,,,,389,NW,"ID",50,witmer,WITMER,z,,,,,,0.034205729,-0.414570312,0,0,0,,0,137,137,328,1,
,,,,,,,,,,,,,,,,,,5f0787e0905be01692f34950,2020-08-10_18h19.24.527,lexical_decision_task_MP,2020.1.3,MacIntel,60,m,1,0.67107,,,,,,,,0.67107,1,,,,,,8,WORD,UN,50,hustle,ABRUPT,m,,,,,,0.034205729,-0.414570312,0,0,0,,0,138,138,187,1,
,,,,,,,,,,,,,,,,,,5f0787e0905be01692f34950,2020-08-10_18h19.24.527,lexical_decision_task_MP,2020.1.3,MacIntel,60,m,1,0.63784,,,,,,,,0.63784,1,,,,,,47,WORD,UN,50,walnut,INCOME,m,,,,,,0.034205729,-0.414570312,0,0,0,,0,139,139,226,1,
,,,,,,,,,,,,,,,,,,5f0787e0905be01692f34950,2020-08-10_18h19.24.527,lexical_decision_task_MP,2020.1.3,MacIntel,60,m,1,0.67171,,,,,,,,0.67171,1,,,,,,196,WORD,UN,33,stream,CREDIT,m,,,,,,0.034205729,-0.414570312,0,0,0,,0,140,140,135,1,
,,,,,,,,,,,,,,,,,,5f0787e0905be01692f34950,2020-08-10_18h19.24.527,lexical_decision_task_MP,2020.1.3,MacIntel,60,m,1,1.17815,,,,,,,,1.17815,1,,,,,,90,WORD,"ID",33,relish,RELISH,m,,,,,,0.034205729,-0.414570312,0,0,0,,0,141,141,29,1,
,,,,,,,,,,,,,,,,,,5f0787e0905be01692f34950,2020-08-10_18h19.24.527,lexical_decision_task_MP,2020.1.3,MacIntel,60,m,1,0.681895,,,,,,,,0.681895,1,,,,,,92,WORD,"ID",33,strand,STRAND,m,,,,,,0.034205729,-0.414570312,0,0,0,,0,142,142,31,1,
,,,,,,,,,,,,,,,,,,5f0787e0905be01692f34950,2020-08-10_18h19.24.527,lexical_decision_task_MP,2020.1.3,MacIntel,60,m,1,0.632065,,,,,,,,0.632065,1,,,,,,43,WORD,UN,50,foster,TONGUE,m,,,,,,0.034205729,-0.414570312,0,0,0,,0,143,143,222,1,
,,,,,,,,,,,,,,,,,,5f0787e0905be01692f34950,2020-08-10_18h19.24.527,lexical_decision_task_MP,2020.1.3,MacIntel,60,m,1,0.52132,,,,,,,,0.52132,1,,,,,,119,WORD,"ID",33,spider,SPIDER,m,,,,,,0.034205729,-0.414570312,0,0,0,,0,144,144,58,1,
,,,,,,,,,,,,,,,,,,5f0787e0905be01692f34950,2020-08-10_18h19.24.527,lexical_decision_task_MP,2020.1.3,MacIntel,60,z,1,0.60612,,,,,,,,0.60612,1,,,,,,426,NW,UN,33,schind,URIVEL,z,,,,,,0.034205729,-0.414570312,0,0,0,,0,145,145,365,1,
,,,,,,,,,,,,,,,,,,5f0787e0905be01692f34950,2020-08-10_18h19.24.527,lexical_decision_task_MP,2020.1.3,MacIntel,60,m,1,1.552165,,,,,,,,1.552165,1,,,,,,236,WORD,UN,33,grumpy,PIRATE,m,,,,,,0.034205729,-0.414570312,0,0,0,,0,146,146,175,1,
,,,,,,,,,,,,,,,,,,5f0787e0905be01692f34950,2020-08-10_18h19.24.527,lexical_decision_task_MP,2020.1.3,MacIntel,60,z,1,0.76923,,,,,,,,0.76923,1,,,,,,267,NW,UN,50,packes,PASINK,z,,,,,,0.034205729,-0.414570312,0,0,0,,0,147,147,446,1,
,,,,,,,,,,,,,,,,,,5f0787e0905be01692f34950,2020-08-10_18h19.24.527,lexical_decision_task_MP,2020.1.3,MacIntel,60,m,1,0.57407,,,,,,,,0.57407,1,,,,,,136,WORD,"ID",50,bleach,BLEACH,m,,,,,,0.034205729,-0.414570312,0,0,0,,0,148,148,75,1,
,,,,,,,,,,,,,,,,,,5f0787e0905be01692f34950,2020-08-10_18h19.24.527,lexical_decision_task_MP,2020.1.3,MacIntel,60,m,1,0.914945,,,,,,,,0.914945,1,,,,,,222,WORD,UN,33,export,HINDER,m,,,,,,0.034205729,-0.414570312,0,0,0,,0,149,149,161,1,
,,,,,,,,,,,,,,,,,,5f0787e0905be01692f34950,2020-08-10_18h19.24.527,lexical_decision_task_MP,2020.1.3,MacIntel,60,z,1,0.82617,,,,,,,,0.82617,1,,,,,,351,NW,"ID",33,tiesch,TIESCH,z,,,,,,0.034205729,-0.414570312,0,0,0,,0,150,150,290,1,
,,,,,,,,,,,,,,,,,,5f0787e0905be01692f34950,2020-08-10_18h19.24.527,lexical_decision_task_MP,2020.1.3,MacIntel,60,m,1,0.61718,,,,,,,,0.61718,1,,,,,,230,WORD,UN,33,mother,FRINGE,m,,,,,,0.034205729,-0.414570312,0,0,0,,0,151,151,169,1,
,,,,,,,,,,,,,,,,,,5f0787e0905be01692f34950,2020-08-10_18h19.24.527,lexical_decision_task_MP,2020.1.3,MacIntel,60,m,1,0.568755,,,,,,,,0.568755,1,,,,,,198,WORD,UN,33,invoke,WICKED,m,,,,,,0.034205729,-0.414570312,0,0,0,,0,152,152,137,1,
,,,,,,,,,,,,,,,,,,5f0787e0905be01692f34950,2020-08-10_18h19.24.527,lexical_decision_task_MP,2020.1.3,MacIntel,60,z,1,1.289095,,,,,,,,1.289095,1,,,,,,458,NW,UN,33,hocite,BARCET,z,,,,,,0.034205729,-0.414570312,0,0,0,,0,153,153,397,1,
,,,,,,,,,,,,,,,,,,5f0787e0905be01692f34950,2020-08-10_18h19.24.527,lexical_decision_task_MP,2020.1.3,MacIntel,60,z,1,0.683325,,,,,,,,0.683325,1,,,,,,255,NW,UN,50,inlors,APIGHT,z,,,,,,0.034205729,-0.414570312,0,0,0,,0,154,154,434,1,
,,,,,,,,,,,,,,,,,,5f0787e0905be01692f34950,2020-08-10_18h19.24.527,lexical_decision_task_MP,2020.1.3,MacIntel,60,z,1,0.809305,,,,,,,,0.809305,1,,,,,,245,NW,UN,50,piaton,ANOUGS,z,,,,,,0.034205729,-0.414570312,0,0,0,,0,155,155,424,1,
,,,,,,,,,,,,,,,,,,5f0787e0905be01692f34950,2020-08-10_18h19.24.527,lexical_decision_task_MP,2020.1.3,MacIntel,60,z,1,0.68151,,,,,,,,0.68151,1,,,,,,378,NW,"ID",50,shrile,SHRILE,z,,,,,,0.034205729,-0.414570312,0,0,0,,0,156,156,317,1,
,,,,,,,,,,,,,,,,,,5f0787e0905be01692f34950,2020-08-10_18h19.24.527,lexical_decision_task_MP,2020.1.3,MacIntel,60,m,1,0.608795,,,,,,,,0.608795,1,,,,,,17,WORD,UN,50,humble,CHARGE,m,,,,,,0.034205729,-0.414570312,0,0,0,,0,157,157,196,1,
,,,,,,,,,,,,,,,,,,5f0787e0905be01692f34950,2020-08-10_18h19.24.527,lexical_decision_task_MP,2020.1.3,MacIntel,60,z,1,0.81789,,,,,,,,0.81789,1,,,,,,243,NW,UN,50,eatric,MUSIED,z,,,,,,0.034205729,-0.414570312,0,0,0,,0,158,158,422,1,
,,,,,,,,,,,,,,,,,,5f0787e0905be01692f34950,2020-08-10_18h19.24.527,lexical_decision_task_MP,2020.1.3,MacIntel,60,z,0,0.967975,,,,,,,,0.967975,0,,,,,,186,WORD,UN,33,course,PORTAL,m,,,,,,0.034205729,-0.414570312,0,0,0,,0,159,159,125,1,
,,,,,,,,,,,,,,,,,,5f0787e0905be01692f34950,2020-08-10_18h19.24.527,lexical_decision_task_MP,2020.1.3,MacIntel,60,m,1,0.58194,,,,,,,,0.58194,1,,,,,,105,WORD,"ID",33,number,NUMBER,m,,,,,,0.034205729,-0.414570312,0,0,0,,0,160,160,44,1,
,,,,,,,,,,,,,,,,,,5f0787e0905be01692f34950,2020-08-10_18h19.24.527,lexical_decision_task_MP,2020.1.3,MacIntel,60,z,1,0.943695,,,,,,,,0.943695,1,,,,,,321,NW,"ID",33,miator,MIATOR,z,,,,,,0.034205729,-0.414570312,0,0,0,,0,161,161,260,1,
,,,,,,,,,,,,,,,,,,5f0787e0905be01692f34950,2020-08-10_18h19.24.527,lexical_decision_task_MP,2020.1.3,MacIntel,60,z,1,0.667965,,,,,,,,0.667965,1,,,,,,317,NW,"ID",33,worbal,WORBAL,z,,,,,,0.034205729,-0.414570312,0,0,0,,0,162,162,256,1,
,,,,,,,,,,,,,,,,,,5f0787e0905be01692f34950,2020-08-10_18h19.24.527,lexical_decision_task_MP,2020.1.3,MacIntel,60,z,1,0.71684,,,,,,,,0.71684,1,,,,,,265,NW,UN,50,varmit,DISTAR,z,,,,,,0.034205729,-0.414570312,0,0,0,,0,163,163,444,1,
,,,,,,,,,,,,,,,,,,5f0787e0905be01692f34950,2020-08-10_18h19.24.527,lexical_decision_task_MP,2020.1.3,MacIntel,60,z,1,0.66684,,,,,,,,0.66684,1,,,,,,415,NW,"ID",50,higsta,HIGSTA,z,,,,,,0.034205729,-0.414570312,0,0,0,,0,164,164,354,1,
,,,,,,,,,,,,,,,,,,5f0787e0905be01692f34950,2020-08-10_18h19.24.527,lexical_decision_task_MP,2020.1.3,MacIntel,60,z,1,0.77081,,,,,,,,0.77081,1,,,,,,420,NW,"ID",50,gushop,GUSHOP,z,,,,,,0.034205729,-0.414570312,0,0,0,,0,165,165,359,1,
,,,,,,,,,,,,,,,,,,5f0787e0905be01692f34950,2020-08-10_18h19.24.527,lexical_decision_task_MP,2020.1.3,MacIntel,60,z,1,0.7515,,,,,,,,0.7515,1,,,,,,260,NW,UN,50,stunch,UNJECT,z,,,,,,0.034205729,-0.414570312,0,0,0,,0,166,166,439,1,
,,,,,,,,,,,,,,,,,,5f0787e0905be01692f34950,2020-08-10_18h19.24.527,lexical_decision_task_MP,2020.1.3,MacIntel,60,z,1,0.633155,,,,,,,,0.633155,1,,,,,,385,NW,"ID",50,veigma,VEIGMA,z,,,,,,0.034205729,-0.414570312,0,0,0,,0,167,167,324,1,
,,,,,,,,,,,,,,,,,,5f0787e0905be01692f34950,2020-08-10_18h19.24.527,lexical_decision_task_MP,2020.1.3,MacIntel,60,m,1,0.78275,,,,,,,,0.78275,1,,,,,,116,WORD,"ID",33,tumble,TUMBLE,m,,,,,,0.034205729,-0.414570312,0,0,0,,0,168,168,55,1,
,,,,,,,,,,,,,,,,,,5f0787e0905be01692f34950,2020-08-10_18h19.24.527,lexical_decision_task_MP,2020.1.3,MacIntel,60,m,1,0.584565,,,,,,,,0.584565,1,,,,,,143,WORD,"ID",50,reason,REASON,m,,,,,,0.034205729,-0.414570312,0,0,0,,0,169,169,82,1,
,,,,,,,,,,,,,,,,,,5f0787e0905be01692f34950,2020-08-10_18h19.24.527,lexical_decision_task_MP,2020.1.3,MacIntel,60,z,1,0.645385,,,,,,,,0.645385,1,,,,,,253,NW,UN,50,varosh,RESAIT,z,,,,,,0.034205729,-0.414570312,0,0,0,,0,170,170,432,1,
,,,,,,,,,,,,,,,,,,5f0787e0905be01692f34950,2020-08-10_18h19.24.527,lexical_decision_task_MP,2020.1.3,MacIntel,60,m,1,0.554255,,,,,,,,0.554255,1,,,,,,81,WORD,"ID",33,friend,FRIEND,m,,,,,,0.034205729,-0.414570312,0,0,0,,0,171,171,20,1,
,,,,,,,,,,,,,,,,,,5f0787e0905be01692f34950,2020-08-10_18h19.24.527,lexical_decision_task_MP,2020.1.3,MacIntel,60,m,1,0.65097,,,,,,,,0.65097,1,,,,,,154,WORD,"ID",50,author,AUTHOR,m,,,,,,0.034205729,-0.414570312,0,0,0,,0,172,172,93,1,
,,,,,,,,,,,,,,,,,,5f0787e0905be01692f34950,2020-08-10_18h19.24.527,lexical_decision_task_MP,2020.1.3,MacIntel,60,z,1,0.607135,,,,,,,,0.607135,1,,,,,,286,NW,UN,50,nymbel,RELDON,z,,,,,,0.034205729,-0.414570312,0,0,0,,0,173,173,465,1,
,,,,,,,,,,,,,,,,,,5f0787e0905be01692f34950,2020-08-10_18h19.24.527,lexical_decision_task_MP,2020.1.3,MacIntel,60,z,1,0.616025,,,,,,,,0.616025,1,,,,,,252,NW,UN,50,resait,STAPOD,z,,,,,,0.034205729,-0.414570312,0,0,0,,0,174,174,431,1,
,,,,,,,,,,,,,,,,,,5f0787e0905be01692f34950,2020-08-10_18h19.24.527,lexical_decision_task_MP,2020.1.3,MacIntel,60,z,1,0.51775,,,,,,,,0.51775,1,,,,,,300,NW,UN,50,smenco,YARION,z,,,,,,0.034205729,-0.414570312,0,0,0,,0,175,175,479,1,
,,,,,,,,,,,,,,,,,,5f0787e0905be01692f34950,2020-08-10_18h19.24.527,lexical_decision_task_MP,2020.1.3,MacIntel,60,m,1,0.576905,,,,,,,,0.576905,1,,,,,,124,WORD,"ID",50,blouse,BLOUSE,m,,,,,,0.034205729,-0.414570312,0,0,0,,0,176,176,63,1,
,,,,,,,,,,,,,,,,,,5f0787e0905be01692f34950,2020-08-10_18h19.24.527,lexical_decision_task_MP,2020.1.3,MacIntel,60,m,1,0.600025,,,,,,,,0.600025,1,,,,,,13,WORD,UN,50,almost,STRIVE,m,,,,,,0.034205729,-0.414570312,0,0,0,,0,177,177,192,1,
,,,,,,,,,,,,,,,,,,5f0787e0905be01692f34950,2020-08-10_18h19.24.527,lexical_decision_task_MP,2020.1.3,MacIntel,60,m,1,0.616955,,,,,,,,0.616955,1,,,,,,55,WORD,UN,50,ambush,STROKE,m,,,,,,0.034205729,-0.414570312,0,0,0,,0,178,178,234,1,
,,,,,,,,,,,,,,,,,,5f0787e0905be01692f34950,2020-08-10_18h19.24.527,lexical_decision_task_MP,2020.1.3,MacIntel,60,z,1,0.58431,,,,,,,,0.58431,1,,,,,,350,NW,"ID",33,nagurs,NAGURS,z,,,,,,0.034205729,-0.414570312,0,0,0,,0,179,179,289,1,
,,,,,,,,,,,,,,,,,,5f0787e0905be01692f34950,2020-08-10_18h19.24.527,lexical_decision_task_MP,2020.1.3,MacIntel,60,z,1,0.78777,,,,,,,,0.78777,1,,,,,,453,NW,UN,33,scouge,BOLVIS,z,,,,,,0.034205729,-0.414570312,0,0,0,,0,180,180,392,1,
,,,,,,,,,,,,,,,,,,5f0787e0905be01692f34950,2020-08-10_18h19.24.527,lexical_decision_task_MP,2020.1.3,MacIntel,60,z,1,0.616135,,,,,,,,0.616135,1,,,,,,359,NW,"ID",33,fonver,FONVER,z,,,,,,0.034205729,-0.414570312,0,0,0,,0,181,181,298,1,
,,,,,,,,,,,,,,,,,,5f0787e0905be01692f34950,2020-08-10_18h19.24.527,lexical_decision_task_MP,2020.1.3,MacIntel,60,m,1,0.6169,,,,,,,,0.6169,1,,,,,,73,WORD,"ID",33,source,SOURCE,m,,,,,,0.034205729,-0.414570312,0,0,0,,0,182,182,12,1,
,,,,,,,,,,,,,,,,,,5f0787e0905be01692f34950,2020-08-10_18h19.24.527,lexical_decision_task_MP,2020.1.3,MacIntel,60,m,1,0.71649,,,,,,,,0.71649,1,,,,,,108,WORD,"ID",33,reckon,RECKON,m,,,,,,0.034205729,-0.414570312,0,0,0,,0,183,183,47,1,
,,,,,,,,,,,,,,,,,,5f0787e0905be01692f34950,2020-08-10_18h19.24.527,lexical_decision_task_MP,2020.1.3,MacIntel,60,z,0,0.602115,,,,,,,,0.602115,0,,,,,,45,WORD,UN,50,single,CLERGY,m,,,,,,0.034205729,-0.414570312,0,0,0,,0,184,184,224,1,
,,,,,,,,,,,,,,,,,,5f0787e0905be01692f34950,2020-08-10_18h19.24.527,lexical_decision_task_MP,2020.1.3,MacIntel,60,m,1,0.5012,,,,,,,,0.5012,1,,,,,,96,WORD,"ID",33,ignore,IGNORE,m,,,,,,0.034205729,-0.414570312,0,0,0,,0,185,185,35,1,
,,,,,,,,,,,,,,,,,,5f0787e0905be01692f34950,2020-08-10_18h19.24.527,lexical_decision_task_MP,2020.1.3,MacIntel,60,z,1,0.71663,,,,,,,,0.71663,1,,,,,,329,NW,"ID",33,yarike,YARIKE,z,,,,,,0.034205729,-0.414570312,0,0,0,,0,186,186,268,1,
,,,,,,,,,,,,,,,,,,5f0787e0905be01692f34950,2020-08-10_18h19.24.527,lexical_decision_task_MP,2020.1.3,MacIntel,60,z,1,0.967755,,,,,,,,0.967755,1,,,,,,283,NW,UN,50,shaple,VERALF,z,,,,,,0.034205729,-0.414570312,0,0,0,,0,187,187,462,1,
,,,,,,,,,,,,,,,,,,5f0787e0905be01692f34950,2020-08-10_18h19.24.527,lexical_decision_task_MP,2020.1.3,MacIntel,60,z,1,0.66922,,,,,,,,0.66922,1,,,,,,475,NW,UN,33,josted,PEBRIC,z,,,,,,0.034205729,-0.414570312,0,0,0,,0,188,188,414,1,
,,,,,,,,,,,,,,,,,,5f0787e0905be01692f34950,2020-08-10_18h19.24.527,lexical_decision_task_MP,2020.1.3,MacIntel,60,m,1,0.589605,,,,,,,,0.589605,1,,,,,,44,WORD,UN,50,clergy,DANGER,m,,,,,,0.034205729,-0.414570312,0,0,0,,0,189,189,223,1,
,,,,,,,,,,,,,,,,,,5f0787e0905be01692f34950,2020-08-10_18h19.24.527,lexical_decision_task_MP,2020.1.3,MacIntel,60,m,1,0.749505,,,,,,,,0.749505,1,,,,,,204,WORD,UN,33,lounge,BURDEN,m,,,,,,0.034205729,-0.414570312,0,0,0,,0,190,190,143,1,
,,,,,,,,,,,,,,,,,,5f0787e0905be01692f34950,2020-08-10_18h19.24.527,lexical_decision_task_MP,2020.1.3,MacIntel,60,z,1,0.61589,,,,,,,,0.61589,1,,,,,,259,NW,UN,50,unject,SOUDAL,z,,,,,,0.034205729,-0.414570312,0,0,0,,0,191,191,438,1,
,,,,,,,,,,,,,,,,,,5f0787e0905be01692f34950,2020-08-10_18h19.24.527,lexical_decision_task_MP,2020.1.3,MacIntel,60,z,1,0.63296,,,,,,,,0.63296,1,,,,,,251,NW,UN,50,stapod,LUPICT,z,,,,,,0.034205729,-0.414570312,0,0,0,,0,192,192,430,1,
,,,,,,,,,,,,,,,,,,5f0787e0905be01692f34950,2020-08-10_18h19.24.527,lexical_decision_task_MP,2020.1.3,MacIntel,60,z,1,1.10051,,,,,,,,1.10051,1,,,,,,352,NW,"ID",33,tringe,TRINGE,z,,,,,,0.034205729,-0.414570312,0,0,0,,0,193,193,291,1,
,,,,,,,,,,,,,,,,,,5f0787e0905be01692f34950,2020-08-10_18h19.24.527,lexical_decision_task_MP,2020.1.3,MacIntel,60,z,1,0.600355,,,,,,,,0.600355,1,,,,,,266,NW,UN,50,pasink,VARMIT,z,,,,,,0.034205729,-0.414570312,0,0,0,,0,194,194,445,1,
,,,,,,,,,,,,,,,,,,5f0787e0905be01692f34950,2020-08-10_18h19.24.527,lexical_decision_task_MP,2020.1.3,MacIntel,60,m,1,0.602295,,,,,,,,0.602295,1,,,,,,160,WORD,"ID",50,violet,VIOLET,m,,,,,,0.034205729,-0.414570312,0,0,0,,0,195,195,99,1,
,,,,,,,,,,,,,,,,,,5f0787e0905be01692f34950,2020-08-10_18h19.24.527,lexical_decision_task_MP,2020.1.3,MacIntel,60,m,1,0.683095,,,,,,,,0.683095,1,,,,,,107,WORD,"ID",33,slogan,SLOGAN,m,,,,,,0.034205729,-0.414570312,0,0,0,,0,196,196,46,1,
,,,,,,,,,,,,,,,,,,5f0787e0905be01692f34950,2020-08-10_18h19.24.527,lexical_decision_task_MP,2020.1.3,MacIntel,60,m,1,0.51498,,,,,,,,0.51498,1,,,,,,173,WORD,"ID",50,shower,SHOWER,m,,,,,,0.034205729,-0.414570312,0,0,0,,0,197,197,112,1,
,,,,,,,,,,,,,,,,,,5f0787e0905be01692f34950,2020-08-10_18h19.24.527,lexical_decision_task_MP,2020.1.3,MacIntel,60,z,1,0.80806,,,,,,,,0.80806,1,,,,,,412,NW,"ID",50,jiluer,JILUER,z,,,,,,0.034205729,-0.414570312,0,0,0,,0,198,198,351,1,
,,,,,,,,,,,,,,,,,,5f0787e0905be01692f34950,2020-08-10_18h19.24.527,lexical_decision_task_MP,2020.1.3,MacIntel,60,m,1,0.634555,,,,,,,,0.634555,1,,,,,,18,WORD,UN,50,patron,HUMBLE,m,,,,,,0.034205729,-0.414570312,0,0,0,,0,199,199,197,1,
,,,,,,,,,,,,,,,,,,5f0787e0905be01692f34950,2020-08-10_18h19.24.527,lexical_decision_task_MP,2020.1.3,MacIntel,60,m,1,0.56423,,,,,,,,0.56423,1,,,,,,180,WORD,"ID",50,silent,SILENT,m,,,,,,0.034205729,-0.414570312,0,0,0,,0,200,200,119,1,
,,,,,,,,,,,,,,,,,,5f0787e0905be01692f34950,2020-08-10_18h19.24.527,lexical_decision_task_MP,2020.1.3,MacIntel,60,m,1,0.799975,,,,,,,,0.799975,1,,,,,,113,WORD,"ID",33,chorus,CHORUS,m,,,,,,0.034205729,-0.414570312,0,0,0,,0,201,201,52,1,
,,,,,,,,,,,,,,,,,,5f0787e0905be01692f34950,2020-08-10_18h19.24.527,lexical_decision_task_MP,2020.1.3,MacIntel,60,m,1,1.03581,,,,,,,,1.03581,1,,,,,,175,WORD,"ID",50,fabric,FABRIC,m,,,,,,0.034205729,-0.414570312,0,0,0,,0,202,202,114,1,
,,,,,,,,,,,,,,,,,,5f0787e0905be01692f34950,2020-08-10_18h19.24.527,lexical_decision_task_MP,2020.1.3,MacIntel,60,z,1,0.784455,,,,,,,,0.784455,1,,,,,,313,NW,"ID",33,paurse,PAURSE,z,,,,,,0.034205729,-0.414570312,0,0,0,,0,203,203,252,1,
,,,,,,,,,,,,,,,,,,5f0787e0905be01692f34950,2020-08-10_18h19.24.527,lexical_decision_task_MP,2020.1.3,MacIntel,60,m,1,0.62018,,,,,,,,0.62018,1,,,,,,60,WORD,UN,50,fright,PENCIL,m,,,,,,0.034205729,-0.414570312,0,0,0,,0,204,204,239,1,
,,,,,,,,,,,,,,,,,,5f0787e0905be01692f34950,2020-08-10_18h19.24.527,lexical_decision_task_MP,2020.1.3,MacIntel,60,z,1,0.852695,,,,,,,,0.852695,1,,,,,,261,NW,UN,50,quilew,STUNCH,z,,,,,,0.034205729,-0.414570312,0,0,0,,0,205,205,440,1,
,,,,,,,,,,,,,,,,,,5f0787e0905be01692f34950,2020-08-10_18h19.24.527,lexical_decision_task_MP,2020.1.3,MacIntel,60,m,1,0.68381,,,,,,,,0.68381,1,,,,,,146,WORD,"ID",50,couple,COUPLE,m,,,,,,0.034205729,-0.414570312,0,0,0,,0,206,206,85,1,
,,,,,,,,,,,,,,,,,,5f0787e0905be01692f34950,2020-08-10_18h19.24.527,lexical_decision_task_MP,2020.1.3,MacIntel,60,z,1,0.985975,,,,,,,,0.985975,1,,,,,,395,NW,"ID",50,colury,COLURY,z,,,,,,0.034205729,-0.414570312,0,0,0,,0,207,207,334,1,
,,,,,,,,,,,,,,,,,,5f0787e0905be01692f34950,2020-08-10_18h19.24.527,lexical_decision_task_MP,2020.1.3,MacIntel,60,m,1,0.60723,,,,,,,,0.60723,1,,,,,,65,WORD,"ID",33,symbol,SYMBOL,m,,,,,,0.034205729,-0.414570312,0,0,0,,0,208,208,4,1,
,,,,,,,,,,,,,,,,,,5f0787e0905be01692f34950,2020-08-10_18h19.24.527,lexical_decision_task_MP,2020.1.3,MacIntel,60,z,1,0.584305,,,,,,,,0.584305,1,,,,,,465,NW,UN,33,bafent,WHIVEX,z,,,,,,0.034205729,-0.414570312,0,0,0,,0,209,209,404,1,
,,,,,,,,,,,,,,,,,,5f0787e0905be01692f34950,2020-08-10_18h19.24.527,lexical_decision_task_MP,2020.1.3,MacIntel,60,m,1,0.63221,,,,,,,,0.63221,1,,,,,,99,WORD,"ID",33,fluent,FLUENT,m,,,,,,0.034205729,-0.414570312,0,0,0,,0,210,210,38,1,
,,,,,,,,,,,,,,,,,,5f0787e0905be01692f34950,2020-08-10_18h19.24.527,lexical_decision_task_MP,2020.1.3,MacIntel,60,m,1,0.683315,,,,,,,,0.683315,1,,,,,,139,WORD,"ID",50,debris,DEBRIS,m,,,,,,0.034205729,-0.414570312,0,0,0,,0,211,211,78,1,
,,,,,,,,,,,,,,,,,,5f0787e0905be01692f34950,2020-08-10_18h19.24.527,lexical_decision_task_MP,2020.1.3,MacIntel,60,m,1,0.570465,,,,,,,,0.570465,1,,,,,,64,WORD,"ID",33,throne,THRONE,m,,,,,,0.034205729,-0.414570312,0,0,0,,0,212,212,3,1,
,,,,,,,,,,,,,,,,,,5f0787e0905be01692f34950,2020-08-10_18h19.24.527,lexical_decision_task_MP,2020.1.3,MacIntel,60,m,1,0.58397,,,,,,,,0.58397,1,,,,,,39,WORD,UN,50,convey,INSECT,m,,,,,,0.034205729,-0.414570312,0,0,0,,0,213,213,218,1,
,,,,,,,,,,,,,,,,,,5f0787e0905be01692f34950,2020-08-10_18h19.24.527,lexical_decision_task_MP,2020.1.3,MacIntel,60,m,1,0.583135,,,,,,,,0.583135,1,,,,,,158,WORD,"ID",50,island,ISLAND,m,,,,,,0.034205729,-0.414570312,0,0,0,,0,214,214,97,1,
,,,,,,,,,,,,,,,,,,5f0787e0905be01692f34950,2020-08-10_18h19.24.527,lexical_decision_task_MP,2020.1.3,MacIntel,60,m,1,1.31594,,,,,,,,1.31594,1,,,,,,163,WORD,"ID",50,string,STRING,m,,,,,,0.034205729,-0.414570312,0,0,0,,0,215,215,102,1,
,,,,,,,,,,,,,,,,,,5f0787e0905be01692f34950,2020-08-10_18h19.24.527,lexical_decision_task_MP,2020.1.3,MacIntel,60,m,1,0.666545,,,,,,,,0.666545,1,,,,,,135,WORD,"ID",50,import,IMPORT,m,,,,,,0.034205729,-0.414570312,0,0,0,,0,216,216,74,1,
,,,,,,,,,,,,,,,,,,5f0787e0905be01692f34950,2020-08-10_18h19.24.527,lexical_decision_task_MP,2020.1.3,MacIntel,60,m,1,0.63933,,,,,,,,0.63933,1,,,,,,36,WORD,UN,50,insult,VANISH,m,,,,,,0.034205729,-0.414570312,0,0,0,,0,217,217,215,1,
,,,,,,,,,,,,,,,,,,5f0787e0905be01692f34950,2020-08-10_18h19.24.527,lexical_decision_task_MP,2020.1.3,MacIntel,60,z,1,0.6864,,,,,,,,0.6864,1,,,,,,324,NW,"ID",33,steikh,STEIKH,z,,,,,,0.034205729,-0.414570312,0,0,0,,0,218,218,263,1,
,,,,,,,,,,,,,,,,,,5f0787e0905be01692f34950,2020-08-10_18h19.24.527,lexical_decision_task_MP,2020.1.3,MacIntel,60,z,1,0.736755,,,,,,,,0.736755,1,,,,,,323,NW,"ID",33,rosail,ROSAIL,z,,,,,,0.034205729,-0.414570312,0,0,0,,0,219,219,262,1,
,,,,,,,,,,,,,,,,,,5f0787e0905be01692f34950,2020-08-10_18h19.24.527,lexical_decision_task_MP,2020.1.3,MacIntel,60,m,1,0.58522,,,,,,,,0.58522,1,,,,,,164,WORD,"ID",50,market,MARKET,m,,,,,,0.034205729,-0.414570312,0,0,0,,0,220,220,103,1,
,,,,,,,,,,,,,,,,,,5f0787e0905be01692f34950,2020-08-10_18h19.24.527,lexical_decision_task_MP,2020.1.3,MacIntel,60,z,1,0.6565,,,,,,,,0.6565,1,,,,,,421,NW,UN,33,alcoud,KNISMA,z,,,,,,0.034205729,-0.414570312,0,0,0,,0,221,221,360,1,
,,,,,,,,,,,,,,,,,,5f0787e0905be01692f34950,2020-08-10_18h19.24.527,lexical_decision_task_MP,2020.1.3,MacIntel,60,z,1,0.804115,,,,,,,,0.804115,1,,,,,,455,NW,UN,33,broget,TONDLE,z,,,,,,0.034205729,-0.414570312,0,0,0,,0,222,222,394,1,
,,,,,,,,,,,,,,,,,,5f0787e0905be01692f34950,2020-08-10_18h19.24.527,lexical_decision_task_MP,2020.1.3,MacIntel,60,m,1,0.599195,,,,,,,,0.599195,1,,,,,,182,WORD,UN,33,absent,WINTER,m,,,,,,0.034205729,-0.414570312,0,0,0,,0,223,223,121,1,
,,,,,,,,,,,,,,,,,,5f0787e0905be01692f34950,2020-08-10_18h19.24.527,lexical_decision_task_MP,2020.1.3,MacIntel,60,m,1,0.584525,,,,,,,,0.584525,1,,,,,,76,WORD,"ID",33,exotic,EXOTIC,m,,,,,,0.034205729,-0.414570312,0,0,0,,0,224,224,15,1,
,,,,,,,,,,,,,,,,,,5f0787e0905be01692f34950,2020-08-10_18h19.24.527,lexical_decision_task_MP,2020.1.3,MacIntel,60,z,1,0.682655,,,,,,,,0.682655,1,,,,,,316,NW,"ID",33,scregm,SCREGM,z,,,,,,0.034205729,-0.414570312,0,0,0,,0,225,225,255,1,
,,,,,,,,,,,,,,,,,,5f0787e0905be01692f34950,2020-08-10_18h19.24.527,lexical_decision_task_MP,2020.1.3,MacIntel,60,z,1,1.233965,,,,,,,,1.233965,1,,,,,,437,NW,UN,33,baitch,SNAPEL,z,,,,,,0.034205729,-0.414570312,0,0,0,,0,226,226,376,1,
,,,,,,,,,,,,,,,,,,5f0787e0905be01692f34950,2020-08-10_18h19.24.527,lexical_decision_task_MP,2020.1.3,MacIntel,60,z,1,0.58698,,,,,,,,0.58698,1,,,,,,446,NW,UN,33,gircue,RUNAMO,z,,,,,,0.034205729,-0.414570312,0,0,0,,0,227,227,385,1,
,,,,,,,,,,,,,,,,,,5f0787e0905be01692f34950,2020-08-10_18h19.24.527,lexical_decision_task_MP,2020.1.3,MacIntel,60,m,1,0.775785,,,,,,,,0.775785,1,,,,,,19,WORD,UN,50,breast,PATRON,m,,,,,,0.034205729,-0.414570312,0,0,0,,0,228,228,198,1,
,,,,,,,,,,,,,,,,,,5f0787e0905be01692f34950,2020-08-10_18h19.24.527,lexical_decision_task_MP,2020.1.3,MacIntel,60,z,1,0.624825,,,,,,,,0.624825,1,,,,,,366,NW,"ID",50,toshel,TOSHEL,z,,,,,,0.034205729,-0.414570312,0,0,0,,0,229,229,305,1,
,,,,,,,,,,,,,,,,,,5f0787e0905be01692f34950,2020-08-10_18h19.24.527,lexical_decision_task_MP,2020.1.3,MacIntel,60,z,1,0.682155,,,,,,,,0.682155,1,,,,,,276,NW,UN,50,petain,YARMON,z,,,,,,0.034205729,-0.414570312,0,0,0,,0,230,230,455,1,
,,,,,,,,,,,,,,,,,,5f0787e0905be01692f34950,2020-08-10_18h19.24.527,lexical_decision_task_MP,2020.1.3,MacIntel,60,m,1,0.62143,,,,,,,,0.62143,1,,,,,,179,WORD,"ID",50,basket,BASKET,m,,,,,,0.034205729,-0.414570312,0,0,0,,0,231,231,118,1,
,,,,,,,,,,,,,,,,,,5f0787e0905be01692f34950,2020-08-10_18h19.24.527,lexical_decision_task_MP,2020.1.3,MacIntel,60,z,1,0.61025,,,,,,,,0.61025,1,,,,,,354,NW,"ID",33,virlex,VIRLEX,z,,,,,,0.034205729,-0.414570312,0,0,0,,0,232,232,293,1,
,,,,,,,,,,,,,,,,,,5f0787e0905be01692f34950,2020-08-10_18h19.24.527,lexical_decision_task_MP,2020.1.3,MacIntel,60,z,1,0.63597,,,,,,,,0.63597,1,,,,,,361,NW,"ID",50,pauche,PAUCHE,z,,,,,,0.034205729,-0.414570312,0,0,0,,0,233,233,300,1,
,,,,,,,,,,,,,,,,,,5f0787e0905be01692f34950,2020-08-10_18h19.24.527,lexical_decision_task_MP,2020.1.3,MacIntel,60,m,1,0.550925,,,,,,,,0.550925,1,,,,,,20,WORD,UN,50,simple,BREAST,m,,,,,,0.034205729,-0.414570312,0,0,0,,0,234,234,199,1,
,,,,,,,,,,,,,,,,,,5f0787e0905be01692f34950,2020-08-10_18h19.24.527,lexical_decision_task_MP,2020.1.3,MacIntel,60,z,1,0.598605,,,,,,,,0.598605,1,,,,,,349,NW,"ID",33,asylen,ASYLEN,z,,,,,,0.034205729,-0.414570312,0,0,0,,0,235,235,288,1,
,,,,,,,,,,,,,,,,,,5f0787e0905be01692f34950,2020-08-10_18h19.24.527,lexical_decision_task_MP,2020.1.3,MacIntel,60,m,1,0.636335,,,,,,,,0.636335,1,,,,,,171,WORD,"ID",50,depart,DEPART,m,,,,,,0.034205729,-0.414570312,0,0,0,,0,236,236,110,1,
,,,,,,,,,,,,,,,,,,5f0787e0905be01692f34950,2020-08-10_18h19.24.527,lexical_decision_task_MP,2020.1.3,MacIntel,60,m,1,0.56646,,,,,,,,0.56646,1,,,,,,35,WORD,UN,50,vanish,SOCKET,m,,,,,,0.034205729,-0.414570312,0,0,0,,0,237,237,214,1,
,,,,,,,,,,,,,,,,,,5f0787e0905be01692f34950,2020-08-10_18h19.24.527,lexical_decision_task_MP,2020.1.3,MacIntel,60,m,1,0.58472,,,,,,,,0.58472,1,,,,,,115,WORD,"ID",33,guitar,GUITAR,m,,,,,,0.034205729,-0.414570312,0,0,0,,0,238,238,54,1,
,,,,,,,,,,,,,,,,,,5f0787e0905be01692f34950,2020-08-10_18h19.24.527,lexical_decision_task_MP,2020.1.3,MacIntel,60,m,1,0.73339,,,,,,,,0.73339,1,,,,,,2,WORD,UN,50,knight,BRIDGE,m,,,,,,0.034205729,-0.414570312,0,0,0,,0,239,239,181,1,
,,,,,,,,,,,,,,,,,,5f0787e0905be01692f34950,2020-08-10_18h19.24.527,lexical_decision_task_MP,2020.1.3,MacIntel,60,m,1,0.76133,,,,,,,,0.76133,1,,,,,,37,WORD,UN,50,powder,INSULT,m,,,,,,0.034205729,-0.414570312,0,0,0,,0,240,240,216,1,
,,,,,,,,,,,,,,,,,,5f0787e0905be01692f34950,2020-08-10_18h19.24.527,lexical_decision_task_MP,2020.1.3,MacIntel,60,z,0,0.71639,,,,,,,,0.71639,0,,,,,,200,WORD,UN,33,admire,BEACON,m,,,,,,0.034205729,-0.414570312,0,0,0,space,0,241,241,139,1,25.914775
,,,,,,,,,,,,,,,,,,5f0787e0905be01692f34950,2020-08-10_18h19.24.527,lexical_decision_task_MP,2020.1.3,MacIntel,60,z,1,0.95197,,,,,,,,0.95197,1,,,,,,409,NW,"ID",50,elopia,ELOPIA,z,,,,,,0.034205729,-0.414570312,0,0,0,,0,242,242,348,1,
,,,,,,,,,,,,,,,,,,5f0787e0905be01692f34950,2020-08-10_18h19.24.527,lexical_decision_task_MP,2020.1.3,MacIntel,60,z,1,0.74106,,,,,,,,0.74106,1,,,,,,435,NW,UN,33,frutan,IMPURB,z,,,,,,0.034205729,-0.414570312,0,0,0,,0,243,243,374,1,
,,,,,,,,,,,,,,,,,,5f0787e0905be01692f34950,2020-08-10_18h19.24.527,lexical_decision_task_MP,2020.1.3,MacIntel,60,m,1,0.849225,,,,,,,,0.849225,1,,,,,,68,WORD,"ID",33,fumble,FUMBLE,m,,,,,,0.034205729,-0.414570312,0,0,0,,0,244,244,7,1,
,,,,,,,,,,,,,,,,,,5f0787e0905be01692f34950,2020-08-10_18h19.24.527,lexical_decision_task_MP,2020.1.3,MacIntel,60,m,1,0.574865,,,,,,,,0.574865,1,,,,,,56,WORD,UN,50,change,AMBUSH,m,,,,,,0.034205729,-0.414570312,0,0,0,,0,245,245,235,1,
,,,,,,,,,,,,,,,,,,5f0787e0905be01692f34950,2020-08-10_18h19.24.527,lexical_decision_task_MP,2020.1.3,MacIntel,60,z,1,0.701475,,,,,,,,0.701475,1,,,,,,374,NW,"ID",50,sliant,SLIANT,z,,,,,,0.034205729,-0.414570312,0,0,0,,0,246,246,313,1,
,,,,,,,,,,,,,,,,,,5f0787e0905be01692f34950,2020-08-10_18h19.24.527,lexical_decision_task_MP,2020.1.3,MacIntel,60,m,1,0.625215,,,,,,,,0.625215,1,,,,,,218,WORD,UN,33,bucket,SHRINK,m,,,,,,0.034205729,-0.414570312,0,0,0,,0,247,247,157,1,
,,,,,,,,,,,,,,,,,,5f0787e0905be01692f34950,2020-08-10_18h19.24.527,lexical_decision_task_MP,2020.1.3,MacIntel,60,z,1,0.69163,,,,,,,,0.69163,1,,,,,,333,NW,"ID",33,catrie,CATRIE,z,,,,,,0.034205729,-0.414570312,0,0,0,,0,248,248,272,1,
,,,,,,,,,,,,,,,,,,5f0787e0905be01692f34950,2020-08-10_18h19.24.527,lexical_decision_task_MP,2020.1.3,MacIntel,60,m,1,0.701185,,,,,,,,0.701185,1,,,,,,181,WORD,UN,33,winter,GLANCE,m,,,,,,0.034205729,-0.414570312,0,0,0,,0,249,249,120,1,
,,,,,,,,,,,,,,,,,,5f0787e0905be01692f34950,2020-08-10_18h19.24.527,lexical_decision_task_MP,2020.1.3,MacIntel,60,z,1,0.71954,,,,,,,,0.71954,1,,,,,,305,NW,"ID",33,forgle,FORGLE,z,,,,,,0.034205729,-0.414570312,0,0,0,,0,250,250,244,1,
,,,,,,,,,,,,,,,,,,5f0787e0905be01692f34950,2020-08-10_18h19.24.527,lexical_decision_task_MP,2020.1.3,MacIntel,60,z,1,0.665475,,,,,,,,0.665475,1,,,,,,263,NW,UN,50,vackel,DOLICA,z,,,,,,0.034205729,-0.414570312,0,0,0,,0,251,251,442,1,
,,,,,,,,,,,,,,,,,,5f0787e0905be01692f34950,2020-08-10_18h19.24.527,lexical_decision_task_MP,2020.1.3,MacIntel,60,m,1,0.530975,,,,,,,,0.530975,1,,,,,,174,WORD,"ID",50,turkey,TURKEY,m,,,,,,0.034205729,-0.414570312,0,0,0,,0,252,252,113,1,
,,,,,,,,,,,,,,,,,,5f0787e0905be01692f34950,2020-08-10_18h19.24.527,lexical_decision_task_MP,2020.1.3,MacIntel,60,m,1,0.581075,,,,,,,,0.581075,1,,,,,,95,WORD,"ID",33,thread,THREAD,m,,,,,,0.034205729,-0.414570312,0,0,0,,0,253,253,34,1,
,,,,,,,,,,,,,,,,,,5f0787e0905be01692f34950,2020-08-10_18h19.24.527,lexical_decision_task_MP,2020.1.3,MacIntel,60,m,1,0.6239,,,,,,,,0.6239,1,,,,,,83,WORD,"ID",33,result,RESULT,m,,,,,,0.034205729,-0.414570312,0,0,0,,0,254,254,22,1,
,,,,,,,,,,,,,,,,,,5f0787e0905be01692f34950,2020-08-10_18h19.24.527,lexical_decision_task_MP,2020.1.3,MacIntel,60,z,1,0.634745,,,,,,,,0.634745,1,,,,,,247,NW,UN,50,strole,BLARGE,z,,,,,,0.034205729,-0.414570312,0,0,0,,0,255,255,426,1,
,,,,,,,,,,,,,,,,,,5f0787e0905be01692f34950,2020-08-10_18h19.24.527,lexical_decision_task_MP,2020.1.3,MacIntel,60,z,1,0.632965,,,,,,,,0.632965,1,,,,,,457,NW,UN,33,barcet,WANIGH,z,,,,,,0.034205729,-0.414570312,0,0,0,,0,256,256,396,1,
,,,,,,,,,,,,,,,,,,5f0787e0905be01692f34950,2020-08-10_18h19.24.527,lexical_decision_task_MP,2020.1.3,MacIntel,60,m,1,0.51802,,,,,,,,0.51802,1,,,,,,134,WORD,"ID",50,staple,STAPLE,m,,,,,,0.034205729,-0.414570312,0,0,0,,0,257,257,73,1,
,,,,,,,,,,,,,,,,,,5f0787e0905be01692f34950,2020-08-10_18h19.24.527,lexical_decision_task_MP,2020.1.3,MacIntel,60,m,1,0.60598,,,,,,,,0.60598,1,,,,,,87,WORD,"ID",33,filter,FILTER,m,,,,,,0.034205729,-0.414570312,0,0,0,,0,258,258,26,1,
,,,,,,,,,,,,,,,,,,5f0787e0905be01692f34950,2020-08-10_18h19.24.527,lexical_decision_task_MP,2020.1.3,MacIntel,60,m,1,0.550885,,,,,,,,0.550885,1,,,,,,15,WORD,UN,50,faucet,AMOUNT,m,,,,,,0.034205729,-0.414570312,0,0,0,,0,259,259,194,1,
,,,,,,,,,,,,,,,,,,5f0787e0905be01692f34950,2020-08-10_18h19.24.527,lexical_decision_task_MP,2020.1.3,MacIntel,60,m,1,0.50601,,,,,,,,0.50601,1,,,,,,165,WORD,"ID",50,invest,INVEST,m,,,,,,0.034205729,-0.414570312,0,0,0,,0,260,260,104,1,
,,,,,,,,,,,,,,,,,,5f0787e0905be01692f34950,2020-08-10_18h19.24.527,lexical_decision_task_MP,2020.1.3,MacIntel,60,z,1,0.6853,,,,,,,,0.6853,1,,,,,,295,NW,UN,50,beinch,GLEATH,z,,,,,,0.034205729,-0.414570312,0,0,0,,0,261,261,474,1,
,,,,,,,,,,,,,,,,,,5f0787e0905be01692f34950,2020-08-10_18h19.24.527,lexical_decision_task_MP,2020.1.3,MacIntel,60,z,1,0.583335,,,,,,,,0.583335,1,,,,,,302,NW,"ID",33,miluer,MILUER,z,,,,,,0.034205729,-0.414570312,0,0,0,,0,262,262,241,1,
,,,,,,,,,,,,,,,,,,5f0787e0905be01692f34950,2020-08-10_18h19.24.527,lexical_decision_task_MP,2020.1.3,MacIntel,60,z,1,0.633885,,,,,,,,0.633885,1,,,,,,341,NW,"ID",33,myrtie,MYRTIE,z,,,,,,0.034205729,-0.414570312,0,0,0,,0,263,263,280,1,
,,,,,,,,,,,,,,,,,,5f0787e0905be01692f34950,2020-08-10_18h19.24.527,lexical_decision_task_MP,2020.1.3,MacIntel,60,m,1,0.61522,,,,,,,,0.61522,1,,,,,,21,WORD,UN,50,jockey,SIMPLE,m,,,,,,0.034205729,-0.414570312,0,0,0,,0,264,264,200,1,
,,,,,,,,,,,,,,,,,,5f0787e0905be01692f34950,2020-08-10_18h19.24.527,lexical_decision_task_MP,2020.1.3,MacIntel,60,z,1,0.56661,,,,,,,,0.56661,1,,,,,,408,NW,"ID",50,hurnia,HURNIA,z,,,,,,0.034205729,-0.414570312,0,0,0,,0,265,265,347,1,
,,,,,,,,,,,,,,,,,,5f0787e0905be01692f34950,2020-08-10_18h19.24.527,lexical_decision_task_MP,2020.1.3,MacIntel,60,m,1,0.587035,,,,,,,,0.587035,1,,,,,,67,WORD,"ID",33,policy,POLICY,m,,,,,,0.034205729,-0.414570312,0,0,0,,0,266,266,6,1,
,,,,,,,,,,,,,,,,,,5f0787e0905be01692f34950,2020-08-10_18h19.24.527,lexical_decision_task_MP,2020.1.3,MacIntel,60,m,1,0.64176,,,,,,,,0.64176,1,,,,,,149,WORD,"ID",50,invade,INVADE,m,,,,,,0.034205729,-0.414570312,0,0,0,,0,267,267,88,1,
,,,,,,,,,,,,,,,,,,5f0787e0905be01692f34950,2020-08-10_18h19.24.527,lexical_decision_task_MP,2020.1.3,MacIntel,60,z,1,0.71827,,,,,,,,0.71827,1,,,,,,322,NW,"ID",33,slanch,SLANCH,z,,,,,,0.034205729,-0.414570312,0,0,0,,0,268,268,261,1,
,,,,,,,,,,,,,,,,,,5f0787e0905be01692f34950,2020-08-10_18h19.24.527,lexical_decision_task_MP,2020.1.3,MacIntel,60,z,1,0.725575,,,,,,,,0.725575,1,,,,,,380,NW,"ID",50,cavory,CAVORY,z,,,,,,0.034205729,-0.414570312,0,0,0,,0,269,269,319,1,
,,,,,,,,,,,,,,,,,,5f0787e0905be01692f34950,2020-08-10_18h19.24.527,lexical_decision_task_MP,2020.1.3,MacIntel,60,m,1,0.61983,,,,,,,,0.61983,1,,,,,,50,WORD,UN,50,hungry,SNATCH,m,,,,,,0.034205729,-0.414570312,0,0,0,,0,270,270,229,1,
,,,,,,,,,,,,,,,,,,5f0787e0905be01692f34950,2020-08-10_18h19.24.527,lexical_decision_task_MP,2020.1.3,MacIntel,60,m,1,0.665245,,,,,,,,0.665245,1,,,,,,189,WORD,UN,33,backup,CENSOR,m,,,,,,0.034205729,-0.414570312,0,0,0,,0,271,271,128,1,
,,,,,,,,,,,,,,,,,,5f0787e0905be01692f34950,2020-08-10_18h19.24.527,lexical_decision_task_MP,2020.1.3,MacIntel,60,z,1,0.73911,,,,,,,,0.73911,1,,,,,,442,NW,UN,33,dorsex,ABOUNE,z,,,,,,0.034205729,-0.414570312,0,0,0,,0,272,272,381,1,
,,,,,,,,,,,,,,,,,,5f0787e0905be01692f34950,2020-08-10_18h19.24.527,lexical_decision_task_MP,2020.1.3,MacIntel,60,z,1,0.836415,,,,,,,,0.836415,1,,,,,,358,NW,"ID",33,fleack,FLEACK,z,,,,,,0.034205729,-0.414570312,0,0,0,,0,273,273,297,1,
,,,,,,,,,,,,,,,,,,5f0787e0905be01692f34950,2020-08-10_18h19.24.527,lexical_decision_task_MP,2020.1.3,MacIntel,60,m,1,0.70533,,,,,,,,0.70533,1,,,,,,129,WORD,"ID",50,marvel,MARVEL,m,,,,,,0.034205729,-0.414570312,0,0,0,,0,274,274,68,1,
,,,,,,,,,,,,,,,,,,5f0787e0905be01692f34950,2020-08-10_18h19.24.527,lexical_decision_task_MP,2020.1.3,MacIntel,60,z,1,0.605075,,,,,,,,0.605075,1,,,,,,451,NW,UN,33,surden,CAINKY,z,,,,,,0.034205729,-0.414570312,0,0,0,,0,275,275,390,1,
,,,,,,,,,,,,,,,,,,5f0787e0905be01692f34950,2020-08-10_18h19.24.527,lexical_decision_task_MP,2020.1.3,MacIntel,60,z,1,0.58344,,,,,,,,0.58344,1,,,,,,343,NW,"ID",33,aimosy,AIMOSY,z,,,,,,0.034205729,-0.414570312,0,0,0,,0,276,276,282,1,
,,,,,,,,,,,,,,,,,,5f0787e0905be01692f34950,2020-08-10_18h19.24.527,lexical_decision_task_MP,2020.1.3,MacIntel,60,m,1,0.604265,,,,,,,,0.604265,1,,,,,,66,WORD,"ID",33,gospel,GOSPEL,m,,,,,,0.034205729,-0.414570312,0,0,0,,0,277,277,5,1,
,,,,,,,,,,,,,,,,,,5f0787e0905be01692f34950,2020-08-10_18h19.24.527,lexical_decision_task_MP,2020.1.3,MacIntel,60,z,1,0.621395,,,,,,,,0.621395,1,,,,,,312,NW,"ID",33,nerawl,NERAWL,z,,,,,,0.034205729,-0.414570312,0,0,0,,0,278,278,251,1,
,,,,,,,,,,,,,,,,,,5f0787e0905be01692f34950,2020-08-10_18h19.24.527,lexical_decision_task_MP,2020.1.3,MacIntel,60,m,1,0.833965,,,,,,,,0.833965,1,,,,,,57,WORD,UN,50,danger,CHANGE,m,,,,,,0.034205729,-0.414570312,0,0,0,,0,279,279,236,1,
,,,,,,,,,,,,,,,,,,5f0787e0905be01692f34950,2020-08-10_18h19.24.527,lexical_decision_task_MP,2020.1.3,MacIntel,60,z,1,0.6491,,,,,,,,0.6491,1,,,,,,405,NW,"ID",50,flumni,FLUMNI,z,,,,,,0.034205729,-0.414570312,0,0,0,,0,280,280,344,1,
,,,,,,,,,,,,,,,,,,5f0787e0905be01692f34950,2020-08-10_18h19.24.527,lexical_decision_task_MP,2020.1.3,MacIntel,60,m,1,0.638135,,,,,,,,0.638135,1,,,,,,127,WORD,"ID",50,castle,CASTLE,m,,,,,,0.034205729,-0.414570312,0,0,0,,0,281,281,66,1,
,,,,,,,,,,,,,,,,,,5f0787e0905be01692f34950,2020-08-10_18h19.24.527,lexical_decision_task_MP,2020.1.3,MacIntel,60,m,1,0.643675,,,,,,,,0.643675,1,,,,,,202,WORD,UN,33,phrase,FACTOR,m,,,,,,0.034205729,-0.414570312,0,0,0,,0,282,282,141,1,
,,,,,,,,,,,,,,,,,,5f0787e0905be01692f34950,2020-08-10_18h19.24.527,lexical_decision_task_MP,2020.1.3,MacIntel,60,z,1,0.81576,,,,,,,,0.81576,1,,,,,,292,NW,UN,50,swance,ABLINT,z,,,,,,0.034205729,-0.414570312,0,0,0,,0,283,283,471,1,
,,,,,,,,,,,,,,,,,,5f0787e0905be01692f34950,2020-08-10_18h19.24.527,lexical_decision_task_MP,2020.1.3,MacIntel,60,z,1,0.688745,,,,,,,,0.688745,1,,,,,,436,NW,UN,33,snapel,FRUTAN,z,,,,,,0.034205729,-0.414570312,0,0,0,,0,284,284,375,1,
,,,,,,,,,,,,,,,,,,5f0787e0905be01692f34950,2020-08-10_18h19.24.527,lexical_decision_task_MP,2020.1.3,MacIntel,60,z,1,0.70345,,,,,,,,0.70345,1,,,,,,473,NW,UN,33,hablin,CRIBLE,z,,,,,,0.034205729,-0.414570312,0,0,0,,0,285,285,412,1,
,,,,,,,,,,,,,,,,,,5f0787e0905be01692f34950,2020-08-10_18h19.24.527,lexical_decision_task_MP,2020.1.3,MacIntel,60,m,1,0.585405,,,,,,,,0.585405,1,,,,,,71,WORD,"ID",33,garden,GARDEN,m,,,,,,0.034205729,-0.414570312,0,0,0,,0,286,286,10,1,
,,,,,,,,,,,,,,,,,,5f0787e0905be01692f34950,2020-08-10_18h19.24.527,lexical_decision_task_MP,2020.1.3,MacIntel,60,m,1,0.784295,,,,,,,,0.784295,1,,,,,,220,WORD,UN,33,mascot,VOYAGE,m,,,,,,0.034205729,-0.414570312,0,0,0,,0,287,287,159,1,
,,,,,,,,,,,,,,,,,,5f0787e0905be01692f34950,2020-08-10_18h19.24.527,lexical_decision_task_MP,2020.1.3,MacIntel,60,m,1,0.518565,,,,,,,,0.518565,1,,,,,,79,WORD,"ID",33,theory,THEORY,m,,,,,,0.034205729,-0.414570312,0,0,0,,0,288,288,18,1,
,,,,,,,,,,,,,,,,,,5f0787e0905be01692f34950,2020-08-10_18h19.24.527,lexical_decision_task_MP,2020.1.3,MacIntel,60,m,1,0.517735,,,,,,,,0.517735,1,,,,,,70,WORD,"ID",33,square,SQUARE,m,,,,,,0.034205729,-0.414570312,0,0,0,,0,289,289,9,1,
,,,,,,,,,,,,,,,,,,5f0787e0905be01692f34950,2020-08-10_18h19.24.527,lexical_decision_task_MP,2020.1.3,MacIntel,60,z,1,0.56703,,,,,,,,0.56703,1,,,,,,330,NW,"ID",33,kensom,KENSOM,z,,,,,,0.034205729,-0.414570312,0,0,0,,0,290,290,269,1,
,,,,,,,,,,,,,,,,,,5f0787e0905be01692f34950,2020-08-10_18h19.24.527,lexical_decision_task_MP,2020.1.3,MacIntel,60,m,1,0.573255,,,,,,,,0.573255,1,,,,,,78,WORD,"ID",33,column,COLUMN,m,,,,,,0.034205729,-0.414570312,0,0,0,,0,291,291,17,1,
,,,,,,,,,,,,,,,,,,5f0787e0905be01692f34950,2020-08-10_18h19.24.527,lexical_decision_task_MP,2020.1.3,MacIntel,60,z,1,0.64302,,,,,,,,0.64302,1,,,,,,353,NW,"ID",33,clurey,CLUREY,z,,,,,,0.034205729,-0.414570312,0,0,0,,0,292,292,292,1,
,,,,,,,,,,,,,,,,,,5f0787e0905be01692f34950,2020-08-10_18h19.24.527,lexical_decision_task_MP,2020.1.3,MacIntel,60,z,0,0.667245,,,,,,,,0.667245,0,,,,,,101,WORD,"ID",33,wrench,WRENCH,m,,,,,,0.034205729,-0.414570312,0,0,0,,0,293,293,40,1,
,,,,,,,,,,,,,,,,,,5f0787e0905be01692f34950,2020-08-10_18h19.24.527,lexical_decision_task_MP,2020.1.3,MacIntel,60,z,1,0.65253,,,,,,,,0.65253,1,,,,,,466,NW,UN,33,robuly,HOCITE,z,,,,,,0.034205729,-0.414570312,0,0,0,,0,294,294,405,1,
,,,,,,,,,,,,,,,,,,5f0787e0905be01692f34950,2020-08-10_18h19.24.527,lexical_decision_task_MP,2020.1.3,MacIntel,60,z,1,0.572075,,,,,,,,0.572075,1,,,,,,241,NW,UN,50,unwert,SMENCO,z,,,,,,0.034205729,-0.414570312,0,0,0,,0,295,295,420,1,
,,,,,,,,,,,,,,,,,,5f0787e0905be01692f34950,2020-08-10_18h19.24.527,lexical_decision_task_MP,2020.1.3,MacIntel,60,z,0,0.502585,,,,,,,,0.502585,0,,,,,,183,WORD,UN,33,sleazy,MILDEW,m,,,,,,0.034205729,-0.414570312,0,0,0,,0,296,296,122,1,
,,,,,,,,,,,,,,,,,,5f0787e0905be01692f34950,2020-08-10_18h19.24.527,lexical_decision_task_MP,2020.1.3,MacIntel,60,z,1,0.652185,,,,,,,,0.652185,1,,,,,,459,NW,UN,33,mingar,BAFENT,z,,,,,,0.034205729,-0.414570312,0,0,0,,0,297,297,398,1,
,,,,,,,,,,,,,,,,,,5f0787e0905be01692f34950,2020-08-10_18h19.24.527,lexical_decision_task_MP,2020.1.3,MacIntel,60,m,1,0.5579,,,,,,,,0.5579,1,,,,,,11,WORD,UN,50,amount,CRUISE,m,,,,,,0.034205729,-0.414570312,0,0,0,,0,298,298,190,1,
,,,,,,,,,,,,,,,,,,5f0787e0905be01692f34950,2020-08-10_18h19.24.527,lexical_decision_task_MP,2020.1.3,MacIntel,60,m,1,0.65332,,,,,,,,0.65332,1,,,,,,4,WORD,UN,50,plunge,TRENCH,m,,,,,,0.034205729,-0.414570312,0,0,0,,0,299,299,183,1,
,,,,,,,,,,,,,,,,,,5f0787e0905be01692f34950,2020-08-10_18h19.24.527,lexical_decision_task_MP,2020.1.3,MacIntel,60,m,1,0.62292,,,,,,,,0.62292,1,,,,,,195,WORD,UN,33,credit,RESIGN,m,,,,,,0.034205729,-0.414570312,0,0,0,,0,300,300,134,1,
,,,,,,,,,,,,,,,,,,5f0787e0905be01692f34950,2020-08-10_18h19.24.527,lexical_decision_task_MP,2020.1.3,MacIntel,60,z,1,1.198165,,,,,,,,1.198165,1,,,,,,470,NW,UN,33,nobest,CRUDIO,z,,,,,,0.034205729,-0.414570312,0,0,0,,0,301,301,409,1,
,,,,,,,,,,,,,,,,,,5f0787e0905be01692f34950,2020-08-10_18h19.24.527,lexical_decision_task_MP,2020.1.3,MacIntel,60,m,1,0.71286,,,,,,,,0.71286,1,,,,,,59,WORD,UN,50,pencil,SPLINT,m,,,,,,0.034205729,-0.414570312,0,0,0,,0,302,302,238,1,
,,,,,,,,,,,,,,,,,,5f0787e0905be01692f34950,2020-08-10_18h19.24.527,lexical_decision_task_MP,2020.1.3,MacIntel,60,m,1,0.613775,,,,,,,,0.613775,1,,,,,,38,WORD,UN,50,insect,POWDER,m,,,,,,0.034205729,-0.414570312,0,0,0,,0,303,303,217,1,
,,,,,,,,,,,,,,,,,,5f0787e0905be01692f34950,2020-08-10_18h19.24.527,lexical_decision_task_MP,2020.1.3,MacIntel,60,m,1,0.553225,,,,,,,,0.553225,1,,,,,,231,WORD,UN,33,inject,EXPORT,m,,,,,,0.034205729,-0.414570312,0,0,0,,0,304,304,170,1,
,,,,,,,,,,,,,,,,,,5f0787e0905be01692f34950,2020-08-10_18h19.24.527,lexical_decision_task_MP,2020.1.3,MacIntel,60,z,1,0.566565,,,,,,,,0.566565,1,,,,,,356,NW,"ID",33,othnis,OTHNIS,z,,,,,,0.034205729,-0.414570312,0,0,0,,0,305,305,295,1,
,,,,,,,,,,,,,,,,,,5f0787e0905be01692f34950,2020-08-10_18h19.24.527,lexical_decision_task_MP,2020.1.3,MacIntel,60,m,1,0.74258,,,,,,,,0.74258,1,,,,,,110,WORD,"ID",33,polite,POLITE,m,,,,,,0.034205729,-0.414570312,0,0,0,,0,306,306,49,1,
,,,,,,,,,,,,,,,,,,5f0787e0905be01692f34950,2020-08-10_18h19.24.527,lexical_decision_task_MP,2020.1.3,MacIntel,60,z,1,0.54929,,,,,,,,0.54929,1,,,,,,468,NW,UN,33,padifs,WICTOR,z,,,,,,0.034205729,-0.414570312,0,0,0,,0,307,307,407,1,
,,,,,,,,,,,,,,,,,,5f0787e0905be01692f34950,2020-08-10_18h19.24.527,lexical_decision_task_MP,2020.1.3,MacIntel,60,z,1,0.71593,,,,,,,,0.71593,1,,,,,,272,NW,UN,50,sortel,DAMILT,z,,,,,,0.034205729,-0.414570312,0,0,0,,0,308,308,451,1,
,,,,,,,,,,,,,,,,,,5f0787e0905be01692f34950,2020-08-10_18h19.24.527,lexical_decision_task_MP,2020.1.3,MacIntel,60,m,1,0.5332,,,,,,,,0.5332,1,,,,,,29,WORD,UN,50,orient,SKETCH,m,,,,,,0.034205729,-0.414570312,0,0,0,,0,309,309,208,1,
,,,,,,,,,,,,,,,,,,5f0787e0905be01692f34950,2020-08-10_18h19.24.527,lexical_decision_task_MP,2020.1.3,MacIntel,60,m,1,0.86525,,,,,,,,0.86525,1,,,,,,85,WORD,"ID",33,sprawl,SPRAWL,m,,,,,,0.034205729,-0.414570312,0,0,0,,0,310,310,24,1,
,,,,,,,,,,,,,,,,,,5f0787e0905be01692f34950,2020-08-10_18h19.24.527,lexical_decision_task_MP,2020.1.3,MacIntel,60,m,1,0.648365,,,,,,,,0.648365,1,,,,,,197,WORD,UN,33,wicked,STREAM,m,,,,,,0.034205729,-0.414570312,0,0,0,,0,311,311,136,1,
,,,,,,,,,,,,,,,,,,5f0787e0905be01692f34950,2020-08-10_18h19.24.527,lexical_decision_task_MP,2020.1.3,MacIntel,60,m,1,0.73443,,,,,,,,0.73443,1,,,,,,7,WORD,UN,50,abrupt,ANCHOR,m,,,,,,0.034205729,-0.414570312,0,0,0,,0,312,312,186,1,
,,,,,,,,,,,,,,,,,,5f0787e0905be01692f34950,2020-08-10_18h19.24.527,lexical_decision_task_MP,2020.1.3,MacIntel,60,m,1,1.15259,,,,,,,,1.15259,1,,,,,,211,WORD,UN,33,verify,INFECT,m,,,,,,0.034205729,-0.414570312,0,0,0,,0,313,313,150,1,
,,,,,,,,,,,,,,,,,,5f0787e0905be01692f34950,2020-08-10_18h19.24.527,lexical_decision_task_MP,2020.1.3,MacIntel,60,m,1,0.69777,,,,,,,,0.69777,1,,,,,,117,WORD,"ID",33,branch,BRANCH,m,,,,,,0.034205729,-0.414570312,0,0,0,,0,314,314,56,1,
,,,,,,,,,,,,,,,,,,5f0787e0905be01692f34950,2020-08-10_18h19.24.527,lexical_decision_task_MP,2020.1.3,MacIntel,60,m,1,0.65099,,,,,,,,0.65099,1,,,,,,229,WORD,UN,33,fringe,MOTHER,m,,,,,,0.034205729,-0.414570312,0,0,0,,0,315,315,168,1,
,,,,,,,,,,,,,,,,,,5f0787e0905be01692f34950,2020-08-10_18h19.24.527,lexical_decision_task_MP,2020.1.3,MacIntel,60,z,1,0.915225,,,,,,,,0.915225,1,,,,,,269,NW,UN,50,wrimsy,ORCHET,z,,,,,,0.034205729,-0.414570312,0,0,0,,0,316,316,448,1,
,,,,,,,,,,,,,,,,,,5f0787e0905be01692f34950,2020-08-10_18h19.24.527,lexical_decision_task_MP,2020.1.3,MacIntel,60,m,1,0.6175,,,,,,,,0.6175,1,,,,,,193,WORD,UN,33,mildew,OBJECT,m,,,,,,0.034205729,-0.414570312,0,0,0,,0,317,317,132,1,
,,,,,,,,,,,,,,,,,,5f0787e0905be01692f34950,2020-08-10_18h19.24.527,lexical_decision_task_MP,2020.1.3,MacIntel,60,z,1,0.95528,,,,,,,,0.95528,1,,,,,,425,NW,UN,33,urivel,FRUDGE,z,,,,,,0.034205729,-0.414570312,0,0,0,,0,318,318,364,1,
,,,,,,,,,,,,,,,,,,5f0787e0905be01692f34950,2020-08-10_18h19.24.527,lexical_decision_task_MP,2020.1.3,MacIntel,60,m,1,1.08736,,,,,,,,1.08736,1,,,,,,177,WORD,"ID",50,advent,ADVENT,m,,,,,,0.034205729,-0.414570312,0,0,0,,0,319,319,116,1,
,,,,,,,,,,,,,,,,,,5f0787e0905be01692f34950,2020-08-10_18h19.24.527,lexical_decision_task_MP,2020.1.3,MacIntel,60,z,1,0.982635,,,,,,,,0.982635,1,,,,,,291,NW,UN,50,ablint,PRETCH,z,,,,,,0.034205729,-0.414570312,0,0,0,,0,320,320,470,1,
,,,,,,,,,,,,,,,,,,5f0787e0905be01692f34950,2020-08-10_18h19.24.527,lexical_decision_task_MP,2020.1.3,MacIntel,60,z,1,0.58697,,,,,,,,0.58697,1,,,,,,262,NW,UN,50,dolica,QUILEW,z,,,,,,0.034205729,-0.414570312,0,0,0,,0,321,321,441,1,
,,,,,,,,,,,,,,,,,,5f0787e0905be01692f34950,2020-08-10_18h19.24.527,lexical_decision_task_MP,2020.1.3,MacIntel,60,m,1,0.620305,,,,,,,,0.620305,1,,,,,,34,WORD,UN,50,socket,JUNGLE,m,,,,,,0.034205729,-0.414570312,0,0,0,,0,322,322,213,1,
,,,,,,,,,,,,,,,,,,5f0787e0905be01692f34950,2020-08-10_18h19.24.527,lexical_decision_task_MP,2020.1.3,MacIntel,60,z,1,0.669175,,,,,,,,0.669175,1,,,,,,264,NW,UN,50,distar,VACKEL,z,,,,,,0.034205729,-0.414570312,0,0,0,,0,323,323,443,1,
,,,,,,,,,,,,,,,,,,5f0787e0905be01692f34950,2020-08-10_18h19.24.527,lexical_decision_task_MP,2020.1.3,MacIntel,60,z,1,0.72507,,,,,,,,0.72507,1,,,,,,469,NW,UN,33,crudio,PADIFS,z,,,,,,0.034205729,-0.414570312,0,0,0,,0,324,324,408,1,
,,,,,,,,,,,,,,,,,,5f0787e0905be01692f34950,2020-08-10_18h19.24.527,lexical_decision_task_MP,2020.1.3,MacIntel,60,m,1,0.600995,,,,,,,,0.600995,1,,,,,,167,WORD,"ID",50,design,DESIGN,m,,,,,,0.034205729,-0.414570312,0,0,0,,0,325,325,106,1,
,,,,,,,,,,,,,,,,,,5f0787e0905be01692f34950,2020-08-10_18h19.24.527,lexical_decision_task_MP,2020.1.3,MacIntel,60,m,1,0.800305,,,,,,,,0.800305,1,,,,,,120,WORD,"ID",33,strain,STRAIN,m,,,,,,0.034205729,-0.414570312,0,0,0,,0,326,326,59,1,
,,,,,,,,,,,,,,,,,,5f0787e0905be01692f34950,2020-08-10_18h19.24.527,lexical_decision_task_MP,2020.1.3,MacIntel,60,z,1,0.680625,,,,,,,,0.680625,1,,,,,,285,NW,UN,50,reldon,PRUDGE,z,,,,,,0.034205729,-0.414570312,0,0,0,,0,327,327,464,1,
,,,,,,,,,,,,,,,,,,5f0787e0905be01692f34950,2020-08-10_18h19.24.527,lexical_decision_task_MP,2020.1.3,MacIntel,60,m,1,0.592,,,,,,,,0.592,1,,,,,,237,WORD,UN,33,glance,POSTER,m,,,,,,0.034205729,-0.414570312,0,0,0,,0,328,328,176,1,
,,,,,,,,,,,,,,,,,,5f0787e0905be01692f34950,2020-08-10_18h19.24.527,lexical_decision_task_MP,2020.1.3,MacIntel,60,z,1,0.514905,,,,,,,,0.514905,1,,,,,,279,NW,UN,50,curbol,CELOND,z,,,,,,0.034205729,-0.414570312,0,0,0,,0,329,329,458,1,
,,,,,,,,,,,,,,,,,,5f0787e0905be01692f34950,2020-08-10_18h19.24.527,lexical_decision_task_MP,2020.1.3,MacIntel,60,z,1,1.52463,,,,,,,,1.52463,1,,,,,,438,NW,UN,33,limpor,BAITCH,z,,,,,,0.034205729,-0.414570312,0,0,0,,0,330,330,377,1,
,,,,,,,,,,,,,,,,,,5f0787e0905be01692f34950,2020-08-10_18h19.24.527,lexical_decision_task_MP,2020.1.3,MacIntel,60,m,1,0.581055,,,,,,,,0.581055,1,,,,,,238,WORD,UN,33,behalf,FLOWER,m,,,,,,0.034205729,-0.414570312,0,0,0,,0,331,331,177,1,
,,,,,,,,,,,,,,,,,,5f0787e0905be01692f34950,2020-08-10_18h19.24.527,lexical_decision_task_MP,2020.1.3,MacIntel,60,z,1,0.581615,,,,,,,,0.581615,1,,,,,,403,NW,"ID",50,bruats,BRUATS,z,,,,,,0.034205729,-0.414570312,0,0,0,,0,332,332,342,1,
,,,,,,,,,,,,,,,,,,5f0787e0905be01692f34950,2020-08-10_18h19.24.527,lexical_decision_task_MP,2020.1.3,MacIntel,60,z,1,0.80889,,,,,,,,0.80889,1,,,,,,320,NW,"ID",33,jockal,JOCKAL,z,,,,,,0.034205729,-0.414570312,0,0,0,,0,333,333,259,1,
,,,,,,,,,,,,,,,,,,5f0787e0905be01692f34950,2020-08-10_18h19.24.527,lexical_decision_task_MP,2020.1.3,MacIntel,60,m,1,0.499075,,,,,,,,0.499075,1,,,,,,150,WORD,"ID",50,random,RANDOM,m,,,,,,0.034205729,-0.414570312,0,0,0,,0,334,334,89,1,
,,,,,,,,,,,,,,,,,,5f0787e0905be01692f34950,2020-08-10_18h19.24.527,lexical_decision_task_MP,2020.1.3,MacIntel,60,z,0,0.549885,,,,,,,,0.549885,0,,,,,,131,WORD,"ID",50,quench,QUENCH,m,,,,,,0.034205729,-0.414570312,0,0,0,,0,335,335,70,1,
,,,,,,,,,,,,,,,,,,5f0787e0905be01692f34950,2020-08-10_18h19.24.527,lexical_decision_task_MP,2020.1.3,MacIntel,60,m,1,0.591515,,,,,,,,0.591515,1,,,,,,26,WORD,UN,50,butler,SPRINT,m,,,,,,0.034205729,-0.414570312,0,0,0,,0,336,336,205,1,
,,,,,,,,,,,,,,,,,,5f0787e0905be01692f34950,2020-08-10_18h19.24.527,lexical_decision_task_MP,2020.1.3,MacIntel,60,z,1,0.816895,,,,,,,,0.816895,1,,,,,,432,NW,UN,33,drance,LUNKER,z,,,,,,0.034205729,-0.414570312,0,0,0,,0,337,337,371,1,
,,,,,,,,,,,,,,,,,,5f0787e0905be01692f34950,2020-08-10_18h19.24.527,lexical_decision_task_MP,2020.1.3,MacIntel,60,z,1,0.638305,,,,,,,,0.638305,1,,,,,,250,NW,UN,50,lupict,MILTED,z,,,,,,0.034205729,-0.414570312,0,0,0,,0,338,338,429,1,
,,,,,,,,,,,,,,,,,,5f0787e0905be01692f34950,2020-08-10_18h19.24.527,lexical_decision_task_MP,2020.1.3,MacIntel,60,z,1,0.96622,,,,,,,,0.96622,1,,,,,,363,NW,"ID",50,breali,BREALI,z,,,,,,0.034205729,-0.414570312,0,0,0,,0,339,339,302,1,
,,,,,,,,,,,,,,,,,,5f0787e0905be01692f34950,2020-08-10_18h19.24.527,lexical_decision_task_MP,2020.1.3,MacIntel,60,m,1,0.602225,,,,,,,,0.602225,1,,,,,,69,WORD,"ID",33,plenty,PLENTY,m,,,,,,0.034205729,-0.414570312,0,0,0,,0,340,340,8,1,
,,,,,,,,,,,,,,,,,,5f0787e0905be01692f34950,2020-08-10_18h19.24.527,lexical_decision_task_MP,2020.1.3,MacIntel,60,m,1,0.59125,,,,,,,,0.59125,1,,,,,,103,WORD,"ID",33,bounce,BOUNCE,m,,,,,,0.034205729,-0.414570312,0,0,0,,0,341,341,42,1,
,,,,,,,,,,,,,,,,,,5f0787e0905be01692f34950,2020-08-10_18h19.24.527,lexical_decision_task_MP,2020.1.3,MacIntel,60,z,1,0.954295,,,,,,,,0.954295,1,,,,,,360,NW,"ID",33,desory,DESORY,z,,,,,,0.034205729,-0.414570312,0,0,0,,0,342,342,299,1,
,,,,,,,,,,,,,,,,,,5f0787e0905be01692f34950,2020-08-10_18h19.24.527,lexical_decision_task_MP,2020.1.3,MacIntel,60,z,1,0.88755,,,,,,,,0.88755,1,,,,,,244,NW,UN,50,anougs,EATRIC,z,,,,,,0.034205729,-0.414570312,0,0,0,,0,343,343,423,1,
,,,,,,,,,,,,,,,,,,5f0787e0905be01692f34950,2020-08-10_18h19.24.527,lexical_decision_task_MP,2020.1.3,MacIntel,60,z,1,0.6223,,,,,,,,0.6223,1,,,,,,474,NW,UN,33,acrise,HABLIN,z,,,,,,0.034205729,-0.414570312,0,0,0,,0,344,344,413,1,
,,,,,,,,,,,,,,,,,,5f0787e0905be01692f34950,2020-08-10_18h19.24.527,lexical_decision_task_MP,2020.1.3,MacIntel,60,m,1,0.823745,,,,,,,,0.823745,1,,,,,,219,WORD,UN,33,voyage,BUCKET,m,,,,,,0.034205729,-0.414570312,0,0,0,,0,345,345,158,1,
,,,,,,,,,,,,,,,,,,5f0787e0905be01692f34950,2020-08-10_18h19.24.527,lexical_decision_task_MP,2020.1.3,MacIntel,60,z,1,0.70448,,,,,,,,0.70448,1,,,,,,423,NW,UN,33,praile,STRELD,z,,,,,,0.034205729,-0.414570312,0,0,0,,0,346,346,362,1,
,,,,,,,,,,,,,,,,,,5f0787e0905be01692f34950,2020-08-10_18h19.24.527,lexical_decision_task_MP,2020.1.3,MacIntel,60,m,1,0.66625,,,,,,,,0.66625,1,,,,,,40,WORD,UN,50,spring,CONVEY,m,,,,,,0.034205729,-0.414570312,0,0,0,,0,347,347,219,1,
,,,,,,,,,,,,,,,,,,5f0787e0905be01692f34950,2020-08-10_18h19.24.527,lexical_decision_task_MP,2020.1.3,MacIntel,60,z,1,0.60729,,,,,,,,0.60729,1,,,,,,328,NW,"ID",33,broake,BROAKE,z,,,,,,0.034205729,-0.414570312,0,0,0,,0,348,348,267,1,
,,,,,,,,,,,,,,,,,,5f0787e0905be01692f34950,2020-08-10_18h19.24.527,lexical_decision_task_MP,2020.1.3,MacIntel,60,m,1,0.550855,,,,,,,,0.550855,1,,,,,,168,WORD,"ID",50,answer,ANSWER,m,,,,,,0.034205729,-0.414570312,0,0,0,,0,349,349,107,1,
,,,,,,,,,,,,,,,,,,5f0787e0905be01692f34950,2020-08-10_18h19.24.527,lexical_decision_task_MP,2020.1.3,MacIntel,60,z,1,0.598695,,,,,,,,0.598695,1,,,,,,258,NW,UN,50,soudal,POLUTH,z,,,,,,0.034205729,-0.414570312,0,0,0,,0,350,350,437,1,
,,,,,,,,,,,,,,,,,,5f0787e0905be01692f34950,2020-08-10_18h19.24.527,lexical_decision_task_MP,2020.1.3,MacIntel,60,m,1,0.70201,,,,,,,,0.70201,1,,,,,,203,WORD,UN,33,burden,PHRASE,m,,,,,,0.034205729,-0.414570312,0,0,0,,0,351,351,142,1,
,,,,,,,,,,,,,,,,,,5f0787e0905be01692f34950,2020-08-10_18h19.24.527,lexical_decision_task_MP,2020.1.3,MacIntel,60,z,1,0.683585,,,,,,,,0.683585,1,,,,,,301,NW,"ID",33,fainch,FAINCH,z,,,,,,0.034205729,-0.414570312,0,0,0,,0,352,352,240,1,
,,,,,,,,,,,,,,,,,,5f0787e0905be01692f34950,2020-08-10_18h19.24.527,lexical_decision_task_MP,2020.1.3,MacIntel,60,z,1,0.652865,,,,,,,,0.652865,1,,,,,,334,NW,"ID",33,watmeg,WATMEG,z,,,,,,0.034205729,-0.414570312,0,0,0,,0,353,353,273,1,
,,,,,,,,,,,,,,,,,,5f0787e0905be01692f34950,2020-08-10_18h19.24.527,lexical_decision_task_MP,2020.1.3,MacIntel,60,m,1,0.689185,,,,,,,,0.689185,1,,,,,,234,WORD,UN,33,poster,CLUMSY,m,,,,,,0.034205729,-0.414570312,0,0,0,,0,354,354,173,1,
,,,,,,,,,,,,,,,,,,5f0787e0905be01692f34950,2020-08-10_18h19.24.527,lexical_decision_task_MP,2020.1.3,MacIntel,60,m,1,0.651925,,,,,,,,0.651925,1,,,,,,191,WORD,UN,33,beacon,STABLE,m,,,,,,0.034205729,-0.414570312,0,0,0,,0,355,355,130,1,
,,,,,,,,,,,,,,,,,,5f0787e0905be01692f34950,2020-08-10_18h19.24.527,lexical_decision_task_MP,2020.1.3,MacIntel,60,z,1,0.70117,,,,,,,,0.70117,1,,,,,,289,NW,UN,50,splino,STARBY,z,,,,,,0.034205729,-0.414570312,0,0,0,,0,356,356,468,1,
,,,,,,,,,,,,,,,,,,5f0787e0905be01692f34950,2020-08-10_18h19.24.527,lexical_decision_task_MP,2020.1.3,MacIntel,60,m,1,0.58495,,,,,,,,0.58495,1,,,,,,223,WORD,UN,33,period,KIDNEY,m,,,,,,0.034205729,-0.414570312,0,0,0,,0,357,357,162,1,
,,,,,,,,,,,,,,,,,,5f0787e0905be01692f34950,2020-08-10_18h19.24.527,lexical_decision_task_MP,2020.1.3,MacIntel,60,z,1,0.64845,,,,,,,,0.64845,1,,,,,,274,NW,UN,50,sleirt,FUMBLO,z,,,,,,0.034205729,-0.414570312,0,0,0,,0,358,358,453,1,
,,,,,,,,,,,,,,,,,,5f0787e0905be01692f34950,2020-08-10_18h19.24.527,lexical_decision_task_MP,2020.1.3,MacIntel,60,z,1,0.90228,,,,,,,,0.90228,1,,,,,,431,NW,UN,33,lunker,CHRUMS,z,,,,,,0.034205729,-0.414570312,0,0,0,,0,359,359,370,1,
,,,,,,,,,,,,,,,,,,5f0787e0905be01692f34950,2020-08-10_18h19.24.527,lexical_decision_task_MP,2020.1.3,MacIntel,60,z,1,0.59781,,,,,,,,0.59781,1,,,,,,293,NW,UN,50,inhort,SWANCE,z,,,,,,0.034205729,-0.414570312,0,0,0,,0,360,360,472,1,
,,,,,,,,,,,,,,,,,,5f0787e0905be01692f34950,2020-08-10_18h19.24.527,lexical_decision_task_MP,2020.1.3,MacIntel,60,m,1,0.64236,,,,,,,,0.64236,1,,,,,,240,WORD,UN,33,seldom,FOREST,m,,,,,,0.034205729,-0.414570312,0,0,0,,0,361,361,179,1,
,,,,,,,,,,,,,,,,,,5f0787e0905be01692f34950,2020-08-10_18h19.24.527,lexical_decision_task_MP,2020.1.3,MacIntel,60,m,1,0.58365,,,,,,,,0.58365,1,,,,,,137,WORD,"ID",50,finger,FINGER,m,,,,,,0.034205729,-0.414570312,0,0,0,space,0,362,362,76,1,21.91948
,,,,,,,,,,,,,,,,,,5f0787e0905be01692f34950,2020-08-10_18h19.24.527,lexical_decision_task_MP,2020.1.3,MacIntel,60,z,1,0.54866,,,,,,,,0.54866,1,,,,,,450,NW,UN,33,cainky,PHRECT,z,,,,,,0.034205729,-0.414570312,0,0,0,,0,363,363,389,1,
,,,,,,,,,,,,,,,,,,5f0787e0905be01692f34950,2020-08-10_18h19.24.527,lexical_decision_task_MP,2020.1.3,MacIntel,60,z,1,0.53377,,,,,,,,0.53377,1,,,,,,444,NW,UN,33,minkel,JAUNCE,z,,,,,,0.034205729,-0.414570312,0,0,0,,0,364,364,383,1,
,,,,,,,,,,,,,,,,,,5f0787e0905be01692f34950,2020-08-10_18h19.24.527,lexical_decision_task_MP,2020.1.3,MacIntel,60,m,1,0.653405,,,,,,,,0.653405,1,,,,,,24,WORD,UN,50,domain,PRAISE,m,,,,,,0.034205729,-0.414570312,0,0,0,,0,365,365,203,1,
,,,,,,,,,,,,,,,,,,5f0787e0905be01692f34950,2020-08-10_18h19.24.527,lexical_decision_task_MP,2020.1.3,MacIntel,60,z,1,0.58652,,,,,,,,0.58652,1,,,,,,249,NW,UN,50,milted,BATROL,z,,,,,,0.034205729,-0.414570312,0,0,0,,0,366,366,428,1,
,,,,,,,,,,,,,,,,,,5f0787e0905be01692f34950,2020-08-10_18h19.24.527,lexical_decision_task_MP,2020.1.3,MacIntel,60,z,1,0.66446,,,,,,,,0.66446,1,,,,,,411,NW,"ID",50,orchin,ORCHIN,z,,,,,,0.034205729,-0.414570312,0,0,0,,0,367,367,350,1,
,,,,,,,,,,,,,,,,,,5f0787e0905be01692f34950,2020-08-10_18h19.24.527,lexical_decision_task_MP,2020.1.3,MacIntel,60,m,1,0.657085,,,,,,,,0.657085,1,,,,,,221,WORD,UN,33,hinder,MASCOT,m,,,,,,0.034205729,-0.414570312,0,0,0,,0,368,368,160,1,
,,,,,,,,,,,,,,,,,,5f0787e0905be01692f34950,2020-08-10_18h19.24.527,lexical_decision_task_MP,2020.1.3,MacIntel,60,z,1,0.648595,,,,,,,,0.648595,1,,,,,,357,NW,"ID",33,derain,DERAIN,z,,,,,,0.034205729,-0.414570312,0,0,0,,0,369,369,296,1,
,,,,,,,,,,,,,,,,,,5f0787e0905be01692f34950,2020-08-10_18h19.24.527,lexical_decision_task_MP,2020.1.3,MacIntel,60,m,1,0.535495,,,,,,,,0.535495,1,,,,,,152,WORD,"ID",50,rocket,ROCKET,m,,,,,,0.034205729,-0.414570312,0,0,0,,0,370,370,91,1,
,,,,,,,,,,,,,,,,,,5f0787e0905be01692f34950,2020-08-10_18h19.24.527,lexical_decision_task_MP,2020.1.3,MacIntel,60,z,1,0.68942,,,,,,,,0.68942,1,,,,,,384,NW,"ID",50,guesco,GUESCO,z,,,,,,0.034205729,-0.414570312,0,0,0,,0,371,371,323,1,
,,,,,,,,,,,,,,,,,,5f0787e0905be01692f34950,2020-08-10_18h19.24.527,lexical_decision_task_MP,2020.1.3,MacIntel,60,z,1,0.571295,,,,,,,,0.571295,1,,,,,,461,NW,UN,33,absult,JUSTRE,z,,,,,,0.034205729,-0.414570312,0,0,0,,0,372,372,400,1,
,,,,,,,,,,,,,,,,,,5f0787e0905be01692f34950,2020-08-10_18h19.24.527,lexical_decision_task_MP,2020.1.3,MacIntel,60,z,1,0.70087,,,,,,,,0.70087,1,,,,,,257,NW,UN,50,poluth,VENIOD,z,,,,,,0.034205729,-0.414570312,0,0,0,,0,373,373,436,1,
,,,,,,,,,,,,,,,,,,5f0787e0905be01692f34950,2020-08-10_18h19.24.527,lexical_decision_task_MP,2020.1.3,MacIntel,60,z,0,0.792865,,,,,,,,0.792865,0,,,,,,176,WORD,"ID",50,strife,STRIFE,m,,,,,,0.034205729,-0.414570312,0,0,0,,0,374,374,115,1,
,,,,,,,,,,,,,,,,,,5f0787e0905be01692f34950,2020-08-10_18h19.24.527,lexical_decision_task_MP,2020.1.3,MacIntel,60,z,1,0.74905,,,,,,,,0.74905,1,,,,,,315,NW,"ID",33,laston,LASTON,z,,,,,,0.034205729,-0.414570312,0,0,0,,0,375,375,254,1,
,,,,,,,,,,,,,,,,,,5f0787e0905be01692f34950,2020-08-10_18h19.24.527,lexical_decision_task_MP,2020.1.3,MacIntel,60,z,1,0.55221,,,,,,,,0.55221,1,,,,,,449,NW,UN,33,phrect,BRUNGE,z,,,,,,0.034205729,-0.414570312,0,0,0,,0,376,376,388,1,
,,,,,,,,,,,,,,,,,,5f0787e0905be01692f34950,2020-08-10_18h19.24.527,lexical_decision_task_MP,2020.1.3,MacIntel,60,m,1,0.501145,,,,,,,,0.501145,1,,,,,,53,WORD,UN,50,ramble,POLICE,m,,,,,,0.034205729,-0.414570312,0,0,0,,0,377,377,232,1,
,,,,,,,,,,,,,,,,,,5f0787e0905be01692f34950,2020-08-10_18h19.24.527,lexical_decision_task_MP,2020.1.3,MacIntel,60,z,1,0.805745,,,,,,,,0.805745,1,,,,,,282,NW,UN,50,veralf,PORLEX,z,,,,,,0.034205729,-0.414570312,0,0,0,,0,378,378,461,1,
,,,,,,,,,,,,,,,,,,5f0787e0905be01692f34950,2020-08-10_18h19.24.527,lexical_decision_task_MP,2020.1.3,MacIntel,60,m,1,0.53685,,,,,,,,0.53685,1,,,,,,91,WORD,"ID",33,expand,EXPAND,m,,,,,,0.034205729,-0.414570312,0,0,0,,0,379,379,30,1,
,,,,,,,,,,,,,,,,,,5f0787e0905be01692f34950,2020-08-10_18h19.24.527,lexical_decision_task_MP,2020.1.3,MacIntel,60,m,1,0.706435,,,,,,,,0.706435,1,,,,,,77,WORD,"ID",33,racket,RACKET,m,,,,,,0.034205729,-0.414570312,0,0,0,,0,380,380,16,1,
,,,,,,,,,,,,,,,,,,5f0787e0905be01692f34950,2020-08-10_18h19.24.527,lexical_decision_task_MP,2020.1.3,MacIntel,60,z,1,0.550115,,,,,,,,0.550115,1,,,,,,242,NW,UN,50,musied,UNWERT,z,,,,,,0.034205729,-0.414570312,0,0,0,,0,381,381,421,1,
,,,,,,,,,,,,,,,,,,5f0787e0905be01692f34950,2020-08-10_18h19.24.527,lexical_decision_task_MP,2020.1.3,MacIntel,60,z,1,0.55407,,,,,,,,0.55407,1,,,,,,382,NW,"ID",50,sarley,SARLEY,z,,,,,,0.034205729,-0.414570312,0,0,0,,0,382,382,321,1,
,,,,,,,,,,,,,,,,,,5f0787e0905be01692f34950,2020-08-10_18h19.24.527,lexical_decision_task_MP,2020.1.3,MacIntel,60,z,1,0.500515,,,,,,,,0.500515,1,,,,,,290,NW,UN,50,pretch,SPLINO,z,,,,,,0.034205729,-0.414570312,0,0,0,,0,383,383,469,1,
,,,,,,,,,,,,,,,,,,5f0787e0905be01692f34950,2020-08-10_18h19.24.527,lexical_decision_task_MP,2020.1.3,MacIntel,60,m,1,0.55342,,,,,,,,0.55342,1,,,,,,86,WORD,"ID",33,rodent,RODENT,m,,,,,,0.034205729,-0.414570312,0,0,0,,0,384,384,25,1,
,,,,,,,,,,,,,,,,,,5f0787e0905be01692f34950,2020-08-10_18h19.24.527,lexical_decision_task_MP,2020.1.3,MacIntel,60,m,1,0.55011,,,,,,,,0.55011,1,,,,,,72,WORD,"ID",33,bright,BRIGHT,m,,,,,,0.034205729,-0.414570312,0,0,0,,0,385,385,11,1,
,,,,,,,,,,,,,,,,,,5f0787e0905be01692f34950,2020-08-10_18h19.24.527,lexical_decision_task_MP,2020.1.3,MacIntel,60,z,1,0.603645,,,,,,,,0.603645,1,,,,,,404,NW,"ID",50,cluirm,CLUIRM,z,,,,,,0.034205729,-0.414570312,0,0,0,,0,386,386,343,1,
,,,,,,,,,,,,,,,,,,5f0787e0905be01692f34950,2020-08-10_18h19.24.527,lexical_decision_task_MP,2020.1.3,MacIntel,60,z,1,0.886315,,,,,,,,0.886315,1,,,,,,381,NW,"ID",50,huniek,HUNIEK,z,,,,,,0.034205729,-0.414570312,0,0,0,,0,387,387,320,1,
,,,,,,,,,,,,,,,,,,5f0787e0905be01692f34950,2020-08-10_18h19.24.527,lexical_decision_task_MP,2020.1.3,MacIntel,60,z,1,0.552255,,,,,,,,0.552255,1,,,,,,277,NW,UN,50,unighs,PETAIN,z,,,,,,0.034205729,-0.414570312,0,0,0,,0,388,388,456,1,
,,,,,,,,,,,,,,,,,,5f0787e0905be01692f34950,2020-08-10_18h19.24.527,lexical_decision_task_MP,2020.1.3,MacIntel,60,m,1,0.600585,,,,,,,,0.600585,1,,,,,,41,WORD,UN,50,chapel,SPRING,m,,,,,,0.034205729,-0.414570312,0,0,0,,0,389,389,220,1,
,,,,,,,,,,,,,,,,,,5f0787e0905be01692f34950,2020-08-10_18h19.24.527,lexical_decision_task_MP,2020.1.3,MacIntel,60,z,1,0.650555,,,,,,,,0.650555,1,,,,,,284,NW,UN,50,prudge,SHAPLE,z,,,,,,0.034205729,-0.414570312,0,0,0,,0,390,390,463,1,
,,,,,,,,,,,,,,,,,,5f0787e0905be01692f34950,2020-08-10_18h19.24.527,lexical_decision_task_MP,2020.1.3,MacIntel,60,z,1,0.67646,,,,,,,,0.67646,1,,,,,,445,NW,UN,33,runamo,MINKEL,z,,,,,,0.034205729,-0.414570312,0,0,0,,0,391,391,384,1,
,,,,,,,,,,,,,,,,,,5f0787e0905be01692f34950,2020-08-10_18h19.24.527,lexical_decision_task_MP,2020.1.3,MacIntel,60,m,1,0.53413,,,,,,,,0.53413,1,,,,,,14,WORD,UN,50,orange,ALMOST,m,,,,,,0.034205729,-0.414570312,0,0,0,,0,392,392,193,1,
,,,,,,,,,,,,,,,,,,5f0787e0905be01692f34950,2020-08-10_18h19.24.527,lexical_decision_task_MP,2020.1.3,MacIntel,60,z,1,0.5861,,,,,,,,0.5861,1,,,,,,472,NW,UN,33,gorbie,CIGNEY,z,,,,,,0.034205729,-0.414570312,0,0,0,,0,393,393,411,1,
,,,,,,,,,,,,,,,,,,5f0787e0905be01692f34950,2020-08-10_18h19.24.527,lexical_decision_task_MP,2020.1.3,MacIntel,60,z,1,0.650325,,,,,,,,0.650325,1,,,,,,307,NW,"ID",33,kirafe,KIRAFE,z,,,,,,0.034205729,-0.414570312,0,0,0,,0,394,394,246,1,
,,,,,,,,,,,,,,,,,,5f0787e0905be01692f34950,2020-08-10_18h19.24.527,lexical_decision_task_MP,2020.1.3,MacIntel,60,m,1,0.541375,,,,,,,,0.541375,1,,,,,,192,WORD,UN,33,object,PLAGUE,m,,,,,,0.034205729,-0.414570312,0,0,0,,0,395,395,131,1,
,,,,,,,,,,,,,,,,,,5f0787e0905be01692f34950,2020-08-10_18h19.24.527,lexical_decision_task_MP,2020.1.3,MacIntel,60,m,1,0.567415,,,,,,,,0.567415,1,,,,,,1,WORD,UN,50,ethnic,FRIGHT,m,,,,,,0.034205729,-0.414570312,0,0,0,,0,396,396,180,1,
,,,,,,,,,,,,,,,,,,5f0787e0905be01692f34950,2020-08-10_18h19.24.527,lexical_decision_task_MP,2020.1.3,MacIntel,60,z,1,0.63354,,,,,,,,0.63354,1,,,,,,448,NW,UN,33,brunge,SADENT,z,,,,,,0.034205729,-0.414570312,0,0,0,,0,397,397,387,1,
,,,,,,,,,,,,,,,,,,5f0787e0905be01692f34950,2020-08-10_18h19.24.527,lexical_decision_task_MP,2020.1.3,MacIntel,60,z,0,0.81955,,,,,,,,0.81955,0,,,,,,145,WORD,"ID",50,parish,PARISH,m,,,,,,0.034205729,-0.414570312,0,0,0,,0,398,398,84,1,
