counterbalancing_condition,instr_done_keyboard.keys,instr_done_keyboard.rt,instr_done_touch.x,instr_done_touch.y,instr_done_touch.leftButton,instr_done_touch.midButton,instr_done_touch.rightButton,instruction_pages.thisRepN,instruction_pages.thisTrialN,instruction_pages.thisN,instruction_pages.thisIndex,instruction_pages.ran,pageN,phase,instruct_text,has_image,instruct_image,participant,date,expName,psychopyVersion,OS,frameRate,response.keys,response.corr,response.rt,touch_resp.x,touch_resp.y,touch_resp.leftButton,touch_resp.midButton,touch_resp.rightButton,touch_resp.time,touch_resp.clicked_name,rt,corr,practice_trials.thisRepN,practice_trials.thisTrialN,practice_trials.thisN,practice_trials.thisIndex,practice_trials.ran,TrialID,StimulusType,Condition,PrimeDuration,Prime,Target,corrAns,end_of_practice_trials_pages.thisRepN,end_of_practice_trials_pages.thisTrialN,end_of_practice_trials_pages.thisN,end_of_practice_trials_pages.thisIndex,end_of_practice_trials_pages.ran,break_done_touch.x,break_done_touch.y,break_done_touch.leftButton,break_done_touch.midButton,break_done_touch.rightButton,break_done_keyboard.keys,trials.thisRepN,trials.thisTrialN,trials.thisN,trials.thisIndex,trials.ran,break_done_keyboard.rt
1,space,12.59841,0.130451389,-0.115021701,0,0,0,0,0,0,0,1,1,instructions,"INSTRUCTIONS
At the start of each trial, look at the hash marks (######) in the center of the screen. After a moment, a string of letters will appear. Your task is to indicate if the letter string forms a word or not (i.e., if it is a nonword). For example, AUTHOR is a word while AUTHON is a nonword.

Press the space bar or touch the button below to continue.",0,,5f0b062853f8960008793934,2020-08-10_15h59.54.444,lexical_decision_task_MP,2020.1.3,MacIntel,60,,,,,,,,,,,,,,,,,,,,,,,,,,,,,,,,,,,,,,,,,
,space,32.114455,0.130451389,-0.115021701,0,0,0,0,1,1,1,1,2,instructions,"If your device has a keyboard, press the 'Z' key for nonwords and the 'M' key for words.





Press the space bar or touch the button below to continue.",1,keyboard-example.gif,5f0b062853f8960008793934,2020-08-10_15h59.54.444,lexical_decision_task_MP,2020.1.3,MacIntel,60,,,,,,,,,,,,,,,,,,,,,,,,,,,,,,,,,,,,,,,,,
,space,3.597775,0.130451389,-0.115021701,0,0,0,0,2,2,2,1,3,instructions,"If you are using a touchscreen only device, use the buttons on the screen. Do not use the mouse.





Press the space bar or touch the button below to continue.",1,touchscreen-example.gif,5f0b062853f8960008793934,2020-08-10_15h59.54.444,lexical_decision_task_MP,2020.1.3,MacIntel,60,,,,,,,,,,,,,,,,,,,,,,,,,,,,,,,,,,,,,,,,,
,space,7.277105,0.130451389,-0.115021701,0,0,0,0,3,3,3,1,4,instructions,"It is very important that you respond as quickly and accurately as possible, as each letter string will only be on the screen for two seconds. If you do not respond within this time, the message 'Too slow!' will be displayed and the experiment will progress to the next letter string. The first 20 trials will be practice trials and you will receive feedback on your answers. 

Press the space bar or touch the button below to start the practice trials.",0,,5f0b062853f8960008793934,2020-08-10_15h59.54.444,lexical_decision_task_MP,2020.1.3,MacIntel,60,,,,,,,,,,,,,,,,,,,,,,,,,,,,,,,,,,,,,,,,,
,,,,,,,,,,,,,,,,,,5f0b062853f8960008793934,2020-08-10_15h59.54.444,lexical_decision_task_MP,2020.1.3,MacIntel,60,z,1,1.84959,,,,,,,,1.84959,1,0,0,0,14,1,1015,NW,UN,50,miaber,THRALE,z,,,,,,,,,,,,,,,,,
,,,,,,,,,,,,,,,,,,5f0b062853f8960008793934,2020-08-10_15h59.54.444,lexical_decision_task_MP,2020.1.3,MacIntel,60,z,1,1.17246,,,,,,,,1.17246,1,0,1,1,11,1,1012,NW,"ID",50,rashet,RASHET,z,,,,,,,,,,,,,,,,,
,,,,,,,,,,,,,,,,,,5f0b062853f8960008793934,2020-08-10_15h59.54.444,lexical_decision_task_MP,2020.1.3,MacIntel,60,z,1,1.28224,,,,,,,,1.28224,1,0,2,2,12,1,1013,NW,UN,33,adveil,SPRINY,z,,,,,,,,,,,,,,,,,
,,,,,,,,,,,,,,,,,,5f0b062853f8960008793934,2020-08-10_15h59.54.444,lexical_decision_task_MP,2020.1.3,MacIntel,60,z,1,0.883415,,,,,,,,0.883415,1,0,3,3,9,1,1010,NW,"ID",33,fariny,FARINY,z,,,,,,,,,,,,,,,,,
,,,,,,,,,,,,,,,,,,5f0b062853f8960008793934,2020-08-10_15h59.54.444,lexical_decision_task_MP,2020.1.3,MacIntel,60,m,1,0.854925,,,,,,,,0.854925,1,0,4,4,3,1,1004,WORD,"ID",50,matrix,MATRIX,m,,,,,,,,,,,,,,,,,
,,,,,,,,,,,,,,,,,,5f0b062853f8960008793934,2020-08-10_15h59.54.444,lexical_decision_task_MP,2020.1.3,MacIntel,60,m,0,1.01275,,,,,,,,1.01275,0,0,5,5,10,1,1011,NW,"ID",50,inlade,INLADE,z,,,,,,,,,,,,,,,,,
,,,,,,,,,,,,,,,,,,5f0b062853f8960008793934,2020-08-10_15h59.54.444,lexical_decision_task_MP,2020.1.3,MacIntel,60,m,1,0.763465,,,,,,,,0.763465,1,0,6,6,4,1,1005,WORD,UN,33,abound,SQUEAK,m,,,,,,,,,,,,,,,,,
,,,,,,,,,,,,,,,,,,5f0b062853f8960008793934,2020-08-10_15h59.54.444,lexical_decision_task_MP,2020.1.3,MacIntel,60,m,1,0.745555,,,,,,,,0.745555,1,0,7,7,2,1,1003,WORD,"ID",50,almond,ALMOND,m,,,,,,,,,,,,,,,,,
,,,,,,,,,,,,,,,,,,5f0b062853f8960008793934,2020-08-10_15h59.54.444,lexical_decision_task_MP,2020.1.3,MacIntel,60,z,1,0.86358,,,,,,,,0.86358,1,0,8,8,15,1,1016,NW,UN,50,mushed,WHAISE,z,,,,,,,,,,,,,,,,,
,,,,,,,,,,,,,,,,,,5f0b062853f8960008793934,2020-08-10_15h59.54.444,lexical_decision_task_MP,2020.1.3,MacIntel,60,z,1,0.98554,,,,,,,,0.98554,1,0,9,9,8,1,1009,NW,"ID",33,aslert,ASLERT,z,,,,,,,,,,,,,,,,,
,,,,,,,,,,,,,,,,,,5f0b062853f8960008793934,2020-08-10_15h59.54.444,lexical_decision_task_MP,2020.1.3,MacIntel,60,m,1,0.670395,,,,,,,,0.670395,1,0,10,10,1,1,1002,WORD,"ID",33,adjust,ADJUST,m,,,,,,,,,,,,,,,,,
,,,,,,,,,,,,,,,,,,5f0b062853f8960008793934,2020-08-10_15h59.54.444,lexical_decision_task_MP,2020.1.3,MacIntel,60,m,1,0.647365,,,,,,,,0.647365,1,0,11,11,0,1,1001,WORD,"ID",33,utopia,UTOPIA,m,,,,,,,,,,,,,,,,,
,,,,,,,,,,,,,,,,,,5f0b062853f8960008793934,2020-08-10_15h59.54.444,lexical_decision_task_MP,2020.1.3,MacIntel,60,m,1,0.61409,,,,,,,,0.61409,1,0,12,12,6,1,1007,WORD,UN,50,tropic,ZOMBIE,m,,,,,,,,,,,,,,,,,
,,,,,,,,,,,,,,,,,,5f0b062853f8960008793934,2020-08-10_15h59.54.444,lexical_decision_task_MP,2020.1.3,MacIntel,60,z,1,0.855355,,,,,,,,0.855355,1,0,13,13,13,1,1014,NW,UN,33,winfer,ROUPET,z,,,,,,,,,,,,,,,,,
,,,,,,,,,,,,,,,,,,5f0b062853f8960008793934,2020-08-10_15h59.54.444,lexical_decision_task_MP,2020.1.3,MacIntel,60,m,1,0.684115,,,,,,,,0.684115,1,0,14,14,7,1,1008,WORD,UN,50,hurdle,VOLUME,m,,,,,,,,,,,,,,,,,
,,,,,,,,,,,,,,,,,,5f0b062853f8960008793934,2020-08-10_15h59.54.444,lexical_decision_task_MP,2020.1.3,MacIntel,60,m,1,0.592765,,,,,,,,0.592765,1,0,15,15,5,1,1006,WORD,UN,33,frenzy,OBTAIN,m,,,,,,,,,,,,,,,,,
,space,9.43178,0.130451389,-0.115021701,0,0,0,,,,,,1,end_of_practice,"You have completed the practice trials. During the experimental trials, you will not receive feedback, but it is very important that you respond as quickly and accurately as possible. 
Before you begin, please ensure that you are in a comfortable and quiet location and will not be disturbed for about 15 minutes, as we cannot use your data if you do not complete all the trials. 
There will be opportunities to take breaks at regular intervals during the experiment. When you are ready to start the experimental trials, please press space or touch the button below.",,,5f0b062853f8960008793934,2020-08-10_15h59.54.444,lexical_decision_task_MP,2020.1.3,MacIntel,60,,,,,,,,,,,,,,,,,,,,,,,,,0,0,0,0,1,,,,,,,,,,,,
,,,,,,,,,,,,,,,,,,5f0b062853f8960008793934,2020-08-10_15h59.54.444,lexical_decision_task_MP,2020.1.3,MacIntel,60,m,1,0.766865,,,,,,,,0.766865,1,,,,,,6,WORD,"ID",33,bundle,BUNDLE,m,,,,,,0.130451389,-0.115021701,0,0,0,,0,0,0,5,1,
,,,,,,,,,,,,,,,,,,5f0b062853f8960008793934,2020-08-10_15h59.54.444,lexical_decision_task_MP,2020.1.3,MacIntel,60,z,1,1.02033,,,,,,,,1.02033,1,,,,,,391,NW,UN,33,rouncy,THELDY,z,,,,,,0.130451389,-0.115021701,0,0,0,,0,1,1,390,1,
,,,,,,,,,,,,,,,,,,5f0b062853f8960008793934,2020-08-10_15h59.54.444,lexical_decision_task_MP,2020.1.3,MacIntel,60,m,1,0.599115,,,,,,,,0.599115,1,,,,,,59,WORD,"ID",33,splint,SPLINT,m,,,,,,0.130451389,-0.115021701,0,0,0,,0,2,2,58,1,
,,,,,,,,,,,,,,,,,,5f0b062853f8960008793934,2020-08-10_15h59.54.444,lexical_decision_task_MP,2020.1.3,MacIntel,60,m,1,0.72909,,,,,,,,0.72909,1,,,,,,224,WORD,UN,50,vulgar,PERIOD,m,,,,,,0.130451389,-0.115021701,0,0,0,,0,3,3,223,1,
,,,,,,,,,,,,,,,,,,5f0b062853f8960008793934,2020-08-10_15h59.54.444,lexical_decision_task_MP,2020.1.3,MacIntel,60,z,1,0.72019,,,,,,,,0.72019,1,,,,,,420,NW,UN,33,pauche,GUSHOP,z,,,,,,0.130451389,-0.115021701,0,0,0,,0,4,4,419,1,
,,,,,,,,,,,,,,,,,,5f0b062853f8960008793934,2020-08-10_15h59.54.444,lexical_decision_task_MP,2020.1.3,MacIntel,60,z,1,0.712055,,,,,,,,0.712055,1,,,,,,327,NW,"ID",50,plenac,PLENAC,z,,,,,,0.130451389,-0.115021701,0,0,0,,0,5,5,326,1,
,,,,,,,,,,,,,,,,,,5f0b062853f8960008793934,2020-08-10_15h59.54.444,lexical_decision_task_MP,2020.1.3,MacIntel,60,m,1,0.633745,,,,,,,,0.633745,1,,,,,,64,WORD,"ID",50,throne,THRONE,m,,,,,,0.130451389,-0.115021701,0,0,0,,0,6,6,63,1,
,,,,,,,,,,,,,,,,,,5f0b062853f8960008793934,2020-08-10_15h59.54.444,lexical_decision_task_MP,2020.1.3,MacIntel,60,m,1,0.66407,,,,,,,,0.66407,1,,,,,,122,WORD,UN,33,strike,LINGER,m,,,,,,0.130451389,-0.115021701,0,0,0,,0,7,7,121,1,
,,,,,,,,,,,,,,,,,,5f0b062853f8960008793934,2020-08-10_15h59.54.444,lexical_decision_task_MP,2020.1.3,MacIntel,60,m,1,0.72268,,,,,,,,0.72268,1,,,,,,225,WORD,UN,50,kidney,VULGAR,m,,,,,,0.130451389,-0.115021701,0,0,0,,0,8,8,224,1,
,,,,,,,,,,,,,,,,,,5f0b062853f8960008793934,2020-08-10_15h59.54.444,lexical_decision_task_MP,2020.1.3,MacIntel,60,m,1,0.603135,,,,,,,,0.603135,1,,,,,,116,WORD,"ID",50,tumble,TUMBLE,m,,,,,,0.130451389,-0.115021701,0,0,0,,0,9,9,115,1,
,,,,,,,,,,,,,,,,,,5f0b062853f8960008793934,2020-08-10_15h59.54.444,lexical_decision_task_MP,2020.1.3,MacIntel,60,m,1,1.063125,,,,,,,,1.063125,1,,,,,,211,WORD,UN,50,verify,INFECT,m,,,,,,0.130451389,-0.115021701,0,0,0,,0,10,10,210,1,
,,,,,,,,,,,,,,,,,,5f0b062853f8960008793934,2020-08-10_15h59.54.444,lexical_decision_task_MP,2020.1.3,MacIntel,60,z,1,0.830995,,,,,,,,0.830995,1,,,,,,414,NW,UN,33,higsta,SERBOL,z,,,,,,0.130451389,-0.115021701,0,0,0,,0,11,11,413,1,
,,,,,,,,,,,,,,,,,,5f0b062853f8960008793934,2020-08-10_15h59.54.444,lexical_decision_task_MP,2020.1.3,MacIntel,60,z,1,0.811755,,,,,,,,0.811755,1,,,,,,465,NW,UN,50,hocite,WHIVEX,z,,,,,,0.130451389,-0.115021701,0,0,0,,0,12,12,464,1,
,,,,,,,,,,,,,,,,,,5f0b062853f8960008793934,2020-08-10_15h59.54.444,lexical_decision_task_MP,2020.1.3,MacIntel,60,z,1,0.85326,,,,,,,,0.85326,1,,,,,,372,NW,UN,33,bigent,RAMILY,z,,,,,,0.130451389,-0.115021701,0,0,0,,0,13,13,371,1,
,,,,,,,,,,,,,,,,,,5f0b062853f8960008793934,2020-08-10_15h59.54.444,lexical_decision_task_MP,2020.1.3,MacIntel,60,m,1,0.635405,,,,,,,,0.635405,1,,,,,,88,WORD,"ID",50,hunger,HUNGER,m,,,,,,0.130451389,-0.115021701,0,0,0,,0,14,14,87,1,
,,,,,,,,,,,,,,,,,,5f0b062853f8960008793934,2020-08-10_15h59.54.444,lexical_decision_task_MP,2020.1.3,MacIntel,60,m,1,0.66682,,,,,,,,0.66682,1,,,,,,106,WORD,"ID",50,ransom,RANSOM,m,,,,,,0.130451389,-0.115021701,0,0,0,,0,15,15,105,1,
,,,,,,,,,,,,,,,,,,5f0b062853f8960008793934,2020-08-10_15h59.54.444,lexical_decision_task_MP,2020.1.3,MacIntel,60,z,1,0.771735,,,,,,,,0.771735,1,,,,,,369,NW,UN,33,sleact,WRONCH,z,,,,,,0.130451389,-0.115021701,0,0,0,,0,16,16,368,1,
,,,,,,,,,,,,,,,,,,5f0b062853f8960008793934,2020-08-10_15h59.54.444,lexical_decision_task_MP,2020.1.3,MacIntel,60,m,1,0.649115,,,,,,,,0.649115,1,,,,,,36,WORD,"ID",33,vanish,VANISH,m,,,,,,0.130451389,-0.115021701,0,0,0,,0,17,17,35,1,
,,,,,,,,,,,,,,,,,,5f0b062853f8960008793934,2020-08-10_15h59.54.444,lexical_decision_task_MP,2020.1.3,MacIntel,60,z,1,0.713395,,,,,,,,0.713395,1,,,,,,331,NW,"ID",50,gilfew,GILFEW,z,,,,,,0.130451389,-0.115021701,0,0,0,,0,18,18,330,1,
,,,,,,,,,,,,,,,,,,5f0b062853f8960008793934,2020-08-10_15h59.54.444,lexical_decision_task_MP,2020.1.3,MacIntel,60,z,1,0.847265,,,,,,,,0.847265,1,,,,,,281,NW,"ID",33,melaty,MELATY,z,,,,,,0.130451389,-0.115021701,0,0,0,,0,19,19,280,1,
,,,,,,,,,,,,,,,,,,5f0b062853f8960008793934,2020-08-10_15h59.54.444,lexical_decision_task_MP,2020.1.3,MacIntel,60,m,1,0.671955,,,,,,,,0.671955,1,,,,,,32,WORD,"ID",33,buckle,BUCKLE,m,,,,,,0.130451389,-0.115021701,0,0,0,,0,20,20,31,1,
,,,,,,,,,,,,,,,,,,5f0b062853f8960008793934,2020-08-10_15h59.54.444,lexical_decision_task_MP,2020.1.3,MacIntel,60,m,1,0.700425,,,,,,,,0.700425,1,,,,,,204,WORD,UN,50,lounge,BURDEN,m,,,,,,0.130451389,-0.115021701,0,0,0,,0,21,21,203,1,
,,,,,,,,,,,,,,,,,,5f0b062853f8960008793934,2020-08-10_15h59.54.444,lexical_decision_task_MP,2020.1.3,MacIntel,60,z,1,0.800035,,,,,,,,0.800035,1,,,,,,316,NW,"ID",50,scregm,SCREGM,z,,,,,,0.130451389,-0.115021701,0,0,0,,0,22,22,315,1,
,,,,,,,,,,,,,,,,,,5f0b062853f8960008793934,2020-08-10_15h59.54.444,lexical_decision_task_MP,2020.1.3,MacIntel,60,z,1,0.81521,,,,,,,,0.81521,1,,,,,,256,NW,"ID",33,inlors,INLORS,z,,,,,,0.130451389,-0.115021701,0,0,0,,0,23,23,255,1,
,,,,,,,,,,,,,,,,,,5f0b062853f8960008793934,2020-08-10_15h59.54.444,lexical_decision_task_MP,2020.1.3,MacIntel,60,m,1,0.713555,,,,,,,,0.713555,1,,,,,,143,WORD,UN,33,sponge,REASON,m,,,,,,0.130451389,-0.115021701,0,0,0,,0,24,24,142,1,
,,,,,,,,,,,,,,,,,,5f0b062853f8960008793934,2020-08-10_15h59.54.444,lexical_decision_task_MP,2020.1.3,MacIntel,60,z,1,0.69733,,,,,,,,0.69733,1,,,,,,390,NW,UN,33,theldy,HATRUS,z,,,,,,0.130451389,-0.115021701,0,0,0,,0,25,25,389,1,
,,,,,,,,,,,,,,,,,,5f0b062853f8960008793934,2020-08-10_15h59.54.444,lexical_decision_task_MP,2020.1.3,MacIntel,60,m,1,0.648505,,,,,,,,0.648505,1,,,,,,82,WORD,"ID",50,stigma,STIGMA,m,,,,,,0.130451389,-0.115021701,0,0,0,,0,26,26,81,1,
,,,,,,,,,,,,,,,,,,5f0b062853f8960008793934,2020-08-10_15h59.54.444,lexical_decision_task_MP,2020.1.3,MacIntel,60,z,1,0.894855,,,,,,,,0.894855,1,,,,,,409,NW,UN,33,tunory,ELOPIA,z,,,,,,0.130451389,-0.115021701,0,0,0,,0,27,27,408,1,
,,,,,,,,,,,,,,,,,,5f0b062853f8960008793934,2020-08-10_15h59.54.444,lexical_decision_task_MP,2020.1.3,MacIntel,60,m,1,0.716715,,,,,,,,0.716715,1,,,,,,208,WORD,UN,50,search,HOCKEY,m,,,,,,0.130451389,-0.115021701,0,0,0,,0,28,28,207,1,
,,,,,,,,,,,,,,,,,,5f0b062853f8960008793934,2020-08-10_15h59.54.444,lexical_decision_task_MP,2020.1.3,MacIntel,60,m,1,0.581175,,,,,,,,0.581175,1,,,,,,53,WORD,"ID",33,police,POLICE,m,,,,,,0.130451389,-0.115021701,0,0,0,,0,29,29,52,1,
,,,,,,,,,,,,,,,,,,5f0b062853f8960008793934,2020-08-10_15h59.54.444,lexical_decision_task_MP,2020.1.3,MacIntel,60,z,1,0.8213,,,,,,,,0.8213,1,,,,,,324,NW,"ID",50,steikh,STEIKH,z,,,,,,0.130451389,-0.115021701,0,0,0,,0,30,30,323,1,
,,,,,,,,,,,,,,,,,,5f0b062853f8960008793934,2020-08-10_15h59.54.444,lexical_decision_task_MP,2020.1.3,MacIntel,60,m,1,0.683865,,,,,,,,0.683865,1,,,,,,50,WORD,"ID",33,snatch,SNATCH,m,,,,,,0.130451389,-0.115021701,0,0,0,,0,31,31,49,1,
,,,,,,,,,,,,,,,,,,5f0b062853f8960008793934,2020-08-10_15h59.54.444,lexical_decision_task_MP,2020.1.3,MacIntel,60,m,1,0.613605,,,,,,,,0.613605,1,,,,,,28,WORD,"ID",33,comedy,COMEDY,m,,,,,,0.130451389,-0.115021701,0,0,0,,0,32,32,27,1,
,,,,,,,,,,,,,,,,,,5f0b062853f8960008793934,2020-08-10_15h59.54.444,lexical_decision_task_MP,2020.1.3,MacIntel,60,z,1,0.72322,,,,,,,,0.72322,1,,,,,,342,NW,"ID",50,randow,RANDOW,z,,,,,,0.130451389,-0.115021701,0,0,0,,0,33,33,341,1,
,,,,,,,,,,,,,,,,,,5f0b062853f8960008793934,2020-08-10_15h59.54.444,lexical_decision_task_MP,2020.1.3,MacIntel,60,m,1,0.664855,,,,,,,,0.664855,1,,,,,,84,WORD,"ID",50,mortal,MORTAL,m,,,,,,0.130451389,-0.115021701,0,0,0,,0,34,34,83,1,
,,,,,,,,,,,,,,,,,,5f0b062853f8960008793934,2020-08-10_15h59.54.444,lexical_decision_task_MP,2020.1.3,MacIntel,60,z,1,0.655535,,,,,,,,0.655535,1,,,,,,360,NW,"ID",50,desory,DESORY,z,,,,,,0.130451389,-0.115021701,0,0,0,,0,35,35,359,1,
,,,,,,,,,,,,,,,,,,5f0b062853f8960008793934,2020-08-10_15h59.54.444,lexical_decision_task_MP,2020.1.3,MacIntel,60,z,1,0.931895,,,,,,,,0.931895,1,,,,,,346,NW,"ID",50,saudic,SAUDIC,z,,,,,,0.130451389,-0.115021701,0,0,0,,0,36,36,345,1,
,,,,,,,,,,,,,,,,,,5f0b062853f8960008793934,2020-08-10_15h59.54.444,lexical_decision_task_MP,2020.1.3,MacIntel,60,m,1,0.898045,,,,,,,,0.898045,1,,,,,,107,WORD,"ID",50,slogan,SLOGAN,m,,,,,,0.130451389,-0.115021701,0,0,0,,0,37,37,106,1,
,,,,,,,,,,,,,,,,,,5f0b062853f8960008793934,2020-08-10_15h59.54.444,lexical_decision_task_MP,2020.1.3,MacIntel,60,z,1,0.799975,,,,,,,,0.799975,1,,,,,,318,NW,"ID",50,reagly,REAGLY,z,,,,,,0.130451389,-0.115021701,0,0,0,,0,38,38,317,1,
,,,,,,,,,,,,,,,,,,5f0b062853f8960008793934,2020-08-10_15h59.54.444,lexical_decision_task_MP,2020.1.3,MacIntel,60,m,1,0.665855,,,,,,,,0.665855,1,,,,,,49,WORD,"ID",33,survey,SURVEY,m,,,,,,0.130451389,-0.115021701,0,0,0,,0,39,39,48,1,
,,,,,,,,,,,,,,,,,,5f0b062853f8960008793934,2020-08-10_15h59.54.444,lexical_decision_task_MP,2020.1.3,MacIntel,60,m,1,0.85299,,,,,,,,0.85299,1,,,,,,238,WORD,UN,50,grumpy,FLOWER,m,,,,,,0.130451389,-0.115021701,0,0,0,,0,40,40,237,1,
,,,,,,,,,,,,,,,,,,5f0b062853f8960008793934,2020-08-10_15h59.54.444,lexical_decision_task_MP,2020.1.3,MacIntel,60,m,1,0.764575,,,,,,,,0.764575,1,,,,,,35,WORD,"ID",33,socket,SOCKET,m,,,,,,0.130451389,-0.115021701,0,0,0,,0,41,41,34,1,
,,,,,,,,,,,,,,,,,,5f0b062853f8960008793934,2020-08-10_15h59.54.444,lexical_decision_task_MP,2020.1.3,MacIntel,60,z,1,0.79227,,,,,,,,0.79227,1,,,,,,450,NW,UN,50,rastoe,PHRECT,z,,,,,,0.130451389,-0.115021701,0,0,0,,0,42,42,449,1,
,,,,,,,,,,,,,,,,,,5f0b062853f8960008793934,2020-08-10_15h59.54.444,lexical_decision_task_MP,2020.1.3,MacIntel,60,m,1,0.676915,,,,,,,,0.676915,1,,,,,,26,WORD,"ID",33,sprint,SPRINT,m,,,,,,0.130451389,-0.115021701,0,0,0,,0,43,43,25,1,
,,,,,,,,,,,,,,,,,,5f0b062853f8960008793934,2020-08-10_15h59.54.444,lexical_decision_task_MP,2020.1.3,MacIntel,60,m,1,0.89697,,,,,,,,0.89697,1,,,,,,19,WORD,"ID",33,patron,PATRON,m,,,,,,0.130451389,-0.115021701,0,0,0,,0,44,44,18,1,
,,,,,,,,,,,,,,,,,,5f0b062853f8960008793934,2020-08-10_15h59.54.444,lexical_decision_task_MP,2020.1.3,MacIntel,60,z,1,0.65569,,,,,,,,0.65569,1,,,,,,312,NW,"ID",50,nerawl,NERAWL,z,,,,,,0.130451389,-0.115021701,0,0,0,,0,45,45,311,1,
,,,,,,,,,,,,,,,,,,5f0b062853f8960008793934,2020-08-10_15h59.54.444,lexical_decision_task_MP,2020.1.3,MacIntel,60,z,1,0.76829,,,,,,,,0.76829,1,,,,,,343,NW,"ID",50,aimosy,AIMOSY,z,,,,,,0.130451389,-0.115021701,0,0,0,,0,46,46,342,1,
,,,,,,,,,,,,,,,,,,5f0b062853f8960008793934,2020-08-10_15h59.54.444,lexical_decision_task_MP,2020.1.3,MacIntel,60,z,1,0.84981,,,,,,,,0.84981,1,,,,,,286,NW,"ID",33,reldon,RELDON,z,,,,,,0.130451389,-0.115021701,0,0,0,,0,47,47,285,1,
,,,,,,,,,,,,,,,,,,5f0b062853f8960008793934,2020-08-10_15h59.54.444,lexical_decision_task_MP,2020.1.3,MacIntel,60,m,1,0.77914,,,,,,,,0.77914,1,,,,,,159,WORD,UN,33,violet,DETAIL,m,,,,,,0.130451389,-0.115021701,0,0,0,,0,48,48,158,1,
,,,,,,,,,,,,,,,,,,5f0b062853f8960008793934,2020-08-10_15h59.54.444,lexical_decision_task_MP,2020.1.3,MacIntel,60,z,1,1.530245,,,,,,,,1.530245,1,,,,,,382,NW,UN,33,aungre,SARLEY,z,,,,,,0.130451389,-0.115021701,0,0,0,,0,49,49,381,1,
,,,,,,,,,,,,,,,,,,5f0b062853f8960008793934,2020-08-10_15h59.54.444,lexical_decision_task_MP,2020.1.3,MacIntel,60,z,1,0.719735,,,,,,,,0.719735,1,,,,,,373,NW,UN,33,injore,BIGENT,z,,,,,,0.130451389,-0.115021701,0,0,0,,0,50,50,372,1,
,,,,,,,,,,,,,,,,,,5f0b062853f8960008793934,2020-08-10_15h59.54.444,lexical_decision_task_MP,2020.1.3,MacIntel,60,z,1,0.65259,,,,,,,,0.65259,1,,,,,,392,NW,UN,33,ganous,ROUNCY,z,,,,,,0.130451389,-0.115021701,0,0,0,,0,51,51,391,1,
,,,,,,,,,,,,,,,,,,5f0b062853f8960008793934,2020-08-10_15h59.54.444,lexical_decision_task_MP,2020.1.3,MacIntel,60,m,1,0.57442,,,,,,,,0.57442,1,,,,,,52,WORD,"ID",33,impose,IMPOSE,m,,,,,,0.130451389,-0.115021701,0,0,0,,0,52,52,51,1,
,,,,,,,,,,,,,,,,,,5f0b062853f8960008793934,2020-08-10_15h59.54.444,lexical_decision_task_MP,2020.1.3,MacIntel,60,z,1,0.633835,,,,,,,,0.633835,1,,,,,,371,NW,UN,33,ramily,GEILOY,z,,,,,,0.130451389,-0.115021701,0,0,0,,0,53,53,370,1,
,,,,,,,,,,,,,,,,,,5f0b062853f8960008793934,2020-08-10_15h59.54.444,lexical_decision_task_MP,2020.1.3,MacIntel,60,m,1,1.516715,,,,,,,,1.516715,1,,,,,,37,WORD,"ID",33,insult,INSULT,m,,,,,,0.130451389,-0.115021701,0,0,0,,0,54,54,36,1,
,,,,,,,,,,,,,,,,,,5f0b062853f8960008793934,2020-08-10_15h59.54.444,lexical_decision_task_MP,2020.1.3,MacIntel,60,m,1,0.88337,,,,,,,,0.88337,1,,,,,,145,WORD,UN,33,couple,PARISH,m,,,,,,0.130451389,-0.115021701,0,0,0,,0,55,55,144,1,
,,,,,,,,,,,,,,,,,,5f0b062853f8960008793934,2020-08-10_15h59.54.444,lexical_decision_task_MP,2020.1.3,MacIntel,60,m,1,0.74841,,,,,,,,0.74841,1,,,,,,125,WORD,UN,33,blouse,NICKEL,m,,,,,,0.130451389,-0.115021701,0,0,0,,0,56,56,124,1,
,,,,,,,,,,,,,,,,,,5f0b062853f8960008793934,2020-08-10_15h59.54.444,lexical_decision_task_MP,2020.1.3,MacIntel,60,z,1,0.636595,,,,,,,,0.636595,1,,,,,,326,NW,"ID",50,iguade,IGUADE,z,,,,,,0.130451389,-0.115021701,0,0,0,,0,57,57,325,1,
,,,,,,,,,,,,,,,,,,5f0b062853f8960008793934,2020-08-10_15h59.54.444,lexical_decision_task_MP,2020.1.3,MacIntel,60,z,1,1.14035,,,,,,,,1.14035,1,,,,,,348,NW,"ID",50,dumple,DUMPLE,z,,,,,,0.130451389,-0.115021701,0,0,0,,0,58,58,347,1,
,,,,,,,,,,,,,,,,,,5f0b062853f8960008793934,2020-08-10_15h59.54.444,lexical_decision_task_MP,2020.1.3,MacIntel,60,m,1,0.58125,,,,,,,,0.58125,1,,,,,,80,WORD,"ID",50,family,FAMILY,m,,,,,,0.130451389,-0.115021701,0,0,0,,0,59,59,79,1,
,,,,,,,,,,,,,,,,,,5f0b062853f8960008793934,2020-08-10_15h59.54.444,lexical_decision_task_MP,2020.1.3,MacIntel,60,z,1,0.648535,,,,,,,,0.648535,1,,,,,,437,NW,UN,50,baitch,SNAPEL,z,,,,,,0.130451389,-0.115021701,0,0,0,,0,60,60,436,1,
,,,,,,,,,,,,,,,,,,5f0b062853f8960008793934,2020-08-10_15h59.54.444,lexical_decision_task_MP,2020.1.3,MacIntel,60,z,1,0.70144,,,,,,,,0.70144,1,,,,,,406,NW,UN,33,suiver,NOUPLY,z,,,,,,0.130451389,-0.115021701,0,0,0,,0,61,61,405,1,
,,,,,,,,,,,,,,,,,,5f0b062853f8960008793934,2020-08-10_15h59.54.444,lexical_decision_task_MP,2020.1.3,MacIntel,60,m,1,0.54684,,,,,,,,0.54684,1,,,,,,81,WORD,"ID",50,friend,FRIEND,m,,,,,,0.130451389,-0.115021701,0,0,0,,0,62,62,80,1,
,,,,,,,,,,,,,,,,,,5f0b062853f8960008793934,2020-08-10_15h59.54.444,lexical_decision_task_MP,2020.1.3,MacIntel,60,z,1,1.136705,,,,,,,,1.136705,1,,,,,,268,NW,"ID",33,packes,PACKES,z,,,,,,0.130451389,-0.115021701,0,0,0,,0,63,63,267,1,
,,,,,,,,,,,,,,,,,,5f0b062853f8960008793934,2020-08-10_15h59.54.444,lexical_decision_task_MP,2020.1.3,MacIntel,60,z,1,0.74541,,,,,,,,0.74541,1,,,,,,471,NW,UN,50,cigney,NOBEST,z,,,,,,0.130451389,-0.115021701,0,0,0,,0,64,64,470,1,
,,,,,,,,,,,,,,,,,,5f0b062853f8960008793934,2020-08-10_15h59.54.444,lexical_decision_task_MP,2020.1.3,MacIntel,60,z,1,0.89961,,,,,,,,0.89961,1,,,,,,244,NW,"ID",33,eatric,EATRIC,z,,,,,,0.130451389,-0.115021701,0,0,0,,0,65,65,243,1,
,,,,,,,,,,,,,,,,,,5f0b062853f8960008793934,2020-08-10_15h59.54.444,lexical_decision_task_MP,2020.1.3,MacIntel,60,z,1,0.78597,,,,,,,,0.78597,1,,,,,,307,NW,"ID",50,kirafe,KIRAFE,z,,,,,,0.130451389,-0.115021701,0,0,0,,0,66,66,306,1,
,,,,,,,,,,,,,,,,,,5f0b062853f8960008793934,2020-08-10_15h59.54.444,lexical_decision_task_MP,2020.1.3,MacIntel,60,m,1,0.614965,,,,,,,,0.614965,1,,,,,,174,WORD,UN,33,fabric,TURKEY,m,,,,,,0.130451389,-0.115021701,0,0,0,,0,67,67,173,1,
,,,,,,,,,,,,,,,,,,5f0b062853f8960008793934,2020-08-10_15h59.54.444,lexical_decision_task_MP,2020.1.3,MacIntel,60,m,1,0.604605,,,,,,,,0.604605,1,,,,,,63,WORD,"ID",50,launch,LAUNCH,m,,,,,,0.130451389,-0.115021701,0,0,0,,0,68,68,62,1,
,,,,,,,,,,,,,,,,,,5f0b062853f8960008793934,2020-08-10_15h59.54.444,lexical_decision_task_MP,2020.1.3,MacIntel,60,z,1,0.654655,,,,,,,,0.654655,1,,,,,,455,NW,UN,50,broget,TONDLE,z,,,,,,0.130451389,-0.115021701,0,0,0,,0,69,69,454,1,
,,,,,,,,,,,,,,,,,,5f0b062853f8960008793934,2020-08-10_15h59.54.444,lexical_decision_task_MP,2020.1.3,MacIntel,60,m,1,0.657645,,,,,,,,0.657645,1,,,,,,231,WORD,UN,50,mother,EXPORT,m,,,,,,0.130451389,-0.115021701,0,0,0,,0,70,70,230,1,
,,,,,,,,,,,,,,,,,,5f0b062853f8960008793934,2020-08-10_15h59.54.444,lexical_decision_task_MP,2020.1.3,MacIntel,60,m,1,0.54953,,,,,,,,0.54953,1,,,,,,164,WORD,UN,33,invest,MARKET,m,,,,,,0.130451389,-0.115021701,0,0,0,,0,71,71,163,1,
,,,,,,,,,,,,,,,,,,5f0b062853f8960008793934,2020-08-10_15h59.54.444,lexical_decision_task_MP,2020.1.3,MacIntel,60,z,1,0.93189,,,,,,,,0.93189,1,,,,,,297,NW,"ID",33,fertic,FERTIC,z,,,,,,0.130451389,-0.115021701,0,0,0,,0,72,72,296,1,
,,,,,,,,,,,,,,,,,,5f0b062853f8960008793934,2020-08-10_15h59.54.444,lexical_decision_task_MP,2020.1.3,MacIntel,60,z,1,0.63397,,,,,,,,0.63397,1,,,,,,427,NW,UN,50,tandly,SCHIND,z,,,,,,0.130451389,-0.115021701,0,0,0,,0,73,73,426,1,
,,,,,,,,,,,,,,,,,,5f0b062853f8960008793934,2020-08-10_15h59.54.444,lexical_decision_task_MP,2020.1.3,MacIntel,60,m,1,0.73372,,,,,,,,0.73372,1,,,,,,155,WORD,UN,33,cradle,LIZARD,m,,,,,,0.130451389,-0.115021701,0,0,0,,0,74,74,154,1,
,,,,,,,,,,,,,,,,,,5f0b062853f8960008793934,2020-08-10_15h59.54.444,lexical_decision_task_MP,2020.1.3,MacIntel,60,m,1,1.589075,,,,,,,,1.589075,1,,,,,,74,WORD,"ID",50,plaque,PLAQUE,m,,,,,,0.130451389,-0.115021701,0,0,0,,0,75,75,73,1,
,,,,,,,,,,,,,,,,,,5f0b062853f8960008793934,2020-08-10_15h59.54.444,lexical_decision_task_MP,2020.1.3,MacIntel,60,m,1,0.651175,,,,,,,,0.651175,1,,,,,,60,WORD,"ID",33,pencil,PENCIL,m,,,,,,0.130451389,-0.115021701,0,0,0,,0,76,76,59,1,
,,,,,,,,,,,,,,,,,,5f0b062853f8960008793934,2020-08-10_15h59.54.444,lexical_decision_task_MP,2020.1.3,MacIntel,60,m,1,0.681205,,,,,,,,0.681205,1,,,,,,48,WORD,"ID",33,walnut,WALNUT,m,,,,,,0.130451389,-0.115021701,0,0,0,,0,77,77,47,1,
,,,,,,,,,,,,,,,,,,5f0b062853f8960008793934,2020-08-10_15h59.54.444,lexical_decision_task_MP,2020.1.3,MacIntel,60,m,1,0.719015,,,,,,,,0.719015,1,,,,,,214,WORD,UN,50,phobia,INTAKE,m,,,,,,0.130451389,-0.115021701,0,0,0,,0,78,78,213,1,
,,,,,,,,,,,,,,,,,,5f0b062853f8960008793934,2020-08-10_15h59.54.444,lexical_decision_task_MP,2020.1.3,MacIntel,60,m,1,0.780885,,,,,,,,0.780885,1,,,,,,40,WORD,"ID",33,convey,CONVEY,m,,,,,,0.130451389,-0.115021701,0,0,0,,0,79,79,39,1,
,,,,,,,,,,,,,,,,,,5f0b062853f8960008793934,2020-08-10_15h59.54.444,lexical_decision_task_MP,2020.1.3,MacIntel,60,m,1,0.687745,,,,,,,,0.687745,1,,,,,,130,WORD,UN,33,quench,STUPID,m,,,,,,0.130451389,-0.115021701,0,0,0,,0,80,80,129,1,
,,,,,,,,,,,,,,,,,,5f0b062853f8960008793934,2020-08-10_15h59.54.444,lexical_decision_task_MP,2020.1.3,MacIntel,60,m,1,0.797125,,,,,,,,0.797125,1,,,,,,46,WORD,"ID",33,single,SINGLE,m,,,,,,0.130451389,-0.115021701,0,0,0,,0,81,81,45,1,
,,,,,,,,,,,,,,,,,,5f0b062853f8960008793934,2020-08-10_15h59.54.444,lexical_decision_task_MP,2020.1.3,MacIntel,60,m,1,0.646655,,,,,,,,0.646655,1,,,,,,186,WORD,UN,50,course,PORTAL,m,,,,,,0.130451389,-0.115021701,0,0,0,,0,82,82,185,1,
,,,,,,,,,,,,,,,,,,5f0b062853f8960008793934,2020-08-10_15h59.54.444,lexical_decision_task_MP,2020.1.3,MacIntel,60,m,1,0.605655,,,,,,,,0.605655,1,,,,,,57,WORD,"ID",33,change,CHANGE,m,,,,,,0.130451389,-0.115021701,0,0,0,,0,83,83,56,1,
,,,,,,,,,,,,,,,,,,5f0b062853f8960008793934,2020-08-10_15h59.54.444,lexical_decision_task_MP,2020.1.3,MacIntel,60,z,1,0.706905,,,,,,,,0.706905,1,,,,,,435,NW,UN,50,frutan,IMPURB,z,,,,,,0.130451389,-0.115021701,0,0,0,,0,84,84,434,1,
,,,,,,,,,,,,,,,,,,5f0b062853f8960008793934,2020-08-10_15h59.54.444,lexical_decision_task_MP,2020.1.3,MacIntel,60,m,1,0.688315,,,,,,,,0.688315,1,,,,,,66,WORD,"ID",50,gospel,GOSPEL,m,,,,,,0.130451389,-0.115021701,0,0,0,,0,85,85,65,1,
,,,,,,,,,,,,,,,,,,5f0b062853f8960008793934,2020-08-10_15h59.54.444,lexical_decision_task_MP,2020.1.3,MacIntel,60,m,0,1.557785,,,,,,,,1.557785,0,,,,,,413,NW,UN,33,serbol,EQUATS,z,,,,,,0.130451389,-0.115021701,0,0,0,,0,86,86,412,1,
,,,,,,,,,,,,,,,,,,5f0b062853f8960008793934,2020-08-10_15h59.54.444,lexical_decision_task_MP,2020.1.3,MacIntel,60,z,1,0.67982,,,,,,,,0.67982,1,,,,,,261,NW,"ID",33,stunch,STUNCH,z,,,,,,0.130451389,-0.115021701,0,0,0,,0,87,87,260,1,
,,,,,,,,,,,,,,,,,,5f0b062853f8960008793934,2020-08-10_15h59.54.444,lexical_decision_task_MP,2020.1.3,MacIntel,60,m,1,0.6004,,,,,,,,0.6004,1,,,,,,202,WORD,UN,50,phrase,FACTOR,m,,,,,,0.130451389,-0.115021701,0,0,0,,0,88,88,201,1,
,,,,,,,,,,,,,,,,,,5f0b062853f8960008793934,2020-08-10_15h59.54.444,lexical_decision_task_MP,2020.1.3,MacIntel,60,z,1,0.957105,,,,,,,,0.957105,1,,,,,,277,NW,"ID",33,petain,PETAIN,z,,,,,,0.130451389,-0.115021701,0,0,0,,0,89,89,276,1,
,,,,,,,,,,,,,,,,,,5f0b062853f8960008793934,2020-08-10_15h59.54.444,lexical_decision_task_MP,2020.1.3,MacIntel,60,m,1,0.65245,,,,,,,,0.65245,1,,,,,,3,WORD,"ID",33,knight,KNIGHT,m,,,,,,0.130451389,-0.115021701,0,0,0,,0,90,90,2,1,
,,,,,,,,,,,,,,,,,,5f0b062853f8960008793934,2020-08-10_15h59.54.444,lexical_decision_task_MP,2020.1.3,MacIntel,60,z,1,0.80417,,,,,,,,0.80417,1,,,,,,461,NW,UN,50,absult,JUSTRE,z,,,,,,0.130451389,-0.115021701,0,0,0,,0,91,91,460,1,
,,,,,,,,,,,,,,,,,,5f0b062853f8960008793934,2020-08-10_15h59.54.444,lexical_decision_task_MP,2020.1.3,MacIntel,60,m,1,0.622105,,,,,,,,0.622105,1,,,,,,27,WORD,"ID",33,scream,SCREAM,m,,,,,,0.130451389,-0.115021701,0,0,0,,0,92,92,26,1,
,,,,,,,,,,,,,,,,,,5f0b062853f8960008793934,2020-08-10_15h59.54.444,lexical_decision_task_MP,2020.1.3,MacIntel,60,m,1,0.71511,,,,,,,,0.71511,1,,,,,,193,WORD,UN,50,plague,OBJECT,m,,,,,,0.130451389,-0.115021701,0,0,0,,0,93,93,192,1,
,,,,,,,,,,,,,,,,,,5f0b062853f8960008793934,2020-08-10_15h59.54.444,lexical_decision_task_MP,2020.1.3,MacIntel,60,m,1,0.54997,,,,,,,,0.54997,1,,,,,,103,WORD,"ID",50,bounce,BOUNCE,m,,,,,,0.130451389,-0.115021701,0,0,0,,0,94,94,102,1,
,,,,,,,,,,,,,,,,,,5f0b062853f8960008793934,2020-08-10_15h59.54.444,lexical_decision_task_MP,2020.1.3,MacIntel,60,m,1,0.84719,,,,,,,,0.84719,1,,,,,,131,WORD,UN,33,strong,QUENCH,m,,,,,,0.130451389,-0.115021701,0,0,0,,0,95,95,130,1,
,,,,,,,,,,,,,,,,,,5f0b062853f8960008793934,2020-08-10_15h59.54.444,lexical_decision_task_MP,2020.1.3,MacIntel,60,z,1,0.651665,,,,,,,,0.651665,1,,,,,,415,NW,UN,33,pathel,HIGSTA,z,,,,,,0.130451389,-0.115021701,0,0,0,,0,96,96,414,1,
,,,,,,,,,,,,,,,,,,5f0b062853f8960008793934,2020-08-10_15h59.54.444,lexical_decision_task_MP,2020.1.3,MacIntel,60,m,1,0.816105,,,,,,,,0.816105,1,,,,,,10,WORD,"ID",33,ethnic,ETHNIC,m,,,,,,0.130451389,-0.115021701,0,0,0,,0,97,97,9,1,
,,,,,,,,,,,,,,,,,,5f0b062853f8960008793934,2020-08-10_15h59.54.444,lexical_decision_task_MP,2020.1.3,MacIntel,60,z,1,0.69816,,,,,,,,0.69816,1,,,,,,313,NW,"ID",50,paurse,PAURSE,z,,,,,,0.130451389,-0.115021701,0,0,0,,0,98,98,312,1,
,,,,,,,,,,,,,,,,,,5f0b062853f8960008793934,2020-08-10_15h59.54.444,lexical_decision_task_MP,2020.1.3,MacIntel,60,z,1,0.88682,,,,,,,,0.88682,1,,,,,,247,NW,"ID",33,blarge,BLARGE,z,,,,,,0.130451389,-0.115021701,0,0,0,,0,99,99,246,1,
,,,,,,,,,,,,,,,,,,5f0b062853f8960008793934,2020-08-10_15h59.54.444,lexical_decision_task_MP,2020.1.3,MacIntel,60,z,1,0.61379,,,,,,,,0.61379,1,,,,,,366,NW,UN,33,slique,TOSHEL,z,,,,,,0.130451389,-0.115021701,0,0,0,,0,100,100,365,1,
,,,,,,,,,,,,,,,,,,5f0b062853f8960008793934,2020-08-10_15h59.54.444,lexical_decision_task_MP,2020.1.3,MacIntel,60,m,1,0.667965,,,,,,,,0.667965,1,,,,,,120,WORD,"ID",50,strain,STRAIN,m,,,,,,0.130451389,-0.115021701,0,0,0,,0,101,101,119,1,
,,,,,,,,,,,,,,,,,,5f0b062853f8960008793934,2020-08-10_15h59.54.444,lexical_decision_task_MP,2020.1.3,MacIntel,60,z,1,0.57954,,,,,,,,0.57954,1,,,,,,446,NW,UN,50,gircue,RUNAMO,z,,,,,,0.130451389,-0.115021701,0,0,0,,0,102,102,445,1,
,,,,,,,,,,,,,,,,,,5f0b062853f8960008793934,2020-08-10_15h59.54.444,lexical_decision_task_MP,2020.1.3,MacIntel,60,m,1,0.555665,,,,,,,,0.555665,1,,,,,,240,WORD,UN,50,glance,FOREST,m,,,,,,0.130451389,-0.115021701,0,0,0,,0,103,103,239,1,
,,,,,,,,,,,,,,,,,,5f0b062853f8960008793934,2020-08-10_15h59.54.444,lexical_decision_task_MP,2020.1.3,MacIntel,60,z,1,0.78092,,,,,,,,0.78092,1,,,,,,298,NW,"ID",33,piergy,PIERGY,z,,,,,,0.130451389,-0.115021701,0,0,0,,0,104,104,297,1,
,,,,,,,,,,,,,,,,,,5f0b062853f8960008793934,2020-08-10_15h59.54.444,lexical_decision_task_MP,2020.1.3,MacIntel,60,m,1,0.68671,,,,,,,,0.68671,1,,,,,,220,WORD,UN,50,mascot,VOYAGE,m,,,,,,0.130451389,-0.115021701,0,0,0,,0,105,105,219,1,
,,,,,,,,,,,,,,,,,,5f0b062853f8960008793934,2020-08-10_15h59.54.444,lexical_decision_task_MP,2020.1.3,MacIntel,60,m,1,0.66394,,,,,,,,0.66394,1,,,,,,234,WORD,UN,50,lumber,CLUMSY,m,,,,,,0.130451389,-0.115021701,0,0,0,,0,106,106,233,1,
,,,,,,,,,,,,,,,,,,5f0b062853f8960008793934,2020-08-10_15h59.54.444,lexical_decision_task_MP,2020.1.3,MacIntel,60,m,1,0.666085,,,,,,,,0.666085,1,,,,,,5,WORD,"ID",33,plunge,PLUNGE,m,,,,,,0.130451389,-0.115021701,0,0,0,,0,107,107,4,1,
,,,,,,,,,,,,,,,,,,5f0b062853f8960008793934,2020-08-10_15h59.54.444,lexical_decision_task_MP,2020.1.3,MacIntel,60,m,1,0.701805,,,,,,,,0.701805,1,,,,,,96,WORD,"ID",50,ignore,IGNORE,m,,,,,,0.130451389,-0.115021701,0,0,0,,0,108,108,95,1,
,,,,,,,,,,,,,,,,,,5f0b062853f8960008793934,2020-08-10_15h59.54.444,lexical_decision_task_MP,2020.1.3,MacIntel,60,z,1,0.98561,,,,,,,,0.98561,1,,,,,,288,NW,"ID",33,yaceup,YACEUP,z,,,,,,0.130451389,-0.115021701,0,0,0,,0,109,109,287,1,
,,,,,,,,,,,,,,,,,,5f0b062853f8960008793934,2020-08-10_15h59.54.444,lexical_decision_task_MP,2020.1.3,MacIntel,60,m,1,0.7463,,,,,,,,0.7463,1,,,,,,99,WORD,"ID",50,fluent,FLUENT,m,,,,,,0.130451389,-0.115021701,0,0,0,,0,110,110,98,1,
,,,,,,,,,,,,,,,,,,5f0b062853f8960008793934,2020-08-10_15h59.54.444,lexical_decision_task_MP,2020.1.3,MacIntel,60,z,1,1.346055,,,,,,,,1.346055,1,,,,,,341,NW,"ID",50,myrtie,MYRTIE,z,,,,,,0.130451389,-0.115021701,0,0,0,,0,111,111,340,1,
,,,,,,,,,,,,,,,,,,5f0b062853f8960008793934,2020-08-10_15h59.54.444,lexical_decision_task_MP,2020.1.3,MacIntel,60,m,1,0.915485,,,,,,,,0.915485,1,,,,,,184,WORD,UN,50,bother,SLEAZY,m,,,,,,0.130451389,-0.115021701,0,0,0,,0,112,112,183,1,
,,,,,,,,,,,,,,,,,,5f0b062853f8960008793934,2020-08-10_15h59.54.444,lexical_decision_task_MP,2020.1.3,MacIntel,60,z,1,0.608105,,,,,,,,0.608105,1,,,,,,301,NW,"ID",50,fainch,FAINCH,z,,,,,,0.130451389,-0.115021701,0,0,0,,0,113,113,300,1,
,,,,,,,,,,,,,,,,,,5f0b062853f8960008793934,2020-08-10_15h59.54.444,lexical_decision_task_MP,2020.1.3,MacIntel,60,m,1,0.5809,,,,,,,,0.5809,1,,,,,,167,WORD,UN,33,answer,DESIGN,m,,,,,,0.130451389,-0.115021701,0,0,0,,0,114,114,166,1,
,,,,,,,,,,,,,,,,,,5f0b062853f8960008793934,2020-08-10_15h59.54.444,lexical_decision_task_MP,2020.1.3,MacIntel,60,z,1,0.61499,,,,,,,,0.61499,1,,,,,,332,NW,"ID",50,vangue,VANGUE,z,,,,,,0.130451389,-0.115021701,0,0,0,,0,115,115,331,1,
,,,,,,,,,,,,,,,,,,5f0b062853f8960008793934,2020-08-10_15h59.54.444,lexical_decision_task_MP,2020.1.3,MacIntel,60,m,1,0.499625,,,,,,,,0.499625,1,,,,,,162,WORD,UN,33,string,CANDLE,m,,,,,,0.130451389,-0.115021701,0,0,0,,0,116,116,161,1,
,,,,,,,,,,,,,,,,,,5f0b062853f8960008793934,2020-08-10_15h59.54.444,lexical_decision_task_MP,2020.1.3,MacIntel,60,z,1,1.85125,,,,,,,,1.85125,1,,,,,,462,NW,UN,50,kispel,ABSULT,z,,,,,,0.130451389,-0.115021701,0,0,0,,0,117,117,461,1,
,,,,,,,,,,,,,,,,,,5f0b062853f8960008793934,2020-08-10_15h59.54.444,lexical_decision_task_MP,2020.1.3,MacIntel,60,m,1,0.765675,,,,,,,,0.765675,1,,,,,,75,WORD,"ID",50,trophy,TROPHY,m,,,,,,0.130451389,-0.115021701,0,0,0,,0,118,118,74,1,
,,,,,,,,,,,,,,,,,,5f0b062853f8960008793934,2020-08-10_15h59.54.444,lexical_decision_task_MP,2020.1.3,MacIntel,60,m,1,0.637295,,,,,,,,0.637295,1,,,,,,34,WORD,"ID",33,jungle,JUNGLE,m,,,,,,0.130451389,-0.115021701,0,0,0,,0,119,119,33,1,
,,,,,,,,,,,,,,,,,,5f0b062853f8960008793934,2020-08-10_15h59.54.444,lexical_decision_task_MP,2020.1.3,MacIntel,60,z,1,0.782965,,,,,,,,0.782965,1,,,,,,376,NW,UN,33,sliant,IGUARE,z,,,,,,0.130451389,-0.115021701,0,0,0,space,0,120,120,375,1,32.95294
,,,,,,,,,,,,,,,,,,5f0b062853f8960008793934,2020-08-10_15h59.54.444,lexical_decision_task_MP,2020.1.3,MacIntel,60,m,1,0.703655,,,,,,,,0.703655,1,,,,,,198,WORD,UN,50,invoke,WICKED,m,,,,,,0.130451389,-0.115021701,0,0,0,,0,121,121,197,1,
,,,,,,,,,,,,,,,,,,5f0b062853f8960008793934,2020-08-10_15h59.54.444,lexical_decision_task_MP,2020.1.3,MacIntel,60,m,1,1.020885,,,,,,,,1.020885,1,,,,,,235,WORD,UN,50,pirate,GRUMPY,m,,,,,,0.130451389,-0.115021701,0,0,0,,0,122,122,234,1,
,,,,,,,,,,,,,,,,,,5f0b062853f8960008793934,2020-08-10_15h59.54.444,lexical_decision_task_MP,2020.1.3,MacIntel,60,m,1,0.897545,,,,,,,,0.897545,1,,,,,,73,WORD,"ID",50,source,SOURCE,m,,,,,,0.130451389,-0.115021701,0,0,0,,0,123,123,72,1,
,,,,,,,,,,,,,,,,,,5f0b062853f8960008793934,2020-08-10_15h59.54.444,lexical_decision_task_MP,2020.1.3,MacIntel,60,m,1,0.61988,,,,,,,,0.61988,1,,,,,,20,WORD,"ID",33,breast,BREAST,m,,,,,,0.130451389,-0.115021701,0,0,0,,0,124,124,19,1,
,,,,,,,,,,,,,,,,,,5f0b062853f8960008793934,2020-08-10_15h59.54.444,lexical_decision_task_MP,2020.1.3,MacIntel,60,z,1,0.551355,,,,,,,,0.551355,1,,,,,,456,NW,UN,50,wanigh,BROGET,z,,,,,,0.130451389,-0.115021701,0,0,0,,0,125,125,455,1,
,,,,,,,,,,,,,,,,,,5f0b062853f8960008793934,2020-08-10_15h59.54.444,lexical_decision_task_MP,2020.1.3,MacIntel,60,z,1,0.65064,,,,,,,,0.65064,1,,,,,,349,NW,"ID",50,asylen,ASYLEN,z,,,,,,0.130451389,-0.115021701,0,0,0,,0,126,126,348,1,
,,,,,,,,,,,,,,,,,,5f0b062853f8960008793934,2020-08-10_15h59.54.444,lexical_decision_task_MP,2020.1.3,MacIntel,60,z,1,0.597895,,,,,,,,0.597895,1,,,,,,242,NW,"ID",33,unwert,UNWERT,z,,,,,,0.130451389,-0.115021701,0,0,0,,0,127,127,241,1,
,,,,,,,,,,,,,,,,,,5f0b062853f8960008793934,2020-08-10_15h59.54.444,lexical_decision_task_MP,2020.1.3,MacIntel,60,z,1,0.67007,,,,,,,,0.67007,1,,,,,,253,NW,"ID",33,resait,RESAIT,z,,,,,,0.130451389,-0.115021701,0,0,0,,0,128,128,252,1,
,,,,,,,,,,,,,,,,,,5f0b062853f8960008793934,2020-08-10_15h59.54.444,lexical_decision_task_MP,2020.1.3,MacIntel,60,z,1,0.75615,,,,,,,,0.75615,1,,,,,,291,NW,"ID",33,pretch,PRETCH,z,,,,,,0.130451389,-0.115021701,0,0,0,,0,129,129,290,1,
,,,,,,,,,,,,,,,,,,5f0b062853f8960008793934,2020-08-10_15h59.54.444,lexical_decision_task_MP,2020.1.3,MacIntel,60,m,1,1.23185,,,,,,,,1.23185,1,,,,,,13,WORD,"ID",33,strive,STRIVE,m,,,,,,0.130451389,-0.115021701,0,0,0,,0,130,130,12,1,
,,,,,,,,,,,,,,,,,,5f0b062853f8960008793934,2020-08-10_15h59.54.444,lexical_decision_task_MP,2020.1.3,MacIntel,60,m,1,0.633645,,,,,,,,0.633645,1,,,,,,69,WORD,"ID",50,plenty,PLENTY,m,,,,,,0.130451389,-0.115021701,0,0,0,,0,131,131,68,1,
,,,,,,,,,,,,,,,,,,5f0b062853f8960008793934,2020-08-10_15h59.54.444,lexical_decision_task_MP,2020.1.3,MacIntel,60,m,1,0.97353,,,,,,,,0.97353,1,,,,,,142,WORD,UN,33,orphan,SPRUCE,m,,,,,,0.130451389,-0.115021701,0,0,0,,0,132,132,141,1,
,,,,,,,,,,,,,,,,,,5f0b062853f8960008793934,2020-08-10_15h59.54.444,lexical_decision_task_MP,2020.1.3,MacIntel,60,z,1,0.917405,,,,,,,,0.917405,1,,,,,,355,NW,"ID",50,zingly,ZINGLY,z,,,,,,0.130451389,-0.115021701,0,0,0,,0,133,133,354,1,
,,,,,,,,,,,,,,,,,,5f0b062853f8960008793934,2020-08-10_15h59.54.444,lexical_decision_task_MP,2020.1.3,MacIntel,60,m,1,0.83329,,,,,,,,0.83329,1,,,,,,170,WORD,UN,33,depart,POUNCE,m,,,,,,0.130451389,-0.115021701,0,0,0,,0,134,134,169,1,
,,,,,,,,,,,,,,,,,,5f0b062853f8960008793934,2020-08-10_15h59.54.444,lexical_decision_task_MP,2020.1.3,MacIntel,60,m,1,0.68325,,,,,,,,0.68325,1,,,,,,203,WORD,UN,50,burden,PHRASE,m,,,,,,0.130451389,-0.115021701,0,0,0,,0,135,135,202,1,
,,,,,,,,,,,,,,,,,,5f0b062853f8960008793934,2020-08-10_15h59.54.444,lexical_decision_task_MP,2020.1.3,MacIntel,60,z,1,0.797075,,,,,,,,0.797075,1,,,,,,467,NW,UN,50,wictor,GORBIE,z,,,,,,0.130451389,-0.115021701,0,0,0,,0,136,136,466,1,
,,,,,,,,,,,,,,,,,,5f0b062853f8960008793934,2020-08-10_15h59.54.444,lexical_decision_task_MP,2020.1.3,MacIntel,60,m,1,0.679695,,,,,,,,0.679695,1,,,,,,39,WORD,"ID",33,insect,INSECT,m,,,,,,0.130451389,-0.115021701,0,0,0,,0,137,137,38,1,
,,,,,,,,,,,,,,,,,,5f0b062853f8960008793934,2020-08-10_15h59.54.444,lexical_decision_task_MP,2020.1.3,MacIntel,60,z,1,0.739575,,,,,,,,0.739575,1,,,,,,299,NW,"ID",33,sturch,STURCH,z,,,,,,0.130451389,-0.115021701,0,0,0,,0,138,138,298,1,
,,,,,,,,,,,,,,,,,,5f0b062853f8960008793934,2020-08-10_15h59.54.444,lexical_decision_task_MP,2020.1.3,MacIntel,60,m,1,0.572585,,,,,,,,0.572585,1,,,,,,23,WORD,"ID",33,wealth,WEALTH,m,,,,,,0.130451389,-0.115021701,0,0,0,,0,139,139,22,1,
,,,,,,,,,,,,,,,,,,5f0b062853f8960008793934,2020-08-10_15h59.54.444,lexical_decision_task_MP,2020.1.3,MacIntel,60,m,1,0.71735,,,,,,,,0.71735,1,,,,,,134,WORD,UN,33,import,STAPLE,m,,,,,,0.130451389,-0.115021701,0,0,0,,0,140,140,133,1,
,,,,,,,,,,,,,,,,,,5f0b062853f8960008793934,2020-08-10_15h59.54.444,lexical_decision_task_MP,2020.1.3,MacIntel,60,m,1,0.61444,,,,,,,,0.61444,1,,,,,,58,WORD,"ID",33,foster,FOSTER,m,,,,,,0.130451389,-0.115021701,0,0,0,,0,141,141,57,1,
,,,,,,,,,,,,,,,,,,5f0b062853f8960008793934,2020-08-10_15h59.54.444,lexical_decision_task_MP,2020.1.3,MacIntel,60,z,1,0.830955,,,,,,,,0.830955,1,,,,,,423,NW,UN,50,praile,STRELD,z,,,,,,0.130451389,-0.115021701,0,0,0,,0,142,142,422,1,
,,,,,,,,,,,,,,,,,,5f0b062853f8960008793934,2020-08-10_15h59.54.444,lexical_decision_task_MP,2020.1.3,MacIntel,60,z,1,0.998935,,,,,,,,0.998935,1,,,,,,436,NW,UN,50,snapel,FRUTAN,z,,,,,,0.130451389,-0.115021701,0,0,0,,0,143,143,435,1,
,,,,,,,,,,,,,,,,,,5f0b062853f8960008793934,2020-08-10_15h59.54.444,lexical_decision_task_MP,2020.1.3,MacIntel,60,z,1,0.636575,,,,,,,,0.636575,1,,,,,,252,NW,"ID",33,stapod,STAPOD,z,,,,,,0.130451389,-0.115021701,0,0,0,,0,144,144,251,1,
,,,,,,,,,,,,,,,,,,5f0b062853f8960008793934,2020-08-10_15h59.54.444,lexical_decision_task_MP,2020.1.3,MacIntel,60,z,1,0.53196,,,,,,,,0.53196,1,,,,,,339,NW,"ID",50,fachow,FACHOW,z,,,,,,0.130451389,-0.115021701,0,0,0,,0,145,145,338,1,
,,,,,,,,,,,,,,,,,,5f0b062853f8960008793934,2020-08-10_15h59.54.444,lexical_decision_task_MP,2020.1.3,MacIntel,60,z,1,0.68885,,,,,,,,0.68885,1,,,,,,347,NW,"ID",50,kerift,KERIFT,z,,,,,,0.130451389,-0.115021701,0,0,0,,0,146,146,346,1,
,,,,,,,,,,,,,,,,,,5f0b062853f8960008793934,2020-08-10_15h59.54.444,lexical_decision_task_MP,2020.1.3,MacIntel,60,m,1,0.602185,,,,,,,,0.602185,1,,,,,,100,WORD,"ID",50,carbon,CARBON,m,,,,,,0.130451389,-0.115021701,0,0,0,,0,147,147,99,1,
,,,,,,,,,,,,,,,,,,5f0b062853f8960008793934,2020-08-10_15h59.54.444,lexical_decision_task_MP,2020.1.3,MacIntel,60,z,1,0.672215,,,,,,,,0.672215,1,,,,,,338,NW,"ID",50,wreash,WREASH,z,,,,,,0.130451389,-0.115021701,0,0,0,,0,148,148,337,1,
,,,,,,,,,,,,,,,,,,5f0b062853f8960008793934,2020-08-10_15h59.54.444,lexical_decision_task_MP,2020.1.3,MacIntel,60,m,1,0.545595,,,,,,,,0.545595,1,,,,,,78,WORD,"ID",50,column,COLUMN,m,,,,,,0.130451389,-0.115021701,0,0,0,,0,149,149,77,1,
,,,,,,,,,,,,,,,,,,5f0b062853f8960008793934,2020-08-10_15h59.54.444,lexical_decision_task_MP,2020.1.3,MacIntel,60,m,1,0.634925,,,,,,,,0.634925,1,,,,,,230,WORD,UN,50,export,FRINGE,m,,,,,,0.130451389,-0.115021701,0,0,0,,0,150,150,229,1,
,,,,,,,,,,,,,,,,,,5f0b062853f8960008793934,2020-08-10_15h59.54.444,lexical_decision_task_MP,2020.1.3,MacIntel,60,m,1,0.714145,,,,,,,,0.714145,1,,,,,,221,WORD,UN,50,hinder,MASCOT,m,,,,,,0.130451389,-0.115021701,0,0,0,,0,151,151,220,1,
,,,,,,,,,,,,,,,,,,5f0b062853f8960008793934,2020-08-10_15h59.54.444,lexical_decision_task_MP,2020.1.3,MacIntel,60,m,1,0.98069,,,,,,,,0.98069,1,,,,,,8,WORD,"ID",33,abrupt,ABRUPT,m,,,,,,0.130451389,-0.115021701,0,0,0,,0,152,152,7,1,
,,,,,,,,,,,,,,,,,,5f0b062853f8960008793934,2020-08-10_15h59.54.444,lexical_decision_task_MP,2020.1.3,MacIntel,60,m,1,0.903535,,,,,,,,0.903535,1,,,,,,176,WORD,UN,33,advent,STRIFE,m,,,,,,0.130451389,-0.115021701,0,0,0,,0,153,153,175,1,
,,,,,,,,,,,,,,,,,,5f0b062853f8960008793934,2020-08-10_15h59.54.444,lexical_decision_task_MP,2020.1.3,MacIntel,60,z,1,0.614215,,,,,,,,0.614215,1,,,,,,290,NW,"ID",33,splino,SPLINO,z,,,,,,0.130451389,-0.115021701,0,0,0,,0,154,154,289,1,
,,,,,,,,,,,,,,,,,,5f0b062853f8960008793934,2020-08-10_15h59.54.444,lexical_decision_task_MP,2020.1.3,MacIntel,60,m,1,0.63344,,,,,,,,0.63344,1,,,,,,127,WORD,UN,33,senior,CASTLE,m,,,,,,0.130451389,-0.115021701,0,0,0,,0,155,155,126,1,
,,,,,,,,,,,,,,,,,,5f0b062853f8960008793934,2020-08-10_15h59.54.444,lexical_decision_task_MP,2020.1.3,MacIntel,60,z,1,0.91249,,,,,,,,0.91249,1,,,,,,403,NW,UN,33,cluirm,BRUATS,z,,,,,,0.130451389,-0.115021701,0,0,0,,0,156,156,402,1,
,,,,,,,,,,,,,,,,,,5f0b062853f8960008793934,2020-08-10_15h59.54.444,lexical_decision_task_MP,2020.1.3,MacIntel,60,m,1,0.646465,,,,,,,,0.646465,1,,,,,,101,WORD,"ID",50,wrench,WRENCH,m,,,,,,0.130451389,-0.115021701,0,0,0,,0,157,157,100,1,
,,,,,,,,,,,,,,,,,,5f0b062853f8960008793934,2020-08-10_15h59.54.444,lexical_decision_task_MP,2020.1.3,MacIntel,60,m,1,0.63193,,,,,,,,0.63193,1,,,,,,173,WORD,UN,33,turkey,SHOWER,m,,,,,,0.130451389,-0.115021701,0,0,0,,0,158,158,172,1,
,,,,,,,,,,,,,,,,,,5f0b062853f8960008793934,2020-08-10_15h59.54.444,lexical_decision_task_MP,2020.1.3,MacIntel,60,z,1,0.834015,,,,,,,,0.834015,1,,,,,,335,NW,"ID",50,desion,DESION,z,,,,,,0.130451389,-0.115021701,0,0,0,,0,159,159,334,1,
,,,,,,,,,,,,,,,,,,5f0b062853f8960008793934,2020-08-10_15h59.54.444,lexical_decision_task_MP,2020.1.3,MacIntel,60,m,1,0.869945,,,,,,,,0.869945,1,,,,,,11,WORD,"ID",33,cruise,CRUISE,m,,,,,,0.130451389,-0.115021701,0,0,0,,0,160,160,10,1,
,,,,,,,,,,,,,,,,,,5f0b062853f8960008793934,2020-08-10_15h59.54.444,lexical_decision_task_MP,2020.1.3,MacIntel,60,z,1,0.84471,,,,,,,,0.84471,1,,,,,,445,NW,UN,50,runamo,MINKEL,z,,,,,,0.130451389,-0.115021701,0,0,0,,0,161,161,444,1,
,,,,,,,,,,,,,,,,,,5f0b062853f8960008793934,2020-08-10_15h59.54.444,lexical_decision_task_MP,2020.1.3,MacIntel,60,m,1,0.69974,,,,,,,,0.69974,1,,,,,,218,WORD,UN,50,bucket,SHRINK,m,,,,,,0.130451389,-0.115021701,0,0,0,,0,162,162,217,1,
,,,,,,,,,,,,,,,,,,5f0b062853f8960008793934,2020-08-10_15h59.54.444,lexical_decision_task_MP,2020.1.3,MacIntel,60,m,1,0.69017,,,,,,,,0.69017,1,,,,,,33,WORD,"ID",33,butler,BUTLER,m,,,,,,0.130451389,-0.115021701,0,0,0,,0,163,163,32,1,
,,,,,,,,,,,,,,,,,,5f0b062853f8960008793934,2020-08-10_15h59.54.444,lexical_decision_task_MP,2020.1.3,MacIntel,60,z,1,0.567885,,,,,,,,0.567885,1,,,,,,444,NW,UN,50,minkel,JAUNCE,z,,,,,,0.130451389,-0.115021701,0,0,0,,0,164,164,443,1,
,,,,,,,,,,,,,,,,,,5f0b062853f8960008793934,2020-08-10_15h59.54.444,lexical_decision_task_MP,2020.1.3,MacIntel,60,m,1,1.36847,,,,,,,,1.36847,1,,,,,,185,WORD,UN,50,portal,BOTHER,m,,,,,,0.130451389,-0.115021701,0,0,0,,0,165,165,184,1,
,,,,,,,,,,,,,,,,,,5f0b062853f8960008793934,2020-08-10_15h59.54.444,lexical_decision_task_MP,2020.1.3,MacIntel,60,z,1,0.66617,,,,,,,,0.66617,1,,,,,,429,NW,UN,50,caroey,FUNTLE,z,,,,,,0.130451389,-0.115021701,0,0,0,,0,166,166,428,1,
,,,,,,,,,,,,,,,,,,5f0b062853f8960008793934,2020-08-10_15h59.54.444,lexical_decision_task_MP,2020.1.3,MacIntel,60,z,1,0.735135,,,,,,,,0.735135,1,,,,,,245,NW,"ID",33,anougs,ANOUGS,z,,,,,,0.130451389,-0.115021701,0,0,0,,0,167,167,244,1,
,,,,,,,,,,,,,,,,,,5f0b062853f8960008793934,2020-08-10_15h59.54.444,lexical_decision_task_MP,2020.1.3,MacIntel,60,m,1,0.77062,,,,,,,,0.77062,1,,,,,,205,WORD,UN,50,tailor,LOUNGE,m,,,,,,0.130451389,-0.115021701,0,0,0,,0,168,168,204,1,
,,,,,,,,,,,,,,,,,,5f0b062853f8960008793934,2020-08-10_15h59.54.444,lexical_decision_task_MP,2020.1.3,MacIntel,60,z,1,1.136105,,,,,,,,1.136105,1,,,,,,322,NW,"ID",50,slanch,SLANCH,z,,,,,,0.130451389,-0.115021701,0,0,0,,0,169,169,321,1,
,,,,,,,,,,,,,,,,,,5f0b062853f8960008793934,2020-08-10_15h59.54.444,lexical_decision_task_MP,2020.1.3,MacIntel,60,m,1,0.59869,,,,,,,,0.59869,1,,,,,,158,WORD,UN,33,detail,ISLAND,m,,,,,,0.130451389,-0.115021701,0,0,0,,0,170,170,157,1,
,,,,,,,,,,,,,,,,,,5f0b062853f8960008793934,2020-08-10_15h59.54.444,lexical_decision_task_MP,2020.1.3,MacIntel,60,m,1,0.62933,,,,,,,,0.62933,1,,,,,,67,WORD,"ID",50,policy,POLICY,m,,,,,,0.130451389,-0.115021701,0,0,0,,0,171,171,66,1,
,,,,,,,,,,,,,,,,,,5f0b062853f8960008793934,2020-08-10_15h59.54.444,lexical_decision_task_MP,2020.1.3,MacIntel,60,m,1,0.865895,,,,,,,,0.865895,1,,,,,,148,WORD,UN,33,invade,CUSTOM,m,,,,,,0.130451389,-0.115021701,0,0,0,,0,172,172,147,1,
,,,,,,,,,,,,,,,,,,5f0b062853f8960008793934,2020-08-10_15h59.54.444,lexical_decision_task_MP,2020.1.3,MacIntel,60,z,1,0.562405,,,,,,,,0.562405,1,,,,,,329,NW,"ID",50,yarike,YARIKE,z,,,,,,0.130451389,-0.115021701,0,0,0,,0,173,173,328,1,
,,,,,,,,,,,,,,,,,,5f0b062853f8960008793934,2020-08-10_15h59.54.444,lexical_decision_task_MP,2020.1.3,MacIntel,60,m,1,0.8996,,,,,,,,0.8996,1,,,,,,135,WORD,UN,33,chrome,IMPORT,m,,,,,,0.130451389,-0.115021701,0,0,0,,0,174,174,134,1,
,,,,,,,,,,,,,,,,,,5f0b062853f8960008793934,2020-08-10_15h59.54.444,lexical_decision_task_MP,2020.1.3,MacIntel,60,m,1,0.79975,,,,,,,,0.79975,1,,,,,,237,WORD,UN,50,seldom,POSTER,m,,,,,,0.130451389,-0.115021701,0,0,0,,0,175,175,236,1,
,,,,,,,,,,,,,,,,,,5f0b062853f8960008793934,2020-08-10_15h59.54.444,lexical_decision_task_MP,2020.1.3,MacIntel,60,m,1,0.640275,,,,,,,,0.640275,1,,,,,,151,WORD,UN,33,rocket,MYSTIC,m,,,,,,0.130451389,-0.115021701,0,0,0,,0,176,176,150,1,
,,,,,,,,,,,,,,,,,,5f0b062853f8960008793934,2020-08-10_15h59.54.444,lexical_decision_task_MP,2020.1.3,MacIntel,60,z,1,0.840865,,,,,,,,0.840865,1,,,,,,398,NW,UN,33,fouret,BLUNDE,z,,,,,,0.130451389,-0.115021701,0,0,0,,0,177,177,397,1,
,,,,,,,,,,,,,,,,,,5f0b062853f8960008793934,2020-08-10_15h59.54.444,lexical_decision_task_MP,2020.1.3,MacIntel,60,m,1,0.628995,,,,,,,,0.628995,1,,,,,,108,WORD,"ID",50,reckon,RECKON,m,,,,,,0.130451389,-0.115021701,0,0,0,,0,178,178,107,1,
,,,,,,,,,,,,,,,,,,5f0b062853f8960008793934,2020-08-10_15h59.54.444,lexical_decision_task_MP,2020.1.3,MacIntel,60,z,1,0.68257,,,,,,,,0.68257,1,,,,,,251,NW,"ID",33,lupict,LUPICT,z,,,,,,0.130451389,-0.115021701,0,0,0,,0,179,179,250,1,
,,,,,,,,,,,,,,,,,,5f0b062853f8960008793934,2020-08-10_15h59.54.444,lexical_decision_task_MP,2020.1.3,MacIntel,60,z,1,0.83308,,,,,,,,0.83308,1,,,,,,389,NW,UN,33,hatrus,WITMER,z,,,,,,0.130451389,-0.115021701,0,0,0,,0,180,180,388,1,
,,,,,,,,,,,,,,,,,,5f0b062853f8960008793934,2020-08-10_15h59.54.444,lexical_decision_task_MP,2020.1.3,MacIntel,60,z,1,0.934705,,,,,,,,0.934705,1,,,,,,362,NW,UN,33,breali,TIREAU,z,,,,,,0.130451389,-0.115021701,0,0,0,,0,181,181,361,1,
,,,,,,,,,,,,,,,,,,5f0b062853f8960008793934,2020-08-10_15h59.54.444,lexical_decision_task_MP,2020.1.3,MacIntel,60,z,1,1.00389,,,,,,,,1.00389,1,,,,,,321,NW,"ID",50,miator,MIATOR,z,,,,,,0.130451389,-0.115021701,0,0,0,,0,182,182,320,1,
,,,,,,,,,,,,,,,,,,5f0b062853f8960008793934,2020-08-10_15h59.54.444,lexical_decision_task_MP,2020.1.3,MacIntel,60,z,1,0.696725,,,,,,,,0.696725,1,,,,,,359,NW,"ID",50,fonver,FONVER,z,,,,,,0.130451389,-0.115021701,0,0,0,,0,183,183,358,1,
,,,,,,,,,,,,,,,,,,5f0b062853f8960008793934,2020-08-10_15h59.54.444,lexical_decision_task_MP,2020.1.3,MacIntel,60,z,1,0.746645,,,,,,,,0.746645,1,,,,,,353,NW,"ID",50,clurey,CLUREY,z,,,,,,0.130451389,-0.115021701,0,0,0,,0,184,184,352,1,
,,,,,,,,,,,,,,,,,,5f0b062853f8960008793934,2020-08-10_15h59.54.444,lexical_decision_task_MP,2020.1.3,MacIntel,60,m,1,1.003855,,,,,,,,1.003855,1,,,,,,4,WORD,"ID",33,trench,TRENCH,m,,,,,,0.130451389,-0.115021701,0,0,0,,0,185,185,3,1,
,,,,,,,,,,,,,,,,,,5f0b062853f8960008793934,2020-08-10_15h59.54.444,lexical_decision_task_MP,2020.1.3,MacIntel,60,z,1,0.67956,,,,,,,,0.67956,1,,,,,,344,NW,"ID",50,scrily,SCRILY,z,,,,,,0.130451389,-0.115021701,0,0,0,,0,186,186,343,1,
,,,,,,,,,,,,,,,,,,5f0b062853f8960008793934,2020-08-10_15h59.54.444,lexical_decision_task_MP,2020.1.3,MacIntel,60,m,1,0.56414,,,,,,,,0.56414,1,,,,,,109,WORD,"ID",50,wonder,WONDER,m,,,,,,0.130451389,-0.115021701,0,0,0,,0,187,187,108,1,
,,,,,,,,,,,,,,,,,,5f0b062853f8960008793934,2020-08-10_15h59.54.444,lexical_decision_task_MP,2020.1.3,MacIntel,60,m,1,0.714525,,,,,,,,0.714525,1,,,,,,30,WORD,"ID",33,orient,ORIENT,m,,,,,,0.130451389,-0.115021701,0,0,0,,0,188,188,29,1,
,,,,,,,,,,,,,,,,,,5f0b062853f8960008793934,2020-08-10_15h59.54.444,lexical_decision_task_MP,2020.1.3,MacIntel,60,m,1,0.546385,,,,,,,,0.546385,1,,,,,,95,WORD,"ID",50,thread,THREAD,m,,,,,,0.130451389,-0.115021701,0,0,0,,0,189,189,94,1,
,,,,,,,,,,,,,,,,,,5f0b062853f8960008793934,2020-08-10_15h59.54.444,lexical_decision_task_MP,2020.1.3,MacIntel,60,m,1,0.80708,,,,,,,,0.80708,1,,,,,,128,WORD,UN,33,marvel,SENIOR,m,,,,,,0.130451389,-0.115021701,0,0,0,,0,190,190,127,1,
,,,,,,,,,,,,,,,,,,5f0b062853f8960008793934,2020-08-10_15h59.54.444,lexical_decision_task_MP,2020.1.3,MacIntel,60,z,1,0.6484,,,,,,,,0.6484,1,,,,,,412,NW,UN,33,equats,JILUER,z,,,,,,0.130451389,-0.115021701,0,0,0,,0,191,191,411,1,
,,,,,,,,,,,,,,,,,,5f0b062853f8960008793934,2020-08-10_15h59.54.444,lexical_decision_task_MP,2020.1.3,MacIntel,60,z,1,0.81465,,,,,,,,0.81465,1,,,,,,443,NW,UN,50,jaunce,DORSEX,z,,,,,,0.130451389,-0.115021701,0,0,0,,0,192,192,442,1,
,,,,,,,,,,,,,,,,,,5f0b062853f8960008793934,2020-08-10_15h59.54.444,lexical_decision_task_MP,2020.1.3,MacIntel,60,m,1,0.65562,,,,,,,,0.65562,1,,,,,,209,WORD,UN,50,monkey,SEARCH,m,,,,,,0.130451389,-0.115021701,0,0,0,,0,193,193,208,1,
,,,,,,,,,,,,,,,,,,5f0b062853f8960008793934,2020-08-10_15h59.54.444,lexical_decision_task_MP,2020.1.3,MacIntel,60,m,1,0.94621,,,,,,,,0.94621,1,,,,,,68,WORD,"ID",50,fumble,FUMBLE,m,,,,,,0.130451389,-0.115021701,0,0,0,,0,194,194,67,1,
,,,,,,,,,,,,,,,,,,5f0b062853f8960008793934,2020-08-10_15h59.54.444,lexical_decision_task_MP,2020.1.3,MacIntel,60,z,1,0.64522,,,,,,,,0.64522,1,,,,,,421,NW,UN,50,alcoud,KNISMA,z,,,,,,0.130451389,-0.115021701,0,0,0,,0,195,195,420,1,
,,,,,,,,,,,,,,,,,,5f0b062853f8960008793934,2020-08-10_15h59.54.444,lexical_decision_task_MP,2020.1.3,MacIntel,60,z,1,0.966965,,,,,,,,0.966965,1,,,,,,272,NW,"ID",33,damilt,DAMILT,z,,,,,,0.130451389,-0.115021701,0,0,0,,0,196,196,271,1,
,,,,,,,,,,,,,,,,,,5f0b062853f8960008793934,2020-08-10_15h59.54.444,lexical_decision_task_MP,2020.1.3,MacIntel,60,z,1,0.90789,,,,,,,,0.90789,1,,,,,,308,NW,"ID",50,psetch,PSETCH,z,,,,,,0.130451389,-0.115021701,0,0,0,,0,197,197,307,1,
,,,,,,,,,,,,,,,,,,5f0b062853f8960008793934,2020-08-10_15h59.54.444,lexical_decision_task_MP,2020.1.3,MacIntel,60,m,1,0.623795,,,,,,,,0.623795,1,,,,,,121,WORD,UN,33,linger,THRIVE,m,,,,,,0.130451389,-0.115021701,0,0,0,,0,198,198,120,1,
,,,,,,,,,,,,,,,,,,5f0b062853f8960008793934,2020-08-10_15h59.54.444,lexical_decision_task_MP,2020.1.3,MacIntel,60,m,1,1.168885,,,,,,,,1.168885,1,,,,,,187,WORD,UN,50,social,COURSE,m,,,,,,0.130451389,-0.115021701,0,0,0,,0,199,199,186,1,
,,,,,,,,,,,,,,,,,,5f0b062853f8960008793934,2020-08-10_15h59.54.444,lexical_decision_task_MP,2020.1.3,MacIntel,60,m,1,0.79577,,,,,,,,0.79577,1,,,,,,72,WORD,"ID",50,bright,BRIGHT,m,,,,,,0.130451389,-0.115021701,0,0,0,,0,200,200,71,1,
,,,,,,,,,,,,,,,,,,5f0b062853f8960008793934,2020-08-10_15h59.54.444,lexical_decision_task_MP,2020.1.3,MacIntel,60,z,1,0.57403,,,,,,,,0.57403,1,,,,,,333,NW,"ID",50,catrie,CATRIE,z,,,,,,0.130451389,-0.115021701,0,0,0,,0,201,201,332,1,
,,,,,,,,,,,,,,,,,,5f0b062853f8960008793934,2020-08-10_15h59.54.444,lexical_decision_task_MP,2020.1.3,MacIntel,60,z,1,1.053025,,,,,,,,1.053025,1,,,,,,260,NW,"ID",33,unject,UNJECT,z,,,,,,0.130451389,-0.115021701,0,0,0,,0,202,202,259,1,
,,,,,,,,,,,,,,,,,,5f0b062853f8960008793934,2020-08-10_15h59.54.444,lexical_decision_task_MP,2020.1.3,MacIntel,60,z,1,0.684175,,,,,,,,0.684175,1,,,,,,294,NW,"ID",33,inhort,INHORT,z,,,,,,0.130451389,-0.115021701,0,0,0,,0,203,203,293,1,
,,,,,,,,,,,,,,,,,,5f0b062853f8960008793934,2020-08-10_15h59.54.444,lexical_decision_task_MP,2020.1.3,MacIntel,60,m,1,0.71416,,,,,,,,0.71416,1,,,,,,172,WORD,UN,33,shower,PATROL,m,,,,,,0.130451389,-0.115021701,0,0,0,,0,204,204,171,1,
,,,,,,,,,,,,,,,,,,5f0b062853f8960008793934,2020-08-10_15h59.54.444,lexical_decision_task_MP,2020.1.3,MacIntel,60,z,1,0.770815,,,,,,,,0.770815,1,,,,,,296,NW,"ID",33,beinch,BEINCH,z,,,,,,0.130451389,-0.115021701,0,0,0,,0,205,205,295,1,
,,,,,,,,,,,,,,,,,,5f0b062853f8960008793934,2020-08-10_15h59.54.444,lexical_decision_task_MP,2020.1.3,MacIntel,60,z,1,0.73181,,,,,,,,0.73181,1,,,,,,472,NW,UN,50,crible,CIGNEY,z,,,,,,0.130451389,-0.115021701,0,0,0,,0,206,206,471,1,
,,,,,,,,,,,,,,,,,,5f0b062853f8960008793934,2020-08-10_15h59.54.444,lexical_decision_task_MP,2020.1.3,MacIntel,60,z,1,0.645045,,,,,,,,0.645045,1,,,,,,405,NW,UN,33,nouply,FLUMNI,z,,,,,,0.130451389,-0.115021701,0,0,0,,0,207,207,404,1,
,,,,,,,,,,,,,,,,,,5f0b062853f8960008793934,2020-08-10_15h59.54.444,lexical_decision_task_MP,2020.1.3,MacIntel,60,m,1,0.598375,,,,,,,,0.598375,1,,,,,,115,WORD,"ID",50,guitar,GUITAR,m,,,,,,0.130451389,-0.115021701,0,0,0,,0,208,208,114,1,
,,,,,,,,,,,,,,,,,,5f0b062853f8960008793934,2020-08-10_15h59.54.444,lexical_decision_task_MP,2020.1.3,MacIntel,60,m,1,0.56959,,,,,,,,0.56959,1,,,,,,104,WORD,"ID",50,studio,STUDIO,m,,,,,,0.130451389,-0.115021701,0,0,0,,0,209,209,103,1,
,,,,,,,,,,,,,,,,,,5f0b062853f8960008793934,2020-08-10_15h59.54.444,lexical_decision_task_MP,2020.1.3,MacIntel,60,z,1,0.79,,,,,,,,0.79,1,,,,,,418,NW,UN,33,slount,SUIDLE,z,,,,,,0.130451389,-0.115021701,0,0,0,,0,210,210,417,1,
,,,,,,,,,,,,,,,,,,5f0b062853f8960008793934,2020-08-10_15h59.54.444,lexical_decision_task_MP,2020.1.3,MacIntel,60,z,1,0.80293,,,,,,,,0.80293,1,,,,,,385,NW,UN,33,ancust,VEIGMA,z,,,,,,0.130451389,-0.115021701,0,0,0,,0,211,211,384,1,
,,,,,,,,,,,,,,,,,,5f0b062853f8960008793934,2020-08-10_15h59.54.444,lexical_decision_task_MP,2020.1.3,MacIntel,60,z,1,0.784185,,,,,,,,0.784185,1,,,,,,305,NW,"ID",50,forgle,FORGLE,z,,,,,,0.130451389,-0.115021701,0,0,0,,0,212,212,304,1,
,,,,,,,,,,,,,,,,,,5f0b062853f8960008793934,2020-08-10_15h59.54.444,lexical_decision_task_MP,2020.1.3,MacIntel,60,m,1,0.588155,,,,,,,,0.588155,1,,,,,,14,WORD,"ID",33,almost,ALMOST,m,,,,,,0.130451389,-0.115021701,0,0,0,,0,213,213,13,1,
,,,,,,,,,,,,,,,,,,5f0b062853f8960008793934,2020-08-10_15h59.54.444,lexical_decision_task_MP,2020.1.3,MacIntel,60,m,1,0.668,,,,,,,,0.668,1,,,,,,123,WORD,UN,33,enough,STRIKE,m,,,,,,0.130451389,-0.115021701,0,0,0,,0,214,214,122,1,
,,,,,,,,,,,,,,,,,,5f0b062853f8960008793934,2020-08-10_15h59.54.444,lexical_decision_task_MP,2020.1.3,MacIntel,60,m,1,0.840255,,,,,,,,0.840255,1,,,,,,41,WORD,"ID",33,spring,SPRING,m,,,,,,0.130451389,-0.115021701,0,0,0,,0,215,215,40,1,
,,,,,,,,,,,,,,,,,,5f0b062853f8960008793934,2020-08-10_15h59.54.444,lexical_decision_task_MP,2020.1.3,MacIntel,60,m,1,0.61274,,,,,,,,0.61274,1,,,,,,43,WORD,"ID",33,tongue,TONGUE,m,,,,,,0.130451389,-0.115021701,0,0,0,,0,216,216,42,1,
,,,,,,,,,,,,,,,,,,5f0b062853f8960008793934,2020-08-10_15h59.54.444,lexical_decision_task_MP,2020.1.3,MacIntel,60,z,1,0.7388,,,,,,,,0.7388,1,,,,,,375,NW,UN,33,iguare,YORQUE,z,,,,,,0.130451389,-0.115021701,0,0,0,,0,217,217,374,1,
,,,,,,,,,,,,,,,,,,5f0b062853f8960008793934,2020-08-10_15h59.54.444,lexical_decision_task_MP,2020.1.3,MacIntel,60,m,1,0.94552,,,,,,,,0.94552,1,,,,,,236,WORD,UN,50,poster,PIRATE,m,,,,,,0.130451389,-0.115021701,0,0,0,,0,218,218,235,1,
,,,,,,,,,,,,,,,,,,5f0b062853f8960008793934,2020-08-10_15h59.54.444,lexical_decision_task_MP,2020.1.3,MacIntel,60,m,1,1.26508,,,,,,,,1.26508,1,,,,,,177,WORD,UN,33,inform,ADVENT,m,,,,,,0.130451389,-0.115021701,0,0,0,,0,219,219,176,1,
,,,,,,,,,,,,,,,,,,5f0b062853f8960008793934,2020-08-10_15h59.54.444,lexical_decision_task_MP,2020.1.3,MacIntel,60,z,1,0.76295,,,,,,,,0.76295,1,,,,,,295,NW,"ID",33,gleath,GLEATH,z,,,,,,0.130451389,-0.115021701,0,0,0,,0,220,220,294,1,
,,,,,,,,,,,,,,,,,,5f0b062853f8960008793934,2020-08-10_15h59.54.444,lexical_decision_task_MP,2020.1.3,MacIntel,60,m,1,0.681235,,,,,,,,0.681235,1,,,,,,124,WORD,UN,33,nickel,BLOUSE,m,,,,,,0.130451389,-0.115021701,0,0,0,,0,221,221,123,1,
,,,,,,,,,,,,,,,,,,5f0b062853f8960008793934,2020-08-10_15h59.54.444,lexical_decision_task_MP,2020.1.3,MacIntel,60,m,1,0.697185,,,,,,,,0.697185,1,,,,,,232,WORD,UN,50,nature,INJECT,m,,,,,,0.130451389,-0.115021701,0,0,0,,0,222,222,231,1,
,,,,,,,,,,,,,,,,,,5f0b062853f8960008793934,2020-08-10_15h59.54.444,lexical_decision_task_MP,2020.1.3,MacIntel,60,z,1,0.80065,,,,,,,,0.80065,1,,,,,,374,NW,UN,33,yorque,SLIANT,z,,,,,,0.130451389,-0.115021701,0,0,0,,0,223,223,373,1,
,,,,,,,,,,,,,,,,,,5f0b062853f8960008793934,2020-08-10_15h59.54.444,lexical_decision_task_MP,2020.1.3,MacIntel,60,z,1,0.82451,,,,,,,,0.82451,1,,,,,,330,NW,"ID",50,kensom,KENSOM,z,,,,,,0.130451389,-0.115021701,0,0,0,,0,224,224,329,1,
,,,,,,,,,,,,,,,,,,5f0b062853f8960008793934,2020-08-10_15h59.54.444,lexical_decision_task_MP,2020.1.3,MacIntel,60,z,1,0.788785,,,,,,,,0.788785,1,,,,,,451,NW,UN,50,surden,CAINKY,z,,,,,,0.130451389,-0.115021701,0,0,0,,0,225,225,450,1,
,,,,,,,,,,,,,,,,,,5f0b062853f8960008793934,2020-08-10_15h59.54.444,lexical_decision_task_MP,2020.1.3,MacIntel,60,z,1,0.74021,,,,,,,,0.74021,1,,,,,,289,NW,"ID",33,starby,STARBY,z,,,,,,0.130451389,-0.115021701,0,0,0,,0,226,226,288,1,
,,,,,,,,,,,,,,,,,,5f0b062853f8960008793934,2020-08-10_15h59.54.444,lexical_decision_task_MP,2020.1.3,MacIntel,60,z,1,0.6461,,,,,,,,0.6461,1,,,,,,365,NW,UN,33,toshel,GUAIRT,z,,,,,,0.130451389,-0.115021701,0,0,0,,0,227,227,364,1,
,,,,,,,,,,,,,,,,,,5f0b062853f8960008793934,2020-08-10_15h59.54.444,lexical_decision_task_MP,2020.1.3,MacIntel,60,m,1,0.74044,,,,,,,,0.74044,1,,,,,,137,WORD,UN,33,melody,FINGER,m,,,,,,0.130451389,-0.115021701,0,0,0,,0,228,228,136,1,
,,,,,,,,,,,,,,,,,,5f0b062853f8960008793934,2020-08-10_15h59.54.444,lexical_decision_task_MP,2020.1.3,MacIntel,60,z,1,1.37437,,,,,,,,1.37437,1,,,,,,395,NW,UN,33,flengy,COLURY,z,,,,,,0.130451389,-0.115021701,0,0,0,,0,229,229,394,1,
,,,,,,,,,,,,,,,,,,5f0b062853f8960008793934,2020-08-10_15h59.54.444,lexical_decision_task_MP,2020.1.3,MacIntel,60,z,1,0.723585,,,,,,,,0.723585,1,,,,,,448,NW,UN,50,brunge,SADENT,z,,,,,,0.130451389,-0.115021701,0,0,0,,0,230,230,447,1,
,,,,,,,,,,,,,,,,,,5f0b062853f8960008793934,2020-08-10_15h59.54.444,lexical_decision_task_MP,2020.1.3,MacIntel,60,m,1,0.714105,,,,,,,,0.714105,1,,,,,,42,WORD,"ID",33,chapel,CHAPEL,m,,,,,,0.130451389,-0.115021701,0,0,0,,0,231,231,41,1,
,,,,,,,,,,,,,,,,,,5f0b062853f8960008793934,2020-08-10_15h59.54.444,lexical_decision_task_MP,2020.1.3,MacIntel,60,m,1,0.648205,,,,,,,,0.648205,1,,,,,,132,WORD,UN,33,bleach,STRONG,m,,,,,,0.130451389,-0.115021701,0,0,0,,0,232,232,131,1,
,,,,,,,,,,,,,,,,,,5f0b062853f8960008793934,2020-08-10_15h59.54.444,lexical_decision_task_MP,2020.1.3,MacIntel,60,z,1,0.74592,,,,,,,,0.74592,1,,,,,,380,NW,UN,33,huniek,CAVORY,z,,,,,,0.130451389,-0.115021701,0,0,0,,0,233,233,379,1,
,,,,,,,,,,,,,,,,,,5f0b062853f8960008793934,2020-08-10_15h59.54.444,lexical_decision_task_MP,2020.1.3,MacIntel,60,z,1,0.66628,,,,,,,,0.66628,1,,,,,,384,NW,UN,33,veigma,GUESCO,z,,,,,,0.130451389,-0.115021701,0,0,0,,0,234,234,383,1,
,,,,,,,,,,,,,,,,,,5f0b062853f8960008793934,2020-08-10_15h59.54.444,lexical_decision_task_MP,2020.1.3,MacIntel,60,m,1,0.67321,,,,,,,,0.67321,1,,,,,,178,WORD,UN,33,mildew,INFORM,m,,,,,,0.130451389,-0.115021701,0,0,0,,0,235,235,177,1,
,,,,,,,,,,,,,,,,,,5f0b062853f8960008793934,2020-08-10_15h59.54.444,lexical_decision_task_MP,2020.1.3,MacIntel,60,m,1,0.903755,,,,,,,,0.903755,1,,,,,,226,WORD,UN,50,flower,CASINO,m,,,,,,0.130451389,-0.115021701,0,0,0,,0,236,236,225,1,
,,,,,,,,,,,,,,,,,,5f0b062853f8960008793934,2020-08-10_15h59.54.444,lexical_decision_task_MP,2020.1.3,MacIntel,60,z,1,1.501985,,,,,,,,1.501985,1,,,,,,458,NW,UN,50,chaite,BARCET,z,,,,,,0.130451389,-0.115021701,0,0,0,,0,237,237,457,1,
,,,,,,,,,,,,,,,,,,5f0b062853f8960008793934,2020-08-10_15h59.54.444,lexical_decision_task_MP,2020.1.3,MacIntel,60,z,1,1.14928,,,,,,,,1.14928,1,,,,,,285,NW,"ID",33,prudge,PRUDGE,z,,,,,,0.130451389,-0.115021701,0,0,0,,0,238,238,284,1,
,,,,,,,,,,,,,,,,,,5f0b062853f8960008793934,2020-08-10_15h59.54.444,lexical_decision_task_MP,2020.1.3,MacIntel,60,m,1,0.64803,,,,,,,,0.64803,1,,,,,,206,WORD,UN,50,wreath,TAILOR,m,,,,,,0.130451389,-0.115021701,0,0,0,,0,239,239,205,1,
,,,,,,,,,,,,,,,,,,5f0b062853f8960008793934,2020-08-10_15h59.54.444,lexical_decision_task_MP,2020.1.3,MacIntel,60,m,1,0.767315,,,,,,,,0.767315,1,,,,,,90,WORD,"ID",50,relish,RELISH,m,,,,,,0.130451389,-0.115021701,0,0,0,,0,240,240,89,1,
,,,,,,,,,,,,,,,,,,5f0b062853f8960008793934,2020-08-10_15h59.54.444,lexical_decision_task_MP,2020.1.3,MacIntel,60,z,1,0.71453,,,,,,,,0.71453,1,,,,,,404,NW,UN,33,syntic,CLUIRM,z,,,,,,0.130451389,-0.115021701,0,0,0,space,0,241,241,403,1,13.90738
,,,,,,,,,,,,,,,,,,5f0b062853f8960008793934,2020-08-10_15h59.54.444,lexical_decision_task_MP,2020.1.3,MacIntel,60,m,1,0.80276,,,,,,,,0.80276,1,,,,,,71,WORD,"ID",50,garden,GARDEN,m,,,,,,0.130451389,-0.115021701,0,0,0,,0,242,242,70,1,
,,,,,,,,,,,,,,,,,,5f0b062853f8960008793934,2020-08-10_15h59.54.444,lexical_decision_task_MP,2020.1.3,MacIntel,60,z,1,0.651905,,,,,,,,0.651905,1,,,,,,254,NW,"ID",33,varosh,VAROSH,z,,,,,,0.130451389,-0.115021701,0,0,0,,0,243,243,253,1,
,,,,,,,,,,,,,,,,,,5f0b062853f8960008793934,2020-08-10_15h59.54.444,lexical_decision_task_MP,2020.1.3,MacIntel,60,z,1,0.63794,,,,,,,,0.63794,1,,,,,,302,NW,"ID",50,miluer,MILUER,z,,,,,,0.130451389,-0.115021701,0,0,0,,0,244,244,301,1,
,,,,,,,,,,,,,,,,,,5f0b062853f8960008793934,2020-08-10_15h59.54.444,lexical_decision_task_MP,2020.1.3,MacIntel,60,z,1,0.88086,,,,,,,,0.88086,1,,,,,,454,NW,UN,50,tondle,SCOUGE,z,,,,,,0.130451389,-0.115021701,0,0,0,,0,245,245,453,1,
,,,,,,,,,,,,,,,,,,5f0b062853f8960008793934,2020-08-10_15h59.54.444,lexical_decision_task_MP,2020.1.3,MacIntel,60,z,1,0.68686,,,,,,,,0.68686,1,,,,,,396,NW,UN,33,camble,FLENGY,z,,,,,,0.130451389,-0.115021701,0,0,0,,0,246,246,395,1,
,,,,,,,,,,,,,,,,,,5f0b062853f8960008793934,2020-08-10_15h59.54.444,lexical_decision_task_MP,2020.1.3,MacIntel,60,m,1,0.64738,,,,,,,,0.64738,1,,,,,,94,WORD,"ID",50,travel,TRAVEL,m,,,,,,0.130451389,-0.115021701,0,0,0,,0,247,247,93,1,
,,,,,,,,,,,,,,,,,,5f0b062853f8960008793934,2020-08-10_15h59.54.444,lexical_decision_task_MP,2020.1.3,MacIntel,60,m,1,0.54819,,,,,,,,0.54819,1,,,,,,55,WORD,"ID",33,stroke,STROKE,m,,,,,,0.130451389,-0.115021701,0,0,0,,0,248,248,54,1,
,,,,,,,,,,,,,,,,,,5f0b062853f8960008793934,2020-08-10_15h59.54.444,lexical_decision_task_MP,2020.1.3,MacIntel,60,m,1,0.481155,,,,,,,,0.481155,1,,,,,,70,WORD,"ID",50,square,SQUARE,m,,,,,,0.130451389,-0.115021701,0,0,0,,0,249,249,69,1,
,,,,,,,,,,,,,,,,,,5f0b062853f8960008793934,2020-08-10_15h59.54.444,lexical_decision_task_MP,2020.1.3,MacIntel,60,z,1,0.537535,,,,,,,,0.537535,1,,,,,,336,NW,"ID",50,ghodus,GHODUS,z,,,,,,0.130451389,-0.115021701,0,0,0,,0,250,250,335,1,
,,,,,,,,,,,,,,,,,,5f0b062853f8960008793934,2020-08-10_15h59.54.444,lexical_decision_task_MP,2020.1.3,MacIntel,60,m,1,0.515215,,,,,,,,0.515215,1,,,,,,31,WORD,"ID",33,weapon,WEAPON,m,,,,,,0.130451389,-0.115021701,0,0,0,,0,251,251,30,1,
,,,,,,,,,,,,,,,,,,5f0b062853f8960008793934,2020-08-10_15h59.54.444,lexical_decision_task_MP,2020.1.3,MacIntel,60,m,1,0.60797,,,,,,,,0.60797,1,,,,,,17,WORD,"ID",33,charge,CHARGE,m,,,,,,0.130451389,-0.115021701,0,0,0,,0,252,252,16,1,
,,,,,,,,,,,,,,,,,,5f0b062853f8960008793934,2020-08-10_15h59.54.444,lexical_decision_task_MP,2020.1.3,MacIntel,60,z,1,0.87324,,,,,,,,0.87324,1,,,,,,438,NW,UN,50,limpor,BAITCH,z,,,,,,0.130451389,-0.115021701,0,0,0,,0,253,253,437,1,
,,,,,,,,,,,,,,,,,,5f0b062853f8960008793934,2020-08-10_15h59.54.444,lexical_decision_task_MP,2020.1.3,MacIntel,60,z,1,0.69795,,,,,,,,0.69795,1,,,,,,273,NW,"ID",33,sortel,SORTEL,z,,,,,,0.130451389,-0.115021701,0,0,0,,0,254,254,272,1,
,,,,,,,,,,,,,,,,,,5f0b062853f8960008793934,2020-08-10_15h59.54.444,lexical_decision_task_MP,2020.1.3,MacIntel,60,z,1,0.515315,,,,,,,,0.515315,1,,,,,,351,NW,"ID",50,tiesch,TIESCH,z,,,,,,0.130451389,-0.115021701,0,0,0,,0,255,255,350,1,
,,,,,,,,,,,,,,,,,,5f0b062853f8960008793934,2020-08-10_15h59.54.444,lexical_decision_task_MP,2020.1.3,MacIntel,60,z,1,0.564185,,,,,,,,0.564185,1,,,,,,388,NW,UN,33,witmer,CRAGIN,z,,,,,,0.130451389,-0.115021701,0,0,0,,0,256,256,387,1,
,,,,,,,,,,,,,,,,,,5f0b062853f8960008793934,2020-08-10_15h59.54.444,lexical_decision_task_MP,2020.1.3,MacIntel,60,m,1,0.63203,,,,,,,,0.63203,1,,,,,,136,WORD,UN,33,finger,BLEACH,m,,,,,,0.130451389,-0.115021701,0,0,0,,0,257,257,135,1,
,,,,,,,,,,,,,,,,,,5f0b062853f8960008793934,2020-08-10_15h59.54.444,lexical_decision_task_MP,2020.1.3,MacIntel,60,z,1,0.619265,,,,,,,,0.619265,1,,,,,,408,NW,UN,33,flumni,HURNIA,z,,,,,,0.130451389,-0.115021701,0,0,0,,0,258,258,407,1,
,,,,,,,,,,,,,,,,,,5f0b062853f8960008793934,2020-08-10_15h59.54.444,lexical_decision_task_MP,2020.1.3,MacIntel,60,m,1,0.68334,,,,,,,,0.68334,1,,,,,,160,WORD,UN,33,dragon,VIOLET,m,,,,,,0.130451389,-0.115021701,0,0,0,,0,259,259,159,1,
,,,,,,,,,,,,,,,,,,5f0b062853f8960008793934,2020-08-10_15h59.54.444,lexical_decision_task_MP,2020.1.3,MacIntel,60,z,1,0.853055,,,,,,,,0.853055,1,,,,,,328,NW,"ID",50,broake,BROAKE,z,,,,,,0.130451389,-0.115021701,0,0,0,,0,260,260,327,1,
,,,,,,,,,,,,,,,,,,5f0b062853f8960008793934,2020-08-10_15h59.54.444,lexical_decision_task_MP,2020.1.3,MacIntel,60,z,1,1.071245,,,,,,,,1.071245,1,,,,,,411,NW,UN,33,jiluer,ORCHIN,z,,,,,,0.130451389,-0.115021701,0,0,0,,0,261,261,410,1,
,,,,,,,,,,,,,,,,,,5f0b062853f8960008793934,2020-08-10_15h59.54.444,lexical_decision_task_MP,2020.1.3,MacIntel,60,m,1,0.682765,,,,,,,,0.682765,1,,,,,,239,WORD,UN,50,forest,LUMBER,m,,,,,,0.130451389,-0.115021701,0,0,0,,0,262,262,238,1,
,,,,,,,,,,,,,,,,,,5f0b062853f8960008793934,2020-08-10_15h59.54.444,lexical_decision_task_MP,2020.1.3,MacIntel,60,m,1,0.66954,,,,,,,,0.66954,1,,,,,,87,WORD,"ID",50,filter,FILTER,m,,,,,,0.130451389,-0.115021701,0,0,0,,0,263,263,86,1,
,,,,,,,,,,,,,,,,,,5f0b062853f8960008793934,2020-08-10_15h59.54.444,lexical_decision_task_MP,2020.1.3,MacIntel,60,z,1,0.649325,,,,,,,,0.649325,1,,,,,,363,NW,UN,33,impote,BREALI,z,,,,,,0.130451389,-0.115021701,0,0,0,,0,264,264,362,1,
,,,,,,,,,,,,,,,,,,5f0b062853f8960008793934,2020-08-10_15h59.54.444,lexical_decision_task_MP,2020.1.3,MacIntel,60,z,1,1.101185,,,,,,,,1.101185,1,,,,,,292,NW,"ID",33,ablint,ABLINT,z,,,,,,0.130451389,-0.115021701,0,0,0,,0,265,265,291,1,
,,,,,,,,,,,,,,,,,,5f0b062853f8960008793934,2020-08-10_15h59.54.444,lexical_decision_task_MP,2020.1.3,MacIntel,60,z,1,0.694005,,,,,,,,0.694005,1,,,,,,304,NW,"ID",50,cludie,CLUDIE,z,,,,,,0.130451389,-0.115021701,0,0,0,,0,266,266,303,1,
,,,,,,,,,,,,,,,,,,5f0b062853f8960008793934,2020-08-10_15h59.54.444,lexical_decision_task_MP,2020.1.3,MacIntel,60,z,1,0.771635,,,,,,,,0.771635,1,,,,,,255,NW,"ID",33,apight,APIGHT,z,,,,,,0.130451389,-0.115021701,0,0,0,,0,267,267,254,1,
,,,,,,,,,,,,,,,,,,5f0b062853f8960008793934,2020-08-10_15h59.54.444,lexical_decision_task_MP,2020.1.3,MacIntel,60,m,1,0.67157,,,,,,,,0.67157,1,,,,,,25,WORD,"ID",33,domain,DOMAIN,m,,,,,,0.130451389,-0.115021701,0,0,0,,0,268,268,24,1,
,,,,,,,,,,,,,,,,,,5f0b062853f8960008793934,2020-08-10_15h59.54.444,lexical_decision_task_MP,2020.1.3,MacIntel,60,z,1,0.646565,,,,,,,,0.646565,1,,,,,,386,NW,UN,33,gronce,ANCUST,z,,,,,,0.130451389,-0.115021701,0,0,0,,0,269,269,385,1,
,,,,,,,,,,,,,,,,,,5f0b062853f8960008793934,2020-08-10_15h59.54.444,lexical_decision_task_MP,2020.1.3,MacIntel,60,z,1,0.68214,,,,,,,,0.68214,1,,,,,,248,NW,"ID",33,strole,STROLE,z,,,,,,0.130451389,-0.115021701,0,0,0,,0,270,270,247,1,
,,,,,,,,,,,,,,,,,,5f0b062853f8960008793934,2020-08-10_15h59.54.444,lexical_decision_task_MP,2020.1.3,MacIntel,60,z,1,0.99762,,,,,,,,0.99762,1,,,,,,433,NW,UN,50,pitrom,DRANCE,z,,,,,,0.130451389,-0.115021701,0,0,0,,0,271,271,432,1,
,,,,,,,,,,,,,,,,,,5f0b062853f8960008793934,2020-08-10_15h59.54.444,lexical_decision_task_MP,2020.1.3,MacIntel,60,z,1,0.78255,,,,,,,,0.78255,1,,,,,,337,NW,"ID",50,rejols,REJOLS,z,,,,,,0.130451389,-0.115021701,0,0,0,,0,272,272,336,1,
,,,,,,,,,,,,,,,,,,5f0b062853f8960008793934,2020-08-10_15h59.54.444,lexical_decision_task_MP,2020.1.3,MacIntel,60,z,1,0.56718,,,,,,,,0.56718,1,,,,,,422,NW,UN,50,streld,ALCOUD,z,,,,,,0.130451389,-0.115021701,0,0,0,,0,273,273,421,1,
,,,,,,,,,,,,,,,,,,5f0b062853f8960008793934,2020-08-10_15h59.54.444,lexical_decision_task_MP,2020.1.3,MacIntel,60,m,1,0.91463,,,,,,,,0.91463,1,,,,,,222,WORD,UN,50,casino,HINDER,m,,,,,,0.130451389,-0.115021701,0,0,0,,0,274,274,221,1,
,,,,,,,,,,,,,,,,,,5f0b062853f8960008793934,2020-08-10_15h59.54.444,lexical_decision_task_MP,2020.1.3,MacIntel,60,m,1,0.632945,,,,,,,,0.632945,1,,,,,,229,WORD,UN,50,fringe,MOTHER,m,,,,,,0.130451389,-0.115021701,0,0,0,,0,275,275,228,1,
,,,,,,,,,,,,,,,,,,5f0b062853f8960008793934,2020-08-10_15h59.54.444,lexical_decision_task_MP,2020.1.3,MacIntel,60,z,1,1.18797,,,,,,,,1.18797,1,,,,,,402,NW,UN,33,bruats,SYNTIC,z,,,,,,0.130451389,-0.115021701,0,0,0,,0,276,276,401,1,
,,,,,,,,,,,,,,,,,,5f0b062853f8960008793934,2020-08-10_15h59.54.444,lexical_decision_task_MP,2020.1.3,MacIntel,60,z,1,0.836305,,,,,,,,0.836305,1,,,,,,311,NW,"ID",50,sproly,SPROLY,z,,,,,,0.130451389,-0.115021701,0,0,0,,0,277,277,310,1,
,,,,,,,,,,,,,,,,,,5f0b062853f8960008793934,2020-08-10_15h59.54.444,lexical_decision_task_MP,2020.1.3,MacIntel,60,z,1,0.702455,,,,,,,,0.702455,1,,,,,,381,NW,UN,33,sarley,HUNIEK,z,,,,,,0.130451389,-0.115021701,0,0,0,,0,278,278,380,1,
,,,,,,,,,,,,,,,,,,5f0b062853f8960008793934,2020-08-10_15h59.54.444,lexical_decision_task_MP,2020.1.3,MacIntel,60,m,1,0.75671,,,,,,,,0.75671,1,,,,,,200,WORD,UN,50,admire,BEACON,m,,,,,,0.130451389,-0.115021701,0,0,0,,0,279,279,199,1,
,,,,,,,,,,,,,,,,,,5f0b062853f8960008793934,2020-08-10_15h59.54.444,lexical_decision_task_MP,2020.1.3,MacIntel,60,m,1,0.63267,,,,,,,,0.63267,1,,,,,,144,WORD,UN,33,parish,SPONGE,m,,,,,,0.130451389,-0.115021701,0,0,0,,0,280,280,143,1,
,,,,,,,,,,,,,,,,,,5f0b062853f8960008793934,2020-08-10_15h59.54.444,lexical_decision_task_MP,2020.1.3,MacIntel,60,z,1,1.542545,,,,,,,,1.542545,1,,,,,,469,NW,UN,50,crudio,PADIFS,z,,,,,,0.130451389,-0.115021701,0,0,0,,0,281,281,468,1,
,,,,,,,,,,,,,,,,,,5f0b062853f8960008793934,2020-08-10_15h59.54.444,lexical_decision_task_MP,2020.1.3,MacIntel,60,m,1,0.616605,,,,,,,,0.616605,1,,,,,,9,WORD,"ID",33,hustle,HUSTLE,m,,,,,,0.130451389,-0.115021701,0,0,0,,0,282,282,8,1,
,,,,,,,,,,,,,,,,,,5f0b062853f8960008793934,2020-08-10_15h59.54.444,lexical_decision_task_MP,2020.1.3,MacIntel,60,m,1,0.73699,,,,,,,,0.73699,1,,,,,,146,WORD,UN,33,garlic,COUPLE,m,,,,,,0.130451389,-0.115021701,0,0,0,,0,283,283,145,1,
,,,,,,,,,,,,,,,,,,5f0b062853f8960008793934,2020-08-10_15h59.54.444,lexical_decision_task_MP,2020.1.3,MacIntel,60,z,1,0.7149,,,,,,,,0.7149,1,,,,,,370,NW,UN,33,geiloy,SLEACT,z,,,,,,0.130451389,-0.115021701,0,0,0,,0,284,284,369,1,
,,,,,,,,,,,,,,,,,,5f0b062853f8960008793934,2020-08-10_15h59.54.444,lexical_decision_task_MP,2020.1.3,MacIntel,60,m,1,0.54741,,,,,,,,0.54741,1,,,,,,2,WORD,"ID",33,bridge,BRIDGE,m,,,,,,0.130451389,-0.115021701,0,0,0,,0,285,285,1,1,
,,,,,,,,,,,,,,,,,,5f0b062853f8960008793934,2020-08-10_15h59.54.444,lexical_decision_task_MP,2020.1.3,MacIntel,60,m,1,0.55132,,,,,,,,0.55132,1,,,,,,97,WORD,"ID",50,client,CLIENT,m,,,,,,0.130451389,-0.115021701,0,0,0,,0,286,286,96,1,
,,,,,,,,,,,,,,,,,,5f0b062853f8960008793934,2020-08-10_15h59.54.444,lexical_decision_task_MP,2020.1.3,MacIntel,60,z,1,0.638915,,,,,,,,0.638915,1,,,,,,310,NW,"ID",50,daniet,DANIET,z,,,,,,0.130451389,-0.115021701,0,0,0,,0,287,287,309,1,
,,,,,,,,,,,,,,,,,,5f0b062853f8960008793934,2020-08-10_15h59.54.444,lexical_decision_task_MP,2020.1.3,MacIntel,60,z,1,0.67958,,,,,,,,0.67958,1,,,,,,258,NW,"ID",33,poluth,POLUTH,z,,,,,,0.130451389,-0.115021701,0,0,0,,0,288,288,257,1,
,,,,,,,,,,,,,,,,,,5f0b062853f8960008793934,2020-08-10_15h59.54.444,lexical_decision_task_MP,2020.1.3,MacIntel,60,m,1,0.748325,,,,,,,,0.748325,1,,,,,,161,WORD,UN,33,candle,PASTOR,m,,,,,,0.130451389,-0.115021701,0,0,0,,0,289,289,160,1,
,,,,,,,,,,,,,,,,,,5f0b062853f8960008793934,2020-08-10_15h59.54.444,lexical_decision_task_MP,2020.1.3,MacIntel,60,z,1,0.596575,,,,,,,,0.596575,1,,,,,,358,NW,"ID",50,fleack,FLEACK,z,,,,,,0.130451389,-0.115021701,0,0,0,,0,290,290,357,1,
,,,,,,,,,,,,,,,,,,5f0b062853f8960008793934,2020-08-10_15h59.54.444,lexical_decision_task_MP,2020.1.3,MacIntel,60,z,1,0.91558,,,,,,,,0.91558,1,,,,,,383,NW,UN,33,guesco,AUNGRE,z,,,,,,0.130451389,-0.115021701,0,0,0,,0,291,291,382,1,
,,,,,,,,,,,,,,,,,,5f0b062853f8960008793934,2020-08-10_15h59.54.444,lexical_decision_task_MP,2020.1.3,MacIntel,60,m,1,0.648745,,,,,,,,0.648745,1,,,,,,139,WORD,UN,33,prince,DEBRIS,m,,,,,,0.130451389,-0.115021701,0,0,0,,0,292,292,138,1,
,,,,,,,,,,,,,,,,,,5f0b062853f8960008793934,2020-08-10_15h59.54.444,lexical_decision_task_MP,2020.1.3,MacIntel,60,z,1,0.578785,,,,,,,,0.578785,1,,,,,,473,NW,UN,50,hablin,CRIBLE,z,,,,,,0.130451389,-0.115021701,0,0,0,,0,293,293,472,1,
,,,,,,,,,,,,,,,,,,5f0b062853f8960008793934,2020-08-10_15h59.54.444,lexical_decision_task_MP,2020.1.3,MacIntel,60,z,1,0.880185,,,,,,,,0.880185,1,,,,,,479,NW,UN,50,josted,LOBUSH,z,,,,,,0.130451389,-0.115021701,0,0,0,,0,294,294,478,1,
,,,,,,,,,,,,,,,,,,5f0b062853f8960008793934,2020-08-10_15h59.54.444,lexical_decision_task_MP,2020.1.3,MacIntel,60,m,1,0.579555,,,,,,,,0.579555,1,,,,,,38,WORD,"ID",33,powder,POWDER,m,,,,,,0.130451389,-0.115021701,0,0,0,,0,295,295,37,1,
,,,,,,,,,,,,,,,,,,5f0b062853f8960008793934,2020-08-10_15h59.54.444,lexical_decision_task_MP,2020.1.3,MacIntel,60,z,1,1.032,,,,,,,,1.032,1,,,,,,279,NW,"ID",33,celond,CELOND,z,,,,,,0.130451389,-0.115021701,0,0,0,,0,296,296,278,1,
,,,,,,,,,,,,,,,,,,5f0b062853f8960008793934,2020-08-10_15h59.54.444,lexical_decision_task_MP,2020.1.3,MacIntel,60,m,1,0.700135,,,,,,,,0.700135,1,,,,,,86,WORD,"ID",50,rodent,RODENT,m,,,,,,0.130451389,-0.115021701,0,0,0,,0,297,297,85,1,
,,,,,,,,,,,,,,,,,,5f0b062853f8960008793934,2020-08-10_15h59.54.444,lexical_decision_task_MP,2020.1.3,MacIntel,60,z,1,0.63949,,,,,,,,0.63949,1,,,,,,407,NW,UN,33,hurnia,SUIVER,z,,,,,,0.130451389,-0.115021701,0,0,0,,0,298,298,406,1,
,,,,,,,,,,,,,,,,,,5f0b062853f8960008793934,2020-08-10_15h59.54.444,lexical_decision_task_MP,2020.1.3,MacIntel,60,m,1,0.529595,,,,,,,,0.529595,1,,,,,,44,WORD,"ID",33,danger,DANGER,m,,,,,,0.130451389,-0.115021701,0,0,0,,0,299,299,43,1,
,,,,,,,,,,,,,,,,,,5f0b062853f8960008793934,2020-08-10_15h59.54.444,lexical_decision_task_MP,2020.1.3,MacIntel,60,z,1,0.64965,,,,,,,,0.64965,1,,,,,,364,NW,UN,33,guairt,IMPOTE,z,,,,,,0.130451389,-0.115021701,0,0,0,,0,300,300,363,1,
,,,,,,,,,,,,,,,,,,5f0b062853f8960008793934,2020-08-10_15h59.54.444,lexical_decision_task_MP,2020.1.3,MacIntel,60,m,1,0.605635,,,,,,,,0.605635,1,,,,,,140,WORD,UN,33,reason,PRINCE,m,,,,,,0.130451389,-0.115021701,0,0,0,,0,301,301,139,1,
,,,,,,,,,,,,,,,,,,5f0b062853f8960008793934,2020-08-10_15h59.54.444,lexical_decision_task_MP,2020.1.3,MacIntel,60,z,1,0.70566,,,,,,,,0.70566,1,,,,,,449,NW,UN,50,phrect,BRUNGE,z,,,,,,0.130451389,-0.115021701,0,0,0,,0,302,302,448,1,
,,,,,,,,,,,,,,,,,,5f0b062853f8960008793934,2020-08-10_15h59.54.444,lexical_decision_task_MP,2020.1.3,MacIntel,60,m,1,0.702385,,,,,,,,0.702385,1,,,,,,213,WORD,UN,50,intake,SQUEAL,m,,,,,,0.130451389,-0.115021701,0,0,0,,0,303,303,212,1,
,,,,,,,,,,,,,,,,,,5f0b062853f8960008793934,2020-08-10_15h59.54.444,lexical_decision_task_MP,2020.1.3,MacIntel,60,z,1,0.65191,,,,,,,,0.65191,1,,,,,,271,NW,"ID",33,aubrid,AUBRID,z,,,,,,0.130451389,-0.115021701,0,0,0,,0,304,304,270,1,
,,,,,,,,,,,,,,,,,,5f0b062853f8960008793934,2020-08-10_15h59.54.444,lexical_decision_task_MP,2020.1.3,MacIntel,60,z,1,0.66536,,,,,,,,0.66536,1,,,,,,368,NW,UN,33,wronch,HORNAL,z,,,,,,0.130451389,-0.115021701,0,0,0,,0,305,305,367,1,
,,,,,,,,,,,,,,,,,,5f0b062853f8960008793934,2020-08-10_15h59.54.444,lexical_decision_task_MP,2020.1.3,MacIntel,60,z,1,0.61453,,,,,,,,0.61453,1,,,,,,276,NW,"ID",33,yarmon,YARMON,z,,,,,,0.130451389,-0.115021701,0,0,0,,0,306,306,275,1,
,,,,,,,,,,,,,,,,,,5f0b062853f8960008793934,2020-08-10_15h59.54.444,lexical_decision_task_MP,2020.1.3,MacIntel,60,m,1,0.521425,,,,,,,,0.521425,1,,,,,,93,WORD,"ID",50,public,PUBLIC,m,,,,,,0.130451389,-0.115021701,0,0,0,,0,307,307,92,1,
,,,,,,,,,,,,,,,,,,5f0b062853f8960008793934,2020-08-10_15h59.54.444,lexical_decision_task_MP,2020.1.3,MacIntel,60,z,1,0.863285,,,,,,,,0.863285,1,,,,,,243,NW,"ID",33,musied,MUSIED,z,,,,,,0.130451389,-0.115021701,0,0,0,,0,308,308,242,1,
,,,,,,,,,,,,,,,,,,5f0b062853f8960008793934,2020-08-10_15h59.54.444,lexical_decision_task_MP,2020.1.3,MacIntel,60,m,1,0.646535,,,,,,,,0.646535,1,,,,,,62,WORD,"ID",50,region,REGION,m,,,,,,0.130451389,-0.115021701,0,0,0,,0,309,309,61,1,
,,,,,,,,,,,,,,,,,,5f0b062853f8960008793934,2020-08-10_15h59.54.444,lexical_decision_task_MP,2020.1.3,MacIntel,60,z,1,0.649445,,,,,,,,0.649445,1,,,,,,459,NW,UN,50,mingar,BAFENT,z,,,,,,0.130451389,-0.115021701,0,0,0,,0,310,310,458,1,
,,,,,,,,,,,,,,,,,,5f0b062853f8960008793934,2020-08-10_15h59.54.444,lexical_decision_task_MP,2020.1.3,MacIntel,60,m,1,0.569525,,,,,,,,0.569525,1,,,,,,233,WORD,UN,50,clumsy,NATURE,m,,,,,,0.130451389,-0.115021701,0,0,0,,0,311,311,232,1,
,,,,,,,,,,,,,,,,,,5f0b062853f8960008793934,2020-08-10_15h59.54.444,lexical_decision_task_MP,2020.1.3,MacIntel,60,z,1,0.663665,,,,,,,,0.663665,1,,,,,,325,NW,"ID",50,thruse,THRUSE,z,,,,,,0.130451389,-0.115021701,0,0,0,,0,312,312,324,1,
,,,,,,,,,,,,,,,,,,5f0b062853f8960008793934,2020-08-10_15h59.54.444,lexical_decision_task_MP,2020.1.3,MacIntel,60,z,1,0.680875,,,,,,,,0.680875,1,,,,,,475,NW,UN,50,robuly,PEBRIC,z,,,,,,0.130451389,-0.115021701,0,0,0,,0,313,313,474,1,
,,,,,,,,,,,,,,,,,,5f0b062853f8960008793934,2020-08-10_15h59.54.444,lexical_decision_task_MP,2020.1.3,MacIntel,60,z,1,0.53001,,,,,,,,0.53001,1,,,,,,361,NW,UN,33,tireau,PAUCHE,z,,,,,,0.130451389,-0.115021701,0,0,0,,0,314,314,360,1,
,,,,,,,,,,,,,,,,,,5f0b062853f8960008793934,2020-08-10_15h59.54.444,lexical_decision_task_MP,2020.1.3,MacIntel,60,m,1,0.599785,,,,,,,,0.599785,1,,,,,,188,WORD,UN,50,censor,SOCIAL,m,,,,,,0.130451389,-0.115021701,0,0,0,,0,315,315,187,1,
,,,,,,,,,,,,,,,,,,5f0b062853f8960008793934,2020-08-10_15h59.54.444,lexical_decision_task_MP,2020.1.3,MacIntel,60,z,1,0.60299,,,,,,,,0.60299,1,,,,,,463,NW,UN,50,bafent,KISPEL,z,,,,,,0.130451389,-0.115021701,0,0,0,,0,316,316,462,1,
,,,,,,,,,,,,,,,,,,5f0b062853f8960008793934,2020-08-10_15h59.54.444,lexical_decision_task_MP,2020.1.3,MacIntel,60,z,1,0.729085,,,,,,,,0.729085,1,,,,,,400,NW,UN,33,mustil,WEAROX,z,,,,,,0.130451389,-0.115021701,0,0,0,,0,317,317,399,1,
,,,,,,,,,,,,,,,,,,5f0b062853f8960008793934,2020-08-10_15h59.54.444,lexical_decision_task_MP,2020.1.3,MacIntel,60,z,1,0.84844,,,,,,,,0.84844,1,,,,,,480,NW,UN,50,knisma,ROBULY,z,,,,,,0.130451389,-0.115021701,0,0,0,,0,318,318,479,1,
,,,,,,,,,,,,,,,,,,5f0b062853f8960008793934,2020-08-10_15h59.54.444,lexical_decision_task_MP,2020.1.3,MacIntel,60,z,1,0.63842,,,,,,,,0.63842,1,,,,,,447,NW,UN,50,sadent,GIRCUE,z,,,,,,0.130451389,-0.115021701,0,0,0,,0,319,319,446,1,
,,,,,,,,,,,,,,,,,,5f0b062853f8960008793934,2020-08-10_15h59.54.444,lexical_decision_task_MP,2020.1.3,MacIntel,60,m,1,0.59025,,,,,,,,0.59025,1,,,,,,168,WORD,UN,33,genius,ANSWER,m,,,,,,0.130451389,-0.115021701,0,0,0,,0,320,320,167,1,
,,,,,,,,,,,,,,,,,,5f0b062853f8960008793934,2020-08-10_15h59.54.444,lexical_decision_task_MP,2020.1.3,MacIntel,60,z,1,0.58752,,,,,,,,0.58752,1,,,,,,464,NW,UN,50,whivex,CHAITE,z,,,,,,0.130451389,-0.115021701,0,0,0,,0,321,321,463,1,
,,,,,,,,,,,,,,,,,,5f0b062853f8960008793934,2020-08-10_15h59.54.444,lexical_decision_task_MP,2020.1.3,MacIntel,60,m,1,0.61376,,,,,,,,0.61376,1,,,,,,15,WORD,"ID",33,amount,AMOUNT,m,,,,,,0.130451389,-0.115021701,0,0,0,,0,322,322,14,1,
,,,,,,,,,,,,,,,,,,5f0b062853f8960008793934,2020-08-10_15h59.54.444,lexical_decision_task_MP,2020.1.3,MacIntel,60,z,1,0.606395,,,,,,,,0.606395,1,,,,,,457,NW,UN,50,barcet,WANIGH,z,,,,,,0.130451389,-0.115021701,0,0,0,,0,323,323,456,1,
,,,,,,,,,,,,,,,,,,5f0b062853f8960008793934,2020-08-10_15h59.54.444,lexical_decision_task_MP,2020.1.3,MacIntel,60,z,1,0.96397,,,,,,,,0.96397,1,,,,,,352,NW,"ID",50,tringe,TRINGE,z,,,,,,0.130451389,-0.115021701,0,0,0,,0,324,324,351,1,
,,,,,,,,,,,,,,,,,,5f0b062853f8960008793934,2020-08-10_15h59.54.444,lexical_decision_task_MP,2020.1.3,MacIntel,60,m,1,0.577905,,,,,,,,0.577905,1,,,,,,105,WORD,"ID",50,number,NUMBER,m,,,,,,0.130451389,-0.115021701,0,0,0,,0,325,325,104,1,
,,,,,,,,,,,,,,,,,,5f0b062853f8960008793934,2020-08-10_15h59.54.444,lexical_decision_task_MP,2020.1.3,MacIntel,60,m,1,0.979865,,,,,,,,0.979865,1,,,,,,118,WORD,"ID",50,flight,FLIGHT,m,,,,,,0.130451389,-0.115021701,0,0,0,,0,326,326,117,1,
,,,,,,,,,,,,,,,,,,5f0b062853f8960008793934,2020-08-10_15h59.54.444,lexical_decision_task_MP,2020.1.3,MacIntel,60,m,1,0.747655,,,,,,,,0.747655,1,,,,,,76,WORD,"ID",50,exotic,EXOTIC,m,,,,,,0.130451389,-0.115021701,0,0,0,,0,327,327,75,1,
,,,,,,,,,,,,,,,,,,5f0b062853f8960008793934,2020-08-10_15h59.54.444,lexical_decision_task_MP,2020.1.3,MacIntel,60,m,1,0.81207,,,,,,,,0.81207,1,,,,,,223,WORD,UN,50,period,KIDNEY,m,,,,,,0.130451389,-0.115021701,0,0,0,,0,328,328,222,1,
,,,,,,,,,,,,,,,,,,5f0b062853f8960008793934,2020-08-10_15h59.54.444,lexical_decision_task_MP,2020.1.3,MacIntel,60,z,1,0.74924,,,,,,,,0.74924,1,,,,,,241,NW,"ID",33,smenco,SMENCO,z,,,,,,0.130451389,-0.115021701,0,0,0,,0,329,329,240,1,
,,,,,,,,,,,,,,,,,,5f0b062853f8960008793934,2020-08-10_15h59.54.444,lexical_decision_task_MP,2020.1.3,MacIntel,60,z,1,1.75813,,,,,,,,1.75813,1,,,,,,306,NW,"ID",50,sounge,SOUNGE,z,,,,,,0.130451389,-0.115021701,0,0,0,,0,330,330,305,1,
,,,,,,,,,,,,,,,,,,5f0b062853f8960008793934,2020-08-10_15h59.54.444,lexical_decision_task_MP,2020.1.3,MacIntel,60,m,1,0.76782,,,,,,,,0.76782,1,,,,,,166,WORD,UN,33,design,STARCH,m,,,,,,0.130451389,-0.115021701,0,0,0,,0,331,331,165,1,
,,,,,,,,,,,,,,,,,,5f0b062853f8960008793934,2020-08-10_15h59.54.444,lexical_decision_task_MP,2020.1.3,MacIntel,60,m,1,0.589135,,,,,,,,0.589135,1,,,,,,219,WORD,UN,50,voyage,BUCKET,m,,,,,,0.130451389,-0.115021701,0,0,0,,0,332,332,218,1,
,,,,,,,,,,,,,,,,,,5f0b062853f8960008793934,2020-08-10_15h59.54.444,lexical_decision_task_MP,2020.1.3,MacIntel,60,m,1,0.562655,,,,,,,,0.562655,1,,,,,,182,WORD,UN,50,basket,WINTER,m,,,,,,0.130451389,-0.115021701,0,0,0,,0,333,333,181,1,
,,,,,,,,,,,,,,,,,,5f0b062853f8960008793934,2020-08-10_15h59.54.444,lexical_decision_task_MP,2020.1.3,MacIntel,60,z,1,1.149935,,,,,,,,1.149935,1,,,,,,323,NW,"ID",50,rosail,ROSAIL,z,,,,,,0.130451389,-0.115021701,0,0,0,,0,334,334,322,1,
,,,,,,,,,,,,,,,,,,5f0b062853f8960008793934,2020-08-10_15h59.54.444,lexical_decision_task_MP,2020.1.3,MacIntel,60,z,1,0.791375,,,,,,,,0.791375,1,,,,,,356,NW,"ID",50,othnis,OTHNIS,z,,,,,,0.130451389,-0.115021701,0,0,0,,0,335,335,355,1,
,,,,,,,,,,,,,,,,,,5f0b062853f8960008793934,2020-08-10_15h59.54.444,lexical_decision_task_MP,2020.1.3,MacIntel,60,m,1,0.5954,,,,,,,,0.5954,1,,,,,,157,WORD,UN,33,island,DRAGON,m,,,,,,0.130451389,-0.115021701,0,0,0,,0,336,336,156,1,
,,,,,,,,,,,,,,,,,,5f0b062853f8960008793934,2020-08-10_15h59.54.444,lexical_decision_task_MP,2020.1.3,MacIntel,60,m,1,0.63317,,,,,,,,0.63317,1,,,,,,22,WORD,"ID",33,jockey,JOCKEY,m,,,,,,0.130451389,-0.115021701,0,0,0,,0,337,337,21,1,
,,,,,,,,,,,,,,,,,,5f0b062853f8960008793934,2020-08-10_15h59.54.444,lexical_decision_task_MP,2020.1.3,MacIntel,60,m,1,0.729245,,,,,,,,0.729245,1,,,,,,65,WORD,"ID",50,symbol,SYMBOL,m,,,,,,0.130451389,-0.115021701,0,0,0,,0,338,338,64,1,
,,,,,,,,,,,,,,,,,,5f0b062853f8960008793934,2020-08-10_15h59.54.444,lexical_decision_task_MP,2020.1.3,MacIntel,60,m,1,0.866845,,,,,,,,0.866845,1,,,,,,181,WORD,UN,50,winter,GLANCE,m,,,,,,0.130451389,-0.115021701,0,0,0,,0,339,339,180,1,
,,,,,,,,,,,,,,,,,,5f0b062853f8960008793934,2020-08-10_15h59.54.444,lexical_decision_task_MP,2020.1.3,MacIntel,60,z,1,0.70103,,,,,,,,0.70103,1,,,,,,266,NW,"ID",33,varmit,VARMIT,z,,,,,,0.130451389,-0.115021701,0,0,0,,0,340,340,265,1,
,,,,,,,,,,,,,,,,,,5f0b062853f8960008793934,2020-08-10_15h59.54.444,lexical_decision_task_MP,2020.1.3,MacIntel,60,z,1,0.79555,,,,,,,,0.79555,1,,,,,,269,NW,"ID",33,orchet,ORCHET,z,,,,,,0.130451389,-0.115021701,0,0,0,,0,341,341,268,1,
,,,,,,,,,,,,,,,,,,5f0b062853f8960008793934,2020-08-10_15h59.54.444,lexical_decision_task_MP,2020.1.3,MacIntel,60,m,1,0.59785,,,,,,,,0.59785,1,,,,,,12,WORD,"ID",33,orange,ORANGE,m,,,,,,0.130451389,-0.115021701,0,0,0,,0,342,342,11,1,
,,,,,,,,,,,,,,,,,,5f0b062853f8960008793934,2020-08-10_15h59.54.444,lexical_decision_task_MP,2020.1.3,MacIntel,60,z,1,0.568335,,,,,,,,0.568335,1,,,,,,354,NW,"ID",50,virlex,VIRLEX,z,,,,,,0.130451389,-0.115021701,0,0,0,,0,343,343,353,1,
,,,,,,,,,,,,,,,,,,5f0b062853f8960008793934,2020-08-10_15h59.54.444,lexical_decision_task_MP,2020.1.3,MacIntel,60,m,1,0.77105,,,,,,,,0.77105,1,,,,,,227,WORD,UN,50,master,SELDOM,m,,,,,,0.130451389,-0.115021701,0,0,0,,0,344,344,226,1,
,,,,,,,,,,,,,,,,,,5f0b062853f8960008793934,2020-08-10_15h59.54.444,lexical_decision_task_MP,2020.1.3,MacIntel,60,z,1,0.7814,,,,,,,,0.7814,1,,,,,,440,NW,UN,50,cainky,SARIDE,z,,,,,,0.130451389,-0.115021701,0,0,0,,0,345,345,439,1,
,,,,,,,,,,,,,,,,,,5f0b062853f8960008793934,2020-08-10_15h59.54.444,lexical_decision_task_MP,2020.1.3,MacIntel,60,m,1,0.736765,,,,,,,,0.736765,1,,,,,,201,WORD,UN,50,factor,ADMIRE,m,,,,,,0.130451389,-0.115021701,0,0,0,,0,346,346,200,1,
,,,,,,,,,,,,,,,,,,5f0b062853f8960008793934,2020-08-10_15h59.54.444,lexical_decision_task_MP,2020.1.3,MacIntel,60,m,1,0.703635,,,,,,,,0.703635,1,,,,,,112,WORD,"ID",50,breath,BREATH,m,,,,,,0.130451389,-0.115021701,0,0,0,,0,347,347,111,1,
,,,,,,,,,,,,,,,,,,5f0b062853f8960008793934,2020-08-10_15h59.54.444,lexical_decision_task_MP,2020.1.3,MacIntel,60,z,1,0.59851,,,,,,,,0.59851,1,,,,,,452,NW,UN,50,bolvis,SURDEN,z,,,,,,0.130451389,-0.115021701,0,0,0,,0,348,348,451,1,
,,,,,,,,,,,,,,,,,,5f0b062853f8960008793934,2020-08-10_15h59.54.444,lexical_decision_task_MP,2020.1.3,MacIntel,60,m,1,0.57137,,,,,,,,0.57137,1,,,,,,91,WORD,"ID",50,expand,EXPAND,m,,,,,,0.130451389,-0.115021701,0,0,0,,0,349,349,90,1,
,,,,,,,,,,,,,,,,,,5f0b062853f8960008793934,2020-08-10_15h59.54.444,lexical_decision_task_MP,2020.1.3,MacIntel,60,m,1,0.700255,,,,,,,,0.700255,1,,,,,,180,WORD,UN,33,thrive,SILENT,m,,,,,,0.130451389,-0.115021701,0,0,0,,0,350,350,179,1,
,,,,,,,,,,,,,,,,,,5f0b062853f8960008793934,2020-08-10_15h59.54.444,lexical_decision_task_MP,2020.1.3,MacIntel,60,m,1,0.632075,,,,,,,,0.632075,1,,,,,,24,WORD,"ID",33,praise,PRAISE,m,,,,,,0.130451389,-0.115021701,0,0,0,,0,351,351,23,1,
,,,,,,,,,,,,,,,,,,5f0b062853f8960008793934,2020-08-10_15h59.54.444,lexical_decision_task_MP,2020.1.3,MacIntel,60,m,1,0.68119,,,,,,,,0.68119,1,,,,,,217,WORD,UN,50,shrink,LIQUOR,m,,,,,,0.130451389,-0.115021701,0,0,0,,0,352,352,216,1,
,,,,,,,,,,,,,,,,,,5f0b062853f8960008793934,2020-08-10_15h59.54.444,lexical_decision_task_MP,2020.1.3,MacIntel,60,z,0,0.966115,,,,,,,,0.966115,0,,,,,,195,WORD,UN,50,credit,RESIGN,m,,,,,,0.130451389,-0.115021701,0,0,0,,0,353,353,194,1,
,,,,,,,,,,,,,,,,,,5f0b062853f8960008793934,2020-08-10_15h59.54.444,lexical_decision_task_MP,2020.1.3,MacIntel,60,m,1,1.105375,,,,,,,,1.105375,1,,,,,,89,WORD,"ID",50,permit,PERMIT,m,,,,,,0.130451389,-0.115021701,0,0,0,,0,354,354,88,1,
,,,,,,,,,,,,,,,,,,5f0b062853f8960008793934,2020-08-10_15h59.54.444,lexical_decision_task_MP,2020.1.3,MacIntel,60,z,1,0.984105,,,,,,,,0.984105,1,,,,,,424,NW,UN,50,urivel,PRAILE,z,,,,,,0.130451389,-0.115021701,0,0,0,,0,355,355,423,1,
,,,,,,,,,,,,,,,,,,5f0b062853f8960008793934,2020-08-10_15h59.54.444,lexical_decision_task_MP,2020.1.3,MacIntel,60,m,1,0.698575,,,,,,,,0.698575,1,,,,,,179,WORD,UN,33,silent,BASKET,m,,,,,,0.130451389,-0.115021701,0,0,0,,0,356,356,178,1,
,,,,,,,,,,,,,,,,,,5f0b062853f8960008793934,2020-08-10_15h59.54.444,lexical_decision_task_MP,2020.1.3,MacIntel,60,m,1,0.64691,,,,,,,,0.64691,1,,,,,,79,WORD,"ID",50,theory,THEORY,m,,,,,,0.130451389,-0.115021701,0,0,0,,0,357,357,78,1,
,,,,,,,,,,,,,,,,,,5f0b062853f8960008793934,2020-08-10_15h59.54.444,lexical_decision_task_MP,2020.1.3,MacIntel,60,z,1,0.64437,,,,,,,,0.64437,1,,,,,,309,NW,"ID",50,amiloy,AMILOY,z,,,,,,0.130451389,-0.115021701,0,0,0,,0,358,358,308,1,
,,,,,,,,,,,,,,,,,,5f0b062853f8960008793934,2020-08-10_15h59.54.444,lexical_decision_task_MP,2020.1.3,MacIntel,60,z,1,0.67235,,,,,,,,0.67235,1,,,,,,399,NW,UN,33,wearox,FOURET,z,,,,,,0.130451389,-0.115021701,0,0,0,,0,359,359,398,1,
,,,,,,,,,,,,,,,,,,5f0b062853f8960008793934,2020-08-10_15h59.54.444,lexical_decision_task_MP,2020.1.3,MacIntel,60,m,1,0.6969,,,,,,,,0.6969,1,,,,,,21,WORD,"ID",33,simple,SIMPLE,m,,,,,,0.130451389,-0.115021701,0,0,0,,0,360,360,20,1,
,,,,,,,,,,,,,,,,,,5f0b062853f8960008793934,2020-08-10_15h59.54.444,lexical_decision_task_MP,2020.1.3,MacIntel,60,z,1,0.778765,,,,,,,,0.778765,1,,,,,,317,NW,"ID",50,worbal,WORBAL,z,,,,,,0.130451389,-0.115021701,0,0,0,,0,361,361,316,1,
,,,,,,,,,,,,,,,,,,5f0b062853f8960008793934,2020-08-10_15h59.54.444,lexical_decision_task_MP,2020.1.3,MacIntel,60,z,1,0.66659,,,,,,,,0.66659,1,,,,,,257,NW,"ID",33,veniod,VENIOD,z,,,,,,0.130451389,-0.115021701,0,0,0,space,0,362,362,256,1,19.44105
,,,,,,,,,,,,,,,,,,5f0b062853f8960008793934,2020-08-10_15h59.54.444,lexical_decision_task_MP,2020.1.3,MacIntel,60,z,1,0.86358,,,,,,,,0.86358,1,,,,,,265,NW,"ID",33,distar,DISTAR,z,,,,,,0.130451389,-0.115021701,0,0,0,,0,363,363,264,1,
,,,,,,,,,,,,,,,,,,5f0b062853f8960008793934,2020-08-10_15h59.54.444,lexical_decision_task_MP,2020.1.3,MacIntel,60,m,1,0.53751,,,,,,,,0.53751,1,,,,,,210,WORD,UN,50,infect,MONKEY,m,,,,,,0.130451389,-0.115021701,0,0,0,,0,364,364,209,1,
,,,,,,,,,,,,,,,,,,5f0b062853f8960008793934,2020-08-10_15h59.54.444,lexical_decision_task_MP,2020.1.3,MacIntel,60,z,1,0.700755,,,,,,,,0.700755,1,,,,,,320,NW,"ID",50,jockal,JOCKAL,z,,,,,,0.130451389,-0.115021701,0,0,0,,0,365,365,319,1,
,,,,,,,,,,,,,,,,,,5f0b062853f8960008793934,2020-08-10_15h59.54.444,lexical_decision_task_MP,2020.1.3,MacIntel,60,m,1,0.5662,,,,,,,,0.5662,1,,,,,,98,WORD,"ID",50,belong,BELONG,m,,,,,,0.130451389,-0.115021701,0,0,0,,0,366,366,97,1,
,,,,,,,,,,,,,,,,,,5f0b062853f8960008793934,2020-08-10_15h59.54.444,lexical_decision_task_MP,2020.1.3,MacIntel,60,z,1,0.70622,,,,,,,,0.70622,1,,,,,,315,NW,"ID",50,laston,LASTON,z,,,,,,0.130451389,-0.115021701,0,0,0,,0,367,367,314,1,
,,,,,,,,,,,,,,,,,,5f0b062853f8960008793934,2020-08-10_15h59.54.444,lexical_decision_task_MP,2020.1.3,MacIntel,60,z,0,1.1476,,,,,,,,1.1476,0,,,,,,183,WORD,UN,50,sleazy,MILDEW,m,,,,,,0.130451389,-0.115021701,0,0,0,,0,368,368,182,1,
,,,,,,,,,,,,,,,,,,5f0b062853f8960008793934,2020-08-10_15h59.54.444,lexical_decision_task_MP,2020.1.3,MacIntel,60,m,1,0.555825,,,,,,,,0.555825,1,,,,,,92,WORD,"ID",50,strand,STRAND,m,,,,,,0.130451389,-0.115021701,0,0,0,,0,369,369,91,1,
,,,,,,,,,,,,,,,,,,5f0b062853f8960008793934,2020-08-10_15h59.54.444,lexical_decision_task_MP,2020.1.3,MacIntel,60,z,1,0.705605,,,,,,,,0.705605,1,,,,,,397,NW,UN,33,blunde,CAMBLE,z,,,,,,0.130451389,-0.115021701,0,0,0,,0,370,370,396,1,
,,,,,,,,,,,,,,,,,,5f0b062853f8960008793934,2020-08-10_15h59.54.444,lexical_decision_task_MP,2020.1.3,MacIntel,60,z,1,0.644985,,,,,,,,0.644985,1,,,,,,249,NW,"ID",33,batrol,BATROL,z,,,,,,0.130451389,-0.115021701,0,0,0,,0,371,371,248,1,
,,,,,,,,,,,,,,,,,,5f0b062853f8960008793934,2020-08-10_15h59.54.444,lexical_decision_task_MP,2020.1.3,MacIntel,60,z,1,0.54984,,,,,,,,0.54984,1,,,,,,334,NW,"ID",50,watmeg,WATMEG,z,,,,,,0.130451389,-0.115021701,0,0,0,,0,372,372,333,1,
,,,,,,,,,,,,,,,,,,5f0b062853f8960008793934,2020-08-10_15h59.54.444,lexical_decision_task_MP,2020.1.3,MacIntel,60,z,1,0.43296,,,,,,,,0.43296,1,,,,,,439,NW,UN,50,saride,LIMPOR,z,,,,,,0.130451389,-0.115021701,0,0,0,,0,373,373,438,1,
,,,,,,,,,,,,,,,,,,5f0b062853f8960008793934,2020-08-10_15h59.54.444,lexical_decision_task_MP,2020.1.3,MacIntel,60,z,1,0.498795,,,,,,,,0.498795,1,,,,,,367,NW,UN,33,hornal,SLIQUE,z,,,,,,0.130451389,-0.115021701,0,0,0,,0,374,374,366,1,
,,,,,,,,,,,,,,,,,,5f0b062853f8960008793934,2020-08-10_15h59.54.444,lexical_decision_task_MP,2020.1.3,MacIntel,60,z,1,0.663975,,,,,,,,0.663975,1,,,,,,476,NW,UN,50,photie,JOSTED,z,,,,,,0.130451389,-0.115021701,0,0,0,,0,375,375,475,1,
,,,,,,,,,,,,,,,,,,5f0b062853f8960008793934,2020-08-10_15h59.54.444,lexical_decision_task_MP,2020.1.3,MacIntel,60,z,1,1.452575,,,,,,,,1.452575,1,,,,,,303,NW,"ID",50,fiream,FIREAM,z,,,,,,0.130451389,-0.115021701,0,0,0,,0,376,376,302,1,
,,,,,,,,,,,,,,,,,,5f0b062853f8960008793934,2020-08-10_15h59.54.444,lexical_decision_task_MP,2020.1.3,MacIntel,60,m,1,0.594805,,,,,,,,0.594805,1,,,,,,138,WORD,UN,33,staple,MELODY,m,,,,,,0.130451389,-0.115021701,0,0,0,,0,377,377,137,1,
,,,,,,,,,,,,,,,,,,5f0b062853f8960008793934,2020-08-10_15h59.54.444,lexical_decision_task_MP,2020.1.3,MacIntel,60,m,1,0.63876,,,,,,,,0.63876,1,,,,,,152,WORD,UN,33,behold,ROCKET,m,,,,,,0.130451389,-0.115021701,0,0,0,,0,378,378,151,1,
,,,,,,,,,,,,,,,,,,5f0b062853f8960008793934,2020-08-10_15h59.54.444,lexical_decision_task_MP,2020.1.3,MacIntel,60,m,1,0.617755,,,,,,,,0.617755,1,,,,,,191,WORD,UN,50,absent,STABLE,m,,,,,,0.130451389,-0.115021701,0,0,0,,0,379,379,190,1,
,,,,,,,,,,,,,,,,,,5f0b062853f8960008793934,2020-08-10_15h59.54.444,lexical_decision_task_MP,2020.1.3,MacIntel,60,m,1,0.567075,,,,,,,,0.567075,1,,,,,,111,WORD,"ID",50,induce,INDUCE,m,,,,,,0.130451389,-0.115021701,0,0,0,,0,380,380,110,1,
,,,,,,,,,,,,,,,,,,5f0b062853f8960008793934,2020-08-10_15h59.54.444,lexical_decision_task_MP,2020.1.3,MacIntel,60,z,1,0.685535,,,,,,,,0.685535,1,,,,,,432,NW,UN,50,drance,LUNKER,z,,,,,,0.130451389,-0.115021701,0,0,0,,0,381,381,431,1,
,,,,,,,,,,,,,,,,,,5f0b062853f8960008793934,2020-08-10_15h59.54.444,lexical_decision_task_MP,2020.1.3,MacIntel,60,m,1,0.950075,,,,,,,,0.950075,1,,,,,,199,WORD,UN,50,beacon,INVOKE,m,,,,,,0.130451389,-0.115021701,0,0,0,,0,382,382,198,1,
,,,,,,,,,,,,,,,,,,5f0b062853f8960008793934,2020-08-10_15h59.54.444,lexical_decision_task_MP,2020.1.3,MacIntel,60,m,1,0.782285,,,,,,,,0.782285,1,,,,,,171,WORD,UN,33,patrol,DEPART,m,,,,,,0.130451389,-0.115021701,0,0,0,,0,383,383,170,1,
,,,,,,,,,,,,,,,,,,5f0b062853f8960008793934,2020-08-10_15h59.54.444,lexical_decision_task_MP,2020.1.3,MacIntel,60,m,1,0.592565,,,,,,,,0.592565,1,,,,,,196,WORD,UN,50,stream,CREDIT,m,,,,,,0.130451389,-0.115021701,0,0,0,,0,384,384,195,1,
,,,,,,,,,,,,,,,,,,5f0b062853f8960008793934,2020-08-10_15h59.54.444,lexical_decision_task_MP,2020.1.3,MacIntel,60,z,1,0.764805,,,,,,,,0.764805,1,,,,,,434,NW,UN,50,impurb,PITROM,z,,,,,,0.130451389,-0.115021701,0,0,0,,0,385,385,433,1,
,,,,,,,,,,,,,,,,,,5f0b062853f8960008793934,2020-08-10_15h59.54.444,lexical_decision_task_MP,2020.1.3,MacIntel,60,z,1,0.966535,,,,,,,,0.966535,1,,,,,,426,NW,UN,50,frudge,URIVEL,z,,,,,,0.130451389,-0.115021701,0,0,0,,0,386,386,425,1,
,,,,,,,,,,,,,,,,,,5f0b062853f8960008793934,2020-08-10_15h59.54.444,lexical_decision_task_MP,2020.1.3,MacIntel,60,z,1,0.81597,,,,,,,,0.81597,1,,,,,,387,NW,UN,33,cragin,GRONCE,z,,,,,,0.130451389,-0.115021701,0,0,0,,0,387,387,386,1,
,,,,,,,,,,,,,,,,,,5f0b062853f8960008793934,2020-08-10_15h59.54.444,lexical_decision_task_MP,2020.1.3,MacIntel,60,m,1,0.51771,,,,,,,,0.51771,1,,,,,,83,WORD,"ID",50,result,RESULT,m,,,,,,0.130451389,-0.115021701,0,0,0,,0,388,388,82,1,
,,,,,,,,,,,,,,,,,,5f0b062853f8960008793934,2020-08-10_15h59.54.444,lexical_decision_task_MP,2020.1.3,MacIntel,60,m,1,0.549235,,,,,,,,0.549235,1,,,,,,197,WORD,UN,50,wicked,STREAM,m,,,,,,0.130451389,-0.115021701,0,0,0,,0,389,389,196,1,
,,,,,,,,,,,,,,,,,,5f0b062853f8960008793934,2020-08-10_15h59.54.444,lexical_decision_task_MP,2020.1.3,MacIntel,60,m,1,0.559855,,,,,,,,0.559855,1,,,,,,216,WORD,UN,50,liquor,BEHALF,m,,,,,,0.130451389,-0.115021701,0,0,0,,0,390,390,215,1,
,,,,,,,,,,,,,,,,,,5f0b062853f8960008793934,2020-08-10_15h59.54.444,lexical_decision_task_MP,2020.1.3,MacIntel,60,z,1,0.70399,,,,,,,,0.70399,1,,,,,,453,NW,UN,50,scouge,BOLVIS,z,,,,,,0.130451389,-0.115021701,0,0,0,,0,391,391,452,1,
,,,,,,,,,,,,,,,,,,5f0b062853f8960008793934,2020-08-10_15h59.54.444,lexical_decision_task_MP,2020.1.3,MacIntel,60,m,1,0.79815,,,,,,,,0.79815,1,,,,,,114,WORD,"ID",50,placid,PLACID,m,,,,,,0.130451389,-0.115021701,0,0,0,,0,392,392,113,1,
,,,,,,,,,,,,,,,,,,5f0b062853f8960008793934,2020-08-10_15h59.54.444,lexical_decision_task_MP,2020.1.3,MacIntel,60,m,1,0.66762,,,,,,,,0.66762,1,,,,,,194,WORD,UN,50,resign,ABSENT,m,,,,,,0.130451389,-0.115021701,0,0,0,,0,393,393,193,1,
,,,,,,,,,,,,,,,,,,5f0b062853f8960008793934,2020-08-10_15h59.54.444,lexical_decision_task_MP,2020.1.3,MacIntel,60,m,1,0.615515,,,,,,,,0.615515,1,,,,,,119,WORD,"ID",50,spider,SPIDER,m,,,,,,0.130451389,-0.115021701,0,0,0,,0,394,394,118,1,
,,,,,,,,,,,,,,,,,,5f0b062853f8960008793934,2020-08-10_15h59.54.444,lexical_decision_task_MP,2020.1.3,MacIntel,60,m,1,0.568925,,,,,,,,0.568925,1,,,,,,110,WORD,"ID",50,polite,POLITE,m,,,,,,0.130451389,-0.115021701,0,0,0,,0,395,395,109,1,
,,,,,,,,,,,,,,,,,,5f0b062853f8960008793934,2020-08-10_15h59.54.444,lexical_decision_task_MP,2020.1.3,MacIntel,60,z,1,0.53675,,,,,,,,0.53675,1,,,,,,262,NW,"ID",33,quilew,QUILEW,z,,,,,,0.130451389,-0.115021701,0,0,0,,0,396,396,261,1,
,,,,,,,,,,,,,,,,,,5f0b062853f8960008793934,2020-08-10_15h59.54.444,lexical_decision_task_MP,2020.1.3,MacIntel,60,z,1,0.98911,,,,,,,,0.98911,1,,,,,,284,NW,"ID",33,shaple,SHAPLE,z,,,,,,0.130451389,-0.115021701,0,0,0,,0,397,397,283,1,
,,,,,,,,,,,,,,,,,,5f0b062853f8960008793934,2020-08-10_15h59.54.444,lexical_decision_task_MP,2020.1.3,MacIntel,60,z,1,0.97192,,,,,,,,0.97192,1,,,,,,428,NW,UN,50,chrums,TANDLY,z,,,,,,0.130451389,-0.115021701,0,0,0,,0,398,398,427,1,
