counterbalancing_condition,instr_done_keyboard.keys,instr_done_touch.x,instr_done_touch.y,instr_done_touch.leftButton,instr_done_touch.midButton,instr_done_touch.rightButton,instr_done_touch.clicked_name,instruction_pages.thisRepN,instruction_pages.thisTrialN,instruction_pages.thisN,instruction_pages.thisIndex,instruction_pages.ran,pageN,phase,instruct_text,has_image,instruct_image,participant,date,expName,psychopyVersion,OS,frameRate,instr_done_keyboard.rt,response.keys,response.corr,response.rt,touch_resp.x,touch_resp.y,touch_resp.leftButton,touch_resp.midButton,touch_resp.rightButton,touch_resp.time,touch_resp.clicked_name,rt,corr,practice_trials.thisRepN,practice_trials.thisTrialN,practice_trials.thisN,practice_trials.thisIndex,practice_trials.ran,TrialID,StimulusType,Condition,PrimeDuration,Prime,Target,corrAns,end_of_practice_trials_pages.thisRepN,end_of_practice_trials_pages.thisTrialN,end_of_practice_trials_pages.thisN,end_of_practice_trials_pages.thisIndex,end_of_practice_trials_pages.ran,break_done_touch.x,break_done_touch.y,break_done_touch.leftButton,break_done_touch.midButton,break_done_touch.rightButton,break_done_keyboard.keys,trials.thisRepN,trials.thisTrialN,trials.thisN,trials.thisIndex,trials.ran,break_done_keyboard.rt,break_done_touch.clicked_name
1,,0.027777778,-0.4,1,0,0,instr_done_button,0,0,0,0,1,1,instructions,"INSTRUCTIONS
At the start of each trial, look at the hash marks (######) in the center of the screen. After a moment, a string of letters will appear. Your task is to indicate if the letter string forms a word or not (i.e., if it is a nonword). For example, AUTHOR is a word while AUTHON is a nonword.

Press the space bar or touch the button below to continue.",0,,5f0be5b2bc55e434486fad66,2020-08-10_18h08.51.796,lexical_decision_task_MP,2020.1.3,Win32,60,,,,,,,,,,,,,,,,,,,,,,,,,,,,,,,,,,,,,,,,,,,
,space,0.293518519,-0.439814815,0,0,0,,0,1,1,1,1,2,instructions,"If your device has a keyboard, press the 'Z' key for nonwords and the 'M' key for words.





Press the space bar or touch the button below to continue.",1,keyboard-example.gif,5f0be5b2bc55e434486fad66,2020-08-10_18h08.51.796,lexical_decision_task_MP,2020.1.3,Win32,60,11.01216,,,,,,,,,,,,,,,,,,,,,,,,,,,,,,,,,,,,,,,,,,
,space,0.293518519,-0.439814815,0,0,0,,0,2,2,2,1,3,instructions,"If you are using a touchscreen only device, use the buttons on the screen. Do not use the mouse.





Press the space bar or touch the button below to continue.",1,touchscreen-example.gif,5f0be5b2bc55e434486fad66,2020-08-10_18h08.51.796,lexical_decision_task_MP,2020.1.3,Win32,60,5.97069,,,,,,,,,,,,,,,,,,,,,,,,,,,,,,,,,,,,,,,,,,
,space,0.293518519,-0.439814815,0,0,0,,0,3,3,3,1,4,instructions,"It is very important that you respond as quickly and accurately as possible, as each letter string will only be on the screen for two seconds. If you do not respond within this time, the message 'Too slow!' will be displayed and the experiment will progress to the next letter string. The first 20 trials will be practice trials and you will receive feedback on your answers. 

Press the space bar or touch the button below to start the practice trials.",0,,5f0be5b2bc55e434486fad66,2020-08-10_18h08.51.796,lexical_decision_task_MP,2020.1.3,Win32,60,9.78375,,,,,,,,,,,,,,,,,,,,,,,,,,,,,,,,,,,,,,,,,,
,,,,,,,,,,,,,,,,,,5f0be5b2bc55e434486fad66,2020-08-10_18h08.51.796,lexical_decision_task_MP,2020.1.3,Win32,60,,z,0,0.750475,,,,,,,,0.750475,0,0,0,0,5,1,1006,WORD,UN,33,frenzy,OBTAIN,m,,,,,,,,,,,,,,,,,,
,,,,,,,,,,,,,,,,,,5f0be5b2bc55e434486fad66,2020-08-10_18h08.51.796,lexical_decision_task_MP,2020.1.3,Win32,60,,z,1,0.720135,,,,,,,,0.720135,1,0,1,1,15,1,1016,NW,UN,50,mushed,WHAISE,z,,,,,,,,,,,,,,,,,,
,,,,,,,,,,,,,,,,,,5f0be5b2bc55e434486fad66,2020-08-10_18h08.51.796,lexical_decision_task_MP,2020.1.3,Win32,60,,z,1,0.74874,,,,,,,,0.74874,1,0,2,2,12,1,1013,NW,UN,33,adveil,SPRINY,z,,,,,,,,,,,,,,,,,,
,,,,,,,,,,,,,,,,,,5f0be5b2bc55e434486fad66,2020-08-10_18h08.51.796,lexical_decision_task_MP,2020.1.3,Win32,60,,m,0,0.73976,,,,,,,,0.73976,0,0,3,3,14,1,1015,NW,UN,50,miaber,THRALE,z,,,,,,,,,,,,,,,,,,
,,,,,,,,,,,,,,,,,,5f0be5b2bc55e434486fad66,2020-08-10_18h08.51.796,lexical_decision_task_MP,2020.1.3,Win32,60,,z,0,0.53003,,,,,,,,0.53003,0,0,4,4,3,1,1004,WORD,"ID",50,matrix,MATRIX,m,,,,,,,,,,,,,,,,,,
,,,,,,,,,,,,,,,,,,5f0be5b2bc55e434486fad66,2020-08-10_18h08.51.796,lexical_decision_task_MP,2020.1.3,Win32,60,,m,1,0.584095,,,,,,,,0.584095,1,0,5,5,2,1,1003,WORD,"ID",50,almond,ALMOND,m,,,,,,,,,,,,,,,,,,
,,,,,,,,,,,,,,,,,,5f0be5b2bc55e434486fad66,2020-08-10_18h08.51.796,lexical_decision_task_MP,2020.1.3,Win32,60,,m,1,0.44439,,,,,,,,0.44439,1,0,6,6,4,1,1005,WORD,UN,33,abound,SQUEAK,m,,,,,,,,,,,,,,,,,,
,,,,,,,,,,,,,,,,,,5f0be5b2bc55e434486fad66,2020-08-10_18h08.51.796,lexical_decision_task_MP,2020.1.3,Win32,60,,m,1,0.63224,,,,,,,,0.63224,1,0,7,7,1,1,1002,WORD,"ID",33,adjust,ADJUST,m,,,,,,,,,,,,,,,,,,
,,,,,,,,,,,,,,,,,,5f0be5b2bc55e434486fad66,2020-08-10_18h08.51.796,lexical_decision_task_MP,2020.1.3,Win32,60,,z,1,0.552675,,,,,,,,0.552675,1,0,8,8,11,1,1012,NW,"ID",50,rashet,RASHET,z,,,,,,,,,,,,,,,,,,
,,,,,,,,,,,,,,,,,,5f0be5b2bc55e434486fad66,2020-08-10_18h08.51.796,lexical_decision_task_MP,2020.1.3,Win32,60,,m,1,0.596615,,,,,,,,0.596615,1,0,9,9,7,1,1008,WORD,UN,50,hurdle,VOLUME,m,,,,,,,,,,,,,,,,,,
,,,,,,,,,,,,,,,,,,5f0be5b2bc55e434486fad66,2020-08-10_18h08.51.796,lexical_decision_task_MP,2020.1.3,Win32,60,,m,1,0.5697,,,,,,,,0.5697,1,0,10,10,6,1,1007,WORD,UN,50,tropic,ZOMBIE,m,,,,,,,,,,,,,,,,,,
,,,,,,,,,,,,,,,,,,5f0be5b2bc55e434486fad66,2020-08-10_18h08.51.796,lexical_decision_task_MP,2020.1.3,Win32,60,,m,1,0.54988,,,,,,,,0.54988,1,0,11,11,0,1,1001,WORD,"ID",33,utopia,UTOPIA,m,,,,,,,,,,,,,,,,,,
,,,,,,,,,,,,,,,,,,5f0be5b2bc55e434486fad66,2020-08-10_18h08.51.796,lexical_decision_task_MP,2020.1.3,Win32,60,,z,1,0.647185,,,,,,,,0.647185,1,0,12,12,10,1,1011,NW,"ID",50,inlade,INLADE,z,,,,,,,,,,,,,,,,,,
,,,,,,,,,,,,,,,,,,5f0be5b2bc55e434486fad66,2020-08-10_18h08.51.796,lexical_decision_task_MP,2020.1.3,Win32,60,,z,1,0.62107,,,,,,,,0.62107,1,0,13,13,13,1,1014,NW,UN,33,winfer,ROUPET,z,,,,,,,,,,,,,,,,,,
,,,,,,,,,,,,,,,,,,5f0be5b2bc55e434486fad66,2020-08-10_18h08.51.796,lexical_decision_task_MP,2020.1.3,Win32,60,,z,1,0.535425,,,,,,,,0.535425,1,0,14,14,9,1,1010,NW,"ID",33,fariny,FARINY,z,,,,,,,,,,,,,,,,,,
,,,,,,,,,,,,,,,,,,5f0be5b2bc55e434486fad66,2020-08-10_18h08.51.796,lexical_decision_task_MP,2020.1.3,Win32,60,,z,1,0.520425,,,,,,,,0.520425,1,0,15,15,8,1,1009,NW,"ID",33,aslert,ASLERT,z,,,,,,,,,,,,,,,,,,
,space,0.293518519,-0.439814815,0,0,0,,,,,,,1,end_of_practice,"You have completed the practice trials. During the experimental trials, you will not receive feedback, but it is very important that you respond as quickly and accurately as possible. 
Before you begin, please ensure that you are in a comfortable and quiet location and will not be disturbed for about 15 minutes, as we cannot use your data if you do not complete all the trials. 
There will be opportunities to take breaks at regular intervals during the experiment. When you are ready to start the experimental trials, please press space or touch the button below.",,,5f0be5b2bc55e434486fad66,2020-08-10_18h08.51.796,lexical_decision_task_MP,2020.1.3,Win32,60,9.51543,,,,,,,,,,,,,,,,,,,,,,,,,0,0,0,0,1,,,,,,,,,,,,,
,,,,,,,,,,,,,,,,,,5f0be5b2bc55e434486fad66,2020-08-10_18h08.51.796,lexical_decision_task_MP,2020.1.3,Win32,60,,z,1,0.545605,,,,,,,,0.545605,1,,,,,,383,NW,UN,33,guesco,AUNGRE,z,,,,,,0.293518519,-0.439814815,0,0,0,,0,0,0,382,1,,
,,,,,,,,,,,,,,,,,,5f0be5b2bc55e434486fad66,2020-08-10_18h08.51.796,lexical_decision_task_MP,2020.1.3,Win32,60,,m,1,0.535665,,,,,,,,0.535665,1,,,,,,119,WORD,"ID",50,spider,SPIDER,m,,,,,,0.293518519,-0.439814815,0,0,0,,0,1,1,118,1,,
,,,,,,,,,,,,,,,,,,5f0be5b2bc55e434486fad66,2020-08-10_18h08.51.796,lexical_decision_task_MP,2020.1.3,Win32,60,,m,1,0.483695,,,,,,,,0.483695,1,,,,,,112,WORD,"ID",50,breath,BREATH,m,,,,,,0.293518519,-0.439814815,0,0,0,,0,2,2,111,1,,
,,,,,,,,,,,,,,,,,,5f0be5b2bc55e434486fad66,2020-08-10_18h08.51.796,lexical_decision_task_MP,2020.1.3,Win32,60,,z,1,0.601105,,,,,,,,0.601105,1,,,,,,422,NW,UN,50,streld,ALCOUD,z,,,,,,0.293518519,-0.439814815,0,0,0,,0,3,3,421,1,,
,,,,,,,,,,,,,,,,,,5f0be5b2bc55e434486fad66,2020-08-10_18h08.51.796,lexical_decision_task_MP,2020.1.3,Win32,60,,m,1,0.68798,,,,,,,,0.68798,1,,,,,,222,WORD,UN,50,casino,HINDER,m,,,,,,0.293518519,-0.439814815,0,0,0,,0,4,4,221,1,,
,,,,,,,,,,,,,,,,,,5f0be5b2bc55e434486fad66,2020-08-10_18h08.51.796,lexical_decision_task_MP,2020.1.3,Win32,60,,z,0,0.4966,,,,,,,,0.4966,0,,,,,,102,WORD,"ID",50,direct,DIRECT,m,,,,,,0.293518519,-0.439814815,0,0,0,,0,5,5,101,1,,
,,,,,,,,,,,,,,,,,,5f0be5b2bc55e434486fad66,2020-08-10_18h08.51.796,lexical_decision_task_MP,2020.1.3,Win32,60,,m,1,0.60352,,,,,,,,0.60352,1,,,,,,3,WORD,"ID",33,knight,KNIGHT,m,,,,,,0.293518519,-0.439814815,0,0,0,,0,6,6,2,1,,
,,,,,,,,,,,,,,,,,,5f0be5b2bc55e434486fad66,2020-08-10_18h08.51.796,lexical_decision_task_MP,2020.1.3,Win32,60,,z,1,0.61761,,,,,,,,0.61761,1,,,,,,437,NW,UN,50,baitch,SNAPEL,z,,,,,,0.293518519,-0.439814815,0,0,0,,0,7,7,436,1,,
,,,,,,,,,,,,,,,,,,5f0be5b2bc55e434486fad66,2020-08-10_18h08.51.796,lexical_decision_task_MP,2020.1.3,Win32,60,,m,1,0.549315,,,,,,,,0.549315,1,,,,,,36,WORD,"ID",33,vanish,VANISH,m,,,,,,0.293518519,-0.439814815,0,0,0,,0,8,8,35,1,,
,,,,,,,,,,,,,,,,,,5f0be5b2bc55e434486fad66,2020-08-10_18h08.51.796,lexical_decision_task_MP,2020.1.3,Win32,60,,z,1,0.608235,,,,,,,,0.608235,1,,,,,,464,NW,UN,50,whivex,CHAITE,z,,,,,,0.293518519,-0.439814815,0,0,0,,0,9,9,463,1,,
,,,,,,,,,,,,,,,,,,5f0be5b2bc55e434486fad66,2020-08-10_18h08.51.796,lexical_decision_task_MP,2020.1.3,Win32,60,,m,1,0.510995,,,,,,,,0.510995,1,,,,,,126,WORD,UN,33,castle,ENOUGH,m,,,,,,0.293518519,-0.439814815,0,0,0,,0,10,10,125,1,,
,,,,,,,,,,,,,,,,,,5f0be5b2bc55e434486fad66,2020-08-10_18h08.51.796,lexical_decision_task_MP,2020.1.3,Win32,60,,m,1,0.486395,,,,,,,,0.486395,1,,,,,,70,WORD,"ID",50,square,SQUARE,m,,,,,,0.293518519,-0.439814815,0,0,0,,0,11,11,69,1,,
,,,,,,,,,,,,,,,,,,5f0be5b2bc55e434486fad66,2020-08-10_18h08.51.796,lexical_decision_task_MP,2020.1.3,Win32,60,,m,1,0.543755,,,,,,,,0.543755,1,,,,,,228,WORD,UN,50,inject,MASTER,m,,,,,,0.293518519,-0.439814815,0,0,0,,0,12,12,227,1,,
,,,,,,,,,,,,,,,,,,5f0be5b2bc55e434486fad66,2020-08-10_18h08.51.796,lexical_decision_task_MP,2020.1.3,Win32,60,,m,1,0.482415,,,,,,,,0.482415,1,,,,,,168,WORD,UN,33,genius,ANSWER,m,,,,,,0.293518519,-0.439814815,0,0,0,,0,13,13,167,1,,
,,,,,,,,,,,,,,,,,,5f0be5b2bc55e434486fad66,2020-08-10_18h08.51.796,lexical_decision_task_MP,2020.1.3,Win32,60,,m,1,0.464875,,,,,,,,0.464875,1,,,,,,93,WORD,"ID",50,public,PUBLIC,m,,,,,,0.293518519,-0.439814815,0,0,0,,0,14,14,92,1,,
,,,,,,,,,,,,,,,,,,5f0be5b2bc55e434486fad66,2020-08-10_18h08.51.796,lexical_decision_task_MP,2020.1.3,Win32,60,,m,1,0.66354,,,,,,,,0.66354,1,,,,,,187,WORD,UN,50,social,COURSE,m,,,,,,0.293518519,-0.439814815,0,0,0,,0,15,15,186,1,,
,,,,,,,,,,,,,,,,,,5f0be5b2bc55e434486fad66,2020-08-10_18h08.51.796,lexical_decision_task_MP,2020.1.3,Win32,60,,z,1,0.556955,,,,,,,,0.556955,1,,,,,,366,NW,UN,33,slique,TOSHEL,z,,,,,,0.293518519,-0.439814815,0,0,0,,0,16,16,365,1,,
,,,,,,,,,,,,,,,,,,5f0be5b2bc55e434486fad66,2020-08-10_18h08.51.796,lexical_decision_task_MP,2020.1.3,Win32,60,,m,1,0.522635,,,,,,,,0.522635,1,,,,,,82,WORD,"ID",50,stigma,STIGMA,m,,,,,,0.293518519,-0.439814815,0,0,0,,0,17,17,81,1,,
,,,,,,,,,,,,,,,,,,5f0be5b2bc55e434486fad66,2020-08-10_18h08.51.796,lexical_decision_task_MP,2020.1.3,Win32,60,,m,1,0.42876,,,,,,,,0.42876,1,,,,,,179,WORD,UN,33,silent,BASKET,m,,,,,,0.293518519,-0.439814815,0,0,0,,0,18,18,178,1,,
,,,,,,,,,,,,,,,,,,5f0be5b2bc55e434486fad66,2020-08-10_18h08.51.796,lexical_decision_task_MP,2020.1.3,Win32,60,,z,1,0.542425,,,,,,,,0.542425,1,,,,,,441,NW,UN,50,aboune,RASTOE,z,,,,,,0.293518519,-0.439814815,0,0,0,,0,19,19,440,1,,
,,,,,,,,,,,,,,,,,,5f0be5b2bc55e434486fad66,2020-08-10_18h08.51.796,lexical_decision_task_MP,2020.1.3,Win32,60,,m,1,0.455195,,,,,,,,0.455195,1,,,,,,233,WORD,UN,50,clumsy,NATURE,m,,,,,,0.293518519,-0.439814815,0,0,0,,0,20,20,232,1,,
,,,,,,,,,,,,,,,,,,5f0be5b2bc55e434486fad66,2020-08-10_18h08.51.796,lexical_decision_task_MP,2020.1.3,Win32,60,,z,1,0.784555,,,,,,,,0.784555,1,,,,,,264,NW,"ID",33,vackel,VACKEL,z,,,,,,0.293518519,-0.439814815,0,0,0,,0,21,21,263,1,,
,,,,,,,,,,,,,,,,,,5f0be5b2bc55e434486fad66,2020-08-10_18h08.51.796,lexical_decision_task_MP,2020.1.3,Win32,60,,m,1,0.55222,,,,,,,,0.55222,1,,,,,,191,WORD,UN,50,absent,STABLE,m,,,,,,0.293518519,-0.439814815,0,0,0,,0,22,22,190,1,,
,,,,,,,,,,,,,,,,,,5f0be5b2bc55e434486fad66,2020-08-10_18h08.51.796,lexical_decision_task_MP,2020.1.3,Win32,60,,m,1,0.609635,,,,,,,,0.609635,1,,,,,,171,WORD,UN,33,patrol,DEPART,m,,,,,,0.293518519,-0.439814815,0,0,0,,0,23,23,170,1,,
,,,,,,,,,,,,,,,,,,5f0be5b2bc55e434486fad66,2020-08-10_18h08.51.796,lexical_decision_task_MP,2020.1.3,Win32,60,,z,1,0.5553,,,,,,,,0.5553,1,,,,,,332,NW,"ID",50,vangue,VANGUE,z,,,,,,0.293518519,-0.439814815,0,0,0,,0,24,24,331,1,,
,,,,,,,,,,,,,,,,,,5f0be5b2bc55e434486fad66,2020-08-10_18h08.51.796,lexical_decision_task_MP,2020.1.3,Win32,60,,z,1,0.694735,,,,,,,,0.694735,1,,,,,,357,NW,"ID",50,derain,DERAIN,z,,,,,,0.293518519,-0.439814815,0,0,0,,0,25,25,356,1,,
,,,,,,,,,,,,,,,,,,5f0be5b2bc55e434486fad66,2020-08-10_18h08.51.796,lexical_decision_task_MP,2020.1.3,Win32,60,,m,1,0.53344,,,,,,,,0.53344,1,,,,,,60,WORD,"ID",33,pencil,PENCIL,m,,,,,,0.293518519,-0.439814815,0,0,0,,0,26,26,59,1,,
,,,,,,,,,,,,,,,,,,5f0be5b2bc55e434486fad66,2020-08-10_18h08.51.796,lexical_decision_task_MP,2020.1.3,Win32,60,,z,1,0.74101,,,,,,,,0.74101,1,,,,,,372,NW,UN,33,bigent,RAMILY,z,,,,,,0.293518519,-0.439814815,0,0,0,,0,27,27,371,1,,
,,,,,,,,,,,,,,,,,,5f0be5b2bc55e434486fad66,2020-08-10_18h08.51.796,lexical_decision_task_MP,2020.1.3,Win32,60,,m,1,0.56927,,,,,,,,0.56927,1,,,,,,137,WORD,UN,33,melody,FINGER,m,,,,,,0.293518519,-0.439814815,0,0,0,,0,28,28,136,1,,
,,,,,,,,,,,,,,,,,,5f0be5b2bc55e434486fad66,2020-08-10_18h08.51.796,lexical_decision_task_MP,2020.1.3,Win32,60,,z,1,0.582075,,,,,,,,0.582075,1,,,,,,362,NW,UN,33,breali,TIREAU,z,,,,,,0.293518519,-0.439814815,0,0,0,,0,29,29,361,1,,
,,,,,,,,,,,,,,,,,,5f0be5b2bc55e434486fad66,2020-08-10_18h08.51.796,lexical_decision_task_MP,2020.1.3,Win32,60,,m,1,0.443715,,,,,,,,0.443715,1,,,,,,162,WORD,UN,33,string,CANDLE,m,,,,,,0.293518519,-0.439814815,0,0,0,,0,30,30,161,1,,
,,,,,,,,,,,,,,,,,,5f0be5b2bc55e434486fad66,2020-08-10_18h08.51.796,lexical_decision_task_MP,2020.1.3,Win32,60,,m,1,0.533035,,,,,,,,0.533035,1,,,,,,38,WORD,"ID",33,powder,POWDER,m,,,,,,0.293518519,-0.439814815,0,0,0,,0,31,31,37,1,,
,,,,,,,,,,,,,,,,,,5f0be5b2bc55e434486fad66,2020-08-10_18h08.51.796,lexical_decision_task_MP,2020.1.3,Win32,60,,z,1,0.560705,,,,,,,,0.560705,1,,,,,,451,NW,UN,50,surden,CAINKY,z,,,,,,0.293518519,-0.439814815,0,0,0,,0,32,32,450,1,,
,,,,,,,,,,,,,,,,,,5f0be5b2bc55e434486fad66,2020-08-10_18h08.51.796,lexical_decision_task_MP,2020.1.3,Win32,60,,z,1,0.575935,,,,,,,,0.575935,1,,,,,,257,NW,"ID",33,veniod,VENIOD,z,,,,,,0.293518519,-0.439814815,0,0,0,,0,33,33,256,1,,
,,,,,,,,,,,,,,,,,,5f0be5b2bc55e434486fad66,2020-08-10_18h08.51.796,lexical_decision_task_MP,2020.1.3,Win32,60,,m,1,0.58108,,,,,,,,0.58108,1,,,,,,74,WORD,"ID",50,plaque,PLAQUE,m,,,,,,0.293518519,-0.439814815,0,0,0,,0,34,34,73,1,,
,,,,,,,,,,,,,,,,,,5f0be5b2bc55e434486fad66,2020-08-10_18h08.51.796,lexical_decision_task_MP,2020.1.3,Win32,60,,m,1,0.521275,,,,,,,,0.521275,1,,,,,,120,WORD,"ID",50,strain,STRAIN,m,,,,,,0.293518519,-0.439814815,0,0,0,,0,35,35,119,1,,
,,,,,,,,,,,,,,,,,,5f0be5b2bc55e434486fad66,2020-08-10_18h08.51.796,lexical_decision_task_MP,2020.1.3,Win32,60,,z,1,0.509575,,,,,,,,0.509575,1,,,,,,473,NW,UN,50,hablin,CRIBLE,z,,,,,,0.293518519,-0.439814815,0,0,0,,0,36,36,472,1,,
,,,,,,,,,,,,,,,,,,5f0be5b2bc55e434486fad66,2020-08-10_18h08.51.796,lexical_decision_task_MP,2020.1.3,Win32,60,,m,1,0.45213,,,,,,,,0.45213,1,,,,,,50,WORD,"ID",33,snatch,SNATCH,m,,,,,,0.293518519,-0.439814815,0,0,0,,0,37,37,49,1,,
,,,,,,,,,,,,,,,,,,5f0be5b2bc55e434486fad66,2020-08-10_18h08.51.796,lexical_decision_task_MP,2020.1.3,Win32,60,,m,0,0.51629,,,,,,,,0.51629,0,,,,,,345,NW,"ID",50,absend,ABSEND,z,,,,,,0.293518519,-0.439814815,0,0,0,,0,38,38,344,1,,
,,,,,,,,,,,,,,,,,,5f0be5b2bc55e434486fad66,2020-08-10_18h08.51.796,lexical_decision_task_MP,2020.1.3,Win32,60,,m,1,0.608065,,,,,,,,0.608065,1,,,,,,169,WORD,UN,33,pounce,GENIUS,m,,,,,,0.293518519,-0.439814815,0,0,0,,0,39,39,168,1,,
,,,,,,,,,,,,,,,,,,5f0be5b2bc55e434486fad66,2020-08-10_18h08.51.796,lexical_decision_task_MP,2020.1.3,Win32,60,,z,1,0.536235,,,,,,,,0.536235,1,,,,,,428,NW,UN,50,chrums,TANDLY,z,,,,,,0.293518519,-0.439814815,0,0,0,,0,40,40,427,1,,
,,,,,,,,,,,,,,,,,,5f0be5b2bc55e434486fad66,2020-08-10_18h08.51.796,lexical_decision_task_MP,2020.1.3,Win32,60,,z,1,0.590475,,,,,,,,0.590475,1,,,,,,301,NW,"ID",50,fainch,FAINCH,z,,,,,,0.293518519,-0.439814815,0,0,0,,0,41,41,300,1,,
,,,,,,,,,,,,,,,,,,5f0be5b2bc55e434486fad66,2020-08-10_18h08.51.796,lexical_decision_task_MP,2020.1.3,Win32,60,,m,1,0.48617,,,,,,,,0.48617,1,,,,,,46,WORD,"ID",33,single,SINGLE,m,,,,,,0.293518519,-0.439814815,0,0,0,,0,42,42,45,1,,
,,,,,,,,,,,,,,,,,,5f0be5b2bc55e434486fad66,2020-08-10_18h08.51.796,lexical_decision_task_MP,2020.1.3,Win32,60,,m,1,0.555945,,,,,,,,0.555945,1,,,,,,165,WORD,UN,33,starch,INVEST,m,,,,,,0.293518519,-0.439814815,0,0,0,,0,43,43,164,1,,
,,,,,,,,,,,,,,,,,,5f0be5b2bc55e434486fad66,2020-08-10_18h08.51.796,lexical_decision_task_MP,2020.1.3,Win32,60,,m,1,0.425885,,,,,,,,0.425885,1,,,,,,100,WORD,"ID",50,carbon,CARBON,m,,,,,,0.293518519,-0.439814815,0,0,0,,0,44,44,99,1,,
,,,,,,,,,,,,,,,,,,5f0be5b2bc55e434486fad66,2020-08-10_18h08.51.796,lexical_decision_task_MP,2020.1.3,Win32,60,,z,1,0.53728,,,,,,,,0.53728,1,,,,,,254,NW,"ID",33,varosh,VAROSH,z,,,,,,0.293518519,-0.439814815,0,0,0,,0,45,45,253,1,,
,,,,,,,,,,,,,,,,,,5f0be5b2bc55e434486fad66,2020-08-10_18h08.51.796,lexical_decision_task_MP,2020.1.3,Win32,60,,m,1,0.75503,,,,,,,,0.75503,1,,,,,,52,WORD,"ID",33,impose,IMPOSE,m,,,,,,0.293518519,-0.439814815,0,0,0,,0,46,46,51,1,,
,,,,,,,,,,,,,,,,,,5f0be5b2bc55e434486fad66,2020-08-10_18h08.51.796,lexical_decision_task_MP,2020.1.3,Win32,60,,z,1,0.60061,,,,,,,,0.60061,1,,,,,,425,NW,UN,50,schind,FRUDGE,z,,,,,,0.293518519,-0.439814815,0,0,0,,0,47,47,424,1,,
,,,,,,,,,,,,,,,,,,5f0be5b2bc55e434486fad66,2020-08-10_18h08.51.796,lexical_decision_task_MP,2020.1.3,Win32,60,,z,1,0.68308,,,,,,,,0.68308,1,,,,,,291,NW,"ID",33,pretch,PRETCH,z,,,,,,0.293518519,-0.439814815,0,0,0,,0,48,48,290,1,,
,,,,,,,,,,,,,,,,,,5f0be5b2bc55e434486fad66,2020-08-10_18h08.51.796,lexical_decision_task_MP,2020.1.3,Win32,60,,z,1,0.550215,,,,,,,,0.550215,1,,,,,,287,NW,"ID",33,nymbel,NYMBEL,z,,,,,,0.293518519,-0.439814815,0,0,0,,0,49,49,286,1,,
,,,,,,,,,,,,,,,,,,5f0be5b2bc55e434486fad66,2020-08-10_18h08.51.796,lexical_decision_task_MP,2020.1.3,Win32,60,,m,1,0.55137,,,,,,,,0.55137,1,,,,,,173,WORD,UN,33,turkey,SHOWER,m,,,,,,0.293518519,-0.439814815,0,0,0,,0,50,50,172,1,,
,,,,,,,,,,,,,,,,,,5f0be5b2bc55e434486fad66,2020-08-10_18h08.51.796,lexical_decision_task_MP,2020.1.3,Win32,60,,m,1,0.431835,,,,,,,,0.431835,1,,,,,,91,WORD,"ID",50,expand,EXPAND,m,,,,,,0.293518519,-0.439814815,0,0,0,,0,51,51,90,1,,
,,,,,,,,,,,,,,,,,,5f0be5b2bc55e434486fad66,2020-08-10_18h08.51.796,lexical_decision_task_MP,2020.1.3,Win32,60,,z,1,0.49042,,,,,,,,0.49042,1,,,,,,467,NW,UN,50,wictor,GORBIE,z,,,,,,0.293518519,-0.439814815,0,0,0,,0,52,52,466,1,,
,,,,,,,,,,,,,,,,,,5f0be5b2bc55e434486fad66,2020-08-10_18h08.51.796,lexical_decision_task_MP,2020.1.3,Win32,60,,z,1,0.5487,,,,,,,,0.5487,1,,,,,,347,NW,"ID",50,kerift,KERIFT,z,,,,,,0.293518519,-0.439814815,0,0,0,,0,53,53,346,1,,
,,,,,,,,,,,,,,,,,,5f0be5b2bc55e434486fad66,2020-08-10_18h08.51.796,lexical_decision_task_MP,2020.1.3,Win32,60,,m,1,0.43551,,,,,,,,0.43551,1,,,,,,21,WORD,"ID",33,simple,SIMPLE,m,,,,,,0.293518519,-0.439814815,0,0,0,,0,54,54,20,1,,
,,,,,,,,,,,,,,,,,,5f0be5b2bc55e434486fad66,2020-08-10_18h08.51.796,lexical_decision_task_MP,2020.1.3,Win32,60,,z,1,0.471685,,,,,,,,0.471685,1,,,,,,328,NW,"ID",50,broake,BROAKE,z,,,,,,0.293518519,-0.439814815,0,0,0,,0,55,55,327,1,,
,,,,,,,,,,,,,,,,,,5f0be5b2bc55e434486fad66,2020-08-10_18h08.51.796,lexical_decision_task_MP,2020.1.3,Win32,60,,z,1,0.66242,,,,,,,,0.66242,1,,,,,,353,NW,"ID",50,clurey,CLUREY,z,,,,,,0.293518519,-0.439814815,0,0,0,,0,56,56,352,1,,
,,,,,,,,,,,,,,,,,,5f0be5b2bc55e434486fad66,2020-08-10_18h08.51.796,lexical_decision_task_MP,2020.1.3,Win32,60,,z,1,0.819675,,,,,,,,0.819675,1,,,,,,414,NW,UN,33,higsta,SERBOL,z,,,,,,0.293518519,-0.439814815,0,0,0,,0,57,57,413,1,,
,,,,,,,,,,,,,,,,,,5f0be5b2bc55e434486fad66,2020-08-10_18h08.51.796,lexical_decision_task_MP,2020.1.3,Win32,60,,m,1,0.48909,,,,,,,,0.48909,1,,,,,,189,WORD,UN,50,backup,CENSOR,m,,,,,,0.293518519,-0.439814815,0,0,0,,0,58,58,188,1,,
,,,,,,,,,,,,,,,,,,5f0be5b2bc55e434486fad66,2020-08-10_18h08.51.796,lexical_decision_task_MP,2020.1.3,Win32,60,,z,1,0.504225,,,,,,,,0.504225,1,,,,,,249,NW,"ID",33,batrol,BATROL,z,,,,,,0.293518519,-0.439814815,0,0,0,,0,59,59,248,1,,
,,,,,,,,,,,,,,,,,,5f0be5b2bc55e434486fad66,2020-08-10_18h08.51.796,lexical_decision_task_MP,2020.1.3,Win32,60,,z,1,0.52845,,,,,,,,0.52845,1,,,,,,448,NW,UN,50,brunge,SADENT,z,,,,,,0.293518519,-0.439814815,0,0,0,,0,60,60,447,1,,
,,,,,,,,,,,,,,,,,,5f0be5b2bc55e434486fad66,2020-08-10_18h08.51.796,lexical_decision_task_MP,2020.1.3,Win32,60,,m,1,0.58305,,,,,,,,0.58305,1,,,,,,20,WORD,"ID",33,breast,BREAST,m,,,,,,0.293518519,-0.439814815,0,0,0,,0,61,61,19,1,,
,,,,,,,,,,,,,,,,,,5f0be5b2bc55e434486fad66,2020-08-10_18h08.51.796,lexical_decision_task_MP,2020.1.3,Win32,60,,z,1,0.53257,,,,,,,,0.53257,1,,,,,,356,NW,"ID",50,othnis,OTHNIS,z,,,,,,0.293518519,-0.439814815,0,0,0,,0,62,62,355,1,,
,,,,,,,,,,,,,,,,,,5f0be5b2bc55e434486fad66,2020-08-10_18h08.51.796,lexical_decision_task_MP,2020.1.3,Win32,60,,m,1,0.603165,,,,,,,,0.603165,1,,,,,,161,WORD,UN,33,candle,PASTOR,m,,,,,,0.293518519,-0.439814815,0,0,0,,0,63,63,160,1,,
,,,,,,,,,,,,,,,,,,5f0be5b2bc55e434486fad66,2020-08-10_18h08.51.796,lexical_decision_task_MP,2020.1.3,Win32,60,,m,1,0.55927,,,,,,,,0.55927,1,,,,,,24,WORD,"ID",33,praise,PRAISE,m,,,,,,0.293518519,-0.439814815,0,0,0,,0,64,64,23,1,,
,,,,,,,,,,,,,,,,,,5f0be5b2bc55e434486fad66,2020-08-10_18h08.51.796,lexical_decision_task_MP,2020.1.3,Win32,60,,z,1,0.588365,,,,,,,,0.588365,1,,,,,,317,NW,"ID",50,worbal,WORBAL,z,,,,,,0.293518519,-0.439814815,0,0,0,,0,65,65,316,1,,
,,,,,,,,,,,,,,,,,,5f0be5b2bc55e434486fad66,2020-08-10_18h08.51.796,lexical_decision_task_MP,2020.1.3,Win32,60,,m,1,0.482365,,,,,,,,0.482365,1,,,,,,190,WORD,UN,50,stable,BACKUP,m,,,,,,0.293518519,-0.439814815,0,0,0,,0,66,66,189,1,,
,,,,,,,,,,,,,,,,,,5f0be5b2bc55e434486fad66,2020-08-10_18h08.51.796,lexical_decision_task_MP,2020.1.3,Win32,60,,m,1,0.54431,,,,,,,,0.54431,1,,,,,,140,WORD,UN,33,reason,PRINCE,m,,,,,,0.293518519,-0.439814815,0,0,0,,0,67,67,139,1,,
,,,,,,,,,,,,,,,,,,5f0be5b2bc55e434486fad66,2020-08-10_18h08.51.796,lexical_decision_task_MP,2020.1.3,Win32,60,,z,1,0.55361,,,,,,,,0.55361,1,,,,,,375,NW,UN,33,iguare,YORQUE,z,,,,,,0.293518519,-0.439814815,0,0,0,,0,68,68,374,1,,
,,,,,,,,,,,,,,,,,,5f0be5b2bc55e434486fad66,2020-08-10_18h08.51.796,lexical_decision_task_MP,2020.1.3,Win32,60,,m,1,0.750575,,,,,,,,0.750575,1,,,,,,232,WORD,UN,50,nature,INJECT,m,,,,,,0.293518519,-0.439814815,0,0,0,,0,69,69,231,1,,
,,,,,,,,,,,,,,,,,,5f0be5b2bc55e434486fad66,2020-08-10_18h08.51.796,lexical_decision_task_MP,2020.1.3,Win32,60,,z,1,0.63843,,,,,,,,0.63843,1,,,,,,417,NW,UN,33,suidle,EAROUD,z,,,,,,0.293518519,-0.439814815,0,0,0,,0,70,70,416,1,,
,,,,,,,,,,,,,,,,,,5f0be5b2bc55e434486fad66,2020-08-10_18h08.51.796,lexical_decision_task_MP,2020.1.3,Win32,60,,m,1,0.741325,,,,,,,,0.741325,1,,,,,,73,WORD,"ID",50,source,SOURCE,m,,,,,,0.293518519,-0.439814815,0,0,0,,0,71,71,72,1,,
,,,,,,,,,,,,,,,,,,5f0be5b2bc55e434486fad66,2020-08-10_18h08.51.796,lexical_decision_task_MP,2020.1.3,Win32,60,,z,1,0.67418,,,,,,,,0.67418,1,,,,,,368,NW,UN,33,wronch,HORNAL,z,,,,,,0.293518519,-0.439814815,0,0,0,,0,72,72,367,1,,
,,,,,,,,,,,,,,,,,,5f0be5b2bc55e434486fad66,2020-08-10_18h08.51.796,lexical_decision_task_MP,2020.1.3,Win32,60,,m,1,1.02524,,,,,,,,1.02524,1,,,,,,4,WORD,"ID",33,trench,TRENCH,m,,,,,,0.293518519,-0.439814815,0,0,0,,0,73,73,3,1,,
,,,,,,,,,,,,,,,,,,5f0be5b2bc55e434486fad66,2020-08-10_18h08.51.796,lexical_decision_task_MP,2020.1.3,Win32,60,,z,1,0.532395,,,,,,,,0.532395,1,,,,,,322,NW,"ID",50,slanch,SLANCH,z,,,,,,0.293518519,-0.439814815,0,0,0,,0,74,74,321,1,,
,,,,,,,,,,,,,,,,,,5f0be5b2bc55e434486fad66,2020-08-10_18h08.51.796,lexical_decision_task_MP,2020.1.3,Win32,60,,m,1,0.52128,,,,,,,,0.52128,1,,,,,,212,WORD,UN,50,squeal,VERIFY,m,,,,,,0.293518519,-0.439814815,0,0,0,,0,75,75,211,1,,
,,,,,,,,,,,,,,,,,,5f0be5b2bc55e434486fad66,2020-08-10_18h08.51.796,lexical_decision_task_MP,2020.1.3,Win32,60,,m,1,0.44066,,,,,,,,0.44066,1,,,,,,104,WORD,"ID",50,studio,STUDIO,m,,,,,,0.293518519,-0.439814815,0,0,0,,0,76,76,103,1,,
,,,,,,,,,,,,,,,,,,5f0be5b2bc55e434486fad66,2020-08-10_18h08.51.796,lexical_decision_task_MP,2020.1.3,Win32,60,,z,1,0.460995,,,,,,,,0.460995,1,,,,,,380,NW,UN,33,huniek,CAVORY,z,,,,,,0.293518519,-0.439814815,0,0,0,,0,77,77,379,1,,
,,,,,,,,,,,,,,,,,,5f0be5b2bc55e434486fad66,2020-08-10_18h08.51.796,lexical_decision_task_MP,2020.1.3,Win32,60,,m,1,0.54957,,,,,,,,0.54957,1,,,,,,185,WORD,UN,50,portal,BOTHER,m,,,,,,0.293518519,-0.439814815,0,0,0,,0,78,78,184,1,,
,,,,,,,,,,,,,,,,,,5f0be5b2bc55e434486fad66,2020-08-10_18h08.51.796,lexical_decision_task_MP,2020.1.3,Win32,60,,z,1,0.52785,,,,,,,,0.52785,1,,,,,,384,NW,UN,33,veigma,GUESCO,z,,,,,,0.293518519,-0.439814815,0,0,0,,0,79,79,383,1,,
,,,,,,,,,,,,,,,,,,5f0be5b2bc55e434486fad66,2020-08-10_18h08.51.796,lexical_decision_task_MP,2020.1.3,Win32,60,,z,1,0.63467,,,,,,,,0.63467,1,,,,,,285,NW,"ID",33,prudge,PRUDGE,z,,,,,,0.293518519,-0.439814815,0,0,0,,0,80,80,284,1,,
,,,,,,,,,,,,,,,,,,5f0be5b2bc55e434486fad66,2020-08-10_18h08.51.796,lexical_decision_task_MP,2020.1.3,Win32,60,,z,1,0.54754,,,,,,,,0.54754,1,,,,,,460,NW,UN,50,justre,MINGAR,z,,,,,,0.293518519,-0.439814815,0,0,0,,0,81,81,459,1,,
,,,,,,,,,,,,,,,,,,5f0be5b2bc55e434486fad66,2020-08-10_18h08.51.796,lexical_decision_task_MP,2020.1.3,Win32,60,,m,1,0.62582,,,,,,,,0.62582,1,,,,,,180,WORD,UN,33,thrive,SILENT,m,,,,,,0.293518519,-0.439814815,0,0,0,,0,82,82,179,1,,
,,,,,,,,,,,,,,,,,,5f0be5b2bc55e434486fad66,2020-08-10_18h08.51.796,lexical_decision_task_MP,2020.1.3,Win32,60,,m,1,0.45761,,,,,,,,0.45761,1,,,,,,66,WORD,"ID",50,gospel,GOSPEL,m,,,,,,0.293518519,-0.439814815,0,0,0,,0,83,83,65,1,,
,,,,,,,,,,,,,,,,,,5f0be5b2bc55e434486fad66,2020-08-10_18h08.51.796,lexical_decision_task_MP,2020.1.3,Win32,60,,m,1,0.565175,,,,,,,,0.565175,1,,,,,,56,WORD,"ID",33,ambush,AMBUSH,m,,,,,,0.293518519,-0.439814815,0,0,0,,0,84,84,55,1,,
,,,,,,,,,,,,,,,,,,5f0be5b2bc55e434486fad66,2020-08-10_18h08.51.796,lexical_decision_task_MP,2020.1.3,Win32,60,,m,1,0.758855,,,,,,,,0.758855,1,,,,,,113,WORD,"ID",50,chorus,CHORUS,m,,,,,,0.293518519,-0.439814815,0,0,0,,0,85,85,112,1,,
,,,,,,,,,,,,,,,,,,5f0be5b2bc55e434486fad66,2020-08-10_18h08.51.796,lexical_decision_task_MP,2020.1.3,Win32,60,,z,1,0.804185,,,,,,,,0.804185,1,,,,,,300,NW,"ID",33,yarion,YARION,z,,,,,,0.293518519,-0.439814815,0,0,0,,0,86,86,299,1,,
,,,,,,,,,,,,,,,,,,5f0be5b2bc55e434486fad66,2020-08-10_18h08.51.796,lexical_decision_task_MP,2020.1.3,Win32,60,,z,1,0.542085,,,,,,,,0.542085,1,,,,,,440,NW,UN,50,cainky,SARIDE,z,,,,,,0.293518519,-0.439814815,0,0,0,,0,87,87,439,1,,
,,,,,,,,,,,,,,,,,,5f0be5b2bc55e434486fad66,2020-08-10_18h08.51.796,lexical_decision_task_MP,2020.1.3,Win32,60,,z,1,0.51325,,,,,,,,0.51325,1,,,,,,274,NW,"ID",33,fumblo,FUMBLO,z,,,,,,0.293518519,-0.439814815,0,0,0,,0,88,88,273,1,,
,,,,,,,,,,,,,,,,,,5f0be5b2bc55e434486fad66,2020-08-10_18h08.51.796,lexical_decision_task_MP,2020.1.3,Win32,60,,z,1,0.73597,,,,,,,,0.73597,1,,,,,,434,NW,UN,50,impurb,PITROM,z,,,,,,0.293518519,-0.439814815,0,0,0,,0,89,89,433,1,,
,,,,,,,,,,,,,,,,,,5f0be5b2bc55e434486fad66,2020-08-10_18h08.51.796,lexical_decision_task_MP,2020.1.3,Win32,60,,m,1,0.522585,,,,,,,,0.522585,1,,,,,,146,WORD,UN,33,garlic,COUPLE,m,,,,,,0.293518519,-0.439814815,0,0,0,,0,90,90,145,1,,
,,,,,,,,,,,,,,,,,,5f0be5b2bc55e434486fad66,2020-08-10_18h08.51.796,lexical_decision_task_MP,2020.1.3,Win32,60,,m,1,0.55822,,,,,,,,0.55822,1,,,,,,29,WORD,"ID",33,sketch,SKETCH,m,,,,,,0.293518519,-0.439814815,0,0,0,,0,91,91,28,1,,
,,,,,,,,,,,,,,,,,,5f0be5b2bc55e434486fad66,2020-08-10_18h08.51.796,lexical_decision_task_MP,2020.1.3,Win32,60,,m,1,0.506505,,,,,,,,0.506505,1,,,,,,134,WORD,UN,33,import,STAPLE,m,,,,,,0.293518519,-0.439814815,0,0,0,,0,92,92,133,1,,
,,,,,,,,,,,,,,,,,,5f0be5b2bc55e434486fad66,2020-08-10_18h08.51.796,lexical_decision_task_MP,2020.1.3,Win32,60,,m,1,0.435865,,,,,,,,0.435865,1,,,,,,68,WORD,"ID",50,fumble,FUMBLE,m,,,,,,0.293518519,-0.439814815,0,0,0,,0,93,93,67,1,,
,,,,,,,,,,,,,,,,,,5f0be5b2bc55e434486fad66,2020-08-10_18h08.51.796,lexical_decision_task_MP,2020.1.3,Win32,60,,m,1,0.645505,,,,,,,,0.645505,1,,,,,,166,WORD,UN,33,design,STARCH,m,,,,,,0.293518519,-0.439814815,0,0,0,,0,94,94,165,1,,
,,,,,,,,,,,,,,,,,,5f0be5b2bc55e434486fad66,2020-08-10_18h08.51.796,lexical_decision_task_MP,2020.1.3,Win32,60,,z,1,0.518425,,,,,,,,0.518425,1,,,,,,435,NW,UN,50,frutan,IMPURB,z,,,,,,0.293518519,-0.439814815,0,0,0,,0,95,95,434,1,,
,,,,,,,,,,,,,,,,,,5f0be5b2bc55e434486fad66,2020-08-10_18h08.51.796,lexical_decision_task_MP,2020.1.3,Win32,60,,m,1,0.46713,,,,,,,,0.46713,1,,,,,,158,WORD,UN,33,detail,ISLAND,m,,,,,,0.293518519,-0.439814815,0,0,0,,0,96,96,157,1,,
,,,,,,,,,,,,,,,,,,5f0be5b2bc55e434486fad66,2020-08-10_18h08.51.796,lexical_decision_task_MP,2020.1.3,Win32,60,,z,1,0.53777,,,,,,,,0.53777,1,,,,,,446,NW,UN,50,gircue,RUNAMO,z,,,,,,0.293518519,-0.439814815,0,0,0,,0,97,97,445,1,,
,,,,,,,,,,,,,,,,,,5f0be5b2bc55e434486fad66,2020-08-10_18h08.51.796,lexical_decision_task_MP,2020.1.3,Win32,60,,z,1,0.598,,,,,,,,0.598,1,,,,,,379,NW,UN,33,cavory,AUTING,z,,,,,,0.293518519,-0.439814815,0,0,0,,0,98,98,378,1,,
,,,,,,,,,,,,,,,,,,5f0be5b2bc55e434486fad66,2020-08-10_18h08.51.796,lexical_decision_task_MP,2020.1.3,Win32,60,,z,1,0.53559,,,,,,,,0.53559,1,,,,,,244,NW,"ID",33,eatric,EATRIC,z,,,,,,0.293518519,-0.439814815,0,0,0,,0,99,99,243,1,,
,,,,,,,,,,,,,,,,,,5f0be5b2bc55e434486fad66,2020-08-10_18h08.51.796,lexical_decision_task_MP,2020.1.3,Win32,60,,z,0,0.44968,,,,,,,,0.44968,0,,,,,,12,WORD,"ID",33,orange,ORANGE,m,,,,,,0.293518519,-0.439814815,0,0,0,,0,100,100,11,1,,
,,,,,,,,,,,,,,,,,,5f0be5b2bc55e434486fad66,2020-08-10_18h08.51.796,lexical_decision_task_MP,2020.1.3,Win32,60,,m,1,0.55103,,,,,,,,0.55103,1,,,,,,9,WORD,"ID",33,hustle,HUSTLE,m,,,,,,0.293518519,-0.439814815,0,0,0,,0,101,101,8,1,,
,,,,,,,,,,,,,,,,,,5f0be5b2bc55e434486fad66,2020-08-10_18h08.51.796,lexical_decision_task_MP,2020.1.3,Win32,60,,z,1,0.562865,,,,,,,,0.562865,1,,,,,,296,NW,"ID",33,beinch,BEINCH,z,,,,,,0.293518519,-0.439814815,0,0,0,,0,102,102,295,1,,
,,,,,,,,,,,,,,,,,,5f0be5b2bc55e434486fad66,2020-08-10_18h08.51.796,lexical_decision_task_MP,2020.1.3,Win32,60,,m,1,0.59268,,,,,,,,0.59268,1,,,,,,213,WORD,UN,50,intake,SQUEAL,m,,,,,,0.293518519,-0.439814815,0,0,0,,0,103,103,212,1,,
,,,,,,,,,,,,,,,,,,5f0be5b2bc55e434486fad66,2020-08-10_18h08.51.796,lexical_decision_task_MP,2020.1.3,Win32,60,,m,1,0.473365,,,,,,,,0.473365,1,,,,,,26,WORD,"ID",33,sprint,SPRINT,m,,,,,,0.293518519,-0.439814815,0,0,0,,0,104,104,25,1,,
,,,,,,,,,,,,,,,,,,5f0be5b2bc55e434486fad66,2020-08-10_18h08.51.796,lexical_decision_task_MP,2020.1.3,Win32,60,,m,1,0.45651,,,,,,,,0.45651,1,,,,,,103,WORD,"ID",50,bounce,BOUNCE,m,,,,,,0.293518519,-0.439814815,0,0,0,,0,105,105,102,1,,
,,,,,,,,,,,,,,,,,,5f0be5b2bc55e434486fad66,2020-08-10_18h08.51.796,lexical_decision_task_MP,2020.1.3,Win32,60,,z,1,0.58045,,,,,,,,0.58045,1,,,,,,400,NW,UN,33,mustil,WEAROX,z,,,,,,0.293518519,-0.439814815,0,0,0,,0,106,106,399,1,,
,,,,,,,,,,,,,,,,,,5f0be5b2bc55e434486fad66,2020-08-10_18h08.51.796,lexical_decision_task_MP,2020.1.3,Win32,60,,z,1,0.52877,,,,,,,,0.52877,1,,,,,,365,NW,UN,33,toshel,GUAIRT,z,,,,,,0.293518519,-0.439814815,0,0,0,,0,107,107,364,1,,
,,,,,,,,,,,,,,,,,,5f0be5b2bc55e434486fad66,2020-08-10_18h08.51.796,lexical_decision_task_MP,2020.1.3,Win32,60,,m,1,0.50076,,,,,,,,0.50076,1,,,,,,63,WORD,"ID",50,launch,LAUNCH,m,,,,,,0.293518519,-0.439814815,0,0,0,,0,108,108,62,1,,
,,,,,,,,,,,,,,,,,,5f0be5b2bc55e434486fad66,2020-08-10_18h08.51.796,lexical_decision_task_MP,2020.1.3,Win32,60,,m,1,0.54705,,,,,,,,0.54705,1,,,,,,48,WORD,"ID",33,walnut,WALNUT,m,,,,,,0.293518519,-0.439814815,0,0,0,,0,109,109,47,1,,
,,,,,,,,,,,,,,,,,,5f0be5b2bc55e434486fad66,2020-08-10_18h08.51.796,lexical_decision_task_MP,2020.1.3,Win32,60,,z,1,0.58327,,,,,,,,0.58327,1,,,,,,397,NW,UN,33,blunde,CAMBLE,z,,,,,,0.293518519,-0.439814815,0,0,0,,0,110,110,396,1,,
,,,,,,,,,,,,,,,,,,5f0be5b2bc55e434486fad66,2020-08-10_18h08.51.796,lexical_decision_task_MP,2020.1.3,Win32,60,,m,1,0.63242,,,,,,,,0.63242,1,,,,,,235,WORD,UN,50,pirate,GRUMPY,m,,,,,,0.293518519,-0.439814815,0,0,0,,0,111,111,234,1,,
,,,,,,,,,,,,,,,,,,5f0be5b2bc55e434486fad66,2020-08-10_18h08.51.796,lexical_decision_task_MP,2020.1.3,Win32,60,,z,1,0.52622,,,,,,,,0.52622,1,,,,,,439,NW,UN,50,saride,LIMPOR,z,,,,,,0.293518519,-0.439814815,0,0,0,,0,112,112,438,1,,
,,,,,,,,,,,,,,,,,,5f0be5b2bc55e434486fad66,2020-08-10_18h08.51.796,lexical_decision_task_MP,2020.1.3,Win32,60,,m,1,0.443935,,,,,,,,0.443935,1,,,,,,150,WORD,UN,33,mystic,RANDOM,m,,,,,,0.293518519,-0.439814815,0,0,0,,0,113,113,149,1,,
,,,,,,,,,,,,,,,,,,5f0be5b2bc55e434486fad66,2020-08-10_18h08.51.796,lexical_decision_task_MP,2020.1.3,Win32,60,,m,1,0.611535,,,,,,,,0.611535,1,,,,,,128,WORD,UN,33,marvel,SENIOR,m,,,,,,0.293518519,-0.439814815,0,0,0,,0,114,114,127,1,,
,,,,,,,,,,,,,,,,,,5f0be5b2bc55e434486fad66,2020-08-10_18h08.51.796,lexical_decision_task_MP,2020.1.3,Win32,60,,z,1,0.64757,,,,,,,,0.64757,1,,,,,,321,NW,"ID",50,miator,MIATOR,z,,,,,,0.293518519,-0.439814815,0,0,0,,0,115,115,320,1,,
,,,,,,,,,,,,,,,,,,5f0be5b2bc55e434486fad66,2020-08-10_18h08.51.796,lexical_decision_task_MP,2020.1.3,Win32,60,,z,1,0.536575,,,,,,,,0.536575,1,,,,,,288,NW,"ID",33,yaceup,YACEUP,z,,,,,,0.293518519,-0.439814815,0,0,0,,0,116,116,287,1,,
,,,,,,,,,,,,,,,,,,5f0be5b2bc55e434486fad66,2020-08-10_18h08.51.796,lexical_decision_task_MP,2020.1.3,Win32,60,,m,1,0.46402,,,,,,,,0.46402,1,,,,,,78,WORD,"ID",50,column,COLUMN,m,,,,,,0.293518519,-0.439814815,0,0,0,,0,117,117,77,1,,
,,,,,,,,,,,,,,,,,,5f0be5b2bc55e434486fad66,2020-08-10_18h08.51.796,lexical_decision_task_MP,2020.1.3,Win32,60,,z,1,1.053755,,,,,,,,1.053755,1,,,,,,305,NW,"ID",50,forgle,FORGLE,z,,,,,,0.293518519,-0.439814815,0,0,0,,0,118,118,304,1,,
,,,,,,,,,,,,,,,,,,5f0be5b2bc55e434486fad66,2020-08-10_18h08.51.796,lexical_decision_task_MP,2020.1.3,Win32,60,,z,1,0.51054,,,,,,,,0.51054,1,,,,,,455,NW,UN,50,broget,TONDLE,z,,,,,,0.293518519,-0.439814815,0,0,0,,0,119,119,454,1,,
,,,,,,,,,,,,,,,,,,5f0be5b2bc55e434486fad66,2020-08-10_18h08.51.796,lexical_decision_task_MP,2020.1.3,Win32,60,,z,0,0.496425,,,,,,,,0.496425,0,,,,,,47,WORD,"ID",33,income,INCOME,m,,,,,,0.293518519,-0.439814815,0,0,0,space,0,120,120,46,1,11.945505,
,,,,,,,,,,,,,,,,,,5f0be5b2bc55e434486fad66,2020-08-10_18h08.51.796,lexical_decision_task_MP,2020.1.3,Win32,60,,z,1,0.535635,,,,,,,,0.535635,1,,,,,,253,NW,"ID",33,resait,RESAIT,z,,,,,,0.293518519,-0.439814815,0,0,0,,0,121,121,252,1,,
,,,,,,,,,,,,,,,,,,5f0be5b2bc55e434486fad66,2020-08-10_18h08.51.796,lexical_decision_task_MP,2020.1.3,Win32,60,,m,1,0.54464,,,,,,,,0.54464,1,,,,,,223,WORD,UN,50,period,KIDNEY,m,,,,,,0.293518519,-0.439814815,0,0,0,,0,122,122,222,1,,
,,,,,,,,,,,,,,,,,,5f0be5b2bc55e434486fad66,2020-08-10_18h08.51.796,lexical_decision_task_MP,2020.1.3,Win32,60,,z,1,0.636395,,,,,,,,0.636395,1,,,,,,389,NW,UN,33,hatrus,WITMER,z,,,,,,0.293518519,-0.439814815,0,0,0,,0,123,123,388,1,,
,,,,,,,,,,,,,,,,,,5f0be5b2bc55e434486fad66,2020-08-10_18h08.51.796,lexical_decision_task_MP,2020.1.3,Win32,60,,z,1,0.477075,,,,,,,,0.477075,1,,,,,,404,NW,UN,33,syntic,CLUIRM,z,,,,,,0.293518519,-0.439814815,0,0,0,,0,124,124,403,1,,
,,,,,,,,,,,,,,,,,,5f0be5b2bc55e434486fad66,2020-08-10_18h08.51.796,lexical_decision_task_MP,2020.1.3,Win32,60,,z,1,0.42264,,,,,,,,0.42264,1,,,,,,256,NW,"ID",33,inlors,INLORS,z,,,,,,0.293518519,-0.439814815,0,0,0,,0,125,125,255,1,,
,,,,,,,,,,,,,,,,,,5f0be5b2bc55e434486fad66,2020-08-10_18h08.51.796,lexical_decision_task_MP,2020.1.3,Win32,60,,m,1,0.46148,,,,,,,,0.46148,1,,,,,,210,WORD,UN,50,infect,MONKEY,m,,,,,,0.293518519,-0.439814815,0,0,0,,0,126,126,209,1,,
,,,,,,,,,,,,,,,,,,5f0be5b2bc55e434486fad66,2020-08-10_18h08.51.796,lexical_decision_task_MP,2020.1.3,Win32,60,,z,1,0.54027,,,,,,,,0.54027,1,,,,,,309,NW,"ID",50,amiloy,AMILOY,z,,,,,,0.293518519,-0.439814815,0,0,0,,0,127,127,308,1,,
,,,,,,,,,,,,,,,,,,5f0be5b2bc55e434486fad66,2020-08-10_18h08.51.796,lexical_decision_task_MP,2020.1.3,Win32,60,,z,1,0.544415,,,,,,,,0.544415,1,,,,,,313,NW,"ID",50,paurse,PAURSE,z,,,,,,0.293518519,-0.439814815,0,0,0,,0,128,128,312,1,,
,,,,,,,,,,,,,,,,,,5f0be5b2bc55e434486fad66,2020-08-10_18h08.51.796,lexical_decision_task_MP,2020.1.3,Win32,60,,z,1,0.464315,,,,,,,,0.464315,1,,,,,,403,NW,UN,33,cluirm,BRUATS,z,,,,,,0.293518519,-0.439814815,0,0,0,,0,129,129,402,1,,
,,,,,,,,,,,,,,,,,,5f0be5b2bc55e434486fad66,2020-08-10_18h08.51.796,lexical_decision_task_MP,2020.1.3,Win32,60,,m,1,0.56238,,,,,,,,0.56238,1,,,,,,197,WORD,UN,50,wicked,STREAM,m,,,,,,0.293518519,-0.439814815,0,0,0,,0,130,130,196,1,,
,,,,,,,,,,,,,,,,,,5f0be5b2bc55e434486fad66,2020-08-10_18h08.51.796,lexical_decision_task_MP,2020.1.3,Win32,60,,m,1,0.472835,,,,,,,,0.472835,1,,,,,,155,WORD,UN,33,cradle,LIZARD,m,,,,,,0.293518519,-0.439814815,0,0,0,,0,131,131,154,1,,
,,,,,,,,,,,,,,,,,,5f0be5b2bc55e434486fad66,2020-08-10_18h08.51.796,lexical_decision_task_MP,2020.1.3,Win32,60,,z,1,0.62614,,,,,,,,0.62614,1,,,,,,436,NW,UN,50,snapel,FRUTAN,z,,,,,,0.293518519,-0.439814815,0,0,0,,0,132,132,435,1,,
,,,,,,,,,,,,,,,,,,5f0be5b2bc55e434486fad66,2020-08-10_18h08.51.796,lexical_decision_task_MP,2020.1.3,Win32,60,,z,1,0.57538,,,,,,,,0.57538,1,,,,,,477,NW,UN,50,acrise,PHOTIE,z,,,,,,0.293518519,-0.439814815,0,0,0,,0,133,133,476,1,,
,,,,,,,,,,,,,,,,,,5f0be5b2bc55e434486fad66,2020-08-10_18h08.51.796,lexical_decision_task_MP,2020.1.3,Win32,60,,m,1,0.61447,,,,,,,,0.61447,1,,,,,,16,WORD,"ID",33,faucet,FAUCET,m,,,,,,0.293518519,-0.439814815,0,0,0,,0,134,134,15,1,,
,,,,,,,,,,,,,,,,,,5f0be5b2bc55e434486fad66,2020-08-10_18h08.51.796,lexical_decision_task_MP,2020.1.3,Win32,60,,z,1,0.55536,,,,,,,,0.55536,1,,,,,,429,NW,UN,50,caroey,FUNTLE,z,,,,,,0.293518519,-0.439814815,0,0,0,,0,135,135,428,1,,
,,,,,,,,,,,,,,,,,,5f0be5b2bc55e434486fad66,2020-08-10_18h08.51.796,lexical_decision_task_MP,2020.1.3,Win32,60,,z,1,0.51407,,,,,,,,0.51407,1,,,,,,271,NW,"ID",33,aubrid,AUBRID,z,,,,,,0.293518519,-0.439814815,0,0,0,,0,136,136,270,1,,
,,,,,,,,,,,,,,,,,,5f0be5b2bc55e434486fad66,2020-08-10_18h08.51.796,lexical_decision_task_MP,2020.1.3,Win32,60,,z,1,0.49937,,,,,,,,0.49937,1,,,,,,475,NW,UN,50,robuly,PEBRIC,z,,,,,,0.293518519,-0.439814815,0,0,0,,0,137,137,474,1,,
,,,,,,,,,,,,,,,,,,5f0be5b2bc55e434486fad66,2020-08-10_18h08.51.796,lexical_decision_task_MP,2020.1.3,Win32,60,,m,1,0.72356,,,,,,,,0.72356,1,,,,,,101,WORD,"ID",50,wrench,WRENCH,m,,,,,,0.293518519,-0.439814815,0,0,0,,0,138,138,100,1,,
,,,,,,,,,,,,,,,,,,5f0be5b2bc55e434486fad66,2020-08-10_18h08.51.796,lexical_decision_task_MP,2020.1.3,Win32,60,,m,1,0.509595,,,,,,,,0.509595,1,,,,,,125,WORD,UN,33,blouse,NICKEL,m,,,,,,0.293518519,-0.439814815,0,0,0,,0,139,139,124,1,,
,,,,,,,,,,,,,,,,,,5f0be5b2bc55e434486fad66,2020-08-10_18h08.51.796,lexical_decision_task_MP,2020.1.3,Win32,60,,z,1,0.4872,,,,,,,,0.4872,1,,,,,,343,NW,"ID",50,aimosy,AIMOSY,z,,,,,,0.293518519,-0.439814815,0,0,0,,0,140,140,342,1,,
,,,,,,,,,,,,,,,,,,5f0be5b2bc55e434486fad66,2020-08-10_18h08.51.796,lexical_decision_task_MP,2020.1.3,Win32,60,,z,1,0.534645,,,,,,,,0.534645,1,,,,,,350,NW,"ID",50,nagurs,NAGURS,z,,,,,,0.293518519,-0.439814815,0,0,0,,0,141,141,349,1,,
,,,,,,,,,,,,,,,,,,5f0be5b2bc55e434486fad66,2020-08-10_18h08.51.796,lexical_decision_task_MP,2020.1.3,Win32,60,,m,1,0.5092,,,,,,,,0.5092,1,,,,,,108,WORD,"ID",50,reckon,RECKON,m,,,,,,0.293518519,-0.439814815,0,0,0,,0,142,142,107,1,,
,,,,,,,,,,,,,,,,,,5f0be5b2bc55e434486fad66,2020-08-10_18h08.51.796,lexical_decision_task_MP,2020.1.3,Win32,60,,m,1,0.77805,,,,,,,,0.77805,1,,,,,,145,WORD,UN,33,couple,PARISH,m,,,,,,0.293518519,-0.439814815,0,0,0,,0,143,143,144,1,,
,,,,,,,,,,,,,,,,,,5f0be5b2bc55e434486fad66,2020-08-10_18h08.51.796,lexical_decision_task_MP,2020.1.3,Win32,60,,z,1,0.59527,,,,,,,,0.59527,1,,,,,,351,NW,"ID",50,tiesch,TIESCH,z,,,,,,0.293518519,-0.439814815,0,0,0,,0,144,144,350,1,,
,,,,,,,,,,,,,,,,,,5f0be5b2bc55e434486fad66,2020-08-10_18h08.51.796,lexical_decision_task_MP,2020.1.3,Win32,60,,z,1,0.51598,,,,,,,,0.51598,1,,,,,,326,NW,"ID",50,iguade,IGUADE,z,,,,,,0.293518519,-0.439814815,0,0,0,,0,145,145,325,1,,
,,,,,,,,,,,,,,,,,,5f0be5b2bc55e434486fad66,2020-08-10_18h08.51.796,lexical_decision_task_MP,2020.1.3,Win32,60,,m,1,0.512985,,,,,,,,0.512985,1,,,,,,198,WORD,UN,50,invoke,WICKED,m,,,,,,0.293518519,-0.439814815,0,0,0,,0,146,146,197,1,,
,,,,,,,,,,,,,,,,,,5f0be5b2bc55e434486fad66,2020-08-10_18h08.51.796,lexical_decision_task_MP,2020.1.3,Win32,60,,z,1,0.51112,,,,,,,,0.51112,1,,,,,,270,NW,"ID",33,wrimsy,WRIMSY,z,,,,,,0.293518519,-0.439814815,0,0,0,,0,147,147,269,1,,
,,,,,,,,,,,,,,,,,,5f0be5b2bc55e434486fad66,2020-08-10_18h08.51.796,lexical_decision_task_MP,2020.1.3,Win32,60,,z,0,0.65621,,,,,,,,0.65621,0,,,,,,111,WORD,"ID",50,induce,INDUCE,m,,,,,,0.293518519,-0.439814815,0,0,0,,0,148,148,110,1,,
,,,,,,,,,,,,,,,,,,5f0be5b2bc55e434486fad66,2020-08-10_18h08.51.796,lexical_decision_task_MP,2020.1.3,Win32,60,,m,1,0.43439,,,,,,,,0.43439,1,,,,,,27,WORD,"ID",33,scream,SCREAM,m,,,,,,0.293518519,-0.439814815,0,0,0,,0,149,149,26,1,,
,,,,,,,,,,,,,,,,,,5f0be5b2bc55e434486fad66,2020-08-10_18h08.51.796,lexical_decision_task_MP,2020.1.3,Win32,60,,z,1,0.69478,,,,,,,,0.69478,1,,,,,,457,NW,UN,50,barcet,WANIGH,z,,,,,,0.293518519,-0.439814815,0,0,0,,0,150,150,456,1,,
,,,,,,,,,,,,,,,,,,5f0be5b2bc55e434486fad66,2020-08-10_18h08.51.796,lexical_decision_task_MP,2020.1.3,Win32,60,,z,1,0.568795,,,,,,,,0.568795,1,,,,,,381,NW,UN,33,sarley,HUNIEK,z,,,,,,0.293518519,-0.439814815,0,0,0,,0,151,151,380,1,,
,,,,,,,,,,,,,,,,,,5f0be5b2bc55e434486fad66,2020-08-10_18h08.51.796,lexical_decision_task_MP,2020.1.3,Win32,60,,m,1,0.570855,,,,,,,,0.570855,1,,,,,,86,WORD,"ID",50,rodent,RODENT,m,,,,,,0.293518519,-0.439814815,0,0,0,,0,152,152,85,1,,
,,,,,,,,,,,,,,,,,,5f0be5b2bc55e434486fad66,2020-08-10_18h08.51.796,lexical_decision_task_MP,2020.1.3,Win32,60,,m,1,0.66973,,,,,,,,0.66973,1,,,,,,40,WORD,"ID",33,convey,CONVEY,m,,,,,,0.293518519,-0.439814815,0,0,0,,0,153,153,39,1,,
,,,,,,,,,,,,,,,,,,5f0be5b2bc55e434486fad66,2020-08-10_18h08.51.796,lexical_decision_task_MP,2020.1.3,Win32,60,,m,1,0.43171,,,,,,,,0.43171,1,,,,,,83,WORD,"ID",50,result,RESULT,m,,,,,,0.293518519,-0.439814815,0,0,0,,0,154,154,82,1,,
,,,,,,,,,,,,,,,,,,5f0be5b2bc55e434486fad66,2020-08-10_18h08.51.796,lexical_decision_task_MP,2020.1.3,Win32,60,,m,1,0.495895,,,,,,,,0.495895,1,,,,,,109,WORD,"ID",50,wonder,WONDER,m,,,,,,0.293518519,-0.439814815,0,0,0,,0,155,155,108,1,,
,,,,,,,,,,,,,,,,,,5f0be5b2bc55e434486fad66,2020-08-10_18h08.51.796,lexical_decision_task_MP,2020.1.3,Win32,60,,m,1,0.42454,,,,,,,,0.42454,1,,,,,,44,WORD,"ID",33,danger,DANGER,m,,,,,,0.293518519,-0.439814815,0,0,0,,0,156,156,43,1,,
,,,,,,,,,,,,,,,,,,5f0be5b2bc55e434486fad66,2020-08-10_18h08.51.796,lexical_decision_task_MP,2020.1.3,Win32,60,,m,1,0.400925,,,,,,,,0.400925,1,,,,,,57,WORD,"ID",33,change,CHANGE,m,,,,,,0.293518519,-0.439814815,0,0,0,,0,157,157,56,1,,
,,,,,,,,,,,,,,,,,,5f0be5b2bc55e434486fad66,2020-08-10_18h08.51.796,lexical_decision_task_MP,2020.1.3,Win32,60,,z,1,0.53507,,,,,,,,0.53507,1,,,,,,258,NW,"ID",33,poluth,POLUTH,z,,,,,,0.293518519,-0.439814815,0,0,0,,0,158,158,257,1,,
,,,,,,,,,,,,,,,,,,5f0be5b2bc55e434486fad66,2020-08-10_18h08.51.796,lexical_decision_task_MP,2020.1.3,Win32,60,,z,1,0.610345,,,,,,,,0.610345,1,,,,,,445,NW,UN,50,runamo,MINKEL,z,,,,,,0.293518519,-0.439814815,0,0,0,,0,159,159,444,1,,
,,,,,,,,,,,,,,,,,,5f0be5b2bc55e434486fad66,2020-08-10_18h08.51.796,lexical_decision_task_MP,2020.1.3,Win32,60,,z,1,0.48714,,,,,,,,0.48714,1,,,,,,385,NW,UN,33,ancust,VEIGMA,z,,,,,,0.293518519,-0.439814815,0,0,0,,0,160,160,384,1,,
,,,,,,,,,,,,,,,,,,5f0be5b2bc55e434486fad66,2020-08-10_18h08.51.796,lexical_decision_task_MP,2020.1.3,Win32,60,,z,1,0.54114,,,,,,,,0.54114,1,,,,,,251,NW,"ID",33,lupict,LUPICT,z,,,,,,0.293518519,-0.439814815,0,0,0,,0,161,161,250,1,,
,,,,,,,,,,,,,,,,,,5f0be5b2bc55e434486fad66,2020-08-10_18h08.51.796,lexical_decision_task_MP,2020.1.3,Win32,60,,z,1,0.53643,,,,,,,,0.53643,1,,,,,,318,NW,"ID",50,reagly,REAGLY,z,,,,,,0.293518519,-0.439814815,0,0,0,,0,162,162,317,1,,
,,,,,,,,,,,,,,,,,,5f0be5b2bc55e434486fad66,2020-08-10_18h08.51.796,lexical_decision_task_MP,2020.1.3,Win32,60,,z,1,0.575475,,,,,,,,0.575475,1,,,,,,360,NW,"ID",50,desory,DESORY,z,,,,,,0.293518519,-0.439814815,0,0,0,,0,163,163,359,1,,
,,,,,,,,,,,,,,,,,,5f0be5b2bc55e434486fad66,2020-08-10_18h08.51.796,lexical_decision_task_MP,2020.1.3,Win32,60,,z,1,0.566,,,,,,,,0.566,1,,,,,,438,NW,UN,50,limpor,BAITCH,z,,,,,,0.293518519,-0.439814815,0,0,0,,0,164,164,437,1,,
,,,,,,,,,,,,,,,,,,5f0be5b2bc55e434486fad66,2020-08-10_18h08.51.796,lexical_decision_task_MP,2020.1.3,Win32,60,,m,1,0.56014,,,,,,,,0.56014,1,,,,,,195,WORD,UN,50,credit,RESIGN,m,,,,,,0.293518519,-0.439814815,0,0,0,,0,165,165,194,1,,
,,,,,,,,,,,,,,,,,,5f0be5b2bc55e434486fad66,2020-08-10_18h08.51.796,lexical_decision_task_MP,2020.1.3,Win32,60,,z,1,0.47022,,,,,,,,0.47022,1,,,,,,325,NW,"ID",50,thruse,THRUSE,z,,,,,,0.293518519,-0.439814815,0,0,0,,0,166,166,324,1,,
,,,,,,,,,,,,,,,,,,5f0be5b2bc55e434486fad66,2020-08-10_18h08.51.796,lexical_decision_task_MP,2020.1.3,Win32,60,,m,1,0.60605,,,,,,,,0.60605,1,,,,,,178,WORD,UN,33,mildew,INFORM,m,,,,,,0.293518519,-0.439814815,0,0,0,,0,167,167,177,1,,
,,,,,,,,,,,,,,,,,,5f0be5b2bc55e434486fad66,2020-08-10_18h08.51.796,lexical_decision_task_MP,2020.1.3,Win32,60,,z,1,0.710695,,,,,,,,0.710695,1,,,,,,407,NW,UN,33,hurnia,SUIVER,z,,,,,,0.293518519,-0.439814815,0,0,0,,0,168,168,406,1,,
,,,,,,,,,,,,,,,,,,5f0be5b2bc55e434486fad66,2020-08-10_18h08.51.796,lexical_decision_task_MP,2020.1.3,Win32,60,,z,1,0.80672,,,,,,,,0.80672,1,,,,,,241,NW,"ID",33,smenco,SMENCO,z,,,,,,0.293518519,-0.439814815,0,0,0,,0,169,169,240,1,,
,,,,,,,,,,,,,,,,,,5f0be5b2bc55e434486fad66,2020-08-10_18h08.51.796,lexical_decision_task_MP,2020.1.3,Win32,60,,m,1,0.6403,,,,,,,,0.6403,1,,,,,,107,WORD,"ID",50,slogan,SLOGAN,m,,,,,,0.293518519,-0.439814815,0,0,0,,0,170,170,106,1,,
,,,,,,,,,,,,,,,,,,5f0be5b2bc55e434486fad66,2020-08-10_18h08.51.796,lexical_decision_task_MP,2020.1.3,Win32,60,,m,1,0.593085,,,,,,,,0.593085,1,,,,,,99,WORD,"ID",50,fluent,FLUENT,m,,,,,,0.293518519,-0.439814815,0,0,0,,0,171,171,98,1,,
,,,,,,,,,,,,,,,,,,5f0be5b2bc55e434486fad66,2020-08-10_18h08.51.796,lexical_decision_task_MP,2020.1.3,Win32,60,,z,1,0.61466,,,,,,,,0.61466,1,,,,,,248,NW,"ID",33,strole,STROLE,z,,,,,,0.293518519,-0.439814815,0,0,0,,0,172,172,247,1,,
,,,,,,,,,,,,,,,,,,5f0be5b2bc55e434486fad66,2020-08-10_18h08.51.796,lexical_decision_task_MP,2020.1.3,Win32,60,,z,1,0.543445,,,,,,,,0.543445,1,,,,,,319,NW,"ID",50,zomber,ZOMBER,z,,,,,,0.293518519,-0.439814815,0,0,0,,0,173,173,318,1,,
,,,,,,,,,,,,,,,,,,5f0be5b2bc55e434486fad66,2020-08-10_18h08.51.796,lexical_decision_task_MP,2020.1.3,Win32,60,,z,1,0.457265,,,,,,,,0.457265,1,,,,,,324,NW,"ID",50,steikh,STEIKH,z,,,,,,0.293518519,-0.439814815,0,0,0,,0,174,174,323,1,,
,,,,,,,,,,,,,,,,,,5f0be5b2bc55e434486fad66,2020-08-10_18h08.51.796,lexical_decision_task_MP,2020.1.3,Win32,60,,z,1,0.43956,,,,,,,,0.43956,1,,,,,,454,NW,UN,50,tondle,SCOUGE,z,,,,,,0.293518519,-0.439814815,0,0,0,,0,175,175,453,1,,
,,,,,,,,,,,,,,,,,,5f0be5b2bc55e434486fad66,2020-08-10_18h08.51.796,lexical_decision_task_MP,2020.1.3,Win32,60,,m,1,0.72506,,,,,,,,0.72506,1,,,,,,39,WORD,"ID",33,insect,INSECT,m,,,,,,0.293518519,-0.439814815,0,0,0,,0,176,176,38,1,,
,,,,,,,,,,,,,,,,,,5f0be5b2bc55e434486fad66,2020-08-10_18h08.51.796,lexical_decision_task_MP,2020.1.3,Win32,60,,z,1,0.52726,,,,,,,,0.52726,1,,,,,,340,NW,"ID",50,fiatch,FIATCH,z,,,,,,0.293518519,-0.439814815,0,0,0,,0,177,177,339,1,,
,,,,,,,,,,,,,,,,,,5f0be5b2bc55e434486fad66,2020-08-10_18h08.51.796,lexical_decision_task_MP,2020.1.3,Win32,60,,z,1,0.56385,,,,,,,,0.56385,1,,,,,,330,NW,"ID",50,kensom,KENSOM,z,,,,,,0.293518519,-0.439814815,0,0,0,,0,178,178,329,1,,
,,,,,,,,,,,,,,,,,,5f0be5b2bc55e434486fad66,2020-08-10_18h08.51.796,lexical_decision_task_MP,2020.1.3,Win32,60,,z,1,0.62136,,,,,,,,0.62136,1,,,,,,416,NW,UN,33,earoud,PATHEL,z,,,,,,0.293518519,-0.439814815,0,0,0,,0,179,179,415,1,,
,,,,,,,,,,,,,,,,,,5f0be5b2bc55e434486fad66,2020-08-10_18h08.51.796,lexical_decision_task_MP,2020.1.3,Win32,60,,m,1,0.87998,,,,,,,,0.87998,1,,,,,,138,WORD,UN,33,staple,MELODY,m,,,,,,0.293518519,-0.439814815,0,0,0,,0,180,180,137,1,,
,,,,,,,,,,,,,,,,,,5f0be5b2bc55e434486fad66,2020-08-10_18h08.51.796,lexical_decision_task_MP,2020.1.3,Win32,60,,z,1,0.61392,,,,,,,,0.61392,1,,,,,,354,NW,"ID",50,virlex,VIRLEX,z,,,,,,0.293518519,-0.439814815,0,0,0,,0,181,181,353,1,,
,,,,,,,,,,,,,,,,,,5f0be5b2bc55e434486fad66,2020-08-10_18h08.51.796,lexical_decision_task_MP,2020.1.3,Win32,60,,m,1,1.002345,,,,,,,,1.002345,1,,,,,,177,WORD,UN,33,inform,ADVENT,m,,,,,,0.293518519,-0.439814815,0,0,0,,0,182,182,176,1,,
,,,,,,,,,,,,,,,,,,5f0be5b2bc55e434486fad66,2020-08-10_18h08.51.796,lexical_decision_task_MP,2020.1.3,Win32,60,,m,1,0.60471,,,,,,,,0.60471,1,,,,,,151,WORD,UN,33,rocket,MYSTIC,m,,,,,,0.293518519,-0.439814815,0,0,0,,0,183,183,150,1,,
,,,,,,,,,,,,,,,,,,5f0be5b2bc55e434486fad66,2020-08-10_18h08.51.796,lexical_decision_task_MP,2020.1.3,Win32,60,,m,1,0.706945,,,,,,,,0.706945,1,,,,,,156,WORD,UN,33,pastor,CRADLE,m,,,,,,0.293518519,-0.439814815,0,0,0,,0,184,184,155,1,,
,,,,,,,,,,,,,,,,,,5f0be5b2bc55e434486fad66,2020-08-10_18h08.51.796,lexical_decision_task_MP,2020.1.3,Win32,60,,z,1,0.625935,,,,,,,,0.625935,1,,,,,,392,NW,UN,33,ganous,ROUNCY,z,,,,,,0.293518519,-0.439814815,0,0,0,,0,185,185,391,1,,
,,,,,,,,,,,,,,,,,,5f0be5b2bc55e434486fad66,2020-08-10_18h08.51.796,lexical_decision_task_MP,2020.1.3,Win32,60,,m,1,0.661625,,,,,,,,0.661625,1,,,,,,85,WORD,"ID",50,sprawl,SPRAWL,m,,,,,,0.293518519,-0.439814815,0,0,0,,0,186,186,84,1,,
,,,,,,,,,,,,,,,,,,5f0be5b2bc55e434486fad66,2020-08-10_18h08.51.796,lexical_decision_task_MP,2020.1.3,Win32,60,,m,1,0.519645,,,,,,,,0.519645,1,,,,,,62,WORD,"ID",50,region,REGION,m,,,,,,0.293518519,-0.439814815,0,0,0,,0,187,187,61,1,,
,,,,,,,,,,,,,,,,,,5f0be5b2bc55e434486fad66,2020-08-10_18h08.51.796,lexical_decision_task_MP,2020.1.3,Win32,60,,m,1,0.44773,,,,,,,,0.44773,1,,,,,,43,WORD,"ID",33,tongue,TONGUE,m,,,,,,0.293518519,-0.439814815,0,0,0,,0,188,188,42,1,,
,,,,,,,,,,,,,,,,,,5f0be5b2bc55e434486fad66,2020-08-10_18h08.51.796,lexical_decision_task_MP,2020.1.3,Win32,60,,z,1,0.48539,,,,,,,,0.48539,1,,,,,,276,NW,"ID",33,yarmon,YARMON,z,,,,,,0.293518519,-0.439814815,0,0,0,,0,189,189,275,1,,
,,,,,,,,,,,,,,,,,,5f0be5b2bc55e434486fad66,2020-08-10_18h08.51.796,lexical_decision_task_MP,2020.1.3,Win32,60,,z,1,0.955725,,,,,,,,0.955725,1,,,,,,355,NW,"ID",50,zingly,ZINGLY,z,,,,,,0.293518519,-0.439814815,0,0,0,,0,190,190,354,1,,
,,,,,,,,,,,,,,,,,,5f0be5b2bc55e434486fad66,2020-08-10_18h08.51.796,lexical_decision_task_MP,2020.1.3,Win32,60,,m,1,0.647835,,,,,,,,0.647835,1,,,,,,199,WORD,UN,50,beacon,INVOKE,m,,,,,,0.293518519,-0.439814815,0,0,0,,0,191,191,198,1,,
,,,,,,,,,,,,,,,,,,5f0be5b2bc55e434486fad66,2020-08-10_18h08.51.796,lexical_decision_task_MP,2020.1.3,Win32,60,,z,0,0.544185,,,,,,,,0.544185,0,,,,,,22,WORD,"ID",33,jockey,JOCKEY,m,,,,,,0.293518519,-0.439814815,0,0,0,,0,192,192,21,1,,
,,,,,,,,,,,,,,,,,,5f0be5b2bc55e434486fad66,2020-08-10_18h08.51.796,lexical_decision_task_MP,2020.1.3,Win32,60,,z,1,0.81651,,,,,,,,0.81651,1,,,,,,265,NW,"ID",33,distar,DISTAR,z,,,,,,0.293518519,-0.439814815,0,0,0,,0,193,193,264,1,,
,,,,,,,,,,,,,,,,,,5f0be5b2bc55e434486fad66,2020-08-10_18h08.51.796,lexical_decision_task_MP,2020.1.3,Win32,60,,m,1,0.52086,,,,,,,,0.52086,1,,,,,,174,WORD,UN,33,fabric,TURKEY,m,,,,,,0.293518519,-0.439814815,0,0,0,,0,194,194,173,1,,
,,,,,,,,,,,,,,,,,,5f0be5b2bc55e434486fad66,2020-08-10_18h08.51.796,lexical_decision_task_MP,2020.1.3,Win32,60,,m,1,0.75719,,,,,,,,0.75719,1,,,,,,61,WORD,"ID",50,ponder,PONDER,m,,,,,,0.293518519,-0.439814815,0,0,0,,0,195,195,60,1,,
,,,,,,,,,,,,,,,,,,5f0be5b2bc55e434486fad66,2020-08-10_18h08.51.796,lexical_decision_task_MP,2020.1.3,Win32,60,,z,0,0.588225,,,,,,,,0.588225,0,,,,,,188,WORD,UN,50,censor,SOCIAL,m,,,,,,0.293518519,-0.439814815,0,0,0,,0,196,196,187,1,,
,,,,,,,,,,,,,,,,,,5f0be5b2bc55e434486fad66,2020-08-10_18h08.51.796,lexical_decision_task_MP,2020.1.3,Win32,60,,m,1,0.6738,,,,,,,,0.6738,1,,,,,,117,WORD,"ID",50,branch,BRANCH,m,,,,,,0.293518519,-0.439814815,0,0,0,,0,197,197,116,1,,
,,,,,,,,,,,,,,,,,,5f0be5b2bc55e434486fad66,2020-08-10_18h08.51.796,lexical_decision_task_MP,2020.1.3,Win32,60,,z,1,0.86898,,,,,,,,0.86898,1,,,,,,327,NW,"ID",50,plenac,PLENAC,z,,,,,,0.293518519,-0.439814815,0,0,0,,0,198,198,326,1,,
,,,,,,,,,,,,,,,,,,5f0be5b2bc55e434486fad66,2020-08-10_18h08.51.796,lexical_decision_task_MP,2020.1.3,Win32,60,,z,1,1.10932,,,,,,,,1.10932,1,,,,,,462,NW,UN,50,kispel,ABSULT,z,,,,,,0.293518519,-0.439814815,0,0,0,,0,199,199,461,1,,
,,,,,,,,,,,,,,,,,,5f0be5b2bc55e434486fad66,2020-08-10_18h08.51.796,lexical_decision_task_MP,2020.1.3,Win32,60,,z,1,0.50713,,,,,,,,0.50713,1,,,,,,295,NW,"ID",33,gleath,GLEATH,z,,,,,,0.293518519,-0.439814815,0,0,0,,0,200,200,294,1,,
,,,,,,,,,,,,,,,,,,5f0be5b2bc55e434486fad66,2020-08-10_18h08.51.796,lexical_decision_task_MP,2020.1.3,Win32,60,,z,1,0.658135,,,,,,,,0.658135,1,,,,,,409,NW,UN,33,tunory,ELOPIA,z,,,,,,0.293518519,-0.439814815,0,0,0,,0,201,201,408,1,,
,,,,,,,,,,,,,,,,,,5f0be5b2bc55e434486fad66,2020-08-10_18h08.51.796,lexical_decision_task_MP,2020.1.3,Win32,60,,z,1,0.51422,,,,,,,,0.51422,1,,,,,,370,NW,UN,33,geiloy,SLEACT,z,,,,,,0.293518519,-0.439814815,0,0,0,,0,202,202,369,1,,
,,,,,,,,,,,,,,,,,,5f0be5b2bc55e434486fad66,2020-08-10_18h08.51.796,lexical_decision_task_MP,2020.1.3,Win32,60,,z,1,0.560235,,,,,,,,0.560235,1,,,,,,315,NW,"ID",50,laston,LASTON,z,,,,,,0.293518519,-0.439814815,0,0,0,,0,203,203,314,1,,
,,,,,,,,,,,,,,,,,,5f0be5b2bc55e434486fad66,2020-08-10_18h08.51.796,lexical_decision_task_MP,2020.1.3,Win32,60,,m,1,0.560725,,,,,,,,0.560725,1,,,,,,58,WORD,"ID",33,foster,FOSTER,m,,,,,,0.293518519,-0.439814815,0,0,0,,0,204,204,57,1,,
,,,,,,,,,,,,,,,,,,5f0be5b2bc55e434486fad66,2020-08-10_18h08.51.796,lexical_decision_task_MP,2020.1.3,Win32,60,,z,1,0.74271,,,,,,,,0.74271,1,,,,,,289,NW,"ID",33,starby,STARBY,z,,,,,,0.293518519,-0.439814815,0,0,0,,0,205,205,288,1,,
,,,,,,,,,,,,,,,,,,5f0be5b2bc55e434486fad66,2020-08-10_18h08.51.796,lexical_decision_task_MP,2020.1.3,Win32,60,,z,1,0.908175,,,,,,,,0.908175,1,,,,,,444,NW,UN,50,minkel,JAUNCE,z,,,,,,0.293518519,-0.439814815,0,0,0,,0,206,206,443,1,,
,,,,,,,,,,,,,,,,,,5f0be5b2bc55e434486fad66,2020-08-10_18h08.51.796,lexical_decision_task_MP,2020.1.3,Win32,60,,m,1,0.53825,,,,,,,,0.53825,1,,,,,,69,WORD,"ID",50,plenty,PLENTY,m,,,,,,0.293518519,-0.439814815,0,0,0,,0,207,207,68,1,,
,,,,,,,,,,,,,,,,,,5f0be5b2bc55e434486fad66,2020-08-10_18h08.51.796,lexical_decision_task_MP,2020.1.3,Win32,60,,z,1,0.622255,,,,,,,,0.622255,1,,,,,,394,NW,UN,33,colury,SPAQUX,z,,,,,,0.293518519,-0.439814815,0,0,0,,0,208,208,393,1,,
,,,,,,,,,,,,,,,,,,5f0be5b2bc55e434486fad66,2020-08-10_18h08.51.796,lexical_decision_task_MP,2020.1.3,Win32,60,,z,1,0.48086,,,,,,,,0.48086,1,,,,,,303,NW,"ID",50,fiream,FIREAM,z,,,,,,0.293518519,-0.439814815,0,0,0,,0,209,209,302,1,,
,,,,,,,,,,,,,,,,,,5f0be5b2bc55e434486fad66,2020-08-10_18h08.51.796,lexical_decision_task_MP,2020.1.3,Win32,60,,m,1,0.72199,,,,,,,,0.72199,1,,,,,,14,WORD,"ID",33,almost,ALMOST,m,,,,,,0.293518519,-0.439814815,0,0,0,,0,210,210,13,1,,
,,,,,,,,,,,,,,,,,,5f0be5b2bc55e434486fad66,2020-08-10_18h08.51.796,lexical_decision_task_MP,2020.1.3,Win32,60,,z,1,0.65993,,,,,,,,0.65993,1,,,,,,312,NW,"ID",50,nerawl,NERAWL,z,,,,,,0.293518519,-0.439814815,0,0,0,,0,211,211,311,1,,
,,,,,,,,,,,,,,,,,,5f0be5b2bc55e434486fad66,2020-08-10_18h08.51.796,lexical_decision_task_MP,2020.1.3,Win32,60,,z,1,0.64407,,,,,,,,0.64407,1,,,,,,424,NW,UN,50,urivel,PRAILE,z,,,,,,0.293518519,-0.439814815,0,0,0,,0,212,212,423,1,,
,,,,,,,,,,,,,,,,,,5f0be5b2bc55e434486fad66,2020-08-10_18h08.51.796,lexical_decision_task_MP,2020.1.3,Win32,60,,m,1,0.55243,,,,,,,,0.55243,1,,,,,,196,WORD,UN,50,stream,CREDIT,m,,,,,,0.293518519,-0.439814815,0,0,0,,0,213,213,195,1,,
,,,,,,,,,,,,,,,,,,5f0be5b2bc55e434486fad66,2020-08-10_18h08.51.796,lexical_decision_task_MP,2020.1.3,Win32,60,,m,1,0.549735,,,,,,,,0.549735,1,,,,,,234,WORD,UN,50,lumber,CLUMSY,m,,,,,,0.293518519,-0.439814815,0,0,0,,0,214,214,233,1,,
,,,,,,,,,,,,,,,,,,5f0be5b2bc55e434486fad66,2020-08-10_18h08.51.796,lexical_decision_task_MP,2020.1.3,Win32,60,,m,1,0.43146,,,,,,,,0.43146,1,,,,,,89,WORD,"ID",50,permit,PERMIT,m,,,,,,0.293518519,-0.439814815,0,0,0,,0,215,215,88,1,,
,,,,,,,,,,,,,,,,,,5f0be5b2bc55e434486fad66,2020-08-10_18h08.51.796,lexical_decision_task_MP,2020.1.3,Win32,60,,m,1,0.54444,,,,,,,,0.54444,1,,,,,,31,WORD,"ID",33,weapon,WEAPON,m,,,,,,0.293518519,-0.439814815,0,0,0,,0,216,216,30,1,,
,,,,,,,,,,,,,,,,,,5f0be5b2bc55e434486fad66,2020-08-10_18h08.51.796,lexical_decision_task_MP,2020.1.3,Win32,60,,z,1,0.530145,,,,,,,,0.530145,1,,,,,,430,NW,UN,50,funtle,CAROEY,z,,,,,,0.293518519,-0.439814815,0,0,0,,0,217,217,429,1,,
,,,,,,,,,,,,,,,,,,5f0be5b2bc55e434486fad66,2020-08-10_18h08.51.796,lexical_decision_task_MP,2020.1.3,Win32,60,,z,1,0.524725,,,,,,,,0.524725,1,,,,,,299,NW,"ID",33,sturch,STURCH,z,,,,,,0.293518519,-0.439814815,0,0,0,,0,218,218,298,1,,
,,,,,,,,,,,,,,,,,,5f0be5b2bc55e434486fad66,2020-08-10_18h08.51.796,lexical_decision_task_MP,2020.1.3,Win32,60,,z,0,0.74523,,,,,,,,0.74523,0,,,,,,133,WORD,UN,33,debris,CHROME,m,,,,,,0.293518519,-0.439814815,0,0,0,,0,219,219,132,1,,
,,,,,,,,,,,,,,,,,,5f0be5b2bc55e434486fad66,2020-08-10_18h08.51.796,lexical_decision_task_MP,2020.1.3,Win32,60,,m,1,0.567775,,,,,,,,0.567775,1,,,,,,203,WORD,UN,50,burden,PHRASE,m,,,,,,0.293518519,-0.439814815,0,0,0,,0,220,220,202,1,,
,,,,,,,,,,,,,,,,,,5f0be5b2bc55e434486fad66,2020-08-10_18h08.51.796,lexical_decision_task_MP,2020.1.3,Win32,60,,z,1,0.647865,,,,,,,,0.647865,1,,,,,,427,NW,UN,50,tandly,SCHIND,z,,,,,,0.293518519,-0.439814815,0,0,0,,0,221,221,426,1,,
,,,,,,,,,,,,,,,,,,5f0be5b2bc55e434486fad66,2020-08-10_18h08.51.796,lexical_decision_task_MP,2020.1.3,Win32,60,,m,1,0.520975,,,,,,,,0.520975,1,,,,,,11,WORD,"ID",33,cruise,CRUISE,m,,,,,,0.293518519,-0.439814815,0,0,0,,0,222,222,10,1,,
,,,,,,,,,,,,,,,,,,5f0be5b2bc55e434486fad66,2020-08-10_18h08.51.796,lexical_decision_task_MP,2020.1.3,Win32,60,,z,1,0.61268,,,,,,,,0.61268,1,,,,,,406,NW,UN,33,suiver,NOUPLY,z,,,,,,0.293518519,-0.439814815,0,0,0,,0,223,223,405,1,,
,,,,,,,,,,,,,,,,,,5f0be5b2bc55e434486fad66,2020-08-10_18h08.51.796,lexical_decision_task_MP,2020.1.3,Win32,60,,m,1,0.670705,,,,,,,,0.670705,1,,,,,,142,WORD,UN,33,orphan,SPRUCE,m,,,,,,0.293518519,-0.439814815,0,0,0,,0,224,224,141,1,,
,,,,,,,,,,,,,,,,,,5f0be5b2bc55e434486fad66,2020-08-10_18h08.51.796,lexical_decision_task_MP,2020.1.3,Win32,60,,z,1,0.960265,,,,,,,,0.960265,1,,,,,,348,NW,"ID",50,dumple,DUMPLE,z,,,,,,0.293518519,-0.439814815,0,0,0,,0,225,225,347,1,,
,,,,,,,,,,,,,,,,,,5f0be5b2bc55e434486fad66,2020-08-10_18h08.51.796,lexical_decision_task_MP,2020.1.3,Win32,60,,m,1,0.624095,,,,,,,,0.624095,1,,,,,,221,WORD,UN,50,hinder,MASCOT,m,,,,,,0.293518519,-0.439814815,0,0,0,,0,226,226,220,1,,
,,,,,,,,,,,,,,,,,,5f0be5b2bc55e434486fad66,2020-08-10_18h08.51.796,lexical_decision_task_MP,2020.1.3,Win32,60,,m,1,0.560835,,,,,,,,0.560835,1,,,,,,170,WORD,UN,33,depart,POUNCE,m,,,,,,0.293518519,-0.439814815,0,0,0,,0,227,227,169,1,,
,,,,,,,,,,,,,,,,,,5f0be5b2bc55e434486fad66,2020-08-10_18h08.51.796,lexical_decision_task_MP,2020.1.3,Win32,60,,z,1,0.54649,,,,,,,,0.54649,1,,,,,,292,NW,"ID",33,ablint,ABLINT,z,,,,,,0.293518519,-0.439814815,0,0,0,,0,228,228,291,1,,
,,,,,,,,,,,,,,,,,,5f0be5b2bc55e434486fad66,2020-08-10_18h08.51.796,lexical_decision_task_MP,2020.1.3,Win32,60,,m,1,0.51032,,,,,,,,0.51032,1,,,,,,135,WORD,UN,33,chrome,IMPORT,m,,,,,,0.293518519,-0.439814815,0,0,0,,0,229,229,134,1,,
,,,,,,,,,,,,,,,,,,5f0be5b2bc55e434486fad66,2020-08-10_18h08.51.796,lexical_decision_task_MP,2020.1.3,Win32,60,,m,1,0.568575,,,,,,,,0.568575,1,,,,,,64,WORD,"ID",50,throne,THRONE,m,,,,,,0.293518519,-0.439814815,0,0,0,,0,230,230,63,1,,
,,,,,,,,,,,,,,,,,,5f0be5b2bc55e434486fad66,2020-08-10_18h08.51.796,lexical_decision_task_MP,2020.1.3,Win32,60,,m,1,0.51529,,,,,,,,0.51529,1,,,,,,42,WORD,"ID",33,chapel,CHAPEL,m,,,,,,0.293518519,-0.439814815,0,0,0,,0,231,231,41,1,,
,,,,,,,,,,,,,,,,,,5f0be5b2bc55e434486fad66,2020-08-10_18h08.51.796,lexical_decision_task_MP,2020.1.3,Win32,60,,m,1,0.49439,,,,,,,,0.49439,1,,,,,,53,WORD,"ID",33,police,POLICE,m,,,,,,0.293518519,-0.439814815,0,0,0,,0,232,232,52,1,,
,,,,,,,,,,,,,,,,,,5f0be5b2bc55e434486fad66,2020-08-10_18h08.51.796,lexical_decision_task_MP,2020.1.3,Win32,60,,z,1,0.77744,,,,,,,,0.77744,1,,,,,,398,NW,UN,33,fouret,BLUNDE,z,,,,,,0.293518519,-0.439814815,0,0,0,,0,233,233,397,1,,
,,,,,,,,,,,,,,,,,,5f0be5b2bc55e434486fad66,2020-08-10_18h08.51.796,lexical_decision_task_MP,2020.1.3,Win32,60,,m,1,0.568625,,,,,,,,0.568625,1,,,,,,236,WORD,UN,50,poster,PIRATE,m,,,,,,0.293518519,-0.439814815,0,0,0,,0,234,234,235,1,,
,,,,,,,,,,,,,,,,,,5f0be5b2bc55e434486fad66,2020-08-10_18h08.51.796,lexical_decision_task_MP,2020.1.3,Win32,60,,m,1,0.62978,,,,,,,,0.62978,1,,,,,,129,WORD,UN,33,stupid,MARVEL,m,,,,,,0.293518519,-0.439814815,0,0,0,,0,235,235,128,1,,
,,,,,,,,,,,,,,,,,,5f0be5b2bc55e434486fad66,2020-08-10_18h08.51.796,lexical_decision_task_MP,2020.1.3,Win32,60,,m,1,1.060445,,,,,,,,1.060445,1,,,,,,141,WORD,UN,33,spruce,ORPHAN,m,,,,,,0.293518519,-0.439814815,0,0,0,,0,236,236,140,1,,
,,,,,,,,,,,,,,,,,,5f0be5b2bc55e434486fad66,2020-08-10_18h08.51.796,lexical_decision_task_MP,2020.1.3,Win32,60,,z,1,0.708835,,,,,,,,0.708835,1,,,,,,320,NW,"ID",50,jockal,JOCKAL,z,,,,,,0.293518519,-0.439814815,0,0,0,,0,237,237,319,1,,
,,,,,,,,,,,,,,,,,,5f0be5b2bc55e434486fad66,2020-08-10_18h08.51.796,lexical_decision_task_MP,2020.1.3,Win32,60,,m,1,0.506345,,,,,,,,0.506345,1,,,,,,35,WORD,"ID",33,socket,SOCKET,m,,,,,,0.293518519,-0.439814815,0,0,0,,0,238,238,34,1,,
,,,,,,,,,,,,,,,,,,5f0be5b2bc55e434486fad66,2020-08-10_18h08.51.796,lexical_decision_task_MP,2020.1.3,Win32,60,,z,1,0.7257,,,,,,,,0.7257,1,,,,,,419,NW,UN,33,gushop,SLOUNT,z,,,,,,0.293518519,-0.439814815,0,0,0,,0,239,239,418,1,,
,,,,,,,,,,,,,,,,,,5f0be5b2bc55e434486fad66,2020-08-10_18h08.51.796,lexical_decision_task_MP,2020.1.3,Win32,60,,m,1,0.59063,,,,,,,,0.59063,1,,,,,,95,WORD,"ID",50,thread,THREAD,m,,,,,,0.293518519,-0.439814815,0,0,0,,0,240,240,94,1,,
,,,,,,,,,,,,,,,,,,5f0be5b2bc55e434486fad66,2020-08-10_18h08.51.796,lexical_decision_task_MP,2020.1.3,Win32,60,,m,1,0.51225,,,,,,,,0.51225,1,,,,,,238,WORD,UN,50,grumpy,FLOWER,m,,,,,,0.293518519,-0.439814815,0,0,0,space,0,241,241,237,1,11.5787,
,,,,,,,,,,,,,,,,,,5f0be5b2bc55e434486fad66,2020-08-10_18h08.51.796,lexical_decision_task_MP,2020.1.3,Win32,60,,m,1,0.49266,,,,,,,,0.49266,1,,,,,,208,WORD,UN,50,search,HOCKEY,m,,,,,,0.293518519,-0.439814815,0,0,0,,0,242,242,207,1,,
,,,,,,,,,,,,,,,,,,5f0be5b2bc55e434486fad66,2020-08-10_18h08.51.796,lexical_decision_task_MP,2020.1.3,Win32,60,,m,1,0.474555,,,,,,,,0.474555,1,,,,,,167,WORD,UN,33,answer,DESIGN,m,,,,,,0.293518519,-0.439814815,0,0,0,,0,243,243,166,1,,
,,,,,,,,,,,,,,,,,,5f0be5b2bc55e434486fad66,2020-08-10_18h08.51.796,lexical_decision_task_MP,2020.1.3,Win32,60,,z,1,0.51967,,,,,,,,0.51967,1,,,,,,474,NW,UN,50,gorbie,HABLIN,z,,,,,,0.293518519,-0.439814815,0,0,0,,0,244,244,473,1,,
,,,,,,,,,,,,,,,,,,5f0be5b2bc55e434486fad66,2020-08-10_18h08.51.796,lexical_decision_task_MP,2020.1.3,Win32,60,,m,1,0.45304,,,,,,,,0.45304,1,,,,,,71,WORD,"ID",50,garden,GARDEN,m,,,,,,0.293518519,-0.439814815,0,0,0,,0,245,245,70,1,,
,,,,,,,,,,,,,,,,,,5f0be5b2bc55e434486fad66,2020-08-10_18h08.51.796,lexical_decision_task_MP,2020.1.3,Win32,60,,z,1,0.53344,,,,,,,,0.53344,1,,,,,,367,NW,UN,33,hornal,SLIQUE,z,,,,,,0.293518519,-0.439814815,0,0,0,,0,246,246,366,1,,
,,,,,,,,,,,,,,,,,,5f0be5b2bc55e434486fad66,2020-08-10_18h08.51.796,lexical_decision_task_MP,2020.1.3,Win32,60,,z,1,0.52952,,,,,,,,0.52952,1,,,,,,284,NW,"ID",33,shaple,SHAPLE,z,,,,,,0.293518519,-0.439814815,0,0,0,,0,247,247,283,1,,
,,,,,,,,,,,,,,,,,,5f0be5b2bc55e434486fad66,2020-08-10_18h08.51.796,lexical_decision_task_MP,2020.1.3,Win32,60,,m,1,0.48275,,,,,,,,0.48275,1,,,,,,219,WORD,UN,50,voyage,BUCKET,m,,,,,,0.293518519,-0.439814815,0,0,0,,0,248,248,218,1,,
,,,,,,,,,,,,,,,,,,5f0be5b2bc55e434486fad66,2020-08-10_18h08.51.796,lexical_decision_task_MP,2020.1.3,Win32,60,,z,1,0.47221,,,,,,,,0.47221,1,,,,,,346,NW,"ID",50,saudic,SAUDIC,z,,,,,,0.293518519,-0.439814815,0,0,0,,0,249,249,345,1,,
,,,,,,,,,,,,,,,,,,5f0be5b2bc55e434486fad66,2020-08-10_18h08.51.796,lexical_decision_task_MP,2020.1.3,Win32,60,,z,1,0.59887,,,,,,,,0.59887,1,,,,,,246,NW,"ID",33,piaton,PIATON,z,,,,,,0.293518519,-0.439814815,0,0,0,,0,250,250,245,1,,
,,,,,,,,,,,,,,,,,,5f0be5b2bc55e434486fad66,2020-08-10_18h08.51.796,lexical_decision_task_MP,2020.1.3,Win32,60,,z,0,0.425235,,,,,,,,0.425235,0,,,,,,77,WORD,"ID",50,racket,RACKET,m,,,,,,0.293518519,-0.439814815,0,0,0,,0,251,251,76,1,,
,,,,,,,,,,,,,,,,,,5f0be5b2bc55e434486fad66,2020-08-10_18h08.51.796,lexical_decision_task_MP,2020.1.3,Win32,60,,m,1,0.632505,,,,,,,,0.632505,1,,,,,,181,WORD,UN,50,winter,GLANCE,m,,,,,,0.293518519,-0.439814815,0,0,0,,0,252,252,180,1,,
,,,,,,,,,,,,,,,,,,5f0be5b2bc55e434486fad66,2020-08-10_18h08.51.796,lexical_decision_task_MP,2020.1.3,Win32,60,,z,1,0.591105,,,,,,,,0.591105,1,,,,,,479,NW,UN,50,josted,LOBUSH,z,,,,,,0.293518519,-0.439814815,0,0,0,,0,253,253,478,1,,
,,,,,,,,,,,,,,,,,,5f0be5b2bc55e434486fad66,2020-08-10_18h08.51.796,lexical_decision_task_MP,2020.1.3,Win32,60,,z,1,0.56863,,,,,,,,0.56863,1,,,,,,243,NW,"ID",33,musied,MUSIED,z,,,,,,0.293518519,-0.439814815,0,0,0,,0,254,254,242,1,,
,,,,,,,,,,,,,,,,,,5f0be5b2bc55e434486fad66,2020-08-10_18h08.51.796,lexical_decision_task_MP,2020.1.3,Win32,60,,m,1,0.58602,,,,,,,,0.58602,1,,,,,,121,WORD,UN,33,linger,THRIVE,m,,,,,,0.293518519,-0.439814815,0,0,0,,0,255,255,120,1,,
,,,,,,,,,,,,,,,,,,5f0be5b2bc55e434486fad66,2020-08-10_18h08.51.796,lexical_decision_task_MP,2020.1.3,Win32,60,,z,1,0.600375,,,,,,,,0.600375,1,,,,,,341,NW,"ID",50,myrtie,MYRTIE,z,,,,,,0.293518519,-0.439814815,0,0,0,,0,256,256,340,1,,
,,,,,,,,,,,,,,,,,,5f0be5b2bc55e434486fad66,2020-08-10_18h08.51.796,lexical_decision_task_MP,2020.1.3,Win32,60,,m,1,0.85753,,,,,,,,0.85753,1,,,,,,13,WORD,"ID",33,strive,STRIVE,m,,,,,,0.293518519,-0.439814815,0,0,0,,0,257,257,12,1,,
,,,,,,,,,,,,,,,,,,5f0be5b2bc55e434486fad66,2020-08-10_18h08.51.796,lexical_decision_task_MP,2020.1.3,Win32,60,,z,1,0.538795,,,,,,,,0.538795,1,,,,,,390,NW,UN,33,theldy,HATRUS,z,,,,,,0.293518519,-0.439814815,0,0,0,,0,258,258,389,1,,
,,,,,,,,,,,,,,,,,,5f0be5b2bc55e434486fad66,2020-08-10_18h08.51.796,lexical_decision_task_MP,2020.1.3,Win32,60,,m,1,0.568465,,,,,,,,0.568465,1,,,,,,110,WORD,"ID",50,polite,POLITE,m,,,,,,0.293518519,-0.439814815,0,0,0,,0,259,259,109,1,,
,,,,,,,,,,,,,,,,,,5f0be5b2bc55e434486fad66,2020-08-10_18h08.51.796,lexical_decision_task_MP,2020.1.3,Win32,60,,m,1,0.57471,,,,,,,,0.57471,1,,,,,,96,WORD,"ID",50,ignore,IGNORE,m,,,,,,0.293518519,-0.439814815,0,0,0,,0,260,260,95,1,,
,,,,,,,,,,,,,,,,,,5f0be5b2bc55e434486fad66,2020-08-10_18h08.51.796,lexical_decision_task_MP,2020.1.3,Win32,60,,m,1,0.553155,,,,,,,,0.553155,1,,,,,,139,WORD,UN,33,prince,DEBRIS,m,,,,,,0.293518519,-0.439814815,0,0,0,,0,261,261,138,1,,
,,,,,,,,,,,,,,,,,,5f0be5b2bc55e434486fad66,2020-08-10_18h08.51.796,lexical_decision_task_MP,2020.1.3,Win32,60,,z,1,0.660105,,,,,,,,0.660105,1,,,,,,426,NW,UN,50,frudge,URIVEL,z,,,,,,0.293518519,-0.439814815,0,0,0,,0,262,262,425,1,,
,,,,,,,,,,,,,,,,,,5f0be5b2bc55e434486fad66,2020-08-10_18h08.51.796,lexical_decision_task_MP,2020.1.3,Win32,60,,z,1,0.5935,,,,,,,,0.5935,1,,,,,,395,NW,UN,33,flengy,COLURY,z,,,,,,0.293518519,-0.439814815,0,0,0,,0,263,263,394,1,,
,,,,,,,,,,,,,,,,,,5f0be5b2bc55e434486fad66,2020-08-10_18h08.51.796,lexical_decision_task_MP,2020.1.3,Win32,60,,z,1,0.486,,,,,,,,0.486,1,,,,,,349,NW,"ID",50,asylen,ASYLEN,z,,,,,,0.293518519,-0.439814815,0,0,0,,0,264,264,348,1,,
,,,,,,,,,,,,,,,,,,5f0be5b2bc55e434486fad66,2020-08-10_18h08.51.796,lexical_decision_task_MP,2020.1.3,Win32,60,,m,1,0.5291,,,,,,,,0.5291,1,,,,,,231,WORD,UN,50,mother,EXPORT,m,,,,,,0.293518519,-0.439814815,0,0,0,,0,265,265,230,1,,
,,,,,,,,,,,,,,,,,,5f0be5b2bc55e434486fad66,2020-08-10_18h08.51.796,lexical_decision_task_MP,2020.1.3,Win32,60,,z,1,0.53206,,,,,,,,0.53206,1,,,,,,361,NW,UN,33,tireau,PAUCHE,z,,,,,,0.293518519,-0.439814815,0,0,0,,0,266,266,360,1,,
,,,,,,,,,,,,,,,,,,5f0be5b2bc55e434486fad66,2020-08-10_18h08.51.796,lexical_decision_task_MP,2020.1.3,Win32,60,,z,1,0.4832,,,,,,,,0.4832,1,,,,,,443,NW,UN,50,jaunce,DORSEX,z,,,,,,0.293518519,-0.439814815,0,0,0,,0,267,267,442,1,,
,,,,,,,,,,,,,,,,,,5f0be5b2bc55e434486fad66,2020-08-10_18h08.51.796,lexical_decision_task_MP,2020.1.3,Win32,60,,z,1,0.456365,,,,,,,,0.456365,1,,,,,,431,NW,UN,50,lunker,CHRUMS,z,,,,,,0.293518519,-0.439814815,0,0,0,,0,268,268,430,1,,
,,,,,,,,,,,,,,,,,,5f0be5b2bc55e434486fad66,2020-08-10_18h08.51.796,lexical_decision_task_MP,2020.1.3,Win32,60,,m,1,0.60225,,,,,,,,0.60225,1,,,,,,54,WORD,"ID",33,ramble,RAMBLE,m,,,,,,0.293518519,-0.439814815,0,0,0,,0,269,269,53,1,,
,,,,,,,,,,,,,,,,,,5f0be5b2bc55e434486fad66,2020-08-10_18h08.51.796,lexical_decision_task_MP,2020.1.3,Win32,60,,m,1,0.49236,,,,,,,,0.49236,1,,,,,,98,WORD,"ID",50,belong,BELONG,m,,,,,,0.293518519,-0.439814815,0,0,0,,0,270,270,97,1,,
,,,,,,,,,,,,,,,,,,5f0be5b2bc55e434486fad66,2020-08-10_18h08.51.796,lexical_decision_task_MP,2020.1.3,Win32,60,,z,1,0.486075,,,,,,,,0.486075,1,,,,,,412,NW,UN,33,equats,JILUER,z,,,,,,0.293518519,-0.439814815,0,0,0,,0,271,271,411,1,,
,,,,,,,,,,,,,,,,,,5f0be5b2bc55e434486fad66,2020-08-10_18h08.51.796,lexical_decision_task_MP,2020.1.3,Win32,60,,z,1,0.54403,,,,,,,,0.54403,1,,,,,,373,NW,UN,33,injore,BIGENT,z,,,,,,0.293518519,-0.439814815,0,0,0,,0,272,272,372,1,,
,,,,,,,,,,,,,,,,,,5f0be5b2bc55e434486fad66,2020-08-10_18h08.51.796,lexical_decision_task_MP,2020.1.3,Win32,60,,m,1,0.51852,,,,,,,,0.51852,1,,,,,,65,WORD,"ID",50,symbol,SYMBOL,m,,,,,,0.293518519,-0.439814815,0,0,0,,0,273,273,64,1,,
,,,,,,,,,,,,,,,,,,5f0be5b2bc55e434486fad66,2020-08-10_18h08.51.796,lexical_decision_task_MP,2020.1.3,Win32,60,,z,1,0.568695,,,,,,,,0.568695,1,,,,,,391,NW,UN,33,rouncy,THELDY,z,,,,,,0.293518519,-0.439814815,0,0,0,,0,274,274,390,1,,
,,,,,,,,,,,,,,,,,,5f0be5b2bc55e434486fad66,2020-08-10_18h08.51.796,lexical_decision_task_MP,2020.1.3,Win32,60,,z,1,0.477935,,,,,,,,0.477935,1,,,,,,339,NW,"ID",50,fachow,FACHOW,z,,,,,,0.293518519,-0.439814815,0,0,0,,0,275,275,338,1,,
,,,,,,,,,,,,,,,,,,5f0be5b2bc55e434486fad66,2020-08-10_18h08.51.796,lexical_decision_task_MP,2020.1.3,Win32,60,,z,1,0.52064,,,,,,,,0.52064,1,,,,,,376,NW,UN,33,sliant,IGUARE,z,,,,,,0.293518519,-0.439814815,0,0,0,,0,276,276,375,1,,
,,,,,,,,,,,,,,,,,,5f0be5b2bc55e434486fad66,2020-08-10_18h08.51.796,lexical_decision_task_MP,2020.1.3,Win32,60,,z,1,0.45391,,,,,,,,0.45391,1,,,,,,323,NW,"ID",50,rosail,ROSAIL,z,,,,,,0.293518519,-0.439814815,0,0,0,,0,277,277,322,1,,
,,,,,,,,,,,,,,,,,,5f0be5b2bc55e434486fad66,2020-08-10_18h08.51.796,lexical_decision_task_MP,2020.1.3,Win32,60,,z,0,0.404705,,,,,,,,0.404705,0,,,,,,182,WORD,UN,50,basket,WINTER,m,,,,,,0.293518519,-0.439814815,0,0,0,,0,278,278,181,1,,
,,,,,,,,,,,,,,,,,,5f0be5b2bc55e434486fad66,2020-08-10_18h08.51.796,lexical_decision_task_MP,2020.1.3,Win32,60,,z,1,0.693015,,,,,,,,0.693015,1,,,,,,453,NW,UN,50,scouge,BOLVIS,z,,,,,,0.293518519,-0.439814815,0,0,0,,0,279,279,452,1,,
,,,,,,,,,,,,,,,,,,5f0be5b2bc55e434486fad66,2020-08-10_18h08.51.796,lexical_decision_task_MP,2020.1.3,Win32,60,,z,1,0.5554,,,,,,,,0.5554,1,,,,,,432,NW,UN,50,drance,LUNKER,z,,,,,,0.293518519,-0.439814815,0,0,0,,0,280,280,431,1,,
,,,,,,,,,,,,,,,,,,5f0be5b2bc55e434486fad66,2020-08-10_18h08.51.796,lexical_decision_task_MP,2020.1.3,Win32,60,,z,1,0.488525,,,,,,,,0.488525,1,,,,,,411,NW,UN,33,jiluer,ORCHIN,z,,,,,,0.293518519,-0.439814815,0,0,0,,0,281,281,410,1,,
,,,,,,,,,,,,,,,,,,5f0be5b2bc55e434486fad66,2020-08-10_18h08.51.796,lexical_decision_task_MP,2020.1.3,Win32,60,,z,1,0.49216,,,,,,,,0.49216,1,,,,,,261,NW,"ID",33,stunch,STUNCH,z,,,,,,0.293518519,-0.439814815,0,0,0,,0,282,282,260,1,,
,,,,,,,,,,,,,,,,,,5f0be5b2bc55e434486fad66,2020-08-10_18h08.51.796,lexical_decision_task_MP,2020.1.3,Win32,60,,m,1,0.57397,,,,,,,,0.57397,1,,,,,,124,WORD,UN,33,nickel,BLOUSE,m,,,,,,0.293518519,-0.439814815,0,0,0,,0,283,283,123,1,,
,,,,,,,,,,,,,,,,,,5f0be5b2bc55e434486fad66,2020-08-10_18h08.51.796,lexical_decision_task_MP,2020.1.3,Win32,60,,z,1,0.526465,,,,,,,,0.526465,1,,,,,,334,NW,"ID",50,watmeg,WATMEG,z,,,,,,0.293518519,-0.439814815,0,0,0,,0,284,284,333,1,,
,,,,,,,,,,,,,,,,,,5f0be5b2bc55e434486fad66,2020-08-10_18h08.51.796,lexical_decision_task_MP,2020.1.3,Win32,60,,m,1,0.64958,,,,,,,,0.64958,1,,,,,,122,WORD,UN,33,strike,LINGER,m,,,,,,0.293518519,-0.439814815,0,0,0,,0,285,285,121,1,,
,,,,,,,,,,,,,,,,,,5f0be5b2bc55e434486fad66,2020-08-10_18h08.51.796,lexical_decision_task_MP,2020.1.3,Win32,60,,m,1,0.58209,,,,,,,,0.58209,1,,,,,,239,WORD,UN,50,forest,LUMBER,m,,,,,,0.293518519,-0.439814815,0,0,0,,0,286,286,238,1,,
,,,,,,,,,,,,,,,,,,5f0be5b2bc55e434486fad66,2020-08-10_18h08.51.796,lexical_decision_task_MP,2020.1.3,Win32,60,,m,1,0.494495,,,,,,,,0.494495,1,,,,,,76,WORD,"ID",50,exotic,EXOTIC,m,,,,,,0.293518519,-0.439814815,0,0,0,,0,287,287,75,1,,
,,,,,,,,,,,,,,,,,,5f0be5b2bc55e434486fad66,2020-08-10_18h08.51.796,lexical_decision_task_MP,2020.1.3,Win32,60,,z,1,0.694325,,,,,,,,0.694325,1,,,,,,255,NW,"ID",33,apight,APIGHT,z,,,,,,0.293518519,-0.439814815,0,0,0,,0,288,288,254,1,,
,,,,,,,,,,,,,,,,,,5f0be5b2bc55e434486fad66,2020-08-10_18h08.51.796,lexical_decision_task_MP,2020.1.3,Win32,60,,m,1,0.613655,,,,,,,,0.613655,1,,,,,,211,WORD,UN,50,verify,INFECT,m,,,,,,0.293518519,-0.439814815,0,0,0,,0,289,289,210,1,,
,,,,,,,,,,,,,,,,,,5f0be5b2bc55e434486fad66,2020-08-10_18h08.51.796,lexical_decision_task_MP,2020.1.3,Win32,60,,z,1,0.87462,,,,,,,,0.87462,1,,,,,,281,NW,"ID",33,melaty,MELATY,z,,,,,,0.293518519,-0.439814815,0,0,0,,0,290,290,280,1,,
,,,,,,,,,,,,,,,,,,5f0be5b2bc55e434486fad66,2020-08-10_18h08.51.796,lexical_decision_task_MP,2020.1.3,Win32,60,,z,1,0.585015,,,,,,,,0.585015,1,,,,,,396,NW,UN,33,camble,FLENGY,z,,,,,,0.293518519,-0.439814815,0,0,0,,0,291,291,395,1,,
,,,,,,,,,,,,,,,,,,5f0be5b2bc55e434486fad66,2020-08-10_18h08.51.796,lexical_decision_task_MP,2020.1.3,Win32,60,,m,1,0.48439,,,,,,,,0.48439,1,,,,,,2,WORD,"ID",33,bridge,BRIDGE,m,,,,,,0.293518519,-0.439814815,0,0,0,,0,292,292,1,1,,
,,,,,,,,,,,,,,,,,,5f0be5b2bc55e434486fad66,2020-08-10_18h08.51.796,lexical_decision_task_MP,2020.1.3,Win32,60,,z,1,0.58989,,,,,,,,0.58989,1,,,,,,344,NW,"ID",50,scrily,SCRILY,z,,,,,,0.293518519,-0.439814815,0,0,0,,0,293,293,343,1,,
,,,,,,,,,,,,,,,,,,5f0be5b2bc55e434486fad66,2020-08-10_18h08.51.796,lexical_decision_task_MP,2020.1.3,Win32,60,,z,1,0.54294,,,,,,,,0.54294,1,,,,,,311,NW,"ID",50,sproly,SPROLY,z,,,,,,0.293518519,-0.439814815,0,0,0,,0,294,294,310,1,,
,,,,,,,,,,,,,,,,,,5f0be5b2bc55e434486fad66,2020-08-10_18h08.51.796,lexical_decision_task_MP,2020.1.3,Win32,60,,z,1,0.50628,,,,,,,,0.50628,1,,,,,,413,NW,UN,33,serbol,EQUATS,z,,,,,,0.293518519,-0.439814815,0,0,0,,0,295,295,412,1,,
,,,,,,,,,,,,,,,,,,5f0be5b2bc55e434486fad66,2020-08-10_18h08.51.796,lexical_decision_task_MP,2020.1.3,Win32,60,,z,1,0.549765,,,,,,,,0.549765,1,,,,,,371,NW,UN,33,ramily,GEILOY,z,,,,,,0.293518519,-0.439814815,0,0,0,,0,296,296,370,1,,
,,,,,,,,,,,,,,,,,,5f0be5b2bc55e434486fad66,2020-08-10_18h08.51.796,lexical_decision_task_MP,2020.1.3,Win32,60,,m,1,0.65409,,,,,,,,0.65409,1,,,,,,114,WORD,"ID",50,placid,PLACID,m,,,,,,0.293518519,-0.439814815,0,0,0,,0,297,297,113,1,,
,,,,,,,,,,,,,,,,,,5f0be5b2bc55e434486fad66,2020-08-10_18h08.51.796,lexical_decision_task_MP,2020.1.3,Win32,60,,z,1,0.65094,,,,,,,,0.65094,1,,,,,,450,NW,UN,50,rastoe,PHRECT,z,,,,,,0.293518519,-0.439814815,0,0,0,,0,298,298,449,1,,
,,,,,,,,,,,,,,,,,,5f0be5b2bc55e434486fad66,2020-08-10_18h08.51.796,lexical_decision_task_MP,2020.1.3,Win32,60,,m,1,0.5206,,,,,,,,0.5206,1,,,,,,67,WORD,"ID",50,policy,POLICY,m,,,,,,0.293518519,-0.439814815,0,0,0,,0,299,299,66,1,,
,,,,,,,,,,,,,,,,,,5f0be5b2bc55e434486fad66,2020-08-10_18h08.51.796,lexical_decision_task_MP,2020.1.3,Win32,60,,m,1,0.67182,,,,,,,,0.67182,1,,,,,,90,WORD,"ID",50,relish,RELISH,m,,,,,,0.293518519,-0.439814815,0,0,0,,0,300,300,89,1,,
,,,,,,,,,,,,,,,,,,5f0be5b2bc55e434486fad66,2020-08-10_18h08.51.796,lexical_decision_task_MP,2020.1.3,Win32,60,,m,1,0.45159,,,,,,,,0.45159,1,,,,,,115,WORD,"ID",50,guitar,GUITAR,m,,,,,,0.293518519,-0.439814815,0,0,0,,0,301,301,114,1,,
,,,,,,,,,,,,,,,,,,5f0be5b2bc55e434486fad66,2020-08-10_18h08.51.796,lexical_decision_task_MP,2020.1.3,Win32,60,,m,1,0.56126,,,,,,,,0.56126,1,,,,,,7,WORD,"ID",33,anchor,ANCHOR,m,,,,,,0.293518519,-0.439814815,0,0,0,,0,302,302,6,1,,
,,,,,,,,,,,,,,,,,,5f0be5b2bc55e434486fad66,2020-08-10_18h08.51.796,lexical_decision_task_MP,2020.1.3,Win32,60,,z,1,0.77641,,,,,,,,0.77641,1,,,,,,314,NW,"ID",50,sprine,SPRINE,z,,,,,,0.293518519,-0.439814815,0,0,0,,0,303,303,313,1,,
,,,,,,,,,,,,,,,,,,5f0be5b2bc55e434486fad66,2020-08-10_18h08.51.796,lexical_decision_task_MP,2020.1.3,Win32,60,,z,0,0.75447,,,,,,,,0.75447,0,,,,,,201,WORD,UN,50,factor,ADMIRE,m,,,,,,0.293518519,-0.439814815,0,0,0,,0,304,304,200,1,,
,,,,,,,,,,,,,,,,,,5f0be5b2bc55e434486fad66,2020-08-10_18h08.51.796,lexical_decision_task_MP,2020.1.3,Win32,60,,z,1,0.604,,,,,,,,0.604,1,,,,,,352,NW,"ID",50,tringe,TRINGE,z,,,,,,0.293518519,-0.439814815,0,0,0,,0,305,305,351,1,,
,,,,,,,,,,,,,,,,,,5f0be5b2bc55e434486fad66,2020-08-10_18h08.51.796,lexical_decision_task_MP,2020.1.3,Win32,60,,z,1,0.54696,,,,,,,,0.54696,1,,,,,,387,NW,UN,33,cragin,GRONCE,z,,,,,,0.293518519,-0.439814815,0,0,0,,0,306,306,386,1,,
,,,,,,,,,,,,,,,,,,5f0be5b2bc55e434486fad66,2020-08-10_18h08.51.796,lexical_decision_task_MP,2020.1.3,Win32,60,,z,1,0.50917,,,,,,,,0.50917,1,,,,,,461,NW,UN,50,absult,JUSTRE,z,,,,,,0.293518519,-0.439814815,0,0,0,,0,307,307,460,1,,
,,,,,,,,,,,,,,,,,,5f0be5b2bc55e434486fad66,2020-08-10_18h08.51.796,lexical_decision_task_MP,2020.1.3,Win32,60,,m,1,0.559585,,,,,,,,0.559585,1,,,,,,200,WORD,UN,50,admire,BEACON,m,,,,,,0.293518519,-0.439814815,0,0,0,,0,308,308,199,1,,
,,,,,,,,,,,,,,,,,,5f0be5b2bc55e434486fad66,2020-08-10_18h08.51.796,lexical_decision_task_MP,2020.1.3,Win32,60,,m,1,0.617545,,,,,,,,0.617545,1,,,,,,23,WORD,"ID",33,wealth,WEALTH,m,,,,,,0.293518519,-0.439814815,0,0,0,,0,309,309,22,1,,
,,,,,,,,,,,,,,,,,,5f0be5b2bc55e434486fad66,2020-08-10_18h08.51.796,lexical_decision_task_MP,2020.1.3,Win32,60,,z,1,0.60875,,,,,,,,0.60875,1,,,,,,333,NW,"ID",50,catrie,CATRIE,z,,,,,,0.293518519,-0.439814815,0,0,0,,0,310,310,332,1,,
,,,,,,,,,,,,,,,,,,5f0be5b2bc55e434486fad66,2020-08-10_18h08.51.796,lexical_decision_task_MP,2020.1.3,Win32,60,,m,1,0.65833,,,,,,,,0.65833,1,,,,,,144,WORD,UN,33,parish,SPONGE,m,,,,,,0.293518519,-0.439814815,0,0,0,,0,311,311,143,1,,
,,,,,,,,,,,,,,,,,,5f0be5b2bc55e434486fad66,2020-08-10_18h08.51.796,lexical_decision_task_MP,2020.1.3,Win32,60,,m,1,0.64182,,,,,,,,0.64182,1,,,,,,37,WORD,"ID",33,insult,INSULT,m,,,,,,0.293518519,-0.439814815,0,0,0,,0,312,312,36,1,,
,,,,,,,,,,,,,,,,,,5f0be5b2bc55e434486fad66,2020-08-10_18h08.51.796,lexical_decision_task_MP,2020.1.3,Win32,60,,m,1,0.613495,,,,,,,,0.613495,1,,,,,,237,WORD,UN,50,seldom,POSTER,m,,,,,,0.293518519,-0.439814815,0,0,0,,0,313,313,236,1,,
,,,,,,,,,,,,,,,,,,5f0be5b2bc55e434486fad66,2020-08-10_18h08.51.796,lexical_decision_task_MP,2020.1.3,Win32,60,,m,1,0.554445,,,,,,,,0.554445,1,,,,,,172,WORD,UN,33,shower,PATROL,m,,,,,,0.293518519,-0.439814815,0,0,0,,0,314,314,171,1,,
,,,,,,,,,,,,,,,,,,5f0be5b2bc55e434486fad66,2020-08-10_18h08.51.796,lexical_decision_task_MP,2020.1.3,Win32,60,,m,1,0.506515,,,,,,,,0.506515,1,,,,,,94,WORD,"ID",50,travel,TRAVEL,m,,,,,,0.293518519,-0.439814815,0,0,0,,0,315,315,93,1,,
,,,,,,,,,,,,,,,,,,5f0be5b2bc55e434486fad66,2020-08-10_18h08.51.796,lexical_decision_task_MP,2020.1.3,Win32,60,,m,1,0.518795,,,,,,,,0.518795,1,,,,,,152,WORD,UN,33,behold,ROCKET,m,,,,,,0.293518519,-0.439814815,0,0,0,,0,316,316,151,1,,
,,,,,,,,,,,,,,,,,,5f0be5b2bc55e434486fad66,2020-08-10_18h08.51.796,lexical_decision_task_MP,2020.1.3,Win32,60,,z,1,0.63982,,,,,,,,0.63982,1,,,,,,456,NW,UN,50,wanigh,BROGET,z,,,,,,0.293518519,-0.439814815,0,0,0,,0,317,317,455,1,,
,,,,,,,,,,,,,,,,,,5f0be5b2bc55e434486fad66,2020-08-10_18h08.51.796,lexical_decision_task_MP,2020.1.3,Win32,60,,m,1,0.56587,,,,,,,,0.56587,1,,,,,,218,WORD,UN,50,bucket,SHRINK,m,,,,,,0.293518519,-0.439814815,0,0,0,,0,318,318,217,1,,
,,,,,,,,,,,,,,,,,,5f0be5b2bc55e434486fad66,2020-08-10_18h08.51.796,lexical_decision_task_MP,2020.1.3,Win32,60,,m,1,0.49782,,,,,,,,0.49782,1,,,,,,226,WORD,UN,50,flower,CASINO,m,,,,,,0.293518519,-0.439814815,0,0,0,,0,319,319,225,1,,
,,,,,,,,,,,,,,,,,,5f0be5b2bc55e434486fad66,2020-08-10_18h08.51.796,lexical_decision_task_MP,2020.1.3,Win32,60,,z,1,0.710755,,,,,,,,0.710755,1,,,,,,260,NW,"ID",33,unject,UNJECT,z,,,,,,0.293518519,-0.439814815,0,0,0,,0,320,320,259,1,,
,,,,,,,,,,,,,,,,,,5f0be5b2bc55e434486fad66,2020-08-10_18h08.51.796,lexical_decision_task_MP,2020.1.3,Win32,60,,z,1,0.55637,,,,,,,,0.55637,1,,,,,,458,NW,UN,50,chaite,BARCET,z,,,,,,0.293518519,-0.439814815,0,0,0,,0,321,321,457,1,,
,,,,,,,,,,,,,,,,,,5f0be5b2bc55e434486fad66,2020-08-10_18h08.51.796,lexical_decision_task_MP,2020.1.3,Win32,60,,z,1,0.71742,,,,,,,,0.71742,1,,,,,,297,NW,"ID",33,fertic,FERTIC,z,,,,,,0.293518519,-0.439814815,0,0,0,,0,322,322,296,1,,
,,,,,,,,,,,,,,,,,,5f0be5b2bc55e434486fad66,2020-08-10_18h08.51.796,lexical_decision_task_MP,2020.1.3,Win32,60,,m,1,0.560515,,,,,,,,0.560515,1,,,,,,224,WORD,UN,50,vulgar,PERIOD,m,,,,,,0.293518519,-0.439814815,0,0,0,,0,323,323,223,1,,
,,,,,,,,,,,,,,,,,,5f0be5b2bc55e434486fad66,2020-08-10_18h08.51.796,lexical_decision_task_MP,2020.1.3,Win32,60,,z,1,0.51237,,,,,,,,0.51237,1,,,,,,278,NW,"ID",33,unighs,UNIGHS,z,,,,,,0.293518519,-0.439814815,0,0,0,,0,324,324,277,1,,
,,,,,,,,,,,,,,,,,,5f0be5b2bc55e434486fad66,2020-08-10_18h08.51.796,lexical_decision_task_MP,2020.1.3,Win32,60,,z,1,0.593485,,,,,,,,0.593485,1,,,,,,442,NW,UN,50,dorsex,ABOUNE,z,,,,,,0.293518519,-0.439814815,0,0,0,,0,325,325,441,1,,
,,,,,,,,,,,,,,,,,,5f0be5b2bc55e434486fad66,2020-08-10_18h08.51.796,lexical_decision_task_MP,2020.1.3,Win32,60,,m,1,0.49835,,,,,,,,0.49835,1,,,,,,34,WORD,"ID",33,jungle,JUNGLE,m,,,,,,0.293518519,-0.439814815,0,0,0,,0,326,326,33,1,,
,,,,,,,,,,,,,,,,,,5f0be5b2bc55e434486fad66,2020-08-10_18h08.51.796,lexical_decision_task_MP,2020.1.3,Win32,60,,z,1,0.546585,,,,,,,,0.546585,1,,,,,,273,NW,"ID",33,sortel,SORTEL,z,,,,,,0.293518519,-0.439814815,0,0,0,,0,327,327,272,1,,
,,,,,,,,,,,,,,,,,,5f0be5b2bc55e434486fad66,2020-08-10_18h08.51.796,lexical_decision_task_MP,2020.1.3,Win32,60,,m,1,0.52721,,,,,,,,0.52721,1,,,,,,118,WORD,"ID",50,flight,FLIGHT,m,,,,,,0.293518519,-0.439814815,0,0,0,,0,328,328,117,1,,
,,,,,,,,,,,,,,,,,,5f0be5b2bc55e434486fad66,2020-08-10_18h08.51.796,lexical_decision_task_MP,2020.1.3,Win32,60,,z,1,0.651185,,,,,,,,0.651185,1,,,,,,420,NW,UN,33,pauche,GUSHOP,z,,,,,,0.293518519,-0.439814815,0,0,0,,0,329,329,419,1,,
,,,,,,,,,,,,,,,,,,5f0be5b2bc55e434486fad66,2020-08-10_18h08.51.796,lexical_decision_task_MP,2020.1.3,Win32,60,,z,1,0.576245,,,,,,,,0.576245,1,,,,,,269,NW,"ID",33,orchet,ORCHET,z,,,,,,0.293518519,-0.439814815,0,0,0,,0,330,330,268,1,,
,,,,,,,,,,,,,,,,,,5f0be5b2bc55e434486fad66,2020-08-10_18h08.51.796,lexical_decision_task_MP,2020.1.3,Win32,60,,z,1,0.51483,,,,,,,,0.51483,1,,,,,,472,NW,UN,50,crible,CIGNEY,z,,,,,,0.293518519,-0.439814815,0,0,0,,0,331,331,471,1,,
,,,,,,,,,,,,,,,,,,5f0be5b2bc55e434486fad66,2020-08-10_18h08.51.796,lexical_decision_task_MP,2020.1.3,Win32,60,,z,0,0.548525,,,,,,,,0.548525,0,,,,,,163,WORD,UN,33,market,STRING,m,,,,,,0.293518519,-0.439814815,0,0,0,,0,332,332,162,1,,
,,,,,,,,,,,,,,,,,,5f0be5b2bc55e434486fad66,2020-08-10_18h08.51.796,lexical_decision_task_MP,2020.1.3,Win32,60,,m,1,0.408645,,,,,,,,0.408645,1,,,,,,51,WORD,"ID",33,hungry,HUNGRY,m,,,,,,0.293518519,-0.439814815,0,0,0,,0,333,333,50,1,,
,,,,,,,,,,,,,,,,,,5f0be5b2bc55e434486fad66,2020-08-10_18h08.51.796,lexical_decision_task_MP,2020.1.3,Win32,60,,m,1,0.62228,,,,,,,,0.62228,1,,,,,,45,WORD,"ID",33,clergy,CLERGY,m,,,,,,0.293518519,-0.439814815,0,0,0,,0,334,334,44,1,,
,,,,,,,,,,,,,,,,,,5f0be5b2bc55e434486fad66,2020-08-10_18h08.51.796,lexical_decision_task_MP,2020.1.3,Win32,60,,m,1,0.771015,,,,,,,,0.771015,1,,,,,,176,WORD,UN,33,advent,STRIFE,m,,,,,,0.293518519,-0.439814815,0,0,0,,0,335,335,175,1,,
,,,,,,,,,,,,,,,,,,5f0be5b2bc55e434486fad66,2020-08-10_18h08.51.796,lexical_decision_task_MP,2020.1.3,Win32,60,,m,1,0.48164,,,,,,,,0.48164,1,,,,,,193,WORD,UN,50,plague,OBJECT,m,,,,,,0.293518519,-0.439814815,0,0,0,,0,336,336,192,1,,
,,,,,,,,,,,,,,,,,,5f0be5b2bc55e434486fad66,2020-08-10_18h08.51.796,lexical_decision_task_MP,2020.1.3,Win32,60,,m,1,0.54322,,,,,,,,0.54322,1,,,,,,205,WORD,UN,50,tailor,LOUNGE,m,,,,,,0.293518519,-0.439814815,0,0,0,,0,337,337,204,1,,
,,,,,,,,,,,,,,,,,,5f0be5b2bc55e434486fad66,2020-08-10_18h08.51.796,lexical_decision_task_MP,2020.1.3,Win32,60,,m,1,0.50227,,,,,,,,0.50227,1,,,,,,106,WORD,"ID",50,ransom,RANSOM,m,,,,,,0.293518519,-0.439814815,0,0,0,,0,338,338,105,1,,
,,,,,,,,,,,,,,,,,,5f0be5b2bc55e434486fad66,2020-08-10_18h08.51.796,lexical_decision_task_MP,2020.1.3,Win32,60,,z,1,0.588505,,,,,,,,0.588505,1,,,,,,279,NW,"ID",33,celond,CELOND,z,,,,,,0.293518519,-0.439814815,0,0,0,,0,339,339,278,1,,
,,,,,,,,,,,,,,,,,,5f0be5b2bc55e434486fad66,2020-08-10_18h08.51.796,lexical_decision_task_MP,2020.1.3,Win32,60,,z,0,0.51331,,,,,,,,0.51331,0,,,,,,204,WORD,UN,50,lounge,BURDEN,m,,,,,,0.293518519,-0.439814815,0,0,0,,0,340,340,203,1,,
,,,,,,,,,,,,,,,,,,5f0be5b2bc55e434486fad66,2020-08-10_18h08.51.796,lexical_decision_task_MP,2020.1.3,Win32,60,,z,1,0.61709,,,,,,,,0.61709,1,,,,,,336,NW,"ID",50,ghodus,GHODUS,z,,,,,,0.293518519,-0.439814815,0,0,0,,0,341,341,335,1,,
,,,,,,,,,,,,,,,,,,5f0be5b2bc55e434486fad66,2020-08-10_18h08.51.796,lexical_decision_task_MP,2020.1.3,Win32,60,,z,1,0.7144,,,,,,,,0.7144,1,,,,,,259,NW,"ID",33,soudal,SOUDAL,z,,,,,,0.293518519,-0.439814815,0,0,0,,0,342,342,258,1,,
,,,,,,,,,,,,,,,,,,5f0be5b2bc55e434486fad66,2020-08-10_18h08.51.796,lexical_decision_task_MP,2020.1.3,Win32,60,,m,1,0.54294,,,,,,,,0.54294,1,,,,,,240,WORD,UN,50,glance,FOREST,m,,,,,,0.293518519,-0.439814815,0,0,0,,0,343,343,239,1,,
,,,,,,,,,,,,,,,,,,5f0be5b2bc55e434486fad66,2020-08-10_18h08.51.796,lexical_decision_task_MP,2020.1.3,Win32,60,,m,1,0.719135,,,,,,,,0.719135,1,,,,,,19,WORD,"ID",33,patron,PATRON,m,,,,,,0.293518519,-0.439814815,0,0,0,,0,344,344,18,1,,
,,,,,,,,,,,,,,,,,,5f0be5b2bc55e434486fad66,2020-08-10_18h08.51.796,lexical_decision_task_MP,2020.1.3,Win32,60,,m,1,0.542585,,,,,,,,0.542585,1,,,,,,186,WORD,UN,50,course,PORTAL,m,,,,,,0.293518519,-0.439814815,0,0,0,,0,345,345,185,1,,
,,,,,,,,,,,,,,,,,,5f0be5b2bc55e434486fad66,2020-08-10_18h08.51.796,lexical_decision_task_MP,2020.1.3,Win32,60,,z,1,0.549685,,,,,,,,0.549685,1,,,,,,294,NW,"ID",33,inhort,INHORT,z,,,,,,0.293518519,-0.439814815,0,0,0,,0,346,346,293,1,,
,,,,,,,,,,,,,,,,,,5f0be5b2bc55e434486fad66,2020-08-10_18h08.51.796,lexical_decision_task_MP,2020.1.3,Win32,60,,m,1,0.48557,,,,,,,,0.48557,1,,,,,,123,WORD,UN,33,enough,STRIKE,m,,,,,,0.293518519,-0.439814815,0,0,0,,0,347,347,122,1,,
,,,,,,,,,,,,,,,,,,5f0be5b2bc55e434486fad66,2020-08-10_18h08.51.796,lexical_decision_task_MP,2020.1.3,Win32,60,,z,1,0.59761,,,,,,,,0.59761,1,,,,,,262,NW,"ID",33,quilew,QUILEW,z,,,,,,0.293518519,-0.439814815,0,0,0,,0,348,348,261,1,,
,,,,,,,,,,,,,,,,,,5f0be5b2bc55e434486fad66,2020-08-10_18h08.51.796,lexical_decision_task_MP,2020.1.3,Win32,60,,z,1,0.489345,,,,,,,,0.489345,1,,,,,,410,NW,UN,33,orchin,TUNORY,z,,,,,,0.293518519,-0.439814815,0,0,0,,0,349,349,409,1,,
,,,,,,,,,,,,,,,,,,5f0be5b2bc55e434486fad66,2020-08-10_18h08.51.796,lexical_decision_task_MP,2020.1.3,Win32,60,,m,1,0.59018,,,,,,,,0.59018,1,,,,,,130,WORD,UN,33,quench,STUPID,m,,,,,,0.293518519,-0.439814815,0,0,0,,0,350,350,129,1,,
,,,,,,,,,,,,,,,,,,5f0be5b2bc55e434486fad66,2020-08-10_18h08.51.796,lexical_decision_task_MP,2020.1.3,Win32,60,,z,1,0.80433,,,,,,,,0.80433,1,,,,,,452,NW,UN,50,bolvis,SURDEN,z,,,,,,0.293518519,-0.439814815,0,0,0,,0,351,351,451,1,,
,,,,,,,,,,,,,,,,,,5f0be5b2bc55e434486fad66,2020-08-10_18h08.51.796,lexical_decision_task_MP,2020.1.3,Win32,60,,z,1,0.52128,,,,,,,,0.52128,1,,,,,,421,NW,UN,50,alcoud,KNISMA,z,,,,,,0.293518519,-0.439814815,0,0,0,,0,352,352,420,1,,
,,,,,,,,,,,,,,,,,,5f0be5b2bc55e434486fad66,2020-08-10_18h08.51.796,lexical_decision_task_MP,2020.1.3,Win32,60,,m,1,0.602975,,,,,,,,0.602975,1,,,,,,149,WORD,UN,33,random,INVADE,m,,,,,,0.293518519,-0.439814815,0,0,0,,0,353,353,148,1,,
,,,,,,,,,,,,,,,,,,5f0be5b2bc55e434486fad66,2020-08-10_18h08.51.796,lexical_decision_task_MP,2020.1.3,Win32,60,,m,1,0.53909,,,,,,,,0.53909,1,,,,,,157,WORD,UN,33,island,DRAGON,m,,,,,,0.293518519,-0.439814815,0,0,0,,0,354,354,156,1,,
,,,,,,,,,,,,,,,,,,5f0be5b2bc55e434486fad66,2020-08-10_18h08.51.796,lexical_decision_task_MP,2020.1.3,Win32,60,,m,1,0.479045,,,,,,,,0.479045,1,,,,,,105,WORD,"ID",50,number,NUMBER,m,,,,,,0.293518519,-0.439814815,0,0,0,,0,355,355,104,1,,
,,,,,,,,,,,,,,,,,,5f0be5b2bc55e434486fad66,2020-08-10_18h08.51.796,lexical_decision_task_MP,2020.1.3,Win32,60,,m,1,0.69703,,,,,,,,0.69703,1,,,,,,30,WORD,"ID",33,orient,ORIENT,m,,,,,,0.293518519,-0.439814815,0,0,0,,0,356,356,29,1,,
,,,,,,,,,,,,,,,,,,5f0be5b2bc55e434486fad66,2020-08-10_18h08.51.796,lexical_decision_task_MP,2020.1.3,Win32,60,,z,1,0.50266,,,,,,,,0.50266,1,,,,,,471,NW,UN,50,cigney,NOBEST,z,,,,,,0.293518519,-0.439814815,0,0,0,,0,357,357,470,1,,
,,,,,,,,,,,,,,,,,,5f0be5b2bc55e434486fad66,2020-08-10_18h08.51.796,lexical_decision_task_MP,2020.1.3,Win32,60,,m,1,0.594755,,,,,,,,0.594755,1,,,,,,217,WORD,UN,50,shrink,LIQUOR,m,,,,,,0.293518519,-0.439814815,0,0,0,,0,358,358,216,1,,
,,,,,,,,,,,,,,,,,,5f0be5b2bc55e434486fad66,2020-08-10_18h08.51.796,lexical_decision_task_MP,2020.1.3,Win32,60,,m,1,0.724425,,,,,,,,0.724425,1,,,,,,206,WORD,UN,50,wreath,TAILOR,m,,,,,,0.293518519,-0.439814815,0,0,0,,0,359,359,205,1,,
,,,,,,,,,,,,,,,,,,5f0be5b2bc55e434486fad66,2020-08-10_18h08.51.796,lexical_decision_task_MP,2020.1.3,Win32,60,,m,1,0.436155,,,,,,,,0.436155,1,,,,,,81,WORD,"ID",50,friend,FRIEND,m,,,,,,0.293518519,-0.439814815,0,0,0,,0,360,360,80,1,,
,,,,,,,,,,,,,,,,,,5f0be5b2bc55e434486fad66,2020-08-10_18h08.51.796,lexical_decision_task_MP,2020.1.3,Win32,60,,z,1,0.5176,,,,,,,,0.5176,1,,,,,,478,NW,UN,50,lobush,ACRISE,z,,,,,,0.293518519,-0.439814815,0,0,0,,0,361,361,477,1,,
,,,,,,,,,,,,,,,,,,5f0be5b2bc55e434486fad66,2020-08-10_18h08.51.796,lexical_decision_task_MP,2020.1.3,Win32,60,,m,0,0.986395,,,,,,,,0.986395,0,,,,,,266,NW,"ID",33,varmit,VARMIT,z,,,,,,0.015740741,-0.403703704,1,0,0,,0,362,362,265,1,,break_done_button
,,,,,,,,,,,,,,,,,,5f0be5b2bc55e434486fad66,2020-08-10_18h08.51.796,lexical_decision_task_MP,2020.1.3,Win32,60,,z,1,0.9986,,,,,,,,0.9986,1,,,,,,310,NW,"ID",50,daniet,DANIET,z,,,,,,0.015740741,-0.403703704,0,0,0,,0,363,363,309,1,,
,,,,,,,,,,,,,,,,,,5f0be5b2bc55e434486fad66,2020-08-10_18h08.51.796,lexical_decision_task_MP,2020.1.3,Win32,60,,z,0,0.519345,,,,,,,,0.519345,0,,,,,,220,WORD,UN,50,mascot,VOYAGE,m,,,,,,0.015740741,-0.403703704,0,0,0,,0,364,364,219,1,,
,,,,,,,,,,,,,,,,,,5f0be5b2bc55e434486fad66,2020-08-10_18h08.51.796,lexical_decision_task_MP,2020.1.3,Win32,60,,m,1,0.61172,,,,,,,,0.61172,1,,,,,,32,WORD,"ID",33,buckle,BUCKLE,m,,,,,,0.015740741,-0.403703704,0,0,0,,0,365,365,31,1,,
,,,,,,,,,,,,,,,,,,5f0be5b2bc55e434486fad66,2020-08-10_18h08.51.796,lexical_decision_task_MP,2020.1.3,Win32,60,,z,1,0.520015,,,,,,,,0.520015,1,,,,,,293,NW,"ID",33,swance,SWANCE,z,,,,,,0.015740741,-0.403703704,0,0,0,,0,366,366,292,1,,
,,,,,,,,,,,,,,,,,,5f0be5b2bc55e434486fad66,2020-08-10_18h08.51.796,lexical_decision_task_MP,2020.1.3,Win32,60,,z,1,0.66363,,,,,,,,0.66363,1,,,,,,335,NW,"ID",50,desion,DESION,z,,,,,,0.015740741,-0.403703704,0,0,0,,0,367,367,334,1,,
,,,,,,,,,,,,,,,,,,5f0be5b2bc55e434486fad66,2020-08-10_18h08.51.796,lexical_decision_task_MP,2020.1.3,Win32,60,,z,1,0.423265,,,,,,,,0.423265,1,,,,,,465,NW,UN,50,hocite,WHIVEX,z,,,,,,0.015740741,-0.403703704,0,0,0,,0,368,368,464,1,,
,,,,,,,,,,,,,,,,,,5f0be5b2bc55e434486fad66,2020-08-10_18h08.51.796,lexical_decision_task_MP,2020.1.3,Win32,60,,z,1,0.45438,,,,,,,,0.45438,1,,,,,,316,NW,"ID",50,scregm,SCREGM,z,,,,,,0.015740741,-0.403703704,0,0,0,,0,369,369,315,1,,
,,,,,,,,,,,,,,,,,,5f0be5b2bc55e434486fad66,2020-08-10_18h08.51.796,lexical_decision_task_MP,2020.1.3,Win32,60,,m,1,0.612665,,,,,,,,0.612665,1,,,,,,1,WORD,"ID",33,fright,FRIGHT,m,,,,,,0.015740741,-0.403703704,0,0,0,,0,370,370,0,1,,
,,,,,,,,,,,,,,,,,,5f0be5b2bc55e434486fad66,2020-08-10_18h08.51.796,lexical_decision_task_MP,2020.1.3,Win32,60,,m,1,0.51902,,,,,,,,0.51902,1,,,,,,87,WORD,"ID",50,filter,FILTER,m,,,,,,0.015740741,-0.403703704,0,0,0,,0,371,371,86,1,,
,,,,,,,,,,,,,,,,,,5f0be5b2bc55e434486fad66,2020-08-10_18h08.51.796,lexical_decision_task_MP,2020.1.3,Win32,60,,m,1,0.40133,,,,,,,,0.40133,1,,,,,,80,WORD,"ID",50,family,FAMILY,m,,,,,,0.015740741,-0.403703704,0,0,0,,0,372,372,79,1,,
,,,,,,,,,,,,,,,,,,5f0be5b2bc55e434486fad66,2020-08-10_18h08.51.796,lexical_decision_task_MP,2020.1.3,Win32,60,,m,0,0.65243,,,,,,,,0.65243,0,,,,,,277,NW,"ID",33,petain,PETAIN,z,,,,,,0.015740741,-0.403703704,0,0,0,,0,373,373,276,1,,
,,,,,,,,,,,,,,,,,,5f0be5b2bc55e434486fad66,2020-08-10_18h08.51.796,lexical_decision_task_MP,2020.1.3,Win32,60,,z,1,0.6552,,,,,,,,0.6552,1,,,,,,393,NW,UN,33,spaqux,GANOUS,z,,,,,,0.015740741,-0.403703704,0,0,0,,0,374,374,392,1,,
,,,,,,,,,,,,,,,,,,5f0be5b2bc55e434486fad66,2020-08-10_18h08.51.796,lexical_decision_task_MP,2020.1.3,Win32,60,,z,1,0.77391,,,,,,,,0.77391,1,,,,,,408,NW,UN,33,flumni,HURNIA,z,,,,,,0.015740741,-0.403703704,0,0,0,,0,375,375,407,1,,
,,,,,,,,,,,,,,,,,,5f0be5b2bc55e434486fad66,2020-08-10_18h08.51.796,lexical_decision_task_MP,2020.1.3,Win32,60,,m,1,0.655225,,,,,,,,0.655225,1,,,,,,154,WORD,UN,33,lizard,AUTHOR,m,,,,,,0.015740741,-0.403703704,0,0,0,,0,376,376,153,1,,
,,,,,,,,,,,,,,,,,,5f0be5b2bc55e434486fad66,2020-08-10_18h08.51.796,lexical_decision_task_MP,2020.1.3,Win32,60,,z,1,0.710625,,,,,,,,0.710625,1,,,,,,286,NW,"ID",33,reldon,RELDON,z,,,,,,0.015740741,-0.403703704,0,0,0,,0,377,377,285,1,,
,,,,,,,,,,,,,,,,,,5f0be5b2bc55e434486fad66,2020-08-10_18h08.51.796,lexical_decision_task_MP,2020.1.3,Win32,60,,m,1,0.48828,,,,,,,,0.48828,1,,,,,,229,WORD,UN,50,fringe,MOTHER,m,,,,,,0.015740741,-0.403703704,0,0,0,,0,378,378,228,1,,
,,,,,,,,,,,,,,,,,,5f0be5b2bc55e434486fad66,2020-08-10_18h08.51.796,lexical_decision_task_MP,2020.1.3,Win32,60,,z,1,0.552825,,,,,,,,0.552825,1,,,,,,268,NW,"ID",33,packes,PACKES,z,,,,,,0.015740741,-0.403703704,0,0,0,,0,379,379,267,1,,
,,,,,,,,,,,,,,,,,,5f0be5b2bc55e434486fad66,2020-08-10_18h08.51.796,lexical_decision_task_MP,2020.1.3,Win32,60,,z,1,0.506255,,,,,,,,0.506255,1,,,,,,252,NW,"ID",33,stapod,STAPOD,z,,,,,,0.015740741,-0.403703704,0,0,0,,0,380,380,251,1,,
,,,,,,,,,,,,,,,,,,5f0be5b2bc55e434486fad66,2020-08-10_18h08.51.796,lexical_decision_task_MP,2020.1.3,Win32,60,,z,1,0.498315,,,,,,,,0.498315,1,,,,,,363,NW,UN,33,impote,BREALI,z,,,,,,0.015740741,-0.403703704,0,0,0,,0,381,381,362,1,,
,,,,,,,,,,,,,,,,,,5f0be5b2bc55e434486fad66,2020-08-10_18h08.51.796,lexical_decision_task_MP,2020.1.3,Win32,60,,z,1,0.648875,,,,,,,,0.648875,1,,,,,,402,NW,UN,33,bruats,SYNTIC,z,,,,,,0.015740741,-0.403703704,0,0,0,,0,382,382,401,1,,
,,,,,,,,,,,,,,,,,,5f0be5b2bc55e434486fad66,2020-08-10_18h08.51.796,lexical_decision_task_MP,2020.1.3,Win32,60,,z,1,0.64008,,,,,,,,0.64008,1,,,,,,342,NW,"ID",50,randow,RANDOW,z,,,,,,0.015740741,-0.403703704,0,0,0,,0,383,383,341,1,,
,,,,,,,,,,,,,,,,,,5f0be5b2bc55e434486fad66,2020-08-10_18h08.51.796,lexical_decision_task_MP,2020.1.3,Win32,60,,z,1,0.46266,,,,,,,,0.46266,1,,,,,,272,NW,"ID",33,damilt,DAMILT,z,,,,,,0.015740741,-0.403703704,0,0,0,,0,384,384,271,1,,
,,,,,,,,,,,,,,,,,,5f0be5b2bc55e434486fad66,2020-08-10_18h08.51.796,lexical_decision_task_MP,2020.1.3,Win32,60,,z,1,0.47135,,,,,,,,0.47135,1,,,,,,388,NW,UN,33,witmer,CRAGIN,z,,,,,,0.015740741,-0.403703704,0,0,0,,0,385,385,387,1,,
,,,,,,,,,,,,,,,,,,5f0be5b2bc55e434486fad66,2020-08-10_18h08.51.796,lexical_decision_task_MP,2020.1.3,Win32,60,,z,1,0.46619,,,,,,,,0.46619,1,,,,,,267,NW,"ID",33,pasink,PASINK,z,,,,,,0.015740741,-0.403703704,0,0,0,,0,386,386,266,1,,
,,,,,,,,,,,,,,,,,,5f0be5b2bc55e434486fad66,2020-08-10_18h08.51.796,lexical_decision_task_MP,2020.1.3,Win32,60,,z,1,0.51196,,,,,,,,0.51196,1,,,,,,401,NW,UN,33,elopia,MUSTIL,z,,,,,,0.015740741,-0.403703704,0,0,0,,0,387,387,400,1,,
,,,,,,,,,,,,,,,,,,5f0be5b2bc55e434486fad66,2020-08-10_18h08.51.796,lexical_decision_task_MP,2020.1.3,Win32,60,,z,0,0.431775,,,,,,,,0.431775,0,,,,,,215,WORD,UN,50,behalf,PHOBIA,m,,,,,,0.015740741,-0.403703704,0,0,0,,0,388,388,214,1,,
,,,,,,,,,,,,,,,,,,5f0be5b2bc55e434486fad66,2020-08-10_18h08.51.796,lexical_decision_task_MP,2020.1.3,Win32,60,,z,1,0.50047,,,,,,,,0.50047,1,,,,,,337,NW,"ID",50,rejols,REJOLS,z,,,,,,0.015740741,-0.403703704,0,0,0,,0,389,389,336,1,,
,,,,,,,,,,,,,,,,,,5f0be5b2bc55e434486fad66,2020-08-10_18h08.51.796,lexical_decision_task_MP,2020.1.3,Win32,60,,m,0,0.482215,,,,,,,,0.482215,0,,,,,,282,NW,"ID",33,porlex,PORLEX,z,,,,,,0.015740741,-0.403703704,0,0,0,,0,390,390,281,1,,
,,,,,,,,,,,,,,,,,,5f0be5b2bc55e434486fad66,2020-08-10_18h08.51.796,lexical_decision_task_MP,2020.1.3,Win32,60,,z,1,0.506935,,,,,,,,0.506935,1,,,,,,280,NW,"ID",33,curbol,CURBOL,z,,,,,,0.015740741,-0.403703704,0,0,0,,0,391,391,279,1,,
,,,,,,,,,,,,,,,,,,5f0be5b2bc55e434486fad66,2020-08-10_18h08.51.796,lexical_decision_task_MP,2020.1.3,Win32,60,,z,1,0.49731,,,,,,,,0.49731,1,,,,,,415,NW,UN,33,pathel,HIGSTA,z,,,,,,0.015740741,-0.403703704,0,0,0,,0,392,392,414,1,,
,,,,,,,,,,,,,,,,,,5f0be5b2bc55e434486fad66,2020-08-10_18h08.51.796,lexical_decision_task_MP,2020.1.3,Win32,60,,z,1,0.475055,,,,,,,,0.475055,1,,,,,,290,NW,"ID",33,splino,SPLINO,z,,,,,,0.015740741,-0.403703704,0,0,0,,0,393,393,289,1,,
,,,,,,,,,,,,,,,,,,5f0be5b2bc55e434486fad66,2020-08-10_18h08.51.796,lexical_decision_task_MP,2020.1.3,Win32,60,,m,1,0.51448,,,,,,,,0.51448,1,,,,,,15,WORD,"ID",33,amount,AMOUNT,m,,,,,,0.015740741,-0.403703704,0,0,0,,0,394,394,14,1,,
,,,,,,,,,,,,,,,,,,5f0be5b2bc55e434486fad66,2020-08-10_18h08.51.796,lexical_decision_task_MP,2020.1.3,Win32,60,,z,1,0.71151,,,,,,,,0.71151,1,,,,,,468,NW,UN,50,padifs,WICTOR,z,,,,,,0.015740741,-0.403703704,0,0,0,,0,395,395,467,1,,
,,,,,,,,,,,,,,,,,,5f0be5b2bc55e434486fad66,2020-08-10_18h08.51.796,lexical_decision_task_MP,2020.1.3,Win32,60,,z,1,0.52288,,,,,,,,0.52288,1,,,,,,329,NW,"ID",50,yarike,YARIKE,z,,,,,,0.015740741,-0.403703704,0,0,0,,0,396,396,328,1,,
,,,,,,,,,,,,,,,,,,5f0be5b2bc55e434486fad66,2020-08-10_18h08.51.796,lexical_decision_task_MP,2020.1.3,Win32,60,,z,0,0.53452,,,,,,,,0.53452,0,,,,,,84,WORD,"ID",50,mortal,MORTAL,m,,,,,,0.015740741,-0.403703704,0,0,0,,0,397,397,83,1,,
,,,,,,,,,,,,,,,,,,5f0be5b2bc55e434486fad66,2020-08-10_18h08.51.796,lexical_decision_task_MP,2020.1.3,Win32,60,,z,1,0.83836,,,,,,,,0.83836,1,,,,,,250,NW,"ID",33,milted,MILTED,z,,,,,,0.015740741,-0.403703704,0,0,0,,0,398,398,249,1,,
,,,,,,,,,,,,,,,,,,5f0be5b2bc55e434486fad66,2020-08-10_18h08.51.796,lexical_decision_task_MP,2020.1.3,Win32,60,,m,1,0.558475,,,,,,,,0.558475,1,,,,,,153,WORD,UN,33,author,BEHOLD,m,,,,,,0.015740741,-0.403703704,0,0,0,,0,399,399,152,1,,
,,,,,,,,,,,,,,,,,,5f0be5b2bc55e434486fad66,2020-08-10_18h08.51.796,lexical_decision_task_MP,2020.1.3,Win32,60,,m,1,0.537675,,,,,,,,0.537675,1,,,,,,143,WORD,UN,33,sponge,REASON,m,,,,,,0.015740741,-0.403703704,0,0,0,,0,400,400,142,1,,
