counterbalancing_condition,instr_done_keyboard.keys,instr_done_keyboard.rt,instr_done_touch.x,instr_done_touch.y,instr_done_touch.leftButton,instr_done_touch.midButton,instr_done_touch.rightButton,instruction_pages.thisRepN,instruction_pages.thisTrialN,instruction_pages.thisN,instruction_pages.thisIndex,instruction_pages.ran,pageN,phase,instruct_text,has_image,instruct_image,participant,date,expName,psychopyVersion,OS,frameRate,response.keys,response.corr,response.rt,touch_resp.x,touch_resp.y,touch_resp.leftButton,touch_resp.midButton,touch_resp.rightButton,touch_resp.time,touch_resp.clicked_name,rt,corr,practice_trials.thisRepN,practice_trials.thisTrialN,practice_trials.thisN,practice_trials.thisIndex,practice_trials.ran,TrialID,StimulusType,Condition,PrimeDuration,Prime,Target,corrAns,end_of_practice_trials_pages.thisRepN,end_of_practice_trials_pages.thisTrialN,end_of_practice_trials_pages.thisN,end_of_practice_trials_pages.thisIndex,end_of_practice_trials_pages.ran,break_done_touch.x,break_done_touch.y,break_done_touch.leftButton,break_done_touch.midButton,break_done_touch.rightButton,break_done_keyboard.keys,trials.thisRepN,trials.thisTrialN,trials.thisN,trials.thisIndex,trials.ran,break_done_keyboard.rt
1,space,8.04483,0.176851852,-0.153703704,0,0,0,0,0,0,0,1,1,instructions,"INSTRUCTIONS
At the start of each trial, look at the hash marks (######) in the center of the screen. After a moment, a string of letters will appear. Your task is to indicate if the letter string forms a word or not (i.e., if it is a nonword). For example, AUTHOR is a word while AUTHON is a nonword.

Press the space bar or touch the button below to continue.",0,,5f0f1c7ff1db6e0683cda086,2020-08-10_13h19.35.882,lexical_decision_task_MP,2020.1.3,Linux x86_64,60,,,,,,,,,,,,,,,,,,,,,,,,,,,,,,,,,,,,,,,,,
,space,11.650195,0.249074074,-0.131481481,0,0,0,0,1,1,1,1,2,instructions,"If your device has a keyboard, press the 'Z' key for nonwords and the 'M' key for words.





Press the space bar or touch the button below to continue.",1,keyboard-example.gif,5f0f1c7ff1db6e0683cda086,2020-08-10_13h19.35.882,lexical_decision_task_MP,2020.1.3,Linux x86_64,60,,,,,,,,,,,,,,,,,,,,,,,,,,,,,,,,,,,,,,,,,
,space,2.95284,0.249074074,-0.131481481,0,0,0,0,2,2,2,1,3,instructions,"If you are using a touchscreen only device, use the buttons on the screen. Do not use the mouse.





Press the space bar or touch the button below to continue.",1,touchscreen-example.gif,5f0f1c7ff1db6e0683cda086,2020-08-10_13h19.35.882,lexical_decision_task_MP,2020.1.3,Linux x86_64,60,,,,,,,,,,,,,,,,,,,,,,,,,,,,,,,,,,,,,,,,,
,space,4.55672,0.374074074,-0.07962963,0,0,0,0,3,3,3,1,4,instructions,"It is very important that you respond as quickly and accurately as possible, as each letter string will only be on the screen for two seconds. If you do not respond within this time, the message 'Too slow!' will be displayed and the experiment will progress to the next letter string. The first 20 trials will be practice trials and you will receive feedback on your answers. 

Press the space bar or touch the button below to start the practice trials.",0,,5f0f1c7ff1db6e0683cda086,2020-08-10_13h19.35.882,lexical_decision_task_MP,2020.1.3,Linux x86_64,60,,,,,,,,,,,,,,,,,,,,,,,,,,,,,,,,,,,,,,,,,
,,,,,,,,,,,,,,,,,,5f0f1c7ff1db6e0683cda086,2020-08-10_13h19.35.882,lexical_decision_task_MP,2020.1.3,Linux x86_64,60,z,1,1.377295,,,,,,,,1.377295,1,0,0,0,15,1,1016,NW,UN,50,mushed,WHAISE,z,,,,,,,,,,,,,,,,,
,,,,,,,,,,,,,,,,,,5f0f1c7ff1db6e0683cda086,2020-08-10_13h19.35.882,lexical_decision_task_MP,2020.1.3,Linux x86_64,60,m,1,0.6434,,,,,,,,0.6434,1,0,1,1,7,1,1008,WORD,UN,50,hurdle,VOLUME,m,,,,,,,,,,,,,,,,,
,,,,,,,,,,,,,,,,,,5f0f1c7ff1db6e0683cda086,2020-08-10_13h19.35.882,lexical_decision_task_MP,2020.1.3,Linux x86_64,60,m,1,0.642875,,,,,,,,0.642875,1,0,2,2,3,1,1004,WORD,"ID",50,matrix,MATRIX,m,,,,,,,,,,,,,,,,,
,,,,,,,,,,,,,,,,,,5f0f1c7ff1db6e0683cda086,2020-08-10_13h19.35.882,lexical_decision_task_MP,2020.1.3,Linux x86_64,60,z,1,0.536435,,,,,,,,0.536435,1,0,3,3,10,1,1011,NW,"ID",50,inlade,INLADE,z,,,,,,,,,,,,,,,,,
,,,,,,,,,,,,,,,,,,5f0f1c7ff1db6e0683cda086,2020-08-10_13h19.35.882,lexical_decision_task_MP,2020.1.3,Linux x86_64,60,m,0,0.564475,,,,,,,,0.564475,0,0,4,4,12,1,1013,NW,UN,33,adveil,SPRINY,z,,,,,,,,,,,,,,,,,
,,,,,,,,,,,,,,,,,,5f0f1c7ff1db6e0683cda086,2020-08-10_13h19.35.882,lexical_decision_task_MP,2020.1.3,Linux x86_64,60,z,0,0.59251,,,,,,,,0.59251,0,0,5,5,5,1,1006,WORD,UN,33,frenzy,OBTAIN,m,,,,,,,,,,,,,,,,,
,,,,,,,,,,,,,,,,,,5f0f1c7ff1db6e0683cda086,2020-08-10_13h19.35.882,lexical_decision_task_MP,2020.1.3,Linux x86_64,60,m,1,0.535625,,,,,,,,0.535625,1,0,6,6,6,1,1007,WORD,UN,50,tropic,ZOMBIE,m,,,,,,,,,,,,,,,,,
,,,,,,,,,,,,,,,,,,5f0f1c7ff1db6e0683cda086,2020-08-10_13h19.35.882,lexical_decision_task_MP,2020.1.3,Linux x86_64,60,z,1,0.8565,,,,,,,,0.8565,1,0,7,7,13,1,1014,NW,UN,33,winfer,ROUPET,z,,,,,,,,,,,,,,,,,
,,,,,,,,,,,,,,,,,,5f0f1c7ff1db6e0683cda086,2020-08-10_13h19.35.882,lexical_decision_task_MP,2020.1.3,Linux x86_64,60,m,0,0.47264,,,,,,,,0.47264,0,0,8,8,9,1,1010,NW,"ID",33,fariny,FARINY,z,,,,,,,,,,,,,,,,,
,,,,,,,,,,,,,,,,,,5f0f1c7ff1db6e0683cda086,2020-08-10_13h19.35.882,lexical_decision_task_MP,2020.1.3,Linux x86_64,60,m,0,0.59855,,,,,,,,0.59855,0,0,9,9,14,1,1015,NW,UN,50,miaber,THRALE,z,,,,,,,,,,,,,,,,,
,,,,,,,,,,,,,,,,,,5f0f1c7ff1db6e0683cda086,2020-08-10_13h19.35.882,lexical_decision_task_MP,2020.1.3,Linux x86_64,60,m,1,0.697565,,,,,,,,0.697565,1,0,10,10,2,1,1003,WORD,"ID",50,almond,ALMOND,m,,,,,,,,,,,,,,,,,
,,,,,,,,,,,,,,,,,,5f0f1c7ff1db6e0683cda086,2020-08-10_13h19.35.882,lexical_decision_task_MP,2020.1.3,Linux x86_64,60,z,1,0.82609,,,,,,,,0.82609,1,0,11,11,11,1,1012,NW,"ID",50,rashet,RASHET,z,,,,,,,,,,,,,,,,,
,,,,,,,,,,,,,,,,,,5f0f1c7ff1db6e0683cda086,2020-08-10_13h19.35.882,lexical_decision_task_MP,2020.1.3,Linux x86_64,60,m,0,0.632995,,,,,,,,0.632995,0,0,12,12,8,1,1009,NW,"ID",33,aslert,ASLERT,z,,,,,,,,,,,,,,,,,
,,,,,,,,,,,,,,,,,,5f0f1c7ff1db6e0683cda086,2020-08-10_13h19.35.882,lexical_decision_task_MP,2020.1.3,Linux x86_64,60,m,1,0.78498,,,,,,,,0.78498,1,0,13,13,4,1,1005,WORD,UN,33,abound,SQUEAK,m,,,,,,,,,,,,,,,,,
,,,,,,,,,,,,,,,,,,5f0f1c7ff1db6e0683cda086,2020-08-10_13h19.35.882,lexical_decision_task_MP,2020.1.3,Linux x86_64,60,z,0,0.559005,,,,,,,,0.559005,0,0,14,14,0,1,1001,WORD,"ID",33,utopia,UTOPIA,m,,,,,,,,,,,,,,,,,
,,,,,,,,,,,,,,,,,,5f0f1c7ff1db6e0683cda086,2020-08-10_13h19.35.882,lexical_decision_task_MP,2020.1.3,Linux x86_64,60,m,1,0.752325,,,,,,,,0.752325,1,0,15,15,1,1,1002,WORD,"ID",33,adjust,ADJUST,m,,,,,,,,,,,,,,,,,
,space,4.293755,0.374074074,-0.07962963,0,0,0,,,,,,1,end_of_practice,"You have completed the practice trials. During the experimental trials, you will not receive feedback, but it is very important that you respond as quickly and accurately as possible. 
Before you begin, please ensure that you are in a comfortable and quiet location and will not be disturbed for about 15 minutes, as we cannot use your data if you do not complete all the trials. 
There will be opportunities to take breaks at regular intervals during the experiment. When you are ready to start the experimental trials, please press space or touch the button below.",,,5f0f1c7ff1db6e0683cda086,2020-08-10_13h19.35.882,lexical_decision_task_MP,2020.1.3,Linux x86_64,60,,,,,,,,,,,,,,,,,,,,,,,,,0,0,0,0,1,,,,,,,,,,,,
,,,,,,,,,,,,,,,,,,5f0f1c7ff1db6e0683cda086,2020-08-10_13h19.35.882,lexical_decision_task_MP,2020.1.3,Linux x86_64,60,m,1,1.06798,,,,,,,,1.06798,1,,,,,,89,WORD,"ID",50,permit,PERMIT,m,,,,,,0.374074074,-0.07962963,0,0,0,,0,0,0,88,1,
,,,,,,,,,,,,,,,,,,5f0f1c7ff1db6e0683cda086,2020-08-10_13h19.35.882,lexical_decision_task_MP,2020.1.3,Linux x86_64,60,m,1,0.963745,,,,,,,,0.963745,1,,,,,,32,WORD,"ID",33,buckle,BUCKLE,m,,,,,,0.374074074,-0.07962963,0,0,0,,0,1,1,31,1,
,,,,,,,,,,,,,,,,,,5f0f1c7ff1db6e0683cda086,2020-08-10_13h19.35.882,lexical_decision_task_MP,2020.1.3,Linux x86_64,60,m,1,0.59282,,,,,,,,0.59282,1,,,,,,73,WORD,"ID",50,source,SOURCE,m,,,,,,0.374074074,-0.07962963,0,0,0,,0,2,2,72,1,
,,,,,,,,,,,,,,,,,,5f0f1c7ff1db6e0683cda086,2020-08-10_13h19.35.882,lexical_decision_task_MP,2020.1.3,Linux x86_64,60,z,1,0.659545,,,,,,,,0.659545,1,,,,,,357,NW,"ID",50,derain,DERAIN,z,,,,,,0.374074074,-0.07962963,0,0,0,,0,3,3,356,1,
,,,,,,,,,,,,,,,,,,5f0f1c7ff1db6e0683cda086,2020-08-10_13h19.35.882,lexical_decision_task_MP,2020.1.3,Linux x86_64,60,m,0,0.543055,,,,,,,,0.543055,0,,,,,,335,NW,"ID",50,desion,DESION,z,,,,,,0.374074074,-0.07962963,0,0,0,,0,4,4,334,1,
,,,,,,,,,,,,,,,,,,5f0f1c7ff1db6e0683cda086,2020-08-10_13h19.35.882,lexical_decision_task_MP,2020.1.3,Linux x86_64,60,m,1,1.109455,,,,,,,,1.109455,1,,,,,,61,WORD,"ID",50,ponder,PONDER,m,,,,,,0.374074074,-0.07962963,0,0,0,,0,5,5,60,1,
,,,,,,,,,,,,,,,,,,5f0f1c7ff1db6e0683cda086,2020-08-10_13h19.35.882,lexical_decision_task_MP,2020.1.3,Linux x86_64,60,m,1,0.738205,,,,,,,,0.738205,1,,,,,,166,WORD,UN,33,design,STARCH,m,,,,,,0.374074074,-0.07962963,0,0,0,,0,6,6,165,1,
,,,,,,,,,,,,,,,,,,5f0f1c7ff1db6e0683cda086,2020-08-10_13h19.35.882,lexical_decision_task_MP,2020.1.3,Linux x86_64,60,m,1,0.798425,,,,,,,,0.798425,1,,,,,,197,WORD,UN,50,wicked,STREAM,m,,,,,,0.374074074,-0.07962963,0,0,0,,0,7,7,196,1,
,,,,,,,,,,,,,,,,,,5f0f1c7ff1db6e0683cda086,2020-08-10_13h19.35.882,lexical_decision_task_MP,2020.1.3,Linux x86_64,60,m,1,0.74867,,,,,,,,0.74867,1,,,,,,39,WORD,"ID",33,insect,INSECT,m,,,,,,0.374074074,-0.07962963,0,0,0,,0,8,8,38,1,
,,,,,,,,,,,,,,,,,,5f0f1c7ff1db6e0683cda086,2020-08-10_13h19.35.882,lexical_decision_task_MP,2020.1.3,Linux x86_64,60,m,1,0.648465,,,,,,,,0.648465,1,,,,,,154,WORD,UN,33,lizard,AUTHOR,m,,,,,,0.374074074,-0.07962963,0,0,0,,0,9,9,153,1,
,,,,,,,,,,,,,,,,,,5f0f1c7ff1db6e0683cda086,2020-08-10_13h19.35.882,lexical_decision_task_MP,2020.1.3,Linux x86_64,60,z,1,1.0427,,,,,,,,1.0427,1,,,,,,295,NW,"ID",33,gleath,GLEATH,z,,,,,,0.374074074,-0.07962963,0,0,0,,0,10,10,294,1,
,,,,,,,,,,,,,,,,,,5f0f1c7ff1db6e0683cda086,2020-08-10_13h19.35.882,lexical_decision_task_MP,2020.1.3,Linux x86_64,60,z,1,0.88258,,,,,,,,0.88258,1,,,,,,406,NW,UN,33,suiver,NOUPLY,z,,,,,,0.374074074,-0.07962963,0,0,0,,0,11,11,405,1,
,,,,,,,,,,,,,,,,,,5f0f1c7ff1db6e0683cda086,2020-08-10_13h19.35.882,lexical_decision_task_MP,2020.1.3,Linux x86_64,60,m,0,1.21724,,,,,,,,1.21724,0,,,,,,455,NW,UN,50,broget,TONDLE,z,,,,,,0.374074074,-0.07962963,0,0,0,,0,12,12,454,1,
,,,,,,,,,,,,,,,,,,5f0f1c7ff1db6e0683cda086,2020-08-10_13h19.35.882,lexical_decision_task_MP,2020.1.3,Linux x86_64,60,z,1,0.891335,,,,,,,,0.891335,1,,,,,,381,NW,UN,33,sarley,HUNIEK,z,,,,,,0.374074074,-0.07962963,0,0,0,,0,13,13,380,1,
,,,,,,,,,,,,,,,,,,5f0f1c7ff1db6e0683cda086,2020-08-10_13h19.35.882,lexical_decision_task_MP,2020.1.3,Linux x86_64,60,m,0,1.28422,,,,,,,,1.28422,0,,,,,,395,NW,UN,33,flengy,COLURY,z,,,,,,0.374074074,-0.07962963,0,0,0,,0,14,14,394,1,
,,,,,,,,,,,,,,,,,,5f0f1c7ff1db6e0683cda086,2020-08-10_13h19.35.882,lexical_decision_task_MP,2020.1.3,Linux x86_64,60,z,1,0.810065,,,,,,,,0.810065,1,,,,,,444,NW,UN,50,minkel,JAUNCE,z,,,,,,0.374074074,-0.07962963,0,0,0,,0,15,15,443,1,
,,,,,,,,,,,,,,,,,,5f0f1c7ff1db6e0683cda086,2020-08-10_13h19.35.882,lexical_decision_task_MP,2020.1.3,Linux x86_64,60,z,1,0.908805,,,,,,,,0.908805,1,,,,,,244,NW,"ID",33,eatric,EATRIC,z,,,,,,0.374074074,-0.07962963,0,0,0,,0,16,16,243,1,
,,,,,,,,,,,,,,,,,,5f0f1c7ff1db6e0683cda086,2020-08-10_13h19.35.882,lexical_decision_task_MP,2020.1.3,Linux x86_64,60,m,1,0.66702,,,,,,,,0.66702,1,,,,,,124,WORD,UN,33,nickel,BLOUSE,m,,,,,,0.374074074,-0.07962963,0,0,0,,0,17,17,123,1,
,,,,,,,,,,,,,,,,,,5f0f1c7ff1db6e0683cda086,2020-08-10_13h19.35.882,lexical_decision_task_MP,2020.1.3,Linux x86_64,60,,0,,,,,,,,,0.66702,-1,,,,,,3,WORD,"ID",33,knight,KNIGHT,m,,,,,,0.374074074,-0.07962963,0,0,0,,0,18,18,2,1,
,,,,,,,,,,,,,,,,,,5f0f1c7ff1db6e0683cda086,2020-08-10_13h19.35.882,lexical_decision_task_MP,2020.1.3,Linux x86_64,60,m,0,0.72221,,,,,,,,0.72221,0,,,,,,330,NW,"ID",50,kensom,KENSOM,z,,,,,,0.374074074,-0.07962963,0,0,0,,0,19,19,329,1,
,,,,,,,,,,,,,,,,,,5f0f1c7ff1db6e0683cda086,2020-08-10_13h19.35.882,lexical_decision_task_MP,2020.1.3,Linux x86_64,60,m,0,0.42151,,,,,,,,0.42151,0,,,,,,422,NW,UN,50,streld,ALCOUD,z,,,,,,0.374074074,-0.07962963,0,0,0,,0,20,20,421,1,
,,,,,,,,,,,,,,,,,,5f0f1c7ff1db6e0683cda086,2020-08-10_13h19.35.882,lexical_decision_task_MP,2020.1.3,Linux x86_64,60,m,1,0.5501,,,,,,,,0.5501,1,,,,,,196,WORD,UN,50,stream,CREDIT,m,,,,,,0.374074074,-0.07962963,0,0,0,,0,21,21,195,1,
,,,,,,,,,,,,,,,,,,5f0f1c7ff1db6e0683cda086,2020-08-10_13h19.35.882,lexical_decision_task_MP,2020.1.3,Linux x86_64,60,z,1,0.317845,,,,,,,,0.317845,1,,,,,,460,NW,UN,50,justre,MINGAR,z,,,,,,0.374074074,-0.07962963,0,0,0,,0,22,22,459,1,
,,,,,,,,,,,,,,,,,,5f0f1c7ff1db6e0683cda086,2020-08-10_13h19.35.882,lexical_decision_task_MP,2020.1.3,Linux x86_64,60,m,0,0.23267,,,,,,,,0.23267,0,,,,,,350,NW,"ID",50,nagurs,NAGURS,z,,,,,,0.374074074,-0.07962963,0,0,0,,0,23,23,349,1,
,,,,,,,,,,,,,,,,,,5f0f1c7ff1db6e0683cda086,2020-08-10_13h19.35.882,lexical_decision_task_MP,2020.1.3,Linux x86_64,60,m,1,0.29262,,,,,,,,0.29262,1,,,,,,95,WORD,"ID",50,thread,THREAD,m,,,,,,0.374074074,-0.07962963,0,0,0,,0,24,24,94,1,
,,,,,,,,,,,,,,,,,,5f0f1c7ff1db6e0683cda086,2020-08-10_13h19.35.882,lexical_decision_task_MP,2020.1.3,Linux x86_64,60,m,1,0.311785,,,,,,,,0.311785,1,,,,,,168,WORD,UN,33,genius,ANSWER,m,,,,,,0.374074074,-0.07962963,0,0,0,,0,25,25,167,1,
,,,,,,,,,,,,,,,,,,5f0f1c7ff1db6e0683cda086,2020-08-10_13h19.35.882,lexical_decision_task_MP,2020.1.3,Linux x86_64,60,m,1,0.33956,,,,,,,,0.33956,1,,,,,,31,WORD,"ID",33,weapon,WEAPON,m,,,,,,0.374074074,-0.07962963,0,0,0,,0,26,26,30,1,
,,,,,,,,,,,,,,,,,,5f0f1c7ff1db6e0683cda086,2020-08-10_13h19.35.882,lexical_decision_task_MP,2020.1.3,Linux x86_64,60,z,0,0.63507,,,,,,,,0.63507,0,,,,,,6,WORD,"ID",33,bundle,BUNDLE,m,,,,,,0.374074074,-0.07962963,0,0,0,,0,27,27,5,1,
,,,,,,,,,,,,,,,,,,5f0f1c7ff1db6e0683cda086,2020-08-10_13h19.35.882,lexical_decision_task_MP,2020.1.3,Linux x86_64,60,m,1,0.45714,,,,,,,,0.45714,1,,,,,,98,WORD,"ID",50,belong,BELONG,m,,,,,,0.374074074,-0.07962963,0,0,0,,0,28,28,97,1,
,,,,,,,,,,,,,,,,,,5f0f1c7ff1db6e0683cda086,2020-08-10_13h19.35.882,lexical_decision_task_MP,2020.1.3,Linux x86_64,60,m,1,0.537235,,,,,,,,0.537235,1,,,,,,34,WORD,"ID",33,jungle,JUNGLE,m,,,,,,0.374074074,-0.07962963,0,0,0,,0,29,29,33,1,
,,,,,,,,,,,,,,,,,,5f0f1c7ff1db6e0683cda086,2020-08-10_13h19.35.882,lexical_decision_task_MP,2020.1.3,Linux x86_64,60,m,0,0.70369,,,,,,,,0.70369,0,,,,,,266,NW,"ID",33,varmit,VARMIT,z,,,,,,0.374074074,-0.07962963,0,0,0,,0,30,30,265,1,
,,,,,,,,,,,,,,,,,,5f0f1c7ff1db6e0683cda086,2020-08-10_13h19.35.882,lexical_decision_task_MP,2020.1.3,Linux x86_64,60,z,0,0.61519,,,,,,,,0.61519,0,,,,,,7,WORD,"ID",33,anchor,ANCHOR,m,,,,,,0.374074074,-0.07962963,0,0,0,,0,31,31,6,1,
,,,,,,,,,,,,,,,,,,5f0f1c7ff1db6e0683cda086,2020-08-10_13h19.35.882,lexical_decision_task_MP,2020.1.3,Linux x86_64,60,m,1,0.536985,,,,,,,,0.536985,1,,,,,,224,WORD,UN,50,vulgar,PERIOD,m,,,,,,0.374074074,-0.07962963,0,0,0,,0,32,32,223,1,
,,,,,,,,,,,,,,,,,,5f0f1c7ff1db6e0683cda086,2020-08-10_13h19.35.882,lexical_decision_task_MP,2020.1.3,Linux x86_64,60,z,1,0.866135,,,,,,,,0.866135,1,,,,,,347,NW,"ID",50,kerift,KERIFT,z,,,,,,0.374074074,-0.07962963,0,0,0,,0,33,33,346,1,
,,,,,,,,,,,,,,,,,,5f0f1c7ff1db6e0683cda086,2020-08-10_13h19.35.882,lexical_decision_task_MP,2020.1.3,Linux x86_64,60,m,1,0.85778,,,,,,,,0.85778,1,,,,,,10,WORD,"ID",33,ethnic,ETHNIC,m,,,,,,0.374074074,-0.07962963,0,0,0,,0,34,34,9,1,
,,,,,,,,,,,,,,,,,,5f0f1c7ff1db6e0683cda086,2020-08-10_13h19.35.882,lexical_decision_task_MP,2020.1.3,Linux x86_64,60,m,1,0.497595,,,,,,,,0.497595,1,,,,,,9,WORD,"ID",33,hustle,HUSTLE,m,,,,,,0.374074074,-0.07962963,0,0,0,,0,35,35,8,1,
,,,,,,,,,,,,,,,,,,5f0f1c7ff1db6e0683cda086,2020-08-10_13h19.35.882,lexical_decision_task_MP,2020.1.3,Linux x86_64,60,m,1,0.41029,,,,,,,,0.41029,1,,,,,,102,WORD,"ID",50,direct,DIRECT,m,,,,,,0.374074074,-0.07962963,0,0,0,,0,36,36,101,1,
,,,,,,,,,,,,,,,,,,5f0f1c7ff1db6e0683cda086,2020-08-10_13h19.35.882,lexical_decision_task_MP,2020.1.3,Linux x86_64,60,z,1,0.62896,,,,,,,,0.62896,1,,,,,,394,NW,UN,33,colury,SPAQUX,z,,,,,,0.374074074,-0.07962963,0,0,0,,0,37,37,393,1,
,,,,,,,,,,,,,,,,,,5f0f1c7ff1db6e0683cda086,2020-08-10_13h19.35.882,lexical_decision_task_MP,2020.1.3,Linux x86_64,60,m,0,0.48088,,,,,,,,0.48088,0,,,,,,373,NW,UN,33,injore,BIGENT,z,,,,,,0.374074074,-0.07962963,0,0,0,,0,38,38,372,1,
,,,,,,,,,,,,,,,,,,5f0f1c7ff1db6e0683cda086,2020-08-10_13h19.35.882,lexical_decision_task_MP,2020.1.3,Linux x86_64,60,m,0,0.54282,,,,,,,,0.54282,0,,,,,,331,NW,"ID",50,gilfew,GILFEW,z,,,,,,0.374074074,-0.07962963,0,0,0,,0,39,39,330,1,
,,,,,,,,,,,,,,,,,,5f0f1c7ff1db6e0683cda086,2020-08-10_13h19.35.882,lexical_decision_task_MP,2020.1.3,Linux x86_64,60,m,1,0.652245,,,,,,,,0.652245,1,,,,,,223,WORD,UN,50,period,KIDNEY,m,,,,,,0.374074074,-0.07962963,0,0,0,,0,40,40,222,1,
,,,,,,,,,,,,,,,,,,5f0f1c7ff1db6e0683cda086,2020-08-10_13h19.35.882,lexical_decision_task_MP,2020.1.3,Linux x86_64,60,m,1,0.580795,,,,,,,,0.580795,1,,,,,,57,WORD,"ID",33,change,CHANGE,m,,,,,,0.374074074,-0.07962963,0,0,0,,0,41,41,56,1,
,,,,,,,,,,,,,,,,,,5f0f1c7ff1db6e0683cda086,2020-08-10_13h19.35.882,lexical_decision_task_MP,2020.1.3,Linux x86_64,60,m,1,0.566315,,,,,,,,0.566315,1,,,,,,120,WORD,"ID",50,strain,STRAIN,m,,,,,,0.374074074,-0.07962963,0,0,0,,0,42,42,119,1,
,,,,,,,,,,,,,,,,,,5f0f1c7ff1db6e0683cda086,2020-08-10_13h19.35.882,lexical_decision_task_MP,2020.1.3,Linux x86_64,60,z,1,0.781985,,,,,,,,0.781985,1,,,,,,307,NW,"ID",50,kirafe,KIRAFE,z,,,,,,0.374074074,-0.07962963,0,0,0,,0,43,43,306,1,
,,,,,,,,,,,,,,,,,,5f0f1c7ff1db6e0683cda086,2020-08-10_13h19.35.882,lexical_decision_task_MP,2020.1.3,Linux x86_64,60,m,1,0.70076,,,,,,,,0.70076,1,,,,,,214,WORD,UN,50,phobia,INTAKE,m,,,,,,0.374074074,-0.07962963,0,0,0,,0,44,44,213,1,
,,,,,,,,,,,,,,,,,,5f0f1c7ff1db6e0683cda086,2020-08-10_13h19.35.882,lexical_decision_task_MP,2020.1.3,Linux x86_64,60,m,1,0.52101,,,,,,,,0.52101,1,,,,,,21,WORD,"ID",33,simple,SIMPLE,m,,,,,,0.374074074,-0.07962963,0,0,0,,0,45,45,20,1,
,,,,,,,,,,,,,,,,,,5f0f1c7ff1db6e0683cda086,2020-08-10_13h19.35.882,lexical_decision_task_MP,2020.1.3,Linux x86_64,60,m,1,0.51262,,,,,,,,0.51262,1,,,,,,111,WORD,"ID",50,induce,INDUCE,m,,,,,,0.374074074,-0.07962963,0,0,0,,0,46,46,110,1,
,,,,,,,,,,,,,,,,,,5f0f1c7ff1db6e0683cda086,2020-08-10_13h19.35.882,lexical_decision_task_MP,2020.1.3,Linux x86_64,60,m,1,0.601005,,,,,,,,0.601005,1,,,,,,109,WORD,"ID",50,wonder,WONDER,m,,,,,,0.374074074,-0.07962963,0,0,0,,0,47,47,108,1,
,,,,,,,,,,,,,,,,,,5f0f1c7ff1db6e0683cda086,2020-08-10_13h19.35.882,lexical_decision_task_MP,2020.1.3,Linux x86_64,60,z,0,0.66965,,,,,,,,0.66965,0,,,,,,74,WORD,"ID",50,plaque,PLAQUE,m,,,,,,0.374074074,-0.07962963,0,0,0,,0,48,48,73,1,
,,,,,,,,,,,,,,,,,,5f0f1c7ff1db6e0683cda086,2020-08-10_13h19.35.882,lexical_decision_task_MP,2020.1.3,Linux x86_64,60,m,1,0.47213,,,,,,,,0.47213,1,,,,,,87,WORD,"ID",50,filter,FILTER,m,,,,,,0.374074074,-0.07962963,0,0,0,,0,49,49,86,1,
,,,,,,,,,,,,,,,,,,5f0f1c7ff1db6e0683cda086,2020-08-10_13h19.35.882,lexical_decision_task_MP,2020.1.3,Linux x86_64,60,m,0,0.591325,,,,,,,,0.591325,0,,,,,,438,NW,UN,50,limpor,BAITCH,z,,,,,,0.374074074,-0.07962963,0,0,0,,0,50,50,437,1,
,,,,,,,,,,,,,,,,,,5f0f1c7ff1db6e0683cda086,2020-08-10_13h19.35.882,lexical_decision_task_MP,2020.1.3,Linux x86_64,60,z,0,0.52673,,,,,,,,0.52673,0,,,,,,82,WORD,"ID",50,stigma,STIGMA,m,,,,,,0.374074074,-0.07962963,0,0,0,,0,51,51,81,1,
,,,,,,,,,,,,,,,,,,5f0f1c7ff1db6e0683cda086,2020-08-10_13h19.35.882,lexical_decision_task_MP,2020.1.3,Linux x86_64,60,m,1,0.488825,,,,,,,,0.488825,1,,,,,,160,WORD,UN,33,dragon,VIOLET,m,,,,,,0.374074074,-0.07962963,0,0,0,,0,52,52,159,1,
,,,,,,,,,,,,,,,,,,5f0f1c7ff1db6e0683cda086,2020-08-10_13h19.35.882,lexical_decision_task_MP,2020.1.3,Linux x86_64,60,z,1,0.750175,,,,,,,,0.750175,1,,,,,,356,NW,"ID",50,othnis,OTHNIS,z,,,,,,0.374074074,-0.07962963,0,0,0,,0,53,53,355,1,
,,,,,,,,,,,,,,,,,,5f0f1c7ff1db6e0683cda086,2020-08-10_13h19.35.882,lexical_decision_task_MP,2020.1.3,Linux x86_64,60,z,1,0.870415,,,,,,,,0.870415,1,,,,,,420,NW,UN,33,pauche,GUSHOP,z,,,,,,0.374074074,-0.07962963,0,0,0,,0,54,54,419,1,
,,,,,,,,,,,,,,,,,,5f0f1c7ff1db6e0683cda086,2020-08-10_13h19.35.882,lexical_decision_task_MP,2020.1.3,Linux x86_64,60,m,1,0.633905,,,,,,,,0.633905,1,,,,,,229,WORD,UN,50,fringe,MOTHER,m,,,,,,0.374074074,-0.07962963,0,0,0,,0,55,55,228,1,
,,,,,,,,,,,,,,,,,,5f0f1c7ff1db6e0683cda086,2020-08-10_13h19.35.882,lexical_decision_task_MP,2020.1.3,Linux x86_64,60,m,0,0.54969,,,,,,,,0.54969,0,,,,,,301,NW,"ID",50,fainch,FAINCH,z,,,,,,0.374074074,-0.07962963,0,0,0,,0,56,56,300,1,
,,,,,,,,,,,,,,,,,,5f0f1c7ff1db6e0683cda086,2020-08-10_13h19.35.882,lexical_decision_task_MP,2020.1.3,Linux x86_64,60,m,1,0.64338,,,,,,,,0.64338,1,,,,,,205,WORD,UN,50,tailor,LOUNGE,m,,,,,,0.374074074,-0.07962963,0,0,0,,0,57,57,204,1,
,,,,,,,,,,,,,,,,,,5f0f1c7ff1db6e0683cda086,2020-08-10_13h19.35.882,lexical_decision_task_MP,2020.1.3,Linux x86_64,60,z,0,0.704385,,,,,,,,0.704385,0,,,,,,48,WORD,"ID",33,walnut,WALNUT,m,,,,,,0.374074074,-0.07962963,0,0,0,,0,58,58,47,1,
,,,,,,,,,,,,,,,,,,5f0f1c7ff1db6e0683cda086,2020-08-10_13h19.35.882,lexical_decision_task_MP,2020.1.3,Linux x86_64,60,m,1,0.56685,,,,,,,,0.56685,1,,,,,,59,WORD,"ID",33,splint,SPLINT,m,,,,,,0.374074074,-0.07962963,0,0,0,,0,59,59,58,1,
,,,,,,,,,,,,,,,,,,5f0f1c7ff1db6e0683cda086,2020-08-10_13h19.35.882,lexical_decision_task_MP,2020.1.3,Linux x86_64,60,z,1,0.557775,,,,,,,,0.557775,1,,,,,,400,NW,UN,33,mustil,WEAROX,z,,,,,,0.374074074,-0.07962963,0,0,0,,0,60,60,399,1,
,,,,,,,,,,,,,,,,,,5f0f1c7ff1db6e0683cda086,2020-08-10_13h19.35.882,lexical_decision_task_MP,2020.1.3,Linux x86_64,60,m,1,0.72359,,,,,,,,0.72359,1,,,,,,218,WORD,UN,50,bucket,SHRINK,m,,,,,,0.374074074,-0.07962963,0,0,0,,0,61,61,217,1,
,,,,,,,,,,,,,,,,,,5f0f1c7ff1db6e0683cda086,2020-08-10_13h19.35.882,lexical_decision_task_MP,2020.1.3,Linux x86_64,60,m,1,0.564805,,,,,,,,0.564805,1,,,,,,210,WORD,UN,50,infect,MONKEY,m,,,,,,0.374074074,-0.07962963,0,0,0,,0,62,62,209,1,
,,,,,,,,,,,,,,,,,,5f0f1c7ff1db6e0683cda086,2020-08-10_13h19.35.882,lexical_decision_task_MP,2020.1.3,Linux x86_64,60,z,1,0.887995,,,,,,,,0.887995,1,,,,,,437,NW,UN,50,baitch,SNAPEL,z,,,,,,0.374074074,-0.07962963,0,0,0,,0,63,63,436,1,
,,,,,,,,,,,,,,,,,,5f0f1c7ff1db6e0683cda086,2020-08-10_13h19.35.882,lexical_decision_task_MP,2020.1.3,Linux x86_64,60,m,0,0.570615,,,,,,,,0.570615,0,,,,,,326,NW,"ID",50,iguade,IGUADE,z,,,,,,0.374074074,-0.07962963,0,0,0,,0,64,64,325,1,
,,,,,,,,,,,,,,,,,,5f0f1c7ff1db6e0683cda086,2020-08-10_13h19.35.882,lexical_decision_task_MP,2020.1.3,Linux x86_64,60,m,0,0.381685,,,,,,,,0.381685,0,,,,,,274,NW,"ID",33,fumblo,FUMBLO,z,,,,,,0.374074074,-0.07962963,0,0,0,,0,65,65,273,1,
,,,,,,,,,,,,,,,,,,5f0f1c7ff1db6e0683cda086,2020-08-10_13h19.35.882,lexical_decision_task_MP,2020.1.3,Linux x86_64,60,z,1,0.512435,,,,,,,,0.512435,1,,,,,,479,NW,UN,50,josted,LOBUSH,z,,,,,,0.374074074,-0.07962963,0,0,0,,0,66,66,478,1,
,,,,,,,,,,,,,,,,,,5f0f1c7ff1db6e0683cda086,2020-08-10_13h19.35.882,lexical_decision_task_MP,2020.1.3,Linux x86_64,60,m,1,0.481835,,,,,,,,0.481835,1,,,,,,125,WORD,UN,33,blouse,NICKEL,m,,,,,,0.374074074,-0.07962963,0,0,0,,0,67,67,124,1,
,,,,,,,,,,,,,,,,,,5f0f1c7ff1db6e0683cda086,2020-08-10_13h19.35.882,lexical_decision_task_MP,2020.1.3,Linux x86_64,60,m,0,0.49865,,,,,,,,0.49865,0,,,,,,449,NW,UN,50,phrect,BRUNGE,z,,,,,,0.374074074,-0.07962963,0,0,0,,0,68,68,448,1,
,,,,,,,,,,,,,,,,,,5f0f1c7ff1db6e0683cda086,2020-08-10_13h19.35.882,lexical_decision_task_MP,2020.1.3,Linux x86_64,60,m,1,0.54629,,,,,,,,0.54629,1,,,,,,149,WORD,UN,33,random,INVADE,m,,,,,,0.374074074,-0.07962963,0,0,0,,0,69,69,148,1,
,,,,,,,,,,,,,,,,,,5f0f1c7ff1db6e0683cda086,2020-08-10_13h19.35.882,lexical_decision_task_MP,2020.1.3,Linux x86_64,60,m,0,0.545815,,,,,,,,0.545815,0,,,,,,435,NW,UN,50,frutan,IMPURB,z,,,,,,0.374074074,-0.07962963,0,0,0,,0,70,70,434,1,
,,,,,,,,,,,,,,,,,,5f0f1c7ff1db6e0683cda086,2020-08-10_13h19.35.882,lexical_decision_task_MP,2020.1.3,Linux x86_64,60,m,0,0.63854,,,,,,,,0.63854,0,,,,,,463,NW,UN,50,bafent,KISPEL,z,,,,,,0.374074074,-0.07962963,0,0,0,,0,71,71,462,1,
,,,,,,,,,,,,,,,,,,5f0f1c7ff1db6e0683cda086,2020-08-10_13h19.35.882,lexical_decision_task_MP,2020.1.3,Linux x86_64,60,z,1,0.736595,,,,,,,,0.736595,1,,,,,,402,NW,UN,33,bruats,SYNTIC,z,,,,,,0.374074074,-0.07962963,0,0,0,,0,72,72,401,1,
,,,,,,,,,,,,,,,,,,5f0f1c7ff1db6e0683cda086,2020-08-10_13h19.35.882,lexical_decision_task_MP,2020.1.3,Linux x86_64,60,m,0,0.823885,,,,,,,,0.823885,0,,,,,,382,NW,UN,33,aungre,SARLEY,z,,,,,,0.374074074,-0.07962963,0,0,0,,0,73,73,381,1,
,,,,,,,,,,,,,,,,,,5f0f1c7ff1db6e0683cda086,2020-08-10_13h19.35.882,lexical_decision_task_MP,2020.1.3,Linux x86_64,60,m,1,0.58194,,,,,,,,0.58194,1,,,,,,56,WORD,"ID",33,ambush,AMBUSH,m,,,,,,0.374074074,-0.07962963,0,0,0,,0,74,74,55,1,
,,,,,,,,,,,,,,,,,,5f0f1c7ff1db6e0683cda086,2020-08-10_13h19.35.882,lexical_decision_task_MP,2020.1.3,Linux x86_64,60,m,1,0.51686,,,,,,,,0.51686,1,,,,,,186,WORD,UN,50,course,PORTAL,m,,,,,,0.374074074,-0.07962963,0,0,0,,0,75,75,185,1,
,,,,,,,,,,,,,,,,,,5f0f1c7ff1db6e0683cda086,2020-08-10_13h19.35.882,lexical_decision_task_MP,2020.1.3,Linux x86_64,60,z,0,0.731435,,,,,,,,0.731435,0,,,,,,139,WORD,UN,33,prince,DEBRIS,m,,,,,,0.374074074,-0.07962963,0,0,0,,0,76,76,138,1,
,,,,,,,,,,,,,,,,,,5f0f1c7ff1db6e0683cda086,2020-08-10_13h19.35.882,lexical_decision_task_MP,2020.1.3,Linux x86_64,60,m,1,0.50351,,,,,,,,0.50351,1,,,,,,174,WORD,UN,33,fabric,TURKEY,m,,,,,,0.374074074,-0.07962963,0,0,0,,0,77,77,173,1,
,,,,,,,,,,,,,,,,,,5f0f1c7ff1db6e0683cda086,2020-08-10_13h19.35.882,lexical_decision_task_MP,2020.1.3,Linux x86_64,60,z,1,0.80853,,,,,,,,0.80853,1,,,,,,467,NW,UN,50,wictor,GORBIE,z,,,,,,0.374074074,-0.07962963,0,0,0,,0,78,78,466,1,
,,,,,,,,,,,,,,,,,,5f0f1c7ff1db6e0683cda086,2020-08-10_13h19.35.882,lexical_decision_task_MP,2020.1.3,Linux x86_64,60,z,1,0.85949,,,,,,,,0.85949,1,,,,,,465,NW,UN,50,hocite,WHIVEX,z,,,,,,0.374074074,-0.07962963,0,0,0,,0,79,79,464,1,
,,,,,,,,,,,,,,,,,,5f0f1c7ff1db6e0683cda086,2020-08-10_13h19.35.882,lexical_decision_task_MP,2020.1.3,Linux x86_64,60,m,0,0.53343,,,,,,,,0.53343,0,,,,,,432,NW,UN,50,drance,LUNKER,z,,,,,,0.374074074,-0.07962963,0,0,0,,0,80,80,431,1,
,,,,,,,,,,,,,,,,,,5f0f1c7ff1db6e0683cda086,2020-08-10_13h19.35.882,lexical_decision_task_MP,2020.1.3,Linux x86_64,60,m,1,0.557985,,,,,,,,0.557985,1,,,,,,128,WORD,UN,33,marvel,SENIOR,m,,,,,,0.374074074,-0.07962963,0,0,0,,0,81,81,127,1,
,,,,,,,,,,,,,,,,,,5f0f1c7ff1db6e0683cda086,2020-08-10_13h19.35.882,lexical_decision_task_MP,2020.1.3,Linux x86_64,60,m,1,0.648725,,,,,,,,0.648725,1,,,,,,50,WORD,"ID",33,snatch,SNATCH,m,,,,,,0.374074074,-0.07962963,0,0,0,,0,82,82,49,1,
,,,,,,,,,,,,,,,,,,5f0f1c7ff1db6e0683cda086,2020-08-10_13h19.35.882,lexical_decision_task_MP,2020.1.3,Linux x86_64,60,m,0,0.48544,,,,,,,,0.48544,0,,,,,,321,NW,"ID",50,miator,MIATOR,z,,,,,,0.374074074,-0.07962963,0,0,0,,0,83,83,320,1,
,,,,,,,,,,,,,,,,,,5f0f1c7ff1db6e0683cda086,2020-08-10_13h19.35.882,lexical_decision_task_MP,2020.1.3,Linux x86_64,60,m,1,0.671965,,,,,,,,0.671965,1,,,,,,179,WORD,UN,33,silent,BASKET,m,,,,,,0.374074074,-0.07962963,0,0,0,,0,84,84,178,1,
,,,,,,,,,,,,,,,,,,5f0f1c7ff1db6e0683cda086,2020-08-10_13h19.35.882,lexical_decision_task_MP,2020.1.3,Linux x86_64,60,m,1,0.54221,,,,,,,,0.54221,1,,,,,,135,WORD,UN,33,chrome,IMPORT,m,,,,,,0.374074074,-0.07962963,0,0,0,,0,85,85,134,1,
,,,,,,,,,,,,,,,,,,5f0f1c7ff1db6e0683cda086,2020-08-10_13h19.35.882,lexical_decision_task_MP,2020.1.3,Linux x86_64,60,m,1,0.53645,,,,,,,,0.53645,1,,,,,,207,WORD,UN,50,hockey,WREATH,m,,,,,,0.374074074,-0.07962963,0,0,0,,0,86,86,206,1,
,,,,,,,,,,,,,,,,,,5f0f1c7ff1db6e0683cda086,2020-08-10_13h19.35.882,lexical_decision_task_MP,2020.1.3,Linux x86_64,60,z,1,0.70967,,,,,,,,0.70967,1,,,,,,351,NW,"ID",50,tiesch,TIESCH,z,,,,,,0.374074074,-0.07962963,0,0,0,,0,87,87,350,1,
,,,,,,,,,,,,,,,,,,5f0f1c7ff1db6e0683cda086,2020-08-10_13h19.35.882,lexical_decision_task_MP,2020.1.3,Linux x86_64,60,z,1,0.90374,,,,,,,,0.90374,1,,,,,,441,NW,UN,50,aboune,RASTOE,z,,,,,,0.374074074,-0.07962963,0,0,0,,0,88,88,440,1,
,,,,,,,,,,,,,,,,,,5f0f1c7ff1db6e0683cda086,2020-08-10_13h19.35.882,lexical_decision_task_MP,2020.1.3,Linux x86_64,60,m,0,0.73274,,,,,,,,0.73274,0,,,,,,256,NW,"ID",33,inlors,INLORS,z,,,,,,0.374074074,-0.07962963,0,0,0,,0,89,89,255,1,
,,,,,,,,,,,,,,,,,,5f0f1c7ff1db6e0683cda086,2020-08-10_13h19.35.882,lexical_decision_task_MP,2020.1.3,Linux x86_64,60,m,1,0.7339,,,,,,,,0.7339,1,,,,,,184,WORD,UN,50,bother,SLEAZY,m,,,,,,0.374074074,-0.07962963,0,0,0,,0,90,90,183,1,
,,,,,,,,,,,,,,,,,,5f0f1c7ff1db6e0683cda086,2020-08-10_13h19.35.882,lexical_decision_task_MP,2020.1.3,Linux x86_64,60,m,1,0.75331,,,,,,,,0.75331,1,,,,,,235,WORD,UN,50,pirate,GRUMPY,m,,,,,,0.374074074,-0.07962963,0,0,0,,0,91,91,234,1,
,,,,,,,,,,,,,,,,,,5f0f1c7ff1db6e0683cda086,2020-08-10_13h19.35.882,lexical_decision_task_MP,2020.1.3,Linux x86_64,60,m,1,0.37187,,,,,,,,0.37187,1,,,,,,116,WORD,"ID",50,tumble,TUMBLE,m,,,,,,0.374074074,-0.07962963,0,0,0,,0,92,92,115,1,
,,,,,,,,,,,,,,,,,,5f0f1c7ff1db6e0683cda086,2020-08-10_13h19.35.882,lexical_decision_task_MP,2020.1.3,Linux x86_64,60,m,0,0.29496,,,,,,,,0.29496,0,,,,,,345,NW,"ID",50,absend,ABSEND,z,,,,,,0.374074074,-0.07962963,0,0,0,,0,93,93,344,1,
,,,,,,,,,,,,,,,,,,5f0f1c7ff1db6e0683cda086,2020-08-10_13h19.35.882,lexical_decision_task_MP,2020.1.3,Linux x86_64,60,m,0,0.51649,,,,,,,,0.51649,0,,,,,,405,NW,UN,33,nouply,FLUMNI,z,,,,,,0.374074074,-0.07962963,0,0,0,,0,94,94,404,1,
,,,,,,,,,,,,,,,,,,5f0f1c7ff1db6e0683cda086,2020-08-10_13h19.35.882,lexical_decision_task_MP,2020.1.3,Linux x86_64,60,m,1,0.53599,,,,,,,,0.53599,1,,,,,,84,WORD,"ID",50,mortal,MORTAL,m,,,,,,0.374074074,-0.07962963,0,0,0,,0,95,95,83,1,
,,,,,,,,,,,,,,,,,,5f0f1c7ff1db6e0683cda086,2020-08-10_13h19.35.882,lexical_decision_task_MP,2020.1.3,Linux x86_64,60,z,0,0.86066,,,,,,,,0.86066,0,,,,,,151,WORD,UN,33,rocket,MYSTIC,m,,,,,,0.374074074,-0.07962963,0,0,0,,0,96,96,150,1,
,,,,,,,,,,,,,,,,,,5f0f1c7ff1db6e0683cda086,2020-08-10_13h19.35.882,lexical_decision_task_MP,2020.1.3,Linux x86_64,60,m,1,0.514125,,,,,,,,0.514125,1,,,,,,107,WORD,"ID",50,slogan,SLOGAN,m,,,,,,0.374074074,-0.07962963,0,0,0,,0,97,97,106,1,
,,,,,,,,,,,,,,,,,,5f0f1c7ff1db6e0683cda086,2020-08-10_13h19.35.882,lexical_decision_task_MP,2020.1.3,Linux x86_64,60,m,0,0.528125,,,,,,,,0.528125,0,,,,,,303,NW,"ID",50,fiream,FIREAM,z,,,,,,0.374074074,-0.07962963,0,0,0,,0,98,98,302,1,
,,,,,,,,,,,,,,,,,,5f0f1c7ff1db6e0683cda086,2020-08-10_13h19.35.882,lexical_decision_task_MP,2020.1.3,Linux x86_64,60,m,1,0.48939,,,,,,,,0.48939,1,,,,,,103,WORD,"ID",50,bounce,BOUNCE,m,,,,,,0.374074074,-0.07962963,0,0,0,,0,99,99,102,1,
,,,,,,,,,,,,,,,,,,5f0f1c7ff1db6e0683cda086,2020-08-10_13h19.35.882,lexical_decision_task_MP,2020.1.3,Linux x86_64,60,m,1,0.44249,,,,,,,,0.44249,1,,,,,,33,WORD,"ID",33,butler,BUTLER,m,,,,,,0.374074074,-0.07962963,0,0,0,,0,100,100,32,1,
,,,,,,,,,,,,,,,,,,5f0f1c7ff1db6e0683cda086,2020-08-10_13h19.35.882,lexical_decision_task_MP,2020.1.3,Linux x86_64,60,m,0,0.47681,,,,,,,,0.47681,0,,,,,,421,NW,UN,50,alcoud,KNISMA,z,,,,,,0.374074074,-0.07962963,0,0,0,,0,101,101,420,1,
,,,,,,,,,,,,,,,,,,5f0f1c7ff1db6e0683cda086,2020-08-10_13h19.35.882,lexical_decision_task_MP,2020.1.3,Linux x86_64,60,m,1,0.47708,,,,,,,,0.47708,1,,,,,,44,WORD,"ID",33,danger,DANGER,m,,,,,,0.374074074,-0.07962963,0,0,0,,0,102,102,43,1,
,,,,,,,,,,,,,,,,,,5f0f1c7ff1db6e0683cda086,2020-08-10_13h19.35.882,lexical_decision_task_MP,2020.1.3,Linux x86_64,60,m,1,0.54154,,,,,,,,0.54154,1,,,,,,158,WORD,UN,33,detail,ISLAND,m,,,,,,0.374074074,-0.07962963,0,0,0,,0,103,103,157,1,
,,,,,,,,,,,,,,,,,,5f0f1c7ff1db6e0683cda086,2020-08-10_13h19.35.882,lexical_decision_task_MP,2020.1.3,Linux x86_64,60,m,1,0.495195,,,,,,,,0.495195,1,,,,,,28,WORD,"ID",33,comedy,COMEDY,m,,,,,,0.374074074,-0.07962963,0,0,0,,0,104,104,27,1,
,,,,,,,,,,,,,,,,,,5f0f1c7ff1db6e0683cda086,2020-08-10_13h19.35.882,lexical_decision_task_MP,2020.1.3,Linux x86_64,60,m,1,0.44945,,,,,,,,0.44945,1,,,,,,187,WORD,UN,50,social,COURSE,m,,,,,,0.374074074,-0.07962963,0,0,0,,0,105,105,186,1,
,,,,,,,,,,,,,,,,,,5f0f1c7ff1db6e0683cda086,2020-08-10_13h19.35.882,lexical_decision_task_MP,2020.1.3,Linux x86_64,60,m,1,0.487175,,,,,,,,0.487175,1,,,,,,118,WORD,"ID",50,flight,FLIGHT,m,,,,,,0.374074074,-0.07962963,0,0,0,,0,106,106,117,1,
,,,,,,,,,,,,,,,,,,5f0f1c7ff1db6e0683cda086,2020-08-10_13h19.35.882,lexical_decision_task_MP,2020.1.3,Linux x86_64,60,m,1,0.335115,,,,,,,,0.335115,1,,,,,,183,WORD,UN,50,sleazy,MILDEW,m,,,,,,0.374074074,-0.07962963,0,0,0,,0,107,107,182,1,
,,,,,,,,,,,,,,,,,,5f0f1c7ff1db6e0683cda086,2020-08-10_13h19.35.882,lexical_decision_task_MP,2020.1.3,Linux x86_64,60,m,1,0.381025,,,,,,,,0.381025,1,,,,,,212,WORD,UN,50,squeal,VERIFY,m,,,,,,0.374074074,-0.07962963,0,0,0,,0,108,108,211,1,
,,,,,,,,,,,,,,,,,,5f0f1c7ff1db6e0683cda086,2020-08-10_13h19.35.882,lexical_decision_task_MP,2020.1.3,Linux x86_64,60,m,0,0.37325,,,,,,,,0.37325,0,,,,,,319,NW,"ID",50,zomber,ZOMBER,z,,,,,,0.374074074,-0.07962963,0,0,0,,0,109,109,318,1,
,,,,,,,,,,,,,,,,,,5f0f1c7ff1db6e0683cda086,2020-08-10_13h19.35.882,lexical_decision_task_MP,2020.1.3,Linux x86_64,60,m,1,0.432095,,,,,,,,0.432095,1,,,,,,132,WORD,UN,33,bleach,STRONG,m,,,,,,0.374074074,-0.07962963,0,0,0,,0,110,110,131,1,
,,,,,,,,,,,,,,,,,,5f0f1c7ff1db6e0683cda086,2020-08-10_13h19.35.882,lexical_decision_task_MP,2020.1.3,Linux x86_64,60,m,0,0.323015,,,,,,,,0.323015,0,,,,,,322,NW,"ID",50,slanch,SLANCH,z,,,,,,0.374074074,-0.07962963,0,0,0,,0,111,111,321,1,
,,,,,,,,,,,,,,,,,,5f0f1c7ff1db6e0683cda086,2020-08-10_13h19.35.882,lexical_decision_task_MP,2020.1.3,Linux x86_64,60,m,0,0.422505,,,,,,,,0.422505,0,,,,,,352,NW,"ID",50,tringe,TRINGE,z,,,,,,0.374074074,-0.07962963,0,0,0,,0,112,112,351,1,
,,,,,,,,,,,,,,,,,,5f0f1c7ff1db6e0683cda086,2020-08-10_13h19.35.882,lexical_decision_task_MP,2020.1.3,Linux x86_64,60,m,1,0.4393,,,,,,,,0.4393,1,,,,,,72,WORD,"ID",50,bright,BRIGHT,m,,,,,,0.374074074,-0.07962963,0,0,0,,0,113,113,71,1,
,,,,,,,,,,,,,,,,,,5f0f1c7ff1db6e0683cda086,2020-08-10_13h19.35.882,lexical_decision_task_MP,2020.1.3,Linux x86_64,60,m,0,0.34313,,,,,,,,0.34313,0,,,,,,367,NW,UN,33,hornal,SLIQUE,z,,,,,,0.374074074,-0.07962963,0,0,0,,0,114,114,366,1,
,,,,,,,,,,,,,,,,,,5f0f1c7ff1db6e0683cda086,2020-08-10_13h19.35.882,lexical_decision_task_MP,2020.1.3,Linux x86_64,60,m,0,0.29204,,,,,,,,0.29204,0,,,,,,278,NW,"ID",33,unighs,UNIGHS,z,,,,,,0.374074074,-0.07962963,0,0,0,,0,115,115,277,1,
,,,,,,,,,,,,,,,,,,5f0f1c7ff1db6e0683cda086,2020-08-10_13h19.35.882,lexical_decision_task_MP,2020.1.3,Linux x86_64,60,m,0,0.472335,,,,,,,,0.472335,0,,,,,,396,NW,UN,33,camble,FLENGY,z,,,,,,0.374074074,-0.07962963,0,0,0,,0,116,116,395,1,
,,,,,,,,,,,,,,,,,,5f0f1c7ff1db6e0683cda086,2020-08-10_13h19.35.882,lexical_decision_task_MP,2020.1.3,Linux x86_64,60,m,0,0.41958,,,,,,,,0.41958,0,,,,,,316,NW,"ID",50,scregm,SCREGM,z,,,,,,0.374074074,-0.07962963,0,0,0,,0,117,117,315,1,
,,,,,,,,,,,,,,,,,,5f0f1c7ff1db6e0683cda086,2020-08-10_13h19.35.882,lexical_decision_task_MP,2020.1.3,Linux x86_64,60,z,0,0.55191,,,,,,,,0.55191,0,,,,,,100,WORD,"ID",50,carbon,CARBON,m,,,,,,0.374074074,-0.07962963,0,0,0,,0,118,118,99,1,
,,,,,,,,,,,,,,,,,,5f0f1c7ff1db6e0683cda086,2020-08-10_13h19.35.882,lexical_decision_task_MP,2020.1.3,Linux x86_64,60,m,0,0.004365,,,,,,,,0.004365,0,,,,,,426,NW,UN,50,frudge,URIVEL,z,,,,,,0.374074074,-0.07962963,0,0,0,,0,119,119,425,1,
,,,,,,,,,,,,,,,,,,5f0f1c7ff1db6e0683cda086,2020-08-10_13h19.35.882,lexical_decision_task_MP,2020.1.3,Linux x86_64,60,m,0,0.570875,,,,,,,,0.570875,0,,,,,,265,NW,"ID",33,distar,DISTAR,z,,,,,,0.384259259,-0.175,0,0,0,space,0,120,120,264,1,11.038025
,,,,,,,,,,,,,,,,,,5f0f1c7ff1db6e0683cda086,2020-08-10_13h19.35.882,lexical_decision_task_MP,2020.1.3,Linux x86_64,60,z,0,0.72589,,,,,,,,0.72589,0,,,,,,175,WORD,UN,33,strife,FABRIC,m,,,,,,0.384259259,-0.175,0,0,0,,0,121,121,174,1,
,,,,,,,,,,,,,,,,,,5f0f1c7ff1db6e0683cda086,2020-08-10_13h19.35.882,lexical_decision_task_MP,2020.1.3,Linux x86_64,60,m,1,0.43468,,,,,,,,0.43468,1,,,,,,64,WORD,"ID",50,throne,THRONE,m,,,,,,0.384259259,-0.175,0,0,0,,0,122,122,63,1,
,,,,,,,,,,,,,,,,,,5f0f1c7ff1db6e0683cda086,2020-08-10_13h19.35.882,lexical_decision_task_MP,2020.1.3,Linux x86_64,60,z,1,0.687085,,,,,,,,0.687085,1,,,,,,259,NW,"ID",33,soudal,SOUDAL,z,,,,,,0.384259259,-0.175,0,0,0,,0,123,123,258,1,
,,,,,,,,,,,,,,,,,,5f0f1c7ff1db6e0683cda086,2020-08-10_13h19.35.882,lexical_decision_task_MP,2020.1.3,Linux x86_64,60,m,0,0.82091,,,,,,,,0.82091,0,,,,,,378,NW,UN,33,auting,SHRILE,z,,,,,,0.384259259,-0.175,0,0,0,,0,124,124,377,1,
,,,,,,,,,,,,,,,,,,5f0f1c7ff1db6e0683cda086,2020-08-10_13h19.35.882,lexical_decision_task_MP,2020.1.3,Linux x86_64,60,m,1,0.64283,,,,,,,,0.64283,1,,,,,,121,WORD,UN,33,linger,THRIVE,m,,,,,,0.384259259,-0.175,0,0,0,,0,125,125,120,1,
,,,,,,,,,,,,,,,,,,5f0f1c7ff1db6e0683cda086,2020-08-10_13h19.35.882,lexical_decision_task_MP,2020.1.3,Linux x86_64,60,m,1,0.456495,,,,,,,,0.456495,1,,,,,,215,WORD,UN,50,behalf,PHOBIA,m,,,,,,0.384259259,-0.175,0,0,0,,0,126,126,214,1,
,,,,,,,,,,,,,,,,,,5f0f1c7ff1db6e0683cda086,2020-08-10_13h19.35.882,lexical_decision_task_MP,2020.1.3,Linux x86_64,60,m,0,0.5222,,,,,,,,0.5222,0,,,,,,376,NW,UN,33,sliant,IGUARE,z,,,,,,0.384259259,-0.175,0,0,0,,0,127,127,375,1,
,,,,,,,,,,,,,,,,,,5f0f1c7ff1db6e0683cda086,2020-08-10_13h19.35.882,lexical_decision_task_MP,2020.1.3,Linux x86_64,60,z,1,0.6337,,,,,,,,0.6337,1,,,,,,380,NW,UN,33,huniek,CAVORY,z,,,,,,0.384259259,-0.175,0,0,0,,0,128,128,379,1,
,,,,,,,,,,,,,,,,,,5f0f1c7ff1db6e0683cda086,2020-08-10_13h19.35.882,lexical_decision_task_MP,2020.1.3,Linux x86_64,60,m,1,0.47018,,,,,,,,0.47018,1,,,,,,169,WORD,UN,33,pounce,GENIUS,m,,,,,,0.384259259,-0.175,0,0,0,,0,129,129,168,1,
,,,,,,,,,,,,,,,,,,5f0f1c7ff1db6e0683cda086,2020-08-10_13h19.35.882,lexical_decision_task_MP,2020.1.3,Linux x86_64,60,m,1,0.58093,,,,,,,,0.58093,1,,,,,,11,WORD,"ID",33,cruise,CRUISE,m,,,,,,0.384259259,-0.175,0,0,0,,0,130,130,10,1,
,,,,,,,,,,,,,,,,,,5f0f1c7ff1db6e0683cda086,2020-08-10_13h19.35.882,lexical_decision_task_MP,2020.1.3,Linux x86_64,60,m,0,0.49882,,,,,,,,0.49882,0,,,,,,286,NW,"ID",33,reldon,RELDON,z,,,,,,0.384259259,-0.175,0,0,0,,0,131,131,285,1,
,,,,,,,,,,,,,,,,,,5f0f1c7ff1db6e0683cda086,2020-08-10_13h19.35.882,lexical_decision_task_MP,2020.1.3,Linux x86_64,60,m,1,0.581095,,,,,,,,0.581095,1,,,,,,71,WORD,"ID",50,garden,GARDEN,m,,,,,,0.384259259,-0.175,0,0,0,,0,132,132,70,1,
,,,,,,,,,,,,,,,,,,5f0f1c7ff1db6e0683cda086,2020-08-10_13h19.35.882,lexical_decision_task_MP,2020.1.3,Linux x86_64,60,m,0,0.55909,,,,,,,,0.55909,0,,,,,,342,NW,"ID",50,randow,RANDOW,z,,,,,,0.384259259,-0.175,0,0,0,,0,133,133,341,1,
,,,,,,,,,,,,,,,,,,5f0f1c7ff1db6e0683cda086,2020-08-10_13h19.35.882,lexical_decision_task_MP,2020.1.3,Linux x86_64,60,m,1,0.79788,,,,,,,,0.79788,1,,,,,,78,WORD,"ID",50,column,COLUMN,m,,,,,,0.384259259,-0.175,0,0,0,,0,134,134,77,1,
,,,,,,,,,,,,,,,,,,5f0f1c7ff1db6e0683cda086,2020-08-10_13h19.35.882,lexical_decision_task_MP,2020.1.3,Linux x86_64,60,z,1,0.93272,,,,,,,,0.93272,1,,,,,,445,NW,UN,50,runamo,MINKEL,z,,,,,,0.384259259,-0.175,0,0,0,,0,135,135,444,1,
,,,,,,,,,,,,,,,,,,5f0f1c7ff1db6e0683cda086,2020-08-10_13h19.35.882,lexical_decision_task_MP,2020.1.3,Linux x86_64,60,z,0,0.751965,,,,,,,,0.751965,0,,,,,,159,WORD,UN,33,violet,DETAIL,m,,,,,,0.384259259,-0.175,0,0,0,,0,136,136,158,1,
,,,,,,,,,,,,,,,,,,5f0f1c7ff1db6e0683cda086,2020-08-10_13h19.35.882,lexical_decision_task_MP,2020.1.3,Linux x86_64,60,m,1,0.52411,,,,,,,,0.52411,1,,,,,,27,WORD,"ID",33,scream,SCREAM,m,,,,,,0.384259259,-0.175,0,0,0,,0,137,137,26,1,
,,,,,,,,,,,,,,,,,,5f0f1c7ff1db6e0683cda086,2020-08-10_13h19.35.882,lexical_decision_task_MP,2020.1.3,Linux x86_64,60,z,1,0.82209,,,,,,,,0.82209,1,,,,,,271,NW,"ID",33,aubrid,AUBRID,z,,,,,,0.384259259,-0.175,0,0,0,,0,138,138,270,1,
,,,,,,,,,,,,,,,,,,5f0f1c7ff1db6e0683cda086,2020-08-10_13h19.35.882,lexical_decision_task_MP,2020.1.3,Linux x86_64,60,m,1,0.549705,,,,,,,,0.549705,1,,,,,,122,WORD,UN,33,strike,LINGER,m,,,,,,0.384259259,-0.175,0,0,0,,0,139,139,121,1,
,,,,,,,,,,,,,,,,,,5f0f1c7ff1db6e0683cda086,2020-08-10_13h19.35.882,lexical_decision_task_MP,2020.1.3,Linux x86_64,60,m,0,0.503935,,,,,,,,0.503935,0,,,,,,261,NW,"ID",33,stunch,STUNCH,z,,,,,,0.384259259,-0.175,0,0,0,,0,140,140,260,1,
,,,,,,,,,,,,,,,,,,5f0f1c7ff1db6e0683cda086,2020-08-10_13h19.35.882,lexical_decision_task_MP,2020.1.3,Linux x86_64,60,m,0,0.523955,,,,,,,,0.523955,0,,,,,,268,NW,"ID",33,packes,PACKES,z,,,,,,0.384259259,-0.175,0,0,0,,0,141,141,267,1,
,,,,,,,,,,,,,,,,,,5f0f1c7ff1db6e0683cda086,2020-08-10_13h19.35.882,lexical_decision_task_MP,2020.1.3,Linux x86_64,60,m,1,0.44646,,,,,,,,0.44646,1,,,,,,231,WORD,UN,50,mother,EXPORT,m,,,,,,0.384259259,-0.175,0,0,0,,0,142,142,230,1,
,,,,,,,,,,,,,,,,,,5f0f1c7ff1db6e0683cda086,2020-08-10_13h19.35.882,lexical_decision_task_MP,2020.1.3,Linux x86_64,60,m,1,0.50096,,,,,,,,0.50096,1,,,,,,217,WORD,UN,50,shrink,LIQUOR,m,,,,,,0.384259259,-0.175,0,0,0,,0,143,143,216,1,
,,,,,,,,,,,,,,,,,,5f0f1c7ff1db6e0683cda086,2020-08-10_13h19.35.882,lexical_decision_task_MP,2020.1.3,Linux x86_64,60,m,0,0.51199,,,,,,,,0.51199,0,,,,,,409,NW,UN,33,tunory,ELOPIA,z,,,,,,0.384259259,-0.175,0,0,0,,0,144,144,408,1,
,,,,,,,,,,,,,,,,,,5f0f1c7ff1db6e0683cda086,2020-08-10_13h19.35.882,lexical_decision_task_MP,2020.1.3,Linux x86_64,60,m,0,0.531575,,,,,,,,0.531575,0,,,,,,338,NW,"ID",50,wreash,WREASH,z,,,,,,0.384259259,-0.175,0,0,0,,0,145,145,337,1,
,,,,,,,,,,,,,,,,,,5f0f1c7ff1db6e0683cda086,2020-08-10_13h19.35.882,lexical_decision_task_MP,2020.1.3,Linux x86_64,60,m,1,0.617365,,,,,,,,0.617365,1,,,,,,148,WORD,UN,33,invade,CUSTOM,m,,,,,,0.384259259,-0.175,0,0,0,,0,146,146,147,1,
,,,,,,,,,,,,,,,,,,5f0f1c7ff1db6e0683cda086,2020-08-10_13h19.35.882,lexical_decision_task_MP,2020.1.3,Linux x86_64,60,m,1,0.571795,,,,,,,,0.571795,1,,,,,,238,WORD,UN,50,grumpy,FLOWER,m,,,,,,0.384259259,-0.175,0,0,0,,0,147,147,237,1,
,,,,,,,,,,,,,,,,,,5f0f1c7ff1db6e0683cda086,2020-08-10_13h19.35.882,lexical_decision_task_MP,2020.1.3,Linux x86_64,60,m,1,0.571525,,,,,,,,0.571525,1,,,,,,13,WORD,"ID",33,strive,STRIVE,m,,,,,,0.384259259,-0.175,0,0,0,,0,148,148,12,1,
,,,,,,,,,,,,,,,,,,5f0f1c7ff1db6e0683cda086,2020-08-10_13h19.35.882,lexical_decision_task_MP,2020.1.3,Linux x86_64,60,z,1,0.731965,,,,,,,,0.731965,1,,,,,,267,NW,"ID",33,pasink,PASINK,z,,,,,,0.384259259,-0.175,0,0,0,,0,149,149,266,1,
,,,,,,,,,,,,,,,,,,5f0f1c7ff1db6e0683cda086,2020-08-10_13h19.35.882,lexical_decision_task_MP,2020.1.3,Linux x86_64,60,m,0,0.633885,,,,,,,,0.633885,0,,,,,,461,NW,UN,50,absult,JUSTRE,z,,,,,,0.384259259,-0.175,0,0,0,,0,150,150,460,1,
,,,,,,,,,,,,,,,,,,5f0f1c7ff1db6e0683cda086,2020-08-10_13h19.35.882,lexical_decision_task_MP,2020.1.3,Linux x86_64,60,z,1,0.737465,,,,,,,,0.737465,1,,,,,,468,NW,UN,50,padifs,WICTOR,z,,,,,,0.384259259,-0.175,0,0,0,,0,151,151,467,1,
,,,,,,,,,,,,,,,,,,5f0f1c7ff1db6e0683cda086,2020-08-10_13h19.35.882,lexical_decision_task_MP,2020.1.3,Linux x86_64,60,m,1,0.69123,,,,,,,,0.69123,1,,,,,,208,WORD,UN,50,search,HOCKEY,m,,,,,,0.384259259,-0.175,0,0,0,,0,152,152,207,1,
,,,,,,,,,,,,,,,,,,5f0f1c7ff1db6e0683cda086,2020-08-10_13h19.35.882,lexical_decision_task_MP,2020.1.3,Linux x86_64,60,m,1,0.818255,,,,,,,,0.818255,1,,,,,,165,WORD,UN,33,starch,INVEST,m,,,,,,0.384259259,-0.175,0,0,0,,0,153,153,164,1,
,,,,,,,,,,,,,,,,,,5f0f1c7ff1db6e0683cda086,2020-08-10_13h19.35.882,lexical_decision_task_MP,2020.1.3,Linux x86_64,60,m,0,0.93809,,,,,,,,0.93809,0,,,,,,291,NW,"ID",33,pretch,PRETCH,z,,,,,,0.384259259,-0.175,0,0,0,,0,154,154,290,1,
,,,,,,,,,,,,,,,,,,5f0f1c7ff1db6e0683cda086,2020-08-10_13h19.35.882,lexical_decision_task_MP,2020.1.3,Linux x86_64,60,m,0,0.464305,,,,,,,,0.464305,0,,,,,,358,NW,"ID",50,fleack,FLEACK,z,,,,,,0.384259259,-0.175,0,0,0,,0,155,155,357,1,
,,,,,,,,,,,,,,,,,,5f0f1c7ff1db6e0683cda086,2020-08-10_13h19.35.882,lexical_decision_task_MP,2020.1.3,Linux x86_64,60,m,0,0.490855,,,,,,,,0.490855,0,,,,,,275,NW,"ID",33,sleirt,SLEIRT,z,,,,,,0.384259259,-0.175,0,0,0,,0,156,156,274,1,
,,,,,,,,,,,,,,,,,,5f0f1c7ff1db6e0683cda086,2020-08-10_13h19.35.882,lexical_decision_task_MP,2020.1.3,Linux x86_64,60,m,0,0.55804,,,,,,,,0.55804,0,,,,,,332,NW,"ID",50,vangue,VANGUE,z,,,,,,0.384259259,-0.175,0,0,0,,0,157,157,331,1,
,,,,,,,,,,,,,,,,,,5f0f1c7ff1db6e0683cda086,2020-08-10_13h19.35.882,lexical_decision_task_MP,2020.1.3,Linux x86_64,60,m,0,0.60636,,,,,,,,0.60636,0,,,,,,284,NW,"ID",33,shaple,SHAPLE,z,,,,,,0.384259259,-0.175,0,0,0,,0,158,158,283,1,
,,,,,,,,,,,,,,,,,,5f0f1c7ff1db6e0683cda086,2020-08-10_13h19.35.882,lexical_decision_task_MP,2020.1.3,Linux x86_64,60,m,1,0.63373,,,,,,,,0.63373,1,,,,,,191,WORD,UN,50,absent,STABLE,m,,,,,,0.384259259,-0.175,0,0,0,,0,159,159,190,1,
,,,,,,,,,,,,,,,,,,5f0f1c7ff1db6e0683cda086,2020-08-10_13h19.35.882,lexical_decision_task_MP,2020.1.3,Linux x86_64,60,z,1,0.794085,,,,,,,,0.794085,1,,,,,,457,NW,UN,50,barcet,WANIGH,z,,,,,,0.384259259,-0.175,0,0,0,,0,160,160,456,1,
,,,,,,,,,,,,,,,,,,5f0f1c7ff1db6e0683cda086,2020-08-10_13h19.35.882,lexical_decision_task_MP,2020.1.3,Linux x86_64,60,z,1,0.880525,,,,,,,,0.880525,1,,,,,,433,NW,UN,50,pitrom,DRANCE,z,,,,,,0.384259259,-0.175,0,0,0,,0,161,161,432,1,
,,,,,,,,,,,,,,,,,,5f0f1c7ff1db6e0683cda086,2020-08-10_13h19.35.882,lexical_decision_task_MP,2020.1.3,Linux x86_64,60,z,1,0.73247,,,,,,,,0.73247,1,,,,,,470,NW,UN,50,nobest,CRUDIO,z,,,,,,0.384259259,-0.175,0,0,0,,0,162,162,469,1,
,,,,,,,,,,,,,,,,,,5f0f1c7ff1db6e0683cda086,2020-08-10_13h19.35.882,lexical_decision_task_MP,2020.1.3,Linux x86_64,60,m,0,0.50375,,,,,,,,0.50375,0,,,,,,281,NW,"ID",33,melaty,MELATY,z,,,,,,0.384259259,-0.175,0,0,0,,0,163,163,280,1,
,,,,,,,,,,,,,,,,,,5f0f1c7ff1db6e0683cda086,2020-08-10_13h19.35.882,lexical_decision_task_MP,2020.1.3,Linux x86_64,60,m,1,0.760595,,,,,,,,0.760595,1,,,,,,14,WORD,"ID",33,almost,ALMOST,m,,,,,,0.384259259,-0.175,0,0,0,,0,164,164,13,1,
,,,,,,,,,,,,,,,,,,5f0f1c7ff1db6e0683cda086,2020-08-10_13h19.35.882,lexical_decision_task_MP,2020.1.3,Linux x86_64,60,z,1,0.94081,,,,,,,,0.94081,1,,,,,,390,NW,UN,33,theldy,HATRUS,z,,,,,,0.384259259,-0.175,0,0,0,,0,165,165,389,1,
,,,,,,,,,,,,,,,,,,5f0f1c7ff1db6e0683cda086,2020-08-10_13h19.35.882,lexical_decision_task_MP,2020.1.3,Linux x86_64,60,m,0,0.704805,,,,,,,,0.704805,0,,,,,,452,NW,UN,50,bolvis,SURDEN,z,,,,,,0.384259259,-0.175,0,0,0,,0,166,166,451,1,
,,,,,,,,,,,,,,,,,,5f0f1c7ff1db6e0683cda086,2020-08-10_13h19.35.882,lexical_decision_task_MP,2020.1.3,Linux x86_64,60,m,0,0.77282,,,,,,,,0.77282,0,,,,,,246,NW,"ID",33,piaton,PIATON,z,,,,,,0.384259259,-0.175,0,0,0,,0,167,167,245,1,
,,,,,,,,,,,,,,,,,,5f0f1c7ff1db6e0683cda086,2020-08-10_13h19.35.882,lexical_decision_task_MP,2020.1.3,Linux x86_64,60,z,0,0.534495,,,,,,,,0.534495,0,,,,,,38,WORD,"ID",33,powder,POWDER,m,,,,,,0.384259259,-0.175,0,0,0,,0,168,168,37,1,
,,,,,,,,,,,,,,,,,,5f0f1c7ff1db6e0683cda086,2020-08-10_13h19.35.882,lexical_decision_task_MP,2020.1.3,Linux x86_64,60,z,1,1.09022,,,,,,,,1.09022,1,,,,,,474,NW,UN,50,gorbie,HABLIN,z,,,,,,0.384259259,-0.175,0,0,0,,0,169,169,473,1,
,,,,,,,,,,,,,,,,,,5f0f1c7ff1db6e0683cda086,2020-08-10_13h19.35.882,lexical_decision_task_MP,2020.1.3,Linux x86_64,60,m,1,0.714405,,,,,,,,0.714405,1,,,,,,105,WORD,"ID",50,number,NUMBER,m,,,,,,0.384259259,-0.175,0,0,0,,0,170,170,104,1,
,,,,,,,,,,,,,,,,,,5f0f1c7ff1db6e0683cda086,2020-08-10_13h19.35.882,lexical_decision_task_MP,2020.1.3,Linux x86_64,60,m,0,0.83768,,,,,,,,0.83768,0,,,,,,294,NW,"ID",33,inhort,INHORT,z,,,,,,0.384259259,-0.175,0,0,0,,0,171,171,293,1,
,,,,,,,,,,,,,,,,,,5f0f1c7ff1db6e0683cda086,2020-08-10_13h19.35.882,lexical_decision_task_MP,2020.1.3,Linux x86_64,60,m,1,0.60439,,,,,,,,0.60439,1,,,,,,80,WORD,"ID",50,family,FAMILY,m,,,,,,0.384259259,-0.175,0,0,0,,0,172,172,79,1,
,,,,,,,,,,,,,,,,,,5f0f1c7ff1db6e0683cda086,2020-08-10_13h19.35.882,lexical_decision_task_MP,2020.1.3,Linux x86_64,60,z,1,0.806785,,,,,,,,0.806785,1,,,,,,416,NW,UN,33,earoud,PATHEL,z,,,,,,0.384259259,-0.175,0,0,0,,0,173,173,415,1,
,,,,,,,,,,,,,,,,,,5f0f1c7ff1db6e0683cda086,2020-08-10_13h19.35.882,lexical_decision_task_MP,2020.1.3,Linux x86_64,60,m,1,0.58683,,,,,,,,0.58683,1,,,,,,12,WORD,"ID",33,orange,ORANGE,m,,,,,,0.384259259,-0.175,0,0,0,,0,174,174,11,1,
,,,,,,,,,,,,,,,,,,5f0f1c7ff1db6e0683cda086,2020-08-10_13h19.35.882,lexical_decision_task_MP,2020.1.3,Linux x86_64,60,m,0,0.5585,,,,,,,,0.5585,0,,,,,,434,NW,UN,50,impurb,PITROM,z,,,,,,0.384259259,-0.175,0,0,0,,0,175,175,433,1,
,,,,,,,,,,,,,,,,,,5f0f1c7ff1db6e0683cda086,2020-08-10_13h19.35.882,lexical_decision_task_MP,2020.1.3,Linux x86_64,60,m,1,0.57249,,,,,,,,0.57249,1,,,,,,112,WORD,"ID",50,breath,BREATH,m,,,,,,0.384259259,-0.175,0,0,0,,0,176,176,111,1,
,,,,,,,,,,,,,,,,,,5f0f1c7ff1db6e0683cda086,2020-08-10_13h19.35.882,lexical_decision_task_MP,2020.1.3,Linux x86_64,60,z,1,1.10613,,,,,,,,1.10613,1,,,,,,423,NW,UN,50,praile,STRELD,z,,,,,,0.384259259,-0.175,0,0,0,,0,177,177,422,1,
,,,,,,,,,,,,,,,,,,5f0f1c7ff1db6e0683cda086,2020-08-10_13h19.35.882,lexical_decision_task_MP,2020.1.3,Linux x86_64,60,m,1,0.50666,,,,,,,,0.50666,1,,,,,,93,WORD,"ID",50,public,PUBLIC,m,,,,,,0.384259259,-0.175,0,0,0,,0,178,178,92,1,
,,,,,,,,,,,,,,,,,,5f0f1c7ff1db6e0683cda086,2020-08-10_13h19.35.882,lexical_decision_task_MP,2020.1.3,Linux x86_64,60,m,0,0.433035,,,,,,,,0.433035,0,,,,,,242,NW,"ID",33,unwert,UNWERT,z,,,,,,0.384259259,-0.175,0,0,0,,0,179,179,241,1,
,,,,,,,,,,,,,,,,,,5f0f1c7ff1db6e0683cda086,2020-08-10_13h19.35.882,lexical_decision_task_MP,2020.1.3,Linux x86_64,60,m,0,0.538415,,,,,,,,0.538415,0,,,,,,401,NW,UN,33,elopia,MUSTIL,z,,,,,,0.384259259,-0.175,0,0,0,,0,180,180,400,1,
,,,,,,,,,,,,,,,,,,5f0f1c7ff1db6e0683cda086,2020-08-10_13h19.35.882,lexical_decision_task_MP,2020.1.3,Linux x86_64,60,m,0,0.473095,,,,,,,,0.473095,0,,,,,,247,NW,"ID",33,blarge,BLARGE,z,,,,,,0.384259259,-0.175,0,0,0,,0,181,181,246,1,
,,,,,,,,,,,,,,,,,,5f0f1c7ff1db6e0683cda086,2020-08-10_13h19.35.882,lexical_decision_task_MP,2020.1.3,Linux x86_64,60,m,0,0.43823,,,,,,,,0.43823,0,,,,,,368,NW,UN,33,wronch,HORNAL,z,,,,,,0.384259259,-0.175,0,0,0,,0,182,182,367,1,
,,,,,,,,,,,,,,,,,,5f0f1c7ff1db6e0683cda086,2020-08-10_13h19.35.882,lexical_decision_task_MP,2020.1.3,Linux x86_64,60,m,0,0.526655,,,,,,,,0.526655,0,,,,,,427,NW,UN,50,tandly,SCHIND,z,,,,,,0.384259259,-0.175,0,0,0,,0,183,183,426,1,
,,,,,,,,,,,,,,,,,,5f0f1c7ff1db6e0683cda086,2020-08-10_13h19.35.882,lexical_decision_task_MP,2020.1.3,Linux x86_64,60,m,0,0.54646,,,,,,,,0.54646,0,,,,,,366,NW,UN,33,slique,TOSHEL,z,,,,,,0.384259259,-0.175,0,0,0,,0,184,184,365,1,
,,,,,,,,,,,,,,,,,,5f0f1c7ff1db6e0683cda086,2020-08-10_13h19.35.882,lexical_decision_task_MP,2020.1.3,Linux x86_64,60,m,1,0.43665,,,,,,,,0.43665,1,,,,,,228,WORD,UN,50,inject,MASTER,m,,,,,,0.384259259,-0.175,0,0,0,,0,185,185,227,1,
,,,,,,,,,,,,,,,,,,5f0f1c7ff1db6e0683cda086,2020-08-10_13h19.35.882,lexical_decision_task_MP,2020.1.3,Linux x86_64,60,m,1,0.54763,,,,,,,,0.54763,1,,,,,,155,WORD,UN,33,cradle,LIZARD,m,,,,,,0.384259259,-0.175,0,0,0,,0,186,186,154,1,
,,,,,,,,,,,,,,,,,,5f0f1c7ff1db6e0683cda086,2020-08-10_13h19.35.882,lexical_decision_task_MP,2020.1.3,Linux x86_64,60,m,1,0.403855,,,,,,,,0.403855,1,,,,,,232,WORD,UN,50,nature,INJECT,m,,,,,,0.384259259,-0.175,0,0,0,,0,187,187,231,1,
,,,,,,,,,,,,,,,,,,5f0f1c7ff1db6e0683cda086,2020-08-10_13h19.35.882,lexical_decision_task_MP,2020.1.3,Linux x86_64,60,m,0,0.37029,,,,,,,,0.37029,0,,,,,,387,NW,UN,33,cragin,GRONCE,z,,,,,,0.384259259,-0.175,0,0,0,,0,188,188,386,1,
,,,,,,,,,,,,,,,,,,5f0f1c7ff1db6e0683cda086,2020-08-10_13h19.35.882,lexical_decision_task_MP,2020.1.3,Linux x86_64,60,m,1,0.466325,,,,,,,,0.466325,1,,,,,,193,WORD,UN,50,plague,OBJECT,m,,,,,,0.384259259,-0.175,0,0,0,,0,189,189,192,1,
,,,,,,,,,,,,,,,,,,5f0f1c7ff1db6e0683cda086,2020-08-10_13h19.35.882,lexical_decision_task_MP,2020.1.3,Linux x86_64,60,m,0,0.616575,,,,,,,,0.616575,0,,,,,,264,NW,"ID",33,vackel,VACKEL,z,,,,,,0.384259259,-0.175,0,0,0,,0,190,190,263,1,
,,,,,,,,,,,,,,,,,,5f0f1c7ff1db6e0683cda086,2020-08-10_13h19.35.882,lexical_decision_task_MP,2020.1.3,Linux x86_64,60,z,1,0.608635,,,,,,,,0.608635,1,,,,,,269,NW,"ID",33,orchet,ORCHET,z,,,,,,0.384259259,-0.175,0,0,0,,0,191,191,268,1,
,,,,,,,,,,,,,,,,,,5f0f1c7ff1db6e0683cda086,2020-08-10_13h19.35.882,lexical_decision_task_MP,2020.1.3,Linux x86_64,60,z,1,0.63248,,,,,,,,0.63248,1,,,,,,404,NW,UN,33,syntic,CLUIRM,z,,,,,,0.384259259,-0.175,0,0,0,,0,192,192,403,1,
,,,,,,,,,,,,,,,,,,5f0f1c7ff1db6e0683cda086,2020-08-10_13h19.35.882,lexical_decision_task_MP,2020.1.3,Linux x86_64,60,m,1,0.66794,,,,,,,,0.66794,1,,,,,,143,WORD,UN,33,sponge,REASON,m,,,,,,0.384259259,-0.175,0,0,0,,0,193,193,142,1,
,,,,,,,,,,,,,,,,,,5f0f1c7ff1db6e0683cda086,2020-08-10_13h19.35.882,lexical_decision_task_MP,2020.1.3,Linux x86_64,60,m,1,0.58408,,,,,,,,0.58408,1,,,,,,198,WORD,UN,50,invoke,WICKED,m,,,,,,0.384259259,-0.175,0,0,0,,0,194,194,197,1,
,,,,,,,,,,,,,,,,,,5f0f1c7ff1db6e0683cda086,2020-08-10_13h19.35.882,lexical_decision_task_MP,2020.1.3,Linux x86_64,60,m,0,0.61483,,,,,,,,0.61483,0,,,,,,285,NW,"ID",33,prudge,PRUDGE,z,,,,,,0.384259259,-0.175,0,0,0,,0,195,195,284,1,
,,,,,,,,,,,,,,,,,,5f0f1c7ff1db6e0683cda086,2020-08-10_13h19.35.882,lexical_decision_task_MP,2020.1.3,Linux x86_64,60,m,0,0.52854,,,,,,,,0.52854,0,,,,,,360,NW,"ID",50,desory,DESORY,z,,,,,,0.384259259,-0.175,0,0,0,,0,196,196,359,1,
,,,,,,,,,,,,,,,,,,5f0f1c7ff1db6e0683cda086,2020-08-10_13h19.35.882,lexical_decision_task_MP,2020.1.3,Linux x86_64,60,m,1,0.76215,,,,,,,,0.76215,1,,,,,,220,WORD,UN,50,mascot,VOYAGE,m,,,,,,0.384259259,-0.175,0,0,0,,0,197,197,219,1,
,,,,,,,,,,,,,,,,,,5f0f1c7ff1db6e0683cda086,2020-08-10_13h19.35.882,lexical_decision_task_MP,2020.1.3,Linux x86_64,60,z,1,0.756105,,,,,,,,0.756105,1,,,,,,475,NW,UN,50,robuly,PEBRIC,z,,,,,,0.384259259,-0.175,0,0,0,,0,198,198,474,1,
,,,,,,,,,,,,,,,,,,5f0f1c7ff1db6e0683cda086,2020-08-10_13h19.35.882,lexical_decision_task_MP,2020.1.3,Linux x86_64,60,z,1,0.85689,,,,,,,,0.85689,1,,,,,,306,NW,"ID",50,sounge,SOUNGE,z,,,,,,0.384259259,-0.175,0,0,0,,0,199,199,305,1,
,,,,,,,,,,,,,,,,,,5f0f1c7ff1db6e0683cda086,2020-08-10_13h19.35.882,lexical_decision_task_MP,2020.1.3,Linux x86_64,60,z,1,0.63914,,,,,,,,0.63914,1,,,,,,462,NW,UN,50,kispel,ABSULT,z,,,,,,0.384259259,-0.175,0,0,0,,0,200,200,461,1,
,,,,,,,,,,,,,,,,,,5f0f1c7ff1db6e0683cda086,2020-08-10_13h19.35.882,lexical_decision_task_MP,2020.1.3,Linux x86_64,60,z,1,0.64955,,,,,,,,0.64955,1,,,,,,385,NW,UN,33,ancust,VEIGMA,z,,,,,,0.384259259,-0.175,0,0,0,,0,201,201,384,1,
,,,,,,,,,,,,,,,,,,5f0f1c7ff1db6e0683cda086,2020-08-10_13h19.35.882,lexical_decision_task_MP,2020.1.3,Linux x86_64,60,z,0,0.872315,,,,,,,,0.872315,0,,,,,,195,WORD,UN,50,credit,RESIGN,m,,,,,,0.384259259,-0.175,0,0,0,,0,202,202,194,1,
,,,,,,,,,,,,,,,,,,5f0f1c7ff1db6e0683cda086,2020-08-10_13h19.35.882,lexical_decision_task_MP,2020.1.3,Linux x86_64,60,z,1,0.80019,,,,,,,,0.80019,1,,,,,,349,NW,"ID",50,asylen,ASYLEN,z,,,,,,0.384259259,-0.175,0,0,0,,0,203,203,348,1,
,,,,,,,,,,,,,,,,,,5f0f1c7ff1db6e0683cda086,2020-08-10_13h19.35.882,lexical_decision_task_MP,2020.1.3,Linux x86_64,60,z,1,1.14249,,,,,,,,1.14249,1,,,,,,383,NW,UN,33,guesco,AUNGRE,z,,,,,,0.384259259,-0.175,0,0,0,,0,204,204,382,1,
,,,,,,,,,,,,,,,,,,5f0f1c7ff1db6e0683cda086,2020-08-10_13h19.35.882,lexical_decision_task_MP,2020.1.3,Linux x86_64,60,m,1,0.969715,,,,,,,,0.969715,1,,,,,,108,WORD,"ID",50,reckon,RECKON,m,,,,,,0.384259259,-0.175,0,0,0,,0,205,205,107,1,
,,,,,,,,,,,,,,,,,,5f0f1c7ff1db6e0683cda086,2020-08-10_13h19.35.882,lexical_decision_task_MP,2020.1.3,Linux x86_64,60,m,1,0.657865,,,,,,,,0.657865,1,,,,,,79,WORD,"ID",50,theory,THEORY,m,,,,,,0.384259259,-0.175,0,0,0,,0,206,206,78,1,
,,,,,,,,,,,,,,,,,,5f0f1c7ff1db6e0683cda086,2020-08-10_13h19.35.882,lexical_decision_task_MP,2020.1.3,Linux x86_64,60,m,1,0.765675,,,,,,,,0.765675,1,,,,,,123,WORD,UN,33,enough,STRIKE,m,,,,,,0.384259259,-0.175,0,0,0,,0,207,207,122,1,
,,,,,,,,,,,,,,,,,,5f0f1c7ff1db6e0683cda086,2020-08-10_13h19.35.882,lexical_decision_task_MP,2020.1.3,Linux x86_64,60,m,1,0.76248,,,,,,,,0.76248,1,,,,,,162,WORD,UN,33,string,CANDLE,m,,,,,,0.384259259,-0.175,0,0,0,,0,208,208,161,1,
,,,,,,,,,,,,,,,,,,5f0f1c7ff1db6e0683cda086,2020-08-10_13h19.35.882,lexical_decision_task_MP,2020.1.3,Linux x86_64,60,m,1,0.554695,,,,,,,,0.554695,1,,,,,,137,WORD,UN,33,melody,FINGER,m,,,,,,0.384259259,-0.175,0,0,0,,0,209,209,136,1,
,,,,,,,,,,,,,,,,,,5f0f1c7ff1db6e0683cda086,2020-08-10_13h19.35.882,lexical_decision_task_MP,2020.1.3,Linux x86_64,60,m,1,0.499885,,,,,,,,0.499885,1,,,,,,65,WORD,"ID",50,symbol,SYMBOL,m,,,,,,0.384259259,-0.175,0,0,0,,0,210,210,64,1,
,,,,,,,,,,,,,,,,,,5f0f1c7ff1db6e0683cda086,2020-08-10_13h19.35.882,lexical_decision_task_MP,2020.1.3,Linux x86_64,60,m,1,0.68319,,,,,,,,0.68319,1,,,,,,83,WORD,"ID",50,result,RESULT,m,,,,,,0.384259259,-0.175,0,0,0,,0,211,211,82,1,
,,,,,,,,,,,,,,,,,,5f0f1c7ff1db6e0683cda086,2020-08-10_13h19.35.882,lexical_decision_task_MP,2020.1.3,Linux x86_64,60,z,1,0.75015,,,,,,,,0.75015,1,,,,,,276,NW,"ID",33,yarmon,YARMON,z,,,,,,0.384259259,-0.175,0,0,0,,0,212,212,275,1,
,,,,,,,,,,,,,,,,,,5f0f1c7ff1db6e0683cda086,2020-08-10_13h19.35.882,lexical_decision_task_MP,2020.1.3,Linux x86_64,60,z,1,0.670755,,,,,,,,0.670755,1,,,,,,411,NW,UN,33,jiluer,ORCHIN,z,,,,,,0.384259259,-0.175,0,0,0,,0,213,213,410,1,
,,,,,,,,,,,,,,,,,,5f0f1c7ff1db6e0683cda086,2020-08-10_13h19.35.882,lexical_decision_task_MP,2020.1.3,Linux x86_64,60,m,1,0.575195,,,,,,,,0.575195,1,,,,,,163,WORD,UN,33,market,STRING,m,,,,,,0.384259259,-0.175,0,0,0,,0,214,214,162,1,
,,,,,,,,,,,,,,,,,,5f0f1c7ff1db6e0683cda086,2020-08-10_13h19.35.882,lexical_decision_task_MP,2020.1.3,Linux x86_64,60,m,1,0.72013,,,,,,,,0.72013,1,,,,,,127,WORD,UN,33,senior,CASTLE,m,,,,,,0.384259259,-0.175,0,0,0,,0,215,215,126,1,
,,,,,,,,,,,,,,,,,,5f0f1c7ff1db6e0683cda086,2020-08-10_13h19.35.882,lexical_decision_task_MP,2020.1.3,Linux x86_64,60,m,0,0.58281,,,,,,,,0.58281,0,,,,,,478,NW,UN,50,lobush,ACRISE,z,,,,,,0.384259259,-0.175,0,0,0,,0,216,216,477,1,
,,,,,,,,,,,,,,,,,,5f0f1c7ff1db6e0683cda086,2020-08-10_13h19.35.882,lexical_decision_task_MP,2020.1.3,Linux x86_64,60,m,1,0.59757,,,,,,,,0.59757,1,,,,,,114,WORD,"ID",50,placid,PLACID,m,,,,,,0.384259259,-0.175,0,0,0,,0,217,217,113,1,
,,,,,,,,,,,,,,,,,,5f0f1c7ff1db6e0683cda086,2020-08-10_13h19.35.882,lexical_decision_task_MP,2020.1.3,Linux x86_64,60,m,1,0.84156,,,,,,,,0.84156,1,,,,,,130,WORD,UN,33,quench,STUPID,m,,,,,,0.384259259,-0.175,0,0,0,,0,218,218,129,1,
,,,,,,,,,,,,,,,,,,5f0f1c7ff1db6e0683cda086,2020-08-10_13h19.35.882,lexical_decision_task_MP,2020.1.3,Linux x86_64,60,m,1,0.652775,,,,,,,,0.652775,1,,,,,,76,WORD,"ID",50,exotic,EXOTIC,m,,,,,,0.384259259,-0.175,0,0,0,,0,219,219,75,1,
,,,,,,,,,,,,,,,,,,5f0f1c7ff1db6e0683cda086,2020-08-10_13h19.35.882,lexical_decision_task_MP,2020.1.3,Linux x86_64,60,m,0,0.58957,,,,,,,,0.58957,0,,,,,,292,NW,"ID",33,ablint,ABLINT,z,,,,,,0.384259259,-0.175,0,0,0,,0,220,220,291,1,
,,,,,,,,,,,,,,,,,,5f0f1c7ff1db6e0683cda086,2020-08-10_13h19.35.882,lexical_decision_task_MP,2020.1.3,Linux x86_64,60,m,0,0.601115,,,,,,,,0.601115,0,,,,,,472,NW,UN,50,crible,CIGNEY,z,,,,,,0.384259259,-0.175,0,0,0,,0,221,221,471,1,
,,,,,,,,,,,,,,,,,,5f0f1c7ff1db6e0683cda086,2020-08-10_13h19.35.882,lexical_decision_task_MP,2020.1.3,Linux x86_64,60,m,0,0.527915,,,,,,,,0.527915,0,,,,,,389,NW,UN,33,hatrus,WITMER,z,,,,,,0.384259259,-0.175,0,0,0,,0,222,222,388,1,
,,,,,,,,,,,,,,,,,,5f0f1c7ff1db6e0683cda086,2020-08-10_13h19.35.882,lexical_decision_task_MP,2020.1.3,Linux x86_64,60,m,1,0.451815,,,,,,,,0.451815,1,,,,,,4,WORD,"ID",33,trench,TRENCH,m,,,,,,0.384259259,-0.175,0,0,0,,0,223,223,3,1,
,,,,,,,,,,,,,,,,,,5f0f1c7ff1db6e0683cda086,2020-08-10_13h19.35.882,lexical_decision_task_MP,2020.1.3,Linux x86_64,60,m,1,0.775475,,,,,,,,0.775475,1,,,,,,126,WORD,UN,33,castle,ENOUGH,m,,,,,,0.384259259,-0.175,0,0,0,,0,224,224,125,1,
,,,,,,,,,,,,,,,,,,5f0f1c7ff1db6e0683cda086,2020-08-10_13h19.35.882,lexical_decision_task_MP,2020.1.3,Linux x86_64,60,m,0,0.576195,,,,,,,,0.576195,0,,,,,,348,NW,"ID",50,dumple,DUMPLE,z,,,,,,0.384259259,-0.175,0,0,0,,0,225,225,347,1,
,,,,,,,,,,,,,,,,,,5f0f1c7ff1db6e0683cda086,2020-08-10_13h19.35.882,lexical_decision_task_MP,2020.1.3,Linux x86_64,60,m,0,1.055885,,,,,,,,1.055885,0,,,,,,311,NW,"ID",50,sproly,SPROLY,z,,,,,,0.384259259,-0.175,0,0,0,,0,226,226,310,1,
,,,,,,,,,,,,,,,,,,5f0f1c7ff1db6e0683cda086,2020-08-10_13h19.35.882,lexical_decision_task_MP,2020.1.3,Linux x86_64,60,m,0,0.632135,,,,,,,,0.632135,0,,,,,,245,NW,"ID",33,anougs,ANOUGS,z,,,,,,0.384259259,-0.175,0,0,0,,0,227,227,244,1,
,,,,,,,,,,,,,,,,,,5f0f1c7ff1db6e0683cda086,2020-08-10_13h19.35.882,lexical_decision_task_MP,2020.1.3,Linux x86_64,60,m,1,0.38204,,,,,,,,0.38204,1,,,,,,153,WORD,UN,33,author,BEHOLD,m,,,,,,0.384259259,-0.175,0,0,0,,0,228,228,152,1,
,,,,,,,,,,,,,,,,,,5f0f1c7ff1db6e0683cda086,2020-08-10_13h19.35.882,lexical_decision_task_MP,2020.1.3,Linux x86_64,60,m,0,0.40362,,,,,,,,0.40362,0,,,,,,287,NW,"ID",33,nymbel,NYMBEL,z,,,,,,0.384259259,-0.175,0,0,0,,0,229,229,286,1,
,,,,,,,,,,,,,,,,,,5f0f1c7ff1db6e0683cda086,2020-08-10_13h19.35.882,lexical_decision_task_MP,2020.1.3,Linux x86_64,60,m,0,0.537225,,,,,,,,0.537225,0,,,,,,255,NW,"ID",33,apight,APIGHT,z,,,,,,0.384259259,-0.175,0,0,0,,0,230,230,254,1,
,,,,,,,,,,,,,,,,,,5f0f1c7ff1db6e0683cda086,2020-08-10_13h19.35.882,lexical_decision_task_MP,2020.1.3,Linux x86_64,60,m,1,0.53759,,,,,,,,0.53759,1,,,,,,157,WORD,UN,33,island,DRAGON,m,,,,,,0.384259259,-0.175,0,0,0,,0,231,231,156,1,
,,,,,,,,,,,,,,,,,,5f0f1c7ff1db6e0683cda086,2020-08-10_13h19.35.882,lexical_decision_task_MP,2020.1.3,Linux x86_64,60,m,0,0.50043,,,,,,,,0.50043,0,,,,,,476,NW,UN,50,photie,JOSTED,z,,,,,,0.384259259,-0.175,0,0,0,,0,232,232,475,1,
,,,,,,,,,,,,,,,,,,5f0f1c7ff1db6e0683cda086,2020-08-10_13h19.35.882,lexical_decision_task_MP,2020.1.3,Linux x86_64,60,m,1,0.51801,,,,,,,,0.51801,1,,,,,,140,WORD,UN,33,reason,PRINCE,m,,,,,,0.384259259,-0.175,0,0,0,,0,233,233,139,1,
,,,,,,,,,,,,,,,,,,5f0f1c7ff1db6e0683cda086,2020-08-10_13h19.35.882,lexical_decision_task_MP,2020.1.3,Linux x86_64,60,m,0,0.70147,,,,,,,,0.70147,0,,,,,,333,NW,"ID",50,catrie,CATRIE,z,,,,,,0.384259259,-0.175,0,0,0,,0,234,234,332,1,
,,,,,,,,,,,,,,,,,,5f0f1c7ff1db6e0683cda086,2020-08-10_13h19.35.882,lexical_decision_task_MP,2020.1.3,Linux x86_64,60,m,1,0.478045,,,,,,,,0.478045,1,,,,,,17,WORD,"ID",33,charge,CHARGE,m,,,,,,0.384259259,-0.175,0,0,0,,0,235,235,16,1,
,,,,,,,,,,,,,,,,,,5f0f1c7ff1db6e0683cda086,2020-08-10_13h19.35.882,lexical_decision_task_MP,2020.1.3,Linux x86_64,60,m,1,0.53702,,,,,,,,0.53702,1,,,,,,99,WORD,"ID",50,fluent,FLUENT,m,,,,,,0.384259259,-0.175,0,0,0,,0,236,236,98,1,
,,,,,,,,,,,,,,,,,,5f0f1c7ff1db6e0683cda086,2020-08-10_13h19.35.882,lexical_decision_task_MP,2020.1.3,Linux x86_64,60,m,0,0.567595,,,,,,,,0.567595,0,,,,,,304,NW,"ID",50,cludie,CLUDIE,z,,,,,,0.384259259,-0.175,0,0,0,,0,237,237,303,1,
,,,,,,,,,,,,,,,,,,5f0f1c7ff1db6e0683cda086,2020-08-10_13h19.35.882,lexical_decision_task_MP,2020.1.3,Linux x86_64,60,m,0,0.51139,,,,,,,,0.51139,0,,,,,,391,NW,UN,33,rouncy,THELDY,z,,,,,,0.384259259,-0.175,0,0,0,,0,238,238,390,1,
,,,,,,,,,,,,,,,,,,5f0f1c7ff1db6e0683cda086,2020-08-10_13h19.35.882,lexical_decision_task_MP,2020.1.3,Linux x86_64,60,m,0,0.56899,,,,,,,,0.56899,0,,,,,,272,NW,"ID",33,damilt,DAMILT,z,,,,,,0.384259259,-0.175,0,0,0,,0,239,239,271,1,
,,,,,,,,,,,,,,,,,,5f0f1c7ff1db6e0683cda086,2020-08-10_13h19.35.882,lexical_decision_task_MP,2020.1.3,Linux x86_64,60,m,1,0.448315,,,,,,,,0.448315,1,,,,,,29,WORD,"ID",33,sketch,SKETCH,m,,,,,,0.384259259,-0.175,0,0,0,,0,240,240,28,1,
,,,,,,,,,,,,,,,,,,5f0f1c7ff1db6e0683cda086,2020-08-10_13h19.35.882,lexical_decision_task_MP,2020.1.3,Linux x86_64,60,m,1,0.50407,,,,,,,,0.50407,1,,,,,,180,WORD,UN,33,thrive,SILENT,m,,,,,,0.384259259,-0.175,0,0,0,space,0,241,241,179,1,1.277455
,,,,,,,,,,,,,,,,,,5f0f1c7ff1db6e0683cda086,2020-08-10_13h19.35.882,lexical_decision_task_MP,2020.1.3,Linux x86_64,60,m,0,0.549755,,,,,,,,0.549755,0,,,,,,340,NW,"ID",50,fiatch,FIATCH,z,,,,,,0.384259259,-0.175,0,0,0,,0,242,242,339,1,
,,,,,,,,,,,,,,,,,,5f0f1c7ff1db6e0683cda086,2020-08-10_13h19.35.882,lexical_decision_task_MP,2020.1.3,Linux x86_64,60,m,0,0.443065,,,,,,,,0.443065,0,,,,,,314,NW,"ID",50,sprine,SPRINE,z,,,,,,0.384259259,-0.175,0,0,0,,0,243,243,313,1,
,,,,,,,,,,,,,,,,,,5f0f1c7ff1db6e0683cda086,2020-08-10_13h19.35.882,lexical_decision_task_MP,2020.1.3,Linux x86_64,60,m,0,0.515665,,,,,,,,0.515665,0,,,,,,324,NW,"ID",50,steikh,STEIKH,z,,,,,,0.384259259,-0.175,0,0,0,,0,244,244,323,1,
,,,,,,,,,,,,,,,,,,5f0f1c7ff1db6e0683cda086,2020-08-10_13h19.35.882,lexical_decision_task_MP,2020.1.3,Linux x86_64,60,m,1,0.663355,,,,,,,,0.663355,1,,,,,,18,WORD,"ID",33,humble,HUMBLE,m,,,,,,0.384259259,-0.175,0,0,0,,0,245,245,17,1,
,,,,,,,,,,,,,,,,,,5f0f1c7ff1db6e0683cda086,2020-08-10_13h19.35.882,lexical_decision_task_MP,2020.1.3,Linux x86_64,60,m,1,0.556905,,,,,,,,0.556905,1,,,,,,75,WORD,"ID",50,trophy,TROPHY,m,,,,,,0.384259259,-0.175,0,0,0,,0,246,246,74,1,
,,,,,,,,,,,,,,,,,,5f0f1c7ff1db6e0683cda086,2020-08-10_13h19.35.882,lexical_decision_task_MP,2020.1.3,Linux x86_64,60,m,0,0.620205,,,,,,,,0.620205,0,,,,,,456,NW,UN,50,wanigh,BROGET,z,,,,,,0.384259259,-0.175,0,0,0,,0,247,247,455,1,
,,,,,,,,,,,,,,,,,,5f0f1c7ff1db6e0683cda086,2020-08-10_13h19.35.882,lexical_decision_task_MP,2020.1.3,Linux x86_64,60,m,1,0.76543,,,,,,,,0.76543,1,,,,,,147,WORD,UN,33,custom,GARLIC,m,,,,,,0.384259259,-0.175,0,0,0,,0,248,248,146,1,
,,,,,,,,,,,,,,,,,,5f0f1c7ff1db6e0683cda086,2020-08-10_13h19.35.882,lexical_decision_task_MP,2020.1.3,Linux x86_64,60,z,1,0.453565,,,,,,,,0.453565,1,,,,,,377,NW,UN,33,shrile,INJORE,z,,,,,,0.384259259,-0.175,0,0,0,,0,249,249,376,1,
,,,,,,,,,,,,,,,,,,5f0f1c7ff1db6e0683cda086,2020-08-10_13h19.35.882,lexical_decision_task_MP,2020.1.3,Linux x86_64,60,z,1,0.59938,,,,,,,,0.59938,1,,,,,,453,NW,UN,50,scouge,BOLVIS,z,,,,,,0.384259259,-0.175,0,0,0,,0,250,250,452,1,
,,,,,,,,,,,,,,,,,,5f0f1c7ff1db6e0683cda086,2020-08-10_13h19.35.882,lexical_decision_task_MP,2020.1.3,Linux x86_64,60,m,1,0.730445,,,,,,,,0.730445,1,,,,,,49,WORD,"ID",33,survey,SURVEY,m,,,,,,0.384259259,-0.175,0,0,0,,0,251,251,48,1,
,,,,,,,,,,,,,,,,,,5f0f1c7ff1db6e0683cda086,2020-08-10_13h19.35.882,lexical_decision_task_MP,2020.1.3,Linux x86_64,60,z,1,0.61048,,,,,,,,0.61048,1,,,,,,288,NW,"ID",33,yaceup,YACEUP,z,,,,,,0.384259259,-0.175,0,0,0,,0,252,252,287,1,
,,,,,,,,,,,,,,,,,,5f0f1c7ff1db6e0683cda086,2020-08-10_13h19.35.882,lexical_decision_task_MP,2020.1.3,Linux x86_64,60,z,1,0.672105,,,,,,,,0.672105,1,,,,,,270,NW,"ID",33,wrimsy,WRIMSY,z,,,,,,0.384259259,-0.175,0,0,0,,0,253,253,269,1,
,,,,,,,,,,,,,,,,,,5f0f1c7ff1db6e0683cda086,2020-08-10_13h19.35.882,lexical_decision_task_MP,2020.1.3,Linux x86_64,60,m,0,0.661875,,,,,,,,0.661875,0,,,,,,365,NW,UN,33,toshel,GUAIRT,z,,,,,,0.384259259,-0.175,0,0,0,,0,254,254,364,1,
,,,,,,,,,,,,,,,,,,5f0f1c7ff1db6e0683cda086,2020-08-10_13h19.35.882,lexical_decision_task_MP,2020.1.3,Linux x86_64,60,m,1,0.97304,,,,,,,,0.97304,1,,,,,,194,WORD,UN,50,resign,ABSENT,m,,,,,,0.384259259,-0.175,0,0,0,,0,255,255,193,1,
,,,,,,,,,,,,,,,,,,5f0f1c7ff1db6e0683cda086,2020-08-10_13h19.35.882,lexical_decision_task_MP,2020.1.3,Linux x86_64,60,m,1,0.669945,,,,,,,,0.669945,1,,,,,,96,WORD,"ID",50,ignore,IGNORE,m,,,,,,0.384259259,-0.175,0,0,0,,0,256,256,95,1,
,,,,,,,,,,,,,,,,,,5f0f1c7ff1db6e0683cda086,2020-08-10_13h19.35.882,lexical_decision_task_MP,2020.1.3,Linux x86_64,60,m,1,0.503975,,,,,,,,0.503975,1,,,,,,91,WORD,"ID",50,expand,EXPAND,m,,,,,,0.384259259,-0.175,0,0,0,,0,257,257,90,1,
,,,,,,,,,,,,,,,,,,5f0f1c7ff1db6e0683cda086,2020-08-10_13h19.35.882,lexical_decision_task_MP,2020.1.3,Linux x86_64,60,z,1,0.91695,,,,,,,,0.91695,1,,,,,,446,NW,UN,50,gircue,RUNAMO,z,,,,,,0.384259259,-0.175,0,0,0,,0,258,258,445,1,
,,,,,,,,,,,,,,,,,,5f0f1c7ff1db6e0683cda086,2020-08-10_13h19.35.882,lexical_decision_task_MP,2020.1.3,Linux x86_64,60,z,1,0.60153,,,,,,,,0.60153,1,,,,,,290,NW,"ID",33,splino,SPLINO,z,,,,,,0.384259259,-0.175,0,0,0,,0,259,259,289,1,
,,,,,,,,,,,,,,,,,,5f0f1c7ff1db6e0683cda086,2020-08-10_13h19.35.882,lexical_decision_task_MP,2020.1.3,Linux x86_64,60,z,1,0.683695,,,,,,,,0.683695,1,,,,,,302,NW,"ID",50,miluer,MILUER,z,,,,,,0.384259259,-0.175,0,0,0,,0,260,260,301,1,
,,,,,,,,,,,,,,,,,,5f0f1c7ff1db6e0683cda086,2020-08-10_13h19.35.882,lexical_decision_task_MP,2020.1.3,Linux x86_64,60,m,1,0.66513,,,,,,,,0.66513,1,,,,,,227,WORD,UN,50,master,SELDOM,m,,,,,,0.384259259,-0.175,0,0,0,,0,261,261,226,1,
,,,,,,,,,,,,,,,,,,5f0f1c7ff1db6e0683cda086,2020-08-10_13h19.35.882,lexical_decision_task_MP,2020.1.3,Linux x86_64,60,m,1,0.681675,,,,,,,,0.681675,1,,,,,,101,WORD,"ID",50,wrench,WRENCH,m,,,,,,0.384259259,-0.175,0,0,0,,0,262,262,100,1,
,,,,,,,,,,,,,,,,,,5f0f1c7ff1db6e0683cda086,2020-08-10_13h19.35.882,lexical_decision_task_MP,2020.1.3,Linux x86_64,60,m,1,0.569615,,,,,,,,0.569615,1,,,,,,190,WORD,UN,50,stable,BACKUP,m,,,,,,0.384259259,-0.175,0,0,0,,0,263,263,189,1,
,,,,,,,,,,,,,,,,,,5f0f1c7ff1db6e0683cda086,2020-08-10_13h19.35.882,lexical_decision_task_MP,2020.1.3,Linux x86_64,60,m,1,0.900565,,,,,,,,0.900565,1,,,,,,24,WORD,"ID",33,praise,PRAISE,m,,,,,,0.384259259,-0.175,0,0,0,,0,264,264,23,1,
,,,,,,,,,,,,,,,,,,5f0f1c7ff1db6e0683cda086,2020-08-10_13h19.35.882,lexical_decision_task_MP,2020.1.3,Linux x86_64,60,m,0,0.915485,,,,,,,,0.915485,0,,,,,,361,NW,UN,33,tireau,PAUCHE,z,,,,,,0.384259259,-0.175,0,0,0,,0,265,265,360,1,
,,,,,,,,,,,,,,,,,,5f0f1c7ff1db6e0683cda086,2020-08-10_13h19.35.882,lexical_decision_task_MP,2020.1.3,Linux x86_64,60,m,1,0.508485,,,,,,,,0.508485,1,,,,,,52,WORD,"ID",33,impose,IMPOSE,m,,,,,,0.384259259,-0.175,0,0,0,,0,266,266,51,1,
,,,,,,,,,,,,,,,,,,5f0f1c7ff1db6e0683cda086,2020-08-10_13h19.35.882,lexical_decision_task_MP,2020.1.3,Linux x86_64,60,m,1,0.44882,,,,,,,,0.44882,1,,,,,,1,WORD,"ID",33,fright,FRIGHT,m,,,,,,0.384259259,-0.175,0,0,0,,0,267,267,0,1,
,,,,,,,,,,,,,,,,,,5f0f1c7ff1db6e0683cda086,2020-08-10_13h19.35.882,lexical_decision_task_MP,2020.1.3,Linux x86_64,60,m,1,0.522585,,,,,,,,0.522585,1,,,,,,133,WORD,UN,33,debris,CHROME,m,,,,,,0.384259259,-0.175,0,0,0,,0,268,268,132,1,
,,,,,,,,,,,,,,,,,,5f0f1c7ff1db6e0683cda086,2020-08-10_13h19.35.882,lexical_decision_task_MP,2020.1.3,Linux x86_64,60,m,1,0.57592,,,,,,,,0.57592,1,,,,,,178,WORD,UN,33,mildew,INFORM,m,,,,,,0.384259259,-0.175,0,0,0,,0,269,269,177,1,
,,,,,,,,,,,,,,,,,,5f0f1c7ff1db6e0683cda086,2020-08-10_13h19.35.882,lexical_decision_task_MP,2020.1.3,Linux x86_64,60,m,1,0.84976,,,,,,,,0.84976,1,,,,,,142,WORD,UN,33,orphan,SPRUCE,m,,,,,,0.384259259,-0.175,0,0,0,,0,270,270,141,1,
,,,,,,,,,,,,,,,,,,5f0f1c7ff1db6e0683cda086,2020-08-10_13h19.35.882,lexical_decision_task_MP,2020.1.3,Linux x86_64,60,z,1,0.767785,,,,,,,,0.767785,1,,,,,,252,NW,"ID",33,stapod,STAPOD,z,,,,,,0.384259259,-0.175,0,0,0,,0,271,271,251,1,
,,,,,,,,,,,,,,,,,,5f0f1c7ff1db6e0683cda086,2020-08-10_13h19.35.882,lexical_decision_task_MP,2020.1.3,Linux x86_64,60,m,0,0.81057,,,,,,,,0.81057,0,,,,,,393,NW,UN,33,spaqux,GANOUS,z,,,,,,0.384259259,-0.175,0,0,0,,0,272,272,392,1,
,,,,,,,,,,,,,,,,,,5f0f1c7ff1db6e0683cda086,2020-08-10_13h19.35.882,lexical_decision_task_MP,2020.1.3,Linux x86_64,60,m,1,1.083905,,,,,,,,1.083905,1,,,,,,164,WORD,UN,33,invest,MARKET,m,,,,,,0.384259259,-0.175,0,0,0,,0,273,273,163,1,
,,,,,,,,,,,,,,,,,,5f0f1c7ff1db6e0683cda086,2020-08-10_13h19.35.882,lexical_decision_task_MP,2020.1.3,Linux x86_64,60,z,0,0.852985,,,,,,,,0.852985,0,,,,,,40,WORD,"ID",33,convey,CONVEY,m,,,,,,0.384259259,-0.175,0,0,0,,0,274,274,39,1,
,,,,,,,,,,,,,,,,,,5f0f1c7ff1db6e0683cda086,2020-08-10_13h19.35.882,lexical_decision_task_MP,2020.1.3,Linux x86_64,60,m,0,0.490125,,,,,,,,0.490125,0,,,,,,328,NW,"ID",50,broake,BROAKE,z,,,,,,0.384259259,-0.175,0,0,0,,0,275,275,327,1,
,,,,,,,,,,,,,,,,,,5f0f1c7ff1db6e0683cda086,2020-08-10_13h19.35.882,lexical_decision_task_MP,2020.1.3,Linux x86_64,60,m,0,1.36171,,,,,,,,1.36171,0,,,,,,353,NW,"ID",50,clurey,CLUREY,z,,,,,,0.384259259,-0.175,0,0,0,,0,276,276,352,1,
,,,,,,,,,,,,,,,,,,5f0f1c7ff1db6e0683cda086,2020-08-10_13h19.35.882,lexical_decision_task_MP,2020.1.3,Linux x86_64,60,m,1,0.91704,,,,,,,,0.91704,1,,,,,,221,WORD,UN,50,hinder,MASCOT,m,,,,,,0.384259259,-0.175,0,0,0,,0,277,277,220,1,
,,,,,,,,,,,,,,,,,,5f0f1c7ff1db6e0683cda086,2020-08-10_13h19.35.882,lexical_decision_task_MP,2020.1.3,Linux x86_64,60,m,0,0.859415,,,,,,,,0.859415,0,,,,,,399,NW,UN,33,wearox,FOURET,z,,,,,,0.384259259,-0.175,0,0,0,,0,278,278,398,1,
,,,,,,,,,,,,,,,,,,5f0f1c7ff1db6e0683cda086,2020-08-10_13h19.35.882,lexical_decision_task_MP,2020.1.3,Linux x86_64,60,m,1,0.61562,,,,,,,,0.61562,1,,,,,,53,WORD,"ID",33,police,POLICE,m,,,,,,0.384259259,-0.175,0,0,0,,0,279,279,52,1,
,,,,,,,,,,,,,,,,,,5f0f1c7ff1db6e0683cda086,2020-08-10_13h19.35.882,lexical_decision_task_MP,2020.1.3,Linux x86_64,60,m,1,0.575145,,,,,,,,0.575145,1,,,,,,192,WORD,UN,50,object,PLAGUE,m,,,,,,0.384259259,-0.175,0,0,0,,0,280,280,191,1,
,,,,,,,,,,,,,,,,,,5f0f1c7ff1db6e0683cda086,2020-08-10_13h19.35.882,lexical_decision_task_MP,2020.1.3,Linux x86_64,60,m,0,0.810645,,,,,,,,0.810645,0,,,,,,443,NW,UN,50,jaunce,DORSEX,z,,,,,,0.384259259,-0.175,0,0,0,,0,281,281,442,1,
,,,,,,,,,,,,,,,,,,5f0f1c7ff1db6e0683cda086,2020-08-10_13h19.35.882,lexical_decision_task_MP,2020.1.3,Linux x86_64,60,m,1,0.669055,,,,,,,,0.669055,1,,,,,,20,WORD,"ID",33,breast,BREAST,m,,,,,,0.384259259,-0.175,0,0,0,,0,282,282,19,1,
,,,,,,,,,,,,,,,,,,5f0f1c7ff1db6e0683cda086,2020-08-10_13h19.35.882,lexical_decision_task_MP,2020.1.3,Linux x86_64,60,z,1,0.732915,,,,,,,,0.732915,1,,,,,,312,NW,"ID",50,nerawl,NERAWL,z,,,,,,0.384259259,-0.175,0,0,0,,0,283,283,311,1,
,,,,,,,,,,,,,,,,,,5f0f1c7ff1db6e0683cda086,2020-08-10_13h19.35.882,lexical_decision_task_MP,2020.1.3,Linux x86_64,60,z,1,0.73255,,,,,,,,0.73255,1,,,,,,309,NW,"ID",50,amiloy,AMILOY,z,,,,,,0.384259259,-0.175,0,0,0,,0,284,284,308,1,
,,,,,,,,,,,,,,,,,,5f0f1c7ff1db6e0683cda086,2020-08-10_13h19.35.882,lexical_decision_task_MP,2020.1.3,Linux x86_64,60,z,1,0.60122,,,,,,,,0.60122,1,,,,,,355,NW,"ID",50,zingly,ZINGLY,z,,,,,,0.384259259,-0.175,0,0,0,,0,285,285,354,1,
,,,,,,,,,,,,,,,,,,5f0f1c7ff1db6e0683cda086,2020-08-10_13h19.35.882,lexical_decision_task_MP,2020.1.3,Linux x86_64,60,m,1,0.50241,,,,,,,,0.50241,1,,,,,,216,WORD,UN,50,liquor,BEHALF,m,,,,,,0.384259259,-0.175,0,0,0,,0,286,286,215,1,
,,,,,,,,,,,,,,,,,,5f0f1c7ff1db6e0683cda086,2020-08-10_13h19.35.882,lexical_decision_task_MP,2020.1.3,Linux x86_64,60,z,0,0.72737,,,,,,,,0.72737,0,,,,,,161,WORD,UN,33,candle,PASTOR,m,,,,,,0.384259259,-0.175,0,0,0,,0,287,287,160,1,
,,,,,,,,,,,,,,,,,,5f0f1c7ff1db6e0683cda086,2020-08-10_13h19.35.882,lexical_decision_task_MP,2020.1.3,Linux x86_64,60,m,0,0.725565,,,,,,,,0.725565,0,,,,,,379,NW,UN,33,cavory,AUTING,z,,,,,,0.384259259,-0.175,0,0,0,,0,288,288,378,1,
,,,,,,,,,,,,,,,,,,5f0f1c7ff1db6e0683cda086,2020-08-10_13h19.35.882,lexical_decision_task_MP,2020.1.3,Linux x86_64,60,m,0,0.634635,,,,,,,,0.634635,0,,,,,,431,NW,UN,50,lunker,CHRUMS,z,,,,,,0.384259259,-0.175,0,0,0,,0,289,289,430,1,
,,,,,,,,,,,,,,,,,,5f0f1c7ff1db6e0683cda086,2020-08-10_13h19.35.882,lexical_decision_task_MP,2020.1.3,Linux x86_64,60,m,1,0.59173,,,,,,,,0.59173,1,,,,,,2,WORD,"ID",33,bridge,BRIDGE,m,,,,,,0.384259259,-0.175,0,0,0,,0,290,290,1,1,
,,,,,,,,,,,,,,,,,,5f0f1c7ff1db6e0683cda086,2020-08-10_13h19.35.882,lexical_decision_task_MP,2020.1.3,Linux x86_64,60,m,1,0.519115,,,,,,,,0.519115,1,,,,,,88,WORD,"ID",50,hunger,HUNGER,m,,,,,,0.384259259,-0.175,0,0,0,,0,291,291,87,1,
,,,,,,,,,,,,,,,,,,5f0f1c7ff1db6e0683cda086,2020-08-10_13h19.35.882,lexical_decision_task_MP,2020.1.3,Linux x86_64,60,m,1,0.67042,,,,,,,,0.67042,1,,,,,,63,WORD,"ID",50,launch,LAUNCH,m,,,,,,0.384259259,-0.175,0,0,0,,0,292,292,62,1,
,,,,,,,,,,,,,,,,,,5f0f1c7ff1db6e0683cda086,2020-08-10_13h19.35.882,lexical_decision_task_MP,2020.1.3,Linux x86_64,60,m,0,0.52896,,,,,,,,0.52896,0,,,,,,258,NW,"ID",33,poluth,POLUTH,z,,,,,,0.384259259,-0.175,0,0,0,,0,293,293,257,1,
,,,,,,,,,,,,,,,,,,5f0f1c7ff1db6e0683cda086,2020-08-10_13h19.35.882,lexical_decision_task_MP,2020.1.3,Linux x86_64,60,z,1,0.54076,,,,,,,,0.54076,1,,,,,,273,NW,"ID",33,sortel,SORTEL,z,,,,,,0.384259259,-0.175,0,0,0,,0,294,294,272,1,
,,,,,,,,,,,,,,,,,,5f0f1c7ff1db6e0683cda086,2020-08-10_13h19.35.882,lexical_decision_task_MP,2020.1.3,Linux x86_64,60,z,1,0.648945,,,,,,,,0.648945,1,,,,,,372,NW,UN,33,bigent,RAMILY,z,,,,,,0.384259259,-0.175,0,0,0,,0,295,295,371,1,
,,,,,,,,,,,,,,,,,,5f0f1c7ff1db6e0683cda086,2020-08-10_13h19.35.882,lexical_decision_task_MP,2020.1.3,Linux x86_64,60,m,0,0.944945,,,,,,,,0.944945,0,,,,,,428,NW,UN,50,chrums,TANDLY,z,,,,,,0.384259259,-0.175,0,0,0,,0,296,296,427,1,
,,,,,,,,,,,,,,,,,,5f0f1c7ff1db6e0683cda086,2020-08-10_13h19.35.882,lexical_decision_task_MP,2020.1.3,Linux x86_64,60,m,0,0.513375,,,,,,,,0.513375,0,,,,,,249,NW,"ID",33,batrol,BATROL,z,,,,,,0.384259259,-0.175,0,0,0,,0,297,297,248,1,
,,,,,,,,,,,,,,,,,,5f0f1c7ff1db6e0683cda086,2020-08-10_13h19.35.882,lexical_decision_task_MP,2020.1.3,Linux x86_64,60,m,1,0.64858,,,,,,,,0.64858,1,,,,,,30,WORD,"ID",33,orient,ORIENT,m,,,,,,0.384259259,-0.175,0,0,0,,0,298,298,29,1,
,,,,,,,,,,,,,,,,,,5f0f1c7ff1db6e0683cda086,2020-08-10_13h19.35.882,lexical_decision_task_MP,2020.1.3,Linux x86_64,60,z,0,0.87097,,,,,,,,0.87097,0,,,,,,203,WORD,UN,50,burden,PHRASE,m,,,,,,0.384259259,-0.175,0,0,0,,0,299,299,202,1,
,,,,,,,,,,,,,,,,,,5f0f1c7ff1db6e0683cda086,2020-08-10_13h19.35.882,lexical_decision_task_MP,2020.1.3,Linux x86_64,60,m,1,0.391635,,,,,,,,0.391635,1,,,,,,177,WORD,UN,33,inform,ADVENT,m,,,,,,0.384259259,-0.175,0,0,0,,0,300,300,176,1,
,,,,,,,,,,,,,,,,,,5f0f1c7ff1db6e0683cda086,2020-08-10_13h19.35.882,lexical_decision_task_MP,2020.1.3,Linux x86_64,60,z,1,0.671285,,,,,,,,0.671285,1,,,,,,298,NW,"ID",33,piergy,PIERGY,z,,,,,,0.384259259,-0.175,0,0,0,,0,301,301,297,1,
,,,,,,,,,,,,,,,,,,5f0f1c7ff1db6e0683cda086,2020-08-10_13h19.35.882,lexical_decision_task_MP,2020.1.3,Linux x86_64,60,m,0,0.638025,,,,,,,,0.638025,0,,,,,,451,NW,UN,50,surden,CAINKY,z,,,,,,0.384259259,-0.175,0,0,0,,0,302,302,450,1,
,,,,,,,,,,,,,,,,,,5f0f1c7ff1db6e0683cda086,2020-08-10_13h19.35.882,lexical_decision_task_MP,2020.1.3,Linux x86_64,60,m,1,0.53569,,,,,,,,0.53569,1,,,,,,35,WORD,"ID",33,socket,SOCKET,m,,,,,,0.384259259,-0.175,0,0,0,,0,303,303,34,1,
,,,,,,,,,,,,,,,,,,5f0f1c7ff1db6e0683cda086,2020-08-10_13h19.35.882,lexical_decision_task_MP,2020.1.3,Linux x86_64,60,m,0,0.481215,,,,,,,,0.481215,0,,,,,,241,NW,"ID",33,smenco,SMENCO,z,,,,,,0.384259259,-0.175,0,0,0,,0,304,304,240,1,
,,,,,,,,,,,,,,,,,,5f0f1c7ff1db6e0683cda086,2020-08-10_13h19.35.882,lexical_decision_task_MP,2020.1.3,Linux x86_64,60,m,0,0.2644,,,,,,,,0.2644,0,,,,,,243,NW,"ID",33,musied,MUSIED,z,,,,,,0.384259259,-0.175,0,0,0,,0,305,305,242,1,
,,,,,,,,,,,,,,,,,,5f0f1c7ff1db6e0683cda086,2020-08-10_13h19.35.882,lexical_decision_task_MP,2020.1.3,Linux x86_64,60,m,0,0.26344,,,,,,,,0.26344,0,,,,,,413,NW,UN,33,serbol,EQUATS,z,,,,,,0.384259259,-0.175,0,0,0,,0,306,306,412,1,
,,,,,,,,,,,,,,,,,,5f0f1c7ff1db6e0683cda086,2020-08-10_13h19.35.882,lexical_decision_task_MP,2020.1.3,Linux x86_64,60,m,0,0.44817,,,,,,,,0.44817,0,,,,,,448,NW,UN,50,brunge,SADENT,z,,,,,,0.384259259,-0.175,0,0,0,,0,307,307,447,1,
,,,,,,,,,,,,,,,,,,5f0f1c7ff1db6e0683cda086,2020-08-10_13h19.35.882,lexical_decision_task_MP,2020.1.3,Linux x86_64,60,m,0,0.272225,,,,,,,,0.272225,0,,,,,,473,NW,UN,50,hablin,CRIBLE,z,,,,,,0.384259259,-0.175,0,0,0,,0,308,308,472,1,
,,,,,,,,,,,,,,,,,,5f0f1c7ff1db6e0683cda086,2020-08-10_13h19.35.882,lexical_decision_task_MP,2020.1.3,Linux x86_64,60,m,0,0.632805,,,,,,,,0.632805,0,,,,,,454,NW,UN,50,tondle,SCOUGE,z,,,,,,0.384259259,-0.175,0,0,0,,0,309,309,453,1,
,,,,,,,,,,,,,,,,,,5f0f1c7ff1db6e0683cda086,2020-08-10_13h19.35.882,lexical_decision_task_MP,2020.1.3,Linux x86_64,60,m,1,0.614505,,,,,,,,0.614505,1,,,,,,51,WORD,"ID",33,hungry,HUNGRY,m,,,,,,0.384259259,-0.175,0,0,0,,0,310,310,50,1,
,,,,,,,,,,,,,,,,,,5f0f1c7ff1db6e0683cda086,2020-08-10_13h19.35.882,lexical_decision_task_MP,2020.1.3,Linux x86_64,60,m,1,0.551585,,,,,,,,0.551585,1,,,,,,173,WORD,UN,33,turkey,SHOWER,m,,,,,,0.384259259,-0.175,0,0,0,,0,311,311,172,1,
,,,,,,,,,,,,,,,,,,5f0f1c7ff1db6e0683cda086,2020-08-10_13h19.35.882,lexical_decision_task_MP,2020.1.3,Linux x86_64,60,m,0,0.420785,,,,,,,,0.420785,0,,,,,,339,NW,"ID",50,fachow,FACHOW,z,,,,,,0.384259259,-0.175,0,0,0,,0,312,312,338,1,
,,,,,,,,,,,,,,,,,,5f0f1c7ff1db6e0683cda086,2020-08-10_13h19.35.882,lexical_decision_task_MP,2020.1.3,Linux x86_64,60,m,0,0.66546,,,,,,,,0.66546,0,,,,,,310,NW,"ID",50,daniet,DANIET,z,,,,,,0.384259259,-0.175,0,0,0,,0,313,313,309,1,
,,,,,,,,,,,,,,,,,,5f0f1c7ff1db6e0683cda086,2020-08-10_13h19.35.882,lexical_decision_task_MP,2020.1.3,Linux x86_64,60,m,1,0.63236,,,,,,,,0.63236,1,,,,,,200,WORD,UN,50,admire,BEACON,m,,,,,,0.384259259,-0.175,0,0,0,,0,314,314,199,1,
,,,,,,,,,,,,,,,,,,5f0f1c7ff1db6e0683cda086,2020-08-10_13h19.35.882,lexical_decision_task_MP,2020.1.3,Linux x86_64,60,m,1,0.5519,,,,,,,,0.5519,1,,,,,,46,WORD,"ID",33,single,SINGLE,m,,,,,,0.384259259,-0.175,0,0,0,,0,315,315,45,1,
,,,,,,,,,,,,,,,,,,5f0f1c7ff1db6e0683cda086,2020-08-10_13h19.35.882,lexical_decision_task_MP,2020.1.3,Linux x86_64,60,z,1,0.645725,,,,,,,,0.645725,1,,,,,,412,NW,UN,33,equats,JILUER,z,,,,,,0.384259259,-0.175,0,0,0,,0,316,316,411,1,
,,,,,,,,,,,,,,,,,,5f0f1c7ff1db6e0683cda086,2020-08-10_13h19.35.882,lexical_decision_task_MP,2020.1.3,Linux x86_64,60,z,1,0.597615,,,,,,,,0.597615,1,,,,,,414,NW,UN,33,higsta,SERBOL,z,,,,,,0.384259259,-0.175,0,0,0,,0,317,317,413,1,
,,,,,,,,,,,,,,,,,,5f0f1c7ff1db6e0683cda086,2020-08-10_13h19.35.882,lexical_decision_task_MP,2020.1.3,Linux x86_64,60,z,1,0.65443,,,,,,,,0.65443,1,,,,,,282,NW,"ID",33,porlex,PORLEX,z,,,,,,0.384259259,-0.175,0,0,0,,0,318,318,281,1,
,,,,,,,,,,,,,,,,,,5f0f1c7ff1db6e0683cda086,2020-08-10_13h19.35.882,lexical_decision_task_MP,2020.1.3,Linux x86_64,60,m,1,0.575505,,,,,,,,0.575505,1,,,,,,185,WORD,UN,50,portal,BOTHER,m,,,,,,0.384259259,-0.175,0,0,0,,0,319,319,184,1,
,,,,,,,,,,,,,,,,,,5f0f1c7ff1db6e0683cda086,2020-08-10_13h19.35.882,lexical_decision_task_MP,2020.1.3,Linux x86_64,60,m,1,1.097575,,,,,,,,1.097575,1,,,,,,176,WORD,UN,33,advent,STRIFE,m,,,,,,0.384259259,-0.175,0,0,0,,0,320,320,175,1,
,,,,,,,,,,,,,,,,,,5f0f1c7ff1db6e0683cda086,2020-08-10_13h19.35.882,lexical_decision_task_MP,2020.1.3,Linux x86_64,60,m,0,0.550615,,,,,,,,0.550615,0,,,,,,469,NW,UN,50,crudio,PADIFS,z,,,,,,0.384259259,-0.175,0,0,0,,0,321,321,468,1,
,,,,,,,,,,,,,,,,,,5f0f1c7ff1db6e0683cda086,2020-08-10_13h19.35.882,lexical_decision_task_MP,2020.1.3,Linux x86_64,60,m,0,0.55557,,,,,,,,0.55557,0,,,,,,317,NW,"ID",50,worbal,WORBAL,z,,,,,,0.384259259,-0.175,0,0,0,,0,322,322,316,1,
,,,,,,,,,,,,,,,,,,5f0f1c7ff1db6e0683cda086,2020-08-10_13h19.35.882,lexical_decision_task_MP,2020.1.3,Linux x86_64,60,m,0,0.548555,,,,,,,,0.548555,0,,,,,,471,NW,UN,50,cigney,NOBEST,z,,,,,,0.384259259,-0.175,0,0,0,,0,323,323,470,1,
,,,,,,,,,,,,,,,,,,5f0f1c7ff1db6e0683cda086,2020-08-10_13h19.35.882,lexical_decision_task_MP,2020.1.3,Linux x86_64,60,m,0,0.373625,,,,,,,,0.373625,0,,,,,,458,NW,UN,50,chaite,BARCET,z,,,,,,0.384259259,-0.175,0,0,0,,0,324,324,457,1,
,,,,,,,,,,,,,,,,,,5f0f1c7ff1db6e0683cda086,2020-08-10_13h19.35.882,lexical_decision_task_MP,2020.1.3,Linux x86_64,60,z,1,0.48279,,,,,,,,0.48279,1,,,,,,250,NW,"ID",33,milted,MILTED,z,,,,,,0.384259259,-0.175,0,0,0,,0,325,325,249,1,
,,,,,,,,,,,,,,,,,,5f0f1c7ff1db6e0683cda086,2020-08-10_13h19.35.882,lexical_decision_task_MP,2020.1.3,Linux x86_64,60,m,0,0.431305,,,,,,,,0.431305,0,,,,,,280,NW,"ID",33,curbol,CURBOL,z,,,,,,0.384259259,-0.175,0,0,0,,0,326,326,279,1,
,,,,,,,,,,,,,,,,,,5f0f1c7ff1db6e0683cda086,2020-08-10_13h19.35.882,lexical_decision_task_MP,2020.1.3,Linux x86_64,60,m,0,0.57017,,,,,,,,0.57017,0,,,,,,410,NW,UN,33,orchin,TUNORY,z,,,,,,0.384259259,-0.175,0,0,0,,0,327,327,409,1,
,,,,,,,,,,,,,,,,,,5f0f1c7ff1db6e0683cda086,2020-08-10_13h19.35.882,lexical_decision_task_MP,2020.1.3,Linux x86_64,60,m,1,0.441015,,,,,,,,0.441015,1,,,,,,237,WORD,UN,50,seldom,POSTER,m,,,,,,0.384259259,-0.175,0,0,0,,0,328,328,236,1,
,,,,,,,,,,,,,,,,,,5f0f1c7ff1db6e0683cda086,2020-08-10_13h19.35.882,lexical_decision_task_MP,2020.1.3,Linux x86_64,60,m,1,0.43202,,,,,,,,0.43202,1,,,,,,60,WORD,"ID",33,pencil,PENCIL,m,,,,,,0.384259259,-0.175,0,0,0,,0,329,329,59,1,
,,,,,,,,,,,,,,,,,,5f0f1c7ff1db6e0683cda086,2020-08-10_13h19.35.882,lexical_decision_task_MP,2020.1.3,Linux x86_64,60,m,1,0.40023,,,,,,,,0.40023,1,,,,,,5,WORD,"ID",33,plunge,PLUNGE,m,,,,,,0.384259259,-0.175,0,0,0,,0,330,330,4,1,
,,,,,,,,,,,,,,,,,,5f0f1c7ff1db6e0683cda086,2020-08-10_13h19.35.882,lexical_decision_task_MP,2020.1.3,Linux x86_64,60,m,0,0.337915,,,,,,,,0.337915,0,,,,,,315,NW,"ID",50,laston,LASTON,z,,,,,,0.384259259,-0.175,0,0,0,,0,331,331,314,1,
,,,,,,,,,,,,,,,,,,5f0f1c7ff1db6e0683cda086,2020-08-10_13h19.35.882,lexical_decision_task_MP,2020.1.3,Linux x86_64,60,m,0,0.44268,,,,,,,,0.44268,0,,,,,,480,NW,UN,50,knisma,ROBULY,z,,,,,,0.384259259,-0.175,0,0,0,,0,332,332,479,1,
,,,,,,,,,,,,,,,,,,5f0f1c7ff1db6e0683cda086,2020-08-10_13h19.35.882,lexical_decision_task_MP,2020.1.3,Linux x86_64,60,m,1,0.38574,,,,,,,,0.38574,1,,,,,,129,WORD,UN,33,stupid,MARVEL,m,,,,,,0.384259259,-0.175,0,0,0,,0,333,333,128,1,
,,,,,,,,,,,,,,,,,,5f0f1c7ff1db6e0683cda086,2020-08-10_13h19.35.882,lexical_decision_task_MP,2020.1.3,Linux x86_64,60,m,1,0.41516,,,,,,,,0.41516,1,,,,,,113,WORD,"ID",50,chorus,CHORUS,m,,,,,,0.384259259,-0.175,0,0,0,,0,334,334,112,1,
,,,,,,,,,,,,,,,,,,5f0f1c7ff1db6e0683cda086,2020-08-10_13h19.35.882,lexical_decision_task_MP,2020.1.3,Linux x86_64,60,m,0,0.562695,,,,,,,,0.562695,0,,,,,,477,NW,UN,50,acrise,PHOTIE,z,,,,,,0.384259259,-0.175,0,0,0,,0,335,335,476,1,
,,,,,,,,,,,,,,,,,,5f0f1c7ff1db6e0683cda086,2020-08-10_13h19.35.882,lexical_decision_task_MP,2020.1.3,Linux x86_64,60,m,1,0.426095,,,,,,,,0.426095,1,,,,,,182,WORD,UN,50,basket,WINTER,m,,,,,,0.384259259,-0.175,0,0,0,,0,336,336,181,1,
,,,,,,,,,,,,,,,,,,5f0f1c7ff1db6e0683cda086,2020-08-10_13h19.35.882,lexical_decision_task_MP,2020.1.3,Linux x86_64,60,z,1,0.674625,,,,,,,,0.674625,1,,,,,,354,NW,"ID",50,virlex,VIRLEX,z,,,,,,0.384259259,-0.175,0,0,0,,0,337,337,353,1,
,,,,,,,,,,,,,,,,,,5f0f1c7ff1db6e0683cda086,2020-08-10_13h19.35.882,lexical_decision_task_MP,2020.1.3,Linux x86_64,60,m,1,0.32702,,,,,,,,0.32702,1,,,,,,68,WORD,"ID",50,fumble,FUMBLE,m,,,,,,0.384259259,-0.175,0,0,0,,0,338,338,67,1,
,,,,,,,,,,,,,,,,,,5f0f1c7ff1db6e0683cda086,2020-08-10_13h19.35.882,lexical_decision_task_MP,2020.1.3,Linux x86_64,60,m,1,0.48775,,,,,,,,0.48775,1,,,,,,62,WORD,"ID",50,region,REGION,m,,,,,,0.384259259,-0.175,0,0,0,,0,339,339,61,1,
,,,,,,,,,,,,,,,,,,5f0f1c7ff1db6e0683cda086,2020-08-10_13h19.35.882,lexical_decision_task_MP,2020.1.3,Linux x86_64,60,m,1,0.500485,,,,,,,,0.500485,1,,,,,,222,WORD,UN,50,casino,HINDER,m,,,,,,0.384259259,-0.175,0,0,0,,0,340,340,221,1,
,,,,,,,,,,,,,,,,,,5f0f1c7ff1db6e0683cda086,2020-08-10_13h19.35.882,lexical_decision_task_MP,2020.1.3,Linux x86_64,60,m,0,0.43718,,,,,,,,0.43718,0,,,,,,263,NW,"ID",33,dolica,DOLICA,z,,,,,,0.384259259,-0.175,0,0,0,,0,341,341,262,1,
,,,,,,,,,,,,,,,,,,5f0f1c7ff1db6e0683cda086,2020-08-10_13h19.35.882,lexical_decision_task_MP,2020.1.3,Linux x86_64,60,m,0,0.500625,,,,,,,,0.500625,0,,,,,,418,NW,UN,33,slount,SUIDLE,z,,,,,,0.384259259,-0.175,0,0,0,,0,342,342,417,1,
,,,,,,,,,,,,,,,,,,5f0f1c7ff1db6e0683cda086,2020-08-10_13h19.35.882,lexical_decision_task_MP,2020.1.3,Linux x86_64,60,m,1,0.40419,,,,,,,,0.40419,1,,,,,,206,WORD,UN,50,wreath,TAILOR,m,,,,,,0.384259259,-0.175,0,0,0,,0,343,343,205,1,
,,,,,,,,,,,,,,,,,,5f0f1c7ff1db6e0683cda086,2020-08-10_13h19.35.882,lexical_decision_task_MP,2020.1.3,Linux x86_64,60,m,1,0.238385,,,,,,,,0.238385,1,,,,,,47,WORD,"ID",33,income,INCOME,m,,,,,,0.384259259,-0.175,0,0,0,,0,344,344,46,1,
,,,,,,,,,,,,,,,,,,5f0f1c7ff1db6e0683cda086,2020-08-10_13h19.35.882,lexical_decision_task_MP,2020.1.3,Linux x86_64,60,m,0,0.2331,,,,,,,,0.2331,0,,,,,,403,NW,UN,33,cluirm,BRUATS,z,,,,,,0.384259259,-0.175,0,0,0,,0,345,345,402,1,
,,,,,,,,,,,,,,,,,,5f0f1c7ff1db6e0683cda086,2020-08-10_13h19.35.882,lexical_decision_task_MP,2020.1.3,Linux x86_64,60,m,0,0.348615,,,,,,,,0.348615,0,,,,,,397,NW,UN,33,blunde,CAMBLE,z,,,,,,0.384259259,-0.175,0,0,0,,0,346,346,396,1,
,,,,,,,,,,,,,,,,,,5f0f1c7ff1db6e0683cda086,2020-08-10_13h19.35.882,lexical_decision_task_MP,2020.1.3,Linux x86_64,60,m,0,0.384185,,,,,,,,0.384185,0,,,,,,337,NW,"ID",50,rejols,REJOLS,z,,,,,,0.384259259,-0.175,0,0,0,,0,347,347,336,1,
,,,,,,,,,,,,,,,,,,5f0f1c7ff1db6e0683cda086,2020-08-10_13h19.35.882,lexical_decision_task_MP,2020.1.3,Linux x86_64,60,m,1,0.40453,,,,,,,,0.40453,1,,,,,,170,WORD,UN,33,depart,POUNCE,m,,,,,,0.384259259,-0.175,0,0,0,,0,348,348,169,1,
,,,,,,,,,,,,,,,,,,5f0f1c7ff1db6e0683cda086,2020-08-10_13h19.35.882,lexical_decision_task_MP,2020.1.3,Linux x86_64,60,m,0,0.470965,,,,,,,,0.470965,0,,,,,,283,NW,"ID",33,veralf,VERALF,z,,,,,,0.384259259,-0.175,0,0,0,,0,349,349,282,1,
,,,,,,,,,,,,,,,,,,5f0f1c7ff1db6e0683cda086,2020-08-10_13h19.35.882,lexical_decision_task_MP,2020.1.3,Linux x86_64,60,m,1,0.536765,,,,,,,,0.536765,1,,,,,,240,WORD,UN,50,glance,FOREST,m,,,,,,0.384259259,-0.175,0,0,0,,0,350,350,239,1,
,,,,,,,,,,,,,,,,,,5f0f1c7ff1db6e0683cda086,2020-08-10_13h19.35.882,lexical_decision_task_MP,2020.1.3,Linux x86_64,60,m,0,0.69546,,,,,,,,0.69546,0,,,,,,318,NW,"ID",50,reagly,REAGLY,z,,,,,,0.384259259,-0.175,0,0,0,,0,351,351,317,1,
,,,,,,,,,,,,,,,,,,5f0f1c7ff1db6e0683cda086,2020-08-10_13h19.35.882,lexical_decision_task_MP,2020.1.3,Linux x86_64,60,m,1,0.498875,,,,,,,,0.498875,1,,,,,,172,WORD,UN,33,shower,PATROL,m,,,,,,0.384259259,-0.175,0,0,0,,0,352,352,171,1,
,,,,,,,,,,,,,,,,,,5f0f1c7ff1db6e0683cda086,2020-08-10_13h19.35.882,lexical_decision_task_MP,2020.1.3,Linux x86_64,60,m,0,0.61508,,,,,,,,0.61508,0,,,,,,299,NW,"ID",33,sturch,STURCH,z,,,,,,0.384259259,-0.175,0,0,0,,0,353,353,298,1,
,,,,,,,,,,,,,,,,,,5f0f1c7ff1db6e0683cda086,2020-08-10_13h19.35.882,lexical_decision_task_MP,2020.1.3,Linux x86_64,60,m,1,0.556495,,,,,,,,0.556495,1,,,,,,70,WORD,"ID",50,square,SQUARE,m,,,,,,0.384259259,-0.175,0,0,0,,0,354,354,69,1,
,,,,,,,,,,,,,,,,,,5f0f1c7ff1db6e0683cda086,2020-08-10_13h19.35.882,lexical_decision_task_MP,2020.1.3,Linux x86_64,60,m,1,0.660725,,,,,,,,0.660725,1,,,,,,131,WORD,UN,33,strong,QUENCH,m,,,,,,0.384259259,-0.175,0,0,0,,0,355,355,130,1,
,,,,,,,,,,,,,,,,,,5f0f1c7ff1db6e0683cda086,2020-08-10_13h19.35.882,lexical_decision_task_MP,2020.1.3,Linux x86_64,60,m,1,0.49073,,,,,,,,0.49073,1,,,,,,104,WORD,"ID",50,studio,STUDIO,m,,,,,,0.384259259,-0.175,0,0,0,,0,356,356,103,1,
,,,,,,,,,,,,,,,,,,5f0f1c7ff1db6e0683cda086,2020-08-10_13h19.35.882,lexical_decision_task_MP,2020.1.3,Linux x86_64,60,m,1,0.46759,,,,,,,,0.46759,1,,,,,,25,WORD,"ID",33,domain,DOMAIN,m,,,,,,0.384259259,-0.175,0,0,0,,0,357,357,24,1,
,,,,,,,,,,,,,,,,,,5f0f1c7ff1db6e0683cda086,2020-08-10_13h19.35.882,lexical_decision_task_MP,2020.1.3,Linux x86_64,60,z,1,0.671435,,,,,,,,0.671435,1,,,,,,362,NW,UN,33,breali,TIREAU,z,,,,,,0.384259259,-0.175,0,0,0,,0,358,358,361,1,
,,,,,,,,,,,,,,,,,,5f0f1c7ff1db6e0683cda086,2020-08-10_13h19.35.882,lexical_decision_task_MP,2020.1.3,Linux x86_64,60,m,0,0.58818,,,,,,,,0.58818,0,,,,,,296,NW,"ID",33,beinch,BEINCH,z,,,,,,0.384259259,-0.175,0,0,0,,0,359,359,295,1,
,,,,,,,,,,,,,,,,,,5f0f1c7ff1db6e0683cda086,2020-08-10_13h19.35.882,lexical_decision_task_MP,2020.1.3,Linux x86_64,60,z,0,0.476595,,,,,,,,0.476595,0,,,,,,199,WORD,UN,50,beacon,INVOKE,m,,,,,,0.384259259,-0.175,0,0,0,,0,360,360,198,1,
,,,,,,,,,,,,,,,,,,5f0f1c7ff1db6e0683cda086,2020-08-10_13h19.35.882,lexical_decision_task_MP,2020.1.3,Linux x86_64,60,m,1,0.561135,,,,,,,,0.561135,1,,,,,,213,WORD,UN,50,intake,SQUEAL,m,,,,,,0.384259259,-0.175,0,0,0,,0,361,361,212,1,
,,,,,,,,,,,,,,,,,,5f0f1c7ff1db6e0683cda086,2020-08-10_13h19.35.882,lexical_decision_task_MP,2020.1.3,Linux x86_64,60,m,1,0.450865,,,,,,,,0.450865,1,,,,,,19,WORD,"ID",33,patron,PATRON,m,,,,,,0.384259259,-0.175,0,0,0,space,0,362,362,18,1,0.92783
,,,,,,,,,,,,,,,,,,5f0f1c7ff1db6e0683cda086,2020-08-10_13h19.35.882,lexical_decision_task_MP,2020.1.3,Linux x86_64,60,m,0,0.535405,,,,,,,,0.535405,0,,,,,,440,NW,UN,50,cainky,SARIDE,z,,,,,,0.384259259,-0.175,0,0,0,,0,363,363,439,1,
,,,,,,,,,,,,,,,,,,5f0f1c7ff1db6e0683cda086,2020-08-10_13h19.35.882,lexical_decision_task_MP,2020.1.3,Linux x86_64,60,m,1,0.48257,,,,,,,,0.48257,1,,,,,,150,WORD,UN,33,mystic,RANDOM,m,,,,,,0.384259259,-0.175,0,0,0,,0,364,364,149,1,
,,,,,,,,,,,,,,,,,,5f0f1c7ff1db6e0683cda086,2020-08-10_13h19.35.882,lexical_decision_task_MP,2020.1.3,Linux x86_64,60,m,0,0.497915,,,,,,,,0.497915,0,,,,,,386,NW,UN,33,gronce,ANCUST,z,,,,,,0.384259259,-0.175,0,0,0,,0,365,365,385,1,
,,,,,,,,,,,,,,,,,,5f0f1c7ff1db6e0683cda086,2020-08-10_13h19.35.882,lexical_decision_task_MP,2020.1.3,Linux x86_64,60,z,1,0.66936,,,,,,,,0.66936,1,,,,,,253,NW,"ID",33,resait,RESAIT,z,,,,,,0.384259259,-0.175,0,0,0,,0,366,366,252,1,
,,,,,,,,,,,,,,,,,,5f0f1c7ff1db6e0683cda086,2020-08-10_13h19.35.882,lexical_decision_task_MP,2020.1.3,Linux x86_64,60,m,0,0.450605,,,,,,,,0.450605,0,,,,,,364,NW,UN,33,guairt,IMPOTE,z,,,,,,0.384259259,-0.175,0,0,0,,0,367,367,363,1,
,,,,,,,,,,,,,,,,,,5f0f1c7ff1db6e0683cda086,2020-08-10_13h19.35.882,lexical_decision_task_MP,2020.1.3,Linux x86_64,60,m,0,0.616335,,,,,,,,0.616335,0,,,,,,407,NW,UN,33,hurnia,SUIVER,z,,,,,,0.384259259,-0.175,0,0,0,,0,368,368,406,1,
,,,,,,,,,,,,,,,,,,5f0f1c7ff1db6e0683cda086,2020-08-10_13h19.35.882,lexical_decision_task_MP,2020.1.3,Linux x86_64,60,z,1,0.807185,,,,,,,,0.807185,1,,,,,,425,NW,UN,50,schind,FRUDGE,z,,,,,,0.384259259,-0.175,0,0,0,,0,369,369,424,1,
,,,,,,,,,,,,,,,,,,5f0f1c7ff1db6e0683cda086,2020-08-10_13h19.35.882,lexical_decision_task_MP,2020.1.3,Linux x86_64,60,z,1,0.88849,,,,,,,,0.88849,1,,,,,,459,NW,UN,50,mingar,BAFENT,z,,,,,,0.384259259,-0.175,0,0,0,,0,370,370,458,1,
,,,,,,,,,,,,,,,,,,5f0f1c7ff1db6e0683cda086,2020-08-10_13h19.35.882,lexical_decision_task_MP,2020.1.3,Linux x86_64,60,m,0,0.72456,,,,,,,,0.72456,0,,,,,,305,NW,"ID",50,forgle,FORGLE,z,,,,,,0.384259259,-0.175,0,0,0,,0,371,371,304,1,
,,,,,,,,,,,,,,,,,,5f0f1c7ff1db6e0683cda086,2020-08-10_13h19.35.882,lexical_decision_task_MP,2020.1.3,Linux x86_64,60,m,1,0.961425,,,,,,,,0.961425,1,,,,,,42,WORD,"ID",33,chapel,CHAPEL,m,,,,,,0.384259259,-0.175,0,0,0,,0,372,372,41,1,
,,,,,,,,,,,,,,,,,,5f0f1c7ff1db6e0683cda086,2020-08-10_13h19.35.882,lexical_decision_task_MP,2020.1.3,Linux x86_64,60,z,0,0.670775,,,,,,,,0.670775,0,,,,,,69,WORD,"ID",50,plenty,PLENTY,m,,,,,,0.384259259,-0.175,0,0,0,,0,373,373,68,1,
,,,,,,,,,,,,,,,,,,5f0f1c7ff1db6e0683cda086,2020-08-10_13h19.35.882,lexical_decision_task_MP,2020.1.3,Linux x86_64,60,m,1,0.7437,,,,,,,,0.7437,1,,,,,,156,WORD,UN,33,pastor,CRADLE,m,,,,,,0.384259259,-0.175,0,0,0,,0,374,374,155,1,
,,,,,,,,,,,,,,,,,,5f0f1c7ff1db6e0683cda086,2020-08-10_13h19.35.882,lexical_decision_task_MP,2020.1.3,Linux x86_64,60,m,1,0.634395,,,,,,,,0.634395,1,,,,,,117,WORD,"ID",50,branch,BRANCH,m,,,,,,0.384259259,-0.175,0,0,0,,0,375,375,116,1,
,,,,,,,,,,,,,,,,,,5f0f1c7ff1db6e0683cda086,2020-08-10_13h19.35.882,lexical_decision_task_MP,2020.1.3,Linux x86_64,60,m,0,0.818075,,,,,,,,0.818075,0,,,,,,279,NW,"ID",33,celond,CELOND,z,,,,,,0.384259259,-0.175,0,0,0,,0,376,376,278,1,
,,,,,,,,,,,,,,,,,,5f0f1c7ff1db6e0683cda086,2020-08-10_13h19.35.882,lexical_decision_task_MP,2020.1.3,Linux x86_64,60,m,1,0.71756,,,,,,,,0.71756,1,,,,,,239,WORD,UN,50,forest,LUMBER,m,,,,,,0.384259259,-0.175,0,0,0,,0,377,377,238,1,
,,,,,,,,,,,,,,,,,,5f0f1c7ff1db6e0683cda086,2020-08-10_13h19.35.882,lexical_decision_task_MP,2020.1.3,Linux x86_64,60,z,1,0.78734,,,,,,,,0.78734,1,,,,,,251,NW,"ID",33,lupict,LUPICT,z,,,,,,0.384259259,-0.175,0,0,0,,0,378,378,250,1,
,,,,,,,,,,,,,,,,,,5f0f1c7ff1db6e0683cda086,2020-08-10_13h19.35.882,lexical_decision_task_MP,2020.1.3,Linux x86_64,60,z,0,0.938465,,,,,,,,0.938465,0,,,,,,110,WORD,"ID",50,polite,POLITE,m,,,,,,0.384259259,-0.175,0,0,0,,0,379,379,109,1,
,,,,,,,,,,,,,,,,,,5f0f1c7ff1db6e0683cda086,2020-08-10_13h19.35.882,lexical_decision_task_MP,2020.1.3,Linux x86_64,60,m,0,0.601985,,,,,,,,0.601985,0,,,,,,439,NW,UN,50,saride,LIMPOR,z,,,,,,0.384259259,-0.175,0,0,0,,0,380,380,438,1,
,,,,,,,,,,,,,,,,,,5f0f1c7ff1db6e0683cda086,2020-08-10_13h19.35.882,lexical_decision_task_MP,2020.1.3,Linux x86_64,60,m,1,0.717495,,,,,,,,0.717495,1,,,,,,90,WORD,"ID",50,relish,RELISH,m,,,,,,0.384259259,-0.175,0,0,0,,0,381,381,89,1,
,,,,,,,,,,,,,,,,,,5f0f1c7ff1db6e0683cda086,2020-08-10_13h19.35.882,lexical_decision_task_MP,2020.1.3,Linux x86_64,60,m,0,0.5823,,,,,,,,0.5823,0,,,,,,359,NW,"ID",50,fonver,FONVER,z,,,,,,0.384259259,-0.175,0,0,0,,0,382,382,358,1,
,,,,,,,,,,,,,,,,,,5f0f1c7ff1db6e0683cda086,2020-08-10_13h19.35.882,lexical_decision_task_MP,2020.1.3,Linux x86_64,60,m,0,0.721125,,,,,,,,0.721125,0,,,,,,297,NW,"ID",33,fertic,FERTIC,z,,,,,,0.384259259,-0.175,0,0,0,,0,383,383,296,1,
,,,,,,,,,,,,,,,,,,5f0f1c7ff1db6e0683cda086,2020-08-10_13h19.35.882,lexical_decision_task_MP,2020.1.3,Linux x86_64,60,m,0,0.861345,,,,,,,,0.861345,0,,,,,,343,NW,"ID",50,aimosy,AIMOSY,z,,,,,,0.384259259,-0.175,0,0,0,,0,384,384,342,1,
,,,,,,,,,,,,,,,,,,5f0f1c7ff1db6e0683cda086,2020-08-10_13h19.35.882,lexical_decision_task_MP,2020.1.3,Linux x86_64,60,z,1,0.959815,,,,,,,,0.959815,1,,,,,,374,NW,UN,33,yorque,SLIANT,z,,,,,,0.384259259,-0.175,0,0,0,,0,385,385,373,1,
,,,,,,,,,,,,,,,,,,5f0f1c7ff1db6e0683cda086,2020-08-10_13h19.35.882,lexical_decision_task_MP,2020.1.3,Linux x86_64,60,z,1,0.956535,,,,,,,,0.956535,1,,,,,,313,NW,"ID",50,paurse,PAURSE,z,,,,,,0.384259259,-0.175,0,0,0,,0,386,386,312,1,
,,,,,,,,,,,,,,,,,,5f0f1c7ff1db6e0683cda086,2020-08-10_13h19.35.882,lexical_decision_task_MP,2020.1.3,Linux x86_64,60,z,1,0.63916,,,,,,,,0.63916,1,,,,,,398,NW,UN,33,fouret,BLUNDE,z,,,,,,0.384259259,-0.175,0,0,0,,0,387,387,397,1,
,,,,,,,,,,,,,,,,,,5f0f1c7ff1db6e0683cda086,2020-08-10_13h19.35.882,lexical_decision_task_MP,2020.1.3,Linux x86_64,60,m,1,1.10989,,,,,,,,1.10989,1,,,,,,16,WORD,"ID",33,faucet,FAUCET,m,,,,,,0.384259259,-0.175,0,0,0,,0,388,388,15,1,
,,,,,,,,,,,,,,,,,,5f0f1c7ff1db6e0683cda086,2020-08-10_13h19.35.882,lexical_decision_task_MP,2020.1.3,Linux x86_64,60,m,0,0.766465,,,,,,,,0.766465,0,,,,,,430,NW,UN,50,funtle,CAROEY,z,,,,,,0.384259259,-0.175,0,0,0,,0,389,389,429,1,
,,,,,,,,,,,,,,,,,,5f0f1c7ff1db6e0683cda086,2020-08-10_13h19.35.882,lexical_decision_task_MP,2020.1.3,Linux x86_64,60,m,1,0.809005,,,,,,,,0.809005,1,,,,,,141,WORD,UN,33,spruce,ORPHAN,m,,,,,,0.384259259,-0.175,0,0,0,,0,390,390,140,1,
,,,,,,,,,,,,,,,,,,5f0f1c7ff1db6e0683cda086,2020-08-10_13h19.35.882,lexical_decision_task_MP,2020.1.3,Linux x86_64,60,m,1,0.65534,,,,,,,,0.65534,1,,,,,,138,WORD,UN,33,staple,MELODY,m,,,,,,0.384259259,-0.175,0,0,0,,0,391,391,137,1,
,,,,,,,,,,,,,,,,,,5f0f1c7ff1db6e0683cda086,2020-08-10_13h19.35.882,lexical_decision_task_MP,2020.1.3,Linux x86_64,60,z,1,0.82433,,,,,,,,0.82433,1,,,,,,262,NW,"ID",33,quilew,QUILEW,z,,,,,,0.384259259,-0.175,0,0,0,,0,392,392,261,1,
,,,,,,,,,,,,,,,,,,5f0f1c7ff1db6e0683cda086,2020-08-10_13h19.35.882,lexical_decision_task_MP,2020.1.3,Linux x86_64,60,z,1,0.8733,,,,,,,,0.8733,1,,,,,,320,NW,"ID",50,jockal,JOCKAL,z,,,,,,0.384259259,-0.175,0,0,0,,0,393,393,319,1,
,,,,,,,,,,,,,,,,,,5f0f1c7ff1db6e0683cda086,2020-08-10_13h19.35.882,lexical_decision_task_MP,2020.1.3,Linux x86_64,60,z,1,1.1457,,,,,,,,1.1457,1,,,,,,450,NW,UN,50,rastoe,PHRECT,z,,,,,,0.384259259,-0.175,0,0,0,,0,394,394,449,1,
,,,,,,,,,,,,,,,,,,5f0f1c7ff1db6e0683cda086,2020-08-10_13h19.35.882,lexical_decision_task_MP,2020.1.3,Linux x86_64,60,m,1,0.789255,,,,,,,,0.789255,1,,,,,,58,WORD,"ID",33,foster,FOSTER,m,,,,,,0.384259259,-0.175,0,0,0,,0,395,395,57,1,
,,,,,,,,,,,,,,,,,,5f0f1c7ff1db6e0683cda086,2020-08-10_13h19.35.882,lexical_decision_task_MP,2020.1.3,Linux x86_64,60,m,0,0.614515,,,,,,,,0.614515,0,,,,,,442,NW,UN,50,dorsex,ABOUNE,z,,,,,,0.384259259,-0.175,0,0,0,,0,396,396,441,1,
,,,,,,,,,,,,,,,,,,5f0f1c7ff1db6e0683cda086,2020-08-10_13h19.35.882,lexical_decision_task_MP,2020.1.3,Linux x86_64,60,z,1,0.82587,,,,,,,,0.82587,1,,,,,,289,NW,"ID",33,starby,STARBY,z,,,,,,0.384259259,-0.175,0,0,0,,0,397,397,288,1,
,,,,,,,,,,,,,,,,,,5f0f1c7ff1db6e0683cda086,2020-08-10_13h19.35.882,lexical_decision_task_MP,2020.1.3,Linux x86_64,60,m,0,0.83357,,,,,,,,0.83357,0,,,,,,369,NW,UN,33,sleact,WRONCH,z,,,,,,0.384259259,-0.175,0,0,0,,0,398,398,368,1,
,,,,,,,,,,,,,,,,,,5f0f1c7ff1db6e0683cda086,2020-08-10_13h19.35.882,lexical_decision_task_MP,2020.1.3,Linux x86_64,60,m,1,0.70163,,,,,,,,0.70163,1,,,,,,204,WORD,UN,50,lounge,BURDEN,m,,,,,,0.384259259,-0.175,0,0,0,,0,399,399,203,1,
