counterbalancing_condition,instr_done_keyboard.keys,instr_done_touch.x,instr_done_touch.y,instr_done_touch.leftButton,instr_done_touch.midButton,instr_done_touch.rightButton,instr_done_touch.clicked_name,instruction_pages.thisRepN,instruction_pages.thisTrialN,instruction_pages.thisN,instruction_pages.thisIndex,instruction_pages.ran,pageN,phase,instruct_text,has_image,instruct_image,participant,date,expName,psychopyVersion,OS,frameRate,response.keys,response.corr,touch_resp.x,touch_resp.y,touch_resp.leftButton,touch_resp.midButton,touch_resp.rightButton,touch_resp.time,touch_resp.clicked_name,rt,corr,practice_trials.thisRepN,practice_trials.thisTrialN,practice_trials.thisN,practice_trials.thisIndex,practice_trials.ran,TrialID,StimulusType,Condition,PrimeDuration,Prime,Target,corrAns,end_of_practice_trials_pages.thisRepN,end_of_practice_trials_pages.thisTrialN,end_of_practice_trials_pages.thisN,end_of_practice_trials_pages.thisIndex,end_of_practice_trials_pages.ran,break_done_touch.x,break_done_touch.y,break_done_touch.leftButton,break_done_touch.midButton,break_done_touch.rightButton,break_done_keyboard.keys,trials.thisRepN,trials.thisTrialN,trials.thisN,trials.thisIndex,trials.ran,break_done_touch.clicked_name
0,,0.148854962,-0.404927183,1,0,0,instr_done_button,0,0,0,0,1,1,instructions,"INSTRUCTIONS
At the start of each trial, look at the hash marks (######) in the center of the screen. After a moment, a string of letters will appear. Your task is to indicate if the letter string forms a word or not (i.e., if it is a nonword). For example, AUTHOR is a word while AUTHON is a nonword.

Press the space bar or touch the button below to continue.",0,,5f10f17a01b48a42592fd0ec,2020-08-10_18h57.44.480,lexical_decision_task_MP,2020.1.3,Linux armv8l,60,,,,,,,,,,,,,,,,,,,,,,,,,,,,,,,,,,,,,,,,
,,0.163659637,-0.404927183,1,0,0,instr_done_button,0,1,1,1,1,2,instructions,"If your device has a keyboard, press the 'Z' key for nonwords and the 'M' key for words.





Press the space bar or touch the button below to continue.",1,keyboard-example.gif,5f10f17a01b48a42592fd0ec,2020-08-10_18h57.44.480,lexical_decision_task_MP,2020.1.3,Linux armv8l,60,,,,,,,,,,,,,,,,,,,,,,,,,,,,,,,,,,,,,,,,
,,0.133125286,-0.410478898,1,0,0,instr_done_button,0,2,2,2,1,3,instructions,"If you are using a touchscreen only device, use the buttons on the screen. Do not use the mouse.





Press the space bar or touch the button below to continue.",1,touchscreen-example.gif,5f10f17a01b48a42592fd0ec,2020-08-10_18h57.44.480,lexical_decision_task_MP,2020.1.3,Linux armv8l,60,,,,,,,,,,,,,,,,,,,,,,,,,,,,,,,,,,,,,,,,
,,0.115544909,-0.414179989,1,0,0,instr_done_button,0,3,3,3,1,4,instructions,"It is very important that you respond as quickly and accurately as possible, as each letter string will only be on the screen for two seconds. If you do not respond within this time, the message 'Too slow!' will be displayed and the experiment will progress to the next letter string. The first 20 trials will be practice trials and you will receive feedback on your answers. 

Press the space bar or touch the button below to start the practice trials.",0,,5f10f17a01b48a42592fd0ec,2020-08-10_18h57.44.480,lexical_decision_task_MP,2020.1.3,Linux armv8l,60,,,,,,,,,,,,,,,,,,,,,,,,,,,,,,,,,,,,,,,,
,,,,,,,,,,,,,,,,,,5f10f17a01b48a42592fd0ec,2020-08-10_18h57.44.480,lexical_decision_task_MP,2020.1.3,Linux armv8l,60,,0,0.444945668,-0.329053884,1,0,0,1.6122,button_right,1.6122,1,0,0,0,6,1,1007,WORD,UN,50,tropic,ZOMBIE,m,,,,,,,,,,,,,,,,,
,,,,,,,,,,,,,,,,,,5f10f17a01b48a42592fd0ec,2020-08-10_18h57.44.480,lexical_decision_task_MP,2020.1.3,Linux armv8l,60,,0,0.440319265,-0.346634338,1,0,0,0.8281,button_right,0.8281,1,0,1,1,3,1,1004,WORD,"ID",50,matrix,MATRIX,m,,,,,,,,,,,,,,,,,
,,,,,,,,,,,,,,,,,,5f10f17a01b48a42592fd0ec,2020-08-10_18h57.44.480,lexical_decision_task_MP,2020.1.3,Linux armv8l,60,,0,0.429215836,-0.327203338,1,0,0,0.7958,button_right,0.7958,0,0,2,2,11,1,1012,NW,"ID",50,rashet,RASHET,z,,,,,,,,,,,,,,,,,
,,,,,,,,,,,,,,,,,,5f10f17a01b48a42592fd0ec,2020-08-10_18h57.44.480,lexical_decision_task_MP,2020.1.3,Linux armv8l,60,,0,0.435692862,-0.341082702,1,0,0,0.6307,button_right,0.6307,1,0,3,3,7,1,1008,WORD,UN,50,hurdle,VOLUME,m,,,,,,,,,,,,,,,,,
,,,,,,,,,,,,,,,,,,5f10f17a01b48a42592fd0ec,2020-08-10_18h57.44.480,lexical_decision_task_MP,2020.1.3,Linux armv8l,60,,0,0.430141148,-0.325352793,1,0,0,0.6795,button_right,0.6795,1,0,4,4,2,1,1003,WORD,"ID",50,almond,ALMOND,m,,,,,,,,,,,,,,,,,
,,,,,,,,,,,,,,,,,,5f10f17a01b48a42592fd0ec,2020-08-10_18h57.44.480,lexical_decision_task_MP,2020.1.3,Linux armv8l,60,,0,0.433842239,-0.31332413,1,0,0,0.7074,button_right,0.7074,0,0,5,5,9,1,1010,NW,"ID",33,fariny,FARINY,z,,,,,,,,,,,,,,,,,
,,,,,,,,,,,,,,,,,,5f10f17a01b48a42592fd0ec,2020-08-10_18h57.44.480,lexical_decision_task_MP,2020.1.3,Linux armv8l,60,,0,0.442169888,-0.33553091,1,0,0,0.6344,button_right,0.6344,1,0,6,6,4,1,1005,WORD,UN,33,abound,SQUEAK,m,,,,,,,,,,,,,,,,,
,,,,,,,,,,,,,,,,,,5f10f17a01b48a42592fd0ec,2020-08-10_18h57.44.480,lexical_decision_task_MP,2020.1.3,Linux armv8l,60,,0,0.435692862,-0.321651624,1,0,0,0.6804,button_right,0.6804,0,0,7,7,12,1,1013,NW,UN,33,adveil,SPRINY,z,,,,,,,,,,,,,,,,,
,,,,,,,,,,,,,,,,,,5f10f17a01b48a42592fd0ec,2020-08-10_18h57.44.480,lexical_decision_task_MP,2020.1.3,Linux armv8l,60,,0,0.432916928,-0.324427481,1,0,0,0.7956,button_right,0.7956,1,0,8,8,1,1,1002,WORD,"ID",33,adjust,ADJUST,m,,,,,,,,,,,,,,,,,
,,,,,,,,,,,,,,,,,,5f10f17a01b48a42592fd0ec,2020-08-10_18h57.44.480,lexical_decision_task_MP,2020.1.3,Linux armv8l,60,,0,0.441244732,-0.331829741,1,0,0,0.6617,button_right,0.6617,0,0,9,9,8,1,1009,NW,"ID",33,aslert,ASLERT,z,,,,,,,,,,,,,,,,,
,,,,,,,,,,,,,,,,,,5f10f17a01b48a42592fd0ec,2020-08-10_18h57.44.480,lexical_decision_task_MP,2020.1.3,Linux armv8l,60,,0,-0.472010178,-0.324427481,1,0,0,0.96,button_left,0.96,1,0,10,10,10,1,1011,NW,"ID",50,inlade,INLADE,z,,,,,,,,,,,,,,,,,
,,,,,,,,,,,,,,,,,,5f10f17a01b48a42592fd0ec,2020-08-10_18h57.44.480,lexical_decision_task_MP,2020.1.3,Linux armv8l,60,,0,-0.469234321,-0.327203338,1,0,0,0.7432,button_left,0.7432,1,0,11,11,13,1,1014,NW,UN,33,winfer,ROUPET,z,,,,,,,,,,,,,,,,,
,,,,,,,,,,,,,,,,,,5f10f17a01b48a42592fd0ec,2020-08-10_18h57.44.480,lexical_decision_task_MP,2020.1.3,Linux armv8l,60,,0,-0.484038841,-0.331829741,1,0,0,0.7666,button_left,0.7666,1,0,12,12,15,1,1016,NW,UN,50,mushed,WHAISE,z,,,,,,,,,,,,,,,,,
,,,,,,,,,,,,,,,,,,5f10f17a01b48a42592fd0ec,2020-08-10_18h57.44.480,lexical_decision_task_MP,2020.1.3,Linux armv8l,60,,0,-0.486814698,-0.332755052,1,0,0,0.7478,button_left,0.7478,1,0,13,13,14,1,1015,NW,UN,50,miaber,THRALE,z,,,,,,,,,,,,,,,,,
,,,,,,,,,,,,,,,,,,5f10f17a01b48a42592fd0ec,2020-08-10_18h57.44.480,lexical_decision_task_MP,2020.1.3,Linux armv8l,60,,0,0.423664122,-0.318875767,1,0,0,1.1978,button_right,1.1978,1,0,14,14,0,1,1001,WORD,"ID",33,utopia,UTOPIA,m,,,,,,,,,,,,,,,,,
,,,,,,,,,,,,,,,,,,5f10f17a01b48a42592fd0ec,2020-08-10_18h57.44.480,lexical_decision_task_MP,2020.1.3,Linux armv8l,60,,0,-0.470159594,-0.317025221,1,0,0,1.0789,button_left,1.0789,0,0,15,15,5,1,1006,WORD,UN,33,frenzy,OBTAIN,m,,,,,,,,,,,,,,,,,
,,0.101665545,-0.435461534,1,0,0,instr_done_button,,,,,,1,end_of_practice,"You have completed the practice trials. During the experimental trials, you will not receive feedback, but it is very important that you respond as quickly and accurately as possible. 
Before you begin, please ensure that you are in a comfortable and quiet location and will not be disturbed for about 15 minutes, as we cannot use your data if you do not complete all the trials. 
There will be opportunities to take breaks at regular intervals during the experiment. When you are ready to start the experimental trials, please press space or touch the button below.",,,5f10f17a01b48a42592fd0ec,2020-08-10_18h57.44.480,lexical_decision_task_MP,2020.1.3,Linux armv8l,60,,,,,,,,,,,,,,,,,,,,,,,,0,0,0,0,1,,,,,,,,,,,,
,,,,,,,,,,,,,,,,,,5f10f17a01b48a42592fd0ec,2020-08-10_18h57.44.480,lexical_decision_task_MP,2020.1.3,Linux armv8l,60,,0,0.476405331,-0.287416259,1,0,0,0.8635,button_right,0.8635,1,,,,,,240,WORD,"ID",33,forest,FOREST,m,,,,,,0.476405331,-0.287416259,1,0,0,,0,0,0,59,1,
,,,,,,,,,,,,,,,,,,5f10f17a01b48a42592fd0ec,2020-08-10_18h57.44.480,lexical_decision_task_MP,2020.1.3,Linux armv8l,60,,0,-0.514573192,-0.306847104,1,0,0,1.0964,button_left,1.0964,1,,,,,,389,NW,UN,50,hatrus,WITMER,z,,,,,,-0.514573192,-0.306847104,1,0,0,,0,1,1,448,1,
,,,,,,,,,,,,,,,,,,5f10f17a01b48a42592fd0ec,2020-08-10_18h57.44.480,lexical_decision_task_MP,2020.1.3,Linux armv8l,60,,0,0.422738811,-0.336456221,1,0,0,0.6118,button_right,0.6118,0,,,,,,282,NW,"ID",50,porlex,PORLEX,z,,,,,,0.422738811,-0.336456221,1,0,0,,0,2,2,341,1,
,,,,,,,,,,,,,,,,,,5f10f17a01b48a42592fd0ec,2020-08-10_18h57.44.480,lexical_decision_task_MP,2020.1.3,Linux armv8l,60,,0,-0.470159594,-0.300370156,1,0,0,0.9086,button_left,0.9086,1,,,,,,438,NW,"ID",33,baitch,BAITCH,z,,,,,,-0.470159594,-0.300370156,1,0,0,,0,3,3,257,1,
,,,,,,,,,,,,,,,,,,5f10f17a01b48a42592fd0ec,2020-08-10_18h57.44.480,lexical_decision_task_MP,2020.1.3,Linux armv8l,60,,0,0.430141148,-0.334605598,1,0,0,0.8038,button_right,0.8038,0,,,,,,243,NW,"ID",50,musied,MUSIED,z,,,,,,0.430141148,-0.334605598,1,0,0,,0,4,4,302,1,
,,,,,,,,,,,,,,,,,,5f10f17a01b48a42592fd0ec,2020-08-10_18h57.44.480,lexical_decision_task_MP,2020.1.3,Linux armv8l,60,,0,0.444020356,-0.339232078,1,0,0,0.7828,button_right,0.7828,1,,,,,,125,WORD,UN,50,enough,NICKEL,m,,,,,,0.444020356,-0.339232078,1,0,0,,0,5,5,184,1,
,,,,,,,,,,,,,,,,,,5f10f17a01b48a42592fd0ec,2020-08-10_18h57.44.480,lexical_decision_task_MP,2020.1.3,Linux armv8l,60,,0,0.442169888,-0.331829741,1,0,0,0.6967,button_right,0.6967,1,,,,,,62,WORD,UN,33,launch,REGION,m,,,,,,0.442169888,-0.331829741,1,0,0,,0,6,6,121,1,
,,,,,,,,,,,,,,,,,,5f10f17a01b48a42592fd0ec,2020-08-10_18h57.44.480,lexical_decision_task_MP,2020.1.3,Linux armv8l,60,,0,0.451422849,-0.317025221,1,0,0,0.9387,button_right,0.9387,0,,,,,,307,NW,UN,33,psetch,KIRAFE,z,,,,,,0.451422849,-0.317025221,1,0,0,,0,7,7,366,1,
,,,,,,,,,,,,,,,,,,5f10f17a01b48a42592fd0ec,2020-08-10_18h57.44.480,lexical_decision_task_MP,2020.1.3,Linux armv8l,60,,0,0.459750188,-0.342007858,1,0,0,0.6755,button_right,0.6755,0,,,,,,342,NW,UN,33,aimosy,RANDOW,z,,,,,,0.459750188,-0.342007858,1,0,0,,0,8,8,401,1,
,,,,,,,,,,,,,,,,,,5f10f17a01b48a42592fd0ec,2020-08-10_18h57.44.480,lexical_decision_task_MP,2020.1.3,Linux armv8l,60,,0,0.46437659,-0.357737689,1,0,0,1.0626,button_right,1.0626,0,,,,,,340,NW,UN,33,myrtie,FIATCH,z,,,,,,0.46437659,-0.357737689,1,0,0,,0,9,9,399,1,
,,,,,,,,,,,,,,,,,,5f10f17a01b48a42592fd0ec,2020-08-10_18h57.44.480,lexical_decision_task_MP,2020.1.3,Linux armv8l,60,,0,-0.500693945,-0.30129539,1,0,0,0.7686,button_left,0.7686,1,,,,,,325,NW,UN,33,iguade,THRUSE,z,,,,,,-0.500693945,-0.30129539,1,0,0,,0,10,10,384,1,
,,,,,,,,,,,,,,,,,,5f10f17a01b48a42592fd0ec,2020-08-10_18h57.44.480,lexical_decision_task_MP,2020.1.3,Linux armv8l,60,,0,0.476405331,-0.324427481,1,0,0,0.5267,button_right,0.5267,1,,,,,,81,WORD,UN,33,stigma,FRIEND,m,,,,,,0.476405331,-0.324427481,1,0,0,,0,11,11,140,1,
,,,,,,,,,,,,,,,,,,5f10f17a01b48a42592fd0ec,2020-08-10_18h57.44.480,lexical_decision_task_MP,2020.1.3,Linux armv8l,60,,0,0.478255954,-0.345709027,1,0,0,0.5841,button_right,0.5841,0,,,,,,455,NW,"ID",33,tondle,TONDLE,z,,,,,,0.478255954,-0.345709027,1,0,0,,0,12,12,274,1,
,,,,,,,,,,,,,,,,,,5f10f17a01b48a42592fd0ec,2020-08-10_18h57.44.480,lexical_decision_task_MP,2020.1.3,Linux armv8l,60,,0,0.478255954,-0.345709027,1,0,0,0.6328,button_right,0.6328,1,,,,,,159,WORD,UN,50,violet,DETAIL,m,,,,,,0.478255954,-0.345709027,1,0,0,,0,13,13,218,1,
,,,,,,,,,,,,,,,,,,5f10f17a01b48a42592fd0ec,2020-08-10_18h57.44.480,lexical_decision_task_MP,2020.1.3,Linux armv8l,60,,0,,,,,,,,0.6328,-1,,,,,,101,WORD,UN,33,direct,WRENCH,m,,,,,,0.478255954,-0.345709027,0,0,0,,0,14,14,160,1,
,,,,,,,,,,,,,,,,,,5f10f17a01b48a42592fd0ec,2020-08-10_18h57.44.480,lexical_decision_task_MP,2020.1.3,Linux armv8l,60,,0,-0.492366412,-0.306847104,1,0,0,1.7065,button_left,1.7065,1,,,,,,468,NW,"ID",33,wictor,WICTOR,z,,,,,,-0.492366412,-0.306847104,1,0,0,,0,15,15,287,1,
,,,,,,,,,,,,,,,,,,5f10f17a01b48a42592fd0ec,2020-08-10_18h57.44.480,lexical_decision_task_MP,2020.1.3,Linux armv8l,60,,0,0.445870979,-0.312398818,1,0,0,0.579,button_right,0.579,0,,,,,,445,NW,"ID",33,minkel,MINKEL,z,,,,,,0.445870979,-0.312398818,1,0,0,,0,16,16,264,1,
,,,,,,,,,,,,,,,,,,5f10f17a01b48a42592fd0ec,2020-08-10_18h57.44.480,lexical_decision_task_MP,2020.1.3,Linux armv8l,60,,0,0.460675499,-0.299444844,1,0,0,1.5931,button_right,1.5931,0,,,,,,393,NW,UN,50,spaqux,GANOUS,z,,,,,,0.460675499,-0.299444844,1,0,0,,0,17,17,452,1,
,,,,,,,,,,,,,,,,,,5f10f17a01b48a42592fd0ec,2020-08-10_18h57.44.480,lexical_decision_task_MP,2020.1.3,Linux armv8l,60,,0,0.467152525,-0.306847104,1,0,0,0.7077,button_right,0.7077,0,,,,,,351,NW,UN,33,tringe,TIESCH,z,,,,,,0.467152525,-0.306847104,1,0,0,,0,18,18,410,1,
,,,,,,,,,,,,,,,,,,5f10f17a01b48a42592fd0ec,2020-08-10_18h57.44.480,lexical_decision_task_MP,2020.1.3,Linux armv8l,60,,0,0.478255954,-0.324427481,1,0,0,0.6299,button_right,0.6299,1,,,,,,3,WORD,"ID",50,knight,KNIGHT,m,,,,,,0.478255954,-0.324427481,1,0,0,,0,19,19,62,1,
,,,,,,,,,,,,,,,,,,5f10f17a01b48a42592fd0ec,2020-08-10_18h57.44.480,lexical_decision_task_MP,2020.1.3,Linux armv8l,60,,0,-0.54048114,-0.292967896,1,0,0,0.5998,button_left,0.5998,0,,,,,,90,WORD,UN,33,expand,RELISH,m,,,,,,-0.54048114,-0.292967896,1,0,0,,0,20,20,149,1,
,,,,,,,,,,,,,,,,,,5f10f17a01b48a42592fd0ec,2020-08-10_18h57.44.480,lexical_decision_task_MP,2020.1.3,Linux armv8l,60,,0,0.485658136,-0.303146013,1,0,0,0.5644,button_right,0.5644,1,,,,,,147,WORD,UN,50,custom,GARLIC,m,,,,,,0.485658136,-0.303146013,1,0,0,,0,21,21,206,1,
,,,,,,,,,,,,,,,,,,5f10f17a01b48a42592fd0ec,2020-08-10_18h57.44.480,lexical_decision_task_MP,2020.1.3,Linux armv8l,60,,0,0.489359227,-0.310548273,1,0,0,0.5806,button_right,0.5806,1,,,,,,5,WORD,"ID",50,plunge,PLUNGE,m,,,,,,0.489359227,-0.310548273,1,0,0,,0,22,22,64,1,
,,,,,,,,,,,,,,,,,,5f10f17a01b48a42592fd0ec,2020-08-10_18h57.44.480,lexical_decision_task_MP,2020.1.3,Linux armv8l,60,,0,0.49398563,-0.31795061,1,0,0,0.6568,button_right,0.6568,1,,,,,,130,WORD,UN,50,quench,STUPID,m,,,,,,0.49398563,-0.31795061,1,0,0,,0,23,23,189,1,
,,,,,,,,,,,,,,,,,,5f10f17a01b48a42592fd0ec,2020-08-10_18h57.44.480,lexical_decision_task_MP,2020.1.3,Linux armv8l,60,,0,0.493060474,-0.321651624,1,0,0,0.4946,button_right,0.4946,0,,,,,,353,NW,UN,33,virlex,CLUREY,z,,,,,,0.493060474,-0.321651624,1,0,0,,0,24,24,412,1,
,,,,,,,,,,,,,,,,,,5f10f17a01b48a42592fd0ec,2020-08-10_18h57.44.480,lexical_decision_task_MP,2020.1.3,Linux armv8l,60,,0,0.480106422,-0.318875767,1,0,0,0.6009,button_right,0.6009,0,,,,,,349,NW,UN,33,nagurs,ASYLEN,z,,,,,,0.480106422,-0.318875767,1,0,0,,0,25,25,408,1,
,,,,,,,,,,,,,,,,,,5f10f17a01b48a42592fd0ec,2020-08-10_18h57.44.480,lexical_decision_task_MP,2020.1.3,Linux armv8l,60,,0,-0.53955579,-0.294818441,1,0,0,0.6137,button_left,0.6137,1,,,,,,246,NW,"ID",50,piaton,PIATON,z,,,,,,-0.53955579,-0.294818441,1,0,0,,0,26,26,305,1,
,,,,,,,,,,,,,,,,,,5f10f17a01b48a42592fd0ec,2020-08-10_18h57.44.480,lexical_decision_task_MP,2020.1.3,Linux armv8l,60,,0,0.481031733,-0.326278104,1,0,0,0.6184,button_right,0.6184,0,,,,,,472,NW,"ID",33,cigney,CIGNEY,z,,,,,,0.481031733,-0.326278104,1,0,0,,0,27,27,291,1,
,,,,,,,,,,,,,,,,,,5f10f17a01b48a42592fd0ec,2020-08-10_18h57.44.480,lexical_decision_task_MP,2020.1.3,Linux armv8l,60,,0,-0.553435115,-0.303146013,1,0,0,0.7838,button_left,0.7838,1,,,,,,254,NW,"ID",50,varosh,VAROSH,z,,,,,,-0.553435115,-0.303146013,1,0,0,,0,28,28,313,1,
,,,,,,,,,,,,,,,,,,5f10f17a01b48a42592fd0ec,2020-08-10_18h57.44.480,lexical_decision_task_MP,2020.1.3,Linux armv8l,60,,0,-0.56268792,-0.291117273,1,0,0,0.5302,button_left,0.5302,1,,,,,,333,NW,UN,33,watmeg,CATRIE,z,,,,,,-0.56268792,-0.291117273,1,0,0,,0,29,29,392,1,
,,,,,,,,,,,,,,,,,,5f10f17a01b48a42592fd0ec,2020-08-10_18h57.44.480,lexical_decision_task_MP,2020.1.3,Linux armv8l,60,,0,0.480106422,-0.321651624,1,0,0,0.4981,button_right,0.4981,0,,,,,,249,NW,"ID",50,batrol,BATROL,z,,,,,,0.480106422,-0.321651624,1,0,0,,0,30,30,308,1,
,,,,,,,,,,,,,,,,,,5f10f17a01b48a42592fd0ec,2020-08-10_18h57.44.480,lexical_decision_task_MP,2020.1.3,Linux armv8l,60,,0,-0.543256997,-0.292967896,1,0,0,0.5145,button_left,0.5145,1,,,,,,394,NW,UN,50,colury,SPAQUX,z,,,,,,-0.543256997,-0.292967896,1,0,0,,0,31,31,453,1,
,,,,,,,,,,,,,,,,,,5f10f17a01b48a42592fd0ec,2020-08-10_18h57.44.480,lexical_decision_task_MP,2020.1.3,Linux armv8l,60,,0,-0.556210894,-0.295743753,1,0,0,0.7601,button_left,0.7601,1,,,,,,256,NW,"ID",50,inlors,INLORS,z,,,,,,-0.556210894,-0.295743753,1,0,0,,0,32,32,315,1,
,,,,,,,,,,,,,,,,,,5f10f17a01b48a42592fd0ec,2020-08-10_18h57.44.480,lexical_decision_task_MP,2020.1.3,Linux armv8l,60,,0,0.477330642,-0.326278104,1,0,0,0.5464,button_right,0.5464,1,,,,,,193,WORD,"ID",33,object,OBJECT,m,,,,,,0.477330642,-0.326278104,1,0,0,,0,33,33,12,1,
,,,,,,,,,,,,,,,,,,5f10f17a01b48a42592fd0ec,2020-08-10_18h57.44.480,lexical_decision_task_MP,2020.1.3,Linux armv8l,60,,0,0.483807513,-0.324427481,1,0,0,0.6129,button_right,0.6129,1,,,,,,61,WORD,UN,33,region,PONDER,m,,,,,,0.483807513,-0.324427481,1,0,0,,0,34,34,120,1,
,,,,,,,,,,,,,,,,,,5f10f17a01b48a42592fd0ec,2020-08-10_18h57.44.480,lexical_decision_task_MP,2020.1.3,Linux armv8l,60,,0,0.483807513,-0.322576935,1,0,0,0.5303,button_right,0.5303,1,,,,,,78,WORD,UN,33,theory,COLUMN,m,,,,,,0.483807513,-0.322576935,1,0,0,,0,35,35,137,1,
,,,,,,,,,,,,,,,,,,5f10f17a01b48a42592fd0ec,2020-08-10_18h57.44.480,lexical_decision_task_MP,2020.1.3,Linux armv8l,60,,0,0.486583448,-0.321651624,1,0,0,0.5303,button_right,0.5303,1,,,,,,30,WORD,"ID",50,orient,ORIENT,m,,,,,,0.486583448,-0.321651624,1,0,0,,0,36,36,89,1,
,,,,,,,,,,,,,,,,,,5f10f17a01b48a42592fd0ec,2020-08-10_18h57.44.480,lexical_decision_task_MP,2020.1.3,Linux armv8l,60,,0,0.493060474,-0.318875767,1,0,0,0.5775,button_right,0.5775,1,,,,,,53,WORD,"ID",50,police,POLICE,m,,,,,,0.493060474,-0.318875767,1,0,0,,0,37,37,112,1,
,,,,,,,,,,,,,,,,,,5f10f17a01b48a42592fd0ec,2020-08-10_18h57.44.480,lexical_decision_task_MP,2020.1.3,Linux armv8l,60,,0,0.490284539,-0.316099987,1,0,0,0.6329,button_right,0.6329,0,,,,,,400,NW,UN,50,mustil,WEAROX,z,,,,,,0.490284539,-0.316099987,1,0,0,,0,38,38,459,1,
,,,,,,,,,,,,,,,,,,5f10f17a01b48a42592fd0ec,2020-08-10_18h57.44.480,lexical_decision_task_MP,2020.1.3,Linux armv8l,60,,0,0.490284539,-0.32072639,1,0,0,0.7294,button_right,0.7294,1,,,,,,134,WORD,UN,50,import,STAPLE,m,,,,,,0.490284539,-0.32072639,1,0,0,,0,39,39,193,1,
,,,,,,,,,,,,,,,,,,5f10f17a01b48a42592fd0ec,2020-08-10_18h57.44.480,lexical_decision_task_MP,2020.1.3,Linux armv8l,60,,0,0.49398563,-0.317025221,1,0,0,0.5352,button_right,0.5352,1,,,,,,77,WORD,UN,33,column,RACKET,m,,,,,,0.49398563,-0.317025221,1,0,0,,0,40,40,136,1,
,,,,,,,,,,,,,,,,,,5f10f17a01b48a42592fd0ec,2020-08-10_18h57.44.480,lexical_decision_task_MP,2020.1.3,Linux armv8l,60,,0,0.498612188,-0.314249364,1,0,0,0.8128,button_right,0.8128,0,,,,,,298,NW,"ID",50,piergy,PIERGY,z,,,,,,0.498612188,-0.314249364,1,0,0,,0,41,41,357,1,
,,,,,,,,,,,,,,,,,,5f10f17a01b48a42592fd0ec,2020-08-10_18h57.44.480,lexical_decision_task_MP,2020.1.3,Linux armv8l,60,,0,0.495836253,-0.30869765,1,0,0,0.6584,button_right,0.6584,1,,,,,,194,WORD,"ID",33,absent,ABSENT,m,,,,,,0.495836253,-0.30869765,1,0,0,,0,42,42,13,1,
,,,,,,,,,,,,,,,,,,5f10f17a01b48a42592fd0ec,2020-08-10_18h57.44.480,lexical_decision_task_MP,2020.1.3,Linux armv8l,60,,0,0.500462656,-0.315174675,1,0,0,0.6613,button_right,0.6613,1,,,,,,41,WORD,"ID",50,spring,SPRING,m,,,,,,0.500462656,-0.315174675,1,0,0,,0,43,43,100,1,
,,,,,,,,,,,,,,,,,,5f10f17a01b48a42592fd0ec,2020-08-10_18h57.44.480,lexical_decision_task_MP,2020.1.3,Linux armv8l,60,,0,0.507864993,-0.31332413,1,0,0,0.4651,button_right,0.4651,0,,,,,,456,NW,"ID",33,broget,BROGET,z,,,,,,0.507864993,-0.31332413,1,0,0,,0,44,44,275,1,
,,,,,,,,,,,,,,,,,,5f10f17a01b48a42592fd0ec,2020-08-10_18h57.44.480,lexical_decision_task_MP,2020.1.3,Linux armv8l,60,,0,0.506939682,-0.317025221,1,0,0,0.4952,button_right,0.4952,1,,,,,,171,WORD,UN,50,patrol,DEPART,m,,,,,,0.506939682,-0.317025221,1,0,0,,0,45,45,230,1,
,,,,,,,,,,,,,,,,,,5f10f17a01b48a42592fd0ec,2020-08-10_18h57.44.480,lexical_decision_task_MP,2020.1.3,Linux armv8l,60,,0,0.505089059,-0.31795061,1,0,0,0.483,button_right,0.483,1,,,,,,131,WORD,UN,50,strong,QUENCH,m,,,,,,0.505089059,-0.31795061,1,0,0,,0,46,46,190,1,
,,,,,,,,,,,,,,,,,,5f10f17a01b48a42592fd0ec,2020-08-10_18h57.44.480,lexical_decision_task_MP,2020.1.3,Linux armv8l,60,,0,0.507864993,-0.314249364,1,0,0,0.4665,button_right,0.4665,1,,,,,,118,WORD,UN,33,spider,FLIGHT,m,,,,,,0.507864993,-0.314249364,1,0,0,,0,47,47,177,1,
,,,,,,,,,,,,,,,,,,5f10f17a01b48a42592fd0ec,2020-08-10_18h57.44.480,lexical_decision_task_MP,2020.1.3,Linux armv8l,60,,0,0.506939682,-0.315174675,1,0,0,0.455,button_right,0.455,1,,,,,,209,WORD,"ID",33,search,SEARCH,m,,,,,,0.506939682,-0.315174675,1,0,0,,0,48,48,28,1,
,,,,,,,,,,,,,,,,,,5f10f17a01b48a42592fd0ec,2020-08-10_18h57.44.480,lexical_decision_task_MP,2020.1.3,Linux armv8l,60,,0,0.50601437,-0.317025221,1,0,0,0.4341,button_right,0.4341,1,,,,,,114,WORD,UN,33,guitar,PLACID,m,,,,,,0.50601437,-0.317025221,1,0,0,,0,49,49,173,1,
,,,,,,,,,,,,,,,,,,5f10f17a01b48a42592fd0ec,2020-08-10_18h57.44.480,lexical_decision_task_MP,2020.1.3,Linux armv8l,60,,0,0.508790305,-0.315174675,1,0,0,0.4788,button_right,0.4788,0,,,,,,404,NW,UN,50,flumni,CLUIRM,z,,,,,,0.508790305,-0.315174675,1,0,0,,0,50,50,463,1,
,,,,,,,,,,,,,,,,,,5f10f17a01b48a42592fd0ec,2020-08-10_18h57.44.480,lexical_decision_task_MP,2020.1.3,Linux armv8l,60,,0,0.509715461,-0.315174675,1,0,0,0.3834,button_right,0.3834,1,,,,,,203,WORD,"ID",33,phrase,PHRASE,m,,,,,,0.509715461,-0.315174675,1,0,0,,0,51,51,22,1,
,,,,,,,,,,,,,,,,,,5f10f17a01b48a42592fd0ec,2020-08-10_18h57.44.480,lexical_decision_task_MP,2020.1.3,Linux armv8l,60,,0,0.508790305,-0.316099987,1,0,0,0.401,button_right,0.401,1,,,,,,170,WORD,UN,50,dragon,POUNCE,m,,,,,,0.508790305,-0.316099987,1,0,0,,0,52,52,229,1,
,,,,,,,,,,,,,,,,,,5f10f17a01b48a42592fd0ec,2020-08-10_18h57.44.480,lexical_decision_task_MP,2020.1.3,Linux armv8l,60,,0,0.50601437,-0.302220701,1,0,0,0.4473,button_right,0.4473,1,,,,,,132,WORD,UN,50,orphan,STRONG,m,,,,,,0.50601437,-0.302220701,1,0,0,,0,53,53,191,1,
,,,,,,,,,,,,,,,,,,5f10f17a01b48a42592fd0ec,2020-08-10_18h57.44.480,lexical_decision_task_MP,2020.1.3,Linux armv8l,60,,0,0.511566084,-0.30129539,1,0,0,0.399,button_right,0.399,0,,,,,,357,NW,UN,33,fleack,DERAIN,z,,,,,,0.511566084,-0.30129539,1,0,0,,0,54,54,416,1,
,,,,,,,,,,,,,,,,,,5f10f17a01b48a42592fd0ec,2020-08-10_18h57.44.480,lexical_decision_task_MP,2020.1.3,Linux armv8l,60,,0,0.512491551,-0.309622961,1,0,0,0.3872,button_right,0.3872,1,,,,,,192,WORD,"ID",33,plague,PLAGUE,m,,,,,,0.512491551,-0.309622961,1,0,0,,0,55,55,11,1,
,,,,,,,,,,,,,,,,,,5f10f17a01b48a42592fd0ec,2020-08-10_18h57.44.480,lexical_decision_task_MP,2020.1.3,Linux armv8l,60,,0,0.510640773,-0.30869765,1,0,0,0.4808,button_right,0.4808,1,,,,,,89,WORD,UN,33,relish,PERMIT,m,,,,,,0.510640773,-0.30869765,1,0,0,,0,56,56,148,1,
,,,,,,,,,,,,,,,,,,5f10f17a01b48a42592fd0ec,2020-08-10_18h57.44.480,lexical_decision_task_MP,2020.1.3,Linux armv8l,60,,0,0.510640773,-0.297594376,1,0,0,0.4464,button_right,0.4464,1,,,,,,79,WORD,UN,33,family,THEORY,m,,,,,,0.510640773,-0.297594376,1,0,0,,0,57,57,138,1,
,,,,,,,,,,,,,,,,,,5f10f17a01b48a42592fd0ec,2020-08-10_18h57.44.480,lexical_decision_task_MP,2020.1.3,Linux armv8l,60,,0,0.510640773,-0.312398818,1,0,0,0.4232,button_right,0.4232,1,,,,,,115,WORD,UN,33,tumble,GUITAR,m,,,,,,0.510640773,-0.312398818,1,0,0,,0,58,58,174,1,
,,,,,,,,,,,,,,,,,,5f10f17a01b48a42592fd0ec,2020-08-10_18h57.44.480,lexical_decision_task_MP,2020.1.3,Linux armv8l,60,,0,0.510640773,-0.304996558,1,0,0,0.4297,button_right,0.4297,1,,,,,,27,WORD,"ID",50,scream,SCREAM,m,,,,,,0.510640773,-0.304996558,1,0,0,,0,59,59,86,1,
,,,,,,,,,,,,,,,,,,5f10f17a01b48a42592fd0ec,2020-08-10_18h57.44.480,lexical_decision_task_MP,2020.1.3,Linux armv8l,60,,0,0.509715461,-0.310548273,1,0,0,0.4645,button_right,0.4645,1,,,,,,230,WORD,"ID",33,fringe,FRINGE,m,,,,,,0.509715461,-0.310548273,1,0,0,,0,60,60,49,1,
,,,,,,,,,,,,,,,,,,5f10f17a01b48a42592fd0ec,2020-08-10_18h57.44.480,lexical_decision_task_MP,2020.1.3,Linux armv8l,60,,0,0.511566084,-0.30869765,1,0,0,0.4281,button_right,0.4281,1,,,,,,1,WORD,"ID",50,fright,FRIGHT,m,,,,,,0.511566084,-0.30869765,1,0,0,,0,61,61,60,1,
,,,,,,,,,,,,,,,,,,5f10f17a01b48a42592fd0ec,2020-08-10_18h57.44.480,lexical_decision_task_MP,2020.1.3,Linux armv8l,60,,0,0.507864993,-0.309622961,1,0,0,0.3464,button_right,0.3464,0,,,,,,290,NW,"ID",50,splino,SPLINO,z,,,,,,0.507864993,-0.309622961,1,0,0,,0,62,62,349,1,
,,,,,,,,,,,,,,,,,,5f10f17a01b48a42592fd0ec,2020-08-10_18h57.44.480,lexical_decision_task_MP,2020.1.3,Linux armv8l,60,,0,0.511566084,-0.311473507,1,0,0,0.5512,button_right,0.5512,1,,,,,,200,WORD,"ID",33,beacon,BEACON,m,,,,,,0.511566084,-0.311473507,1,0,0,,0,63,63,19,1,
,,,,,,,,,,,,,,,,,,5f10f17a01b48a42592fd0ec,2020-08-10_18h57.44.480,lexical_decision_task_MP,2020.1.3,Linux armv8l,60,,0,0.509715461,-0.302220701,1,0,0,0.4835,button_right,0.4835,1,,,,,,117,WORD,UN,33,flight,BRANCH,m,,,,,,0.509715461,-0.302220701,1,0,0,,0,64,64,176,1,
,,,,,,,,,,,,,,,,,,5f10f17a01b48a42592fd0ec,2020-08-10_18h57.44.480,lexical_decision_task_MP,2020.1.3,Linux armv8l,60,,0,0.507864993,-0.306847104,1,0,0,0.5099,button_right,0.5099,0,,,,,,450,NW,"ID",33,phrect,PHRECT,z,,,,,,0.507864993,-0.306847104,1,0,0,,0,65,65,269,1,
,,,,,,,,,,,,,,,,,,5f10f17a01b48a42592fd0ec,2020-08-10_18h57.44.480,lexical_decision_task_MP,2020.1.3,Linux armv8l,60,,0,0.509715461,-0.309622961,1,0,0,0.5291,button_right,0.5291,1,,,,,,224,WORD,"ID",33,period,PERIOD,m,,,,,,0.509715461,-0.309622961,1,0,0,,0,66,66,43,1,
,,,,,,,,,,,,,,,,,,5f10f17a01b48a42592fd0ec,2020-08-10_18h57.44.480,lexical_decision_task_MP,2020.1.3,Linux armv8l,60,,0,0.50601437,-0.311473507,1,0,0,0.5788,button_right,0.5788,1,,,,,,93,WORD,UN,33,travel,PUBLIC,m,,,,,,0.50601437,-0.311473507,1,0,0,,0,67,67,152,1,
,,,,,,,,,,,,,,,,,,5f10f17a01b48a42592fd0ec,2020-08-10_18h57.44.480,lexical_decision_task_MP,2020.1.3,Linux armv8l,60,,0,0.502313434,-0.310548273,1,0,0,0.4824,button_right,0.4824,0,,,,,,270,NW,"ID",50,wrimsy,WRIMSY,z,,,,,,0.502313434,-0.310548273,1,0,0,,0,68,68,329,1,
,,,,,,,,,,,,,,,,,,5f10f17a01b48a42592fd0ec,2020-08-10_18h57.44.480,lexical_decision_task_MP,2020.1.3,Linux armv8l,60,,0,0.50601437,-0.322576935,1,0,0,0.6155,button_right,0.6155,0,,,,,,421,NW,"ID",33,knisma,KNISMA,z,,,,,,0.50601437,-0.322576935,1,0,0,,0,69,69,240,1,
,,,,,,,,,,,,,,,,,,5f10f17a01b48a42592fd0ec,2020-08-10_18h57.44.480,lexical_decision_task_MP,2020.1.3,Linux armv8l,60,,0,0.50601437,-0.319801078,1,0,0,0.6501,button_right,0.6501,0,,,,,,377,NW,UN,50,shrile,INJORE,z,,,,,,0.50601437,-0.319801078,1,0,0,,0,70,70,436,1,
,,,,,,,,,,,,,,,,,,5f10f17a01b48a42592fd0ec,2020-08-10_18h57.44.480,lexical_decision_task_MP,2020.1.3,Linux armv8l,60,,0,-0.5478834,-0.283715013,1,0,0,0.7319,button_left,0.7319,1,,,,,,415,NW,UN,50,pathel,HIGSTA,z,,,,,,-0.5478834,-0.283715013,1,0,0,,0,71,71,474,1,
,,,,,,,,,,,,,,,,,,5f10f17a01b48a42592fd0ec,2020-08-10_18h57.44.480,lexical_decision_task_MP,2020.1.3,Linux armv8l,60,,0,0.50601437,-0.312398818,1,0,0,0.5665,button_right,0.5665,1,,,,,,152,WORD,UN,50,behold,ROCKET,m,,,,,,0.50601437,-0.312398818,1,0,0,,0,72,72,211,1,
,,,,,,,,,,,,,,,,,,5f10f17a01b48a42592fd0ec,2020-08-10_18h57.44.480,lexical_decision_task_MP,2020.1.3,Linux armv8l,60,,0,0.511566084,-0.314249364,1,0,0,0.5495,button_right,0.5495,1,,,,,,38,WORD,"ID",50,powder,POWDER,m,,,,,,0.511566084,-0.314249364,1,0,0,,0,73,73,97,1,
,,,,,,,,,,,,,,,,,,5f10f17a01b48a42592fd0ec,2020-08-10_18h57.44.480,lexical_decision_task_MP,2020.1.3,Linux armv8l,60,,0,0.509715461,-0.317025221,1,0,0,0.7435,button_right,0.7435,0,,,,,,411,NW,UN,50,jiluer,ORCHIN,z,,,,,,0.509715461,-0.317025221,1,0,0,,0,74,74,470,1,
,,,,,,,,,,,,,,,,,,5f10f17a01b48a42592fd0ec,2020-08-10_18h57.44.480,lexical_decision_task_MP,2020.1.3,Linux armv8l,60,,0,0.510640773,-0.318875767,1,0,0,0.4836,button_right,0.4836,0,,,,,,465,NW,"ID",33,whivex,WHIVEX,z,,,,,,0.510640773,-0.318875767,1,0,0,,0,75,75,284,1,
,,,,,,,,,,,,,,,,,,5f10f17a01b48a42592fd0ec,2020-08-10_18h57.44.480,lexical_decision_task_MP,2020.1.3,Linux armv8l,60,,0,0.512491551,-0.32072639,1,0,0,0.6003,button_right,0.6003,0,,,,,,268,NW,"ID",50,packes,PACKES,z,,,,,,0.512491551,-0.32072639,1,0,0,,0,76,76,327,1,
,,,,,,,,,,,,,,,,,,5f10f17a01b48a42592fd0ec,2020-08-10_18h57.44.480,lexical_decision_task_MP,2020.1.3,Linux armv8l,60,,0,-0.552509803,-0.289266727,1,0,0,0.6289,button_left,0.6289,0,,,,,,68,WORD,UN,33,plenty,FUMBLE,m,,,,,,-0.552509803,-0.289266727,1,0,0,,0,77,77,127,1,
,,,,,,,,,,,,,,,,,,5f10f17a01b48a42592fd0ec,2020-08-10_18h57.44.480,lexical_decision_task_MP,2020.1.3,Linux armv8l,60,,0,-0.558061517,-0.29389313,1,0,0,0.8141,button_left,0.8141,1,,,,,,310,NW,UN,33,sproly,DANIET,z,,,,,,-0.558061517,-0.29389313,1,0,0,,0,78,78,369,1,
,,,,,,,,,,,,,,,,,,5f10f17a01b48a42592fd0ec,2020-08-10_18h57.44.480,lexical_decision_task_MP,2020.1.3,Linux armv8l,60,,0,0.508790305,-0.317025221,1,0,0,0.468,button_right,0.468,1,,,,,,161,WORD,UN,50,candle,PASTOR,m,,,,,,0.508790305,-0.317025221,1,0,0,,0,79,79,220,1,
,,,,,,,,,,,,,,,,,,5f10f17a01b48a42592fd0ec,2020-08-10_18h57.44.480,lexical_decision_task_MP,2020.1.3,Linux armv8l,60,,0,-0.563613232,-0.281864467,1,0,0,0.5717,button_left,0.5717,0,,,,,,140,WORD,UN,50,chrome,PRINCE,m,,,,,,-0.563613232,-0.281864467,1,0,0,,0,80,80,199,1,
,,,,,,,,,,,,,,,,,,5f10f17a01b48a42592fd0ec,2020-08-10_18h57.44.480,lexical_decision_task_MP,2020.1.3,Linux armv8l,60,,0,0.509715461,-0.31795061,1,0,0,0.444,button_right,0.444,0,,,,,,474,NW,"ID",33,hablin,HABLIN,z,,,,,,0.509715461,-0.31795061,1,0,0,,0,81,81,293,1,
,,,,,,,,,,,,,,,,,,5f10f17a01b48a42592fd0ec,2020-08-10_18h57.44.480,lexical_decision_task_MP,2020.1.3,Linux armv8l,60,,0,0.511566084,-0.314249364,1,0,0,0.4893,button_right,0.4893,1,,,,,,106,WORD,UN,33,slogan,RANSOM,m,,,,,,0.511566084,-0.314249364,1,0,0,,0,82,82,165,1,
,,,,,,,,,,,,,,,,,,5f10f17a01b48a42592fd0ec,2020-08-10_18h57.44.480,lexical_decision_task_MP,2020.1.3,Linux armv8l,60,,0,0.514341864,-0.317025221,1,0,0,0.5825,button_right,0.5825,0,,,,,,392,NW,UN,50,ganous,ROUNCY,z,,,,,,0.514341864,-0.317025221,1,0,0,,0,83,83,451,1,
,,,,,,,,,,,,,,,,,,5f10f17a01b48a42592fd0ec,2020-08-10_18h57.44.480,lexical_decision_task_MP,2020.1.3,Linux armv8l,60,,0,-0.571940764,-0.287416259,1,0,0,0.6557,button_left,0.6557,1,,,,,,449,NW,"ID",33,brunge,BRUNGE,z,,,,,,-0.571940764,-0.287416259,1,0,0,,0,84,84,268,1,
,,,,,,,,,,,,,,,,,,5f10f17a01b48a42592fd0ec,2020-08-10_18h57.44.480,lexical_decision_task_MP,2020.1.3,Linux armv8l,60,,0,0.508790305,-0.314249364,1,0,0,0.4775,button_right,0.4775,1,,,,,,107,WORD,UN,33,reckon,SLOGAN,m,,,,,,0.508790305,-0.314249364,1,0,0,,0,85,85,166,1,
,,,,,,,,,,,,,,,,,,5f10f17a01b48a42592fd0ec,2020-08-10_18h57.44.480,lexical_decision_task_MP,2020.1.3,Linux armv8l,60,,0,0.50601437,-0.31332413,1,0,0,0.645,button_right,0.645,0,,,,,,360,NW,UN,33,fainch,DESORY,z,,,,,,0.50601437,-0.31332413,1,0,0,,0,86,86,419,1,
,,,,,,,,,,,,,,,,,,5f10f17a01b48a42592fd0ec,2020-08-10_18h57.44.480,lexical_decision_task_MP,2020.1.3,Linux armv8l,60,,0,-0.576567128,-0.290192039,1,0,0,0.6089,button_left,0.6089,0,,,,,,204,WORD,"ID",33,burden,BURDEN,m,,,,,,-0.576567128,-0.290192039,1,0,0,,0,87,87,23,1,
,,,,,,,,,,,,,,,,,,5f10f17a01b48a42592fd0ec,2020-08-10_18h57.44.480,lexical_decision_task_MP,2020.1.3,Linux armv8l,60,,0,0.505089059,-0.314249364,1,0,0,0.4926,button_right,0.4926,1,,,,,,13,WORD,"ID",50,strive,STRIVE,m,,,,,,0.505089059,-0.314249364,1,0,0,,0,88,88,72,1,
,,,,,,,,,,,,,,,,,,5f10f17a01b48a42592fd0ec,2020-08-10_18h57.44.480,lexical_decision_task_MP,2020.1.3,Linux armv8l,60,,0,0.508790305,-0.30592187,1,0,0,0.4438,button_right,0.4438,1,,,,,,16,WORD,"ID",50,faucet,FAUCET,m,,,,,,0.508790305,-0.30592187,1,0,0,,0,89,89,75,1,
,,,,,,,,,,,,,,,,,,5f10f17a01b48a42592fd0ec,2020-08-10_18h57.44.480,lexical_decision_task_MP,2020.1.3,Linux armv8l,60,,0,0.509715461,-0.307772493,1,0,0,0.4449,button_right,0.4449,1,,,,,,57,WORD,"ID",50,change,CHANGE,m,,,,,,0.509715461,-0.307772493,1,0,0,,0,90,90,116,1,
,,,,,,,,,,,,,,,,,,5f10f17a01b48a42592fd0ec,2020-08-10_18h57.44.480,lexical_decision_task_MP,2020.1.3,Linux armv8l,60,,0,0.521744202,-0.303146013,1,0,0,0.5622,button_right,0.5622,0,,,,,,359,NW,UN,33,desory,FONVER,z,,,,,,0.521744202,-0.303146013,1,0,0,,0,91,91,418,1,
,,,,,,,,,,,,,,,,,,5f10f17a01b48a42592fd0ec,2020-08-10_18h57.44.480,lexical_decision_task_MP,2020.1.3,Linux armv8l,60,,0,-0.559912102,-0.287416259,1,0,0,1.8366,button_left,1.8366,1,,,,,,458,NW,"ID",33,barcet,BARCET,z,,,,,,-0.559912102,-0.287416259,1,0,0,,0,92,92,277,1,
,,,,,,,,,,,,,,,,,,5f10f17a01b48a42592fd0ec,2020-08-10_18h57.44.480,lexical_decision_task_MP,2020.1.3,Linux armv8l,60,,0,0.514341864,-0.310548273,1,0,0,0.5137,button_right,0.5137,1,,,,,,96,WORD,UN,33,client,IGNORE,m,,,,,,0.514341864,-0.310548273,1,0,0,,0,93,93,155,1,
,,,,,,,,,,,,,,,,,,5f10f17a01b48a42592fd0ec,2020-08-10_18h57.44.480,lexical_decision_task_MP,2020.1.3,Linux armv8l,60,,0,0.517117799,-0.309622961,1,0,0,0.5272,button_right,0.5272,1,,,,,,186,WORD,"ID",33,portal,PORTAL,m,,,,,,0.517117799,-0.309622961,1,0,0,,0,94,94,5,1,
,,,,,,,,,,,,,,,,,,5f10f17a01b48a42592fd0ec,2020-08-10_18h57.44.480,lexical_decision_task_MP,2020.1.3,Linux armv8l,60,,0,-0.55528566,-0.290192039,1,0,0,1.1716,button_left,1.1716,1,,,,,,435,NW,"ID",33,impurb,IMPURB,z,,,,,,-0.55528566,-0.290192039,1,0,0,,0,95,95,254,1,
,,,,,,,,,,,,,,,,,,5f10f17a01b48a42592fd0ec,2020-08-10_18h57.44.480,lexical_decision_task_MP,2020.1.3,Linux armv8l,60,,0,0.503238591,-0.292042584,1,0,0,1.0048,button_right,1.0048,0,,,,,,355,NW,UN,33,othnis,ZINGLY,z,,,,,,0.503238591,-0.292042584,1,0,0,,0,96,96,414,1,
,,,,,,,,,,,,,,,,,,5f10f17a01b48a42592fd0ec,2020-08-10_18h57.44.480,lexical_decision_task_MP,2020.1.3,Linux armv8l,60,,0,,,,,,,,1.0048,-1,,,,,,232,WORD,"ID",33,inject,INJECT,m,,,,,,0.503238591,-0.292042584,0,0,0,,0,97,97,51,1,
,,,,,,,,,,,,,,,,,,5f10f17a01b48a42592fd0ec,2020-08-10_18h57.44.480,lexical_decision_task_MP,2020.1.3,Linux armv8l,60,,0,0.430141148,-0.285565636,1,0,0,0.5319,button_right,0.5319,1,,,,,,17,WORD,"ID",50,charge,CHARGE,m,,,,,,0.430141148,-0.285565636,1,0,0,,0,98,98,76,1,
,,,,,,,,,,,,,,,,,,5f10f17a01b48a42592fd0ec,2020-08-10_18h57.44.480,lexical_decision_task_MP,2020.1.3,Linux armv8l,60,,0,0.447721603,-0.274462207,1,0,0,0.4961,button_right,0.4961,1,,,,,,154,WORD,UN,50,lizard,AUTHOR,m,,,,,,0.447721603,-0.274462207,1,0,0,,0,99,99,213,1,
,,,,,,,,,,,,,,,,,,5f10f17a01b48a42592fd0ec,2020-08-10_18h57.44.480,lexical_decision_task_MP,2020.1.3,Linux armv8l,60,,0,0.473629396,-0.294818441,1,0,0,0.4838,button_right,0.4838,1,,,,,,201,WORD,"ID",33,admire,ADMIRE,m,,,,,,0.473629396,-0.294818441,1,0,0,,0,100,100,20,1,
,,,,,,,,,,,,,,,,,,5f10f17a01b48a42592fd0ec,2020-08-10_18h57.44.480,lexical_decision_task_MP,2020.1.3,Linux armv8l,60,,0,0.458824876,-0.296668987,1,0,0,0.4844,button_right,0.4844,1,,,,,,54,WORD,"ID",50,ramble,RAMBLE,m,,,,,,0.458824876,-0.296668987,1,0,0,,0,101,101,113,1,
,,,,,,,,,,,,,,,,,,5f10f17a01b48a42592fd0ec,2020-08-10_18h57.44.480,lexical_decision_task_MP,2020.1.3,Linux armv8l,60,,0,0.456974408,-0.295743753,1,0,0,0.579,button_right,0.579,1,,,,,,155,WORD,UN,50,cradle,LIZARD,m,,,,,,0.456974408,-0.295743753,1,0,0,,0,102,102,214,1,
,,,,,,,,,,,,,,,,,,5f10f17a01b48a42592fd0ec,2020-08-10_18h57.44.480,lexical_decision_task_MP,2020.1.3,Linux armv8l,60,,0,0.459750188,-0.297594376,1,0,0,0.4315,button_right,0.4315,0,,,,,,303,NW,UN,33,cludie,FIREAM,z,,,,,,0.459750188,-0.297594376,1,0,0,,0,103,103,362,1,
,,,,,,,,,,,,,,,,,,5f10f17a01b48a42592fd0ec,2020-08-10_18h57.44.480,lexical_decision_task_MP,2020.1.3,Linux armv8l,60,,0,0.466227214,-0.292042584,1,0,0,0.5158,button_right,0.5158,1,,,,,,225,WORD,"ID",33,vulgar,VULGAR,m,,,,,,0.466227214,-0.292042584,1,0,0,,0,104,104,44,1,
,,,,,,,,,,,,,,,,,,5f10f17a01b48a42592fd0ec,2020-08-10_18h57.44.480,lexical_decision_task_MP,2020.1.3,Linux armv8l,60,,0,0.475480019,-0.291117273,1,0,0,0.501,button_right,0.501,1,,,,,,222,WORD,"ID",33,hinder,HINDER,m,,,,,,0.475480019,-0.291117273,1,0,0,,0,105,105,41,1,
,,,,,,,,,,,,,,,,,,5f10f17a01b48a42592fd0ec,2020-08-10_18h57.44.480,lexical_decision_task_MP,2020.1.3,Linux armv8l,60,,0,0.476405331,-0.295743753,1,0,0,0.4117,button_right,0.4117,1,,,,,,167,WORD,UN,50,answer,DESIGN,m,,,,,,0.476405331,-0.295743753,1,0,0,,0,106,106,226,1,
,,,,,,,,,,,,,,,,,,5f10f17a01b48a42592fd0ec,2020-08-10_18h57.44.480,lexical_decision_task_MP,2020.1.3,Linux armv8l,60,,0,-0.512722646,-0.277238142,1,0,0,1.4832,button_left,1.4832,1,,,,,,304,NW,UN,33,forgle,CLUDIE,z,,,,,,-0.512722646,-0.277238142,1,0,0,,0,107,107,363,1,
,,,,,,,,,,,,,,,,,,5f10f17a01b48a42592fd0ec,2020-08-10_18h57.44.480,lexical_decision_task_MP,2020.1.3,Linux armv8l,60,,0,0.469002993,-0.288341415,1,0,0,0.3313,button_right,0.3313,1,,,,,,48,WORD,"ID",50,walnut,WALNUT,m,,,,,,0.469002993,-0.288341415,1,0,0,,0,108,108,107,1,
,,,,,,,,,,,,,,,,,,5f10f17a01b48a42592fd0ec,2020-08-10_18h57.44.480,lexical_decision_task_MP,2020.1.3,Linux armv8l,60,,0,-0.521050179,-0.283715013,1,0,0,0.7567,button_left,0.7567,1,,,,,,463,NW,"ID",33,kispel,KISPEL,z,,,,,,-0.521050179,-0.283715013,1,0,0,,0,109,109,282,1,
,,,,,,,,,,,,,,,,,,5f10f17a01b48a42592fd0ec,2020-08-10_18h57.44.480,lexical_decision_task_MP,2020.1.3,Linux armv8l,60,,0,0.471779083,-0.289266727,1,0,0,0.376,button_right,0.376,1,,,,,,236,WORD,"ID",33,pirate,PIRATE,m,,,,,,0.471779083,-0.289266727,1,0,0,,0,110,110,55,1,
,,,,,,,,,,,,,,,,,,5f10f17a01b48a42592fd0ec,2020-08-10_18h57.44.480,lexical_decision_task_MP,2020.1.3,Linux armv8l,60,,0,-0.524751309,-0.287416259,1,0,0,0.5857,button_left,0.5857,1,,,,,,306,NW,UN,33,kirafe,SOUNGE,z,,,,,,-0.524751309,-0.287416259,1,0,0,,0,111,111,365,1,
,,,,,,,,,,,,,,,,,,5f10f17a01b48a42592fd0ec,2020-08-10_18h57.44.480,lexical_decision_task_MP,2020.1.3,Linux armv8l,60,,0,0.492135317,-0.284640324,1,0,0,0.4957,button_right,0.4957,0,,,,,,255,NW,"ID",50,apight,APIGHT,z,,,,,,0.492135317,-0.284640324,1,0,0,,0,112,112,314,1,
,,,,,,,,,,,,,,,,,,5f10f17a01b48a42592fd0ec,2020-08-10_18h57.44.480,lexical_decision_task_MP,2020.1.3,Linux armv8l,60,,0,-0.538630556,-0.274462207,1,0,0,0.4304,button_left,0.4304,1,,,,,,332,NW,UN,33,catrie,VANGUE,z,,,,,,-0.538630556,-0.274462207,1,0,0,,0,113,113,391,1,
,,,,,,,,,,,,,,,,,,5f10f17a01b48a42592fd0ec,2020-08-10_18h57.44.480,lexical_decision_task_MP,2020.1.3,Linux armv8l,60,,0,0.481031733,-0.290192039,1,0,0,0.5178,button_right,0.5178,0,,,,,,374,NW,UN,50,yorque,SLIANT,z,,,,,,0.481031733,-0.290192039,1,0,0,,0,114,114,433,1,
,,,,,,,,,,,,,,,,,,5f10f17a01b48a42592fd0ec,2020-08-10_18h57.44.480,lexical_decision_task_MP,2020.1.3,Linux armv8l,60,,0,0.486583448,-0.288341415,1,0,0,0.4986,button_right,0.4986,1,,,,,,187,WORD,"ID",33,course,COURSE,m,,,,,,0.486583448,-0.288341415,1,0,0,,0,115,115,6,1,
,,,,,,,,,,,,,,,,,,5f10f17a01b48a42592fd0ec,2020-08-10_18h57.44.480,lexical_decision_task_MP,2020.1.3,Linux armv8l,60,,0,0.484732824,-0.294818441,1,0,0,0.3839,button_right,0.3839,0,,,,,,283,NW,"ID",50,veralf,VERALF,z,,,,,,0.484732824,-0.294818441,1,0,0,,0,116,116,342,1,
,,,,,,,,,,,,,,,,,,5f10f17a01b48a42592fd0ec,2020-08-10_18h57.44.480,lexical_decision_task_MP,2020.1.3,Linux armv8l,60,,0,0.483807513,-0.297594376,1,0,0,0.4753,button_right,0.4753,0,,,,,,279,NW,"ID",50,celond,CELOND,z,,,,,,0.483807513,-0.297594376,1,0,0,,0,117,117,338,1,
,,,,,,,,,,,,,,,,,,5f10f17a01b48a42592fd0ec,2020-08-10_18h57.44.480,lexical_decision_task_MP,2020.1.3,Linux armv8l,60,,0,0.488434071,-0.297594376,1,0,0,0.6115,button_right,0.6115,1,,,,,,44,WORD,"ID",50,danger,DANGER,m,,,,,,0.488434071,-0.297594376,1,0,0,,0,118,118,103,1,
,,,,,,,,,,,,,,,,,,5f10f17a01b48a42592fd0ec,2020-08-10_18h57.44.480,lexical_decision_task_MP,2020.1.3,Linux armv8l,60,,0,0.492135317,-0.296668987,1,0,0,0.4627,button_right,0.4627,0,,,,,,345,NW,UN,33,saudic,ABSEND,z,,,,,,0.492135317,-0.296668987,1,0,0,,0,119,119,404,1,
,,,,,,,,,,,,,,,,,,5f10f17a01b48a42592fd0ec,2020-08-10_18h57.44.480,lexical_decision_task_MP,2020.1.3,Linux armv8l,60,,0,0.494910941,-0.30129539,1,0,0,0.5108,button_right,0.5108,0,,,,,,460,NW,"ID",33,mingar,MINGAR,z,,,,,,0.143303403,-0.407703041,1,0,0,,0,120,120,279,1,break_done_button
,,,,,,,,,,,,,,,,,,5f10f17a01b48a42592fd0ec,2020-08-10_18h57.44.480,lexical_decision_task_MP,2020.1.3,Linux armv8l,60,,0,0.494910941,-0.31795061,1,0,0,0.6838,button_right,0.6838,1,,,,,,21,WORD,"ID",50,simple,SIMPLE,m,,,,,,0.494910941,-0.31795061,1,0,0,,0,121,121,80,1,
,,,,,,,,,,,,,,,,,,5f10f17a01b48a42592fd0ec,2020-08-10_18h57.44.480,lexical_decision_task_MP,2020.1.3,Linux armv8l,60,,0,0.492135317,-0.31795061,1,0,0,0.3635,button_right,0.3635,0,,,,,,339,NW,UN,33,fiatch,FACHOW,z,,,,,,0.492135317,-0.31795061,1,0,0,,0,122,122,398,1,
,,,,,,,,,,,,,,,,,,5f10f17a01b48a42592fd0ec,2020-08-10_18h57.44.480,lexical_decision_task_MP,2020.1.3,Linux armv8l,60,,0,0.503238591,-0.311473507,1,0,0,0.4886,button_right,0.4886,1,,,,,,49,WORD,"ID",50,survey,SURVEY,m,,,,,,0.503238591,-0.311473507,1,0,0,,0,123,123,108,1,
,,,,,,,,,,,,,,,,,,5f10f17a01b48a42592fd0ec,2020-08-10_18h57.44.480,lexical_decision_task_MP,2020.1.3,Linux armv8l,60,,0,0.510640773,-0.30869765,1,0,0,0.4419,button_right,0.4419,1,,,,,,234,WORD,"ID",33,clumsy,CLUMSY,m,,,,,,0.510640773,-0.30869765,1,0,0,,0,124,124,53,1,
,,,,,,,,,,,,,,,,,,5f10f17a01b48a42592fd0ec,2020-08-10_18h57.44.480,lexical_decision_task_MP,2020.1.3,Linux armv8l,60,,0,0.513416708,-0.311473507,1,0,0,0.4227,button_right,0.4227,0,,,,,,461,NW,"ID",33,justre,JUSTRE,z,,,,,,0.513416708,-0.311473507,1,0,0,,0,125,125,280,1,
,,,,,,,,,,,,,,,,,,5f10f17a01b48a42592fd0ec,2020-08-10_18h57.44.480,lexical_decision_task_MP,2020.1.3,Linux armv8l,60,,0,0.515267176,-0.310548273,1,0,0,0.5311,button_right,0.5311,0,,,,,,267,NW,"ID",50,pasink,PASINK,z,,,,,,0.515267176,-0.310548273,1,0,0,,0,126,126,326,1,
,,,,,,,,,,,,,,,,,,5f10f17a01b48a42592fd0ec,2020-08-10_18h57.44.480,lexical_decision_task_MP,2020.1.3,Linux armv8l,60,,0,-0.525676543,-0.295743753,1,0,0,0.623,button_left,0.623,1,,,,,,317,NW,UN,33,reagly,WORBAL,z,,,,,,-0.525676543,-0.295743753,1,0,0,,0,127,127,376,1,
,,,,,,,,,,,,,,,,,,5f10f17a01b48a42592fd0ec,2020-08-10_18h57.44.480,lexical_decision_task_MP,2020.1.3,Linux armv8l,60,,0,0.512491551,-0.31332413,1,0,0,0.6102,button_right,0.6102,1,,,,,,55,WORD,"ID",50,stroke,STROKE,m,,,,,,0.512491551,-0.31332413,1,0,0,,0,128,128,114,1,
,,,,,,,,,,,,,,,,,,5f10f17a01b48a42592fd0ec,2020-08-10_18h57.44.480,lexical_decision_task_MP,2020.1.3,Linux armv8l,60,,0,0.513416708,-0.314249364,1,0,0,0.528,button_right,0.528,1,,,,,,60,WORD,"ID",50,pencil,PENCIL,m,,,,,,0.513416708,-0.314249364,1,0,0,,0,129,129,119,1,
,,,,,,,,,,,,,,,,,,5f10f17a01b48a42592fd0ec,2020-08-10_18h57.44.480,lexical_decision_task_MP,2020.1.3,Linux armv8l,60,,0,0.509715461,-0.318875767,1,0,0,0.4252,button_right,0.4252,1,,,,,,7,WORD,"ID",50,anchor,ANCHOR,m,,,,,,0.509715461,-0.318875767,1,0,0,,0,130,130,66,1,
,,,,,,,,,,,,,,,,,,5f10f17a01b48a42592fd0ec,2020-08-10_18h57.44.480,lexical_decision_task_MP,2020.1.3,Linux armv8l,60,,0,0.512491551,-0.317025221,1,0,0,0.399,button_right,0.399,1,,,,,,188,WORD,"ID",33,social,SOCIAL,m,,,,,,0.512491551,-0.317025221,1,0,0,,0,131,131,7,1,
,,,,,,,,,,,,,,,,,,5f10f17a01b48a42592fd0ec,2020-08-10_18h57.44.480,lexical_decision_task_MP,2020.1.3,Linux armv8l,60,,0,0.516192487,-0.318875767,1,0,0,0.4182,button_right,0.4182,0,,,,,,367,NW,UN,50,hornal,SLIQUE,z,,,,,,0.516192487,-0.318875767,1,0,0,,0,132,132,426,1,
,,,,,,,,,,,,,,,,,,5f10f17a01b48a42592fd0ec,2020-08-10_18h57.44.480,lexical_decision_task_MP,2020.1.3,Linux armv8l,60,,0,0.515267176,-0.318875767,1,0,0,0.372,button_right,0.372,0,,,,,,252,NW,"ID",50,stapod,STAPOD,z,,,,,,0.515267176,-0.318875767,1,0,0,,0,133,133,311,1,
,,,,,,,,,,,,,,,,,,5f10f17a01b48a42592fd0ec,2020-08-10_18h57.44.480,lexical_decision_task_MP,2020.1.3,Linux armv8l,60,,0,0.512491551,-0.318875767,1,0,0,0.4375,button_right,0.4375,0,,,,,,369,NW,UN,50,sleact,WRONCH,z,,,,,,0.512491551,-0.318875767,1,0,0,,0,134,134,428,1,
,,,,,,,,,,,,,,,,,,5f10f17a01b48a42592fd0ec,2020-08-10_18h57.44.480,lexical_decision_task_MP,2020.1.3,Linux armv8l,60,,0,-0.534929426,-0.30592187,1,0,0,0.5371,button_left,0.5371,0,,,,,,146,WORD,UN,50,garlic,COUPLE,m,,,,,,-0.534929426,-0.30592187,1,0,0,,0,135,135,205,1,
,,,,,,,,,,,,,,,,,,5f10f17a01b48a42592fd0ec,2020-08-10_18h57.44.480,lexical_decision_task_MP,2020.1.3,Linux armv8l,60,,0,0.511566084,-0.32072639,1,0,0,0.4441,button_right,0.4441,0,,,,,,414,NW,UN,50,higsta,SERBOL,z,,,,,,0.511566084,-0.32072639,1,0,0,,0,136,136,473,1,
,,,,,,,,,,,,,,,,,,5f10f17a01b48a42592fd0ec,2020-08-10_18h57.44.480,lexical_decision_task_MP,2020.1.3,Linux armv8l,60,,0,0.512491551,-0.318875767,1,0,0,0.527,button_right,0.527,0,,,,,,409,NW,UN,50,tunory,ELOPIA,z,,,,,,0.512491551,-0.318875767,1,0,0,,0,137,137,468,1,
,,,,,,,,,,,,,,,,,,5f10f17a01b48a42592fd0ec,2020-08-10_18h57.44.480,lexical_decision_task_MP,2020.1.3,Linux armv8l,60,,0,0.512491551,-0.31795061,1,0,0,0.7512,button_right,0.7512,0,,,,,,417,NW,UN,50,suidle,EAROUD,z,,,,,,0.512491551,-0.31795061,1,0,0,,0,138,138,476,1,
,,,,,,,,,,,,,,,,,,5f10f17a01b48a42592fd0ec,2020-08-10_18h57.44.480,lexical_decision_task_MP,2020.1.3,Linux armv8l,60,,0,-0.546032777,-0.290192039,1,0,0,0.4972,button_left,0.4972,1,,,,,,412,NW,UN,50,equats,JILUER,z,,,,,,-0.546032777,-0.290192039,1,0,0,,0,139,139,471,1,
,,,,,,,,,,,,,,,,,,5f10f17a01b48a42592fd0ec,2020-08-10_18h57.44.480,lexical_decision_task_MP,2020.1.3,Linux armv8l,60,,0,-0.546032777,-0.302220701,1,0,0,0.6097,button_left,0.6097,1,,,,,,300,NW,"ID",50,yarion,YARION,z,,,,,,-0.546032777,-0.302220701,1,0,0,,0,140,140,359,1,
,,,,,,,,,,,,,,,,,,5f10f17a01b48a42592fd0ec,2020-08-10_18h57.44.480,lexical_decision_task_MP,2020.1.3,Linux armv8l,60,,0,0.50601437,-0.318875767,1,0,0,0.5594,button_right,0.5594,0,,,,,,314,NW,UN,33,laston,SPRINE,z,,,,,,0.50601437,-0.318875767,1,0,0,,0,141,141,373,1,
,,,,,,,,,,,,,,,,,,5f10f17a01b48a42592fd0ec,2020-08-10_18h57.44.480,lexical_decision_task_MP,2020.1.3,Linux armv8l,60,,0,0.513416708,-0.311473507,1,0,0,0.5168,button_right,0.5168,0,,,,,,473,NW,"ID",33,crible,CRIBLE,z,,,,,,0.513416708,-0.311473507,1,0,0,,0,142,142,292,1,
,,,,,,,,,,,,,,,,,,5f10f17a01b48a42592fd0ec,2020-08-10_18h57.44.480,lexical_decision_task_MP,2020.1.3,Linux armv8l,60,,0,0.512491551,-0.317025221,1,0,0,0.5843,button_right,0.5843,0,,,,,,373,NW,UN,50,sliant,BIGENT,z,,,,,,0.512491551,-0.317025221,1,0,0,,0,143,143,432,1,
,,,,,,,,,,,,,,,,,,5f10f17a01b48a42592fd0ec,2020-08-10_18h57.44.480,lexical_decision_task_MP,2020.1.3,Linux armv8l,60,,0,-0.550659257,-0.30592187,1,0,0,0.5952,button_left,0.5952,1,,,,,,356,NW,UN,33,derain,OTHNIS,z,,,,,,-0.550659257,-0.30592187,1,0,0,,0,144,144,415,1,
,,,,,,,,,,,,,,,,,,5f10f17a01b48a42592fd0ec,2020-08-10_18h57.44.480,lexical_decision_task_MP,2020.1.3,Linux armv8l,60,,0,0.512491551,-0.310548273,1,0,0,0.4451,button_right,0.4451,1,,,,,,221,WORD,"ID",33,mascot,MASCOT,m,,,,,,0.512491551,-0.310548273,1,0,0,,0,145,145,40,1,
,,,,,,,,,,,,,,,,,,5f10f17a01b48a42592fd0ec,2020-08-10_18h57.44.480,lexical_decision_task_MP,2020.1.3,Linux armv8l,60,,0,0.510640773,-0.317025221,1,0,0,0.4621,button_right,0.4621,0,,,,,,440,NW,"ID",33,saride,SARIDE,z,,,,,,0.510640773,-0.317025221,1,0,0,,0,146,146,259,1,
,,,,,,,,,,,,,,,,,,5f10f17a01b48a42592fd0ec,2020-08-10_18h57.44.480,lexical_decision_task_MP,2020.1.3,Linux armv8l,60,,0,-0.548808673,-0.310548273,1,0,0,0.4725,button_left,0.4725,0,,,,,,94,WORD,UN,33,thread,TRAVEL,m,,,,,,-0.548808673,-0.310548273,1,0,0,,0,147,147,153,1,
,,,,,,,,,,,,,,,,,,5f10f17a01b48a42592fd0ec,2020-08-10_18h57.44.480,lexical_decision_task_MP,2020.1.3,Linux armv8l,60,,0,0.509715461,-0.30869765,1,0,0,0.4233,button_right,0.4233,0,,,,,,361,NW,UN,50,tireau,PAUCHE,z,,,,,,0.509715461,-0.30869765,1,0,0,,0,148,148,420,1,
,,,,,,,,,,,,,,,,,,5f10f17a01b48a42592fd0ec,2020-08-10_18h57.44.480,lexical_decision_task_MP,2020.1.3,Linux armv8l,60,,0,0.512491551,-0.31332413,1,0,0,0.5631,button_right,0.5631,1,,,,,,145,WORD,UN,50,couple,PARISH,m,,,,,,0.512491551,-0.31332413,1,0,0,,0,149,149,204,1,
,,,,,,,,,,,,,,,,,,5f10f17a01b48a42592fd0ec,2020-08-10_18h57.44.480,lexical_decision_task_MP,2020.1.3,Linux armv8l,60,,0,0.509715461,-0.316099987,1,0,0,0.4646,button_right,0.4646,0,,,,,,245,NW,"ID",50,anougs,ANOUGS,z,,,,,,0.509715461,-0.316099987,1,0,0,,0,150,150,304,1,
,,,,,,,,,,,,,,,,,,5f10f17a01b48a42592fd0ec,2020-08-10_18h57.44.480,lexical_decision_task_MP,2020.1.3,Linux armv8l,60,,0,-0.54418227,-0.307772493,1,0,0,0.4955,button_left,0.4955,0,,,,,,102,WORD,UN,33,bounce,DIRECT,m,,,,,,-0.54418227,-0.307772493,1,0,0,,0,151,151,161,1,
,,,,,,,,,,,,,,,,,,5f10f17a01b48a42592fd0ec,2020-08-10_18h57.44.480,lexical_decision_task_MP,2020.1.3,Linux armv8l,60,,0,0.506939682,-0.317025221,1,0,0,0.4499,button_right,0.4499,1,,,,,,11,WORD,"ID",50,cruise,CRUISE,m,,,,,,0.506939682,-0.317025221,1,0,0,,0,152,152,70,1,
,,,,,,,,,,,,,,,,,,5f10f17a01b48a42592fd0ec,2020-08-10_18h57.44.480,lexical_decision_task_MP,2020.1.3,Linux armv8l,60,,0,0.510640773,-0.317025221,1,0,0,0.4345,button_right,0.4345,1,,,,,,9,WORD,"ID",50,hustle,HUSTLE,m,,,,,,0.510640773,-0.317025221,1,0,0,,0,153,153,68,1,
,,,,,,,,,,,,,,,,,,5f10f17a01b48a42592fd0ec,2020-08-10_18h57.44.480,lexical_decision_task_MP,2020.1.3,Linux armv8l,60,,0,-0.546032777,-0.306847104,1,0,0,0.6786,button_left,0.6786,1,,,,,,331,NW,UN,33,vangue,GILFEW,z,,,,,,-0.546032777,-0.306847104,1,0,0,,0,154,154,390,1,
,,,,,,,,,,,,,,,,,,5f10f17a01b48a42592fd0ec,2020-08-10_18h57.44.480,lexical_decision_task_MP,2020.1.3,Linux armv8l,60,,0,0.511566084,-0.316099987,1,0,0,0.3934,button_right,0.3934,1,,,,,,6,WORD,"ID",50,bundle,BUNDLE,m,,,,,,0.511566084,-0.316099987,1,0,0,,0,155,155,65,1,
,,,,,,,,,,,,,,,,,,5f10f17a01b48a42592fd0ec,2020-08-10_18h57.44.480,lexical_decision_task_MP,2020.1.3,Linux armv8l,60,,0,0.510640773,-0.31795061,1,0,0,0.6172,button_right,0.6172,0,,,,,,427,NW,"ID",33,schind,SCHIND,z,,,,,,0.510640773,-0.31795061,1,0,0,,0,156,156,246,1,
,,,,,,,,,,,,,,,,,,5f10f17a01b48a42592fd0ec,2020-08-10_18h57.44.480,lexical_decision_task_MP,2020.1.3,Linux armv8l,60,,0,0.510640773,-0.318875767,1,0,0,0.5123,button_right,0.5123,0,,,,,,311,NW,UN,33,nerawl,SPROLY,z,,,,,,0.510640773,-0.318875767,1,0,0,,0,157,157,370,1,
,,,,,,,,,,,,,,,,,,5f10f17a01b48a42592fd0ec,2020-08-10_18h57.44.480,lexical_decision_task_MP,2020.1.3,Linux armv8l,60,,0,-0.545107543,-0.31332413,1,0,0,0.5296,button_left,0.5296,1,,,,,,402,NW,UN,50,bruats,SYNTIC,z,,,,,,-0.545107543,-0.31332413,1,0,0,,0,158,158,461,1,
,,,,,,,,,,,,,,,,,,5f10f17a01b48a42592fd0ec,2020-08-10_18h57.44.480,lexical_decision_task_MP,2020.1.3,Linux armv8l,60,,0,0.510640773,-0.317025221,1,0,0,0.4706,button_right,0.4706,0,,,,,,386,NW,UN,50,gronce,ANCUST,z,,,,,,0.510640773,-0.317025221,1,0,0,,0,159,159,445,1,
,,,,,,,,,,,,,,,,,,5f10f17a01b48a42592fd0ec,2020-08-10_18h57.44.480,lexical_decision_task_MP,2020.1.3,Linux armv8l,60,,0,0.512491551,-0.315174675,1,0,0,0.7661,button_right,0.7661,0,,,,,,354,NW,UN,33,zingly,VIRLEX,z,,,,,,0.512491551,-0.315174675,1,0,0,,0,160,160,413,1,
,,,,,,,,,,,,,,,,,,5f10f17a01b48a42592fd0ec,2020-08-10_18h57.44.480,lexical_decision_task_MP,2020.1.3,Linux armv8l,60,,0,0.513416708,-0.314249364,1,0,0,0.7354,button_right,0.7354,0,,,,,,396,NW,UN,50,camble,FLENGY,z,,,,,,0.513416708,-0.314249364,1,0,0,,0,161,161,455,1,
,,,,,,,,,,,,,,,,,,5f10f17a01b48a42592fd0ec,2020-08-10_18h57.44.480,lexical_decision_task_MP,2020.1.3,Linux armv8l,60,,0,0.51804311,-0.31332413,1,0,0,0.5454,button_right,0.5454,1,,,,,,109,WORD,UN,33,polite,WONDER,m,,,,,,0.51804311,-0.31332413,1,0,0,,0,162,162,168,1,
,,,,,,,,,,,,,,,,,,5f10f17a01b48a42592fd0ec,2020-08-10_18h57.44.480,lexical_decision_task_MP,2020.1.3,Linux armv8l,60,,0,0.513416708,-0.314249364,1,0,0,0.4657,button_right,0.4657,1,,,,,,35,WORD,"ID",50,socket,SOCKET,m,,,,,,0.513416708,-0.314249364,1,0,0,,0,163,163,94,1,
,,,,,,,,,,,,,,,,,,5f10f17a01b48a42592fd0ec,2020-08-10_18h57.44.480,lexical_decision_task_MP,2020.1.3,Linux armv8l,60,,0,0.511566084,-0.312398818,1,0,0,0.5933,button_right,0.5933,1,,,,,,149,WORD,UN,50,random,INVADE,m,,,,,,0.511566084,-0.312398818,1,0,0,,0,164,164,208,1,
,,,,,,,,,,,,,,,,,,5f10f17a01b48a42592fd0ec,2020-08-10_18h57.44.480,lexical_decision_task_MP,2020.1.3,Linux armv8l,60,,0,0.511566084,-0.315174675,1,0,0,0.4345,button_right,0.4345,0,,,,,,467,NW,"ID",33,gorbie,GORBIE,z,,,,,,0.511566084,-0.315174675,1,0,0,,0,165,165,286,1,
,,,,,,,,,,,,,,,,,,5f10f17a01b48a42592fd0ec,2020-08-10_18h57.44.480,lexical_decision_task_MP,2020.1.3,Linux armv8l,60,,0,0.511566084,-0.315174675,1,0,0,0.5962,button_right,0.5962,0,,,,,,416,NW,UN,50,earoud,PATHEL,z,,,,,,0.511566084,-0.315174675,1,0,0,,0,166,166,475,1,
,,,,,,,,,,,,,,,,,,5f10f17a01b48a42592fd0ec,2020-08-10_18h57.44.480,lexical_decision_task_MP,2020.1.3,Linux armv8l,60,,0,-0.549733907,-0.304996558,1,0,0,0.6787,button_left,0.6787,1,,,,,,247,NW,"ID",50,blarge,BLARGE,z,,,,,,-0.549733907,-0.304996558,1,0,0,,0,167,167,306,1,
,,,,,,,,,,,,,,,,,,5f10f17a01b48a42592fd0ec,2020-08-10_18h57.44.480,lexical_decision_task_MP,2020.1.3,Linux armv8l,60,,0,0.512491551,-0.312398818,1,0,0,0.4487,button_right,0.4487,1,,,,,,34,WORD,"ID",50,jungle,JUNGLE,m,,,,,,0.512491551,-0.312398818,1,0,0,,0,168,168,93,1,
,,,,,,,,,,,,,,,,,,5f10f17a01b48a42592fd0ec,2020-08-10_18h57.44.480,lexical_decision_task_MP,2020.1.3,Linux armv8l,60,,0,0.511566084,-0.31795061,1,0,0,0.5972,button_right,0.5972,0,,,,,,273,NW,"ID",50,sortel,SORTEL,z,,,,,,0.511566084,-0.31795061,1,0,0,,0,169,169,332,1,
,,,,,,,,,,,,,,,,,,5f10f17a01b48a42592fd0ec,2020-08-10_18h57.44.480,lexical_decision_task_MP,2020.1.3,Linux armv8l,60,,0,0.511566084,-0.314249364,1,0,0,0.5596,button_right,0.5596,1,,,,,,97,WORD,UN,33,belong,CLIENT,m,,,,,,0.511566084,-0.314249364,1,0,0,,0,170,170,156,1,
,,,,,,,,,,,,,,,,,,5f10f17a01b48a42592fd0ec,2020-08-10_18h57.44.480,lexical_decision_task_MP,2020.1.3,Linux armv8l,60,,0,0.510640773,-0.316099987,1,0,0,0.5493,button_right,0.5493,1,,,,,,165,WORD,UN,50,starch,INVEST,m,,,,,,0.510640773,-0.316099987,1,0,0,,0,171,171,224,1,
,,,,,,,,,,,,,,,,,,5f10f17a01b48a42592fd0ec,2020-08-10_18h57.44.480,lexical_decision_task_MP,2020.1.3,Linux armv8l,60,,0,0.510640773,-0.318875767,1,0,0,0.409,button_right,0.409,0,,,,,,264,NW,"ID",50,vackel,VACKEL,z,,,,,,0.510640773,-0.318875767,1,0,0,,0,172,172,323,1,
,,,,,,,,,,,,,,,,,,5f10f17a01b48a42592fd0ec,2020-08-10_18h57.44.480,lexical_decision_task_MP,2020.1.3,Linux armv8l,60,,0,-0.549733907,-0.30129539,1,0,0,0.6772,button_left,0.6772,1,,,,,,242,NW,"ID",50,unwert,UNWERT,z,,,,,,-0.549733907,-0.30129539,1,0,0,,0,173,173,301,1,
,,,,,,,,,,,,,,,,,,5f10f17a01b48a42592fd0ec,2020-08-10_18h57.44.480,lexical_decision_task_MP,2020.1.3,Linux armv8l,60,,0,0.514341864,-0.316099987,1,0,0,0.4557,button_right,0.4557,1,,,,,,150,WORD,UN,50,mystic,RANDOM,m,,,,,,0.514341864,-0.316099987,1,0,0,,0,174,174,209,1,
,,,,,,,,,,,,,,,,,,5f10f17a01b48a42592fd0ec,2020-08-10_18h57.44.480,lexical_decision_task_MP,2020.1.3,Linux armv8l,60,,0,0.514341864,-0.319801078,1,0,0,0.5105,button_right,0.5105,1,,,,,,153,WORD,UN,50,author,BEHOLD,m,,,,,,0.514341864,-0.319801078,1,0,0,,0,175,175,212,1,
,,,,,,,,,,,,,,,,,,5f10f17a01b48a42592fd0ec,2020-08-10_18h57.44.480,lexical_decision_task_MP,2020.1.3,Linux armv8l,60,,0,0.514341864,-0.317025221,1,0,0,0.6548,button_right,0.6548,0,,,,,,418,NW,UN,50,slount,SUIDLE,z,,,,,,0.514341864,-0.317025221,1,0,0,,0,176,176,477,1,
,,,,,,,,,,,,,,,,,,5f10f17a01b48a42592fd0ec,2020-08-10_18h57.44.480,lexical_decision_task_MP,2020.1.3,Linux armv8l,60,,0,0.513416708,-0.321651624,1,0,0,0.5751,button_right,0.5751,1,,,,,,175,WORD,UN,50,strife,FABRIC,m,,,,,,0.513416708,-0.321651624,1,0,0,,0,177,177,234,1,
,,,,,,,,,,,,,,,,,,5f10f17a01b48a42592fd0ec,2020-08-10_18h57.44.480,lexical_decision_task_MP,2020.1.3,Linux armv8l,60,,0,0.512491551,-0.317025221,1,0,0,0.5457,button_right,0.5457,1,,,,,,46,WORD,"ID",50,single,SINGLE,m,,,,,,0.512491551,-0.317025221,1,0,0,,0,178,178,105,1,
,,,,,,,,,,,,,,,,,,5f10f17a01b48a42592fd0ec,2020-08-10_18h57.44.480,lexical_decision_task_MP,2020.1.3,Linux armv8l,60,,0,0.513416708,-0.317025221,1,0,0,0.4811,button_right,0.4811,0,,,,,,436,NW,"ID",33,frutan,FRUTAN,z,,,,,,0.513416708,-0.317025221,1,0,0,,0,179,179,255,1,
,,,,,,,,,,,,,,,,,,5f10f17a01b48a42592fd0ec,2020-08-10_18h57.44.480,lexical_decision_task_MP,2020.1.3,Linux armv8l,60,,0,0.516192487,-0.317025221,1,0,0,0.636,button_right,0.636,0,,,,,,263,NW,"ID",50,dolica,DOLICA,z,,,,,,0.516192487,-0.317025221,1,0,0,,0,180,180,322,1,
,,,,,,,,,,,,,,,,,,5f10f17a01b48a42592fd0ec,2020-08-10_18h57.44.480,lexical_decision_task_MP,2020.1.3,Linux armv8l,60,,0,0.51804311,-0.318875767,1,0,0,0.5915,button_right,0.5915,1,,,,,,76,WORD,UN,33,racket,EXOTIC,m,,,,,,0.51804311,-0.318875767,1,0,0,,0,181,181,135,1,
,,,,,,,,,,,,,,,,,,5f10f17a01b48a42592fd0ec,2020-08-10_18h57.44.480,lexical_decision_task_MP,2020.1.3,Linux armv8l,60,,0,0.517117799,-0.315174675,1,0,0,0.6026,button_right,0.6026,0,,,,,,326,NW,UN,33,plenac,IGUADE,z,,,,,,0.517117799,-0.315174675,1,0,0,,0,182,182,385,1,
,,,,,,,,,,,,,,,,,,5f10f17a01b48a42592fd0ec,2020-08-10_18h57.44.480,lexical_decision_task_MP,2020.1.3,Linux armv8l,60,,0,0.514341864,-0.31795061,1,0,0,0.5415,button_right,0.5415,1,,,,,,43,WORD,"ID",50,tongue,TONGUE,m,,,,,,0.514341864,-0.31795061,1,0,0,,0,183,183,102,1,
,,,,,,,,,,,,,,,,,,5f10f17a01b48a42592fd0ec,2020-08-10_18h57.44.480,lexical_decision_task_MP,2020.1.3,Linux armv8l,60,,0,0.515267176,-0.314249364,1,0,0,0.6904,button_right,0.6904,0,,,,,,324,NW,UN,33,thruse,STEIKH,z,,,,,,0.515267176,-0.314249364,1,0,0,,0,184,184,383,1,
,,,,,,,,,,,,,,,,,,5f10f17a01b48a42592fd0ec,2020-08-10_18h57.44.480,lexical_decision_task_MP,2020.1.3,Linux armv8l,60,,0,0.514341864,-0.31795061,1,0,0,0.6293,button_right,0.6293,1,,,,,,212,WORD,"ID",33,verify,VERIFY,m,,,,,,0.514341864,-0.31795061,1,0,0,,0,185,185,31,1,
,,,,,,,,,,,,,,,,,,5f10f17a01b48a42592fd0ec,2020-08-10_18h57.44.480,lexical_decision_task_MP,2020.1.3,Linux armv8l,60,,0,0.515267176,-0.31795061,1,0,0,0.6129,button_right,0.6129,0,,,,,,441,NW,"ID",33,rastoe,RASTOE,z,,,,,,0.515267176,-0.31795061,1,0,0,,0,186,186,260,1,
,,,,,,,,,,,,,,,,,,5f10f17a01b48a42592fd0ec,2020-08-10_18h57.44.480,lexical_decision_task_MP,2020.1.3,Linux armv8l,60,,0,0.516192487,-0.317025221,1,0,0,0.6954,button_right,0.6954,0,,,,,,338,NW,UN,33,fachow,WREASH,z,,,,,,0.516192487,-0.317025221,1,0,0,,0,187,187,397,1,
,,,,,,,,,,,,,,,,,,5f10f17a01b48a42592fd0ec,2020-08-10_18h57.44.480,lexical_decision_task_MP,2020.1.3,Linux armv8l,60,,0,0.513416708,-0.31795061,1,0,0,0.4902,button_right,0.4902,1,,,,,,229,WORD,"ID",33,mother,MOTHER,m,,,,,,0.513416708,-0.31795061,1,0,0,,0,188,188,48,1,
,,,,,,,,,,,,,,,,,,5f10f17a01b48a42592fd0ec,2020-08-10_18h57.44.480,lexical_decision_task_MP,2020.1.3,Linux armv8l,60,,0,0.514341864,-0.318875767,1,0,0,0.4325,button_right,0.4325,0,,,,,,364,NW,UN,50,guairt,IMPOTE,z,,,,,,0.514341864,-0.318875767,1,0,0,,0,189,189,423,1,
,,,,,,,,,,,,,,,,,,5f10f17a01b48a42592fd0ec,2020-08-10_18h57.44.480,lexical_decision_task_MP,2020.1.3,Linux armv8l,60,,0,-0.546958127,-0.30129539,1,0,0,0.6793,button_left,0.6793,1,,,,,,299,NW,"ID",50,sturch,STURCH,z,,,,,,-0.546958127,-0.30129539,1,0,0,,0,190,190,358,1,
,,,,,,,,,,,,,,,,,,5f10f17a01b48a42592fd0ec,2020-08-10_18h57.44.480,lexical_decision_task_MP,2020.1.3,Linux armv8l,60,,0,0.516192487,-0.319801078,1,0,0,0.5491,button_right,0.5491,1,,,,,,191,WORD,"ID",33,stable,STABLE,m,,,,,,0.516192487,-0.319801078,1,0,0,,0,191,191,10,1,
,,,,,,,,,,,,,,,,,,5f10f17a01b48a42592fd0ec,2020-08-10_18h57.44.480,lexical_decision_task_MP,2020.1.3,Linux armv8l,60,,0,0.519893578,-0.316099987,1,0,0,0.5619,button_right,0.5619,1,,,,,,129,WORD,UN,50,stupid,MARVEL,m,,,,,,0.519893578,-0.316099987,1,0,0,,0,192,192,188,1,
,,,,,,,,,,,,,,,,,,5f10f17a01b48a42592fd0ec,2020-08-10_18h57.44.480,lexical_decision_task_MP,2020.1.3,Linux armv8l,60,,0,-0.549733907,-0.31795061,1,0,0,0.9355,button_left,0.9355,1,,,,,,371,NW,UN,50,ramily,GEILOY,z,,,,,,-0.549733907,-0.31795061,1,0,0,,0,193,193,430,1,
,,,,,,,,,,,,,,,,,,5f10f17a01b48a42592fd0ec,2020-08-10_18h57.44.480,lexical_decision_task_MP,2020.1.3,Linux armv8l,60,,0,0.51804311,-0.325352793,1,0,0,0.3476,button_right,0.3476,1,,,,,,135,WORD,UN,50,bleach,IMPORT,m,,,,,,0.51804311,-0.325352793,1,0,0,,0,194,194,194,1,
,,,,,,,,,,,,,,,,,,5f10f17a01b48a42592fd0ec,2020-08-10_18h57.44.480,lexical_decision_task_MP,2020.1.3,Linux armv8l,60,,0,0.517117799,-0.323502247,1,0,0,0.5586,button_right,0.5586,0,,,,,,425,NW,"ID",33,frudge,FRUDGE,z,,,,,,0.517117799,-0.323502247,1,0,0,,0,195,195,244,1,
,,,,,,,,,,,,,,,,,,5f10f17a01b48a42592fd0ec,2020-08-10_18h57.44.480,lexical_decision_task_MP,2020.1.3,Linux armv8l,60,,0,0.518968422,-0.319801078,1,0,0,0.6613,button_right,0.6613,0,,,,,,380,NW,UN,50,huniek,CAVORY,z,,,,,,0.518968422,-0.319801078,1,0,0,,0,196,196,439,1,
,,,,,,,,,,,,,,,,,,5f10f17a01b48a42592fd0ec,2020-08-10_18h57.44.480,lexical_decision_task_MP,2020.1.3,Linux armv8l,60,,0,0.519893578,-0.319801078,1,0,0,0.5362,button_right,0.5362,1,,,,,,2,WORD,"ID",50,bridge,BRIDGE,m,,,,,,0.519893578,-0.319801078,1,0,0,,0,197,197,61,1,
,,,,,,,,,,,,,,,,,,5f10f17a01b48a42592fd0ec,2020-08-10_18h57.44.480,lexical_decision_task_MP,2020.1.3,Linux armv8l,60,,0,0.524519981,-0.317025221,1,0,0,0.5046,button_right,0.5046,1,,,,,,104,WORD,UN,33,number,STUDIO,m,,,,,,0.524519981,-0.317025221,1,0,0,,0,198,198,163,1,
,,,,,,,,,,,,,,,,,,5f10f17a01b48a42592fd0ec,2020-08-10_18h57.44.480,lexical_decision_task_MP,2020.1.3,Linux armv8l,60,,0,0.521744202,-0.317025221,1,0,0,0.4922,button_right,0.4922,1,,,,,,142,WORD,UN,50,reason,SPRUCE,m,,,,,,0.521744202,-0.317025221,1,0,0,,0,199,199,201,1,
,,,,,,,,,,,,,,,,,,5f10f17a01b48a42592fd0ec,2020-08-10_18h57.44.480,lexical_decision_task_MP,2020.1.3,Linux armv8l,60,,0,0.52081889,-0.32072639,1,0,0,0.5413,button_right,0.5413,1,,,,,,83,WORD,UN,33,mortal,RESULT,m,,,,,,0.52081889,-0.32072639,1,0,0,,0,200,200,142,1,
,,,,,,,,,,,,,,,,,,5f10f17a01b48a42592fd0ec,2020-08-10_18h57.44.480,lexical_decision_task_MP,2020.1.3,Linux armv8l,60,,0,0.519893578,-0.32072639,1,0,0,0.7139,button_right,0.7139,0,,,,,,334,NW,UN,33,desion,WATMEG,z,,,,,,0.519893578,-0.32072639,1,0,0,,0,201,201,393,1,
,,,,,,,,,,,,,,,,,,5f10f17a01b48a42592fd0ec,2020-08-10_18h57.44.480,lexical_decision_task_MP,2020.1.3,Linux armv8l,60,,0,0.519893578,-0.319801078,1,0,0,0.4454,button_right,0.4454,0,,,,,,248,NW,"ID",50,strole,STROLE,z,,,,,,0.519893578,-0.319801078,1,0,0,,0,202,202,307,1,
,,,,,,,,,,,,,,,,,,5f10f17a01b48a42592fd0ec,2020-08-10_18h57.44.480,lexical_decision_task_MP,2020.1.3,Linux armv8l,60,,0,0.52081889,-0.319801078,1,0,0,0.4458,button_right,0.4458,1,,,,,,14,WORD,"ID",50,almost,ALMOST,m,,,,,,0.52081889,-0.319801078,1,0,0,,0,203,203,73,1,
,,,,,,,,,,,,,,,,,,5f10f17a01b48a42592fd0ec,2020-08-10_18h57.44.480,lexical_decision_task_MP,2020.1.3,Linux armv8l,60,,0,0.522669668,-0.316099987,1,0,0,0.5282,button_right,0.5282,1,,,,,,103,WORD,UN,33,studio,BOUNCE,m,,,,,,0.522669668,-0.316099987,1,0,0,,0,204,204,162,1,
,,,,,,,,,,,,,,,,,,5f10f17a01b48a42592fd0ec,2020-08-10_18h57.44.480,lexical_decision_task_MP,2020.1.3,Linux armv8l,60,,0,0.523594825,-0.319801078,1,0,0,0.4647,button_right,0.4647,1,,,,,,70,WORD,UN,33,garden,SQUARE,m,,,,,,0.523594825,-0.319801078,1,0,0,,0,205,205,129,1,
,,,,,,,,,,,,,,,,,,5f10f17a01b48a42592fd0ec,2020-08-10_18h57.44.480,lexical_decision_task_MP,2020.1.3,Linux armv8l,60,,0,0.521744202,-0.321651624,1,0,0,0.3971,button_right,0.3971,0,,,,,,244,NW,"ID",50,eatric,EATRIC,z,,,,,,0.521744202,-0.321651624,1,0,0,,0,206,206,303,1,
,,,,,,,,,,,,,,,,,,5f10f17a01b48a42592fd0ec,2020-08-10_18h57.44.480,lexical_decision_task_MP,2020.1.3,Linux armv8l,60,,0,0.517117799,-0.316099987,1,0,0,0.5455,button_right,0.5455,1,,,,,,228,WORD,"ID",33,master,MASTER,m,,,,,,0.517117799,-0.316099987,1,0,0,,0,207,207,47,1,
,,,,,,,,,,,,,,,,,,5f10f17a01b48a42592fd0ec,2020-08-10_18h57.44.480,lexical_decision_task_MP,2020.1.3,Linux armv8l,60,,0,0.518968422,-0.32072639,1,0,0,0.4454,button_right,0.4454,0,,,,,,347,NW,UN,33,dumple,KERIFT,z,,,,,,0.518968422,-0.32072639,1,0,0,,0,208,208,406,1,
,,,,,,,,,,,,,,,,,,5f10f17a01b48a42592fd0ec,2020-08-10_18h57.44.480,lexical_decision_task_MP,2020.1.3,Linux armv8l,60,,0,0.517117799,-0.323502247,1,0,0,0.6285,button_right,0.6285,1,,,,,,121,WORD,UN,50,linger,THRIVE,m,,,,,,0.517117799,-0.323502247,1,0,0,,0,209,209,180,1,
,,,,,,,,,,,,,,,,,,5f10f17a01b48a42592fd0ec,2020-08-10_18h57.44.480,lexical_decision_task_MP,2020.1.3,Linux armv8l,60,,0,0.521744202,-0.32072639,1,0,0,0.4303,button_right,0.4303,1,,,,,,84,WORD,UN,33,strand,MORTAL,m,,,,,,0.521744202,-0.32072639,1,0,0,,0,210,210,143,1,
,,,,,,,,,,,,,,,,,,5f10f17a01b48a42592fd0ec,2020-08-10_18h57.44.480,lexical_decision_task_MP,2020.1.3,Linux armv8l,60,,0,0.52081889,-0.317025221,1,0,0,0.4577,button_right,0.4577,0,,,,,,478,NW,"ID",33,acrise,ACRISE,z,,,,,,0.52081889,-0.317025221,1,0,0,,0,211,211,297,1,
,,,,,,,,,,,,,,,,,,5f10f17a01b48a42592fd0ec,2020-08-10_18h57.44.480,lexical_decision_task_MP,2020.1.3,Linux armv8l,60,,0,0.518968422,-0.321651624,1,0,0,0.7289,button_right,0.7289,0,,,,,,253,NW,"ID",50,resait,RESAIT,z,,,,,,0.518968422,-0.321651624,1,0,0,,0,212,212,312,1,
,,,,,,,,,,,,,,,,,,5f10f17a01b48a42592fd0ec,2020-08-10_18h57.44.480,lexical_decision_task_MP,2020.1.3,Linux armv8l,60,,0,0.513416708,-0.318875767,1,0,0,0.713,button_right,0.713,0,,,,,,297,NW,"ID",50,fertic,FERTIC,z,,,,,,0.513416708,-0.318875767,1,0,0,,0,213,213,356,1,
,,,,,,,,,,,,,,,,,,5f10f17a01b48a42592fd0ec,2020-08-10_18h57.44.480,lexical_decision_task_MP,2020.1.3,Linux armv8l,60,,0,,,,,,,,0.713,-1,,,,,,426,NW,"ID",33,urivel,URIVEL,z,,,,,,0.513416708,-0.318875767,0,0,0,,0,214,214,245,1,
,,,,,,,,,,,,,,,,,,5f10f17a01b48a42592fd0ec,2020-08-10_18h57.44.480,lexical_decision_task_MP,2020.1.3,Linux armv8l,60,,0,-1.076220218,-0.366065261,1,0,0,1.0067,,0.713,-1,,,,,,419,NW,UN,50,gushop,SLOUNT,z,,,,,,0.472704239,-0.342933169,0,0,0,,0,215,215,478,1,
,,,,,,,,,,,,,,,,,,5f10f17a01b48a42592fd0ec,2020-08-10_18h57.44.480,lexical_decision_task_MP,2020.1.3,Linux armv8l,60,,0,0.503238591,-0.281864467,1,0,0,0.4482,button_right,0.4482,0,,,,,,471,NW,"ID",33,nobest,NOBEST,z,,,,,,0.503238591,-0.281864467,1,0,0,,0,216,216,290,1,
,,,,,,,,,,,,,,,,,,5f10f17a01b48a42592fd0ec,2020-08-10_18h57.44.480,lexical_decision_task_MP,2020.1.3,Linux armv8l,60,,0,-0.479412438,-0.29389313,1,0,0,1.2795,button_left,1.2795,1,,,,,,443,NW,"ID",33,dorsex,DORSEX,z,,,,,,-0.479412438,-0.29389313,1,0,0,,0,217,217,262,1,
,,,,,,,,,,,,,,,,,,5f10f17a01b48a42592fd0ec,2020-08-10_18h57.44.480,lexical_decision_task_MP,2020.1.3,Linux armv8l,60,,0,0.508790305,-0.299444844,1,0,0,0.4019,button_right,0.4019,1,,,,,,19,WORD,"ID",50,patron,PATRON,m,,,,,,0.508790305,-0.299444844,1,0,0,,0,218,218,78,1,
,,,,,,,,,,,,,,,,,,5f10f17a01b48a42592fd0ec,2020-08-10_18h57.44.480,lexical_decision_task_MP,2020.1.3,Linux armv8l,60,,0,0.509715461,-0.312398818,1,0,0,0.7032,button_right,0.7032,1,,,,,,28,WORD,"ID",50,comedy,COMEDY,m,,,,,,0.509715461,-0.312398818,1,0,0,,0,219,219,87,1,
,,,,,,,,,,,,,,,,,,5f10f17a01b48a42592fd0ec,2020-08-10_18h57.44.480,lexical_decision_task_MP,2020.1.3,Linux armv8l,60,,0,0.515267176,-0.300370156,1,0,0,0.6174,button_right,0.6174,1,,,,,,100,WORD,UN,33,wrench,CARBON,m,,,,,,0.515267176,-0.300370156,1,0,0,,0,220,220,159,1,
,,,,,,,,,,,,,,,,,,5f10f17a01b48a42592fd0ec,2020-08-10_18h57.44.480,lexical_decision_task_MP,2020.1.3,Linux armv8l,60,,0,0.515267176,-0.296668987,1,0,0,0.7688,button_right,0.7688,0,,,,,,318,NW,UN,33,zomber,REAGLY,z,,,,,,0.515267176,-0.296668987,1,0,0,,0,221,221,377,1,
,,,,,,,,,,,,,,,,,,5f10f17a01b48a42592fd0ec,2020-08-10_18h57.44.480,lexical_decision_task_MP,2020.1.3,Linux armv8l,60,,0,0.517117799,-0.292967896,1,0,0,0.9863,button_right,0.9863,1,,,,,,75,WORD,UN,33,exotic,TROPHY,m,,,,,,0.517117799,-0.292967896,1,0,0,,0,222,222,134,1,
,,,,,,,,,,,,,,,,,,5f10f17a01b48a42592fd0ec,2020-08-10_18h57.44.480,lexical_decision_task_MP,2020.1.3,Linux armv8l,60,,0,0.515267176,-0.291117273,1,0,0,0.9168,button_right,0.9168,1,,,,,,160,WORD,UN,50,pastor,VIOLET,m,,,,,,0.515267176,-0.291117273,1,0,0,,0,223,223,219,1,
,,,,,,,,,,,,,,,,,,5f10f17a01b48a42592fd0ec,2020-08-10_18h57.44.480,lexical_decision_task_MP,2020.1.3,Linux armv8l,60,,0,0.516192487,-0.297594376,1,0,0,0.6211,button_right,0.6211,1,,,,,,202,WORD,"ID",33,factor,FACTOR,m,,,,,,0.516192487,-0.297594376,1,0,0,,0,224,224,21,1,
,,,,,,,,,,,,,,,,,,5f10f17a01b48a42592fd0ec,2020-08-10_18h57.44.480,lexical_decision_task_MP,2020.1.3,Linux armv8l,60,,0,0.515267176,-0.303146013,1,0,0,0.5065,button_right,0.5065,1,,,,,,88,WORD,UN,33,permit,HUNGER,m,,,,,,0.515267176,-0.303146013,1,0,0,,0,225,225,147,1,
,,,,,,,,,,,,,,,,,,5f10f17a01b48a42592fd0ec,2020-08-10_18h57.44.480,lexical_decision_task_MP,2020.1.3,Linux armv8l,60,,0,0.519893578,-0.292967896,1,0,0,0.5107,button_right,0.5107,0,,,,,,330,NW,UN,33,gilfew,KENSOM,z,,,,,,0.519893578,-0.292967896,1,0,0,,0,226,226,389,1,
,,,,,,,,,,,,,,,,,,5f10f17a01b48a42592fd0ec,2020-08-10_18h57.44.480,lexical_decision_task_MP,2020.1.3,Linux armv8l,60,,0,0.525445293,-0.284640324,1,0,0,0.6074,button_right,0.6074,1,,,,,,141,WORD,UN,50,spruce,ORPHAN,m,,,,,,0.525445293,-0.284640324,1,0,0,,0,227,227,200,1,
,,,,,,,,,,,,,,,,,,5f10f17a01b48a42592fd0ec,2020-08-10_18h57.44.480,lexical_decision_task_MP,2020.1.3,Linux armv8l,60,,0,0.527295916,-0.287416259,1,0,0,0.5445,button_right,0.5445,1,,,,,,184,WORD,"ID",33,sleazy,SLEAZY,m,,,,,,0.527295916,-0.287416259,1,0,0,,0,228,228,3,1,
,,,,,,,,,,,,,,,,,,5f10f17a01b48a42592fd0ec,2020-08-10_18h57.44.480,lexical_decision_task_MP,2020.1.3,Linux armv8l,60,,0,0.526370604,-0.285565636,1,0,0,0.562,button_right,0.562,0,,,,,,284,NW,"ID",50,shaple,SHAPLE,z,,,,,,0.526370604,-0.285565636,1,0,0,,0,229,229,343,1,
,,,,,,,,,,,,,,,,,,5f10f17a01b48a42592fd0ec,2020-08-10_18h57.44.480,lexical_decision_task_MP,2020.1.3,Linux armv8l,60,,0,0.518968422,-0.294818441,1,0,0,0.7061,button_right,0.7061,1,,,,,,196,WORD,"ID",33,credit,CREDIT,m,,,,,,0.518968422,-0.294818441,1,0,0,,0,230,230,15,1,
,,,,,,,,,,,,,,,,,,5f10f17a01b48a42592fd0ec,2020-08-10_18h57.44.480,lexical_decision_task_MP,2020.1.3,Linux armv8l,60,,0,0.52081889,-0.295743753,1,0,0,0.4083,button_right,0.4083,0,,,,,,348,NW,UN,33,asylen,DUMPLE,z,,,,,,0.52081889,-0.295743753,1,0,0,,0,231,231,407,1,
,,,,,,,,,,,,,,,,,,5f10f17a01b48a42592fd0ec,2020-08-10_18h57.44.480,lexical_decision_task_MP,2020.1.3,Linux armv8l,60,,0,0.52081889,-0.294818441,1,0,0,0.4216,button_right,0.4216,0,,,,,,329,NW,UN,33,kensom,YARIKE,z,,,,,,0.52081889,-0.294818441,1,0,0,,0,232,232,388,1,
,,,,,,,,,,,,,,,,,,5f10f17a01b48a42592fd0ec,2020-08-10_18h57.44.480,lexical_decision_task_MP,2020.1.3,Linux armv8l,60,,0,0.521744202,-0.292042584,1,0,0,0.4388,button_right,0.4388,1,,,,,,210,WORD,"ID",33,monkey,MONKEY,m,,,,,,0.521744202,-0.292042584,1,0,0,,0,233,233,29,1,
,,,,,,,,,,,,,,,,,,5f10f17a01b48a42592fd0ec,2020-08-10_18h57.44.480,lexical_decision_task_MP,2020.1.3,Linux armv8l,60,,0,0.521744202,-0.292967896,1,0,0,0.524,button_right,0.524,1,,,,,,65,WORD,UN,33,gospel,SYMBOL,m,,,,,,0.521744202,-0.292967896,1,0,0,,0,234,234,124,1,
,,,,,,,,,,,,,,,,,,5f10f17a01b48a42592fd0ec,2020-08-10_18h57.44.480,lexical_decision_task_MP,2020.1.3,Linux armv8l,60,,0,-0.525676543,-0.302220701,1,0,0,0.6967,button_left,0.6967,1,,,,,,370,NW,UN,50,geiloy,SLEACT,z,,,,,,-0.525676543,-0.302220701,1,0,0,,0,235,235,429,1,
,,,,,,,,,,,,,,,,,,5f10f17a01b48a42592fd0ec,2020-08-10_18h57.44.480,lexical_decision_task_MP,2020.1.3,Linux armv8l,60,,0,0.510640773,-0.298519532,1,0,0,0.393,button_right,0.393,1,,,,,,173,WORD,UN,50,turkey,SHOWER,m,,,,,,0.510640773,-0.298519532,1,0,0,,0,236,236,232,1,
,,,,,,,,,,,,,,,,,,5f10f17a01b48a42592fd0ec,2020-08-10_18h57.44.480,lexical_decision_task_MP,2020.1.3,Linux armv8l,60,,0,-0.526601893,-0.304996558,1,0,0,0.6734,button_left,0.6734,1,,,,,,292,NW,"ID",50,ablint,ABLINT,z,,,,,,-0.526601893,-0.304996558,1,0,0,,0,237,237,351,1,
,,,,,,,,,,,,,,,,,,5f10f17a01b48a42592fd0ec,2020-08-10_18h57.44.480,lexical_decision_task_MP,2020.1.3,Linux armv8l,60,,0,0.512491551,-0.296668987,1,0,0,0.3624,button_right,0.3624,1,,,,,,42,WORD,"ID",50,chapel,CHAPEL,m,,,,,,0.512491551,-0.296668987,1,0,0,,0,238,238,101,1,
,,,,,,,,,,,,,,,,,,5f10f17a01b48a42592fd0ec,2020-08-10_18h57.44.480,lexical_decision_task_MP,2020.1.3,Linux armv8l,60,,0,0.514341864,-0.29389313,1,0,0,0.4701,button_right,0.4701,1,,,,,,110,WORD,UN,33,induce,POLITE,m,,,,,,0.514341864,-0.29389313,1,0,0,,0,239,239,169,1,
,,,,,,,,,,,,,,,,,,5f10f17a01b48a42592fd0ec,2020-08-10_18h57.44.480,lexical_decision_task_MP,2020.1.3,Linux armv8l,60,,0,-0.53585466,-0.297594376,1,0,0,0.7083,button_left,0.7083,1,,,,,,287,NW,"ID",50,nymbel,NYMBEL,z,,,,,,-0.53585466,-0.297594376,1,0,0,,0,240,240,346,1,
,,,,,,,,,,,,,,,,,,5f10f17a01b48a42592fd0ec,2020-08-10_18h57.44.480,lexical_decision_task_MP,2020.1.3,Linux armv8l,60,,0,0.517117799,-0.288341415,1,0,0,0.4789,button_right,0.4789,1,,,,,,26,WORD,"ID",50,sprint,SPRINT,m,,,,,,0.116470065,-0.38179517,1,0,0,,0,241,241,85,1,break_done_button
,,,,,,,,,,,,,,,,,,5f10f17a01b48a42592fd0ec,2020-08-10_18h57.44.480,lexical_decision_task_MP,2020.1.3,Linux armv8l,60,,0,0.530997007,-0.344783715,1,0,0,0.9432,button_right,0.9432,1,,,,,,45,WORD,"ID",50,clergy,CLERGY,m,,,,,,0.530997007,-0.344783715,1,0,0,,0,242,242,104,1,
,,,,,,,,,,,,,,,,,,5f10f17a01b48a42592fd0ec,2020-08-10_18h57.44.480,lexical_decision_task_MP,2020.1.3,Linux armv8l,60,,0,0.469928305,-0.30129539,1,0,0,0.5046,button_right,0.5046,0,,,,,,260,NW,"ID",50,unject,UNJECT,z,,,,,,0.469928305,-0.30129539,1,0,0,,0,243,243,319,1,
,,,,,,,,,,,,,,,,,,5f10f17a01b48a42592fd0ec,2020-08-10_18h57.44.480,lexical_decision_task_MP,2020.1.3,Linux armv8l,60,,0,0.483807513,-0.300370156,1,0,0,0.5964,button_right,0.5964,1,,,,,,143,WORD,UN,50,sponge,REASON,m,,,,,,0.483807513,-0.300370156,1,0,0,,0,244,244,202,1,
,,,,,,,,,,,,,,,,,,5f10f17a01b48a42592fd0ec,2020-08-10_18h57.44.480,lexical_decision_task_MP,2020.1.3,Linux armv8l,60,,0,0.469928305,-0.296668987,1,0,0,0.4879,button_right,0.4879,1,,,,,,99,WORD,UN,33,carbon,FLUENT,m,,,,,,0.469928305,-0.296668987,1,0,0,,0,245,245,158,1,
,,,,,,,,,,,,,,,,,,5f10f17a01b48a42592fd0ec,2020-08-10_18h57.44.480,lexical_decision_task_MP,2020.1.3,Linux armv8l,60,,0,0.483807513,-0.278163298,1,0,0,0.4344,button_right,0.4344,1,,,,,,39,WORD,"ID",50,insect,INSECT,m,,,,,,0.483807513,-0.278163298,1,0,0,,0,246,246,98,1,
,,,,,,,,,,,,,,,,,,5f10f17a01b48a42592fd0ec,2020-08-10_18h57.44.480,lexical_decision_task_MP,2020.1.3,Linux armv8l,60,,0,0.47918111,-0.297594376,1,0,0,0.447,button_right,0.447,1,,,,,,112,WORD,UN,33,chorus,BREATH,m,,,,,,0.47918111,-0.297594376,1,0,0,,0,247,247,171,1,
,,,,,,,,,,,,,,,,,,5f10f17a01b48a42592fd0ec,2020-08-10_18h57.44.480,lexical_decision_task_MP,2020.1.3,Linux armv8l,60,,0,0.4819572,-0.295743753,1,0,0,0.4041,button_right,0.4041,1,,,,,,166,WORD,UN,50,design,STARCH,m,,,,,,0.4819572,-0.295743753,1,0,0,,0,248,248,225,1,
,,,,,,,,,,,,,,,,,,5f10f17a01b48a42592fd0ec,2020-08-10_18h57.44.480,lexical_decision_task_MP,2020.1.3,Linux armv8l,60,,0,0.493060474,-0.292042584,1,0,0,0.4198,button_right,0.4198,0,,,,,,313,NW,UN,33,sprine,PAURSE,z,,,,,,0.493060474,-0.292042584,1,0,0,,0,249,249,372,1,
,,,,,,,,,,,,,,,,,,5f10f17a01b48a42592fd0ec,2020-08-10_18h57.44.480,lexical_decision_task_MP,2020.1.3,Linux armv8l,60,,0,0.49120985,-0.287416259,1,0,0,0.5634,button_right,0.5634,1,,,,,,181,WORD,"ID",33,glance,GLANCE,m,,,,,,0.49120985,-0.287416259,1,0,0,,0,250,250,0,1,
,,,,,,,,,,,,,,,,,,5f10f17a01b48a42592fd0ec,2020-08-10_18h57.44.480,lexical_decision_task_MP,2020.1.3,Linux armv8l,60,,0,0.493060474,-0.283715013,1,0,0,0.3882,button_right,0.3882,1,,,,,,179,WORD,UN,50,silent,BASKET,m,,,,,,0.493060474,-0.283715013,1,0,0,,0,251,251,238,1,
,,,,,,,,,,,,,,,,,,5f10f17a01b48a42592fd0ec,2020-08-10_18h57.44.480,lexical_decision_task_MP,2020.1.3,Linux armv8l,60,,0,0.498612188,-0.284640324,1,0,0,0.3772,button_right,0.3772,0,,,,,,289,NW,"ID",50,starby,STARBY,z,,,,,,0.498612188,-0.284640324,1,0,0,,0,252,252,348,1,
,,,,,,,,,,,,,,,,,,5f10f17a01b48a42592fd0ec,2020-08-10_18h57.44.480,lexical_decision_task_MP,2020.1.3,Linux armv8l,60,,0,0.506939682,-0.277238142,1,0,0,0.433,button_right,0.433,0,,,,,,437,NW,"ID",33,snapel,SNAPEL,z,,,,,,0.506939682,-0.277238142,1,0,0,,0,253,253,256,1,
,,,,,,,,,,,,,,,,,,5f10f17a01b48a42592fd0ec,2020-08-10_18h57.44.480,lexical_decision_task_MP,2020.1.3,Linux armv8l,60,,0,0.502313434,-0.280939156,1,0,0,0.3819,button_right,0.3819,0,,,,,,401,NW,UN,50,syntic,MUSTIL,z,,,,,,0.502313434,-0.280939156,1,0,0,,0,254,254,460,1,
,,,,,,,,,,,,,,,,,,5f10f17a01b48a42592fd0ec,2020-08-10_18h57.44.480,lexical_decision_task_MP,2020.1.3,Linux armv8l,60,,0,0.501387967,-0.281864467,1,0,0,0.3437,button_right,0.3437,0,,,,,,420,NW,UN,50,pauche,GUSHOP,z,,,,,,0.501387967,-0.281864467,1,0,0,,0,255,255,479,1,
,,,,,,,,,,,,,,,,,,5f10f17a01b48a42592fd0ec,2020-08-10_18h57.44.480,lexical_decision_task_MP,2020.1.3,Linux armv8l,60,,0,0.490284539,-0.280939156,1,0,0,0.4441,button_right,0.4441,0,,,,,,341,NW,UN,33,randow,MYRTIE,z,,,,,,0.490284539,-0.280939156,1,0,0,,0,256,256,400,1,
,,,,,,,,,,,,,,,,,,5f10f17a01b48a42592fd0ec,2020-08-10_18h57.44.480,lexical_decision_task_MP,2020.1.3,Linux armv8l,60,,0,0.486583448,-0.281864467,1,0,0,0.4208,button_right,0.4208,0,,,,,,385,NW,UN,50,ancust,VEIGMA,z,,,,,,0.486583448,-0.281864467,1,0,0,,0,257,257,444,1,
,,,,,,,,,,,,,,,,,,5f10f17a01b48a42592fd0ec,2020-08-10_18h57.44.480,lexical_decision_task_MP,2020.1.3,Linux armv8l,60,,0,-0.524751309,-0.280939156,1,0,0,0.466,button_left,0.466,1,,,,,,366,NW,UN,50,slique,TOSHEL,z,,,,,,-0.524751309,-0.280939156,1,0,0,,0,258,258,425,1,
,,,,,,,,,,,,,,,,,,5f10f17a01b48a42592fd0ec,2020-08-10_18h57.44.480,lexical_decision_task_MP,2020.1.3,Linux armv8l,60,,0,-0.531228296,-0.288341415,1,0,0,0.5766,button_left,0.5766,1,,,,,,302,NW,UN,33,fiream,MILUER,z,,,,,,-0.531228296,-0.288341415,1,0,0,,0,259,259,361,1,
,,,,,,,,,,,,,,,,,,5f10f17a01b48a42592fd0ec,2020-08-10_18h57.44.480,lexical_decision_task_MP,2020.1.3,Linux armv8l,60,,0,-0.55158453,-0.292967896,1,0,0,0.6056,button_left,0.6056,0,,,,,,33,WORD,"ID",50,butler,BUTLER,m,,,,,,-0.55158453,-0.292967896,1,0,0,,0,260,260,92,1,
,,,,,,,,,,,,,,,,,,5f10f17a01b48a42592fd0ec,2020-08-10_18h57.44.480,lexical_decision_task_MP,2020.1.3,Linux armv8l,60,,0,0.487508759,-0.281864467,1,0,0,0.5197,button_right,0.5197,1,,,,,,214,WORD,"ID",33,intake,INTAKE,m,,,,,,0.487508759,-0.281864467,1,0,0,,0,261,261,33,1,
,,,,,,,,,,,,,,,,,,5f10f17a01b48a42592fd0ec,2020-08-10_18h57.44.480,lexical_decision_task_MP,2020.1.3,Linux armv8l,60,,0,0.487508759,-0.281864467,1,0,0,0.4506,button_right,0.4506,1,,,,,,133,WORD,UN,50,staple,CHROME,m,,,,,,0.487508759,-0.281864467,1,0,0,,0,262,262,192,1,
,,,,,,,,,,,,,,,,,,5f10f17a01b48a42592fd0ec,2020-08-10_18h57.44.480,lexical_decision_task_MP,2020.1.3,Linux armv8l,60,,0,0.492135317,-0.280939156,1,0,0,0.4826,button_right,0.4826,1,,,,,,64,WORD,UN,33,symbol,THRONE,m,,,,,,0.492135317,-0.280939156,1,0,0,,0,263,263,123,1,
,,,,,,,,,,,,,,,,,,5f10f17a01b48a42592fd0ec,2020-08-10_18h57.44.480,lexical_decision_task_MP,2020.1.3,Linux armv8l,60,,0,0.496761565,-0.27908861,1,0,0,0.4999,button_right,0.4999,1,,,,,,218,WORD,"ID",33,shrink,SHRINK,m,,,,,,0.496761565,-0.27908861,1,0,0,,0,264,264,37,1,
,,,,,,,,,,,,,,,,,,5f10f17a01b48a42592fd0ec,2020-08-10_18h57.44.480,lexical_decision_task_MP,2020.1.3,Linux armv8l,60,,0,0.487508759,-0.281864467,1,0,0,0.3742,button_right,0.3742,1,,,,,,197,WORD,"ID",33,stream,STREAM,m,,,,,,0.487508759,-0.281864467,1,0,0,,0,265,265,16,1,
,,,,,,,,,,,,,,,,,,5f10f17a01b48a42592fd0ec,2020-08-10_18h57.44.480,lexical_decision_task_MP,2020.1.3,Linux armv8l,60,,0,0.487508759,-0.283715013,1,0,0,0.3693,button_right,0.3693,1,,,,,,206,WORD,"ID",33,tailor,TAILOR,m,,,,,,0.487508759,-0.283715013,1,0,0,,0,266,266,25,1,
,,,,,,,,,,,,,,,,,,5f10f17a01b48a42592fd0ec,2020-08-10_18h57.44.480,lexical_decision_task_MP,2020.1.3,Linux armv8l,60,,0,0.488434071,-0.284640324,1,0,0,0.3478,button_right,0.3478,0,,,,,,296,NW,"ID",50,beinch,BEINCH,z,,,,,,0.488434071,-0.284640324,1,0,0,,0,267,267,355,1,
,,,,,,,,,,,,,,,,,,5f10f17a01b48a42592fd0ec,2020-08-10_18h57.44.480,lexical_decision_task_MP,2020.1.3,Linux armv8l,60,,0,0.49120985,-0.280939156,1,0,0,0.5355,button_right,0.5355,1,,,,,,128,WORD,UN,50,marvel,SENIOR,m,,,,,,0.49120985,-0.280939156,1,0,0,,0,268,268,187,1,
,,,,,,,,,,,,,,,,,,5f10f17a01b48a42592fd0ec,2020-08-10_18h57.44.480,lexical_decision_task_MP,2020.1.3,Linux armv8l,60,,0,0.492135317,-0.284640324,1,0,0,0.4477,button_right,0.4477,1,,,,,,238,WORD,"ID",33,flower,FLOWER,m,,,,,,0.492135317,-0.284640324,1,0,0,,0,269,269,57,1,
,,,,,,,,,,,,,,,,,,5f10f17a01b48a42592fd0ec,2020-08-10_18h57.44.480,lexical_decision_task_MP,2020.1.3,Linux armv8l,60,,0,0.487508759,-0.285565636,1,0,0,0.4976,button_right,0.4976,1,,,,,,87,WORD,UN,33,sprawl,FILTER,m,,,,,,0.487508759,-0.285565636,1,0,0,,0,270,270,146,1,
,,,,,,,,,,,,,,,,,,5f10f17a01b48a42592fd0ec,2020-08-10_18h57.44.480,lexical_decision_task_MP,2020.1.3,Linux armv8l,60,,0,0.489359227,-0.278163298,1,0,0,0.446,button_right,0.446,0,,,,,,294,NW,"ID",50,inhort,INHORT,z,,,,,,0.489359227,-0.278163298,1,0,0,,0,271,271,353,1,
,,,,,,,,,,,,,,,,,,5f10f17a01b48a42592fd0ec,2020-08-10_18h57.44.480,lexical_decision_task_MP,2020.1.3,Linux armv8l,60,,0,0.495836253,-0.27908861,1,0,0,0.5305,button_right,0.5305,0,,,,,,470,NW,"ID",33,crudio,CRUDIO,z,,,,,,0.495836253,-0.27908861,1,0,0,,0,272,272,289,1,
,,,,,,,,,,,,,,,,,,5f10f17a01b48a42592fd0ec,2020-08-10_18h57.44.480,lexical_decision_task_MP,2020.1.3,Linux armv8l,60,,0,-0.53307888,-0.284640324,1,0,0,0.6975,button_left,0.6975,1,,,,,,365,NW,UN,50,toshel,GUAIRT,z,,,,,,-0.53307888,-0.284640324,1,0,0,,0,273,273,424,1,
,,,,,,,,,,,,,,,,,,5f10f17a01b48a42592fd0ec,2020-08-10_18h57.44.480,lexical_decision_task_MP,2020.1.3,Linux armv8l,60,,0,0.489359227,-0.284640324,1,0,0,0.5166,button_right,0.5166,0,,,,,,429,NW,"ID",33,funtle,FUNTLE,z,,,,,,0.489359227,-0.284640324,1,0,0,,0,274,274,248,1,
,,,,,,,,,,,,,,,,,,5f10f17a01b48a42592fd0ec,2020-08-10_18h57.44.480,lexical_decision_task_MP,2020.1.3,Linux armv8l,60,,0,0.49398563,-0.280939156,1,0,0,0.6247,button_right,0.6247,1,,,,,,91,WORD,UN,33,hunger,EXPAND,m,,,,,,0.49398563,-0.280939156,1,0,0,,0,275,275,150,1,
,,,,,,,,,,,,,,,,,,5f10f17a01b48a42592fd0ec,2020-08-10_18h57.44.480,lexical_decision_task_MP,2020.1.3,Linux armv8l,60,,0,0.492135317,-0.280939156,1,0,0,0.4624,button_right,0.4624,0,,,,,,266,NW,"ID",50,varmit,VARMIT,z,,,,,,0.492135317,-0.280939156,1,0,0,,0,276,276,325,1,
,,,,,,,,,,,,,,,,,,5f10f17a01b48a42592fd0ec,2020-08-10_18h57.44.480,lexical_decision_task_MP,2020.1.3,Linux armv8l,60,,0,0.49398563,-0.280013922,1,0,0,0.628,button_right,0.628,1,,,,,,169,WORD,UN,50,pounce,GENIUS,m,,,,,,0.49398563,-0.280013922,1,0,0,,0,277,277,228,1,
,,,,,,,,,,,,,,,,,,5f10f17a01b48a42592fd0ec,2020-08-10_18h57.44.480,lexical_decision_task_MP,2020.1.3,Linux armv8l,60,,0,0.493060474,-0.280013922,1,0,0,0.4571,button_right,0.4571,0,,,,,,350,NW,UN,33,tiesch,NAGURS,z,,,,,,0.493060474,-0.280013922,1,0,0,,0,278,278,409,1,
,,,,,,,,,,,,,,,,,,5f10f17a01b48a42592fd0ec,2020-08-10_18h57.44.480,lexical_decision_task_MP,2020.1.3,Linux armv8l,60,,0,-0.530303023,-0.283715013,1,0,0,0.7309,button_left,0.7309,1,,,,,,403,NW,UN,50,cluirm,BRUATS,z,,,,,,-0.530303023,-0.283715013,1,0,0,,0,279,279,462,1,
,,,,,,,,,,,,,,,,,,5f10f17a01b48a42592fd0ec,2020-08-10_18h57.44.480,lexical_decision_task_MP,2020.1.3,Linux armv8l,60,,0,0.496761565,-0.282789779,1,0,0,0.419,button_right,0.419,1,,,,,,208,WORD,"ID",33,hockey,HOCKEY,m,,,,,,0.496761565,-0.282789779,1,0,0,,0,280,280,27,1,
,,,,,,,,,,,,,,,,,,5f10f17a01b48a42592fd0ec,2020-08-10_18h57.44.480,lexical_decision_task_MP,2020.1.3,Linux armv8l,60,,0,-0.53955579,-0.282789779,1,0,0,0.6682,button_left,0.6682,1,,,,,,280,NW,"ID",50,curbol,CURBOL,z,,,,,,-0.53955579,-0.282789779,1,0,0,,0,281,281,339,1,
,,,,,,,,,,,,,,,,,,5f10f17a01b48a42592fd0ec,2020-08-10_18h57.44.480,lexical_decision_task_MP,2020.1.3,Linux armv8l,60,,0,0.498612188,-0.285565636,1,0,0,0.4007,button_right,0.4007,1,,,,,,233,WORD,"ID",33,nature,NATURE,m,,,,,,0.498612188,-0.285565636,1,0,0,,0,282,282,52,1,
,,,,,,,,,,,,,,,,,,5f10f17a01b48a42592fd0ec,2020-08-10_18h57.44.480,lexical_decision_task_MP,2020.1.3,Linux armv8l,60,,0,-0.550659257,-0.287416259,1,0,0,0.7772,button_left,0.7772,1,,,,,,288,NW,"ID",50,yaceup,YACEUP,z,,,,,,-0.550659257,-0.287416259,1,0,0,,0,283,283,347,1,
,,,,,,,,,,,,,,,,,,5f10f17a01b48a42592fd0ec,2020-08-10_18h57.44.480,lexical_decision_task_MP,2020.1.3,Linux armv8l,60,,0,0.502313434,-0.277238142,1,0,0,0.4604,button_right,0.4604,0,,,,,,379,NW,UN,50,cavory,AUTING,z,,,,,,0.502313434,-0.277238142,1,0,0,,0,284,284,438,1,
,,,,,,,,,,,,,,,,,,5f10f17a01b48a42592fd0ec,2020-08-10_18h57.44.480,lexical_decision_task_MP,2020.1.3,Linux armv8l,60,,0,0.505089059,-0.27908861,1,0,0,0.533,button_right,0.533,1,,,,,,127,WORD,UN,50,senior,CASTLE,m,,,,,,0.505089059,-0.27908861,1,0,0,,0,285,285,186,1,
,,,,,,,,,,,,,,,,,,5f10f17a01b48a42592fd0ec,2020-08-10_18h57.44.480,lexical_decision_task_MP,2020.1.3,Linux armv8l,60,,0,0.50601437,-0.281864467,1,0,0,0.4262,button_right,0.4262,1,,,,,,136,WORD,UN,50,finger,BLEACH,m,,,,,,0.50601437,-0.281864467,1,0,0,,0,286,286,195,1,
,,,,,,,,,,,,,,,,,,5f10f17a01b48a42592fd0ec,2020-08-10_18h57.44.480,lexical_decision_task_MP,2020.1.3,Linux armv8l,60,,0,0.513416708,-0.277238142,1,0,0,0.4106,button_right,0.4106,0,,,,,,462,NW,"ID",33,absult,ABSULT,z,,,,,,0.513416708,-0.277238142,1,0,0,,0,287,287,281,1,
,,,,,,,,,,,,,,,,,,5f10f17a01b48a42592fd0ec,2020-08-10_18h57.44.480,lexical_decision_task_MP,2020.1.3,Linux armv8l,60,,0,-0.553435115,-0.285565636,1,0,0,0.713,button_left,0.713,1,,,,,,451,NW,"ID",33,cainky,CAINKY,z,,,,,,-0.553435115,-0.285565636,1,0,0,,0,288,288,270,1,
,,,,,,,,,,,,,,,,,,5f10f17a01b48a42592fd0ec,2020-08-10_18h57.44.480,lexical_decision_task_MP,2020.1.3,Linux armv8l,60,,0,0.514341864,-0.288341415,1,0,0,0.3796,button_right,0.3796,0,,,,,,469,NW,"ID",33,padifs,PADIFS,z,,,,,,0.514341864,-0.288341415,1,0,0,,0,289,289,288,1,
,,,,,,,,,,,,,,,,,,5f10f17a01b48a42592fd0ec,2020-08-10_18h57.44.480,lexical_decision_task_MP,2020.1.3,Linux armv8l,60,,0,0.509715461,-0.281864467,1,0,0,0.5878,button_right,0.5878,1,,,,,,213,WORD,"ID",33,squeal,SQUEAL,m,,,,,,0.509715461,-0.281864467,1,0,0,,0,290,290,32,1,
,,,,,,,,,,,,,,,,,,5f10f17a01b48a42592fd0ec,2020-08-10_18h57.44.480,lexical_decision_task_MP,2020.1.3,Linux armv8l,60,,0,0.511566084,-0.27908861,1,0,0,0.6523,button_right,0.6523,1,,,,,,10,WORD,"ID",50,ethnic,ETHNIC,m,,,,,,0.511566084,-0.27908861,1,0,0,,0,291,291,69,1,
,,,,,,,,,,,,,,,,,,5f10f17a01b48a42592fd0ec,2020-08-10_18h57.44.480,lexical_decision_task_MP,2020.1.3,Linux armv8l,60,,0,-0.564538504,-0.287416259,1,0,0,0.8589,button_left,0.8589,1,,,,,,477,NW,"ID",33,photie,PHOTIE,z,,,,,,-0.564538504,-0.287416259,1,0,0,,0,292,292,296,1,
,,,,,,,,,,,,,,,,,,5f10f17a01b48a42592fd0ec,2020-08-10_18h57.44.480,lexical_decision_task_MP,2020.1.3,Linux armv8l,60,,0,0.514341864,-0.281864467,1,0,0,0.4389,button_right,0.4389,0,,,,,,459,NW,"ID",33,bafent,BAFENT,z,,,,,,0.514341864,-0.281864467,1,0,0,,0,293,293,278,1,
,,,,,,,,,,,,,,,,,,5f10f17a01b48a42592fd0ec,2020-08-10_18h57.44.480,lexical_decision_task_MP,2020.1.3,Linux armv8l,60,,0,0.511566084,-0.280013922,1,0,0,0.5844,button_right,0.5844,0,,,,,,363,NW,UN,50,impote,BREALI,z,,,,,,0.511566084,-0.280013922,1,0,0,,0,294,294,422,1,
,,,,,,,,,,,,,,,,,,5f10f17a01b48a42592fd0ec,2020-08-10_18h57.44.480,lexical_decision_task_MP,2020.1.3,Linux armv8l,60,,0,0.511566084,-0.276312753,1,0,0,0.6561,button_right,0.6561,1,,,,,,116,WORD,UN,33,branch,TUMBLE,m,,,,,,0.511566084,-0.276312753,1,0,0,,0,295,295,175,1,
,,,,,,,,,,,,,,,,,,5f10f17a01b48a42592fd0ec,2020-08-10_18h57.44.480,lexical_decision_task_MP,2020.1.3,Linux armv8l,60,,0,-0.569164907,-0.273536896,1,0,0,0.7754,button_left,0.7754,1,,,,,,336,NW,UN,33,rejols,GHODUS,z,,,,,,-0.569164907,-0.273536896,1,0,0,,0,296,296,395,1,
,,,,,,,,,,,,,,,,,,5f10f17a01b48a42592fd0ec,2020-08-10_18h57.44.480,lexical_decision_task_MP,2020.1.3,Linux armv8l,60,,0,0.511566084,-0.290192039,1,0,0,0.4819,button_right,0.4819,1,,,,,,123,WORD,UN,50,blouse,STRIKE,m,,,,,,0.511566084,-0.290192039,1,0,0,,0,297,297,182,1,
,,,,,,,,,,,,,,,,,,5f10f17a01b48a42592fd0ec,2020-08-10_18h57.44.480,lexical_decision_task_MP,2020.1.3,Linux armv8l,60,,0,0.508790305,-0.282789779,1,0,0,0.4529,button_right,0.4529,1,,,,,,174,WORD,UN,50,fabric,TURKEY,m,,,,,,0.508790305,-0.282789779,1,0,0,,0,298,298,233,1,
,,,,,,,,,,,,,,,,,,5f10f17a01b48a42592fd0ec,2020-08-10_18h57.44.480,lexical_decision_task_MP,2020.1.3,Linux armv8l,60,,0,0.506939682,-0.282789779,1,0,0,0.4232,button_right,0.4232,1,,,,,,185,WORD,"ID",33,bother,BOTHER,m,,,,,,0.506939682,-0.282789779,1,0,0,,0,299,299,4,1,
,,,,,,,,,,,,,,,,,,5f10f17a01b48a42592fd0ec,2020-08-10_18h57.44.480,lexical_decision_task_MP,2020.1.3,Linux armv8l,60,,0,0.511566084,-0.280013922,1,0,0,0.3966,button_right,0.3966,0,,,,,,276,NW,"ID",50,yarmon,YARMON,z,,,,,,0.511566084,-0.280013922,1,0,0,,0,300,300,335,1,
,,,,,,,,,,,,,,,,,,5f10f17a01b48a42592fd0ec,2020-08-10_18h57.44.480,lexical_decision_task_MP,2020.1.3,Linux armv8l,60,,0,0.512491551,-0.278163298,1,0,0,0.4688,button_right,0.4688,0,,,,,,391,NW,UN,50,rouncy,THELDY,z,,,,,,0.512491551,-0.278163298,1,0,0,,0,301,301,450,1,
,,,,,,,,,,,,,,,,,,5f10f17a01b48a42592fd0ec,2020-08-10_18h57.44.480,lexical_decision_task_MP,2020.1.3,Linux armv8l,60,,0,0.509715461,-0.27908861,1,0,0,0.6116,button_right,0.6116,0,,,,,,375,NW,UN,50,iguare,YORQUE,z,,,,,,0.509715461,-0.27908861,1,0,0,,0,302,302,434,1,
,,,,,,,,,,,,,,,,,,5f10f17a01b48a42592fd0ec,2020-08-10_18h57.44.480,lexical_decision_task_MP,2020.1.3,Linux armv8l,60,,0,0.512491551,-0.277238142,1,0,0,0.6181,button_right,0.6181,0,,,,,,413,NW,UN,50,serbol,EQUATS,z,,,,,,0.512491551,-0.277238142,1,0,0,,0,303,303,472,1,
,,,,,,,,,,,,,,,,,,5f10f17a01b48a42592fd0ec,2020-08-10_18h57.44.480,lexical_decision_task_MP,2020.1.3,Linux armv8l,60,,0,0.512491551,-0.276312753,1,0,0,0.4951,button_right,0.4951,1,,,,,,163,WORD,UN,50,market,STRING,m,,,,,,0.512491551,-0.276312753,1,0,0,,0,304,304,222,1,
,,,,,,,,,,,,,,,,,,5f10f17a01b48a42592fd0ec,2020-08-10_18h57.44.480,lexical_decision_task_MP,2020.1.3,Linux armv8l,60,,0,0.509715461,-0.277238142,1,0,0,0.4482,button_right,0.4482,0,,,,,,305,NW,UN,33,sounge,FORGLE,z,,,,,,0.509715461,-0.277238142,1,0,0,,0,305,305,364,1,
,,,,,,,,,,,,,,,,,,5f10f17a01b48a42592fd0ec,2020-08-10_18h57.44.480,lexical_decision_task_MP,2020.1.3,Linux armv8l,60,,0,0.512491551,-0.276312753,1,0,0,0.466,button_right,0.466,1,,,,,,217,WORD,"ID",33,liquor,LIQUOR,m,,,,,,0.512491551,-0.276312753,1,0,0,,0,306,306,36,1,
,,,,,,,,,,,,,,,,,,5f10f17a01b48a42592fd0ec,2020-08-10_18h57.44.480,lexical_decision_task_MP,2020.1.3,Linux armv8l,60,,0,0.511566084,-0.276312753,1,0,0,0.3635,button_right,0.3635,1,,,,,,31,WORD,"ID",50,weapon,WEAPON,m,,,,,,0.511566084,-0.276312753,1,0,0,,0,307,307,90,1,
,,,,,,,,,,,,,,,,,,5f10f17a01b48a42592fd0ec,2020-08-10_18h57.44.480,lexical_decision_task_MP,2020.1.3,Linux armv8l,60,,0,0.509715461,-0.275387519,1,0,0,0.4226,button_right,0.4226,1,,,,,,86,WORD,UN,33,filter,RODENT,m,,,,,,0.509715461,-0.275387519,1,0,0,,0,308,308,145,1,
,,,,,,,,,,,,,,,,,,5f10f17a01b48a42592fd0ec,2020-08-10_18h57.44.480,lexical_decision_task_MP,2020.1.3,Linux armv8l,60,,0,0.509715461,-0.276312753,1,0,0,0.3822,button_right,0.3822,1,,,,,,148,WORD,UN,50,invade,CUSTOM,m,,,,,,0.509715461,-0.276312753,1,0,0,,0,309,309,207,1,
,,,,,,,,,,,,,,,,,,5f10f17a01b48a42592fd0ec,2020-08-10_18h57.44.480,lexical_decision_task_MP,2020.1.3,Linux armv8l,60,,0,0.510640773,-0.276312753,1,0,0,0.327,button_right,0.327,0,,,,,,405,NW,UN,50,nouply,FLUMNI,z,,,,,,0.510640773,-0.276312753,1,0,0,,0,310,310,464,1,
,,,,,,,,,,,,,,,,,,5f10f17a01b48a42592fd0ec,2020-08-10_18h57.44.480,lexical_decision_task_MP,2020.1.3,Linux armv8l,60,,0,0.511566084,-0.274462207,1,0,0,0.4462,button_right,0.4462,1,,,,,,8,WORD,"ID",50,abrupt,ABRUPT,m,,,,,,0.511566084,-0.274462207,1,0,0,,0,311,311,67,1,
,,,,,,,,,,,,,,,,,,5f10f17a01b48a42592fd0ec,2020-08-10_18h57.44.480,lexical_decision_task_MP,2020.1.3,Linux armv8l,60,,0,0.510640773,-0.273536896,1,0,0,0.4131,button_right,0.4131,1,,,,,,36,WORD,"ID",50,vanish,VANISH,m,,,,,,0.510640773,-0.273536896,1,0,0,,0,312,312,95,1,
,,,,,,,,,,,,,,,,,,5f10f17a01b48a42592fd0ec,2020-08-10_18h57.44.480,lexical_decision_task_MP,2020.1.3,Linux armv8l,60,,0,0.509715461,-0.276312753,1,0,0,0.3356,button_right,0.3356,1,,,,,,138,WORD,UN,50,debris,MELODY,m,,,,,,0.509715461,-0.276312753,1,0,0,,0,313,313,197,1,
,,,,,,,,,,,,,,,,,,5f10f17a01b48a42592fd0ec,2020-08-10_18h57.44.480,lexical_decision_task_MP,2020.1.3,Linux armv8l,60,,0,0.507864993,-0.277238142,1,0,0,0.417,button_right,0.417,0,,,,,,423,NW,"ID",33,streld,STRELD,z,,,,,,0.507864993,-0.277238142,1,0,0,,0,314,314,242,1,
,,,,,,,,,,,,,,,,,,5f10f17a01b48a42592fd0ec,2020-08-10_18h57.44.480,lexical_decision_task_MP,2020.1.3,Linux armv8l,60,,0,0.50601437,-0.282789779,1,0,0,1.0159,button_right,1.0159,0,,,,,,322,NW,UN,33,rosail,SLANCH,z,,,,,,0.50601437,-0.282789779,1,0,0,,0,315,315,381,1,
,,,,,,,,,,,,,,,,,,5f10f17a01b48a42592fd0ec,2020-08-10_18h57.44.480,lexical_decision_task_MP,2020.1.3,Linux armv8l,60,,0,0.505089059,-0.281864467,1,0,0,0.8628,button_right,0.8628,0,,,,,,321,NW,UN,33,slanch,MIATOR,z,,,,,,0.505089059,-0.281864467,1,0,0,,0,316,316,380,1,
,,,,,,,,,,,,,,,,,,5f10f17a01b48a42592fd0ec,2020-08-10_18h57.44.480,lexical_decision_task_MP,2020.1.3,Linux armv8l,60,,0,0.502313434,-0.288341415,1,0,0,0.6998,button_right,0.6998,1,,,,,,15,WORD,"ID",50,amount,AMOUNT,m,,,,,,0.502313434,-0.288341415,1,0,0,,0,317,317,74,1,
,,,,,,,,,,,,,,,,,,5f10f17a01b48a42592fd0ec,2020-08-10_18h57.44.480,lexical_decision_task_MP,2020.1.3,Linux armv8l,60,,0,0.503238591,-0.285565636,1,0,0,0.4843,button_right,0.4843,1,,,,,,69,WORD,UN,33,square,PLENTY,m,,,,,,0.503238591,-0.285565636,1,0,0,,0,318,318,128,1,
,,,,,,,,,,,,,,,,,,5f10f17a01b48a42592fd0ec,2020-08-10_18h57.44.480,lexical_decision_task_MP,2020.1.3,Linux armv8l,60,,0,0.503238591,-0.283715013,1,0,0,0.3971,button_right,0.3971,0,,,,,,428,NW,"ID",33,tandly,TANDLY,z,,,,,,0.503238591,-0.283715013,1,0,0,,0,319,319,247,1,
,,,,,,,,,,,,,,,,,,5f10f17a01b48a42592fd0ec,2020-08-10_18h57.44.480,lexical_decision_task_MP,2020.1.3,Linux armv8l,60,,0,0.505089059,-0.283715013,1,0,0,0.3676,button_right,0.3676,1,,,,,,12,WORD,"ID",50,orange,ORANGE,m,,,,,,0.505089059,-0.283715013,1,0,0,,0,320,320,71,1,
,,,,,,,,,,,,,,,,,,5f10f17a01b48a42592fd0ec,2020-08-10_18h57.44.480,lexical_decision_task_MP,2020.1.3,Linux armv8l,60,,0,0.502313434,-0.280939156,1,0,0,0.4286,button_right,0.4286,1,,,,,,122,WORD,UN,50,strike,LINGER,m,,,,,,0.502313434,-0.280939156,1,0,0,,0,321,321,181,1,
,,,,,,,,,,,,,,,,,,5f10f17a01b48a42592fd0ec,2020-08-10_18h57.44.480,lexical_decision_task_MP,2020.1.3,Linux armv8l,60,,0,0.506939682,-0.280939156,1,0,0,0.4294,button_right,0.4294,1,,,,,,66,WORD,UN,33,policy,GOSPEL,m,,,,,,0.506939682,-0.280939156,1,0,0,,0,322,322,125,1,
,,,,,,,,,,,,,,,,,,5f10f17a01b48a42592fd0ec,2020-08-10_18h57.44.480,lexical_decision_task_MP,2020.1.3,Linux armv8l,60,,0,0.50601437,-0.280013922,1,0,0,0.3173,button_right,0.3173,1,,,,,,29,WORD,"ID",50,sketch,SKETCH,m,,,,,,0.50601437,-0.280013922,1,0,0,,0,323,323,88,1,
,,,,,,,,,,,,,,,,,,5f10f17a01b48a42592fd0ec,2020-08-10_18h57.44.480,lexical_decision_task_MP,2020.1.3,Linux armv8l,60,,0,0.504163747,-0.280939156,1,0,0,0.2834,button_right,0.2834,0,,,,,,406,NW,UN,50,suiver,NOUPLY,z,,,,,,0.504163747,-0.280939156,1,0,0,,0,324,324,465,1,
,,,,,,,,,,,,,,,,,,5f10f17a01b48a42592fd0ec,2020-08-10_18h57.44.480,lexical_decision_task_MP,2020.1.3,Linux armv8l,60,,0,0.504163747,-0.285565636,1,0,0,0.522,button_right,0.522,0,,,,,,390,NW,UN,50,theldy,HATRUS,z,,,,,,0.504163747,-0.285565636,1,0,0,,0,325,325,449,1,
,,,,,,,,,,,,,,,,,,5f10f17a01b48a42592fd0ec,2020-08-10_18h57.44.480,lexical_decision_task_MP,2020.1.3,Linux armv8l,60,,0,0.506939682,-0.292042584,1,0,0,0.5482,button_right,0.5482,0,,,,,,323,NW,UN,33,steikh,ROSAIL,z,,,,,,0.506939682,-0.292042584,1,0,0,,0,326,326,382,1,
,,,,,,,,,,,,,,,,,,5f10f17a01b48a42592fd0ec,2020-08-10_18h57.44.480,lexical_decision_task_MP,2020.1.3,Linux armv8l,60,,0,0.511566084,-0.280939156,1,0,0,0.397,button_right,0.397,1,,,,,,219,WORD,"ID",33,bucket,BUCKET,m,,,,,,0.511566084,-0.280939156,1,0,0,,0,327,327,38,1,
,,,,,,,,,,,,,,,,,,5f10f17a01b48a42592fd0ec,2020-08-10_18h57.44.480,lexical_decision_task_MP,2020.1.3,Linux armv8l,60,,0,0.510640773,-0.289266727,1,0,0,0.3599,button_right,0.3599,0,,,,,,475,NW,"ID",33,pebric,PEBRIC,z,,,,,,0.510640773,-0.289266727,1,0,0,,0,328,328,294,1,
,,,,,,,,,,,,,,,,,,5f10f17a01b48a42592fd0ec,2020-08-10_18h57.44.480,lexical_decision_task_MP,2020.1.3,Linux armv8l,60,,0,0.515267176,-0.284640324,1,0,0,0.349,button_right,0.349,0,,,,,,362,NW,UN,50,breali,TIREAU,z,,,,,,0.515267176,-0.284640324,1,0,0,,0,329,329,421,1,
,,,,,,,,,,,,,,,,,,5f10f17a01b48a42592fd0ec,2020-08-10_18h57.44.480,lexical_decision_task_MP,2020.1.3,Linux armv8l,60,,0,0.513416708,-0.282789779,1,0,0,0.6146,button_right,0.6146,1,,,,,,56,WORD,"ID",50,ambush,AMBUSH,m,,,,,,0.513416708,-0.282789779,1,0,0,,0,330,330,115,1,
,,,,,,,,,,,,,,,,,,5f10f17a01b48a42592fd0ec,2020-08-10_18h57.44.480,lexical_decision_task_MP,2020.1.3,Linux armv8l,60,,0,0.511566084,-0.280013922,1,0,0,0.4294,button_right,0.4294,0,,,,,,447,NW,"ID",33,gircue,GIRCUE,z,,,,,,0.511566084,-0.280013922,1,0,0,,0,331,331,266,1,
,,,,,,,,,,,,,,,,,,5f10f17a01b48a42592fd0ec,2020-08-10_18h57.44.480,lexical_decision_task_MP,2020.1.3,Linux armv8l,60,,0,0.514341864,-0.27908861,1,0,0,0.5311,button_right,0.5311,0,,,,,,466,NW,"ID",33,hocite,HOCITE,z,,,,,,0.514341864,-0.27908861,1,0,0,,0,332,332,285,1,
,,,,,,,,,,,,,,,,,,5f10f17a01b48a42592fd0ec,2020-08-10_18h57.44.480,lexical_decision_task_MP,2020.1.3,Linux armv8l,60,,0,0.515267176,-0.278163298,1,0,0,0.6491,button_right,0.6491,0,,,,,,291,NW,"ID",50,pretch,PRETCH,z,,,,,,0.515267176,-0.278163298,1,0,0,,0,333,333,350,1,
,,,,,,,,,,,,,,,,,,5f10f17a01b48a42592fd0ec,2020-08-10_18h57.44.480,lexical_decision_task_MP,2020.1.3,Linux armv8l,60,,0,0.512491551,-0.27908861,1,0,0,0.7122,button_right,0.7122,0,,,,,,452,NW,"ID",33,surden,SURDEN,z,,,,,,0.512491551,-0.27908861,1,0,0,,0,334,334,271,1,
,,,,,,,,,,,,,,,,,,5f10f17a01b48a42592fd0ec,2020-08-10_18h57.44.480,lexical_decision_task_MP,2020.1.3,Linux armv8l,60,,0,0.508790305,-0.276312753,1,0,0,0.5205,button_right,0.5205,0,,,,,,308,NW,UN,33,amiloy,PSETCH,z,,,,,,0.508790305,-0.276312753,1,0,0,,0,335,335,367,1,
,,,,,,,,,,,,,,,,,,5f10f17a01b48a42592fd0ec,2020-08-10_18h57.44.480,lexical_decision_task_MP,2020.1.3,Linux armv8l,60,,0,-0.560837374,-0.275387519,1,0,0,0.8801,button_left,0.8801,1,,,,,,275,NW,"ID",50,sleirt,SLEIRT,z,,,,,,-0.560837374,-0.275387519,1,0,0,,0,336,336,334,1,
,,,,,,,,,,,,,,,,,,5f10f17a01b48a42592fd0ec,2020-08-10_18h57.44.480,lexical_decision_task_MP,2020.1.3,Linux armv8l,60,,0,-0.560837374,-0.278163298,1,0,0,0.68,button_left,0.68,1,,,,,,464,NW,"ID",33,chaite,CHAITE,z,,,,,,-0.560837374,-0.278163298,1,0,0,,0,337,337,283,1,
,,,,,,,,,,,,,,,,,,5f10f17a01b48a42592fd0ec,2020-08-10_18h57.44.480,lexical_decision_task_MP,2020.1.3,Linux armv8l,60,,0,0.509715461,-0.28649087,1,0,0,0.4622,button_right,0.4622,1,,,,,,52,WORD,"ID",50,impose,IMPOSE,m,,,,,,0.509715461,-0.28649087,1,0,0,,0,338,338,111,1,
,,,,,,,,,,,,,,,,,,5f10f17a01b48a42592fd0ec,2020-08-10_18h57.44.480,lexical_decision_task_MP,2020.1.3,Linux armv8l,60,,0,0.511566084,-0.280939156,1,0,0,0.5169,button_right,0.5169,1,,,,,,239,WORD,"ID",33,lumber,LUMBER,m,,,,,,0.511566084,-0.280939156,1,0,0,,0,339,339,58,1,
,,,,,,,,,,,,,,,,,,5f10f17a01b48a42592fd0ec,2020-08-10_18h57.44.480,lexical_decision_task_MP,2020.1.3,Linux armv8l,60,,0,0.509715461,-0.280939156,1,0,0,0.5964,button_right,0.5964,1,,,,,,158,WORD,UN,50,detail,ISLAND,m,,,,,,0.509715461,-0.280939156,1,0,0,,0,340,340,217,1,
,,,,,,,,,,,,,,,,,,5f10f17a01b48a42592fd0ec,2020-08-10_18h57.44.480,lexical_decision_task_MP,2020.1.3,Linux armv8l,60,,0,0.509715461,-0.280939156,1,0,0,0.412,button_right,0.412,1,,,,,,47,WORD,"ID",50,income,INCOME,m,,,,,,0.509715461,-0.280939156,1,0,0,,0,341,341,106,1,
,,,,,,,,,,,,,,,,,,5f10f17a01b48a42592fd0ec,2020-08-10_18h57.44.480,lexical_decision_task_MP,2020.1.3,Linux armv8l,60,,0,0.507864993,-0.282789779,1,0,0,0.7594,button_right,0.7594,0,,,,,,358,NW,UN,33,fonver,FLEACK,z,,,,,,0.507864993,-0.282789779,1,0,0,,0,342,342,417,1,
