counterbalancing_condition,instr_done_keyboard.keys,instr_done_touch.x,instr_done_touch.y,instr_done_touch.leftButton,instr_done_touch.midButton,instr_done_touch.rightButton,instr_done_touch.clicked_name,instruction_pages.thisRepN,instruction_pages.thisTrialN,instruction_pages.thisN,instruction_pages.thisIndex,instruction_pages.ran,pageN,phase,instruct_text,has_image,instruct_image,participant,date,expName,psychopyVersion,OS,frameRate,response.keys,response.corr,touch_resp.x,touch_resp.y,touch_resp.leftButton,touch_resp.midButton,touch_resp.rightButton,touch_resp.time,touch_resp.clicked_name,rt,corr,practice_trials.thisRepN,practice_trials.thisTrialN,practice_trials.thisN,practice_trials.thisIndex,practice_trials.ran,TrialID,StimulusType,Condition,PrimeDuration,Prime,Target,corrAns,response.rt,end_of_practice_trials_pages.thisRepN,end_of_practice_trials_pages.thisTrialN,end_of_practice_trials_pages.thisN,end_of_practice_trials_pages.thisIndex,end_of_practice_trials_pages.ran,break_done_touch.x,break_done_touch.y,break_done_touch.leftButton,break_done_touch.midButton,break_done_touch.rightButton,break_done_keyboard.keys,trials.thisRepN,trials.thisTrialN,trials.thisN,trials.thisIndex,trials.ran,break_done_touch.clicked_name
0,,-0.036111111,-0.427777778,1,0,0,instr_done_button,0,0,0,0,1,1,instructions,"INSTRUCTIONS
At the start of each trial, look at the hash marks (######) in the center of the screen. After a moment, a string of letters will appear. Your task is to indicate if the letter string forms a word or not (i.e., if it is a nonword). For example, AUTHOR is a word while AUTHON is a nonword.

Press the space bar or touch the button below to continue.",0,,5f1487c186fcde504cfd70d7,2020-08-10_18h08.52.466,lexical_decision_task_MP,2020.1.3,Win32,60,,,,,,,,,,,,,,,,,,,,,,,,,,,,,,,,,,,,,,,,,
,,0.016666667,-0.39537037,1,0,0,instr_done_button,0,1,1,1,1,2,instructions,"If your device has a keyboard, press the 'Z' key for nonwords and the 'M' key for words.





Press the space bar or touch the button below to continue.",1,keyboard-example.gif,5f1487c186fcde504cfd70d7,2020-08-10_18h08.52.466,lexical_decision_task_MP,2020.1.3,Win32,60,,,,,,,,,,,,,,,,,,,,,,,,,,,,,,,,,,,,,,,,,
,,0.018518519,-0.394444444,1,0,0,instr_done_button,0,2,2,2,1,3,instructions,"If you are using a touchscreen only device, use the buttons on the screen. Do not use the mouse.





Press the space bar or touch the button below to continue.",1,touchscreen-example.gif,5f1487c186fcde504cfd70d7,2020-08-10_18h08.52.466,lexical_decision_task_MP,2020.1.3,Win32,60,,,,,,,,,,,,,,,,,,,,,,,,,,,,,,,,,,,,,,,,,
,,0.014814815,-0.394444444,1,0,0,instr_done_button,0,3,3,3,1,4,instructions,"It is very important that you respond as quickly and accurately as possible, as each letter string will only be on the screen for two seconds. If you do not respond within this time, the message 'Too slow!' will be displayed and the experiment will progress to the next letter string. The first 20 trials will be practice trials and you will receive feedback on your answers. 

Press the space bar or touch the button below to start the practice trials.",0,,5f1487c186fcde504cfd70d7,2020-08-10_18h08.52.466,lexical_decision_task_MP,2020.1.3,Win32,60,,,,,,,,,,,,,,,,,,,,,,,,,,,,,,,,,,,,,,,,,
,,,,,,,,,,,,,,,,,,5f1487c186fcde504cfd70d7,2020-08-10_18h08.52.466,lexical_decision_task_MP,2020.1.3,Win32,60,,0,,,,,,,,,-1,0,0,0,1,1,1002,WORD,"ID",33,adjust,ADJUST,m,,,,,,,,,,,,,,,,,,
,,,,,,,,,,,,,,,,,,5f1487c186fcde504cfd70d7,2020-08-10_18h08.52.466,lexical_decision_task_MP,2020.1.3,Win32,60,z,1,,,,,,,,0.7365,1,0,1,1,11,1,1012,NW,"ID",50,rashet,RASHET,z,0.7365,,,,,,,,,,,,,,,,,
,,,,,,,,,,,,,,,,,,5f1487c186fcde504cfd70d7,2020-08-10_18h08.52.466,lexical_decision_task_MP,2020.1.3,Win32,60,m,0,,,,,,,,0.602825,0,0,2,2,13,1,1014,NW,UN,33,winfer,ROUPET,z,0.602825,,,,,,,,,,,,,,,,,
,,,,,,,,,,,,,,,,,,5f1487c186fcde504cfd70d7,2020-08-10_18h08.52.466,lexical_decision_task_MP,2020.1.3,Win32,60,m,1,,,,,,,,0.421235,1,0,3,3,2,1,1003,WORD,"ID",50,almond,ALMOND,m,0.421235,,,,,,,,,,,,,,,,,
,,,,,,,,,,,,,,,,,,5f1487c186fcde504cfd70d7,2020-08-10_18h08.52.466,lexical_decision_task_MP,2020.1.3,Win32,60,m,1,,,,,,,,0.45911,1,0,4,4,7,1,1008,WORD,UN,50,hurdle,VOLUME,m,0.45911,,,,,,,,,,,,,,,,,
,,,,,,,,,,,,,,,,,,5f1487c186fcde504cfd70d7,2020-08-10_18h08.52.466,lexical_decision_task_MP,2020.1.3,Win32,60,z,1,,,,,,,,0.63039,1,0,5,5,14,1,1015,NW,UN,50,miaber,THRALE,z,0.63039,,,,,,,,,,,,,,,,,
,,,,,,,,,,,,,,,,,,5f1487c186fcde504cfd70d7,2020-08-10_18h08.52.466,lexical_decision_task_MP,2020.1.3,Win32,60,m,1,,,,,,,,0.578525,1,0,6,6,0,1,1001,WORD,"ID",33,utopia,UTOPIA,m,0.578525,,,,,,,,,,,,,,,,,
,,,,,,,,,,,,,,,,,,5f1487c186fcde504cfd70d7,2020-08-10_18h08.52.466,lexical_decision_task_MP,2020.1.3,Win32,60,m,1,,,,,,,,0.545285,1,0,7,7,4,1,1005,WORD,UN,33,abound,SQUEAK,m,0.545285,,,,,,,,,,,,,,,,,
,,,,,,,,,,,,,,,,,,5f1487c186fcde504cfd70d7,2020-08-10_18h08.52.466,lexical_decision_task_MP,2020.1.3,Win32,60,m,1,,,,,,,,0.560715,1,0,8,8,6,1,1007,WORD,UN,50,tropic,ZOMBIE,m,0.560715,,,,,,,,,,,,,,,,,
,,,,,,,,,,,,,,,,,,5f1487c186fcde504cfd70d7,2020-08-10_18h08.52.466,lexical_decision_task_MP,2020.1.3,Win32,60,z,1,,,,,,,,0.88176,1,0,9,9,9,1,1010,NW,"ID",33,fariny,FARINY,z,0.88176,,,,,,,,,,,,,,,,,
,,,,,,,,,,,,,,,,,,5f1487c186fcde504cfd70d7,2020-08-10_18h08.52.466,lexical_decision_task_MP,2020.1.3,Win32,60,m,0,,,,,,,,0.515345,0,0,10,10,10,1,1011,NW,"ID",50,inlade,INLADE,z,0.515345,,,,,,,,,,,,,,,,,
,,,,,,,,,,,,,,,,,,5f1487c186fcde504cfd70d7,2020-08-10_18h08.52.466,lexical_decision_task_MP,2020.1.3,Win32,60,m,0,,,,,,,,0.54876,0,0,11,11,12,1,1013,NW,UN,33,adveil,SPRINY,z,0.54876,,,,,,,,,,,,,,,,,
,,,,,,,,,,,,,,,,,,5f1487c186fcde504cfd70d7,2020-08-10_18h08.52.466,lexical_decision_task_MP,2020.1.3,Win32,60,z,1,,,,,,,,0.898535,1,0,12,12,8,1,1009,NW,"ID",33,aslert,ASLERT,z,0.898535,,,,,,,,,,,,,,,,,
,,,,,,,,,,,,,,,,,,5f1487c186fcde504cfd70d7,2020-08-10_18h08.52.466,lexical_decision_task_MP,2020.1.3,Win32,60,m,1,,,,,,,,0.749465,1,0,13,13,5,1,1006,WORD,UN,33,frenzy,OBTAIN,m,0.749465,,,,,,,,,,,,,,,,,
,,,,,,,,,,,,,,,,,,5f1487c186fcde504cfd70d7,2020-08-10_18h08.52.466,lexical_decision_task_MP,2020.1.3,Win32,60,m,1,,,,,,,,0.48463,1,0,14,14,3,1,1004,WORD,"ID",50,matrix,MATRIX,m,0.48463,,,,,,,,,,,,,,,,,
,,,,,,,,,,,,,,,,,,5f1487c186fcde504cfd70d7,2020-08-10_18h08.52.466,lexical_decision_task_MP,2020.1.3,Win32,60,z,1,,,,,,,,0.77296,1,0,15,15,15,1,1016,NW,UN,50,mushed,WHAISE,z,0.77296,,,,,,,,,,,,,,,,,
,,-0.023148148,-0.394444444,1,0,0,instr_done_button,,,,,,1,end_of_practice,"You have completed the practice trials. During the experimental trials, you will not receive feedback, but it is very important that you respond as quickly and accurately as possible. 
Before you begin, please ensure that you are in a comfortable and quiet location and will not be disturbed for about 15 minutes, as we cannot use your data if you do not complete all the trials. 
There will be opportunities to take breaks at regular intervals during the experiment. When you are ready to start the experimental trials, please press space or touch the button below.",,,5f1487c186fcde504cfd70d7,2020-08-10_18h08.52.466,lexical_decision_task_MP,2020.1.3,Win32,60,,,,,,,,,,,,,,,,,,,,,,,,,0,0,0,0,1,,,,,,,,,,,,
,,,,,,,,,,,,,,,,,,5f1487c186fcde504cfd70d7,2020-08-10_18h08.52.466,lexical_decision_task_MP,2020.1.3,Win32,60,m,1,,,,,,,,0.715385,1,,,,,,159,WORD,UN,50,violet,DETAIL,m,0.715385,,,,,,0.005555556,-0.264814815,0,0,0,,0,0,0,218,1,
,,,,,,,,,,,,,,,,,,5f1487c186fcde504cfd70d7,2020-08-10_18h08.52.466,lexical_decision_task_MP,2020.1.3,Win32,60,z,1,,,,,,,,0.89511,1,,,,,,412,NW,UN,50,equats,JILUER,z,0.89511,,,,,,0.00462963,-0.264814815,0,0,0,,0,1,1,471,1,
,,,,,,,,,,,,,,,,,,5f1487c186fcde504cfd70d7,2020-08-10_18h08.52.466,lexical_decision_task_MP,2020.1.3,Win32,60,z,1,,,,,,,,0.82129,1,,,,,,468,NW,"ID",33,wictor,WICTOR,z,0.82129,,,,,,0.002777778,-0.263888889,0,0,0,,0,2,2,287,1,
,,,,,,,,,,,,,,,,,,5f1487c186fcde504cfd70d7,2020-08-10_18h08.52.466,lexical_decision_task_MP,2020.1.3,Win32,60,z,1,,,,,,,,0.653885,1,,,,,,336,NW,UN,33,rejols,GHODUS,z,0.653885,,,,,,0.002777778,-0.263888889,0,0,0,,0,3,3,395,1,
,,,,,,,,,,,,,,,,,,5f1487c186fcde504cfd70d7,2020-08-10_18h08.52.466,lexical_decision_task_MP,2020.1.3,Win32,60,m,1,,,,,,,,0.54071,1,,,,,,150,WORD,UN,50,mystic,RANDOM,m,0.54071,,,,,,0.002777778,-0.263888889,0,0,0,,0,4,4,209,1,
,,,,,,,,,,,,,,,,,,5f1487c186fcde504cfd70d7,2020-08-10_18h08.52.466,lexical_decision_task_MP,2020.1.3,Win32,60,m,1,,,,,,,,0.47984,1,,,,,,18,WORD,"ID",50,humble,HUMBLE,m,0.47984,,,,,,0.002777778,-0.263888889,0,0,0,,0,5,5,77,1,
,,,,,,,,,,,,,,,,,,5f1487c186fcde504cfd70d7,2020-08-10_18h08.52.466,lexical_decision_task_MP,2020.1.3,Win32,60,m,1,,,,,,,,0.678525,1,,,,,,55,WORD,"ID",50,stroke,STROKE,m,0.678525,,,,,,0.000925926,-0.263888889,0,0,0,,0,6,6,114,1,
,,,,,,,,,,,,,,,,,,5f1487c186fcde504cfd70d7,2020-08-10_18h08.52.466,lexical_decision_task_MP,2020.1.3,Win32,60,m,1,,,,,,,,0.57935,1,,,,,,1,WORD,"ID",50,fright,FRIGHT,m,0.57935,,,,,,0.000925926,-0.263888889,0,0,0,,0,7,7,60,1,
,,,,,,,,,,,,,,,,,,5f1487c186fcde504cfd70d7,2020-08-10_18h08.52.466,lexical_decision_task_MP,2020.1.3,Win32,60,m,0,,,,,,,,0.326255,0,,,,,,423,NW,"ID",33,streld,STRELD,z,0.326255,,,,,,-0.000925926,-0.263888889,0,0,0,,0,8,8,242,1,
,,,,,,,,,,,,,,,,,,5f1487c186fcde504cfd70d7,2020-08-10_18h08.52.466,lexical_decision_task_MP,2020.1.3,Win32,60,m,1,,,,,,,,0.754355,1,,,,,,97,WORD,UN,33,belong,CLIENT,m,0.754355,,,,,,-0.000925926,-0.263888889,0,0,0,,0,9,9,156,1,
,,,,,,,,,,,,,,,,,,5f1487c186fcde504cfd70d7,2020-08-10_18h08.52.466,lexical_decision_task_MP,2020.1.3,Win32,60,z,1,,,,,,,,0.493805,1,,,,,,471,NW,"ID",33,nobest,NOBEST,z,0.493805,,,,,,-0.000925926,-0.263888889,0,0,0,,0,10,10,290,1,
,,,,,,,,,,,,,,,,,,5f1487c186fcde504cfd70d7,2020-08-10_18h08.52.466,lexical_decision_task_MP,2020.1.3,Win32,60,z,1,,,,,,,,0.48392,1,,,,,,363,NW,UN,50,impote,BREALI,z,0.48392,,,,,,-0.000925926,-0.263888889,0,0,0,,0,11,11,422,1,
,,,,,,,,,,,,,,,,,,5f1487c186fcde504cfd70d7,2020-08-10_18h08.52.466,lexical_decision_task_MP,2020.1.3,Win32,60,z,1,,,,,,,,0.545175,1,,,,,,287,NW,"ID",50,nymbel,NYMBEL,z,0.545175,,,,,,-0.000925926,-0.263888889,0,0,0,,0,12,12,346,1,
,,,,,,,,,,,,,,,,,,5f1487c186fcde504cfd70d7,2020-08-10_18h08.52.466,lexical_decision_task_MP,2020.1.3,Win32,60,z,1,,,,,,,,0.54891,1,,,,,,374,NW,UN,50,yorque,SLIANT,z,0.54891,,,,,,-0.000925926,-0.263888889,0,0,0,,0,13,13,433,1,
,,,,,,,,,,,,,,,,,,5f1487c186fcde504cfd70d7,2020-08-10_18h08.52.466,lexical_decision_task_MP,2020.1.3,Win32,60,z,1,,,,,,,,0.583215,1,,,,,,453,NW,"ID",33,bolvis,BOLVIS,z,0.583215,,,,,,-0.003703704,-0.263888889,0,0,0,,0,14,14,272,1,
,,,,,,,,,,,,,,,,,,5f1487c186fcde504cfd70d7,2020-08-10_18h08.52.466,lexical_decision_task_MP,2020.1.3,Win32,60,z,1,,,,,,,,0.745245,1,,,,,,308,NW,UN,33,amiloy,PSETCH,z,0.745245,,,,,,-0.003703704,-0.263888889,0,0,0,,0,15,15,367,1,
,,,,,,,,,,,,,,,,,,5f1487c186fcde504cfd70d7,2020-08-10_18h08.52.466,lexical_decision_task_MP,2020.1.3,Win32,60,m,1,,,,,,,,0.486145,1,,,,,,171,WORD,UN,50,patrol,DEPART,m,0.486145,,,,,,-0.003703704,-0.263888889,0,0,0,,0,16,16,230,1,
,,,,,,,,,,,,,,,,,,5f1487c186fcde504cfd70d7,2020-08-10_18h08.52.466,lexical_decision_task_MP,2020.1.3,Win32,60,z,1,,,,,,,,0.6995,1,,,,,,380,NW,UN,50,huniek,CAVORY,z,0.6995,,,,,,-0.003703704,-0.263888889,0,0,0,,0,17,17,439,1,
,,,,,,,,,,,,,,,,,,5f1487c186fcde504cfd70d7,2020-08-10_18h08.52.466,lexical_decision_task_MP,2020.1.3,Win32,60,z,1,,,,,,,,0.679445,1,,,,,,480,NW,"ID",33,robuly,ROBULY,z,0.679445,,,,,,-0.003703704,-0.263888889,0,0,0,,0,18,18,299,1,
,,,,,,,,,,,,,,,,,,5f1487c186fcde504cfd70d7,2020-08-10_18h08.52.466,lexical_decision_task_MP,2020.1.3,Win32,60,m,1,,,,,,,,0.534325,1,,,,,,220,WORD,"ID",33,voyage,VOYAGE,m,0.534325,,,,,,-0.003703704,-0.263888889,0,0,0,,0,19,19,39,1,
,,,,,,,,,,,,,,,,,,5f1487c186fcde504cfd70d7,2020-08-10_18h08.52.466,lexical_decision_task_MP,2020.1.3,Win32,60,m,1,,,,,,,,0.425815,1,,,,,,31,WORD,"ID",50,weapon,WEAPON,m,0.425815,,,,,,-0.003703704,-0.263888889,0,0,0,,0,20,20,90,1,
,,,,,,,,,,,,,,,,,,5f1487c186fcde504cfd70d7,2020-08-10_18h08.52.466,lexical_decision_task_MP,2020.1.3,Win32,60,m,1,,,,,,,,0.482325,1,,,,,,162,WORD,UN,50,string,CANDLE,m,0.482325,,,,,,-0.003703704,-0.263888889,0,0,0,,0,21,21,221,1,
,,,,,,,,,,,,,,,,,,5f1487c186fcde504cfd70d7,2020-08-10_18h08.52.466,lexical_decision_task_MP,2020.1.3,Win32,60,z,1,,,,,,,,0.59966,1,,,,,,393,NW,UN,50,spaqux,GANOUS,z,0.59966,,,,,,-0.003703704,-0.263888889,0,0,0,,0,22,22,452,1,
,,,,,,,,,,,,,,,,,,5f1487c186fcde504cfd70d7,2020-08-10_18h08.52.466,lexical_decision_task_MP,2020.1.3,Win32,60,m,1,,,,,,,,0.53539,1,,,,,,24,WORD,"ID",50,praise,PRAISE,m,0.53539,,,,,,-0.00462963,-0.263888889,0,0,0,,0,23,23,83,1,
,,,,,,,,,,,,,,,,,,5f1487c186fcde504cfd70d7,2020-08-10_18h08.52.466,lexical_decision_task_MP,2020.1.3,Win32,60,z,1,,,,,,,,0.882905,1,,,,,,334,NW,UN,33,desion,WATMEG,z,0.882905,,,,,,-0.005555556,-0.263888889,0,0,0,,0,24,24,393,1,
,,,,,,,,,,,,,,,,,,5f1487c186fcde504cfd70d7,2020-08-10_18h08.52.466,lexical_decision_task_MP,2020.1.3,Win32,60,m,0,,,,,,,,0.632955,0,,,,,,377,NW,UN,50,shrile,INJORE,z,0.632955,,,,,,-0.005555556,-0.263888889,0,0,0,,0,25,25,436,1,
,,,,,,,,,,,,,,,,,,5f1487c186fcde504cfd70d7,2020-08-10_18h08.52.466,lexical_decision_task_MP,2020.1.3,Win32,60,m,0,,,,,,,,0.503545,0,,,,,,370,NW,UN,50,geiloy,SLEACT,z,0.503545,,,,,,-0.005555556,-0.263888889,0,0,0,,0,26,26,429,1,
,,,,,,,,,,,,,,,,,,5f1487c186fcde504cfd70d7,2020-08-10_18h08.52.466,lexical_decision_task_MP,2020.1.3,Win32,60,m,1,,,,,,,,0.65248,1,,,,,,212,WORD,"ID",33,verify,VERIFY,m,0.65248,,,,,,-0.005555556,-0.263888889,0,0,0,,0,27,27,31,1,
,,,,,,,,,,,,,,,,,,5f1487c186fcde504cfd70d7,2020-08-10_18h08.52.466,lexical_decision_task_MP,2020.1.3,Win32,60,m,1,,,,,,,,0.52488,1,,,,,,193,WORD,"ID",33,object,OBJECT,m,0.52488,,,,,,-0.006481481,-0.263888889,0,0,0,,0,28,28,12,1,
,,,,,,,,,,,,,,,,,,5f1487c186fcde504cfd70d7,2020-08-10_18h08.52.466,lexical_decision_task_MP,2020.1.3,Win32,60,z,1,,,,,,,,0.656415,1,,,,,,306,NW,UN,33,kirafe,SOUNGE,z,0.656415,,,,,,-0.006481481,-0.263888889,0,0,0,,0,29,29,365,1,
,,,,,,,,,,,,,,,,,,5f1487c186fcde504cfd70d7,2020-08-10_18h08.52.466,lexical_decision_task_MP,2020.1.3,Win32,60,m,1,,,,,,,,0.88047,1,,,,,,222,WORD,"ID",33,hinder,HINDER,m,0.88047,,,,,,-0.006481481,-0.263888889,0,0,0,,0,30,30,41,1,
,,,,,,,,,,,,,,,,,,5f1487c186fcde504cfd70d7,2020-08-10_18h08.52.466,lexical_decision_task_MP,2020.1.3,Win32,60,m,1,,,,,,,,0.63295,1,,,,,,218,WORD,"ID",33,shrink,SHRINK,m,0.63295,,,,,,-0.009259259,-0.263888889,0,0,0,,0,31,31,37,1,
,,,,,,,,,,,,,,,,,,5f1487c186fcde504cfd70d7,2020-08-10_18h08.52.466,lexical_decision_task_MP,2020.1.3,Win32,60,m,1,,,,,,,,0.50285,1,,,,,,60,WORD,"ID",50,pencil,PENCIL,m,0.50285,,,,,,-0.018518519,-0.266666667,0,0,0,,0,32,32,119,1,
,,,,,,,,,,,,,,,,,,5f1487c186fcde504cfd70d7,2020-08-10_18h08.52.466,lexical_decision_task_MP,2020.1.3,Win32,60,m,0,,,,,,,,0.633075,0,,,,,,291,NW,"ID",50,pretch,PRETCH,z,0.633075,,,,,,-0.030555556,-0.276851852,0,0,0,,0,33,33,350,1,
,,,,,,,,,,,,,,,,,,5f1487c186fcde504cfd70d7,2020-08-10_18h08.52.466,lexical_decision_task_MP,2020.1.3,Win32,60,m,1,,,,,,,,0.61918,1,,,,,,181,WORD,"ID",33,glance,GLANCE,m,0.61918,,,,,,-0.030555556,-0.276851852,0,0,0,,0,34,34,0,1,
,,,,,,,,,,,,,,,,,,5f1487c186fcde504cfd70d7,2020-08-10_18h08.52.466,lexical_decision_task_MP,2020.1.3,Win32,60,m,1,,,,,,,,0.450715,1,,,,,,58,WORD,"ID",50,foster,FOSTER,m,0.450715,,,,,,-0.030555556,-0.276851852,0,0,0,,0,35,35,117,1,
,,,,,,,,,,,,,,,,,,5f1487c186fcde504cfd70d7,2020-08-10_18h08.52.466,lexical_decision_task_MP,2020.1.3,Win32,60,m,0,,,,,,,,0.761655,0,,,,,,280,NW,"ID",50,curbol,CURBOL,z,0.761655,,,,,,-0.030555556,-0.276851852,0,0,0,,0,36,36,339,1,
,,,,,,,,,,,,,,,,,,5f1487c186fcde504cfd70d7,2020-08-10_18h08.52.466,lexical_decision_task_MP,2020.1.3,Win32,60,z,1,,,,,,,,0.75717,1,,,,,,323,NW,UN,33,steikh,ROSAIL,z,0.75717,,,,,,-0.030555556,-0.276851852,0,0,0,,0,37,37,382,1,
,,,,,,,,,,,,,,,,,,5f1487c186fcde504cfd70d7,2020-08-10_18h08.52.466,lexical_decision_task_MP,2020.1.3,Win32,60,z,1,,,,,,,,0.704065,1,,,,,,390,NW,UN,50,theldy,HATRUS,z,0.704065,,,,,,-0.030555556,-0.276851852,0,0,0,,0,38,38,449,1,
,,,,,,,,,,,,,,,,,,5f1487c186fcde504cfd70d7,2020-08-10_18h08.52.466,lexical_decision_task_MP,2020.1.3,Win32,60,m,1,,,,,,,,0.475585,1,,,,,,22,WORD,"ID",50,jockey,JOCKEY,m,0.475585,,,,,,-0.030555556,-0.276851852,0,0,0,,0,39,39,81,1,
,,,,,,,,,,,,,,,,,,5f1487c186fcde504cfd70d7,2020-08-10_18h08.52.466,lexical_decision_task_MP,2020.1.3,Win32,60,m,0,,,,,,,,0.85048,0,,,,,,473,NW,"ID",33,crible,CRIBLE,z,0.85048,,,,,,-0.030555556,-0.276851852,0,0,0,,0,40,40,292,1,
,,,,,,,,,,,,,,,,,,5f1487c186fcde504cfd70d7,2020-08-10_18h08.52.466,lexical_decision_task_MP,2020.1.3,Win32,60,m,1,,,,,,,,0.45793,1,,,,,,64,WORD,UN,33,symbol,THRONE,m,0.45793,,,,,,-0.030555556,-0.276851852,0,0,0,,0,41,41,123,1,
,,,,,,,,,,,,,,,,,,5f1487c186fcde504cfd70d7,2020-08-10_18h08.52.466,lexical_decision_task_MP,2020.1.3,Win32,60,m,0,,,,,,,,0.513125,0,,,,,,419,NW,UN,50,gushop,SLOUNT,z,0.513125,,,,,,-0.030555556,-0.276851852,0,0,0,,0,42,42,478,1,
,,,,,,,,,,,,,,,,,,5f1487c186fcde504cfd70d7,2020-08-10_18h08.52.466,lexical_decision_task_MP,2020.1.3,Win32,60,m,1,,,,,,,,0.58167,1,,,,,,174,WORD,UN,50,fabric,TURKEY,m,0.58167,,,,,,-0.030555556,-0.276851852,0,0,0,,0,43,43,233,1,
,,,,,,,,,,,,,,,,,,5f1487c186fcde504cfd70d7,2020-08-10_18h08.52.466,lexical_decision_task_MP,2020.1.3,Win32,60,z,1,,,,,,,,0.51965,1,,,,,,475,NW,"ID",33,pebric,PEBRIC,z,0.51965,,,,,,-0.030555556,-0.276851852,0,0,0,,0,44,44,294,1,
,,,,,,,,,,,,,,,,,,5f1487c186fcde504cfd70d7,2020-08-10_18h08.52.466,lexical_decision_task_MP,2020.1.3,Win32,60,m,1,,,,,,,,0.60327,1,,,,,,129,WORD,UN,50,stupid,MARVEL,m,0.60327,,,,,,-0.030555556,-0.276851852,0,0,0,,0,45,45,188,1,
,,,,,,,,,,,,,,,,,,5f1487c186fcde504cfd70d7,2020-08-10_18h08.52.466,lexical_decision_task_MP,2020.1.3,Win32,60,z,0,,,,,,,,0.47665,0,,,,,,43,WORD,"ID",50,tongue,TONGUE,m,0.47665,,,,,,-0.030555556,-0.276851852,0,0,0,,0,46,46,102,1,
,,,,,,,,,,,,,,,,,,5f1487c186fcde504cfd70d7,2020-08-10_18h08.52.466,lexical_decision_task_MP,2020.1.3,Win32,60,z,1,,,,,,,,0.79432,1,,,,,,301,NW,UN,33,miluer,FAINCH,z,0.79432,,,,,,-0.030555556,-0.276851852,0,0,0,,0,47,47,360,1,
,,,,,,,,,,,,,,,,,,5f1487c186fcde504cfd70d7,2020-08-10_18h08.52.466,lexical_decision_task_MP,2020.1.3,Win32,60,z,1,,,,,,,,0.645045,1,,,,,,378,NW,UN,50,auting,SHRILE,z,0.645045,,,,,,-0.030555556,-0.276851852,0,0,0,,0,48,48,437,1,
,,,,,,,,,,,,,,,,,,5f1487c186fcde504cfd70d7,2020-08-10_18h08.52.466,lexical_decision_task_MP,2020.1.3,Win32,60,z,1,,,,,,,,0.70685,1,,,,,,415,NW,UN,50,pathel,HIGSTA,z,0.70685,,,,,,-0.030555556,-0.276851852,0,0,0,,0,49,49,474,1,
,,,,,,,,,,,,,,,,,,5f1487c186fcde504cfd70d7,2020-08-10_18h08.52.466,lexical_decision_task_MP,2020.1.3,Win32,60,m,1,,,,,,,,0.688995,1,,,,,,69,WORD,UN,33,square,PLENTY,m,0.688995,,,,,,-0.030555556,-0.276851852,0,0,0,,0,50,50,128,1,
,,,,,,,,,,,,,,,,,,5f1487c186fcde504cfd70d7,2020-08-10_18h08.52.466,lexical_decision_task_MP,2020.1.3,Win32,60,m,1,,,,,,,,0.57476,1,,,,,,166,WORD,UN,50,design,STARCH,m,0.57476,,,,,,-0.030555556,-0.276851852,0,0,0,,0,51,51,225,1,
,,,,,,,,,,,,,,,,,,5f1487c186fcde504cfd70d7,2020-08-10_18h08.52.466,lexical_decision_task_MP,2020.1.3,Win32,60,m,0,-0.030555556,-0.276851852,0,0,1,0.199815,,1.16869,0,,,,,,433,NW,"ID",33,drance,DRANCE,z,1.16869,,,,,,-0.044444444,-0.276851852,0,0,0,,0,52,52,252,1,
,,,,,,,,,,,,,,,,,,5f1487c186fcde504cfd70d7,2020-08-10_18h08.52.466,lexical_decision_task_MP,2020.1.3,Win32,60,m,1,-0.044444444,-0.276851852,0,0,1,0.166385,,0.891255,1,,,,,,50,WORD,"ID",50,snatch,SNATCH,m,0.891255,,,,,,-0.058333333,-0.275,0,0,0,,0,53,53,109,1,
,,,,,,,,,,,,,,,,,,5f1487c186fcde504cfd70d7,2020-08-10_18h08.52.466,lexical_decision_task_MP,2020.1.3,Win32,60,m,0,,,,,,,,0.97709,0,,,,,,352,NW,UN,33,clurey,TRINGE,z,0.97709,,,,,,-0.058333333,-0.275,0,0,0,,0,54,54,411,1,
,,,,,,,,,,,,,,,,,,5f1487c186fcde504cfd70d7,2020-08-10_18h08.52.466,lexical_decision_task_MP,2020.1.3,Win32,60,m,1,,,,,,,,0.610405,1,,,,,,46,WORD,"ID",50,single,SINGLE,m,0.610405,,,,,,-0.058333333,-0.275,0,0,0,,0,55,55,105,1,
,,,,,,,,,,,,,,,,,,5f1487c186fcde504cfd70d7,2020-08-10_18h08.52.466,lexical_decision_task_MP,2020.1.3,Win32,60,z,1,,,,,,,,0.84366,1,,,,,,290,NW,"ID",50,splino,SPLINO,z,0.84366,,,,,,-0.058333333,-0.275,0,0,0,,0,56,56,349,1,
,,,,,,,,,,,,,,,,,,5f1487c186fcde504cfd70d7,2020-08-10_18h08.52.466,lexical_decision_task_MP,2020.1.3,Win32,60,z,1,,,,,,,,0.883395,1,,,,,,358,NW,UN,33,fonver,FLEACK,z,0.883395,,,,,,-0.058333333,-0.275,0,0,0,,0,57,57,417,1,
,,,,,,,,,,,,,,,,,,5f1487c186fcde504cfd70d7,2020-08-10_18h08.52.466,lexical_decision_task_MP,2020.1.3,Win32,60,z,1,,,,,,,,0.728655,1,,,,,,264,NW,"ID",50,vackel,VACKEL,z,0.728655,,,,,,-0.058333333,-0.275,0,0,0,,0,58,58,323,1,
,,,,,,,,,,,,,,,,,,5f1487c186fcde504cfd70d7,2020-08-10_18h08.52.466,lexical_decision_task_MP,2020.1.3,Win32,60,m,1,,,,,,,,0.59779,1,,,,,,99,WORD,UN,33,carbon,FLUENT,m,0.59779,,,,,,-0.058333333,-0.275,0,0,0,,0,59,59,158,1,
,,,,,,,,,,,,,,,,,,5f1487c186fcde504cfd70d7,2020-08-10_18h08.52.466,lexical_decision_task_MP,2020.1.3,Win32,60,m,1,,,,,,,,0.598605,1,,,,,,149,WORD,UN,50,random,INVADE,m,0.598605,,,,,,-0.058333333,-0.275,0,0,0,,0,60,60,208,1,
,,,,,,,,,,,,,,,,,,5f1487c186fcde504cfd70d7,2020-08-10_18h08.52.466,lexical_decision_task_MP,2020.1.3,Win32,60,z,1,-0.059259259,-0.275,1,0,0,0.18302,,0.615265,1,,,,,,463,NW,"ID",33,kispel,KISPEL,z,0.615265,,,,,,-0.059259259,-0.275,0,0,0,,0,61,61,282,1,
,,,,,,,,,,,,,,,,,,5f1487c186fcde504cfd70d7,2020-08-10_18h08.52.466,lexical_decision_task_MP,2020.1.3,Win32,60,z,1,,,,,,,,0.552625,1,,,,,,304,NW,UN,33,forgle,CLUDIE,z,0.552625,,,,,,-0.059259259,-0.275,0,0,0,,0,62,62,363,1,
,,,,,,,,,,,,,,,,,,5f1487c186fcde504cfd70d7,2020-08-10_18h08.52.466,lexical_decision_task_MP,2020.1.3,Win32,60,m,1,,,,,,,,0.666325,1,,,,,,178,WORD,UN,50,basket,INFORM,m,0.666325,,,,,,-0.059259259,-0.275,0,0,0,,0,63,63,237,1,
,,,,,,,,,,,,,,,,,,5f1487c186fcde504cfd70d7,2020-08-10_18h08.52.466,lexical_decision_task_MP,2020.1.3,Win32,60,z,1,,,,,,,,0.69706,1,,,,,,403,NW,UN,50,cluirm,BRUATS,z,0.69706,,,,,,-0.059259259,-0.275,0,0,0,,0,64,64,462,1,
,,,,,,,,,,,,,,,,,,5f1487c186fcde504cfd70d7,2020-08-10_18h08.52.466,lexical_decision_task_MP,2020.1.3,Win32,60,m,1,,,,,,,,0.646555,1,,,,,,26,WORD,"ID",50,sprint,SPRINT,m,0.646555,,,,,,-0.059259259,-0.275,0,0,0,,0,65,65,85,1,
,,,,,,,,,,,,,,,,,,5f1487c186fcde504cfd70d7,2020-08-10_18h08.52.466,lexical_decision_task_MP,2020.1.3,Win32,60,z,1,,,,,,,,0.741705,1,,,,,,413,NW,UN,50,serbol,EQUATS,z,0.741705,,,,,,-0.059259259,-0.275,0,0,0,,0,66,66,472,1,
,,,,,,,,,,,,,,,,,,5f1487c186fcde504cfd70d7,2020-08-10_18h08.52.466,lexical_decision_task_MP,2020.1.3,Win32,60,z,1,,,,,,,,0.76145,1,,,,,,310,NW,UN,33,sproly,DANIET,z,0.76145,,,,,,-0.059259259,-0.275,0,0,0,,0,67,67,369,1,
,,,,,,,,,,,,,,,,,,5f1487c186fcde504cfd70d7,2020-08-10_18h08.52.466,lexical_decision_task_MP,2020.1.3,Win32,60,m,1,,,,,,,,0.502065,1,,,,,,209,WORD,"ID",33,search,SEARCH,m,0.502065,,,,,,-0.059259259,-0.275,0,0,0,,0,68,68,28,1,
,,,,,,,,,,,,,,,,,,5f1487c186fcde504cfd70d7,2020-08-10_18h08.52.466,lexical_decision_task_MP,2020.1.3,Win32,60,z,1,,,,,,,,0.71656,1,,,,,,322,NW,UN,33,rosail,SLANCH,z,0.71656,,,,,,-0.059259259,-0.275,0,0,0,,0,69,69,381,1,
,,,,,,,,,,,,,,,,,,5f1487c186fcde504cfd70d7,2020-08-10_18h08.52.466,lexical_decision_task_MP,2020.1.3,Win32,60,z,1,-0.089814815,-0.27037037,1,0,0,0.283335,,0.72381,1,,,,,,271,NW,"ID",50,aubrid,AUBRID,z,0.72381,,,,,,-0.092592593,-0.271296296,0,0,0,,0,70,70,330,1,
,,,,,,,,,,,,,,,,,,5f1487c186fcde504cfd70d7,2020-08-10_18h08.52.466,lexical_decision_task_MP,2020.1.3,Win32,60,z,1,,,,,,,,0.5772,1,,,,,,298,NW,"ID",50,piergy,PIERGY,z,0.5772,,,,,,-0.011111111,-0.271296296,0,0,0,,0,71,71,357,1,
,,,,,,,,,,,,,,,,,,5f1487c186fcde504cfd70d7,2020-08-10_18h08.52.466,lexical_decision_task_MP,2020.1.3,Win32,60,m,1,,,,,,,,0.72496,1,,,,,,231,WORD,"ID",33,export,EXPORT,m,0.72496,,,,,,-0.017592593,-0.271296296,0,0,0,,0,72,72,50,1,
,,,,,,,,,,,,,,,,,,5f1487c186fcde504cfd70d7,2020-08-10_18h08.52.466,lexical_decision_task_MP,2020.1.3,Win32,60,m,1,,,,,,,,0.625305,1,,,,,,95,WORD,UN,33,ignore,THREAD,m,0.625305,,,,,,-0.017592593,-0.271296296,0,0,0,,0,73,73,154,1,
,,,,,,,,,,,,,,,,,,5f1487c186fcde504cfd70d7,2020-08-10_18h08.52.466,lexical_decision_task_MP,2020.1.3,Win32,60,m,1,,,,,,,,0.513045,1,,,,,,41,WORD,"ID",50,spring,SPRING,m,0.513045,,,,,,-0.017592593,-0.271296296,0,0,0,,0,74,74,100,1,
,,,,,,,,,,,,,,,,,,5f1487c186fcde504cfd70d7,2020-08-10_18h08.52.466,lexical_decision_task_MP,2020.1.3,Win32,60,m,1,,,,,,,,0.58378,1,,,,,,2,WORD,"ID",50,bridge,BRIDGE,m,0.58378,,,,,,-0.02037037,-0.271296296,0,0,0,,0,75,75,61,1,
,,,,,,,,,,,,,,,,,,5f1487c186fcde504cfd70d7,2020-08-10_18h08.52.466,lexical_decision_task_MP,2020.1.3,Win32,60,z,0,,,,,,,,0.84007,0,,,,,,61,WORD,UN,33,region,PONDER,m,0.84007,,,,,,-0.022222222,-0.271296296,0,0,0,,0,76,76,120,1,
,,,,,,,,,,,,,,,,,,5f1487c186fcde504cfd70d7,2020-08-10_18h08.52.466,lexical_decision_task_MP,2020.1.3,Win32,60,z,1,,,,,,,,0.669995,1,,,,,,376,NW,UN,50,veigma,IGUARE,z,0.669995,,,,,,-0.022222222,-0.271296296,0,0,0,,0,77,77,435,1,
,,,,,,,,,,,,,,,,,,5f1487c186fcde504cfd70d7,2020-08-10_18h08.52.466,lexical_decision_task_MP,2020.1.3,Win32,60,m,1,,,,,,,,0.572165,1,,,,,,10,WORD,"ID",50,ethnic,ETHNIC,m,0.572165,,,,,,-0.022222222,-0.271296296,0,0,0,,0,78,78,69,1,
,,,,,,,,,,,,,,,,,,5f1487c186fcde504cfd70d7,2020-08-10_18h08.52.466,lexical_decision_task_MP,2020.1.3,Win32,60,z,1,,,,,,,,0.69579,1,,,,,,479,NW,"ID",33,lobush,LOBUSH,z,0.69579,,,,,,-0.022222222,-0.271296296,0,0,0,,0,79,79,298,1,
,,,,,,,,,,,,,,,,,,5f1487c186fcde504cfd70d7,2020-08-10_18h08.52.466,lexical_decision_task_MP,2020.1.3,Win32,60,z,1,,,,,,,,0.886355,1,,,,,,426,NW,"ID",33,urivel,URIVEL,z,0.886355,,,,,,-0.022222222,-0.271296296,0,0,0,,0,80,80,245,1,
,,,,,,,,,,,,,,,,,,5f1487c186fcde504cfd70d7,2020-08-10_18h08.52.466,lexical_decision_task_MP,2020.1.3,Win32,60,z,1,,,,,,,,0.58796,1,,,,,,466,NW,"ID",33,hocite,HOCITE,z,0.58796,,,,,,-0.022222222,-0.271296296,0,0,0,,0,81,81,285,1,
,,,,,,,,,,,,,,,,,,5f1487c186fcde504cfd70d7,2020-08-10_18h08.52.466,lexical_decision_task_MP,2020.1.3,Win32,60,z,1,,,,,,,,0.78363,1,,,,,,450,NW,"ID",33,phrect,PHRECT,z,0.78363,,,,,,-0.027777778,-0.271296296,0,0,0,,0,82,82,269,1,
,,,,,,,,,,,,,,,,,,5f1487c186fcde504cfd70d7,2020-08-10_18h08.52.466,lexical_decision_task_MP,2020.1.3,Win32,60,z,1,,,,,,,,0.823,1,,,,,,367,NW,UN,50,hornal,SLIQUE,z,0.823,,,,,,-0.027777778,-0.271296296,0,0,0,,0,83,83,426,1,
,,,,,,,,,,,,,,,,,,5f1487c186fcde504cfd70d7,2020-08-10_18h08.52.466,lexical_decision_task_MP,2020.1.3,Win32,60,m,1,,,,,,,,0.56027,1,,,,,,104,WORD,UN,33,number,STUDIO,m,0.56027,,,,,,-0.027777778,-0.271296296,0,0,0,,0,84,84,163,1,
,,,,,,,,,,,,,,,,,,5f1487c186fcde504cfd70d7,2020-08-10_18h08.52.466,lexical_decision_task_MP,2020.1.3,Win32,60,m,1,,,,,,,,0.499835,1,,,,,,208,WORD,"ID",33,hockey,HOCKEY,m,0.499835,,,,,,-0.027777778,-0.271296296,0,0,0,,0,85,85,27,1,
,,,,,,,,,,,,,,,,,,5f1487c186fcde504cfd70d7,2020-08-10_18h08.52.466,lexical_decision_task_MP,2020.1.3,Win32,60,z,1,,,,,,,,0.808465,1,,,,,,434,NW,"ID",33,pitrom,PITROM,z,0.808465,,,,,,-0.027777778,-0.271296296,0,0,0,,0,86,86,253,1,
,,,,,,,,,,,,,,,,,,5f1487c186fcde504cfd70d7,2020-08-10_18h08.52.466,lexical_decision_task_MP,2020.1.3,Win32,60,z,1,,,,,,,,0.57734,1,,,,,,294,NW,"ID",50,inhort,INHORT,z,0.57734,,,,,,-0.027777778,-0.271296296,0,0,0,,0,87,87,353,1,
,,,,,,,,,,,,,,,,,,5f1487c186fcde504cfd70d7,2020-08-10_18h08.52.466,lexical_decision_task_MP,2020.1.3,Win32,60,z,1,,,,,,,,0.64418,1,,,,,,405,NW,UN,50,nouply,FLUMNI,z,0.64418,,,,,,-0.027777778,-0.271296296,0,0,0,,0,88,88,464,1,
,,,,,,,,,,,,,,,,,,5f1487c186fcde504cfd70d7,2020-08-10_18h08.52.466,lexical_decision_task_MP,2020.1.3,Win32,60,z,1,,,,,,,,0.83457,1,,,,,,268,NW,"ID",50,packes,PACKES,z,0.83457,,,,,,-0.02962963,-0.271296296,0,0,0,,0,89,89,327,1,
,,,,,,,,,,,,,,,,,,5f1487c186fcde504cfd70d7,2020-08-10_18h08.52.466,lexical_decision_task_MP,2020.1.3,Win32,60,m,1,,,,,,,,0.770855,1,,,,,,182,WORD,"ID",33,winter,WINTER,m,0.770855,,,,,,-0.02962963,-0.271296296,0,0,0,,0,90,90,1,1,
,,,,,,,,,,,,,,,,,,5f1487c186fcde504cfd70d7,2020-08-10_18h08.52.466,lexical_decision_task_MP,2020.1.3,Win32,60,m,1,,,,,,,,0.45266,1,,,,,,179,WORD,UN,50,silent,BASKET,m,0.45266,,,,,,-0.02962963,-0.271296296,0,0,0,,0,91,91,238,1,
,,,,,,,,,,,,,,,,,,5f1487c186fcde504cfd70d7,2020-08-10_18h08.52.466,lexical_decision_task_MP,2020.1.3,Win32,60,m,1,,,,,,,,0.628585,1,,,,,,214,WORD,"ID",33,intake,INTAKE,m,0.628585,,,,,,-0.02962963,-0.271296296,0,0,0,,0,92,92,33,1,
,,,,,,,,,,,,,,,,,,5f1487c186fcde504cfd70d7,2020-08-10_18h08.52.466,lexical_decision_task_MP,2020.1.3,Win32,60,m,0,,,,,,,,1.14053,0,,,,,,338,NW,UN,33,fachow,WREASH,z,1.14053,,,,,,-0.02962963,-0.271296296,0,0,0,,0,93,93,397,1,
,,,,,,,,,,,,,,,,,,5f1487c186fcde504cfd70d7,2020-08-10_18h08.52.466,lexical_decision_task_MP,2020.1.3,Win32,60,z,1,,,,,,,,0.640615,1,,,,,,286,NW,"ID",50,reldon,RELDON,z,0.640615,,,,,,-0.032407407,-0.271296296,0,0,0,,0,94,94,345,1,
,,,,,,,,,,,,,,,,,,5f1487c186fcde504cfd70d7,2020-08-10_18h08.52.466,lexical_decision_task_MP,2020.1.3,Win32,60,m,1,,,,,,,,0.46623,1,,,,,,205,WORD,"ID",33,lounge,LOUNGE,m,0.46623,,,,,,-0.032407407,-0.271296296,0,0,0,,0,95,95,24,1,
,,,,,,,,,,,,,,,,,,5f1487c186fcde504cfd70d7,2020-08-10_18h08.52.466,lexical_decision_task_MP,2020.1.3,Win32,60,m,1,,,,,,,,0.56724,1,,,,,,124,WORD,UN,50,nickel,BLOUSE,m,0.56724,,,,,,-0.037037037,-0.271296296,0,0,0,,0,96,96,183,1,
,,,,,,,,,,,,,,,,,,5f1487c186fcde504cfd70d7,2020-08-10_18h08.52.466,lexical_decision_task_MP,2020.1.3,Win32,60,m,1,,,,,,,,0.63366,1,,,,,,133,WORD,UN,50,staple,CHROME,m,0.63366,,,,,,-0.062037037,-0.258333333,0,0,0,,0,97,97,192,1,
,,,,,,,,,,,,,,,,,,5f1487c186fcde504cfd70d7,2020-08-10_18h08.52.466,lexical_decision_task_MP,2020.1.3,Win32,60,m,1,,,,,,,,0.687545,1,,,,,,186,WORD,"ID",33,portal,PORTAL,m,0.687545,,,,,,-0.062037037,-0.258333333,0,0,0,,0,98,98,5,1,
,,,,,,,,,,,,,,,,,,5f1487c186fcde504cfd70d7,2020-08-10_18h08.52.466,lexical_decision_task_MP,2020.1.3,Win32,60,z,1,,,,,,,,0.85309,1,,,,,,349,NW,UN,33,nagurs,ASYLEN,z,0.85309,,,,,,-0.062037037,-0.258333333,0,0,0,,0,99,99,408,1,
,,,,,,,,,,,,,,,,,,5f1487c186fcde504cfd70d7,2020-08-10_18h08.52.466,lexical_decision_task_MP,2020.1.3,Win32,60,m,0,,,,,,,,0.58997,0,,,,,,345,NW,UN,33,saudic,ABSEND,z,0.58997,,,,,,-0.062037037,-0.258333333,0,0,0,,0,100,100,404,1,
,,,,,,,,,,,,,,,,,,5f1487c186fcde504cfd70d7,2020-08-10_18h08.52.466,lexical_decision_task_MP,2020.1.3,Win32,60,m,1,,,,,,,,0.55811,1,,,,,,92,WORD,UN,33,public,STRAND,m,0.55811,,,,,,-0.062037037,-0.258333333,0,0,0,,0,101,101,151,1,
,,,,,,,,,,,,,,,,,,5f1487c186fcde504cfd70d7,2020-08-10_18h08.52.466,lexical_decision_task_MP,2020.1.3,Win32,60,z,1,,,,,,,,0.754545,1,,,,,,303,NW,UN,33,cludie,FIREAM,z,0.754545,,,,,,-0.062037037,-0.258333333,0,0,0,,0,102,102,362,1,
,,,,,,,,,,,,,,,,,,5f1487c186fcde504cfd70d7,2020-08-10_18h08.52.466,lexical_decision_task_MP,2020.1.3,Win32,60,z,0,,,,,,,,0.546135,0,,,,,,8,WORD,"ID",50,abrupt,ABRUPT,m,0.546135,,,,,,-0.062037037,-0.258333333,0,0,0,,0,103,103,67,1,
,,,,,,,,,,,,,,,,,,5f1487c186fcde504cfd70d7,2020-08-10_18h08.52.466,lexical_decision_task_MP,2020.1.3,Win32,60,m,1,,,,,,,,0.68049,1,,,,,,167,WORD,UN,50,answer,DESIGN,m,0.68049,,,,,,-0.062037037,-0.258333333,0,0,0,,0,104,104,226,1,
,,,,,,,,,,,,,,,,,,5f1487c186fcde504cfd70d7,2020-08-10_18h08.52.466,lexical_decision_task_MP,2020.1.3,Win32,60,m,1,,,,,,,,0.439075,1,,,,,,65,WORD,UN,33,gospel,SYMBOL,m,0.439075,,,,,,-0.062037037,-0.258333333,0,0,0,,0,105,105,124,1,
,,,,,,,,,,,,,,,,,,5f1487c186fcde504cfd70d7,2020-08-10_18h08.52.466,lexical_decision_task_MP,2020.1.3,Win32,60,m,1,,,,,,,,0.606285,1,,,,,,144,WORD,UN,50,parish,SPONGE,m,0.606285,,,,,,-0.062037037,-0.258333333,0,0,0,,0,106,106,203,1,
,,,,,,,,,,,,,,,,,,5f1487c186fcde504cfd70d7,2020-08-10_18h08.52.466,lexical_decision_task_MP,2020.1.3,Win32,60,z,1,,,,,,,,0.591435,1,,,,,,472,NW,"ID",33,cigney,CIGNEY,z,0.591435,,,,,,-0.062037037,-0.258333333,0,0,0,,0,107,107,291,1,
,,,,,,,,,,,,,,,,,,5f1487c186fcde504cfd70d7,2020-08-10_18h08.52.466,lexical_decision_task_MP,2020.1.3,Win32,60,z,1,,,,,,,,0.535995,1,,,,,,409,NW,UN,50,tunory,ELOPIA,z,0.535995,,,,,,-0.062037037,-0.258333333,0,0,0,,0,108,108,468,1,
,,,,,,,,,,,,,,,,,,5f1487c186fcde504cfd70d7,2020-08-10_18h08.52.466,lexical_decision_task_MP,2020.1.3,Win32,60,z,1,,,,,,,,0.515975,1,,,,,,259,NW,"ID",50,soudal,SOUDAL,z,0.515975,,,,,,-0.062037037,-0.258333333,0,0,0,,0,109,109,318,1,
,,,,,,,,,,,,,,,,,,5f1487c186fcde504cfd70d7,2020-08-10_18h08.52.466,lexical_decision_task_MP,2020.1.3,Win32,60,z,1,,,,,,,,0.58437,1,,,,,,355,NW,UN,33,othnis,ZINGLY,z,0.58437,,,,,,-0.062037037,-0.258333333,0,0,0,,0,110,110,414,1,
,,,,,,,,,,,,,,,,,,5f1487c186fcde504cfd70d7,2020-08-10_18h08.52.466,lexical_decision_task_MP,2020.1.3,Win32,60,m,1,,,,,,,,0.58633,1,,,,,,196,WORD,"ID",33,credit,CREDIT,m,0.58633,,,,,,-0.062037037,-0.258333333,0,0,0,,0,111,111,15,1,
,,,,,,,,,,,,,,,,,,5f1487c186fcde504cfd70d7,2020-08-10_18h08.52.466,lexical_decision_task_MP,2020.1.3,Win32,60,m,1,,,,,,,,0.924655,1,,,,,,153,WORD,UN,50,author,BEHOLD,m,0.924655,,,,,,-0.062037037,-0.258333333,0,0,0,,0,112,112,212,1,
,,,,,,,,,,,,,,,,,,5f1487c186fcde504cfd70d7,2020-08-10_18h08.52.466,lexical_decision_task_MP,2020.1.3,Win32,60,z,0,,,,,,,,0.721075,0,,,,,,86,WORD,UN,33,filter,RODENT,m,0.721075,,,,,,-0.062037037,-0.258333333,0,0,0,,0,113,113,145,1,
,,,,,,,,,,,,,,,,,,5f1487c186fcde504cfd70d7,2020-08-10_18h08.52.466,lexical_decision_task_MP,2020.1.3,Win32,60,m,1,,,,,,,,0.669535,1,,,,,,137,WORD,UN,50,melody,FINGER,m,0.669535,,,,,,-0.062037037,-0.258333333,0,0,0,,0,114,114,196,1,
,,,,,,,,,,,,,,,,,,5f1487c186fcde504cfd70d7,2020-08-10_18h08.52.466,lexical_decision_task_MP,2020.1.3,Win32,60,z,1,,,,,,,,0.858205,1,,,,,,395,NW,UN,50,flengy,COLURY,z,0.858205,,,,,,-0.062037037,-0.258333333,0,0,0,,0,115,115,454,1,
,,,,,,,,,,,,,,,,,,5f1487c186fcde504cfd70d7,2020-08-10_18h08.52.466,lexical_decision_task_MP,2020.1.3,Win32,60,m,1,,,,,,,,1.00131,1,,,,,,168,WORD,UN,50,genius,ANSWER,m,1.00131,,,,,,-0.062037037,-0.258333333,0,0,0,,0,116,116,227,1,
,,,,,,,,,,,,,,,,,,5f1487c186fcde504cfd70d7,2020-08-10_18h08.52.466,lexical_decision_task_MP,2020.1.3,Win32,60,m,0,,,,,,,,0.8902,0,,,,,,252,NW,"ID",50,stapod,STAPOD,z,0.8902,,,,,,-0.062037037,-0.258333333,0,0,0,,0,117,117,311,1,
,,,,,,,,,,,,,,,,,,5f1487c186fcde504cfd70d7,2020-08-10_18h08.52.466,lexical_decision_task_MP,2020.1.3,Win32,60,m,1,,,,,,,,0.44994,1,,,,,,132,WORD,UN,50,orphan,STRONG,m,0.44994,,,,,,-0.062037037,-0.258333333,0,0,0,,0,118,118,191,1,
,,,,,,,,,,,,,,,,,,5f1487c186fcde504cfd70d7,2020-08-10_18h08.52.466,lexical_decision_task_MP,2020.1.3,Win32,60,z,1,,,,,,,,0.71092,1,,,,,,436,NW,"ID",33,frutan,FRUTAN,z,0.71092,,,,,,-0.062037037,-0.258333333,0,0,0,,0,119,119,255,1,
,,,,,,,,,,,,,,,,,,5f1487c186fcde504cfd70d7,2020-08-10_18h08.52.466,lexical_decision_task_MP,2020.1.3,Win32,60,m,1,,,,,,,,0.5666,1,,,,,,223,WORD,"ID",33,kidney,KIDNEY,m,0.5666,,,,,,-0.025,-0.427777778,1,0,0,,0,120,120,42,1,break_done_button
,,,,,,,,,,,,,,,,,,5f1487c186fcde504cfd70d7,2020-08-10_18h08.52.466,lexical_decision_task_MP,2020.1.3,Win32,60,m,1,,,,,,,,0.930285,1,,,,,,180,WORD,UN,50,thrive,SILENT,m,0.930285,,,,,,-0.030555556,-0.393518519,0,0,0,,0,121,121,239,1,
,,,,,,,,,,,,,,,,,,5f1487c186fcde504cfd70d7,2020-08-10_18h08.52.466,lexical_decision_task_MP,2020.1.3,Win32,60,z,1,,,,,,,,0.759075,1,,,,,,346,NW,UN,33,kerift,SAUDIC,z,0.759075,,,,,,-0.030555556,-0.393518519,0,0,0,,0,122,122,405,1,
,,,,,,,,,,,,,,,,,,5f1487c186fcde504cfd70d7,2020-08-10_18h08.52.466,lexical_decision_task_MP,2020.1.3,Win32,60,m,1,,,,,,,,0.562175,1,,,,,,238,WORD,"ID",33,flower,FLOWER,m,0.562175,,,,,,-0.030555556,-0.393518519,0,0,0,,0,123,123,57,1,
,,,,,,,,,,,,,,,,,,5f1487c186fcde504cfd70d7,2020-08-10_18h08.52.466,lexical_decision_task_MP,2020.1.3,Win32,60,z,1,,,,,,,,0.74159,1,,,,,,257,NW,"ID",50,veniod,VENIOD,z,0.74159,,,,,,-0.030555556,-0.393518519,0,0,0,,0,124,124,316,1,
,,,,,,,,,,,,,,,,,,5f1487c186fcde504cfd70d7,2020-08-10_18h08.52.466,lexical_decision_task_MP,2020.1.3,Win32,60,m,1,,,,,,,,1.050235,1,,,,,,183,WORD,"ID",33,mildew,MILDEW,m,1.050235,,,,,,-0.030555556,-0.393518519,0,0,0,,0,125,125,2,1,
,,,,,,,,,,,,,,,,,,5f1487c186fcde504cfd70d7,2020-08-10_18h08.52.466,lexical_decision_task_MP,2020.1.3,Win32,60,z,1,,,,,,,,0.70927,1,,,,,,312,NW,UN,33,paurse,NERAWL,z,0.70927,,,,,,-0.030555556,-0.393518519,0,0,0,,0,126,126,371,1,
,,,,,,,,,,,,,,,,,,5f1487c186fcde504cfd70d7,2020-08-10_18h08.52.466,lexical_decision_task_MP,2020.1.3,Win32,60,m,1,,,,,,,,0.66147,1,,,,,,232,WORD,"ID",33,inject,INJECT,m,0.66147,,,,,,-0.030555556,-0.393518519,0,0,0,,0,127,127,51,1,
,,,,,,,,,,,,,,,,,,5f1487c186fcde504cfd70d7,2020-08-10_18h08.52.466,lexical_decision_task_MP,2020.1.3,Win32,60,m,1,,,,,,,,0.566835,1,,,,,,206,WORD,"ID",33,tailor,TAILOR,m,0.566835,,,,,,-0.030555556,-0.393518519,0,0,0,,0,128,128,25,1,
,,,,,,,,,,,,,,,,,,5f1487c186fcde504cfd70d7,2020-08-10_18h08.52.466,lexical_decision_task_MP,2020.1.3,Win32,60,m,1,,,,,,,,0.61701,1,,,,,,225,WORD,"ID",33,vulgar,VULGAR,m,0.61701,,,,,,-0.030555556,-0.393518519,0,0,0,,0,129,129,44,1,
,,,,,,,,,,,,,,,,,,5f1487c186fcde504cfd70d7,2020-08-10_18h08.52.466,lexical_decision_task_MP,2020.1.3,Win32,60,m,1,,,,,,,,0.503065,1,,,,,,127,WORD,UN,50,senior,CASTLE,m,0.503065,,,,,,-0.030555556,-0.393518519,0,0,0,,0,130,130,186,1,
,,,,,,,,,,,,,,,,,,5f1487c186fcde504cfd70d7,2020-08-10_18h08.52.466,lexical_decision_task_MP,2020.1.3,Win32,60,m,1,,,,,,,,0.493215,1,,,,,,90,WORD,UN,33,expand,RELISH,m,0.493215,,,,,,-0.030555556,-0.393518519,0,0,0,,0,131,131,149,1,
,,,,,,,,,,,,,,,,,,5f1487c186fcde504cfd70d7,2020-08-10_18h08.52.466,lexical_decision_task_MP,2020.1.3,Win32,60,z,1,,,,,,,,0.513685,1,,,,,,418,NW,UN,50,slount,SUIDLE,z,0.513685,,,,,,-0.030555556,-0.393518519,0,0,0,,0,132,132,477,1,
,,,,,,,,,,,,,,,,,,5f1487c186fcde504cfd70d7,2020-08-10_18h08.52.466,lexical_decision_task_MP,2020.1.3,Win32,60,z,1,,,,,,,,0.486605,1,,,,,,246,NW,"ID",50,piaton,PIATON,z,0.486605,,,,,,-0.030555556,-0.393518519,0,0,0,,0,133,133,305,1,
,,,,,,,,,,,,,,,,,,5f1487c186fcde504cfd70d7,2020-08-10_18h08.52.466,lexical_decision_task_MP,2020.1.3,Win32,60,z,1,,,,,,,,0.48715,1,,,,,,467,NW,"ID",33,gorbie,GORBIE,z,0.48715,,,,,,-0.030555556,-0.393518519,0,0,0,,0,134,134,286,1,
,,,,,,,,,,,,,,,,,,5f1487c186fcde504cfd70d7,2020-08-10_18h08.52.466,lexical_decision_task_MP,2020.1.3,Win32,60,z,0,,,,,,,,0.483695,0,,,,,,160,WORD,UN,50,pastor,VIOLET,m,0.483695,,,,,,-0.030555556,-0.393518519,0,0,0,,0,135,135,219,1,
,,,,,,,,,,,,,,,,,,5f1487c186fcde504cfd70d7,2020-08-10_18h08.52.466,lexical_decision_task_MP,2020.1.3,Win32,60,z,1,,,,,,,,0.60765,1,,,,,,299,NW,"ID",50,sturch,STURCH,z,0.60765,,,,,,-0.030555556,-0.393518519,0,0,0,,0,136,136,358,1,
,,,,,,,,,,,,,,,,,,5f1487c186fcde504cfd70d7,2020-08-10_18h08.52.466,lexical_decision_task_MP,2020.1.3,Win32,60,m,1,,,,,,,,0.591615,1,,,,,,93,WORD,UN,33,travel,PUBLIC,m,0.591615,,,,,,-0.030555556,-0.393518519,0,0,0,,0,137,137,152,1,
,,,,,,,,,,,,,,,,,,5f1487c186fcde504cfd70d7,2020-08-10_18h08.52.466,lexical_decision_task_MP,2020.1.3,Win32,60,m,1,,,,,,,,0.2746,1,,,,,,110,WORD,UN,33,induce,POLITE,m,0.2746,,,,,,-0.030555556,-0.393518519,0,0,0,,0,138,138,169,1,
,,,,,,,,,,,,,,,,,,5f1487c186fcde504cfd70d7,2020-08-10_18h08.52.466,lexical_decision_task_MP,2020.1.3,Win32,60,z,0,,,,,,,,0.273925,0,,,,,,96,WORD,UN,33,client,IGNORE,m,0.273925,,,,,,-0.030555556,-0.393518519,0,0,0,,0,139,139,155,1,
,,,,,,,,,,,,,,,,,,5f1487c186fcde504cfd70d7,2020-08-10_18h08.52.466,lexical_decision_task_MP,2020.1.3,Win32,60,z,0,,,,,,,,0.479605,0,,,,,,154,WORD,UN,50,lizard,AUTHOR,m,0.479605,,,,,,-0.030555556,-0.393518519,0,0,0,,0,140,140,213,1,
,,,,,,,,,,,,,,,,,,5f1487c186fcde504cfd70d7,2020-08-10_18h08.52.466,lexical_decision_task_MP,2020.1.3,Win32,60,m,0,,,,,,,,0.52796,0,,,,,,404,NW,UN,50,flumni,CLUIRM,z,0.52796,,,,,,-0.030555556,-0.393518519,0,0,0,,0,141,141,463,1,
,,,,,,,,,,,,,,,,,,5f1487c186fcde504cfd70d7,2020-08-10_18h08.52.466,lexical_decision_task_MP,2020.1.3,Win32,60,z,1,,,,,,,,0.631595,1,,,,,,251,NW,"ID",50,lupict,LUPICT,z,0.631595,,,,,,-0.030555556,-0.393518519,0,0,0,,0,142,142,310,1,
,,,,,,,,,,,,,,,,,,5f1487c186fcde504cfd70d7,2020-08-10_18h08.52.466,lexical_decision_task_MP,2020.1.3,Win32,60,z,1,,,,,,,,0.68078,1,,,,,,439,NW,"ID",33,limpor,LIMPOR,z,0.68078,,,,,,-0.030555556,-0.393518519,0,0,0,,0,143,143,258,1,
,,,,,,,,,,,,,,,,,,5f1487c186fcde504cfd70d7,2020-08-10_18h08.52.466,lexical_decision_task_MP,2020.1.3,Win32,60,z,1,,,,,,,,0.502935,1,,,,,,347,NW,UN,33,dumple,KERIFT,z,0.502935,,,,,,-0.030555556,-0.393518519,0,0,0,,0,144,144,406,1,
,,,,,,,,,,,,,,,,,,5f1487c186fcde504cfd70d7,2020-08-10_18h08.52.466,lexical_decision_task_MP,2020.1.3,Win32,60,m,1,,,,,,,,0.63539,1,,,,,,176,WORD,UN,50,advent,STRIFE,m,0.63539,,,,,,-0.030555556,-0.393518519,0,0,0,,0,145,145,235,1,
,,,,,,,,,,,,,,,,,,5f1487c186fcde504cfd70d7,2020-08-10_18h08.52.466,lexical_decision_task_MP,2020.1.3,Win32,60,m,1,,,,,,,,0.506375,1,,,,,,143,WORD,UN,50,sponge,REASON,m,0.506375,,,,,,-0.030555556,-0.393518519,0,0,0,,0,146,146,202,1,
,,,,,,,,,,,,,,,,,,5f1487c186fcde504cfd70d7,2020-08-10_18h08.52.466,lexical_decision_task_MP,2020.1.3,Win32,60,z,1,,,,,,,,0.52835,1,,,,,,339,NW,UN,33,fiatch,FACHOW,z,0.52835,,,,,,-0.030555556,-0.393518519,0,0,0,,0,147,147,398,1,
,,,,,,,,,,,,,,,,,,5f1487c186fcde504cfd70d7,2020-08-10_18h08.52.466,lexical_decision_task_MP,2020.1.3,Win32,60,m,1,,,,,,,,0.50892,1,,,,,,87,WORD,UN,33,sprawl,FILTER,m,0.50892,,,,,,-0.030555556,-0.393518519,0,0,0,,0,148,148,146,1,
,,,,,,,,,,,,,,,,,,5f1487c186fcde504cfd70d7,2020-08-10_18h08.52.466,lexical_decision_task_MP,2020.1.3,Win32,60,m,1,,,,,,,,0.416615,1,,,,,,9,WORD,"ID",50,hustle,HUSTLE,m,0.416615,,,,,,-0.030555556,-0.393518519,0,0,0,,0,149,149,68,1,
,,,,,,,,,,,,,,,,,,5f1487c186fcde504cfd70d7,2020-08-10_18h08.52.466,lexical_decision_task_MP,2020.1.3,Win32,60,m,0,,,,,,,,0.58519,0,,,,,,427,NW,"ID",33,schind,SCHIND,z,0.58519,,,,,,-0.030555556,-0.393518519,0,0,0,,0,150,150,246,1,
,,,,,,,,,,,,,,,,,,5f1487c186fcde504cfd70d7,2020-08-10_18h08.52.466,lexical_decision_task_MP,2020.1.3,Win32,60,z,1,,,,,,,,0.62039,1,,,,,,451,NW,"ID",33,cainky,CAINKY,z,0.62039,,,,,,-0.030555556,-0.393518519,0,0,0,,0,151,151,270,1,
,,,,,,,,,,,,,,,,,,5f1487c186fcde504cfd70d7,2020-08-10_18h08.52.466,lexical_decision_task_MP,2020.1.3,Win32,60,z,1,,,,,,,,0.60385,1,,,,,,276,NW,"ID",50,yarmon,YARMON,z,0.60385,,,,,,-0.030555556,-0.393518519,0,0,0,,0,152,152,335,1,
,,,,,,,,,,,,,,,,,,5f1487c186fcde504cfd70d7,2020-08-10_18h08.52.466,lexical_decision_task_MP,2020.1.3,Win32,60,z,1,,,,,,,,0.653455,1,,,,,,442,NW,"ID",33,aboune,ABOUNE,z,0.653455,,,,,,-0.030555556,-0.393518519,0,0,0,,0,153,153,261,1,
,,,,,,,,,,,,,,,,,,5f1487c186fcde504cfd70d7,2020-08-10_18h08.52.466,lexical_decision_task_MP,2020.1.3,Win32,60,z,0,,,,,,,,0.300685,0,,,,,,230,WORD,"ID",33,fringe,FRINGE,m,0.300685,,,,,,-0.030555556,-0.393518519,0,0,0,,0,154,154,49,1,
,,,,,,,,,,,,,,,,,,5f1487c186fcde504cfd70d7,2020-08-10_18h08.52.466,lexical_decision_task_MP,2020.1.3,Win32,60,m,1,,,,,,,,0.586235,1,,,,,,112,WORD,UN,33,chorus,BREATH,m,0.586235,,,,,,-0.030555556,-0.393518519,0,0,0,,0,155,155,171,1,
,,,,,,,,,,,,,,,,,,5f1487c186fcde504cfd70d7,2020-08-10_18h08.52.466,lexical_decision_task_MP,2020.1.3,Win32,60,z,0,,,,,,,,0.524175,0,,,,,,66,WORD,UN,33,policy,GOSPEL,m,0.524175,,,,,,-0.030555556,-0.393518519,0,0,0,,0,156,156,125,1,
,,,,,,,,,,,,,,,,,,5f1487c186fcde504cfd70d7,2020-08-10_18h08.52.466,lexical_decision_task_MP,2020.1.3,Win32,60,z,1,,,,,,,,0.592925,1,,,,,,357,NW,UN,33,fleack,DERAIN,z,0.592925,,,,,,-0.030555556,-0.393518519,0,0,0,,0,157,157,416,1,
,,,,,,,,,,,,,,,,,,5f1487c186fcde504cfd70d7,2020-08-10_18h08.52.466,lexical_decision_task_MP,2020.1.3,Win32,60,z,1,,,,,,,,0.545525,1,,,,,,408,NW,UN,50,elopia,HURNIA,z,0.545525,,,,,,-0.030555556,-0.393518519,0,0,0,,0,158,158,467,1,
,,,,,,,,,,,,,,,,,,5f1487c186fcde504cfd70d7,2020-08-10_18h08.52.466,lexical_decision_task_MP,2020.1.3,Win32,60,m,1,,,,,,,,0.51683,1,,,,,,165,WORD,UN,50,starch,INVEST,m,0.51683,,,,,,-0.030555556,-0.393518519,0,0,0,,0,159,159,224,1,
,,,,,,,,,,,,,,,,,,5f1487c186fcde504cfd70d7,2020-08-10_18h08.52.466,lexical_decision_task_MP,2020.1.3,Win32,60,m,1,,,,,,,,0.50538,1,,,,,,158,WORD,UN,50,detail,ISLAND,m,0.50538,,,,,,-0.030555556,-0.393518519,0,0,0,,0,160,160,217,1,
,,,,,,,,,,,,,,,,,,5f1487c186fcde504cfd70d7,2020-08-10_18h08.52.466,lexical_decision_task_MP,2020.1.3,Win32,60,z,1,,,,,,,,0.69467,1,,,,,,337,NW,UN,33,wreash,REJOLS,z,0.69467,,,,,,-0.030555556,-0.393518519,0,0,0,,0,161,161,396,1,
,,,,,,,,,,,,,,,,,,5f1487c186fcde504cfd70d7,2020-08-10_18h08.52.466,lexical_decision_task_MP,2020.1.3,Win32,60,m,1,,,,,,,,0.597035,1,,,,,,79,WORD,UN,33,family,THEORY,m,0.597035,,,,,,-0.030555556,-0.393518519,0,0,0,,0,162,162,138,1,
,,,,,,,,,,,,,,,,,,5f1487c186fcde504cfd70d7,2020-08-10_18h08.52.466,lexical_decision_task_MP,2020.1.3,Win32,60,m,0,,,,,,,,0.807075,0,,,,,,253,NW,"ID",50,resait,RESAIT,z,0.807075,,,,,,-0.030555556,-0.393518519,0,0,0,,0,163,163,312,1,
,,,,,,,,,,,,,,,,,,5f1487c186fcde504cfd70d7,2020-08-10_18h08.52.466,lexical_decision_task_MP,2020.1.3,Win32,60,m,1,,,,,,,,0.6386,1,,,,,,141,WORD,UN,50,spruce,ORPHAN,m,0.6386,,,,,,-0.030555556,-0.393518519,0,0,0,,0,164,164,200,1,
,,,,,,,,,,,,,,,,,,5f1487c186fcde504cfd70d7,2020-08-10_18h08.52.466,lexical_decision_task_MP,2020.1.3,Win32,60,m,1,,,,,,,,0.57388,1,,,,,,12,WORD,"ID",50,orange,ORANGE,m,0.57388,,,,,,-0.030555556,-0.393518519,0,0,0,,0,165,165,71,1,
,,,,,,,,,,,,,,,,,,5f1487c186fcde504cfd70d7,2020-08-10_18h08.52.466,lexical_decision_task_MP,2020.1.3,Win32,60,m,0,,,,,,,,0.672275,0,,,,,,401,NW,UN,50,syntic,MUSTIL,z,0.672275,,,,,,-0.030555556,-0.393518519,0,0,0,,0,166,166,460,1,
,,,,,,,,,,,,,,,,,,5f1487c186fcde504cfd70d7,2020-08-10_18h08.52.466,lexical_decision_task_MP,2020.1.3,Win32,60,m,1,,,,,,,,0.657525,1,,,,,,177,WORD,UN,50,inform,ADVENT,m,0.657525,,,,,,-0.030555556,-0.393518519,0,0,0,,0,167,167,236,1,
,,,,,,,,,,,,,,,,,,5f1487c186fcde504cfd70d7,2020-08-10_18h08.52.466,lexical_decision_task_MP,2020.1.3,Win32,60,z,1,,,,,,,,1.24396,1,,,,,,281,NW,"ID",50,melaty,MELATY,z,1.24396,,,,,,-0.030555556,-0.393518519,0,0,0,,0,168,168,340,1,
,,,,,,,,,,,,,,,,,,5f1487c186fcde504cfd70d7,2020-08-10_18h08.52.466,lexical_decision_task_MP,2020.1.3,Win32,60,m,1,,,,,,,,0.73998,1,,,,,,34,WORD,"ID",50,jungle,JUNGLE,m,0.73998,,,,,,-0.030555556,-0.393518519,0,0,0,,0,169,169,93,1,
,,,,,,,,,,,,,,,,,,5f1487c186fcde504cfd70d7,2020-08-10_18h08.52.466,lexical_decision_task_MP,2020.1.3,Win32,60,m,1,,,,,,,,0.59198,1,,,,,,68,WORD,UN,33,plenty,FUMBLE,m,0.59198,,,,,,-0.030555556,-0.393518519,0,0,0,,0,170,170,127,1,
,,,,,,,,,,,,,,,,,,5f1487c186fcde504cfd70d7,2020-08-10_18h08.52.466,lexical_decision_task_MP,2020.1.3,Win32,60,m,1,,,,,,,,0.344935,1,,,,,,198,WORD,"ID",33,wicked,WICKED,m,0.344935,,,,,,-0.030555556,-0.393518519,0,0,0,,0,171,171,17,1,
,,,,,,,,,,,,,,,,,,5f1487c186fcde504cfd70d7,2020-08-10_18h08.52.466,lexical_decision_task_MP,2020.1.3,Win32,60,m,1,,,,,,,,0.341545,1,,,,,,224,WORD,"ID",33,period,PERIOD,m,0.341545,,,,,,-0.030555556,-0.393518519,0,0,0,,0,172,172,43,1,
,,,,,,,,,,,,,,,,,,5f1487c186fcde504cfd70d7,2020-08-10_18h08.52.466,lexical_decision_task_MP,2020.1.3,Win32,60,m,1,,,,,,,,0.449325,1,,,,,,47,WORD,"ID",50,income,INCOME,m,0.449325,,,,,,-0.030555556,-0.393518519,0,0,0,,0,173,173,106,1,
,,,,,,,,,,,,,,,,,,5f1487c186fcde504cfd70d7,2020-08-10_18h08.52.466,lexical_decision_task_MP,2020.1.3,Win32,60,m,1,,,,,,,,0.53515,1,,,,,,164,WORD,UN,50,invest,MARKET,m,0.53515,,,,,,-0.030555556,-0.393518519,0,0,0,,0,174,174,223,1,
,,,,,,,,,,,,,,,,,,5f1487c186fcde504cfd70d7,2020-08-10_18h08.52.466,lexical_decision_task_MP,2020.1.3,Win32,60,m,1,,,,,,,,0.618925,1,,,,,,82,WORD,UN,33,result,STIGMA,m,0.618925,,,,,,-0.030555556,-0.393518519,0,0,0,,0,175,175,141,1,
,,,,,,,,,,,,,,,,,,5f1487c186fcde504cfd70d7,2020-08-10_18h08.52.466,lexical_decision_task_MP,2020.1.3,Win32,60,m,1,,,,,,,,0.41047,1,,,,,,157,WORD,UN,50,island,DRAGON,m,0.41047,,,,,,-0.030555556,-0.393518519,0,0,0,,0,176,176,216,1,
,,,,,,,,,,,,,,,,,,5f1487c186fcde504cfd70d7,2020-08-10_18h08.52.466,lexical_decision_task_MP,2020.1.3,Win32,60,m,0,,,,,,,,0.45208,0,,,,,,285,NW,"ID",50,prudge,PRUDGE,z,0.45208,,,,,,-0.030555556,-0.393518519,0,0,0,,0,177,177,344,1,
,,,,,,,,,,,,,,,,,,5f1487c186fcde504cfd70d7,2020-08-10_18h08.52.466,lexical_decision_task_MP,2020.1.3,Win32,60,m,0,,,,,,,,0.410135,0,,,,,,255,NW,"ID",50,apight,APIGHT,z,0.410135,,,,,,-0.030555556,-0.393518519,0,0,0,,0,178,178,314,1,
,,,,,,,,,,,,,,,,,,5f1487c186fcde504cfd70d7,2020-08-10_18h08.52.466,lexical_decision_task_MP,2020.1.3,Win32,60,m,1,,,,,,,,0.59564,1,,,,,,240,WORD,"ID",33,forest,FOREST,m,0.59564,,,,,,-0.030555556,-0.393518519,0,0,0,,0,179,179,59,1,
,,,,,,,,,,,,,,,,,,5f1487c186fcde504cfd70d7,2020-08-10_18h08.52.466,lexical_decision_task_MP,2020.1.3,Win32,60,z,1,,,,,,,,0.757385,1,,,,,,456,NW,"ID",33,broget,BROGET,z,0.757385,,,,,,-0.030555556,-0.393518519,0,0,0,,0,180,180,275,1,
,,,,,,,,,,,,,,,,,,5f1487c186fcde504cfd70d7,2020-08-10_18h08.52.466,lexical_decision_task_MP,2020.1.3,Win32,60,m,1,,,,,,,,0.57654,1,,,,,,45,WORD,"ID",50,clergy,CLERGY,m,0.57654,,,,,,-0.030555556,-0.393518519,0,0,0,,0,181,181,104,1,
,,,,,,,,,,,,,,,,,,5f1487c186fcde504cfd70d7,2020-08-10_18h08.52.466,lexical_decision_task_MP,2020.1.3,Win32,60,z,1,,,,,,,,0.603425,1,,,,,,457,NW,"ID",33,wanigh,WANIGH,z,0.603425,,,,,,-0.030555556,-0.393518519,0,0,0,,0,182,182,276,1,
,,,,,,,,,,,,,,,,,,5f1487c186fcde504cfd70d7,2020-08-10_18h08.52.466,lexical_decision_task_MP,2020.1.3,Win32,60,z,1,,,,,,,,0.766045,1,,,,,,273,NW,"ID",50,sortel,SORTEL,z,0.766045,,,,,,-0.030555556,-0.393518519,0,0,0,,0,183,183,332,1,
,,,,,,,,,,,,,,,,,,5f1487c186fcde504cfd70d7,2020-08-10_18h08.52.466,lexical_decision_task_MP,2020.1.3,Win32,60,m,1,,,,,,,,0.437895,1,,,,,,39,WORD,"ID",50,insect,INSECT,m,0.437895,,,,,,-0.030555556,-0.393518519,0,0,0,,0,184,184,98,1,
,,,,,,,,,,,,,,,,,,5f1487c186fcde504cfd70d7,2020-08-10_18h08.52.466,lexical_decision_task_MP,2020.1.3,Win32,60,m,1,,,,,,,,0.58998,1,,,,,,203,WORD,"ID",33,phrase,PHRASE,m,0.58998,,,,,,-0.030555556,-0.393518519,0,0,0,,0,185,185,22,1,
,,,,,,,,,,,,,,,,,,5f1487c186fcde504cfd70d7,2020-08-10_18h08.52.466,lexical_decision_task_MP,2020.1.3,Win32,60,m,1,,,,,,,,0.623425,1,,,,,,217,WORD,"ID",33,liquor,LIQUOR,m,0.623425,,,,,,-0.030555556,-0.393518519,0,0,0,,0,186,186,36,1,
,,,,,,,,,,,,,,,,,,5f1487c186fcde504cfd70d7,2020-08-10_18h08.52.466,lexical_decision_task_MP,2020.1.3,Win32,60,m,1,,,,,,,,0.575705,1,,,,,,23,WORD,"ID",50,wealth,WEALTH,m,0.575705,,,,,,-0.030555556,-0.393518519,0,0,0,,0,187,187,82,1,
,,,,,,,,,,,,,,,,,,5f1487c186fcde504cfd70d7,2020-08-10_18h08.52.466,lexical_decision_task_MP,2020.1.3,Win32,60,m,1,,,,,,,,0.561975,1,,,,,,111,WORD,UN,33,breath,INDUCE,m,0.561975,,,,,,-0.030555556,-0.393518519,0,0,0,,0,188,188,170,1,
,,,,,,,,,,,,,,,,,,5f1487c186fcde504cfd70d7,2020-08-10_18h08.52.466,lexical_decision_task_MP,2020.1.3,Win32,60,m,0,,,,,,,,0.662025,0,,,,,,424,NW,"ID",33,praile,PRAILE,z,0.662025,,,,,,-0.030555556,-0.393518519,0,0,0,,0,189,189,243,1,
,,,,,,,,,,,,,,,,,,5f1487c186fcde504cfd70d7,2020-08-10_18h08.52.466,lexical_decision_task_MP,2020.1.3,Win32,60,m,0,,,,,,,,0.78413,0,,,,,,429,NW,"ID",33,funtle,FUNTLE,z,0.78413,,,,,,-0.030555556,-0.393518519,0,0,0,,0,190,190,248,1,
,,,,,,,,,,,,,,,,,,5f1487c186fcde504cfd70d7,2020-08-10_18h08.52.466,lexical_decision_task_MP,2020.1.3,Win32,60,m,1,,,,,,,,0.383415,1,,,,,,33,WORD,"ID",50,butler,BUTLER,m,0.383415,,,,,,-0.030555556,-0.393518519,0,0,0,,0,191,191,92,1,
,,,,,,,,,,,,,,,,,,5f1487c186fcde504cfd70d7,2020-08-10_18h08.52.466,lexical_decision_task_MP,2020.1.3,Win32,60,m,1,,,,,,,,0.4787,1,,,,,,57,WORD,"ID",50,change,CHANGE,m,0.4787,,,,,,-0.030555556,-0.393518519,0,0,0,,0,192,192,116,1,
,,,,,,,,,,,,,,,,,,5f1487c186fcde504cfd70d7,2020-08-10_18h08.52.466,lexical_decision_task_MP,2020.1.3,Win32,60,m,1,,,,,,,,0.421445,1,,,,,,48,WORD,"ID",50,walnut,WALNUT,m,0.421445,,,,,,-0.030555556,-0.393518519,0,0,0,,0,193,193,107,1,
,,,,,,,,,,,,,,,,,,5f1487c186fcde504cfd70d7,2020-08-10_18h08.52.466,lexical_decision_task_MP,2020.1.3,Win32,60,m,1,,,,,,,,0.558645,1,,,,,,236,WORD,"ID",33,pirate,PIRATE,m,0.558645,,,,,,-0.030555556,-0.393518519,0,0,0,,0,194,194,55,1,
,,,,,,,,,,,,,,,,,,5f1487c186fcde504cfd70d7,2020-08-10_18h08.52.466,lexical_decision_task_MP,2020.1.3,Win32,60,z,1,,,,,,,,0.673735,1,,,,,,242,NW,"ID",50,unwert,UNWERT,z,0.673735,,,,,,-0.030555556,-0.393518519,0,0,0,,0,195,195,301,1,
,,,,,,,,,,,,,,,,,,5f1487c186fcde504cfd70d7,2020-08-10_18h08.52.466,lexical_decision_task_MP,2020.1.3,Win32,60,z,1,,,,,,,,0.528165,1,,,,,,470,NW,"ID",33,crudio,CRUDIO,z,0.528165,,,,,,-0.030555556,-0.393518519,0,0,0,,0,196,196,289,1,
,,,,,,,,,,,,,,,,,,5f1487c186fcde504cfd70d7,2020-08-10_18h08.52.466,lexical_decision_task_MP,2020.1.3,Win32,60,z,1,,,,,,,,0.692445,1,,,,,,476,NW,"ID",33,josted,JOSTED,z,0.692445,,,,,,-0.030555556,-0.393518519,0,0,0,,0,197,197,295,1,
,,,,,,,,,,,,,,,,,,5f1487c186fcde504cfd70d7,2020-08-10_18h08.52.466,lexical_decision_task_MP,2020.1.3,Win32,60,z,1,,,,,,,,0.687165,1,,,,,,394,NW,UN,50,colury,SPAQUX,z,0.687165,,,,,,-0.030555556,-0.393518519,0,0,0,,0,198,198,453,1,
,,,,,,,,,,,,,,,,,,5f1487c186fcde504cfd70d7,2020-08-10_18h08.52.466,lexical_decision_task_MP,2020.1.3,Win32,60,m,0,,,,,,,,0.52768,0,,,,,,452,NW,"ID",33,surden,SURDEN,z,0.52768,,,,,,-0.030555556,-0.393518519,0,0,0,,0,199,199,271,1,
,,,,,,,,,,,,,,,,,,5f1487c186fcde504cfd70d7,2020-08-10_18h08.52.466,lexical_decision_task_MP,2020.1.3,Win32,60,m,1,,,,,,,,0.53243,1,,,,,,204,WORD,"ID",33,burden,BURDEN,m,0.53243,,,,,,-0.030555556,-0.393518519,0,0,0,,0,200,200,23,1,
,,,,,,,,,,,,,,,,,,5f1487c186fcde504cfd70d7,2020-08-10_18h08.52.466,lexical_decision_task_MP,2020.1.3,Win32,60,m,0,,,,,,,,0.47035,0,,,,,,293,NW,"ID",50,swance,SWANCE,z,0.47035,,,,,,-0.030555556,-0.393518519,0,0,0,,0,201,201,352,1,
,,,,,,,,,,,,,,,,,,5f1487c186fcde504cfd70d7,2020-08-10_18h08.52.466,lexical_decision_task_MP,2020.1.3,Win32,60,m,1,,,,,,,,0.462005,1,,,,,,80,WORD,UN,33,friend,FAMILY,m,0.462005,,,,,,-0.030555556,-0.393518519,0,0,0,,0,202,202,139,1,
,,,,,,,,,,,,,,,,,,5f1487c186fcde504cfd70d7,2020-08-10_18h08.52.466,lexical_decision_task_MP,2020.1.3,Win32,60,m,0,,,,,,,,0.509005,0,,,,,,325,NW,UN,33,iguade,THRUSE,z,0.509005,,,,,,-0.030555556,-0.393518519,0,0,0,,0,203,203,384,1,
,,,,,,,,,,,,,,,,,,5f1487c186fcde504cfd70d7,2020-08-10_18h08.52.466,lexical_decision_task_MP,2020.1.3,Win32,60,m,1,,,,,,,,0.35414,1,,,,,,148,WORD,UN,50,invade,CUSTOM,m,0.35414,,,,,,-0.030555556,-0.393518519,0,0,0,,0,204,204,207,1,
,,,,,,,,,,,,,,,,,,5f1487c186fcde504cfd70d7,2020-08-10_18h08.52.466,lexical_decision_task_MP,2020.1.3,Win32,60,m,0,,,,,,,,0.397365,0,,,,,,460,NW,"ID",33,mingar,MINGAR,z,0.397365,,,,,,-0.030555556,-0.393518519,0,0,0,,0,205,205,279,1,
,,,,,,,,,,,,,,,,,,5f1487c186fcde504cfd70d7,2020-08-10_18h08.52.466,lexical_decision_task_MP,2020.1.3,Win32,60,m,1,,,,,,,,0.40672,1,,,,,,184,WORD,"ID",33,sleazy,SLEAZY,m,0.40672,,,,,,-0.030555556,-0.393518519,0,0,0,,0,206,206,3,1,
,,,,,,,,,,,,,,,,,,5f1487c186fcde504cfd70d7,2020-08-10_18h08.52.466,lexical_decision_task_MP,2020.1.3,Win32,60,m,0,,,,,,,,0.448705,0,,,,,,243,NW,"ID",50,musied,MUSIED,z,0.448705,,,,,,-0.030555556,-0.393518519,0,0,0,,0,207,207,302,1,
,,,,,,,,,,,,,,,,,,5f1487c186fcde504cfd70d7,2020-08-10_18h08.52.466,lexical_decision_task_MP,2020.1.3,Win32,60,m,1,,,,,,,,0.43786,1,,,,,,38,WORD,"ID",50,powder,POWDER,m,0.43786,,,,,,-0.030555556,-0.393518519,0,0,0,,0,208,208,97,1,
,,,,,,,,,,,,,,,,,,5f1487c186fcde504cfd70d7,2020-08-10_18h08.52.466,lexical_decision_task_MP,2020.1.3,Win32,60,m,1,,,,,,,,0.76635,1,,,,,,4,WORD,"ID",50,trench,TRENCH,m,0.76635,,,,,,-0.030555556,-0.393518519,0,0,0,,0,209,209,63,1,
,,,,,,,,,,,,,,,,,,5f1487c186fcde504cfd70d7,2020-08-10_18h08.52.466,lexical_decision_task_MP,2020.1.3,Win32,60,m,1,,,,,,,,0.534785,1,,,,,,49,WORD,"ID",50,survey,SURVEY,m,0.534785,,,,,,-0.030555556,-0.393518519,0,0,0,,0,210,210,108,1,
,,,,,,,,,,,,,,,,,,5f1487c186fcde504cfd70d7,2020-08-10_18h08.52.466,lexical_decision_task_MP,2020.1.3,Win32,60,m,1,,,,,,,,0.555815,1,,,,,,116,WORD,UN,33,branch,TUMBLE,m,0.555815,,,,,,-0.030555556,-0.393518519,0,0,0,,0,211,211,175,1,
,,,,,,,,,,,,,,,,,,5f1487c186fcde504cfd70d7,2020-08-10_18h08.52.466,lexical_decision_task_MP,2020.1.3,Win32,60,m,1,,,,,,,,0.604695,1,,,,,,128,WORD,UN,50,marvel,SENIOR,m,0.604695,,,,,,-0.030555556,-0.393518519,0,0,0,,0,212,212,187,1,
,,,,,,,,,,,,,,,,,,5f1487c186fcde504cfd70d7,2020-08-10_18h08.52.466,lexical_decision_task_MP,2020.1.3,Win32,60,z,1,,,,,,,,0.815745,1,,,,,,443,NW,"ID",33,dorsex,DORSEX,z,0.815745,,,,,,-0.030555556,-0.393518519,0,0,0,,0,213,213,262,1,
,,,,,,,,,,,,,,,,,,5f1487c186fcde504cfd70d7,2020-08-10_18h08.52.466,lexical_decision_task_MP,2020.1.3,Win32,60,z,1,,,,,,,,1.250305,1,,,,,,402,NW,UN,50,bruats,SYNTIC,z,1.250305,,,,,,-0.030555556,-0.393518519,0,0,0,,0,214,214,461,1,
,,,,,,,,,,,,,,,,,,5f1487c186fcde504cfd70d7,2020-08-10_18h08.52.466,lexical_decision_task_MP,2020.1.3,Win32,60,m,0,,,,,,,,0.617125,0,,,,,,425,NW,"ID",33,frudge,FRUDGE,z,0.617125,,,,,,-0.030555556,-0.393518519,0,0,0,,0,215,215,244,1,
,,,,,,,,,,,,,,,,,,5f1487c186fcde504cfd70d7,2020-08-10_18h08.52.466,lexical_decision_task_MP,2020.1.3,Win32,60,m,1,,,,,,,,0.40629,1,,,,,,126,WORD,UN,50,castle,ENOUGH,m,0.40629,,,,,,-0.030555556,-0.393518519,0,0,0,,0,216,216,185,1,
,,,,,,,,,,,,,,,,,,5f1487c186fcde504cfd70d7,2020-08-10_18h08.52.466,lexical_decision_task_MP,2020.1.3,Win32,60,m,0,,,,,,,,0.511925,0,,,,,,407,NW,UN,50,hurnia,SUIVER,z,0.511925,,,,,,-0.030555556,-0.393518519,0,0,0,,0,217,217,466,1,
,,,,,,,,,,,,,,,,,,5f1487c186fcde504cfd70d7,2020-08-10_18h08.52.466,lexical_decision_task_MP,2020.1.3,Win32,60,m,0,,,,,,,,0.50153,0,,,,,,356,NW,UN,33,derain,OTHNIS,z,0.50153,,,,,,-0.030555556,-0.393518519,0,0,0,,0,218,218,415,1,
,,,,,,,,,,,,,,,,,,5f1487c186fcde504cfd70d7,2020-08-10_18h08.52.466,lexical_decision_task_MP,2020.1.3,Win32,60,m,1,,,,,,,,0.55395,1,,,,,,83,WORD,UN,33,mortal,RESULT,m,0.55395,,,,,,-0.030555556,-0.393518519,0,0,0,,0,219,219,142,1,
,,,,,,,,,,,,,,,,,,5f1487c186fcde504cfd70d7,2020-08-10_18h08.52.466,lexical_decision_task_MP,2020.1.3,Win32,60,m,0,,,,,,,,0.493355,0,,,,,,437,NW,"ID",33,snapel,SNAPEL,z,0.493355,,,,,,-0.030555556,-0.393518519,0,0,0,,0,220,220,256,1,
,,,,,,,,,,,,,,,,,,5f1487c186fcde504cfd70d7,2020-08-10_18h08.52.466,lexical_decision_task_MP,2020.1.3,Win32,60,m,1,,,,,,,,0.533095,1,,,,,,215,WORD,"ID",33,phobia,PHOBIA,m,0.533095,,,,,,-0.030555556,-0.393518519,0,0,0,,0,221,221,34,1,
,,,,,,,,,,,,,,,,,,5f1487c186fcde504cfd70d7,2020-08-10_18h08.52.466,lexical_decision_task_MP,2020.1.3,Win32,60,z,1,,,,,,,,0.96779,1,,,,,,441,NW,"ID",33,rastoe,RASTOE,z,0.96779,,,,,,-0.030555556,-0.393518519,0,0,0,,0,222,222,260,1,
,,,,,,,,,,,,,,,,,,5f1487c186fcde504cfd70d7,2020-08-10_18h08.52.466,lexical_decision_task_MP,2020.1.3,Win32,60,m,1,,,,,,,,0.474415,1,,,,,,35,WORD,"ID",50,socket,SOCKET,m,0.474415,,,,,,-0.030555556,-0.393518519,0,0,0,,0,223,223,94,1,
,,,,,,,,,,,,,,,,,,5f1487c186fcde504cfd70d7,2020-08-10_18h08.52.466,lexical_decision_task_MP,2020.1.3,Win32,60,m,1,,,,,,,,0.51872,1,,,,,,3,WORD,"ID",50,knight,KNIGHT,m,0.51872,,,,,,-0.030555556,-0.393518519,0,0,0,,0,224,224,62,1,
,,,,,,,,,,,,,,,,,,5f1487c186fcde504cfd70d7,2020-08-10_18h08.52.466,lexical_decision_task_MP,2020.1.3,Win32,60,m,1,,,,,,,,0.73372,1,,,,,,161,WORD,UN,50,candle,PASTOR,m,0.73372,,,,,,-0.030555556,-0.393518519,0,0,0,,0,225,225,220,1,
,,,,,,,,,,,,,,,,,,5f1487c186fcde504cfd70d7,2020-08-10_18h08.52.466,lexical_decision_task_MP,2020.1.3,Win32,60,z,1,,,,,,,,0.61718,1,,,,,,343,NW,UN,33,scrily,AIMOSY,z,0.61718,,,,,,-0.030555556,-0.393518519,0,0,0,,0,226,226,402,1,
,,,,,,,,,,,,,,,,,,5f1487c186fcde504cfd70d7,2020-08-10_18h08.52.466,lexical_decision_task_MP,2020.1.3,Win32,60,m,1,,,,,,,,0.440125,1,,,,,,5,WORD,"ID",50,plunge,PLUNGE,m,0.440125,,,,,,-0.030555556,-0.393518519,0,0,0,,0,227,227,64,1,
,,,,,,,,,,,,,,,,,,5f1487c186fcde504cfd70d7,2020-08-10_18h08.52.466,lexical_decision_task_MP,2020.1.3,Win32,60,m,0,,,,,,,,0.448905,0,,,,,,269,NW,"ID",50,orchet,ORCHET,z,0.448905,,,,,,-0.030555556,-0.393518519,0,0,0,,0,228,228,328,1,
,,,,,,,,,,,,,,,,,,5f1487c186fcde504cfd70d7,2020-08-10_18h08.52.466,lexical_decision_task_MP,2020.1.3,Win32,60,m,1,,,,,,,,0.37332,1,,,,,,29,WORD,"ID",50,sketch,SKETCH,m,0.37332,,,,,,-0.030555556,-0.393518519,0,0,0,,0,229,229,88,1,
,,,,,,,,,,,,,,,,,,5f1487c186fcde504cfd70d7,2020-08-10_18h08.52.466,lexical_decision_task_MP,2020.1.3,Win32,60,z,1,,,,,,,,0.734205,1,,,,,,250,NW,"ID",50,milted,MILTED,z,0.734205,,,,,,-0.030555556,-0.393518519,0,0,0,,0,230,230,309,1,
,,,,,,,,,,,,,,,,,,5f1487c186fcde504cfd70d7,2020-08-10_18h08.52.466,lexical_decision_task_MP,2020.1.3,Win32,60,z,1,,,,,,,,0.603505,1,,,,,,366,NW,UN,50,slique,TOSHEL,z,0.603505,,,,,,-0.030555556,-0.393518519,0,0,0,,0,231,231,425,1,
,,,,,,,,,,,,,,,,,,5f1487c186fcde504cfd70d7,2020-08-10_18h08.52.466,lexical_decision_task_MP,2020.1.3,Win32,60,m,1,,,,,,,,0.52472,1,,,,,,73,WORD,UN,33,plaque,SOURCE,m,0.52472,,,,,,-0.030555556,-0.393518519,0,0,0,,0,232,232,132,1,
,,,,,,,,,,,,,,,,,,5f1487c186fcde504cfd70d7,2020-08-10_18h08.52.466,lexical_decision_task_MP,2020.1.3,Win32,60,m,1,,,,,,,,0.62508,1,,,,,,105,WORD,UN,33,ransom,NUMBER,m,0.62508,,,,,,-0.030555556,-0.393518519,0,0,0,,0,233,233,164,1,
,,,,,,,,,,,,,,,,,,5f1487c186fcde504cfd70d7,2020-08-10_18h08.52.466,lexical_decision_task_MP,2020.1.3,Win32,60,m,0,,,,,,,,0.48332,0,,,,,,261,NW,"ID",50,stunch,STUNCH,z,0.48332,,,,,,-0.030555556,-0.393518519,0,0,0,,0,234,234,320,1,
,,,,,,,,,,,,,,,,,,5f1487c186fcde504cfd70d7,2020-08-10_18h08.52.466,lexical_decision_task_MP,2020.1.3,Win32,60,m,1,,,,,,,,0.46925,1,,,,,,72,WORD,UN,33,source,BRIGHT,m,0.46925,,,,,,-0.030555556,-0.393518519,0,0,0,,0,235,235,131,1,
,,,,,,,,,,,,,,,,,,5f1487c186fcde504cfd70d7,2020-08-10_18h08.52.466,lexical_decision_task_MP,2020.1.3,Win32,60,z,1,,,,,,,,0.77202,1,,,,,,258,NW,"ID",50,poluth,POLUTH,z,0.77202,,,,,,-0.030555556,-0.393518519,0,0,0,,0,236,236,317,1,
,,,,,,,,,,,,,,,,,,5f1487c186fcde504cfd70d7,2020-08-10_18h08.52.466,lexical_decision_task_MP,2020.1.3,Win32,60,m,1,,,,,,,,0.65536,1,,,,,,213,WORD,"ID",33,squeal,SQUEAL,m,0.65536,,,,,,-0.030555556,-0.393518519,0,0,0,,0,237,237,32,1,
,,,,,,,,,,,,,,,,,,5f1487c186fcde504cfd70d7,2020-08-10_18h08.52.466,lexical_decision_task_MP,2020.1.3,Win32,60,m,1,,,,,,,,0.55906,1,,,,,,187,WORD,"ID",33,course,COURSE,m,0.55906,,,,,,-0.030555556,-0.393518519,0,0,0,,0,238,238,6,1,
,,,,,,,,,,,,,,,,,,5f1487c186fcde504cfd70d7,2020-08-10_18h08.52.466,lexical_decision_task_MP,2020.1.3,Win32,60,z,1,,,,,,,,0.883325,1,,,,,,342,NW,UN,33,aimosy,RANDOW,z,0.883325,,,,,,-0.030555556,-0.393518519,0,0,0,,0,239,239,401,1,
,,,,,,,,,,,,,,,,,,5f1487c186fcde504cfd70d7,2020-08-10_18h08.52.466,lexical_decision_task_MP,2020.1.3,Win32,60,m,1,,,,,,,,0.488045,1,,,,,,63,WORD,UN,33,throne,LAUNCH,m,0.488045,,,,,,-0.030555556,-0.393518519,0,0,0,,0,240,240,122,1,
,,,,,,,,,,,,,,,,,,5f1487c186fcde504cfd70d7,2020-08-10_18h08.52.466,lexical_decision_task_MP,2020.1.3,Win32,60,m,1,,,,,,,,0.63738,1,,,,,,28,WORD,"ID",50,comedy,COMEDY,m,0.63738,,,,,,-0.030555556,-0.393518519,1,0,0,,0,241,241,87,1,break_done_button
,,,,,,,,,,,,,,,,,,5f1487c186fcde504cfd70d7,2020-08-10_18h08.52.466,lexical_decision_task_MP,2020.1.3,Win32,60,m,0,,,,,,,,0.89362,0,,,,,,461,NW,"ID",33,justre,JUSTRE,z,0.89362,,,,,,-0.042592593,-0.40462963,0,0,0,,0,242,242,280,1,
,,,,,,,,,,,,,,,,,,5f1487c186fcde504cfd70d7,2020-08-10_18h08.52.466,lexical_decision_task_MP,2020.1.3,Win32,60,m,1,,,,,,,,0.899715,1,,,,,,142,WORD,UN,50,reason,SPRUCE,m,0.899715,,,,,,-0.042592593,-0.40462963,0,0,0,,0,243,243,201,1,
,,,,,,,,,,,,,,,,,,5f1487c186fcde504cfd70d7,2020-08-10_18h08.52.466,lexical_decision_task_MP,2020.1.3,Win32,60,z,1,,,,,,,,0.527905,1,,,,,,354,NW,UN,33,zingly,VIRLEX,z,0.527905,,,,,,-0.042592593,-0.40462963,0,0,0,,0,244,244,413,1,
,,,,,,,,,,,,,,,,,,5f1487c186fcde504cfd70d7,2020-08-10_18h08.52.466,lexical_decision_task_MP,2020.1.3,Win32,60,z,1,,,,,,,,0.437295,1,,,,,,446,NW,"ID",33,runamo,RUNAMO,z,0.437295,,,,,,-0.042592593,-0.40462963,0,0,0,,0,245,245,265,1,
,,,,,,,,,,,,,,,,,,5f1487c186fcde504cfd70d7,2020-08-10_18h08.52.466,lexical_decision_task_MP,2020.1.3,Win32,60,m,1,,,,,,,,0.525425,1,,,,,,75,WORD,UN,33,exotic,TROPHY,m,0.525425,,,,,,-0.042592593,-0.40462963,0,0,0,,0,246,246,134,1,
,,,,,,,,,,,,,,,,,,5f1487c186fcde504cfd70d7,2020-08-10_18h08.52.466,lexical_decision_task_MP,2020.1.3,Win32,60,z,1,,,,,,,,0.578105,1,,,,,,388,NW,UN,50,witmer,CRAGIN,z,0.578105,,,,,,-0.042592593,-0.40462963,0,0,0,,0,247,247,447,1,
,,,,,,,,,,,,,,,,,,5f1487c186fcde504cfd70d7,2020-08-10_18h08.52.466,lexical_decision_task_MP,2020.1.3,Win32,60,m,1,,,,,,,,0.53349,1,,,,,,195,WORD,"ID",33,resign,RESIGN,m,0.53349,,,,,,-0.042592593,-0.40462963,0,0,0,,0,248,248,14,1,
,,,,,,,,,,,,,,,,,,5f1487c186fcde504cfd70d7,2020-08-10_18h08.52.466,lexical_decision_task_MP,2020.1.3,Win32,60,m,0,,,,,,,,0.744055,0,,,,,,307,NW,UN,33,psetch,KIRAFE,z,0.744055,,,,,,-0.042592593,-0.40462963,0,0,0,,0,249,249,366,1,
,,,,,,,,,,,,,,,,,,5f1487c186fcde504cfd70d7,2020-08-10_18h08.52.466,lexical_decision_task_MP,2020.1.3,Win32,60,m,0,,,,,,,,0.339945,0,,,,,,328,NW,UN,33,yarike,BROAKE,z,0.339945,,,,,,-0.042592593,-0.40462963,0,0,0,,0,250,250,387,1,
,,,,,,,,,,,,,,,,,,5f1487c186fcde504cfd70d7,2020-08-10_18h08.52.466,lexical_decision_task_MP,2020.1.3,Win32,60,m,0,,,,,,,,0.35074,0,,,,,,296,NW,"ID",50,beinch,BEINCH,z,0.35074,,,,,,-0.042592593,-0.40462963,0,0,0,,0,251,251,355,1,
,,,,,,,,,,,,,,,,,,5f1487c186fcde504cfd70d7,2020-08-10_18h08.52.466,lexical_decision_task_MP,2020.1.3,Win32,60,m,1,,,,,,,,0.299795,1,,,,,,78,WORD,UN,33,theory,COLUMN,m,0.299795,,,,,,-0.042592593,-0.40462963,0,0,0,,0,252,252,137,1,
,,,,,,,,,,,,,,,,,,5f1487c186fcde504cfd70d7,2020-08-10_18h08.52.466,lexical_decision_task_MP,2020.1.3,Win32,60,m,1,,,,,,,,0.40797,1,,,,,,156,WORD,UN,50,depart,CRADLE,m,0.40797,,,,,,-0.042592593,-0.40462963,0,0,0,,0,253,253,215,1,
,,,,,,,,,,,,,,,,,,5f1487c186fcde504cfd70d7,2020-08-10_18h08.52.466,lexical_decision_task_MP,2020.1.3,Win32,60,z,1,,,,,,,,0.71998,1,,,,,,318,NW,UN,33,zomber,REAGLY,z,0.71998,,,,,,-0.042592593,-0.40462963,0,0,0,,0,254,254,377,1,
,,,,,,,,,,,,,,,,,,5f1487c186fcde504cfd70d7,2020-08-10_18h08.52.466,lexical_decision_task_MP,2020.1.3,Win32,60,m,1,,,,,,,,0.50156,1,,,,,,109,WORD,UN,33,polite,WONDER,m,0.50156,,,,,,-0.042592593,-0.40462963,0,0,0,,0,255,255,168,1,
,,,,,,,,,,,,,,,,,,5f1487c186fcde504cfd70d7,2020-08-10_18h08.52.466,lexical_decision_task_MP,2020.1.3,Win32,60,m,1,,,,,,,,0.42673,1,,,,,,200,WORD,"ID",33,beacon,BEACON,m,0.42673,,,,,,-0.042592593,-0.40462963,0,0,0,,0,256,256,19,1,
,,,,,,,,,,,,,,,,,,5f1487c186fcde504cfd70d7,2020-08-10_18h08.52.466,lexical_decision_task_MP,2020.1.3,Win32,60,z,1,,,,,,,,0.94702,1,,,,,,458,NW,"ID",33,barcet,BARCET,z,0.94702,,,,,,-0.042592593,-0.40462963,0,0,0,,0,257,257,277,1,
,,,,,,,,,,,,,,,,,,5f1487c186fcde504cfd70d7,2020-08-10_18h08.52.466,lexical_decision_task_MP,2020.1.3,Win32,60,m,1,,,,,,,,0.64557,1,,,,,,13,WORD,"ID",50,strive,STRIVE,m,0.64557,,,,,,-0.042592593,-0.40462963,0,0,0,,0,258,258,72,1,
,,,,,,,,,,,,,,,,,,5f1487c186fcde504cfd70d7,2020-08-10_18h08.52.466,lexical_decision_task_MP,2020.1.3,Win32,60,m,0,,,,,,,,0.837535,0,,,,,,247,NW,"ID",50,blarge,BLARGE,z,0.837535,,,,,,-0.042592593,-0.40462963,0,0,0,,0,259,259,306,1,
,,,,,,,,,,,,,,,,,,5f1487c186fcde504cfd70d7,2020-08-10_18h08.52.466,lexical_decision_task_MP,2020.1.3,Win32,60,m,0,,,,,,,,0.508485,0,,,,,,248,NW,"ID",50,strole,STROLE,z,0.508485,,,,,,-0.042592593,-0.40462963,0,0,0,,0,260,260,307,1,
,,,,,,,,,,,,,,,,,,5f1487c186fcde504cfd70d7,2020-08-10_18h08.52.466,lexical_decision_task_MP,2020.1.3,Win32,60,z,1,,,,,,,,0.626445,1,,,,,,324,NW,UN,33,thruse,STEIKH,z,0.626445,,,,,,-0.042592593,-0.40462963,0,0,0,,0,261,261,383,1,
,,,,,,,,,,,,,,,,,,5f1487c186fcde504cfd70d7,2020-08-10_18h08.52.466,lexical_decision_task_MP,2020.1.3,Win32,60,z,1,,,,,,,,0.578515,1,,,,,,416,NW,UN,50,earoud,PATHEL,z,0.578515,,,,,,-0.042592593,-0.40462963,0,0,0,,0,262,262,475,1,
,,,,,,,,,,,,,,,,,,5f1487c186fcde504cfd70d7,2020-08-10_18h08.52.466,lexical_decision_task_MP,2020.1.3,Win32,60,m,1,,,,,,,,0.56589,1,,,,,,98,WORD,UN,33,fluent,BELONG,m,0.56589,,,,,,-0.042592593,-0.40462963,0,0,0,,0,263,263,157,1,
,,,,,,,,,,,,,,,,,,5f1487c186fcde504cfd70d7,2020-08-10_18h08.52.466,lexical_decision_task_MP,2020.1.3,Win32,60,z,0,,,,,,,,0.464625,0,,,,,,190,WORD,"ID",33,backup,BACKUP,m,0.464625,,,,,,-0.042592593,-0.40462963,0,0,0,,0,264,264,9,1,
,,,,,,,,,,,,,,,,,,5f1487c186fcde504cfd70d7,2020-08-10_18h08.52.466,lexical_decision_task_MP,2020.1.3,Win32,60,m,0,,,,,,,,0.42144,0,,,,,,369,NW,UN,50,sleact,WRONCH,z,0.42144,,,,,,-0.042592593,-0.40462963,0,0,0,,0,265,265,428,1,
,,,,,,,,,,,,,,,,,,5f1487c186fcde504cfd70d7,2020-08-10_18h08.52.466,lexical_decision_task_MP,2020.1.3,Win32,60,m,1,,,,,,,,0.382405,1,,,,,,134,WORD,UN,50,import,STAPLE,m,0.382405,,,,,,-0.042592593,-0.40462963,0,0,0,,0,266,266,193,1,
,,,,,,,,,,,,,,,,,,5f1487c186fcde504cfd70d7,2020-08-10_18h08.52.466,lexical_decision_task_MP,2020.1.3,Win32,60,z,1,,,,,,,,0.74428,1,,,,,,428,NW,"ID",33,tandly,TANDLY,z,0.74428,,,,,,-0.042592593,-0.40462963,0,0,0,,0,267,267,247,1,
,,,,,,,,,,,,,,,,,,5f1487c186fcde504cfd70d7,2020-08-10_18h08.52.466,lexical_decision_task_MP,2020.1.3,Win32,60,m,1,,,,,,,,0.691475,1,,,,,,211,WORD,"ID",33,infect,INFECT,m,0.691475,,,,,,-0.042592593,-0.40462963,0,0,0,,0,268,268,30,1,
,,,,,,,,,,,,,,,,,,5f1487c186fcde504cfd70d7,2020-08-10_18h08.52.466,lexical_decision_task_MP,2020.1.3,Win32,60,m,1,,,,,,,,0.562025,1,,,,,,210,WORD,"ID",33,monkey,MONKEY,m,0.562025,,,,,,-0.042592593,-0.40462963,0,0,0,,0,269,269,29,1,
,,,,,,,,,,,,,,,,,,5f1487c186fcde504cfd70d7,2020-08-10_18h08.52.466,lexical_decision_task_MP,2020.1.3,Win32,60,m,1,,,,,,,,0.501135,1,,,,,,70,WORD,UN,33,garden,SQUARE,m,0.501135,,,,,,-0.042592593,-0.40462963,0,0,0,,0,270,270,129,1,
,,,,,,,,,,,,,,,,,,5f1487c186fcde504cfd70d7,2020-08-10_18h08.52.466,lexical_decision_task_MP,2020.1.3,Win32,60,m,1,,,,,,,,0.523075,1,,,,,,71,WORD,UN,33,bright,GARDEN,m,0.523075,,,,,,-0.042592593,-0.40462963,0,0,0,,0,271,271,130,1,
,,,,,,,,,,,,,,,,,,5f1487c186fcde504cfd70d7,2020-08-10_18h08.52.466,lexical_decision_task_MP,2020.1.3,Win32,60,m,0,,,,,,,,0.33658,0,,,,,,309,NW,UN,33,daniet,AMILOY,z,0.33658,,,,,,-0.042592593,-0.40462963,0,0,0,,0,272,272,368,1,
,,,,,,,,,,,,,,,,,,5f1487c186fcde504cfd70d7,2020-08-10_18h08.52.466,lexical_decision_task_MP,2020.1.3,Win32,60,m,0,,,,,,,,0.410645,0,,,,,,382,NW,UN,50,aungre,SARLEY,z,0.410645,,,,,,-0.042592593,-0.40462963,0,0,0,,0,273,273,441,1,
,,,,,,,,,,,,,,,,,,5f1487c186fcde504cfd70d7,2020-08-10_18h08.52.466,lexical_decision_task_MP,2020.1.3,Win32,60,m,0,,,,,,,,0.683895,0,,,,,,284,NW,"ID",50,shaple,SHAPLE,z,0.683895,,,,,,-0.042592593,-0.40462963,0,0,0,,0,274,274,343,1,
,,,,,,,,,,,,,,,,,,5f1487c186fcde504cfd70d7,2020-08-10_18h08.52.466,lexical_decision_task_MP,2020.1.3,Win32,60,m,0,,,,,,,,0.699545,0,,,,,,372,NW,UN,50,bigent,RAMILY,z,0.699545,,,,,,-0.042592593,-0.40462963,0,0,0,,0,275,275,431,1,
,,,,,,,,,,,,,,,,,,5f1487c186fcde504cfd70d7,2020-08-10_18h08.52.466,lexical_decision_task_MP,2020.1.3,Win32,60,z,1,,,,,,,,0.63001,1,,,,,,391,NW,UN,50,rouncy,THELDY,z,0.63001,,,,,,-0.042592593,-0.40462963,0,0,0,,0,276,276,450,1,
,,,,,,,,,,,,,,,,,,5f1487c186fcde504cfd70d7,2020-08-10_18h08.52.466,lexical_decision_task_MP,2020.1.3,Win32,60,z,1,,,,,,,,0.5835,1,,,,,,297,NW,"ID",50,fertic,FERTIC,z,0.5835,,,,,,-0.042592593,-0.40462963,0,0,0,,0,277,277,356,1,
,,,,,,,,,,,,,,,,,,5f1487c186fcde504cfd70d7,2020-08-10_18h08.52.466,lexical_decision_task_MP,2020.1.3,Win32,60,m,1,,,,,,,,0.455015,1,,,,,,113,WORD,UN,33,placid,CHORUS,m,0.455015,,,,,,-0.042592593,-0.40462963,0,0,0,,0,278,278,172,1,
,,,,,,,,,,,,,,,,,,5f1487c186fcde504cfd70d7,2020-08-10_18h08.52.466,lexical_decision_task_MP,2020.1.3,Win32,60,m,1,,,,,,,,0.46281,1,,,,,,237,WORD,"ID",33,poster,POSTER,m,0.46281,,,,,,-0.042592593,-0.40462963,0,0,0,,0,279,279,56,1,
,,,,,,,,,,,,,,,,,,5f1487c186fcde504cfd70d7,2020-08-10_18h08.52.466,lexical_decision_task_MP,2020.1.3,Win32,60,m,0,,,,,,,,0.325265,0,,,,,,300,NW,"ID",50,yarion,YARION,z,0.325265,,,,,,-0.042592593,-0.40462963,0,0,0,,0,280,280,359,1,
,,,,,,,,,,,,,,,,,,5f1487c186fcde504cfd70d7,2020-08-10_18h08.52.466,lexical_decision_task_MP,2020.1.3,Win32,60,m,0,,,,,,,,0.30631,0,,,,,,445,NW,"ID",33,minkel,MINKEL,z,0.30631,,,,,,-0.042592593,-0.40462963,0,0,0,,0,281,281,264,1,
,,,,,,,,,,,,,,,,,,5f1487c186fcde504cfd70d7,2020-08-10_18h08.52.466,lexical_decision_task_MP,2020.1.3,Win32,60,m,0,,,,,,,,0.33581,0,,,,,,332,NW,UN,33,catrie,VANGUE,z,0.33581,,,,,,-0.042592593,-0.40462963,0,0,0,,0,282,282,391,1,
,,,,,,,,,,,,,,,,,,5f1487c186fcde504cfd70d7,2020-08-10_18h08.52.466,lexical_decision_task_MP,2020.1.3,Win32,60,m,1,,,,,,,,0.457865,1,,,,,,233,WORD,"ID",33,nature,NATURE,m,0.457865,,,,,,-0.042592593,-0.40462963,0,0,0,,0,283,283,52,1,
,,,,,,,,,,,,,,,,,,5f1487c186fcde504cfd70d7,2020-08-10_18h08.52.466,lexical_decision_task_MP,2020.1.3,Win32,60,m,1,,,,,,,,0.42507,1,,,,,,52,WORD,"ID",50,impose,IMPOSE,m,0.42507,,,,,,-0.042592593,-0.40462963,0,0,0,,0,284,284,111,1,
,,,,,,,,,,,,,,,,,,5f1487c186fcde504cfd70d7,2020-08-10_18h08.52.466,lexical_decision_task_MP,2020.1.3,Win32,60,m,1,,,,,,,,0.609825,1,,,,,,131,WORD,UN,50,strong,QUENCH,m,0.609825,,,,,,-0.042592593,-0.40462963,0,0,0,,0,285,285,190,1,
,,,,,,,,,,,,,,,,,,5f1487c186fcde504cfd70d7,2020-08-10_18h08.52.466,lexical_decision_task_MP,2020.1.3,Win32,60,z,1,,,,,,,,0.755495,1,,,,,,350,NW,UN,33,tiesch,NAGURS,z,0.755495,,,,,,-0.042592593,-0.40462963,0,0,0,,0,286,286,409,1,
,,,,,,,,,,,,,,,,,,5f1487c186fcde504cfd70d7,2020-08-10_18h08.52.466,lexical_decision_task_MP,2020.1.3,Win32,60,z,1,,,,,,,,0.57353,1,,,,,,414,NW,UN,50,higsta,SERBOL,z,0.57353,,,,,,-0.042592593,-0.40462963,0,0,0,,0,287,287,473,1,
,,,,,,,,,,,,,,,,,,5f1487c186fcde504cfd70d7,2020-08-10_18h08.52.466,lexical_decision_task_MP,2020.1.3,Win32,60,m,1,,,,,,,,0.928415,1,,,,,,42,WORD,"ID",50,chapel,CHAPEL,m,0.928415,,,,,,-0.042592593,-0.40462963,0,0,0,,0,288,288,101,1,
,,,,,,,,,,,,,,,,,,5f1487c186fcde504cfd70d7,2020-08-10_18h08.52.466,lexical_decision_task_MP,2020.1.3,Win32,60,m,1,,,,,,,,0.515955,1,,,,,,17,WORD,"ID",50,charge,CHARGE,m,0.515955,,,,,,-0.042592593,-0.40462963,0,0,0,,0,289,289,76,1,
,,,,,,,,,,,,,,,,,,5f1487c186fcde504cfd70d7,2020-08-10_18h08.52.466,lexical_decision_task_MP,2020.1.3,Win32,60,z,0,,,,,,,,0.440685,0,,,,,,121,WORD,UN,50,linger,THRIVE,m,0.440685,,,,,,-0.042592593,-0.40462963,0,0,0,,0,290,290,180,1,
,,,,,,,,,,,,,,,,,,5f1487c186fcde504cfd70d7,2020-08-10_18h08.52.466,lexical_decision_task_MP,2020.1.3,Win32,60,z,0,,,,,,,,0.466005,0,,,,,,114,WORD,UN,33,guitar,PLACID,m,0.466005,,,,,,-0.042592593,-0.40462963,0,0,0,,0,291,291,173,1,
,,,,,,,,,,,,,,,,,,5f1487c186fcde504cfd70d7,2020-08-10_18h08.52.466,lexical_decision_task_MP,2020.1.3,Win32,60,m,1,,,,,,,,0.453595,1,,,,,,199,WORD,"ID",33,invoke,INVOKE,m,0.453595,,,,,,-0.042592593,-0.40462963,0,0,0,,0,292,292,18,1,
,,,,,,,,,,,,,,,,,,5f1487c186fcde504cfd70d7,2020-08-10_18h08.52.466,lexical_decision_task_MP,2020.1.3,Win32,60,z,1,,,,,,,,0.541275,1,,,,,,371,NW,UN,50,ramily,GEILOY,z,0.541275,,,,,,-0.042592593,-0.40462963,0,0,0,,0,293,293,430,1,
,,,,,,,,,,,,,,,,,,5f1487c186fcde504cfd70d7,2020-08-10_18h08.52.466,lexical_decision_task_MP,2020.1.3,Win32,60,z,1,,,,,,,,0.568845,1,,,,,,444,NW,"ID",33,jaunce,JAUNCE,z,0.568845,,,,,,-0.042592593,-0.40462963,0,0,0,,0,294,294,263,1,
,,,,,,,,,,,,,,,,,,5f1487c186fcde504cfd70d7,2020-08-10_18h08.52.466,lexical_decision_task_MP,2020.1.3,Win32,60,m,1,,,,,,,,0.55634,1,,,,,,197,WORD,"ID",33,stream,STREAM,m,0.55634,,,,,,-0.042592593,-0.40462963,0,0,0,,0,295,295,16,1,
,,,,,,,,,,,,,,,,,,5f1487c186fcde504cfd70d7,2020-08-10_18h08.52.466,lexical_decision_task_MP,2020.1.3,Win32,60,z,1,,,,,,,,0.574575,1,,,,,,389,NW,UN,50,hatrus,WITMER,z,0.574575,,,,,,-0.042592593,-0.40462963,0,0,0,,0,296,296,448,1,
,,,,,,,,,,,,,,,,,,5f1487c186fcde504cfd70d7,2020-08-10_18h08.52.466,lexical_decision_task_MP,2020.1.3,Win32,60,m,1,,,,,,,,0.561165,1,,,,,,81,WORD,UN,33,stigma,FRIEND,m,0.561165,,,,,,-0.042592593,-0.40462963,0,0,0,,0,297,297,140,1,
,,,,,,,,,,,,,,,,,,5f1487c186fcde504cfd70d7,2020-08-10_18h08.52.466,lexical_decision_task_MP,2020.1.3,Win32,60,m,0,,,,,,,,0.484205,0,,,,,,411,NW,UN,50,jiluer,ORCHIN,z,0.484205,,,,,,-0.042592593,-0.40462963,0,0,0,,0,298,298,470,1,
,,,,,,,,,,,,,,,,,,5f1487c186fcde504cfd70d7,2020-08-10_18h08.52.466,lexical_decision_task_MP,2020.1.3,Win32,60,m,0,,,,,,,,0.505455,0,,,,,,277,NW,"ID",50,petain,PETAIN,z,0.505455,,,,,,-0.042592593,-0.40462963,0,0,0,,0,299,299,336,1,
,,,,,,,,,,,,,,,,,,5f1487c186fcde504cfd70d7,2020-08-10_18h08.52.466,lexical_decision_task_MP,2020.1.3,Win32,60,z,0,,,,,,,,0.6055,0,,,,,,145,WORD,UN,50,couple,PARISH,m,0.6055,,,,,,-0.042592593,-0.40462963,0,0,0,,0,300,300,204,1,
,,,,,,,,,,,,,,,,,,5f1487c186fcde504cfd70d7,2020-08-10_18h08.52.466,lexical_decision_task_MP,2020.1.3,Win32,60,m,0,,,,,,,,0.65617,0,,,,,,313,NW,UN,33,sprine,PAURSE,z,0.65617,,,,,,-0.042592593,-0.40462963,0,0,0,,0,301,301,372,1,
,,,,,,,,,,,,,,,,,,5f1487c186fcde504cfd70d7,2020-08-10_18h08.52.466,lexical_decision_task_MP,2020.1.3,Win32,60,m,0,,,,,,,,0.44548,0,,,,,,260,NW,"ID",50,unject,UNJECT,z,0.44548,,,,,,-0.042592593,-0.40462963,0,0,0,,0,302,302,319,1,
,,,,,,,,,,,,,,,,,,5f1487c186fcde504cfd70d7,2020-08-10_18h08.52.466,lexical_decision_task_MP,2020.1.3,Win32,60,m,1,,,,,,,,0.501365,1,,,,,,228,WORD,"ID",33,master,MASTER,m,0.501365,,,,,,-0.042592593,-0.40462963,0,0,0,,0,303,303,47,1,
,,,,,,,,,,,,,,,,,,5f1487c186fcde504cfd70d7,2020-08-10_18h08.52.466,lexical_decision_task_MP,2020.1.3,Win32,60,z,1,,,,,,,,0.555205,1,,,,,,341,NW,UN,33,randow,MYRTIE,z,0.555205,,,,,,-0.042592593,-0.40462963,0,0,0,,0,304,304,400,1,
,,,,,,,,,,,,,,,,,,5f1487c186fcde504cfd70d7,2020-08-10_18h08.52.466,lexical_decision_task_MP,2020.1.3,Win32,60,m,1,,,,,,,,0.583705,1,,,,,,130,WORD,UN,50,quench,STUPID,m,0.583705,,,,,,-0.042592593,-0.40462963,0,0,0,,0,305,305,189,1,
,,,,,,,,,,,,,,,,,,5f1487c186fcde504cfd70d7,2020-08-10_18h08.52.466,lexical_decision_task_MP,2020.1.3,Win32,60,m,1,,,,,,,,0.773185,1,,,,,,62,WORD,UN,33,launch,REGION,m,0.773185,,,,,,-0.042592593,-0.40462963,0,0,0,,0,306,306,121,1,
,,,,,,,,,,,,,,,,,,5f1487c186fcde504cfd70d7,2020-08-10_18h08.52.466,lexical_decision_task_MP,2020.1.3,Win32,60,m,1,,,,,,,,0.563195,1,,,,,,227,WORD,"ID",33,seldom,SELDOM,m,0.563195,,,,,,-0.042592593,-0.40462963,0,0,0,,0,307,307,46,1,
,,,,,,,,,,,,,,,,,,5f1487c186fcde504cfd70d7,2020-08-10_18h08.52.466,lexical_decision_task_MP,2020.1.3,Win32,60,z,1,,,,,,,,0.694605,1,,,,,,340,NW,UN,33,myrtie,FIATCH,z,0.694605,,,,,,-0.042592593,-0.40462963,0,0,0,,0,308,308,399,1,
,,,,,,,,,,,,,,,,,,5f1487c186fcde504cfd70d7,2020-08-10_18h08.52.466,lexical_decision_task_MP,2020.1.3,Win32,60,z,1,,,,,,,,0.579245,1,,,,,,383,NW,UN,50,guesco,AUNGRE,z,0.579245,,,,,,-0.042592593,-0.40462963,0,0,0,,0,309,309,442,1,
,,,,,,,,,,,,,,,,,,5f1487c186fcde504cfd70d7,2020-08-10_18h08.52.466,lexical_decision_task_MP,2020.1.3,Win32,60,z,1,,,,,,,,0.67785,1,,,,,,381,NW,UN,50,sarley,HUNIEK,z,0.67785,,,,,,-0.042592593,-0.40462963,0,0,0,,0,310,310,440,1,
,,,,,,,,,,,,,,,,,,5f1487c186fcde504cfd70d7,2020-08-10_18h08.52.466,lexical_decision_task_MP,2020.1.3,Win32,60,m,1,,,,,,,,0.550105,1,,,,,,151,WORD,UN,50,rocket,MYSTIC,m,0.550105,,,,,,-0.042592593,-0.40462963,0,0,0,,0,311,311,210,1,
,,,,,,,,,,,,,,,,,,5f1487c186fcde504cfd70d7,2020-08-10_18h08.52.466,lexical_decision_task_MP,2020.1.3,Win32,60,z,1,,,,,,,,0.55033,1,,,,,,351,NW,UN,33,tringe,TIESCH,z,0.55033,,,,,,-0.042592593,-0.40462963,0,0,0,,0,312,312,410,1,
,,,,,,,,,,,,,,,,,,5f1487c186fcde504cfd70d7,2020-08-10_18h08.52.466,lexical_decision_task_MP,2020.1.3,Win32,60,m,1,,,,,,,,0.441255,1,,,,,,27,WORD,"ID",50,scream,SCREAM,m,0.441255,,,,,,-0.042592593,-0.40462963,0,0,0,,0,313,313,86,1,
,,,,,,,,,,,,,,,,,,5f1487c186fcde504cfd70d7,2020-08-10_18h08.52.466,lexical_decision_task_MP,2020.1.3,Win32,60,m,1,,,,,,,,0.62559,1,,,,,,188,WORD,"ID",33,social,SOCIAL,m,0.62559,,,,,,-0.042592593,-0.40462963,0,0,0,,0,314,314,7,1,
,,,,,,,,,,,,,,,,,,5f1487c186fcde504cfd70d7,2020-08-10_18h08.52.466,lexical_decision_task_MP,2020.1.3,Win32,60,z,1,,,,,,,,0.87398,1,,,,,,266,NW,"ID",50,varmit,VARMIT,z,0.87398,,,,,,-0.042592593,-0.40462963,0,0,0,,0,315,315,325,1,
,,,,,,,,,,,,,,,,,,5f1487c186fcde504cfd70d7,2020-08-10_18h08.52.466,lexical_decision_task_MP,2020.1.3,Win32,60,z,1,,,,,,,,0.63981,1,,,,,,283,NW,"ID",50,veralf,VERALF,z,0.63981,,,,,,-0.042592593,-0.40462963,0,0,0,,0,316,316,342,1,
,,,,,,,,,,,,,,,,,,5f1487c186fcde504cfd70d7,2020-08-10_18h08.52.466,lexical_decision_task_MP,2020.1.3,Win32,60,m,1,,,,,,,,0.575715,1,,,,,,147,WORD,UN,50,custom,GARLIC,m,0.575715,,,,,,-0.042592593,-0.40462963,0,0,0,,0,317,317,206,1,
,,,,,,,,,,,,,,,,,,5f1487c186fcde504cfd70d7,2020-08-10_18h08.52.466,lexical_decision_task_MP,2020.1.3,Win32,60,m,1,,,,,,,,0.576865,1,,,,,,15,WORD,"ID",50,amount,AMOUNT,m,0.576865,,,,,,-0.042592593,-0.40462963,0,0,0,,0,318,318,74,1,
,,,,,,,,,,,,,,,,,,5f1487c186fcde504cfd70d7,2020-08-10_18h08.52.466,lexical_decision_task_MP,2020.1.3,Win32,60,m,1,,,,,,,,0.596465,1,,,,,,102,WORD,UN,33,bounce,DIRECT,m,0.596465,,,,,,-0.042592593,-0.40462963,0,0,0,,0,319,319,161,1,
,,,,,,,,,,,,,,,,,,5f1487c186fcde504cfd70d7,2020-08-10_18h08.52.466,lexical_decision_task_MP,2020.1.3,Win32,60,m,1,,,,,,,,0.51673,1,,,,,,37,WORD,"ID",50,insult,INSULT,m,0.51673,,,,,,-0.042592593,-0.40462963,0,0,0,,0,320,320,96,1,
,,,,,,,,,,,,,,,,,,5f1487c186fcde504cfd70d7,2020-08-10_18h08.52.466,lexical_decision_task_MP,2020.1.3,Win32,60,m,1,,,,,,,,0.617805,1,,,,,,101,WORD,UN,33,direct,WRENCH,m,0.617805,,,,,,-0.042592593,-0.40462963,0,0,0,,0,321,321,160,1,
,,,,,,,,,,,,,,,,,,5f1487c186fcde504cfd70d7,2020-08-10_18h08.52.466,lexical_decision_task_MP,2020.1.3,Win32,60,m,0,,,,,,,,0.905785,0,,,,,,455,NW,"ID",33,tondle,TONDLE,z,0.905785,,,,,,-0.042592593,-0.40462963,0,0,0,,0,322,322,274,1,
,,,,,,,,,,,,,,,,,,5f1487c186fcde504cfd70d7,2020-08-10_18h08.52.466,lexical_decision_task_MP,2020.1.3,Win32,60,z,1,,,,,,,,0.703135,1,,,,,,282,NW,"ID",50,porlex,PORLEX,z,0.703135,,,,,,-0.042592593,-0.40462963,0,0,0,,0,323,323,341,1,
,,,,,,,,,,,,,,,,,,5f1487c186fcde504cfd70d7,2020-08-10_18h08.52.466,lexical_decision_task_MP,2020.1.3,Win32,60,z,1,,,,,,,,1.03595,1,,,,,,459,NW,"ID",33,bafent,BAFENT,z,1.03595,,,,,,-0.042592593,-0.40462963,0,0,0,,0,324,324,278,1,
,,,,,,,,,,,,,,,,,,5f1487c186fcde504cfd70d7,2020-08-10_18h08.52.466,lexical_decision_task_MP,2020.1.3,Win32,60,z,1,,,,,,,,1.26024,1,,,,,,448,NW,"ID",33,sadent,SADENT,z,1.26024,,,,,,-0.042592593,-0.40462963,0,0,0,,0,325,325,267,1,
,,,,,,,,,,,,,,,,,,5f1487c186fcde504cfd70d7,2020-08-10_18h08.52.466,lexical_decision_task_MP,2020.1.3,Win32,60,z,1,,,,,,,,0.859225,1,,,,,,422,NW,"ID",33,alcoud,ALCOUD,z,0.859225,,,,,,-0.042592593,-0.40462963,0,0,0,,0,326,326,241,1,
,,,,,,,,,,,,,,,,,,5f1487c186fcde504cfd70d7,2020-08-10_18h08.52.466,lexical_decision_task_MP,2020.1.3,Win32,60,m,0,,,,,,,,0.610495,0,,,,,,396,NW,UN,50,camble,FLENGY,z,0.610495,,,,,,-0.042592593,-0.40462963,0,0,0,,0,327,327,455,1,
,,,,,,,,,,,,,,,,,,5f1487c186fcde504cfd70d7,2020-08-10_18h08.52.466,lexical_decision_task_MP,2020.1.3,Win32,60,z,1,,,,,,,,0.627685,1,,,,,,321,NW,UN,33,slanch,MIATOR,z,0.627685,,,,,,-0.042592593,-0.40462963,0,0,0,,0,328,328,380,1,
,,,,,,,,,,,,,,,,,,5f1487c186fcde504cfd70d7,2020-08-10_18h08.52.466,lexical_decision_task_MP,2020.1.3,Win32,60,z,1,,,,,,,,0.611165,1,,,,,,265,NW,"ID",50,distar,DISTAR,z,0.611165,,,,,,-0.042592593,-0.40462963,0,0,0,,0,329,329,324,1,
,,,,,,,,,,,,,,,,,,5f1487c186fcde504cfd70d7,2020-08-10_18h08.52.466,lexical_decision_task_MP,2020.1.3,Win32,60,z,1,,,,,,,,1.108725,1,,,,,,319,NW,UN,33,jockal,ZOMBER,z,1.108725,,,,,,-0.042592593,-0.40462963,0,0,0,,0,330,330,378,1,
,,,,,,,,,,,,,,,,,,5f1487c186fcde504cfd70d7,2020-08-10_18h08.52.466,lexical_decision_task_MP,2020.1.3,Win32,60,m,1,,,,,,,,0.53055,1,,,,,,239,WORD,"ID",33,lumber,LUMBER,m,0.53055,,,,,,-0.042592593,-0.40462963,0,0,0,,0,331,331,58,1,
,,,,,,,,,,,,,,,,,,5f1487c186fcde504cfd70d7,2020-08-10_18h08.52.466,lexical_decision_task_MP,2020.1.3,Win32,60,m,1,,,,,,,,0.634,1,,,,,,77,WORD,UN,33,column,RACKET,m,0.634,,,,,,-0.042592593,-0.40462963,0,0,0,,0,332,332,136,1,
,,,,,,,,,,,,,,,,,,5f1487c186fcde504cfd70d7,2020-08-10_18h08.52.466,lexical_decision_task_MP,2020.1.3,Win32,60,z,1,,,,,,,,0.662815,1,,,,,,375,NW,UN,50,iguare,YORQUE,z,0.662815,,,,,,-0.042592593,-0.40462963,0,0,0,,0,333,333,434,1,
,,,,,,,,,,,,,,,,,,5f1487c186fcde504cfd70d7,2020-08-10_18h08.52.466,lexical_decision_task_MP,2020.1.3,Win32,60,m,1,,,,,,,,0.85444,1,,,,,,85,WORD,UN,33,rodent,SPRAWL,m,0.85444,,,,,,-0.042592593,-0.40462963,0,0,0,,0,334,334,144,1,
,,,,,,,,,,,,,,,,,,5f1487c186fcde504cfd70d7,2020-08-10_18h08.52.466,lexical_decision_task_MP,2020.1.3,Win32,60,m,0,,,,,,,,0.95625,0,,,,,,368,NW,UN,50,wronch,HORNAL,z,0.95625,,,,,,-0.042592593,-0.40462963,0,0,0,,0,335,335,427,1,
,,,,,,,,,,,,,,,,,,5f1487c186fcde504cfd70d7,2020-08-10_18h08.52.466,lexical_decision_task_MP,2020.1.3,Win32,60,z,1,,,,,,,,0.74309,1,,,,,,361,NW,UN,50,tireau,PAUCHE,z,0.74309,,,,,,-0.042592593,-0.40462963,0,0,0,,0,336,336,420,1,
,,,,,,,,,,,,,,,,,,5f1487c186fcde504cfd70d7,2020-08-10_18h08.52.466,lexical_decision_task_MP,2020.1.3,Win32,60,m,1,,,,,,,,0.51661,1,,,,,,20,WORD,"ID",50,breast,BREAST,m,0.51661,,,,,,-0.042592593,-0.40462963,0,0,0,,0,337,337,79,1,
,,,,,,,,,,,,,,,,,,5f1487c186fcde504cfd70d7,2020-08-10_18h08.52.466,lexical_decision_task_MP,2020.1.3,Win32,60,m,1,,,,,,,,0.50207,1,,,,,,51,WORD,"ID",50,hungry,HUNGRY,m,0.50207,,,,,,-0.042592593,-0.40462963,0,0,0,,0,338,338,110,1,
,,,,,,,,,,,,,,,,,,5f1487c186fcde504cfd70d7,2020-08-10_18h08.52.466,lexical_decision_task_MP,2020.1.3,Win32,60,z,1,,,,,,,,0.602865,1,,,,,,365,NW,UN,50,toshel,GUAIRT,z,0.602865,,,,,,-0.042592593,-0.40462963,0,0,0,,0,339,339,424,1,
,,,,,,,,,,,,,,,,,,5f1487c186fcde504cfd70d7,2020-08-10_18h08.52.466,lexical_decision_task_MP,2020.1.3,Win32,60,m,1,,,,,,,,0.667725,1,,,,,,125,WORD,UN,50,enough,NICKEL,m,0.667725,,,,,,-0.042592593,-0.40462963,0,0,0,,0,340,340,184,1,
,,,,,,,,,,,,,,,,,,5f1487c186fcde504cfd70d7,2020-08-10_18h08.52.466,lexical_decision_task_MP,2020.1.3,Win32,60,z,1,,,,,,,,0.716715,1,,,,,,449,NW,"ID",33,brunge,BRUNGE,z,0.716715,,,,,,-0.042592593,-0.40462963,0,0,0,,0,341,341,268,1,
,,,,,,,,,,,,,,,,,,5f1487c186fcde504cfd70d7,2020-08-10_18h08.52.466,lexical_decision_task_MP,2020.1.3,Win32,60,z,0,,,,,,,,0.662265,0,,,,,,140,WORD,UN,50,chrome,PRINCE,m,0.662265,,,,,,-0.042592593,-0.40462963,0,0,0,,0,342,342,199,1,
,,,,,,,,,,,,,,,,,,5f1487c186fcde504cfd70d7,2020-08-10_18h08.52.466,lexical_decision_task_MP,2020.1.3,Win32,60,m,1,,,,,,,,0.484655,1,,,,,,14,WORD,"ID",50,almost,ALMOST,m,0.484655,,,,,,-0.042592593,-0.40462963,0,0,0,,0,343,343,73,1,
,,,,,,,,,,,,,,,,,,5f1487c186fcde504cfd70d7,2020-08-10_18h08.52.466,lexical_decision_task_MP,2020.1.3,Win32,60,m,1,,,,,,,,0.53841,1,,,,,,170,WORD,UN,50,dragon,POUNCE,m,0.53841,,,,,,-0.042592593,-0.40462963,0,0,0,,0,344,344,229,1,
,,,,,,,,,,,,,,,,,,5f1487c186fcde504cfd70d7,2020-08-10_18h08.52.466,lexical_decision_task_MP,2020.1.3,Win32,60,m,1,,,,,,,,0.557645,1,,,,,,229,WORD,"ID",33,mother,MOTHER,m,0.557645,,,,,,-0.042592593,-0.40462963,0,0,0,,0,345,345,48,1,
,,,,,,,,,,,,,,,,,,5f1487c186fcde504cfd70d7,2020-08-10_18h08.52.466,lexical_decision_task_MP,2020.1.3,Win32,60,z,1,,,,,,,,0.5927,1,,,,,,474,NW,"ID",33,hablin,HABLIN,z,0.5927,,,,,,-0.042592593,-0.40462963,0,0,0,,0,346,346,293,1,
,,,,,,,,,,,,,,,,,,5f1487c186fcde504cfd70d7,2020-08-10_18h08.52.466,lexical_decision_task_MP,2020.1.3,Win32,60,m,1,,,,,,,,0.62767,1,,,,,,91,WORD,UN,33,hunger,EXPAND,m,0.62767,,,,,,-0.042592593,-0.40462963,0,0,0,,0,347,347,150,1,
,,,,,,,,,,,,,,,,,,5f1487c186fcde504cfd70d7,2020-08-10_18h08.52.466,lexical_decision_task_MP,2020.1.3,Win32,60,z,1,,,,,,,,0.627825,1,,,,,,344,NW,UN,33,absend,SCRILY,z,0.627825,,,,,,-0.042592593,-0.40462963,0,0,0,,0,348,348,403,1,
,,,,,,,,,,,,,,,,,,5f1487c186fcde504cfd70d7,2020-08-10_18h08.52.466,lexical_decision_task_MP,2020.1.3,Win32,60,z,1,,,,,,,,0.829255,1,,,,,,438,NW,"ID",33,baitch,BAITCH,z,0.829255,,,,,,-0.042592593,-0.40462963,0,0,0,,0,349,349,257,1,
,,,,,,,,,,,,,,,,,,5f1487c186fcde504cfd70d7,2020-08-10_18h08.52.466,lexical_decision_task_MP,2020.1.3,Win32,60,m,1,,,,,,,,0.484705,1,,,,,,155,WORD,UN,50,cradle,LIZARD,m,0.484705,,,,,,-0.042592593,-0.40462963,0,0,0,,0,350,350,214,1,
,,,,,,,,,,,,,,,,,,5f1487c186fcde504cfd70d7,2020-08-10_18h08.52.466,lexical_decision_task_MP,2020.1.3,Win32,60,m,1,,,,,,,,0.651365,1,,,,,,117,WORD,UN,33,flight,BRANCH,m,0.651365,,,,,,-0.042592593,-0.40462963,0,0,0,,0,351,351,176,1,
,,,,,,,,,,,,,,,,,,5f1487c186fcde504cfd70d7,2020-08-10_18h08.52.466,lexical_decision_task_MP,2020.1.3,Win32,60,z,0,,,,,,,,0.777465,0,,,,,,100,WORD,UN,33,wrench,CARBON,m,0.777465,,,,,,-0.042592593,-0.40462963,0,0,0,,0,352,352,159,1,
,,,,,,,,,,,,,,,,,,5f1487c186fcde504cfd70d7,2020-08-10_18h08.52.466,lexical_decision_task_MP,2020.1.3,Win32,60,m,1,,,,,,,,0.583105,1,,,,,,7,WORD,"ID",50,anchor,ANCHOR,m,0.583105,,,,,,-0.042592593,-0.40462963,0,0,0,,0,353,353,66,1,
,,,,,,,,,,,,,,,,,,5f1487c186fcde504cfd70d7,2020-08-10_18h08.52.466,lexical_decision_task_MP,2020.1.3,Win32,60,z,1,,,,,,,,0.5272,1,,,,,,430,NW,"ID",33,caroey,CAROEY,z,0.5272,,,,,,-0.042592593,-0.40462963,0,0,0,,0,354,354,249,1,
,,,,,,,,,,,,,,,,,,5f1487c186fcde504cfd70d7,2020-08-10_18h08.52.466,lexical_decision_task_MP,2020.1.3,Win32,60,m,1,,,,,,,,0.490825,1,,,,,,216,WORD,"ID",33,behalf,BEHALF,m,0.490825,,,,,,-0.042592593,-0.40462963,0,0,0,,0,355,355,35,1,
,,,,,,,,,,,,,,,,,,5f1487c186fcde504cfd70d7,2020-08-10_18h08.52.466,lexical_decision_task_MP,2020.1.3,Win32,60,m,0,,,,,,,,0.607135,0,,,,,,399,NW,UN,50,wearox,FOURET,z,0.607135,,,,,,-0.042592593,-0.40462963,0,0,0,,0,356,356,458,1,
,,,,,,,,,,,,,,,,,,5f1487c186fcde504cfd70d7,2020-08-10_18h08.52.466,lexical_decision_task_MP,2020.1.3,Win32,60,m,1,,,,,,,,0.56191,1,,,,,,108,WORD,UN,33,wonder,RECKON,m,0.56191,,,,,,-0.042592593,-0.40462963,0,0,0,,0,357,357,167,1,
,,,,,,,,,,,,,,,,,,5f1487c186fcde504cfd70d7,2020-08-10_18h08.52.466,lexical_decision_task_MP,2020.1.3,Win32,60,m,1,,,,,,,,0.50101,1,,,,,,235,WORD,"ID",33,grumpy,GRUMPY,m,0.50101,,,,,,-0.042592593,-0.40462963,0,0,0,,0,358,358,54,1,
,,,,,,,,,,,,,,,,,,5f1487c186fcde504cfd70d7,2020-08-10_18h08.52.466,lexical_decision_task_MP,2020.1.3,Win32,60,m,1,,,,,,,,0.522435,1,,,,,,84,WORD,UN,33,strand,MORTAL,m,0.522435,,,,,,-0.042592593,-0.40462963,0,0,0,,0,359,359,143,1,
,,,,,,,,,,,,,,,,,,5f1487c186fcde504cfd70d7,2020-08-10_18h08.52.466,lexical_decision_task_MP,2020.1.3,Win32,60,z,1,,,,,,,,0.57351,1,,,,,,245,NW,"ID",50,anougs,ANOUGS,z,0.57351,,,,,,-0.042592593,-0.40462963,0,0,0,,0,360,360,304,1,
,,,,,,,,,,,,,,,,,,5f1487c186fcde504cfd70d7,2020-08-10_18h08.52.466,lexical_decision_task_MP,2020.1.3,Win32,60,z,1,,,,,,,,0.640025,1,,,,,,385,NW,UN,50,ancust,VEIGMA,z,0.640025,,,,,,-0.042592593,-0.40462963,0,0,0,,0,361,361,444,1,
,,,,,,,,,,,,,,,,,,5f1487c186fcde504cfd70d7,2020-08-10_18h08.52.466,lexical_decision_task_MP,2020.1.3,Win32,60,z,1,,,,,,,,0.544455,1,,,,,,267,NW,"ID",50,pasink,PASINK,z,0.544455,,,,,,-0.007407407,-0.412037037,1,0,0,,0,362,362,326,1,break_done_button
,,,,,,,,,,,,,,,,,,5f1487c186fcde504cfd70d7,2020-08-10_18h08.52.466,lexical_decision_task_MP,2020.1.3,Win32,60,z,1,,,,,,,,0.82047,1,,,,,,464,NW,"ID",33,chaite,CHAITE,z,0.82047,,,,,,-0.025925926,-0.387037037,0,0,0,,0,363,363,283,1,
,,,,,,,,,,,,,,,,,,5f1487c186fcde504cfd70d7,2020-08-10_18h08.52.466,lexical_decision_task_MP,2020.1.3,Win32,60,z,1,,,,,,,,0.573435,1,,,,,,397,NW,UN,50,blunde,CAMBLE,z,0.573435,,,,,,-0.025925926,-0.387037037,0,0,0,,0,364,364,456,1,
,,,,,,,,,,,,,,,,,,5f1487c186fcde504cfd70d7,2020-08-10_18h08.52.466,lexical_decision_task_MP,2020.1.3,Win32,60,z,0,,,,,,,,0.65605,0,,,,,,107,WORD,UN,33,reckon,SLOGAN,m,0.65605,,,,,,-0.025925926,-0.387037037,0,0,0,,0,365,365,166,1,
,,,,,,,,,,,,,,,,,,5f1487c186fcde504cfd70d7,2020-08-10_18h08.52.466,lexical_decision_task_MP,2020.1.3,Win32,60,m,1,,,,,,,,0.68749,1,,,,,,76,WORD,UN,33,racket,EXOTIC,m,0.68749,,,,,,-0.025925926,-0.387037037,0,0,0,,0,366,366,135,1,
,,,,,,,,,,,,,,,,,,5f1487c186fcde504cfd70d7,2020-08-10_18h08.52.466,lexical_decision_task_MP,2020.1.3,Win32,60,m,1,,,,,,,,0.44417,1,,,,,,11,WORD,"ID",50,cruise,CRUISE,m,0.44417,,,,,,-0.025925926,-0.387037037,0,0,0,,0,367,367,70,1,
,,,,,,,,,,,,,,,,,,5f1487c186fcde504cfd70d7,2020-08-10_18h08.52.466,lexical_decision_task_MP,2020.1.3,Win32,60,m,0,,,,,,,,0.612825,0,,,,,,274,NW,"ID",50,fumblo,FUMBLO,z,0.612825,,,,,,-0.025925926,-0.387037037,0,0,0,,0,368,368,333,1,
,,,,,,,,,,,,,,,,,,5f1487c186fcde504cfd70d7,2020-08-10_18h08.52.466,lexical_decision_task_MP,2020.1.3,Win32,60,z,1,,,,,,,,0.66187,1,,,,,,465,NW,"ID",33,whivex,WHIVEX,z,0.66187,,,,,,-0.025925926,-0.387037037,0,0,0,,0,369,369,284,1,
,,,,,,,,,,,,,,,,,,5f1487c186fcde504cfd70d7,2020-08-10_18h08.52.466,lexical_decision_task_MP,2020.1.3,Win32,60,m,1,,,,,,,,0.469105,1,,,,,,202,WORD,"ID",33,factor,FACTOR,m,0.469105,,,,,,-0.025925926,-0.387037037,0,0,0,,0,370,370,21,1,
,,,,,,,,,,,,,,,,,,5f1487c186fcde504cfd70d7,2020-08-10_18h08.52.466,lexical_decision_task_MP,2020.1.3,Win32,60,m,1,,,,,,,,0.474515,1,,,,,,40,WORD,"ID",50,convey,CONVEY,m,0.474515,,,,,,-0.025925926,-0.387037037,0,0,0,,0,371,371,99,1,
,,,,,,,,,,,,,,,,,,5f1487c186fcde504cfd70d7,2020-08-10_18h08.52.466,lexical_decision_task_MP,2020.1.3,Win32,60,z,1,,,,,,,,0.561685,1,,,,,,317,NW,UN,33,reagly,WORBAL,z,0.561685,,,,,,-0.025925926,-0.387037037,0,0,0,,0,372,372,376,1,
,,,,,,,,,,,,,,,,,,5f1487c186fcde504cfd70d7,2020-08-10_18h08.52.466,lexical_decision_task_MP,2020.1.3,Win32,60,z,0,,,,,,,,0.51682,0,,,,,,122,WORD,UN,50,strike,LINGER,m,0.51682,,,,,,-0.025925926,-0.387037037,0,0,0,,0,373,373,181,1,
,,,,,,,,,,,,,,,,,,5f1487c186fcde504cfd70d7,2020-08-10_18h08.52.466,lexical_decision_task_MP,2020.1.3,Win32,60,m,1,,,,,,,,0.504955,1,,,,,,16,WORD,"ID",50,faucet,FAUCET,m,0.504955,,,,,,-0.025925926,-0.387037037,0,0,0,,0,374,374,75,1,
,,,,,,,,,,,,,,,,,,5f1487c186fcde504cfd70d7,2020-08-10_18h08.52.466,lexical_decision_task_MP,2020.1.3,Win32,60,m,0,,,,,,,,0.821115,0,,,,,,329,NW,UN,33,kensom,YARIKE,z,0.821115,,,,,,-0.025925926,-0.387037037,0,0,0,,0,375,375,388,1,
,,,,,,,,,,,,,,,,,,5f1487c186fcde504cfd70d7,2020-08-10_18h08.52.466,lexical_decision_task_MP,2020.1.3,Win32,60,m,1,,,,,,,,0.444785,1,,,,,,56,WORD,"ID",50,ambush,AMBUSH,m,0.444785,,,,,,-0.025925926,-0.387037037,0,0,0,,0,376,376,115,1,
,,,,,,,,,,,,,,,,,,5f1487c186fcde504cfd70d7,2020-08-10_18h08.52.466,lexical_decision_task_MP,2020.1.3,Win32,60,z,1,,,,,,,,0.582395,1,,,,,,288,NW,"ID",50,yaceup,YACEUP,z,0.582395,,,,,,-0.025925926,-0.387037037,0,0,0,,0,377,377,347,1,
,,,,,,,,,,,,,,,,,,5f1487c186fcde504cfd70d7,2020-08-10_18h08.52.466,lexical_decision_task_MP,2020.1.3,Win32,60,m,1,,,,,,,,0.59899,1,,,,,,146,WORD,UN,50,garlic,COUPLE,m,0.59899,,,,,,-0.025925926,-0.387037037,0,0,0,,0,378,378,205,1,
,,,,,,,,,,,,,,,,,,5f1487c186fcde504cfd70d7,2020-08-10_18h08.52.466,lexical_decision_task_MP,2020.1.3,Win32,60,m,1,,,,,,,,0.598485,1,,,,,,169,WORD,UN,50,pounce,GENIUS,m,0.598485,,,,,,-0.025925926,-0.387037037,0,0,0,,0,379,379,228,1,
,,,,,,,,,,,,,,,,,,5f1487c186fcde504cfd70d7,2020-08-10_18h08.52.466,lexical_decision_task_MP,2020.1.3,Win32,60,z,1,,,,,,,,0.80883,1,,,,,,469,NW,"ID",33,padifs,PADIFS,z,0.80883,,,,,,-0.025925926,-0.387037037,0,0,0,,0,380,380,288,1,
,,,,,,,,,,,,,,,,,,5f1487c186fcde504cfd70d7,2020-08-10_18h08.52.466,lexical_decision_task_MP,2020.1.3,Win32,60,z,1,,,,,,,,0.657035,1,,,,,,435,NW,"ID",33,impurb,IMPURB,z,0.657035,,,,,,-0.025925926,-0.387037037,0,0,0,,0,381,381,254,1,
,,,,,,,,,,,,,,,,,,5f1487c186fcde504cfd70d7,2020-08-10_18h08.52.466,lexical_decision_task_MP,2020.1.3,Win32,60,m,1,,,,,,,,0.561135,1,,,,,,88,WORD,UN,33,permit,HUNGER,m,0.561135,,,,,,-0.025925926,-0.387037037,0,0,0,,0,382,382,147,1,
,,,,,,,,,,,,,,,,,,5f1487c186fcde504cfd70d7,2020-08-10_18h08.52.466,lexical_decision_task_MP,2020.1.3,Win32,60,m,1,,,,,,,,0.56506,1,,,,,,106,WORD,UN,33,slogan,RANSOM,m,0.56506,,,,,,-0.025925926,-0.387037037,0,0,0,,0,383,383,165,1,
,,,,,,,,,,,,,,,,,,5f1487c186fcde504cfd70d7,2020-08-10_18h08.52.466,lexical_decision_task_MP,2020.1.3,Win32,60,m,1,,,,,,,,0.4867,1,,,,,,234,WORD,"ID",33,clumsy,CLUMSY,m,0.4867,,,,,,-0.025925926,-0.387037037,0,0,0,,0,384,384,53,1,
,,,,,,,,,,,,,,,,,,5f1487c186fcde504cfd70d7,2020-08-10_18h08.52.466,lexical_decision_task_MP,2020.1.3,Win32,60,m,1,,,,,,,,0.556875,1,,,,,,201,WORD,"ID",33,admire,ADMIRE,m,0.556875,,,,,,-0.025925926,-0.387037037,0,0,0,,0,385,385,20,1,
,,,,,,,,,,,,,,,,,,5f1487c186fcde504cfd70d7,2020-08-10_18h08.52.466,lexical_decision_task_MP,2020.1.3,Win32,60,z,1,,,,,,,,0.728755,1,,,,,,360,NW,UN,33,fainch,DESORY,z,0.728755,,,,,,-0.025925926,-0.387037037,0,0,0,,0,386,386,419,1,
,,,,,,,,,,,,,,,,,,5f1487c186fcde504cfd70d7,2020-08-10_18h08.52.466,lexical_decision_task_MP,2020.1.3,Win32,60,m,1,,,,,,,,0.516615,1,,,,,,44,WORD,"ID",50,danger,DANGER,m,0.516615,,,,,,-0.025925926,-0.387037037,0,0,0,,0,387,387,103,1,
,,,,,,,,,,,,,,,,,,5f1487c186fcde504cfd70d7,2020-08-10_18h08.52.466,lexical_decision_task_MP,2020.1.3,Win32,60,z,1,,,,,,,,0.696605,1,,,,,,364,NW,UN,50,guairt,IMPOTE,z,0.696605,,,,,,-0.025925926,-0.387037037,0,0,0,,0,388,388,423,1,
,,,,,,,,,,,,,,,,,,5f1487c186fcde504cfd70d7,2020-08-10_18h08.52.466,lexical_decision_task_MP,2020.1.3,Win32,60,z,1,,,,,,,,0.69415,1,,,,,,454,NW,"ID",33,scouge,SCOUGE,z,0.69415,,,,,,-0.025925926,-0.387037037,0,0,0,,0,389,389,273,1,
,,,,,,,,,,,,,,,,,,5f1487c186fcde504cfd70d7,2020-08-10_18h08.52.466,lexical_decision_task_MP,2020.1.3,Win32,60,m,1,,,,,,,,0.53259,1,,,,,,120,WORD,UN,33,ponder,STRAIN,m,0.53259,,,,,,-0.025925926,-0.387037037,0,0,0,,0,390,390,179,1,
,,,,,,,,,,,,,,,,,,5f1487c186fcde504cfd70d7,2020-08-10_18h08.52.466,lexical_decision_task_MP,2020.1.3,Win32,60,z,1,,,,,,,,0.665735,1,,,,,,256,NW,"ID",50,inlors,INLORS,z,0.665735,,,,,,-0.025925926,-0.387037037,0,0,0,,0,391,391,315,1,
,,,,,,,,,,,,,,,,,,5f1487c186fcde504cfd70d7,2020-08-10_18h08.52.466,lexical_decision_task_MP,2020.1.3,Win32,60,z,1,,,,,,,,0.87044,1,,,,,,478,NW,"ID",33,acrise,ACRISE,z,0.87044,,,,,,-0.025925926,-0.387037037,0,0,0,,0,392,392,297,1,
,,,,,,,,,,,,,,,,,,5f1487c186fcde504cfd70d7,2020-08-10_18h08.52.466,lexical_decision_task_MP,2020.1.3,Win32,60,m,1,,,,,,,,0.60466,1,,,,,,6,WORD,"ID",50,bundle,BUNDLE,m,0.60466,,,,,,-0.025925926,-0.387037037,0,0,0,,0,393,393,65,1,
,,,,,,,,,,,,,,,,,,5f1487c186fcde504cfd70d7,2020-08-10_18h08.52.466,lexical_decision_task_MP,2020.1.3,Win32,60,z,1,,,,,,,,0.62201,1,,,,,,311,NW,UN,33,nerawl,SPROLY,z,0.62201,,,,,,-0.025925926,-0.387037037,0,0,0,,0,394,394,370,1,
,,,,,,,,,,,,,,,,,,5f1487c186fcde504cfd70d7,2020-08-10_18h08.52.466,lexical_decision_task_MP,2020.1.3,Win32,60,z,1,,,,,,,,0.70192,1,,,,,,279,NW,"ID",50,celond,CELOND,z,0.70192,,,,,,-0.025925926,-0.387037037,0,0,0,,0,395,395,338,1,
,,,,,,,,,,,,,,,,,,5f1487c186fcde504cfd70d7,2020-08-10_18h08.52.466,lexical_decision_task_MP,2020.1.3,Win32,60,z,1,,,,,,,,0.78671,1,,,,,,462,NW,"ID",33,absult,ABSULT,z,0.78671,,,,,,-0.025925926,-0.387037037,0,0,0,,0,396,396,281,1,
,,,,,,,,,,,,,,,,,,5f1487c186fcde504cfd70d7,2020-08-10_18h08.52.466,lexical_decision_task_MP,2020.1.3,Win32,60,z,1,,,,,,,,0.50828,1,,,,,,410,NW,UN,50,orchin,TUNORY,z,0.50828,,,,,,-0.025925926,-0.387037037,0,0,0,,0,397,397,469,1,
,,,,,,,,,,,,,,,,,,5f1487c186fcde504cfd70d7,2020-08-10_18h08.52.466,lexical_decision_task_MP,2020.1.3,Win32,60,z,1,,,,,,,,0.48361,1,,,,,,373,NW,UN,50,sliant,BIGENT,z,0.48361,,,,,,-0.025925926,-0.387037037,0,0,0,,0,398,398,432,1,
,,,,,,,,,,,,,,,,,,5f1487c186fcde504cfd70d7,2020-08-10_18h08.52.466,lexical_decision_task_MP,2020.1.3,Win32,60,z,1,,,,,,,,0.617335,1,,,,,,447,NW,"ID",33,gircue,GIRCUE,z,0.617335,,,,,,-0.025925926,-0.387037037,0,0,0,,0,399,399,266,1,
,,,,,,,,,,,,,,,,,,5f1487c186fcde504cfd70d7,2020-08-10_18h08.52.466,lexical_decision_task_MP,2020.1.3,Win32,60,z,1,,,,,,,,0.534555,1,,,,,,278,NW,"ID",50,unighs,UNIGHS,z,0.534555,,,,,,-0.025925926,-0.387037037,0,0,0,,0,400,400,337,1,
,,,,,,,,,,,,,,,,,,5f1487c186fcde504cfd70d7,2020-08-10_18h08.52.466,lexical_decision_task_MP,2020.1.3,Win32,60,z,0,,,,,,,,0.490765,0,,,,,,115,WORD,UN,33,tumble,GUITAR,m,0.490765,,,,,,-0.025925926,-0.387037037,0,0,0,,0,401,401,174,1,
,,,,,,,,,,,,,,,,,,5f1487c186fcde504cfd70d7,2020-08-10_18h08.52.466,lexical_decision_task_MP,2020.1.3,Win32,60,m,1,,,,,,,,0.561745,1,,,,,,226,WORD,"ID",33,casino,CASINO,m,0.561745,,,,,,-0.025925926,-0.387037037,0,0,0,,0,402,402,45,1,
