counterbalancing_condition,instr_done_keyboard.keys,instr_done_keyboard.rt,instr_done_touch.x,instr_done_touch.y,instr_done_touch.leftButton,instr_done_touch.midButton,instr_done_touch.rightButton,instruction_pages.thisRepN,instruction_pages.thisTrialN,instruction_pages.thisN,instruction_pages.thisIndex,instruction_pages.ran,pageN,phase,instruct_text,has_image,instruct_image,participant,date,expName,psychopyVersion,OS,frameRate,response.keys,response.corr,touch_resp.x,touch_resp.y,touch_resp.leftButton,touch_resp.midButton,touch_resp.rightButton,touch_resp.time,touch_resp.clicked_name,rt,corr,practice_trials.thisRepN,practice_trials.thisTrialN,practice_trials.thisN,practice_trials.thisIndex,practice_trials.ran,TrialID,StimulusType,Condition,PrimeDuration,Prime,Target,corrAns,response.rt,end_of_practice_trials_pages.thisRepN,end_of_practice_trials_pages.thisTrialN,end_of_practice_trials_pages.thisN,end_of_practice_trials_pages.thisIndex,end_of_practice_trials_pages.ran,break_done_touch.x,break_done_touch.y,break_done_touch.leftButton,break_done_touch.midButton,break_done_touch.rightButton,break_done_keyboard.keys,trials.thisRepN,trials.thisTrialN,trials.thisN,trials.thisIndex,trials.ran,break_done_keyboard.rt
2,space,40.118,0.219030521,-0.23070018,0,0,0,0,0,0,0,1,1,instructions,"INSTRUCTIONS
At the start of each trial, look at the hash marks (######) in the center of the screen. After a moment, a string of letters will appear. Your task is to indicate if the letter string forms a word or not (i.e., if it is a nonword). For example, AUTHOR is a word while AUTHON is a nonword.

Press the space bar or touch the button below to continue.",0,,5f1e827568c1bb862cb9f5bd,2020-08-10_12h48.46.753,lexical_decision_task_MP,2020.1.3,Win32,60,,,,,,,,,,,,,,,,,,,,,,,,,,,,,,,,,,,,,,,,,
,space,16.691,0.219030521,-0.23070018,0,0,0,0,1,1,1,1,2,instructions,"If your device has a keyboard, press the 'Z' key for nonwords and the 'M' key for words.





Press the space bar or touch the button below to continue.",1,keyboard-example.gif,5f1e827568c1bb862cb9f5bd,2020-08-10_12h48.46.753,lexical_decision_task_MP,2020.1.3,Win32,60,,,,,,,,,,,,,,,,,,,,,,,,,,,,,,,,,,,,,,,,,
,space,8.126,0.219030521,-0.23070018,0,0,0,0,2,2,2,1,3,instructions,"If you are using a touchscreen only device, use the buttons on the screen. Do not use the mouse.





Press the space bar or touch the button below to continue.",1,touchscreen-example.gif,5f1e827568c1bb862cb9f5bd,2020-08-10_12h48.46.753,lexical_decision_task_MP,2020.1.3,Win32,60,,,,,,,,,,,,,,,,,,,,,,,,,,,,,,,,,,,,,,,,,
,space,15.762,0.219030521,-0.23070018,0,0,0,0,3,3,3,1,4,instructions,"It is very important that you respond as quickly and accurately as possible, as each letter string will only be on the screen for two seconds. If you do not respond within this time, the message 'Too slow!' will be displayed and the experiment will progress to the next letter string. The first 20 trials will be practice trials and you will receive feedback on your answers. 

Press the space bar or touch the button below to start the practice trials.",0,,5f1e827568c1bb862cb9f5bd,2020-08-10_12h48.46.753,lexical_decision_task_MP,2020.1.3,Win32,60,,,,,,,,,,,,,,,,,,,,,,,,,,,,,,,,,,,,,,,,,
,,,,,,,,,,,,,,,,,,5f1e827568c1bb862cb9f5bd,2020-08-10_12h48.46.753,lexical_decision_task_MP,2020.1.3,Win32,60,,0,,,,,,,,,-1,0,0,0,2,1,1003,WORD,"ID",50,almond,ALMOND,m,,,,,,,,,,,,,,,,,,
,,,,,,,,,,,,,,,,,,5f1e827568c1bb862cb9f5bd,2020-08-10_12h48.46.753,lexical_decision_task_MP,2020.1.3,Win32,60,z,0,,,,,,,,0.902,0,0,1,1,0,1,1001,WORD,"ID",33,utopia,UTOPIA,m,0.902,,,,,,,,,,,,,,,,,
,,,,,,,,,,,,,,,,,,5f1e827568c1bb862cb9f5bd,2020-08-10_12h48.46.753,lexical_decision_task_MP,2020.1.3,Win32,60,z,1,,,,,,,,0.922,1,0,2,2,14,1,1015,NW,UN,50,miaber,THRALE,z,0.922,,,,,,,,,,,,,,,,,
,,,,,,,,,,,,,,,,,,5f1e827568c1bb862cb9f5bd,2020-08-10_12h48.46.753,lexical_decision_task_MP,2020.1.3,Win32,60,z,1,,,,,,,,1.001,1,0,3,3,13,1,1014,NW,UN,33,winfer,ROUPET,z,1.001,,,,,,,,,,,,,,,,,
,,,,,,,,,,,,,,,,,,5f1e827568c1bb862cb9f5bd,2020-08-10_12h48.46.753,lexical_decision_task_MP,2020.1.3,Win32,60,z,1,,,,,,,,1.061,1,0,4,4,8,1,1009,NW,"ID",33,aslert,ASLERT,z,1.061,,,,,,,,,,,,,,,,,
,,,,,,,,,,,,,,,,,,5f1e827568c1bb862cb9f5bd,2020-08-10_12h48.46.753,lexical_decision_task_MP,2020.1.3,Win32,60,m,1,,,,,,,,0.8,1,0,5,5,5,1,1006,WORD,UN,33,frenzy,OBTAIN,m,0.8,,,,,,,,,,,,,,,,,
,,,,,,,,,,,,,,,,,,5f1e827568c1bb862cb9f5bd,2020-08-10_12h48.46.753,lexical_decision_task_MP,2020.1.3,Win32,60,m,1,,,,,,,,0.781,1,0,6,6,3,1,1004,WORD,"ID",50,matrix,MATRIX,m,0.781,,,,,,,,,,,,,,,,,
,,,,,,,,,,,,,,,,,,5f1e827568c1bb862cb9f5bd,2020-08-10_12h48.46.753,lexical_decision_task_MP,2020.1.3,Win32,60,z,1,,,,,,,,0.718,1,0,7,7,12,1,1013,NW,UN,33,adveil,SPRINY,z,0.718,,,,,,,,,,,,,,,,,
,,,,,,,,,,,,,,,,,,5f1e827568c1bb862cb9f5bd,2020-08-10_12h48.46.753,lexical_decision_task_MP,2020.1.3,Win32,60,m,1,,,,,,,,0.896,1,0,8,8,6,1,1007,WORD,UN,50,tropic,ZOMBIE,m,0.896,,,,,,,,,,,,,,,,,
,,,,,,,,,,,,,,,,,,5f1e827568c1bb862cb9f5bd,2020-08-10_12h48.46.753,lexical_decision_task_MP,2020.1.3,Win32,60,z,1,,,,,,,,0.668,1,0,9,9,10,1,1011,NW,"ID",50,inlade,INLADE,z,0.668,,,,,,,,,,,,,,,,,
,,,,,,,,,,,,,,,,,,5f1e827568c1bb862cb9f5bd,2020-08-10_12h48.46.753,lexical_decision_task_MP,2020.1.3,Win32,60,m,1,,,,,,,,0.629,1,0,10,10,1,1,1002,WORD,"ID",33,adjust,ADJUST,m,0.629,,,,,,,,,,,,,,,,,
,,,,,,,,,,,,,,,,,,5f1e827568c1bb862cb9f5bd,2020-08-10_12h48.46.753,lexical_decision_task_MP,2020.1.3,Win32,60,z,1,,,,,,,,1.126,1,0,11,11,15,1,1016,NW,UN,50,mushed,WHAISE,z,1.126,,,,,,,,,,,,,,,,,
,,,,,,,,,,,,,,,,,,5f1e827568c1bb862cb9f5bd,2020-08-10_12h48.46.753,lexical_decision_task_MP,2020.1.3,Win32,60,z,0,,,,,,,,0.831,0,0,12,12,4,1,1005,WORD,UN,33,abound,SQUEAK,m,0.831,,,,,,,,,,,,,,,,,
,,,,,,,,,,,,,,,,,,5f1e827568c1bb862cb9f5bd,2020-08-10_12h48.46.753,lexical_decision_task_MP,2020.1.3,Win32,60,m,1,,,,,,,,0.54,1,0,13,13,7,1,1008,WORD,UN,50,hurdle,VOLUME,m,0.54,,,,,,,,,,,,,,,,,
,,,,,,,,,,,,,,,,,,5f1e827568c1bb862cb9f5bd,2020-08-10_12h48.46.753,lexical_decision_task_MP,2020.1.3,Win32,60,m,0,,,,,,,,1.146,0,0,14,14,11,1,1012,NW,"ID",50,rashet,RASHET,z,1.146,,,,,,,,,,,,,,,,,
,,,,,,,,,,,,,,,,,,5f1e827568c1bb862cb9f5bd,2020-08-10_12h48.46.753,lexical_decision_task_MP,2020.1.3,Win32,60,z,1,,,,,,,,1.004,1,0,15,15,9,1,1010,NW,"ID",33,fariny,FARINY,z,1.004,,,,,,,,,,,,,,,,,
,space,22.729,0.219030521,-0.23070018,0,0,0,,,,,,1,end_of_practice,"You have completed the practice trials. During the experimental trials, you will not receive feedback, but it is very important that you respond as quickly and accurately as possible. 
Before you begin, please ensure that you are in a comfortable and quiet location and will not be disturbed for about 15 minutes, as we cannot use your data if you do not complete all the trials. 
There will be opportunities to take breaks at regular intervals during the experiment. When you are ready to start the experimental trials, please press space or touch the button below.",,,5f1e827568c1bb862cb9f5bd,2020-08-10_12h48.46.753,lexical_decision_task_MP,2020.1.3,Win32,60,,,,,,,,,,,,,,,,,,,,,,,,,0,0,0,0,1,,,,,,,,,,,,
,,,,,,,,,,,,,,,,,,5f1e827568c1bb862cb9f5bd,2020-08-10_12h48.46.753,lexical_decision_task_MP,2020.1.3,Win32,60,z,0,,,,,,,,0.791,0,,,,,,121,WORD,"ID",50,thrive,THRIVE,m,0.791,,,,,,0.219030521,-0.23070018,0,0,0,,0,0,0,60,1,
,,,,,,,,,,,,,,,,,,5f1e827568c1bb862cb9f5bd,2020-08-10_12h48.46.753,lexical_decision_task_MP,2020.1.3,Win32,60,m,1,,,,,,,,1.021,1,,,,,,187,WORD,UN,33,social,COURSE,m,1.021,,,,,,0.219030521,-0.23070018,0,0,0,,0,1,1,126,1,
,,,,,,,,,,,,,,,,,,5f1e827568c1bb862cb9f5bd,2020-08-10_12h48.46.753,lexical_decision_task_MP,2020.1.3,Win32,60,z,1,,,,,,,,0.814,1,,,,,,269,NW,UN,50,wrimsy,ORCHET,z,0.814,,,,,,0.219030521,-0.23070018,0,0,0,,0,2,2,448,1,
,,,,,,,,,,,,,,,,,,5f1e827568c1bb862cb9f5bd,2020-08-10_12h48.46.753,lexical_decision_task_MP,2020.1.3,Win32,60,z,1,,,,,,,,0.84,1,,,,,,282,NW,UN,50,veralf,PORLEX,z,0.84,,,,,,0.219030521,-0.23070018,0,0,0,,0,3,3,461,1,
,,,,,,,,,,,,,,,,,,5f1e827568c1bb862cb9f5bd,2020-08-10_12h48.46.753,lexical_decision_task_MP,2020.1.3,Win32,60,m,0,,,,,,,,0.838,0,,,,,,260,NW,UN,50,stunch,UNJECT,z,0.838,,,,,,0.219030521,-0.23070018,0,0,0,,0,4,4,439,1,
,,,,,,,,,,,,,,,,,,5f1e827568c1bb862cb9f5bd,2020-08-10_12h48.46.753,lexical_decision_task_MP,2020.1.3,Win32,60,m,1,,,,,,,,0.817,1,,,,,,62,WORD,"ID",33,region,REGION,m,0.817,,,,,,0.219030521,-0.23070018,0,0,0,,0,5,5,1,1,
,,,,,,,,,,,,,,,,,,5f1e827568c1bb862cb9f5bd,2020-08-10_12h48.46.753,lexical_decision_task_MP,2020.1.3,Win32,60,z,0,,,,,,,,0.844,0,,,,,,113,WORD,"ID",33,chorus,CHORUS,m,0.844,,,,,,0.219030521,-0.23070018,0,0,0,,0,6,6,52,1,
,,,,,,,,,,,,,,,,,,5f1e827568c1bb862cb9f5bd,2020-08-10_12h48.46.753,lexical_decision_task_MP,2020.1.3,Win32,60,m,1,,,,,,,,0.955,1,,,,,,6,WORD,UN,50,anchor,BUNDLE,m,0.955,,,,,,0.219030521,-0.23070018,0,0,0,,0,7,7,185,1,
,,,,,,,,,,,,,,,,,,5f1e827568c1bb862cb9f5bd,2020-08-10_12h48.46.753,lexical_decision_task_MP,2020.1.3,Win32,60,z,0,,,,,,,,0.746,0,,,,,,5,WORD,UN,50,bundle,PLUNGE,m,0.746,,,,,,0.219030521,-0.23070018,0,0,0,,0,8,8,184,1,
,,,,,,,,,,,,,,,,,,5f1e827568c1bb862cb9f5bd,2020-08-10_12h48.46.753,lexical_decision_task_MP,2020.1.3,Win32,60,m,1,,,,,,,,0.615,1,,,,,,148,WORD,"ID",50,custom,CUSTOM,m,0.615,,,,,,0.219030521,-0.23070018,0,0,0,,0,9,9,87,1,
,,,,,,,,,,,,,,,,,,5f1e827568c1bb862cb9f5bd,2020-08-10_12h48.46.753,lexical_decision_task_MP,2020.1.3,Win32,60,z,1,,,,,,,,0.843,1,,,,,,371,NW,"ID",50,geiloy,GEILOY,z,0.843,,,,,,0.219030521,-0.23070018,0,0,0,,0,10,10,310,1,
,,,,,,,,,,,,,,,,,,5f1e827568c1bb862cb9f5bd,2020-08-10_12h48.46.753,lexical_decision_task_MP,2020.1.3,Win32,60,z,1,,,,,,,,0.811,1,,,,,,467,NW,UN,33,wictor,GORBIE,z,0.811,,,,,,0.219030521,-0.23070018,0,0,0,,0,11,11,406,1,
,,,,,,,,,,,,,,,,,,5f1e827568c1bb862cb9f5bd,2020-08-10_12h48.46.753,lexical_decision_task_MP,2020.1.3,Win32,60,m,1,,,,,,,,0.86,1,,,,,,99,WORD,"ID",33,fluent,FLUENT,m,0.86,,,,,,0.219030521,-0.23070018,0,0,0,,0,12,12,38,1,
,,,,,,,,,,,,,,,,,,5f1e827568c1bb862cb9f5bd,2020-08-10_12h48.46.753,lexical_decision_task_MP,2020.1.3,Win32,60,m,1,,,,,,,,0.894,1,,,,,,217,WORD,UN,33,shrink,LIQUOR,m,0.894,,,,,,0.219030521,-0.23070018,0,0,0,,0,13,13,156,1,
,,,,,,,,,,,,,,,,,,5f1e827568c1bb862cb9f5bd,2020-08-10_12h48.46.753,lexical_decision_task_MP,2020.1.3,Win32,60,z,1,,,,,,,,0.874,1,,,,,,459,NW,UN,33,mingar,BAFENT,z,0.874,,,,,,0.219030521,-0.23070018,0,0,0,,0,14,14,398,1,
,,,,,,,,,,,,,,,,,,5f1e827568c1bb862cb9f5bd,2020-08-10_12h48.46.753,lexical_decision_task_MP,2020.1.3,Win32,60,m,1,,,,,,,,0.834,1,,,,,,202,WORD,UN,33,phrase,FACTOR,m,0.834,,,,,,0.219030521,-0.23070018,0,0,0,,0,15,15,141,1,
,,,,,,,,,,,,,,,,,,5f1e827568c1bb862cb9f5bd,2020-08-10_12h48.46.753,lexical_decision_task_MP,2020.1.3,Win32,60,z,1,,,,,,,,1.02,1,,,,,,476,NW,UN,33,photie,JOSTED,z,1.02,,,,,,0.219030521,-0.23070018,0,0,0,,0,16,16,415,1,
,,,,,,,,,,,,,,,,,,5f1e827568c1bb862cb9f5bd,2020-08-10_12h48.46.753,lexical_decision_task_MP,2020.1.3,Win32,60,z,1,,,,,,,,1.081,1,,,,,,360,NW,"ID",33,desory,DESORY,z,1.081,,,,,,0.219030521,-0.23070018,0,0,0,,0,17,17,299,1,
,,,,,,,,,,,,,,,,,,5f1e827568c1bb862cb9f5bd,2020-08-10_12h48.46.753,lexical_decision_task_MP,2020.1.3,Win32,60,m,1,,,,,,,,0.653,1,,,,,,128,WORD,"ID",50,senior,SENIOR,m,0.653,,,,,,0.219030521,-0.23070018,0,0,0,,0,18,18,67,1,
,,,,,,,,,,,,,,,,,,5f1e827568c1bb862cb9f5bd,2020-08-10_12h48.46.753,lexical_decision_task_MP,2020.1.3,Win32,60,m,1,,,,,,,,0.88,1,,,,,,56,WORD,UN,50,change,AMBUSH,m,0.88,,,,,,0.219030521,-0.23070018,0,0,0,,0,19,19,235,1,
,,,,,,,,,,,,,,,,,,5f1e827568c1bb862cb9f5bd,2020-08-10_12h48.46.753,lexical_decision_task_MP,2020.1.3,Win32,60,z,1,,,,,,,,0.958,1,,,,,,262,NW,UN,50,dolica,QUILEW,z,0.958,,,,,,0.219030521,-0.23070018,0,0,0,,0,20,20,441,1,
,,,,,,,,,,,,,,,,,,5f1e827568c1bb862cb9f5bd,2020-08-10_12h48.46.753,lexical_decision_task_MP,2020.1.3,Win32,60,m,1,,,,,,,,0.823,1,,,,,,226,WORD,UN,33,flower,CASINO,m,0.823,,,,,,0.219030521,-0.23070018,0,0,0,,0,21,21,165,1,
,,,,,,,,,,,,,,,,,,5f1e827568c1bb862cb9f5bd,2020-08-10_12h48.46.753,lexical_decision_task_MP,2020.1.3,Win32,60,z,1,,,,,,,,0.833,1,,,,,,414,NW,"ID",50,serbol,SERBOL,z,0.833,,,,,,0.219030521,-0.23070018,0,0,0,,0,22,22,353,1,
,,,,,,,,,,,,,,,,,,5f1e827568c1bb862cb9f5bd,2020-08-10_12h48.46.753,lexical_decision_task_MP,2020.1.3,Win32,60,m,1,,,,,,,,0.731,1,,,,,,127,WORD,"ID",50,castle,CASTLE,m,0.731,,,,,,0.219030521,-0.23070018,0,0,0,,0,23,23,66,1,
,,,,,,,,,,,,,,,,,,5f1e827568c1bb862cb9f5bd,2020-08-10_12h48.46.753,lexical_decision_task_MP,2020.1.3,Win32,60,z,1,,,,,,,,0.98,1,,,,,,471,NW,UN,33,cigney,NOBEST,z,0.98,,,,,,0.219030521,-0.23070018,0,0,0,,0,24,24,410,1,
,,,,,,,,,,,,,,,,,,5f1e827568c1bb862cb9f5bd,2020-08-10_12h48.46.753,lexical_decision_task_MP,2020.1.3,Win32,60,m,1,,,,,,,,0.963,1,,,,,,207,WORD,UN,33,hockey,WREATH,m,0.963,,,,,,0.219030521,-0.23070018,0,0,0,,0,25,25,146,1,
,,,,,,,,,,,,,,,,,,5f1e827568c1bb862cb9f5bd,2020-08-10_12h48.46.753,lexical_decision_task_MP,2020.1.3,Win32,60,m,1,,,,,,,,0.896,1,,,,,,12,WORD,UN,50,strive,ORANGE,m,0.896,,,,,,0.219030521,-0.23070018,0,0,0,,0,26,26,191,1,
,,,,,,,,,,,,,,,,,,5f1e827568c1bb862cb9f5bd,2020-08-10_12h48.46.753,lexical_decision_task_MP,2020.1.3,Win32,60,m,0,,,,,,,,1.153,0,,,,,,314,NW,"ID",33,sprine,SPRINE,z,1.153,,,,,,0.219030521,-0.23070018,0,0,0,,0,27,27,253,1,
,,,,,,,,,,,,,,,,,,5f1e827568c1bb862cb9f5bd,2020-08-10_12h48.46.753,lexical_decision_task_MP,2020.1.3,Win32,60,z,0,,,,,,,,1.085,0,,,,,,115,WORD,"ID",33,guitar,GUITAR,m,1.085,,,,,,0.219030521,-0.23070018,0,0,0,,0,28,28,54,1,
,,,,,,,,,,,,,,,,,,5f1e827568c1bb862cb9f5bd,2020-08-10_12h48.46.753,lexical_decision_task_MP,2020.1.3,Win32,60,z,1,,,,,,,,0.918,1,,,,,,267,NW,UN,50,packes,PASINK,z,0.918,,,,,,0.219030521,-0.23070018,0,0,0,,0,29,29,446,1,
,,,,,,,,,,,,,,,,,,5f1e827568c1bb862cb9f5bd,2020-08-10_12h48.46.753,lexical_decision_task_MP,2020.1.3,Win32,60,z,1,,,,,,,,1.02,1,,,,,,354,NW,"ID",33,virlex,VIRLEX,z,1.02,,,,,,0.219030521,-0.23070018,0,0,0,,0,30,30,293,1,
,,,,,,,,,,,,,,,,,,5f1e827568c1bb862cb9f5bd,2020-08-10_12h48.46.753,lexical_decision_task_MP,2020.1.3,Win32,60,z,1,,,,,,,,1.009,1,,,,,,404,NW,"ID",50,cluirm,CLUIRM,z,1.009,,,,,,0.219030521,-0.23070018,0,0,0,,0,31,31,343,1,
,,,,,,,,,,,,,,,,,,5f1e827568c1bb862cb9f5bd,2020-08-10_12h48.46.753,lexical_decision_task_MP,2020.1.3,Win32,60,z,1,,,,,,,,0.957,1,,,,,,430,NW,UN,33,chrums,CAROEY,z,0.957,,,,,,0.219030521,-0.23070018,0,0,0,,0,32,32,369,1,
,,,,,,,,,,,,,,,,,,5f1e827568c1bb862cb9f5bd,2020-08-10_12h48.46.753,lexical_decision_task_MP,2020.1.3,Win32,60,z,1,,,,,,,,0.95,1,,,,,,258,NW,UN,50,soudal,POLUTH,z,0.95,,,,,,0.219030521,-0.23070018,0,0,0,,0,33,33,437,1,
,,,,,,,,,,,,,,,,,,5f1e827568c1bb862cb9f5bd,2020-08-10_12h48.46.753,lexical_decision_task_MP,2020.1.3,Win32,60,z,1,,,,,,,,1.27,1,,,,,,313,NW,"ID",33,paurse,PAURSE,z,1.27,,,,,,0.219030521,-0.23070018,0,0,0,,0,34,34,252,1,
,,,,,,,,,,,,,,,,,,5f1e827568c1bb862cb9f5bd,2020-08-10_12h48.46.753,lexical_decision_task_MP,2020.1.3,Win32,60,z,1,,,,,,,,1.252,1,,,,,,407,NW,"ID",50,suiver,SUIVER,z,1.252,,,,,,0.219030521,-0.23070018,0,0,0,,0,35,35,346,1,
,,,,,,,,,,,,,,,,,,5f1e827568c1bb862cb9f5bd,2020-08-10_12h48.46.753,lexical_decision_task_MP,2020.1.3,Win32,60,z,1,,,,,,,,0.875,1,,,,,,458,NW,UN,33,hocite,BARCET,z,0.875,,,,,,0.219030521,-0.23070018,0,0,0,,0,36,36,397,1,
,,,,,,,,,,,,,,,,,,5f1e827568c1bb862cb9f5bd,2020-08-10_12h48.46.753,lexical_decision_task_MP,2020.1.3,Win32,60,z,1,,,,,,,,1.544,1,,,,,,320,NW,"ID",33,jockal,JOCKAL,z,1.544,,,,,,0.219030521,-0.23070018,0,0,0,,0,37,37,259,1,
,,,,,,,,,,,,,,,,,,5f1e827568c1bb862cb9f5bd,2020-08-10_12h48.46.753,lexical_decision_task_MP,2020.1.3,Win32,60,z,1,,,,,,,,0.799,1,,,,,,444,NW,UN,33,minkel,JAUNCE,z,0.799,,,,,,0.219030521,-0.23070018,0,0,0,,0,38,38,383,1,
,,,,,,,,,,,,,,,,,,5f1e827568c1bb862cb9f5bd,2020-08-10_12h48.46.753,lexical_decision_task_MP,2020.1.3,Win32,60,z,1,,,,,,,,1.168,1,,,,,,297,NW,UN,50,piergy,FERTIC,z,1.168,,,,,,0.219030521,-0.23070018,0,0,0,,0,39,39,476,1,
,,,,,,,,,,,,,,,,,,5f1e827568c1bb862cb9f5bd,2020-08-10_12h48.46.753,lexical_decision_task_MP,2020.1.3,Win32,60,m,1,,,,,,,,0.896,1,,,,,,208,WORD,UN,33,search,HOCKEY,m,0.896,,,,,,0.219030521,-0.23070018,0,0,0,,0,40,40,147,1,
,,,,,,,,,,,,,,,,,,5f1e827568c1bb862cb9f5bd,2020-08-10_12h48.46.753,lexical_decision_task_MP,2020.1.3,Win32,60,z,1,,,,,,,,1.303,1,,,,,,405,NW,"ID",50,flumni,FLUMNI,z,1.303,,,,,,0.219030521,-0.23070018,0,0,0,,0,41,41,344,1,
,,,,,,,,,,,,,,,,,,5f1e827568c1bb862cb9f5bd,2020-08-10_12h48.46.753,lexical_decision_task_MP,2020.1.3,Win32,60,m,1,,,,,,,,0.942,1,,,,,,110,WORD,"ID",33,polite,POLITE,m,0.942,,,,,,0.219030521,-0.23070018,0,0,0,,0,42,42,49,1,
,,,,,,,,,,,,,,,,,,5f1e827568c1bb862cb9f5bd,2020-08-10_12h48.46.753,lexical_decision_task_MP,2020.1.3,Win32,60,m,1,,,,,,,,0.815,1,,,,,,46,WORD,UN,50,income,SINGLE,m,0.815,,,,,,0.219030521,-0.23070018,0,0,0,,0,43,43,225,1,
,,,,,,,,,,,,,,,,,,5f1e827568c1bb862cb9f5bd,2020-08-10_12h48.46.753,lexical_decision_task_MP,2020.1.3,Win32,60,z,1,,,,,,,,0.896,1,,,,,,271,NW,UN,50,damilt,AUBRID,z,0.896,,,,,,0.219030521,-0.23070018,0,0,0,,0,44,44,450,1,
,,,,,,,,,,,,,,,,,,5f1e827568c1bb862cb9f5bd,2020-08-10_12h48.46.753,lexical_decision_task_MP,2020.1.3,Win32,60,z,1,,,,,,,,1.02,1,,,,,,468,NW,UN,33,padifs,WICTOR,z,1.02,,,,,,0.219030521,-0.23070018,0,0,0,,0,45,45,407,1,
,,,,,,,,,,,,,,,,,,5f1e827568c1bb862cb9f5bd,2020-08-10_12h48.46.753,lexical_decision_task_MP,2020.1.3,Win32,60,m,1,,,,,,,,0.777,1,,,,,,160,WORD,"ID",50,violet,VIOLET,m,0.777,,,,,,0.219030521,-0.23070018,0,0,0,,0,46,46,99,1,
,,,,,,,,,,,,,,,,,,5f1e827568c1bb862cb9f5bd,2020-08-10_12h48.46.753,lexical_decision_task_MP,2020.1.3,Win32,60,z,0,,,,,,,,0.956,0,,,,,,111,WORD,"ID",33,induce,INDUCE,m,0.956,,,,,,0.219030521,-0.23070018,0,0,0,,0,47,47,50,1,
,,,,,,,,,,,,,,,,,,5f1e827568c1bb862cb9f5bd,2020-08-10_12h48.46.753,lexical_decision_task_MP,2020.1.3,Win32,60,z,0,,,,,,,,0.959,0,,,,,,171,WORD,"ID",50,depart,DEPART,m,0.959,,,,,,0.219030521,-0.23070018,0,0,0,,0,48,48,110,1,
,,,,,,,,,,,,,,,,,,5f1e827568c1bb862cb9f5bd,2020-08-10_12h48.46.753,lexical_decision_task_MP,2020.1.3,Win32,60,m,1,,,,,,,,1.091,1,,,,,,13,WORD,UN,50,almost,STRIVE,m,1.091,,,,,,0.219030521,-0.23070018,0,0,0,,0,49,49,192,1,
,,,,,,,,,,,,,,,,,,5f1e827568c1bb862cb9f5bd,2020-08-10_12h48.46.753,lexical_decision_task_MP,2020.1.3,Win32,60,z,1,,,,,,,,0.936,1,,,,,,400,NW,"ID",50,wearox,WEAROX,z,0.936,,,,,,0.219030521,-0.23070018,0,0,0,,0,50,50,339,1,
,,,,,,,,,,,,,,,,,,5f1e827568c1bb862cb9f5bd,2020-08-10_12h48.46.753,lexical_decision_task_MP,2020.1.3,Win32,60,m,1,,,,,,,,0.9,1,,,,,,23,WORD,UN,50,praise,WEALTH,m,0.9,,,,,,0.219030521,-0.23070018,0,0,0,,0,51,51,202,1,
,,,,,,,,,,,,,,,,,,5f1e827568c1bb862cb9f5bd,2020-08-10_12h48.46.753,lexical_decision_task_MP,2020.1.3,Win32,60,m,1,,,,,,,,0.872,1,,,,,,10,WORD,UN,50,cruise,ETHNIC,m,0.872,,,,,,0.219030521,-0.23070018,0,0,0,,0,52,52,189,1,
,,,,,,,,,,,,,,,,,,5f1e827568c1bb862cb9f5bd,2020-08-10_12h48.46.753,lexical_decision_task_MP,2020.1.3,Win32,60,m,1,,,,,,,,0.999,1,,,,,,204,WORD,UN,33,lounge,BURDEN,m,0.999,,,,,,0.219030521,-0.23070018,0,0,0,,0,53,53,143,1,
,,,,,,,,,,,,,,,,,,5f1e827568c1bb862cb9f5bd,2020-08-10_12h48.46.753,lexical_decision_task_MP,2020.1.3,Win32,60,z,1,,,,,,,,0.864,1,,,,,,308,NW,"ID",33,psetch,PSETCH,z,0.864,,,,,,0.219030521,-0.23070018,0,0,0,,0,54,54,247,1,
,,,,,,,,,,,,,,,,,,5f1e827568c1bb862cb9f5bd,2020-08-10_12h48.46.753,lexical_decision_task_MP,2020.1.3,Win32,60,z,1,,,,,,,,0.986,1,,,,,,432,NW,UN,33,drance,LUNKER,z,0.986,,,,,,0.219030521,-0.23070018,0,0,0,,0,55,55,371,1,
,,,,,,,,,,,,,,,,,,5f1e827568c1bb862cb9f5bd,2020-08-10_12h48.46.753,lexical_decision_task_MP,2020.1.3,Win32,60,z,1,,,,,,,,1.114,1,,,,,,242,NW,UN,50,musied,UNWERT,z,1.114,,,,,,0.219030521,-0.23070018,0,0,0,,0,56,56,421,1,
,,,,,,,,,,,,,,,,,,5f1e827568c1bb862cb9f5bd,2020-08-10_12h48.46.753,lexical_decision_task_MP,2020.1.3,Win32,60,z,1,,,,,,,,0.988,1,,,,,,443,NW,UN,33,jaunce,DORSEX,z,0.988,,,,,,0.219030521,-0.23070018,0,0,0,,0,57,57,382,1,
,,,,,,,,,,,,,,,,,,5f1e827568c1bb862cb9f5bd,2020-08-10_12h48.46.753,lexical_decision_task_MP,2020.1.3,Win32,60,m,0,,,,,,,,1.02,0,,,,,,292,NW,UN,50,swance,ABLINT,z,1.02,,,,,,0.219030521,-0.23070018,0,0,0,,0,58,58,471,1,
,,,,,,,,,,,,,,,,,,5f1e827568c1bb862cb9f5bd,2020-08-10_12h48.46.753,lexical_decision_task_MP,2020.1.3,Win32,60,z,1,,,,,,,,0.947,1,,,,,,376,NW,"ID",50,iguare,IGUARE,z,0.947,,,,,,0.219030521,-0.23070018,0,0,0,,0,59,59,315,1,
,,,,,,,,,,,,,,,,,,5f1e827568c1bb862cb9f5bd,2020-08-10_12h48.46.753,lexical_decision_task_MP,2020.1.3,Win32,60,m,1,,,,,,,,0.758,1,,,,,,44,WORD,UN,50,clergy,DANGER,m,0.758,,,,,,0.219030521,-0.23070018,0,0,0,,0,60,60,223,1,
,,,,,,,,,,,,,,,,,,5f1e827568c1bb862cb9f5bd,2020-08-10_12h48.46.753,lexical_decision_task_MP,2020.1.3,Win32,60,m,1,,,,,,,,1.158,1,,,,,,189,WORD,UN,33,backup,CENSOR,m,1.158,,,,,,0.219030521,-0.23070018,0,0,0,,0,61,61,128,1,
,,,,,,,,,,,,,,,,,,5f1e827568c1bb862cb9f5bd,2020-08-10_12h48.46.753,lexical_decision_task_MP,2020.1.3,Win32,60,m,0,,,,,,,,0.978,0,,,,,,319,NW,"ID",33,zomber,ZOMBER,z,0.978,,,,,,0.219030521,-0.23070018,0,0,0,,0,62,62,258,1,
,,,,,,,,,,,,,,,,,,5f1e827568c1bb862cb9f5bd,2020-08-10_12h48.46.753,lexical_decision_task_MP,2020.1.3,Win32,60,m,1,,,,,,,,1.049,1,,,,,,95,WORD,"ID",33,thread,THREAD,m,1.049,,,,,,0.219030521,-0.23070018,0,0,0,,0,63,63,34,1,
,,,,,,,,,,,,,,,,,,5f1e827568c1bb862cb9f5bd,2020-08-10_12h48.46.753,lexical_decision_task_MP,2020.1.3,Win32,60,m,1,,,,,,,,0.998,1,,,,,,163,WORD,"ID",50,string,STRING,m,0.998,,,,,,0.219030521,-0.23070018,0,0,0,,0,64,64,102,1,
,,,,,,,,,,,,,,,,,,5f1e827568c1bb862cb9f5bd,2020-08-10_12h48.46.753,lexical_decision_task_MP,2020.1.3,Win32,60,z,1,,,,,,,,1.043,1,,,,,,453,NW,UN,33,scouge,BOLVIS,z,1.043,,,,,,0.219030521,-0.23070018,0,0,0,,0,65,65,392,1,
,,,,,,,,,,,,,,,,,,5f1e827568c1bb862cb9f5bd,2020-08-10_12h48.46.753,lexical_decision_task_MP,2020.1.3,Win32,60,z,1,,,,,,,,1.196,1,,,,,,369,NW,"ID",50,wronch,WRONCH,z,1.196,,,,,,0.219030521,-0.23070018,0,0,0,,0,66,66,308,1,
,,,,,,,,,,,,,,,,,,5f1e827568c1bb862cb9f5bd,2020-08-10_12h48.46.753,lexical_decision_task_MP,2020.1.3,Win32,60,z,1,,,,,,,,0.998,1,,,,,,335,NW,"ID",33,desion,DESION,z,0.998,,,,,,0.219030521,-0.23070018,0,0,0,,0,67,67,274,1,
,,,,,,,,,,,,,,,,,,5f1e827568c1bb862cb9f5bd,2020-08-10_12h48.46.753,lexical_decision_task_MP,2020.1.3,Win32,60,z,0,,,,,,,,1.055,0,,,,,,142,WORD,"ID",50,spruce,SPRUCE,m,1.055,,,,,,0.219030521,-0.23070018,0,0,0,,0,68,68,81,1,
,,,,,,,,,,,,,,,,,,5f1e827568c1bb862cb9f5bd,2020-08-10_12h48.46.753,lexical_decision_task_MP,2020.1.3,Win32,60,m,0,,,,,,,,1.032,0,,,,,,358,NW,"ID",33,fleack,FLEACK,z,1.032,,,,,,0.219030521,-0.23070018,0,0,0,,0,69,69,297,1,
,,,,,,,,,,,,,,,,,,5f1e827568c1bb862cb9f5bd,2020-08-10_12h48.46.753,lexical_decision_task_MP,2020.1.3,Win32,60,m,1,,,,,,,,1.031,1,,,,,,33,WORD,UN,50,jungle,BUTLER,m,1.031,,,,,,0.219030521,-0.23070018,0,0,0,,0,70,70,212,1,
,,,,,,,,,,,,,,,,,,5f1e827568c1bb862cb9f5bd,2020-08-10_12h48.46.753,lexical_decision_task_MP,2020.1.3,Win32,60,m,1,,,,,,,,0.878,1,,,,,,164,WORD,"ID",50,market,MARKET,m,0.878,,,,,,0.219030521,-0.23070018,0,0,0,,0,71,71,103,1,
,,,,,,,,,,,,,,,,,,5f1e827568c1bb862cb9f5bd,2020-08-10_12h48.46.753,lexical_decision_task_MP,2020.1.3,Win32,60,m,1,,,,,,,,1.124,1,,,,,,91,WORD,"ID",33,expand,EXPAND,m,1.124,,,,,,0.219030521,-0.23070018,0,0,0,,0,72,72,30,1,
,,,,,,,,,,,,,,,,,,5f1e827568c1bb862cb9f5bd,2020-08-10_12h48.46.753,lexical_decision_task_MP,2020.1.3,Win32,60,z,1,,,,,,,,1.311,1,,,,,,474,NW,UN,33,acrise,HABLIN,z,1.311,,,,,,0.219030521,-0.23070018,0,0,0,,0,73,73,413,1,
,,,,,,,,,,,,,,,,,,5f1e827568c1bb862cb9f5bd,2020-08-10_12h48.46.753,lexical_decision_task_MP,2020.1.3,Win32,60,m,1,,,,,,,,0.881,1,,,,,,103,WORD,"ID",33,bounce,BOUNCE,m,0.881,,,,,,0.219030521,-0.23070018,0,0,0,,0,74,74,42,1,
,,,,,,,,,,,,,,,,,,5f1e827568c1bb862cb9f5bd,2020-08-10_12h48.46.753,lexical_decision_task_MP,2020.1.3,Win32,60,m,0,,,,,,,,0.881,0,,,,,,422,NW,UN,33,streld,ALCOUD,z,0.881,,,,,,0.219030521,-0.23070018,0,0,0,,0,75,75,361,1,
,,,,,,,,,,,,,,,,,,5f1e827568c1bb862cb9f5bd,2020-08-10_12h48.46.753,lexical_decision_task_MP,2020.1.3,Win32,60,z,1,,,,,,,,0.773,1,,,,,,322,NW,"ID",33,slanch,SLANCH,z,0.773,,,,,,0.219030521,-0.23070018,0,0,0,,0,76,76,261,1,
,,,,,,,,,,,,,,,,,,5f1e827568c1bb862cb9f5bd,2020-08-10_12h48.46.753,lexical_decision_task_MP,2020.1.3,Win32,60,m,1,,,,,,,,0.837,1,,,,,,224,WORD,UN,33,vulgar,PERIOD,m,0.837,,,,,,0.219030521,-0.23070018,0,0,0,,0,77,77,163,1,
,,,,,,,,,,,,,,,,,,5f1e827568c1bb862cb9f5bd,2020-08-10_12h48.46.753,lexical_decision_task_MP,2020.1.3,Win32,60,z,1,,,,,,,,0.901,1,,,,,,435,NW,UN,33,frutan,IMPURB,z,0.901,,,,,,0.219030521,-0.23070018,0,0,0,,0,78,78,374,1,
,,,,,,,,,,,,,,,,,,5f1e827568c1bb862cb9f5bd,2020-08-10_12h48.46.753,lexical_decision_task_MP,2020.1.3,Win32,60,m,1,,,,,,,,0.748,1,,,,,,130,WORD,"ID",50,stupid,STUPID,m,0.748,,,,,,0.219030521,-0.23070018,0,0,0,,0,79,79,69,1,
,,,,,,,,,,,,,,,,,,5f1e827568c1bb862cb9f5bd,2020-08-10_12h48.46.753,lexical_decision_task_MP,2020.1.3,Win32,60,m,1,,,,,,,,1.127,1,,,,,,203,WORD,UN,33,burden,PHRASE,m,1.127,,,,,,0.219030521,-0.23070018,0,0,0,,0,80,80,142,1,
,,,,,,,,,,,,,,,,,,5f1e827568c1bb862cb9f5bd,2020-08-10_12h48.46.753,lexical_decision_task_MP,2020.1.3,Win32,60,m,1,,,,,,,,0.898,1,,,,,,227,WORD,UN,33,master,SELDOM,m,0.898,,,,,,0.219030521,-0.23070018,0,0,0,,0,81,81,166,1,
,,,,,,,,,,,,,,,,,,5f1e827568c1bb862cb9f5bd,2020-08-10_12h48.46.753,lexical_decision_task_MP,2020.1.3,Win32,60,z,1,,,,,,,,1.089,1,,,,,,337,NW,"ID",33,rejols,REJOLS,z,1.089,,,,,,0.219030521,-0.23070018,0,0,0,,0,82,82,276,1,
,,,,,,,,,,,,,,,,,,5f1e827568c1bb862cb9f5bd,2020-08-10_12h48.46.753,lexical_decision_task_MP,2020.1.3,Win32,60,z,1,,,,,,,,1.248,1,,,,,,403,NW,"ID",50,bruats,BRUATS,z,1.248,,,,,,0.219030521,-0.23070018,0,0,0,,0,83,83,342,1,
,,,,,,,,,,,,,,,,,,5f1e827568c1bb862cb9f5bd,2020-08-10_12h48.46.753,lexical_decision_task_MP,2020.1.3,Win32,60,m,1,,,,,,,,1.304,1,,,,,,19,WORD,UN,50,breast,PATRON,m,1.304,,,,,,0.219030521,-0.23070018,0,0,0,,0,84,84,198,1,
,,,,,,,,,,,,,,,,,,5f1e827568c1bb862cb9f5bd,2020-08-10_12h48.46.753,lexical_decision_task_MP,2020.1.3,Win32,60,m,0,,,,,,,,1.572,0,,,,,,291,NW,UN,50,ablint,PRETCH,z,1.572,,,,,,0.219030521,-0.23070018,0,0,0,,0,85,85,470,1,
,,,,,,,,,,,,,,,,,,5f1e827568c1bb862cb9f5bd,2020-08-10_12h48.46.753,lexical_decision_task_MP,2020.1.3,Win32,60,z,1,,,,,,,,1.06,1,,,,,,299,NW,UN,50,yarion,STURCH,z,1.06,,,,,,0.219030521,-0.23070018,0,0,0,,0,86,86,478,1,
,,,,,,,,,,,,,,,,,,5f1e827568c1bb862cb9f5bd,2020-08-10_12h48.46.753,lexical_decision_task_MP,2020.1.3,Win32,60,z,1,,,,,,,,0.863,1,,,,,,366,NW,"ID",50,toshel,TOSHEL,z,0.863,,,,,,0.219030521,-0.23070018,0,0,0,,0,87,87,305,1,
,,,,,,,,,,,,,,,,,,5f1e827568c1bb862cb9f5bd,2020-08-10_12h48.46.753,lexical_decision_task_MP,2020.1.3,Win32,60,z,0,,,,,,,,1.166,0,,,,,,220,WORD,UN,33,mascot,VOYAGE,m,1.166,,,,,,0.219030521,-0.23070018,0,0,0,,0,88,88,159,1,
,,,,,,,,,,,,,,,,,,5f1e827568c1bb862cb9f5bd,2020-08-10_12h48.46.753,lexical_decision_task_MP,2020.1.3,Win32,60,m,1,,,,,,,,1.083,1,,,,,,42,WORD,UN,50,tongue,CHAPEL,m,1.083,,,,,,0.219030521,-0.23070018,0,0,0,,0,89,89,221,1,
,,,,,,,,,,,,,,,,,,5f1e827568c1bb862cb9f5bd,2020-08-10_12h48.46.753,lexical_decision_task_MP,2020.1.3,Win32,60,z,1,,,,,,,,1.173,1,,,,,,268,NW,UN,50,orchet,PACKES,z,1.173,,,,,,0.219030521,-0.23070018,0,0,0,,0,90,90,447,1,
,,,,,,,,,,,,,,,,,,5f1e827568c1bb862cb9f5bd,2020-08-10_12h48.46.753,lexical_decision_task_MP,2020.1.3,Win32,60,z,1,,,,,,,,1,1,,,,,,323,NW,"ID",33,rosail,ROSAIL,z,1,,,,,,0.219030521,-0.23070018,0,0,0,,0,91,91,262,1,
,,,,,,,,,,,,,,,,,,5f1e827568c1bb862cb9f5bd,2020-08-10_12h48.46.753,lexical_decision_task_MP,2020.1.3,Win32,60,z,1,,,,,,,,1.229,1,,,,,,283,NW,UN,50,shaple,VERALF,z,1.229,,,,,,0.219030521,-0.23070018,0,0,0,,0,92,92,462,1,
,,,,,,,,,,,,,,,,,,5f1e827568c1bb862cb9f5bd,2020-08-10_12h48.46.753,lexical_decision_task_MP,2020.1.3,Win32,60,z,0,,,,,,,,0.818,0,,,,,,4,WORD,UN,50,plunge,TRENCH,m,0.818,,,,,,0.219030521,-0.23070018,0,0,0,,0,93,93,183,1,
,,,,,,,,,,,,,,,,,,5f1e827568c1bb862cb9f5bd,2020-08-10_12h48.46.753,lexical_decision_task_MP,2020.1.3,Win32,60,z,1,,,,,,,,1.479,1,,,,,,318,NW,"ID",33,reagly,REAGLY,z,1.479,,,,,,0.219030521,-0.23070018,0,0,0,,0,94,94,257,1,
,,,,,,,,,,,,,,,,,,5f1e827568c1bb862cb9f5bd,2020-08-10_12h48.46.753,lexical_decision_task_MP,2020.1.3,Win32,60,z,0,,,,,,,,0.969,0,,,,,,234,WORD,UN,33,poster,CLUMSY,m,0.969,,,,,,0.219030521,-0.23070018,0,0,0,,0,95,95,173,1,
,,,,,,,,,,,,,,,,,,5f1e827568c1bb862cb9f5bd,2020-08-10_12h48.46.753,lexical_decision_task_MP,2020.1.3,Win32,60,z,1,,,,,,,,0.899,1,,,,,,367,NW,"ID",50,slique,SLIQUE,z,0.899,,,,,,0.219030521,-0.23070018,0,0,0,,0,96,96,306,1,
,,,,,,,,,,,,,,,,,,5f1e827568c1bb862cb9f5bd,2020-08-10_12h48.46.753,lexical_decision_task_MP,2020.1.3,Win32,60,z,1,,,,,,,,0.916,1,,,,,,479,NW,UN,33,crible,LOBUSH,z,0.916,,,,,,0.219030521,-0.23070018,0,0,0,,0,97,97,418,1,
,,,,,,,,,,,,,,,,,,5f1e827568c1bb862cb9f5bd,2020-08-10_12h48.46.753,lexical_decision_task_MP,2020.1.3,Win32,60,z,1,,,,,,,,1.739,1,,,,,,301,NW,"ID",33,fainch,FAINCH,z,1.739,,,,,,0.219030521,-0.23070018,0,0,0,,0,98,98,240,1,
,,,,,,,,,,,,,,,,,,5f1e827568c1bb862cb9f5bd,2020-08-10_12h48.46.753,lexical_decision_task_MP,2020.1.3,Win32,60,m,1,,,,,,,,0.825,1,,,,,,96,WORD,"ID",33,ignore,IGNORE,m,0.825,,,,,,0.219030521,-0.23070018,0,0,0,,0,99,99,35,1,
,,,,,,,,,,,,,,,,,,5f1e827568c1bb862cb9f5bd,2020-08-10_12h48.46.753,lexical_decision_task_MP,2020.1.3,Win32,60,z,1,,,,,,,,0.824,1,,,,,,339,NW,"ID",33,fachow,FACHOW,z,0.824,,,,,,0.219030521,-0.23070018,0,0,0,,0,100,100,278,1,
,,,,,,,,,,,,,,,,,,5f1e827568c1bb862cb9f5bd,2020-08-10_12h48.46.753,lexical_decision_task_MP,2020.1.3,Win32,60,m,1,,,,,,,,1.129,1,,,,,,69,WORD,"ID",33,plenty,PLENTY,m,1.129,,,,,,0.219030521,-0.23070018,0,0,0,,0,101,101,8,1,
,,,,,,,,,,,,,,,,,,5f1e827568c1bb862cb9f5bd,2020-08-10_12h48.46.753,lexical_decision_task_MP,2020.1.3,Win32,60,z,1,,,,,,,,1.036,1,,,,,,466,NW,UN,33,robuly,HOCITE,z,1.036,,,,,,0.219030521,-0.23070018,0,0,0,,0,102,102,405,1,
,,,,,,,,,,,,,,,,,,5f1e827568c1bb862cb9f5bd,2020-08-10_12h48.46.753,lexical_decision_task_MP,2020.1.3,Win32,60,z,1,,,,,,,,0.969,1,,,,,,288,NW,UN,50,starby,YACEUP,z,0.969,,,,,,0.219030521,-0.23070018,0,0,0,,0,103,103,467,1,
,,,,,,,,,,,,,,,,,,5f1e827568c1bb862cb9f5bd,2020-08-10_12h48.46.753,lexical_decision_task_MP,2020.1.3,Win32,60,m,1,,,,,,,,1.125,1,,,,,,170,WORD,"ID",50,pounce,POUNCE,m,1.125,,,,,,0.219030521,-0.23070018,0,0,0,,0,104,104,109,1,
,,,,,,,,,,,,,,,,,,5f1e827568c1bb862cb9f5bd,2020-08-10_12h48.46.753,lexical_decision_task_MP,2020.1.3,Win32,60,z,1,,,,,,,,0.895,1,,,,,,325,NW,"ID",33,thruse,THRUSE,z,0.895,,,,,,0.219030521,-0.23070018,0,0,0,,0,105,105,264,1,
,,,,,,,,,,,,,,,,,,5f1e827568c1bb862cb9f5bd,2020-08-10_12h48.46.753,lexical_decision_task_MP,2020.1.3,Win32,60,z,1,,,,,,,,0.944,1,,,,,,251,NW,UN,50,stapod,LUPICT,z,0.944,,,,,,0.219030521,-0.23070018,0,0,0,,0,106,106,430,1,
,,,,,,,,,,,,,,,,,,5f1e827568c1bb862cb9f5bd,2020-08-10_12h48.46.753,lexical_decision_task_MP,2020.1.3,Win32,60,m,1,,,,,,,,0.867,1,,,,,,1,WORD,UN,50,ethnic,FRIGHT,m,0.867,,,,,,0.219030521,-0.23070018,0,0,0,,0,107,107,180,1,
,,,,,,,,,,,,,,,,,,5f1e827568c1bb862cb9f5bd,2020-08-10_12h48.46.753,lexical_decision_task_MP,2020.1.3,Win32,60,m,1,,,,,,,,0.8,1,,,,,,73,WORD,"ID",33,source,SOURCE,m,0.8,,,,,,0.219030521,-0.23070018,0,0,0,,0,108,108,12,1,
,,,,,,,,,,,,,,,,,,5f1e827568c1bb862cb9f5bd,2020-08-10_12h48.46.753,lexical_decision_task_MP,2020.1.3,Win32,60,m,0,,,,,,,,0.999,0,,,,,,397,NW,"ID",50,camble,CAMBLE,z,0.999,,,,,,0.219030521,-0.23070018,0,0,0,,0,109,109,336,1,
,,,,,,,,,,,,,,,,,,5f1e827568c1bb862cb9f5bd,2020-08-10_12h48.46.753,lexical_decision_task_MP,2020.1.3,Win32,60,m,0,,,,,,,,1.542,0,,,,,,281,NW,UN,50,porlex,MELATY,z,1.542,,,,,,0.219030521,-0.23070018,0,0,0,,0,110,110,460,1,
,,,,,,,,,,,,,,,,,,5f1e827568c1bb862cb9f5bd,2020-08-10_12h48.46.753,lexical_decision_task_MP,2020.1.3,Win32,60,z,1,,,,,,,,0.738,1,,,,,,241,NW,UN,50,unwert,SMENCO,z,0.738,,,,,,0.219030521,-0.23070018,0,0,0,,0,111,111,420,1,
,,,,,,,,,,,,,,,,,,5f1e827568c1bb862cb9f5bd,2020-08-10_12h48.46.753,lexical_decision_task_MP,2020.1.3,Win32,60,z,1,,,,,,,,1.406,1,,,,,,265,NW,UN,50,varmit,DISTAR,z,1.406,,,,,,0.219030521,-0.23070018,0,0,0,,0,112,112,444,1,
,,,,,,,,,,,,,,,,,,5f1e827568c1bb862cb9f5bd,2020-08-10_12h48.46.753,lexical_decision_task_MP,2020.1.3,Win32,60,z,1,,,,,,,,1.262,1,,,,,,274,NW,UN,50,sleirt,FUMBLO,z,1.262,,,,,,0.219030521,-0.23070018,0,0,0,,0,113,113,453,1,
,,,,,,,,,,,,,,,,,,5f1e827568c1bb862cb9f5bd,2020-08-10_12h48.46.753,lexical_decision_task_MP,2020.1.3,Win32,60,z,1,,,,,,,,1.009,1,,,,,,256,NW,UN,50,veniod,INLORS,z,1.009,,,,,,0.219030521,-0.23070018,0,0,0,,0,114,114,435,1,
,,,,,,,,,,,,,,,,,,5f1e827568c1bb862cb9f5bd,2020-08-10_12h48.46.753,lexical_decision_task_MP,2020.1.3,Win32,60,z,1,,,,,,,,1.234,1,,,,,,246,NW,UN,50,blarge,PIATON,z,1.234,,,,,,0.219030521,-0.23070018,0,0,0,,0,115,115,425,1,
,,,,,,,,,,,,,,,,,,5f1e827568c1bb862cb9f5bd,2020-08-10_12h48.46.753,lexical_decision_task_MP,2020.1.3,Win32,60,m,1,,,,,,,,0.7,1,,,,,,34,WORD,UN,50,socket,JUNGLE,m,0.7,,,,,,0.219030521,-0.23070018,0,0,0,,0,116,116,213,1,
,,,,,,,,,,,,,,,,,,5f1e827568c1bb862cb9f5bd,2020-08-10_12h48.46.753,lexical_decision_task_MP,2020.1.3,Win32,60,m,1,,,,,,,,0.707,1,,,,,,3,WORD,UN,50,trench,KNIGHT,m,0.707,,,,,,0.219030521,-0.23070018,0,0,0,,0,117,117,182,1,
,,,,,,,,,,,,,,,,,,5f1e827568c1bb862cb9f5bd,2020-08-10_12h48.46.753,lexical_decision_task_MP,2020.1.3,Win32,60,z,1,,,,,,,,1.176,1,,,,,,429,NW,UN,33,caroey,FUNTLE,z,1.176,,,,,,0.219030521,-0.23070018,0,0,0,,0,118,118,368,1,
,,,,,,,,,,,,,,,,,,5f1e827568c1bb862cb9f5bd,2020-08-10_12h48.46.753,lexical_decision_task_MP,2020.1.3,Win32,60,z,1,,,,,,,,0.902,1,,,,,,394,NW,"ID",50,spaqux,SPAQUX,z,0.902,,,,,,0.219030521,-0.23070018,0,0,0,,0,119,119,333,1,
,,,,,,,,,,,,,,,,,,5f1e827568c1bb862cb9f5bd,2020-08-10_12h48.46.753,lexical_decision_task_MP,2020.1.3,Win32,60,m,1,,,,,,,,0.753,1,,,,,,169,WORD,"ID",50,genius,GENIUS,m,0.753,,,,,,-0.035906643,-0.404847397,0,0,0,space,0,120,120,108,1,27.953
,,,,,,,,,,,,,,,,,,5f1e827568c1bb862cb9f5bd,2020-08-10_12h48.46.753,lexical_decision_task_MP,2020.1.3,Win32,60,m,1,,,,,,,,0.98,1,,,,,,146,WORD,"ID",50,couple,COUPLE,m,0.98,,,,,,-0.035906643,-0.404847397,0,0,0,,0,121,121,85,1,
,,,,,,,,,,,,,,,,,,5f1e827568c1bb862cb9f5bd,2020-08-10_12h48.46.753,lexical_decision_task_MP,2020.1.3,Win32,60,m,1,,,,,,,,0.937,1,,,,,,196,WORD,UN,33,stream,CREDIT,m,0.937,,,,,,-0.035906643,-0.404847397,0,0,0,,0,122,122,135,1,
,,,,,,,,,,,,,,,,,,5f1e827568c1bb862cb9f5bd,2020-08-10_12h48.46.753,lexical_decision_task_MP,2020.1.3,Win32,60,m,1,,,,,,,,0.924,1,,,,,,120,WORD,"ID",33,strain,STRAIN,m,0.924,,,,,,-0.035906643,-0.404847397,0,0,0,,0,123,123,59,1,
,,,,,,,,,,,,,,,,,,5f1e827568c1bb862cb9f5bd,2020-08-10_12h48.46.753,lexical_decision_task_MP,2020.1.3,Win32,60,z,1,,,,,,,,1.023,1,,,,,,254,NW,UN,50,apight,VAROSH,z,1.023,,,,,,-0.035906643,-0.404847397,0,0,0,,0,124,124,433,1,
,,,,,,,,,,,,,,,,,,5f1e827568c1bb862cb9f5bd,2020-08-10_12h48.46.753,lexical_decision_task_MP,2020.1.3,Win32,60,m,1,,,,,,,,1.02,1,,,,,,157,WORD,"ID",50,dragon,DRAGON,m,1.02,,,,,,-0.035906643,-0.404847397,0,0,0,,0,125,125,96,1,
,,,,,,,,,,,,,,,,,,5f1e827568c1bb862cb9f5bd,2020-08-10_12h48.46.753,lexical_decision_task_MP,2020.1.3,Win32,60,z,0,,,,,,,,1.352,0,,,,,,59,WORD,UN,50,pencil,SPLINT,m,1.352,,,,,,-0.035906643,-0.404847397,0,0,0,,0,126,126,238,1,
,,,,,,,,,,,,,,,,,,5f1e827568c1bb862cb9f5bd,2020-08-10_12h48.46.753,lexical_decision_task_MP,2020.1.3,Win32,60,z,0,,,,,,,,0.916,0,,,,,,108,WORD,"ID",33,reckon,RECKON,m,0.916,,,,,,-0.035906643,-0.404847397,0,0,0,,0,127,127,47,1,
,,,,,,,,,,,,,,,,,,5f1e827568c1bb862cb9f5bd,2020-08-10_12h48.46.753,lexical_decision_task_MP,2020.1.3,Win32,60,z,0,,,,,,,,1.09,0,,,,,,106,WORD,"ID",33,ransom,RANSOM,m,1.09,,,,,,-0.035906643,-0.404847397,0,0,0,,0,128,128,45,1,
,,,,,,,,,,,,,,,,,,5f1e827568c1bb862cb9f5bd,2020-08-10_12h48.46.753,lexical_decision_task_MP,2020.1.3,Win32,60,z,1,,,,,,,,1.114,1,,,,,,278,NW,UN,50,celond,UNIGHS,z,1.114,,,,,,-0.035906643,-0.404847397,0,0,0,,0,129,129,457,1,
,,,,,,,,,,,,,,,,,,5f1e827568c1bb862cb9f5bd,2020-08-10_12h48.46.753,lexical_decision_task_MP,2020.1.3,Win32,60,z,1,,,,,,,,1.075,1,,,,,,326,NW,"ID",33,iguade,IGUADE,z,1.075,,,,,,-0.035906643,-0.404847397,0,0,0,,0,130,130,265,1,
,,,,,,,,,,,,,,,,,,5f1e827568c1bb862cb9f5bd,2020-08-10_12h48.46.753,lexical_decision_task_MP,2020.1.3,Win32,60,z,1,,,,,,,,1.241,1,,,,,,384,NW,"ID",50,guesco,GUESCO,z,1.241,,,,,,-0.035906643,-0.404847397,0,0,0,,0,131,131,323,1,
,,,,,,,,,,,,,,,,,,5f1e827568c1bb862cb9f5bd,2020-08-10_12h48.46.753,lexical_decision_task_MP,2020.1.3,Win32,60,m,1,,,,,,,,0.811,1,,,,,,153,WORD,"ID",50,behold,BEHOLD,m,0.811,,,,,,-0.035906643,-0.404847397,0,0,0,,0,132,132,92,1,
,,,,,,,,,,,,,,,,,,5f1e827568c1bb862cb9f5bd,2020-08-10_12h48.46.753,lexical_decision_task_MP,2020.1.3,Win32,60,m,1,,,,,,,,1.177,1,,,,,,2,WORD,UN,50,knight,BRIDGE,m,1.177,,,,,,-0.035906643,-0.404847397,0,0,0,,0,133,133,181,1,
,,,,,,,,,,,,,,,,,,5f1e827568c1bb862cb9f5bd,2020-08-10_12h48.46.753,lexical_decision_task_MP,2020.1.3,Win32,60,z,1,,,,,,,,0.957,1,,,,,,413,NW,"ID",50,equats,EQUATS,z,0.957,,,,,,-0.035906643,-0.404847397,0,0,0,,0,134,134,352,1,
,,,,,,,,,,,,,,,,,,5f1e827568c1bb862cb9f5bd,2020-08-10_12h48.46.753,lexical_decision_task_MP,2020.1.3,Win32,60,z,1,,,,,,,,0.926,1,,,,,,436,NW,UN,33,snapel,FRUTAN,z,0.926,,,,,,-0.035906643,-0.404847397,0,0,0,,0,135,135,375,1,
,,,,,,,,,,,,,,,,,,5f1e827568c1bb862cb9f5bd,2020-08-10_12h48.46.753,lexical_decision_task_MP,2020.1.3,Win32,60,z,1,,,,,,,,0.844,1,,,,,,273,NW,UN,50,fumblo,SORTEL,z,0.844,,,,,,-0.035906643,-0.404847397,0,0,0,,0,136,136,452,1,
,,,,,,,,,,,,,,,,,,5f1e827568c1bb862cb9f5bd,2020-08-10_12h48.46.753,lexical_decision_task_MP,2020.1.3,Win32,60,z,0,,,,,,,,1.215,0,,,,,,122,WORD,"ID",50,linger,LINGER,m,1.215,,,,,,-0.035906643,-0.404847397,0,0,0,,0,137,137,61,1,
,,,,,,,,,,,,,,,,,,5f1e827568c1bb862cb9f5bd,2020-08-10_12h48.46.753,lexical_decision_task_MP,2020.1.3,Win32,60,m,1,,,,,,,,0.759,1,,,,,,182,WORD,UN,33,absent,WINTER,m,0.759,,,,,,-0.035906643,-0.404847397,0,0,0,,0,138,138,121,1,
,,,,,,,,,,,,,,,,,,5f1e827568c1bb862cb9f5bd,2020-08-10_12h48.46.753,lexical_decision_task_MP,2020.1.3,Win32,60,z,1,,,,,,,,1.028,1,,,,,,253,NW,UN,50,varosh,RESAIT,z,1.028,,,,,,-0.035906643,-0.404847397,0,0,0,,0,139,139,432,1,
,,,,,,,,,,,,,,,,,,5f1e827568c1bb862cb9f5bd,2020-08-10_12h48.46.753,lexical_decision_task_MP,2020.1.3,Win32,60,m,1,,,,,,,,0.796,1,,,,,,158,WORD,"ID",50,island,ISLAND,m,0.796,,,,,,-0.035906643,-0.404847397,0,0,0,,0,140,140,97,1,
,,,,,,,,,,,,,,,,,,5f1e827568c1bb862cb9f5bd,2020-08-10_12h48.46.753,lexical_decision_task_MP,2020.1.3,Win32,60,z,1,,,,,,,,0.842,1,,,,,,349,NW,"ID",33,asylen,ASYLEN,z,0.842,,,,,,-0.035906643,-0.404847397,0,0,0,,0,141,141,288,1,
,,,,,,,,,,,,,,,,,,5f1e827568c1bb862cb9f5bd,2020-08-10_12h48.46.753,lexical_decision_task_MP,2020.1.3,Win32,60,m,1,,,,,,,,1.416,1,,,,,,177,WORD,"ID",50,advent,ADVENT,m,1.416,,,,,,-0.035906643,-0.404847397,0,0,0,,0,142,142,116,1,
,,,,,,,,,,,,,,,,,,5f1e827568c1bb862cb9f5bd,2020-08-10_12h48.46.753,lexical_decision_task_MP,2020.1.3,Win32,60,z,1,,,,,,,,0.845,1,,,,,,434,NW,UN,33,impurb,PITROM,z,0.845,,,,,,-0.035906643,-0.404847397,0,0,0,,0,143,143,373,1,
,,,,,,,,,,,,,,,,,,5f1e827568c1bb862cb9f5bd,2020-08-10_12h48.46.753,lexical_decision_task_MP,2020.1.3,Win32,60,z,1,,,,,,,,0.741,1,,,,,,263,NW,UN,50,vackel,DOLICA,z,0.741,,,,,,-0.035906643,-0.404847397,0,0,0,,0,144,144,442,1,
,,,,,,,,,,,,,,,,,,5f1e827568c1bb862cb9f5bd,2020-08-10_12h48.46.753,lexical_decision_task_MP,2020.1.3,Win32,60,m,1,,,,,,,,1.174,1,,,,,,89,WORD,"ID",33,permit,PERMIT,m,1.174,,,,,,-0.035906643,-0.404847397,0,0,0,,0,145,145,28,1,
,,,,,,,,,,,,,,,,,,5f1e827568c1bb862cb9f5bd,2020-08-10_12h48.46.753,lexical_decision_task_MP,2020.1.3,Win32,60,z,1,,,,,,,,0.852,1,,,,,,382,NW,"ID",50,sarley,SARLEY,z,0.852,,,,,,-0.035906643,-0.404847397,0,0,0,,0,146,146,321,1,
,,,,,,,,,,,,,,,,,,5f1e827568c1bb862cb9f5bd,2020-08-10_12h48.46.753,lexical_decision_task_MP,2020.1.3,Win32,60,m,1,,,,,,,,0.823,1,,,,,,36,WORD,UN,50,insult,VANISH,m,0.823,,,,,,-0.035906643,-0.404847397,0,0,0,,0,147,147,215,1,
,,,,,,,,,,,,,,,,,,5f1e827568c1bb862cb9f5bd,2020-08-10_12h48.46.753,lexical_decision_task_MP,2020.1.3,Win32,60,m,1,,,,,,,,0.821,1,,,,,,233,WORD,UN,33,clumsy,NATURE,m,0.821,,,,,,-0.035906643,-0.404847397,0,0,0,,0,148,148,172,1,
,,,,,,,,,,,,,,,,,,5f1e827568c1bb862cb9f5bd,2020-08-10_12h48.46.753,lexical_decision_task_MP,2020.1.3,Win32,60,m,1,,,,,,,,1.045,1,,,,,,24,WORD,UN,50,domain,PRAISE,m,1.045,,,,,,-0.035906643,-0.404847397,0,0,0,,0,149,149,203,1,
,,,,,,,,,,,,,,,,,,5f1e827568c1bb862cb9f5bd,2020-08-10_12h48.46.753,lexical_decision_task_MP,2020.1.3,Win32,60,z,1,,,,,,,,1.859,1,,,,,,426,NW,UN,33,schind,URIVEL,z,1.859,,,,,,-0.035906643,-0.404847397,0,0,0,,0,150,150,365,1,
,,,,,,,,,,,,,,,,,,5f1e827568c1bb862cb9f5bd,2020-08-10_12h48.46.753,lexical_decision_task_MP,2020.1.3,Win32,60,m,1,,,,,,,,0.989,1,,,,,,39,WORD,UN,50,convey,INSECT,m,0.989,,,,,,-0.035906643,-0.404847397,0,0,0,,0,151,151,218,1,
,,,,,,,,,,,,,,,,,,5f1e827568c1bb862cb9f5bd,2020-08-10_12h48.46.753,lexical_decision_task_MP,2020.1.3,Win32,60,m,1,,,,,,,,1.084,1,,,,,,117,WORD,"ID",33,branch,BRANCH,m,1.084,,,,,,-0.035906643,-0.404847397,0,0,0,,0,152,152,56,1,
,,,,,,,,,,,,,,,,,,5f1e827568c1bb862cb9f5bd,2020-08-10_12h48.46.753,lexical_decision_task_MP,2020.1.3,Win32,60,z,1,,,,,,,,1.234,1,,,,,,406,NW,"ID",50,nouply,NOUPLY,z,1.234,,,,,,-0.035906643,-0.404847397,0,0,0,,0,153,153,345,1,
,,,,,,,,,,,,,,,,,,5f1e827568c1bb862cb9f5bd,2020-08-10_12h48.46.753,lexical_decision_task_MP,2020.1.3,Win32,60,z,1,,,,,,,,0.969,1,,,,,,309,NW,"ID",33,amiloy,AMILOY,z,0.969,,,,,,-0.035906643,-0.404847397,0,0,0,,0,154,154,248,1,
,,,,,,,,,,,,,,,,,,5f1e827568c1bb862cb9f5bd,2020-08-10_12h48.46.753,lexical_decision_task_MP,2020.1.3,Win32,60,m,1,,,,,,,,0.958,1,,,,,,237,WORD,UN,33,glance,POSTER,m,0.958,,,,,,-0.035906643,-0.404847397,0,0,0,,0,155,155,176,1,
,,,,,,,,,,,,,,,,,,5f1e827568c1bb862cb9f5bd,2020-08-10_12h48.46.753,lexical_decision_task_MP,2020.1.3,Win32,60,m,1,,,,,,,,0.776,1,,,,,,97,WORD,"ID",33,client,CLIENT,m,0.776,,,,,,-0.035906643,-0.404847397,0,0,0,,0,156,156,36,1,
,,,,,,,,,,,,,,,,,,5f1e827568c1bb862cb9f5bd,2020-08-10_12h48.46.753,lexical_decision_task_MP,2020.1.3,Win32,60,z,1,,,,,,,,0.94,1,,,,,,457,NW,UN,33,barcet,WANIGH,z,0.94,,,,,,-0.035906643,-0.404847397,0,0,0,,0,157,157,396,1,
,,,,,,,,,,,,,,,,,,5f1e827568c1bb862cb9f5bd,2020-08-10_12h48.46.753,lexical_decision_task_MP,2020.1.3,Win32,60,m,1,,,,,,,,0.944,1,,,,,,40,WORD,UN,50,spring,CONVEY,m,0.944,,,,,,-0.035906643,-0.404847397,0,0,0,,0,158,158,219,1,
,,,,,,,,,,,,,,,,,,5f1e827568c1bb862cb9f5bd,2020-08-10_12h48.46.753,lexical_decision_task_MP,2020.1.3,Win32,60,z,0,,,,,,,,0.771,0,,,,,,222,WORD,UN,33,export,HINDER,m,0.771,,,,,,-0.035906643,-0.404847397,0,0,0,,0,159,159,161,1,
,,,,,,,,,,,,,,,,,,5f1e827568c1bb862cb9f5bd,2020-08-10_12h48.46.753,lexical_decision_task_MP,2020.1.3,Win32,60,m,1,,,,,,,,0.751,1,,,,,,165,WORD,"ID",50,invest,INVEST,m,0.751,,,,,,-0.035906643,-0.404847397,0,0,0,,0,160,160,104,1,
,,,,,,,,,,,,,,,,,,5f1e827568c1bb862cb9f5bd,2020-08-10_12h48.46.753,lexical_decision_task_MP,2020.1.3,Win32,60,z,1,,,,,,,,1.257,1,,,,,,450,NW,UN,33,cainky,PHRECT,z,1.257,,,,,,-0.035906643,-0.404847397,0,0,0,,0,161,161,389,1,
,,,,,,,,,,,,,,,,,,5f1e827568c1bb862cb9f5bd,2020-08-10_12h48.46.753,lexical_decision_task_MP,2020.1.3,Win32,60,z,1,,,,,,,,0.761,1,,,,,,351,NW,"ID",33,tiesch,TIESCH,z,0.761,,,,,,-0.035906643,-0.404847397,0,0,0,,0,162,162,290,1,
,,,,,,,,,,,,,,,,,,5f1e827568c1bb862cb9f5bd,2020-08-10_12h48.46.753,lexical_decision_task_MP,2020.1.3,Win32,60,m,1,,,,,,,,0.793,1,,,,,,172,WORD,"ID",50,patrol,PATROL,m,0.793,,,,,,-0.035906643,-0.404847397,0,0,0,,0,163,163,111,1,
,,,,,,,,,,,,,,,,,,5f1e827568c1bb862cb9f5bd,2020-08-10_12h48.46.753,lexical_decision_task_MP,2020.1.3,Win32,60,z,0,,,,,,,,0.939,0,,,,,,145,WORD,"ID",50,parish,PARISH,m,0.939,,,,,,-0.035906643,-0.404847397,0,0,0,,0,164,164,84,1,
,,,,,,,,,,,,,,,,,,5f1e827568c1bb862cb9f5bd,2020-08-10_12h48.46.753,lexical_decision_task_MP,2020.1.3,Win32,60,z,1,,,,,,,,0.939,1,,,,,,305,NW,"ID",33,forgle,FORGLE,z,0.939,,,,,,-0.035906643,-0.404847397,0,0,0,,0,165,165,244,1,
,,,,,,,,,,,,,,,,,,5f1e827568c1bb862cb9f5bd,2020-08-10_12h48.46.753,lexical_decision_task_MP,2020.1.3,Win32,60,m,1,,,,,,,,0.895,1,,,,,,137,WORD,"ID",50,finger,FINGER,m,0.895,,,,,,-0.035906643,-0.404847397,0,0,0,,0,166,166,76,1,
,,,,,,,,,,,,,,,,,,5f1e827568c1bb862cb9f5bd,2020-08-10_12h48.46.753,lexical_decision_task_MP,2020.1.3,Win32,60,m,0,,,,,,,,0.873,0,,,,,,462,NW,UN,33,kispel,ABSULT,z,0.873,,,,,,-0.035906643,-0.404847397,0,0,0,,0,167,167,401,1,
,,,,,,,,,,,,,,,,,,5f1e827568c1bb862cb9f5bd,2020-08-10_12h48.46.753,lexical_decision_task_MP,2020.1.3,Win32,60,z,0,,,,,,,,1.072,0,,,,,,166,WORD,"ID",50,starch,STARCH,m,1.072,,,,,,-0.035906643,-0.404847397,0,0,0,,0,168,168,105,1,
,,,,,,,,,,,,,,,,,,5f1e827568c1bb862cb9f5bd,2020-08-10_12h48.46.753,lexical_decision_task_MP,2020.1.3,Win32,60,z,1,,,,,,,,0.899,1,,,,,,355,NW,"ID",33,zingly,ZINGLY,z,0.899,,,,,,-0.035906643,-0.404847397,0,0,0,,0,169,169,294,1,
,,,,,,,,,,,,,,,,,,5f1e827568c1bb862cb9f5bd,2020-08-10_12h48.46.753,lexical_decision_task_MP,2020.1.3,Win32,60,z,1,,,,,,,,1.315,1,,,,,,452,NW,UN,33,bolvis,SURDEN,z,1.315,,,,,,-0.035906643,-0.404847397,0,0,0,,0,170,170,391,1,
,,,,,,,,,,,,,,,,,,5f1e827568c1bb862cb9f5bd,2020-08-10_12h48.46.753,lexical_decision_task_MP,2020.1.3,Win32,60,m,1,,,,,,,,1.124,1,,,,,,107,WORD,"ID",33,slogan,SLOGAN,m,1.124,,,,,,-0.035906643,-0.404847397,0,0,0,,0,171,171,46,1,
,,,,,,,,,,,,,,,,,,5f1e827568c1bb862cb9f5bd,2020-08-10_12h48.46.753,lexical_decision_task_MP,2020.1.3,Win32,60,z,0,,,,,,,,1.179,0,,,,,,139,WORD,"ID",50,debris,DEBRIS,m,1.179,,,,,,-0.035906643,-0.404847397,0,0,0,,0,172,172,78,1,
,,,,,,,,,,,,,,,,,,5f1e827568c1bb862cb9f5bd,2020-08-10_12h48.46.753,lexical_decision_task_MP,2020.1.3,Win32,60,m,0,,,,,,,,1.174,0,,,,,,473,NW,UN,33,hablin,CRIBLE,z,1.174,,,,,,-0.035906643,-0.404847397,0,0,0,,0,173,173,412,1,
,,,,,,,,,,,,,,,,,,5f1e827568c1bb862cb9f5bd,2020-08-10_12h48.46.753,lexical_decision_task_MP,2020.1.3,Win32,60,m,1,,,,,,,,1.318,1,,,,,,50,WORD,UN,50,hungry,SNATCH,m,1.318,,,,,,-0.035906643,-0.404847397,0,0,0,,0,174,174,229,1,
,,,,,,,,,,,,,,,,,,5f1e827568c1bb862cb9f5bd,2020-08-10_12h48.46.753,lexical_decision_task_MP,2020.1.3,Win32,60,m,1,,,,,,,,0.795,1,,,,,,84,WORD,"ID",33,mortal,MORTAL,m,0.795,,,,,,-0.035906643,-0.404847397,0,0,0,,0,175,175,23,1,
,,,,,,,,,,,,,,,,,,5f1e827568c1bb862cb9f5bd,2020-08-10_12h48.46.753,lexical_decision_task_MP,2020.1.3,Win32,60,m,1,,,,,,,,0.987,1,,,,,,87,WORD,"ID",33,filter,FILTER,m,0.987,,,,,,-0.035906643,-0.404847397,0,0,0,,0,176,176,26,1,
,,,,,,,,,,,,,,,,,,5f1e827568c1bb862cb9f5bd,2020-08-10_12h48.46.753,lexical_decision_task_MP,2020.1.3,Win32,60,z,1,,,,,,,,0.982,1,,,,,,421,NW,UN,33,alcoud,KNISMA,z,0.982,,,,,,-0.035906643,-0.404847397,0,0,0,,0,177,177,360,1,
,,,,,,,,,,,,,,,,,,5f1e827568c1bb862cb9f5bd,2020-08-10_12h48.46.753,lexical_decision_task_MP,2020.1.3,Win32,60,m,1,,,,,,,,0.852,1,,,,,,98,WORD,"ID",33,belong,BELONG,m,0.852,,,,,,-0.035906643,-0.404847397,0,0,0,,0,178,178,37,1,
,,,,,,,,,,,,,,,,,,5f1e827568c1bb862cb9f5bd,2020-08-10_12h48.46.753,lexical_decision_task_MP,2020.1.3,Win32,60,z,0,,,,,,,,1.004,0,,,,,,133,WORD,"ID",50,chrome,CHROME,m,1.004,,,,,,-0.035906643,-0.404847397,0,0,0,,0,179,179,72,1,
,,,,,,,,,,,,,,,,,,5f1e827568c1bb862cb9f5bd,2020-08-10_12h48.46.753,lexical_decision_task_MP,2020.1.3,Win32,60,z,1,,,,,,,,0.914,1,,,,,,463,NW,UN,33,chaite,KISPEL,z,0.914,,,,,,-0.035906643,-0.404847397,0,0,0,,0,180,180,402,1,
,,,,,,,,,,,,,,,,,,5f1e827568c1bb862cb9f5bd,2020-08-10_12h48.46.753,lexical_decision_task_MP,2020.1.3,Win32,60,z,1,,,,,,,,1.045,1,,,,,,356,NW,"ID",33,othnis,OTHNIS,z,1.045,,,,,,-0.035906643,-0.404847397,0,0,0,,0,181,181,295,1,
,,,,,,,,,,,,,,,,,,5f1e827568c1bb862cb9f5bd,2020-08-10_12h48.46.753,lexical_decision_task_MP,2020.1.3,Win32,60,m,1,,,,,,,,0.854,1,,,,,,38,WORD,UN,50,insect,POWDER,m,0.854,,,,,,-0.035906643,-0.404847397,0,0,0,,0,182,182,217,1,
,,,,,,,,,,,,,,,,,,5f1e827568c1bb862cb9f5bd,2020-08-10_12h48.46.753,lexical_decision_task_MP,2020.1.3,Win32,60,z,1,,,,,,,,1.116,1,,,,,,480,NW,UN,33,knisma,ROBULY,z,1.116,,,,,,-0.035906643,-0.404847397,0,0,0,,0,183,183,419,1,
,,,,,,,,,,,,,,,,,,5f1e827568c1bb862cb9f5bd,2020-08-10_12h48.46.753,lexical_decision_task_MP,2020.1.3,Win32,60,m,1,,,,,,,,0.861,1,,,,,,209,WORD,UN,33,monkey,SEARCH,m,0.861,,,,,,-0.035906643,-0.404847397,0,0,0,,0,184,184,148,1,
,,,,,,,,,,,,,,,,,,5f1e827568c1bb862cb9f5bd,2020-08-10_12h48.46.753,lexical_decision_task_MP,2020.1.3,Win32,60,z,1,,,,,,,,1.269,1,,,,,,334,NW,"ID",33,watmeg,WATMEG,z,1.269,,,,,,-0.035906643,-0.404847397,0,0,0,,0,185,185,273,1,
,,,,,,,,,,,,,,,,,,5f1e827568c1bb862cb9f5bd,2020-08-10_12h48.46.753,lexical_decision_task_MP,2020.1.3,Win32,60,m,1,,,,,,,,0.673,1,,,,,,67,WORD,"ID",33,policy,POLICY,m,0.673,,,,,,-0.035906643,-0.404847397,0,0,0,,0,186,186,6,1,
,,,,,,,,,,,,,,,,,,5f1e827568c1bb862cb9f5bd,2020-08-10_12h48.46.753,lexical_decision_task_MP,2020.1.3,Win32,60,z,1,,,,,,,,0.885,1,,,,,,440,NW,UN,33,rastoe,SARIDE,z,0.885,,,,,,-0.035906643,-0.404847397,0,0,0,,0,187,187,379,1,
,,,,,,,,,,,,,,,,,,5f1e827568c1bb862cb9f5bd,2020-08-10_12h48.46.753,lexical_decision_task_MP,2020.1.3,Win32,60,z,1,,,,,,,,0.845,1,,,,,,368,NW,"ID",50,hornal,HORNAL,z,0.845,,,,,,-0.035906643,-0.404847397,0,0,0,,0,188,188,307,1,
,,,,,,,,,,,,,,,,,,5f1e827568c1bb862cb9f5bd,2020-08-10_12h48.46.753,lexical_decision_task_MP,2020.1.3,Win32,60,z,1,,,,,,,,0.961,1,,,,,,290,NW,UN,50,pretch,SPLINO,z,0.961,,,,,,-0.035906643,-0.404847397,0,0,0,,0,189,189,469,1,
,,,,,,,,,,,,,,,,,,5f1e827568c1bb862cb9f5bd,2020-08-10_12h48.46.753,lexical_decision_task_MP,2020.1.3,Win32,60,m,1,,,,,,,,0.98,1,,,,,,31,WORD,UN,50,buckle,WEAPON,m,0.98,,,,,,-0.035906643,-0.404847397,0,0,0,,0,190,190,210,1,
,,,,,,,,,,,,,,,,,,5f1e827568c1bb862cb9f5bd,2020-08-10_12h48.46.753,lexical_decision_task_MP,2020.1.3,Win32,60,z,1,,,,,,,,0.859,1,,,,,,391,NW,"ID",50,theldy,THELDY,z,0.859,,,,,,-0.035906643,-0.404847397,0,0,0,,0,191,191,330,1,
,,,,,,,,,,,,,,,,,,5f1e827568c1bb862cb9f5bd,2020-08-10_12h48.46.753,lexical_decision_task_MP,2020.1.3,Win32,60,z,1,,,,,,,,1.082,1,,,,,,315,NW,"ID",33,laston,LASTON,z,1.082,,,,,,-0.035906643,-0.404847397,0,0,0,,0,192,192,254,1,
,,,,,,,,,,,,,,,,,,5f1e827568c1bb862cb9f5bd,2020-08-10_12h48.46.753,lexical_decision_task_MP,2020.1.3,Win32,60,m,1,,,,,,,,0.752,1,,,,,,70,WORD,"ID",33,square,SQUARE,m,0.752,,,,,,-0.035906643,-0.404847397,0,0,0,,0,193,193,9,1,
,,,,,,,,,,,,,,,,,,5f1e827568c1bb862cb9f5bd,2020-08-10_12h48.46.753,lexical_decision_task_MP,2020.1.3,Win32,60,m,1,,,,,,,,0.902,1,,,,,,223,WORD,UN,33,period,KIDNEY,m,0.902,,,,,,-0.035906643,-0.404847397,0,0,0,,0,194,194,162,1,
,,,,,,,,,,,,,,,,,,5f1e827568c1bb862cb9f5bd,2020-08-10_12h48.46.753,lexical_decision_task_MP,2020.1.3,Win32,60,m,1,,,,,,,,1.502,1,,,,,,201,WORD,UN,33,factor,ADMIRE,m,1.502,,,,,,-0.035906643,-0.404847397,0,0,0,,0,195,195,140,1,
,,,,,,,,,,,,,,,,,,5f1e827568c1bb862cb9f5bd,2020-08-10_12h48.46.753,lexical_decision_task_MP,2020.1.3,Win32,60,z,1,,,,,,,,0.917,1,,,,,,411,NW,"ID",50,orchin,ORCHIN,z,0.917,,,,,,-0.035906643,-0.404847397,0,0,0,,0,196,196,350,1,
,,,,,,,,,,,,,,,,,,5f1e827568c1bb862cb9f5bd,2020-08-10_12h48.46.753,lexical_decision_task_MP,2020.1.3,Win32,60,z,1,,,,,,,,1.832,1,,,,,,353,NW,"ID",33,clurey,CLUREY,z,1.832,,,,,,-0.035906643,-0.404847397,0,0,0,,0,197,197,292,1,
,,,,,,,,,,,,,,,,,,5f1e827568c1bb862cb9f5bd,2020-08-10_12h48.46.753,lexical_decision_task_MP,2020.1.3,Win32,60,z,1,,,,,,,,0.833,1,,,,,,336,NW,"ID",33,ghodus,GHODUS,z,0.833,,,,,,-0.035906643,-0.404847397,0,0,0,,0,198,198,275,1,
,,,,,,,,,,,,,,,,,,5f1e827568c1bb862cb9f5bd,2020-08-10_12h48.46.753,lexical_decision_task_MP,2020.1.3,Win32,60,z,0,,,,,,,,0.979,0,,,,,,176,WORD,"ID",50,strife,STRIFE,m,0.979,,,,,,-0.035906643,-0.404847397,0,0,0,,0,199,199,115,1,
,,,,,,,,,,,,,,,,,,5f1e827568c1bb862cb9f5bd,2020-08-10_12h48.46.753,lexical_decision_task_MP,2020.1.3,Win32,60,m,1,,,,,,,,0.708,1,,,,,,185,WORD,UN,33,portal,BOTHER,m,0.708,,,,,,-0.035906643,-0.404847397,0,0,0,,0,200,200,124,1,
,,,,,,,,,,,,,,,,,,5f1e827568c1bb862cb9f5bd,2020-08-10_12h48.46.753,lexical_decision_task_MP,2020.1.3,Win32,60,m,1,,,,,,,,0.685,1,,,,,,188,WORD,UN,33,censor,SOCIAL,m,0.685,,,,,,-0.035906643,-0.404847397,0,0,0,,0,201,201,127,1,
,,,,,,,,,,,,,,,,,,5f1e827568c1bb862cb9f5bd,2020-08-10_12h48.46.753,lexical_decision_task_MP,2020.1.3,Win32,60,m,1,,,,,,,,0.937,1,,,,,,78,WORD,"ID",33,column,COLUMN,m,0.937,,,,,,-0.035906643,-0.404847397,0,0,0,,0,202,202,17,1,
,,,,,,,,,,,,,,,,,,5f1e827568c1bb862cb9f5bd,2020-08-10_12h48.46.753,lexical_decision_task_MP,2020.1.3,Win32,60,z,0,,,,,,,,0.906,0,,,,,,181,WORD,UN,33,winter,GLANCE,m,0.906,,,,,,-0.035906643,-0.404847397,0,0,0,,0,203,203,120,1,
,,,,,,,,,,,,,,,,,,5f1e827568c1bb862cb9f5bd,2020-08-10_12h48.46.753,lexical_decision_task_MP,2020.1.3,Win32,60,m,1,,,,,,,,1.246,1,,,,,,20,WORD,UN,50,simple,BREAST,m,1.246,,,,,,-0.035906643,-0.404847397,0,0,0,,0,204,204,199,1,
,,,,,,,,,,,,,,,,,,5f1e827568c1bb862cb9f5bd,2020-08-10_12h48.46.753,lexical_decision_task_MP,2020.1.3,Win32,60,z,1,,,,,,,,1.062,1,,,,,,275,NW,UN,50,yarmon,SLEIRT,z,1.062,,,,,,-0.035906643,-0.404847397,0,0,0,,0,205,205,454,1,
,,,,,,,,,,,,,,,,,,5f1e827568c1bb862cb9f5bd,2020-08-10_12h48.46.753,lexical_decision_task_MP,2020.1.3,Win32,60,m,1,,,,,,,,0.789,1,,,,,,63,WORD,"ID",33,launch,LAUNCH,m,0.789,,,,,,-0.035906643,-0.404847397,0,0,0,,0,206,206,2,1,
,,,,,,,,,,,,,,,,,,5f1e827568c1bb862cb9f5bd,2020-08-10_12h48.46.753,lexical_decision_task_MP,2020.1.3,Win32,60,z,1,,,,,,,,0.921,1,,,,,,451,NW,UN,33,surden,CAINKY,z,0.921,,,,,,-0.035906643,-0.404847397,0,0,0,,0,207,207,390,1,
,,,,,,,,,,,,,,,,,,5f1e827568c1bb862cb9f5bd,2020-08-10_12h48.46.753,lexical_decision_task_MP,2020.1.3,Win32,60,z,0,,,,,,,,0.906,0,,,,,,16,WORD,UN,50,charge,FAUCET,m,0.906,,,,,,-0.035906643,-0.404847397,0,0,0,,0,208,208,195,1,
,,,,,,,,,,,,,,,,,,5f1e827568c1bb862cb9f5bd,2020-08-10_12h48.46.753,lexical_decision_task_MP,2020.1.3,Win32,60,z,1,,,,,,,,0.796,1,,,,,,378,NW,"ID",50,shrile,SHRILE,z,0.796,,,,,,-0.035906643,-0.404847397,0,0,0,,0,209,209,317,1,
,,,,,,,,,,,,,,,,,,5f1e827568c1bb862cb9f5bd,2020-08-10_12h48.46.753,lexical_decision_task_MP,2020.1.3,Win32,60,z,0,,,,,,,,1,0,,,,,,218,WORD,UN,33,bucket,SHRINK,m,1,,,,,,-0.035906643,-0.404847397,0,0,0,,0,210,210,157,1,
,,,,,,,,,,,,,,,,,,5f1e827568c1bb862cb9f5bd,2020-08-10_12h48.46.753,lexical_decision_task_MP,2020.1.3,Win32,60,m,1,,,,,,,,0.655,1,,,,,,152,WORD,"ID",50,rocket,ROCKET,m,0.655,,,,,,-0.035906643,-0.404847397,0,0,0,,0,211,211,91,1,
,,,,,,,,,,,,,,,,,,5f1e827568c1bb862cb9f5bd,2020-08-10_12h48.46.753,lexical_decision_task_MP,2020.1.3,Win32,60,z,1,,,,,,,,1.064,1,,,,,,266,NW,UN,50,pasink,VARMIT,z,1.064,,,,,,-0.035906643,-0.404847397,0,0,0,,0,212,212,445,1,
,,,,,,,,,,,,,,,,,,5f1e827568c1bb862cb9f5bd,2020-08-10_12h48.46.753,lexical_decision_task_MP,2020.1.3,Win32,60,z,0,,,,,,,,0.965,0,,,,,,74,WORD,"ID",33,plaque,PLAQUE,m,0.965,,,,,,-0.035906643,-0.404847397,0,0,0,,0,213,213,13,1,
,,,,,,,,,,,,,,,,,,5f1e827568c1bb862cb9f5bd,2020-08-10_12h48.46.753,lexical_decision_task_MP,2020.1.3,Win32,60,m,1,,,,,,,,1.418,1,,,,,,92,WORD,"ID",33,strand,STRAND,m,1.418,,,,,,-0.035906643,-0.404847397,0,0,0,,0,214,214,31,1,
,,,,,,,,,,,,,,,,,,5f1e827568c1bb862cb9f5bd,2020-08-10_12h48.46.753,lexical_decision_task_MP,2020.1.3,Win32,60,,0,,,,,,,,1.418,-1,,,,,,151,WORD,"ID",50,mystic,MYSTIC,m,,,,,,,-0.337522442,-0.494614004,0,0,0,,0,215,215,90,1,
,,,,,,,,,,,,,,,,,,5f1e827568c1bb862cb9f5bd,2020-08-10_12h48.46.753,lexical_decision_task_MP,2020.1.3,Win32,60,,0,,,,,,,,1.418,-1,,,,,,77,WORD,"ID",33,racket,RACKET,m,,,,,,,-0.337522442,-0.494614004,0,0,0,,0,216,216,16,1,
,,,,,,,,,,,,,,,,,,5f1e827568c1bb862cb9f5bd,2020-08-10_12h48.46.753,lexical_decision_task_MP,2020.1.3,Win32,60,,0,,,,,,,,1.418,-1,,,,,,82,WORD,"ID",33,stigma,STIGMA,m,,,,,,,-0.337522442,-0.494614004,0,0,0,,0,217,217,21,1,
,,,,,,,,,,,,,,,,,,5f1e827568c1bb862cb9f5bd,2020-08-10_12h48.46.753,lexical_decision_task_MP,2020.1.3,Win32,60,,0,,,,,,,,1.418,-1,,,,,,425,NW,UN,33,urivel,FRUDGE,z,,,,,,,0.188509874,-0.078096948,0,0,0,,0,218,218,364,1,
,,,,,,,,,,,,,,,,,,5f1e827568c1bb862cb9f5bd,2020-08-10_12h48.46.753,lexical_decision_task_MP,2020.1.3,Win32,60,z,1,,,,,,,,0.762,1,,,,,,330,NW,"ID",33,kensom,KENSOM,z,0.762,,,,,,0.188509874,-0.078096948,0,0,0,,0,219,219,269,1,
,,,,,,,,,,,,,,,,,,5f1e827568c1bb862cb9f5bd,2020-08-10_12h48.46.753,lexical_decision_task_MP,2020.1.3,Win32,60,m,0,,,,,,,,1.011,0,,,,,,348,NW,"ID",33,dumple,DUMPLE,z,1.011,,,,,,0.188509874,-0.078096948,0,0,0,,0,220,220,287,1,
,,,,,,,,,,,,,,,,,,5f1e827568c1bb862cb9f5bd,2020-08-10_12h48.46.753,lexical_decision_task_MP,2020.1.3,Win32,60,z,1,,,,,,,,1.056,1,,,,,,388,NW,"ID",50,cragin,CRAGIN,z,1.056,,,,,,0.188509874,-0.078096948,0,0,0,,0,221,221,327,1,
,,,,,,,,,,,,,,,,,,5f1e827568c1bb862cb9f5bd,2020-08-10_12h48.46.753,lexical_decision_task_MP,2020.1.3,Win32,60,z,0,,,,,,,,0.839,0,,,,,,8,WORD,UN,50,hustle,ABRUPT,m,0.839,,,,,,0.188509874,-0.078096948,0,0,0,,0,222,222,187,1,
,,,,,,,,,,,,,,,,,,5f1e827568c1bb862cb9f5bd,2020-08-10_12h48.46.753,lexical_decision_task_MP,2020.1.3,Win32,60,m,1,,,,,,,,1.212,1,,,,,,216,WORD,UN,33,liquor,BEHALF,m,1.212,,,,,,0.188509874,-0.078096948,0,0,0,,0,223,223,155,1,
,,,,,,,,,,,,,,,,,,5f1e827568c1bb862cb9f5bd,2020-08-10_12h48.46.753,lexical_decision_task_MP,2020.1.3,Win32,60,z,1,,,,,,,,0.782,1,,,,,,296,NW,UN,50,fertic,BEINCH,z,0.782,,,,,,0.188509874,-0.078096948,0,0,0,,0,224,224,475,1,
,,,,,,,,,,,,,,,,,,5f1e827568c1bb862cb9f5bd,2020-08-10_12h48.46.753,lexical_decision_task_MP,2020.1.3,Win32,60,m,0,,,,,,,,0.903,0,,,,,,396,NW,"ID",50,flengy,FLENGY,z,0.903,,,,,,0.188509874,-0.078096948,0,0,0,,0,225,225,335,1,
,,,,,,,,,,,,,,,,,,5f1e827568c1bb862cb9f5bd,2020-08-10_12h48.46.753,lexical_decision_task_MP,2020.1.3,Win32,60,m,1,,,,,,,,0.803,1,,,,,,173,WORD,"ID",50,shower,SHOWER,m,0.803,,,,,,0.188509874,-0.078096948,0,0,0,,0,226,226,112,1,
,,,,,,,,,,,,,,,,,,5f1e827568c1bb862cb9f5bd,2020-08-10_12h48.46.753,lexical_decision_task_MP,2020.1.3,Win32,60,z,1,,,,,,,,0.859,1,,,,,,247,NW,UN,50,strole,BLARGE,z,0.859,,,,,,0.188509874,-0.078096948,0,0,0,,0,227,227,426,1,
,,,,,,,,,,,,,,,,,,5f1e827568c1bb862cb9f5bd,2020-08-10_12h48.46.753,lexical_decision_task_MP,2020.1.3,Win32,60,z,1,,,,,,,,1.005,1,,,,,,306,NW,"ID",33,sounge,SOUNGE,z,1.005,,,,,,0.188509874,-0.078096948,0,0,0,,0,228,228,245,1,
,,,,,,,,,,,,,,,,,,5f1e827568c1bb862cb9f5bd,2020-08-10_12h48.46.753,lexical_decision_task_MP,2020.1.3,Win32,60,m,1,,,,,,,,0.762,1,,,,,,125,WORD,"ID",50,nickel,NICKEL,m,0.762,,,,,,0.188509874,-0.078096948,0,0,0,,0,229,229,64,1,
,,,,,,,,,,,,,,,,,,5f1e827568c1bb862cb9f5bd,2020-08-10_12h48.46.753,lexical_decision_task_MP,2020.1.3,Win32,60,m,1,,,,,,,,1.416,1,,,,,,45,WORD,UN,50,single,CLERGY,m,1.416,,,,,,0.188509874,-0.078096948,0,0,0,,0,230,230,224,1,
,,,,,,,,,,,,,,,,,,5f1e827568c1bb862cb9f5bd,2020-08-10_12h48.46.753,lexical_decision_task_MP,2020.1.3,Win32,60,m,1,,,,,,,,0.631,1,,,,,,71,WORD,"ID",33,garden,GARDEN,m,0.631,,,,,,0.188509874,-0.078096948,0,0,0,,0,231,231,10,1,
,,,,,,,,,,,,,,,,,,5f1e827568c1bb862cb9f5bd,2020-08-10_12h48.46.753,lexical_decision_task_MP,2020.1.3,Win32,60,z,1,,,,,,,,0.711,1,,,,,,417,NW,"ID",50,earoud,EAROUD,z,0.711,,,,,,0.188509874,-0.078096948,0,0,0,,0,232,232,356,1,
,,,,,,,,,,,,,,,,,,5f1e827568c1bb862cb9f5bd,2020-08-10_12h48.46.753,lexical_decision_task_MP,2020.1.3,Win32,60,m,1,,,,,,,,1.062,1,,,,,,7,WORD,UN,50,abrupt,ANCHOR,m,1.062,,,,,,0.188509874,-0.078096948,0,0,0,,0,233,233,186,1,
,,,,,,,,,,,,,,,,,,5f1e827568c1bb862cb9f5bd,2020-08-10_12h48.46.753,lexical_decision_task_MP,2020.1.3,Win32,60,m,1,,,,,,,,0.771,1,,,,,,134,WORD,"ID",50,staple,STAPLE,m,0.771,,,,,,0.188509874,-0.078096948,0,0,0,,0,234,234,73,1,
,,,,,,,,,,,,,,,,,,5f1e827568c1bb862cb9f5bd,2020-08-10_12h48.46.753,lexical_decision_task_MP,2020.1.3,Win32,60,m,1,,,,,,,,0.793,1,,,,,,192,WORD,UN,33,object,PLAGUE,m,0.793,,,,,,0.188509874,-0.078096948,0,0,0,,0,235,235,131,1,
,,,,,,,,,,,,,,,,,,5f1e827568c1bb862cb9f5bd,2020-08-10_12h48.46.753,lexical_decision_task_MP,2020.1.3,Win32,60,m,1,,,,,,,,0.774,1,,,,,,214,WORD,UN,33,phobia,INTAKE,m,0.774,,,,,,0.188509874,-0.078096948,0,0,0,,0,236,236,153,1,
,,,,,,,,,,,,,,,,,,5f1e827568c1bb862cb9f5bd,2020-08-10_12h48.46.753,lexical_decision_task_MP,2020.1.3,Win32,60,z,1,,,,,,,,0.837,1,,,,,,402,NW,"ID",50,syntic,SYNTIC,z,0.837,,,,,,0.188509874,-0.078096948,0,0,0,,0,237,237,341,1,
,,,,,,,,,,,,,,,,,,5f1e827568c1bb862cb9f5bd,2020-08-10_12h48.46.753,lexical_decision_task_MP,2020.1.3,Win32,60,z,1,,,,,,,,0.708,1,,,,,,300,NW,UN,50,smenco,YARION,z,0.708,,,,,,0.188509874,-0.078096948,0,0,0,,0,238,238,479,1,
,,,,,,,,,,,,,,,,,,5f1e827568c1bb862cb9f5bd,2020-08-10_12h48.46.753,lexical_decision_task_MP,2020.1.3,Win32,60,m,1,,,,,,,,0.731,1,,,,,,205,WORD,UN,33,tailor,LOUNGE,m,0.731,,,,,,0.188509874,-0.078096948,0,0,0,,0,239,239,144,1,
,,,,,,,,,,,,,,,,,,5f1e827568c1bb862cb9f5bd,2020-08-10_12h48.46.753,lexical_decision_task_MP,2020.1.3,Win32,60,z,1,,,,,,,,1.043,1,,,,,,257,NW,UN,50,poluth,VENIOD,z,1.043,,,,,,0.188509874,-0.078096948,0,0,0,,0,240,240,436,1,
,,,,,,,,,,,,,,,,,,5f1e827568c1bb862cb9f5bd,2020-08-10_12h48.46.753,lexical_decision_task_MP,2020.1.3,Win32,60,z,1,,,,,,,,0.876,1,,,,,,264,NW,UN,50,distar,VACKEL,z,0.876,,,,,,0.49551167,-0.140933573,0,0,0,space,0,241,241,443,1,439.951
,,,,,,,,,,,,,,,,,,5f1e827568c1bb862cb9f5bd,2020-08-10_12h48.46.753,lexical_decision_task_MP,2020.1.3,Win32,60,z,1,,,,,,,,1.435,1,,,,,,287,NW,UN,50,yaceup,NYMBEL,z,1.435,,,,,,0.49551167,-0.140933573,0,0,0,,0,242,242,466,1,
,,,,,,,,,,,,,,,,,,5f1e827568c1bb862cb9f5bd,2020-08-10_12h48.46.753,lexical_decision_task_MP,2020.1.3,Win32,60,m,1,,,,,,,,0.616,1,,,,,,232,WORD,UN,33,nature,INJECT,m,0.616,,,,,,0.49551167,-0.140933573,0,0,0,,0,243,243,171,1,
,,,,,,,,,,,,,,,,,,5f1e827568c1bb862cb9f5bd,2020-08-10_12h48.46.753,lexical_decision_task_MP,2020.1.3,Win32,60,m,1,,,,,,,,0.603,1,,,,,,135,WORD,"ID",50,import,IMPORT,m,0.603,,,,,,0.49551167,-0.140933573,0,0,0,,0,244,244,74,1,
,,,,,,,,,,,,,,,,,,5f1e827568c1bb862cb9f5bd,2020-08-10_12h48.46.753,lexical_decision_task_MP,2020.1.3,Win32,60,m,1,,,,,,,,0.522,1,,,,,,154,WORD,"ID",50,author,AUTHOR,m,0.522,,,,,,0.49551167,-0.140933573,0,0,0,,0,245,245,93,1,
,,,,,,,,,,,,,,,,,,5f1e827568c1bb862cb9f5bd,2020-08-10_12h48.46.753,lexical_decision_task_MP,2020.1.3,Win32,60,z,1,,,,,,,,0.878,1,,,,,,393,NW,"ID",50,ganous,GANOUS,z,0.878,,,,,,0.49551167,-0.140933573,0,0,0,,0,246,246,332,1,
,,,,,,,,,,,,,,,,,,5f1e827568c1bb862cb9f5bd,2020-08-10_12h48.46.753,lexical_decision_task_MP,2020.1.3,Win32,60,z,1,,,,,,,,0.97,1,,,,,,380,NW,"ID",50,cavory,CAVORY,z,0.97,,,,,,0.49551167,-0.140933573,0,0,0,,0,247,247,319,1,
,,,,,,,,,,,,,,,,,,5f1e827568c1bb862cb9f5bd,2020-08-10_12h48.46.753,lexical_decision_task_MP,2020.1.3,Win32,60,z,1,,,,,,,,0.622,1,,,,,,392,NW,"ID",50,rouncy,ROUNCY,z,0.622,,,,,,0.49551167,-0.140933573,0,0,0,,0,248,248,331,1,
,,,,,,,,,,,,,,,,,,5f1e827568c1bb862cb9f5bd,2020-08-10_12h48.46.753,lexical_decision_task_MP,2020.1.3,Win32,60,z,1,,,,,,,,0.632,1,,,,,,437,NW,UN,33,baitch,SNAPEL,z,0.632,,,,,,0.49551167,-0.140933573,0,0,0,,0,249,249,376,1,
,,,,,,,,,,,,,,,,,,5f1e827568c1bb862cb9f5bd,2020-08-10_12h48.46.753,lexical_decision_task_MP,2020.1.3,Win32,60,m,1,,,,,,,,0.675,1,,,,,,94,WORD,"ID",33,travel,TRAVEL,m,0.675,,,,,,0.49551167,-0.140933573,0,0,0,,0,250,250,33,1,
,,,,,,,,,,,,,,,,,,5f1e827568c1bb862cb9f5bd,2020-08-10_12h48.46.753,lexical_decision_task_MP,2020.1.3,Win32,60,z,1,,,,,,,,0.734,1,,,,,,343,NW,"ID",33,aimosy,AIMOSY,z,0.734,,,,,,0.49551167,-0.140933573,0,0,0,,0,251,251,282,1,
,,,,,,,,,,,,,,,,,,5f1e827568c1bb862cb9f5bd,2020-08-10_12h48.46.753,lexical_decision_task_MP,2020.1.3,Win32,60,m,1,,,,,,,,0.737,1,,,,,,47,WORD,UN,50,walnut,INCOME,m,0.737,,,,,,0.49551167,-0.140933573,0,0,0,,0,252,252,226,1,
,,,,,,,,,,,,,,,,,,5f1e827568c1bb862cb9f5bd,2020-08-10_12h48.46.753,lexical_decision_task_MP,2020.1.3,Win32,60,z,1,,,,,,,,1.032,1,,,,,,399,NW,"ID",50,fouret,FOURET,z,1.032,,,,,,0.49551167,-0.140933573,0,0,0,,0,253,253,338,1,
,,,,,,,,,,,,,,,,,,5f1e827568c1bb862cb9f5bd,2020-08-10_12h48.46.753,lexical_decision_task_MP,2020.1.3,Win32,60,m,1,,,,,,,,1.08,1,,,,,,141,WORD,"ID",50,orphan,ORPHAN,m,1.08,,,,,,0.49551167,-0.140933573,0,0,0,,0,254,254,80,1,
,,,,,,,,,,,,,,,,,,5f1e827568c1bb862cb9f5bd,2020-08-10_12h48.46.753,lexical_decision_task_MP,2020.1.3,Win32,60,m,1,,,,,,,,0.582,1,,,,,,49,WORD,UN,50,snatch,SURVEY,m,0.582,,,,,,0.49551167,-0.140933573,0,0,0,,0,255,255,228,1,
,,,,,,,,,,,,,,,,,,5f1e827568c1bb862cb9f5bd,2020-08-10_12h48.46.753,lexical_decision_task_MP,2020.1.3,Win32,60,m,1,,,,,,,,0.921,1,,,,,,211,WORD,UN,33,verify,INFECT,m,0.921,,,,,,0.49551167,-0.140933573,0,0,0,,0,256,256,150,1,
,,,,,,,,,,,,,,,,,,5f1e827568c1bb862cb9f5bd,2020-08-10_12h48.46.753,lexical_decision_task_MP,2020.1.3,Win32,60,z,1,,,,,,,,1.166,1,,,,,,379,NW,"ID",50,auting,AUTING,z,1.166,,,,,,0.49551167,-0.140933573,0,0,0,,0,257,257,318,1,
,,,,,,,,,,,,,,,,,,5f1e827568c1bb862cb9f5bd,2020-08-10_12h48.46.753,lexical_decision_task_MP,2020.1.3,Win32,60,m,1,,,,,,,,1.125,1,,,,,,124,WORD,"ID",50,blouse,BLOUSE,m,1.125,,,,,,0.49551167,-0.140933573,0,0,0,,0,258,258,63,1,
,,,,,,,,,,,,,,,,,,5f1e827568c1bb862cb9f5bd,2020-08-10_12h48.46.753,lexical_decision_task_MP,2020.1.3,Win32,60,m,1,,,,,,,,0.563,1,,,,,,228,WORD,UN,33,kidney,MASTER,m,0.563,,,,,,0.49551167,-0.140933573,0,0,0,,0,259,259,167,1,
,,,,,,,,,,,,,,,,,,5f1e827568c1bb862cb9f5bd,2020-08-10_12h48.46.753,lexical_decision_task_MP,2020.1.3,Win32,60,m,1,,,,,,,,0.604,1,,,,,,167,WORD,"ID",50,design,DESIGN,m,0.604,,,,,,0.49551167,-0.140933573,0,0,0,,0,260,260,106,1,
,,,,,,,,,,,,,,,,,,5f1e827568c1bb862cb9f5bd,2020-08-10_12h48.46.753,lexical_decision_task_MP,2020.1.3,Win32,60,m,1,,,,,,,,0.61,1,,,,,,116,WORD,"ID",33,tumble,TUMBLE,m,0.61,,,,,,0.49551167,-0.140933573,0,0,0,,0,261,261,55,1,
,,,,,,,,,,,,,,,,,,5f1e827568c1bb862cb9f5bd,2020-08-10_12h48.46.753,lexical_decision_task_MP,2020.1.3,Win32,60,z,1,,,,,,,,0.997,1,,,,,,448,NW,UN,33,brunge,SADENT,z,0.997,,,,,,0.49551167,-0.140933573,0,0,0,,0,262,262,387,1,
,,,,,,,,,,,,,,,,,,5f1e827568c1bb862cb9f5bd,2020-08-10_12h48.46.753,lexical_decision_task_MP,2020.1.3,Win32,60,m,1,,,,,,,,1.034,1,,,,,,219,WORD,UN,33,voyage,BUCKET,m,1.034,,,,,,0.49551167,-0.140933573,0,0,0,,0,263,263,158,1,
,,,,,,,,,,,,,,,,,,5f1e827568c1bb862cb9f5bd,2020-08-10_12h48.46.753,lexical_decision_task_MP,2020.1.3,Win32,60,m,1,,,,,,,,0.707,1,,,,,,162,WORD,"ID",50,candle,CANDLE,m,0.707,,,,,,0.49551167,-0.140933573,0,0,0,,0,264,264,101,1,
,,,,,,,,,,,,,,,,,,5f1e827568c1bb862cb9f5bd,2020-08-10_12h48.46.753,lexical_decision_task_MP,2020.1.3,Win32,60,z,1,,,,,,,,0.884,1,,,,,,243,NW,UN,50,eatric,MUSIED,z,0.884,,,,,,0.49551167,-0.140933573,0,0,0,,0,265,265,422,1,
,,,,,,,,,,,,,,,,,,5f1e827568c1bb862cb9f5bd,2020-08-10_12h48.46.753,lexical_decision_task_MP,2020.1.3,Win32,60,z,1,,,,,,,,0.85,1,,,,,,293,NW,UN,50,inhort,SWANCE,z,0.85,,,,,,0.49551167,-0.140933573,0,0,0,,0,266,266,472,1,
,,,,,,,,,,,,,,,,,,5f1e827568c1bb862cb9f5bd,2020-08-10_12h48.46.753,lexical_decision_task_MP,2020.1.3,Win32,60,z,1,,,,,,,,0.582,1,,,,,,455,NW,UN,33,broget,TONDLE,z,0.582,,,,,,0.49551167,-0.140933573,0,0,0,,0,267,267,394,1,
,,,,,,,,,,,,,,,,,,5f1e827568c1bb862cb9f5bd,2020-08-10_12h48.46.753,lexical_decision_task_MP,2020.1.3,Win32,60,z,1,,,,,,,,0.698,1,,,,,,387,NW,"ID",50,gronce,GRONCE,z,0.698,,,,,,0.49551167,-0.140933573,0,0,0,,0,268,268,326,1,
,,,,,,,,,,,,,,,,,,5f1e827568c1bb862cb9f5bd,2020-08-10_12h48.46.753,lexical_decision_task_MP,2020.1.3,Win32,60,z,1,,,,,,,,0.8,1,,,,,,284,NW,UN,50,prudge,SHAPLE,z,0.8,,,,,,0.49551167,-0.140933573,0,0,0,,0,269,269,463,1,
,,,,,,,,,,,,,,,,,,5f1e827568c1bb862cb9f5bd,2020-08-10_12h48.46.753,lexical_decision_task_MP,2020.1.3,Win32,60,m,1,,,,,,,,0.731,1,,,,,,88,WORD,"ID",33,hunger,HUNGER,m,0.731,,,,,,0.49551167,-0.140933573,0,0,0,,0,270,270,27,1,
,,,,,,,,,,,,,,,,,,5f1e827568c1bb862cb9f5bd,2020-08-10_12h48.46.753,lexical_decision_task_MP,2020.1.3,Win32,60,z,1,,,,,,,,0.834,1,,,,,,456,NW,UN,33,wanigh,BROGET,z,0.834,,,,,,0.49551167,-0.140933573,0,0,0,,0,271,271,395,1,
,,,,,,,,,,,,,,,,,,5f1e827568c1bb862cb9f5bd,2020-08-10_12h48.46.753,lexical_decision_task_MP,2020.1.3,Win32,60,z,0,,,,,,,,0.688,0,,,,,,86,WORD,"ID",33,rodent,RODENT,m,0.688,,,,,,0.49551167,-0.140933573,0,0,0,,0,272,272,25,1,
,,,,,,,,,,,,,,,,,,5f1e827568c1bb862cb9f5bd,2020-08-10_12h48.46.753,lexical_decision_task_MP,2020.1.3,Win32,60,z,0,,,,,,,,0.712,0,,,,,,144,WORD,"ID",50,sponge,SPONGE,m,0.712,,,,,,0.49551167,-0.140933573,0,0,0,,0,273,273,83,1,
,,,,,,,,,,,,,,,,,,5f1e827568c1bb862cb9f5bd,2020-08-10_12h48.46.753,lexical_decision_task_MP,2020.1.3,Win32,60,z,1,,,,,,,,0.874,1,,,,,,449,NW,UN,33,phrect,BRUNGE,z,0.874,,,,,,0.49551167,-0.140933573,0,0,0,,0,274,274,388,1,
,,,,,,,,,,,,,,,,,,5f1e827568c1bb862cb9f5bd,2020-08-10_12h48.46.753,lexical_decision_task_MP,2020.1.3,Win32,60,z,1,,,,,,,,0.758,1,,,,,,255,NW,UN,50,inlors,APIGHT,z,0.758,,,,,,0.49551167,-0.140933573,0,0,0,,0,275,275,434,1,
,,,,,,,,,,,,,,,,,,5f1e827568c1bb862cb9f5bd,2020-08-10_12h48.46.753,lexical_decision_task_MP,2020.1.3,Win32,60,z,1,,,,,,,,0.835,1,,,,,,332,NW,"ID",33,vangue,VANGUE,z,0.835,,,,,,0.49551167,-0.140933573,0,0,0,,0,276,276,271,1,
,,,,,,,,,,,,,,,,,,5f1e827568c1bb862cb9f5bd,2020-08-10_12h48.46.753,lexical_decision_task_MP,2020.1.3,Win32,60,z,1,,,,,,,,0.666,1,,,,,,469,NW,UN,33,crudio,PADIFS,z,0.666,,,,,,0.49551167,-0.140933573,0,0,0,,0,277,277,408,1,
,,,,,,,,,,,,,,,,,,5f1e827568c1bb862cb9f5bd,2020-08-10_12h48.46.753,lexical_decision_task_MP,2020.1.3,Win32,60,z,1,,,,,,,,0.937,1,,,,,,285,NW,UN,50,reldon,PRUDGE,z,0.937,,,,,,0.49551167,-0.140933573,0,0,0,,0,278,278,464,1,
,,,,,,,,,,,,,,,,,,5f1e827568c1bb862cb9f5bd,2020-08-10_12h48.46.753,lexical_decision_task_MP,2020.1.3,Win32,60,z,1,,,,,,,,0.713,1,,,,,,447,NW,UN,33,sadent,GIRCUE,z,0.713,,,,,,0.49551167,-0.140933573,0,0,0,,0,279,279,386,1,
,,,,,,,,,,,,,,,,,,5f1e827568c1bb862cb9f5bd,2020-08-10_12h48.46.753,lexical_decision_task_MP,2020.1.3,Win32,60,m,1,,,,,,,,0.874,1,,,,,,64,WORD,"ID",33,throne,THRONE,m,0.874,,,,,,0.49551167,-0.140933573,0,0,0,,0,280,280,3,1,
,,,,,,,,,,,,,,,,,,5f1e827568c1bb862cb9f5bd,2020-08-10_12h48.46.753,lexical_decision_task_MP,2020.1.3,Win32,60,z,1,,,,,,,,0.68,1,,,,,,420,NW,"ID",50,gushop,GUSHOP,z,0.68,,,,,,0.49551167,-0.140933573,0,0,0,,0,281,281,359,1,
,,,,,,,,,,,,,,,,,,5f1e827568c1bb862cb9f5bd,2020-08-10_12h48.46.753,lexical_decision_task_MP,2020.1.3,Win32,60,m,1,,,,,,,,0.734,1,,,,,,195,WORD,UN,33,credit,RESIGN,m,0.734,,,,,,0.49551167,-0.140933573,0,0,0,,0,282,282,134,1,
,,,,,,,,,,,,,,,,,,5f1e827568c1bb862cb9f5bd,2020-08-10_12h48.46.753,lexical_decision_task_MP,2020.1.3,Win32,60,z,1,,,,,,,,0.967,1,,,,,,338,NW,"ID",33,wreash,WREASH,z,0.967,,,,,,0.49551167,-0.140933573,0,0,0,,0,283,283,277,1,
,,,,,,,,,,,,,,,,,,5f1e827568c1bb862cb9f5bd,2020-08-10_12h48.46.753,lexical_decision_task_MP,2020.1.3,Win32,60,z,1,,,,,,,,0.938,1,,,,,,460,NW,UN,33,justre,MINGAR,z,0.938,,,,,,0.49551167,-0.140933573,0,0,0,,0,284,284,399,1,
,,,,,,,,,,,,,,,,,,5f1e827568c1bb862cb9f5bd,2020-08-10_12h48.46.753,lexical_decision_task_MP,2020.1.3,Win32,60,z,1,,,,,,,,1.041,1,,,,,,310,NW,"ID",33,daniet,DANIET,z,1.041,,,,,,0.49551167,-0.140933573,0,0,0,,0,285,285,249,1,
,,,,,,,,,,,,,,,,,,5f1e827568c1bb862cb9f5bd,2020-08-10_12h48.46.753,lexical_decision_task_MP,2020.1.3,Win32,60,z,1,,,,,,,,0.717,1,,,,,,317,NW,"ID",33,worbal,WORBAL,z,0.717,,,,,,0.49551167,-0.140933573,0,0,0,,0,286,286,256,1,
,,,,,,,,,,,,,,,,,,5f1e827568c1bb862cb9f5bd,2020-08-10_12h48.46.753,lexical_decision_task_MP,2020.1.3,Win32,60,m,1,,,,,,,,0.936,1,,,,,,178,WORD,"ID",50,inform,INFORM,m,0.936,,,,,,0.49551167,-0.140933573,0,0,0,,0,287,287,117,1,
,,,,,,,,,,,,,,,,,,5f1e827568c1bb862cb9f5bd,2020-08-10_12h48.46.753,lexical_decision_task_MP,2020.1.3,Win32,60,z,1,,,,,,,,0.793,1,,,,,,324,NW,"ID",33,steikh,STEIKH,z,0.793,,,,,,0.49551167,-0.140933573,0,0,0,,0,288,288,263,1,
,,,,,,,,,,,,,,,,,,5f1e827568c1bb862cb9f5bd,2020-08-10_12h48.46.753,lexical_decision_task_MP,2020.1.3,Win32,60,z,1,,,,,,,,0.811,1,,,,,,470,NW,UN,33,nobest,CRUDIO,z,0.811,,,,,,0.49551167,-0.140933573,0,0,0,,0,289,289,409,1,
,,,,,,,,,,,,,,,,,,5f1e827568c1bb862cb9f5bd,2020-08-10_12h48.46.753,lexical_decision_task_MP,2020.1.3,Win32,60,z,1,,,,,,,,0.804,1,,,,,,331,NW,"ID",33,gilfew,GILFEW,z,0.804,,,,,,0.49551167,-0.140933573,0,0,0,,0,290,290,270,1,
,,,,,,,,,,,,,,,,,,5f1e827568c1bb862cb9f5bd,2020-08-10_12h48.46.753,lexical_decision_task_MP,2020.1.3,Win32,60,z,0,,,,,,,,0.979,0,,,,,,66,WORD,"ID",33,gospel,GOSPEL,m,0.979,,,,,,0.49551167,-0.140933573,0,0,0,,0,291,291,5,1,
,,,,,,,,,,,,,,,,,,5f1e827568c1bb862cb9f5bd,2020-08-10_12h48.46.753,lexical_decision_task_MP,2020.1.3,Win32,60,m,1,,,,,,,,0.75,1,,,,,,129,WORD,"ID",50,marvel,MARVEL,m,0.75,,,,,,0.49551167,-0.140933573,0,0,0,,0,292,292,68,1,
,,,,,,,,,,,,,,,,,,5f1e827568c1bb862cb9f5bd,2020-08-10_12h48.46.753,lexical_decision_task_MP,2020.1.3,Win32,60,m,1,,,,,,,,0.636,1,,,,,,83,WORD,"ID",33,result,RESULT,m,0.636,,,,,,0.49551167,-0.140933573,0,0,0,,0,293,293,22,1,
,,,,,,,,,,,,,,,,,,5f1e827568c1bb862cb9f5bd,2020-08-10_12h48.46.753,lexical_decision_task_MP,2020.1.3,Win32,60,m,1,,,,,,,,0.561,1,,,,,,105,WORD,"ID",33,number,NUMBER,m,0.561,,,,,,0.49551167,-0.140933573,0,0,0,,0,294,294,44,1,
,,,,,,,,,,,,,,,,,,5f1e827568c1bb862cb9f5bd,2020-08-10_12h48.46.753,lexical_decision_task_MP,2020.1.3,Win32,60,z,1,,,,,,,,1.295,1,,,,,,249,NW,UN,50,milted,BATROL,z,1.295,,,,,,0.49551167,-0.140933573,0,0,0,,0,295,295,428,1,
,,,,,,,,,,,,,,,,,,5f1e827568c1bb862cb9f5bd,2020-08-10_12h48.46.753,lexical_decision_task_MP,2020.1.3,Win32,60,m,1,,,,,,,,0.659,1,,,,,,109,WORD,"ID",33,wonder,WONDER,m,0.659,,,,,,0.49551167,-0.140933573,0,0,0,,0,296,296,48,1,
,,,,,,,,,,,,,,,,,,5f1e827568c1bb862cb9f5bd,2020-08-10_12h48.46.753,lexical_decision_task_MP,2020.1.3,Win32,60,z,1,,,,,,,,0.756,1,,,,,,424,NW,UN,33,frudge,PRAILE,z,0.756,,,,,,0.49551167,-0.140933573,0,0,0,,0,297,297,363,1,
,,,,,,,,,,,,,,,,,,5f1e827568c1bb862cb9f5bd,2020-08-10_12h48.46.753,lexical_decision_task_MP,2020.1.3,Win32,60,z,1,,,,,,,,1.248,1,,,,,,461,NW,UN,33,absult,JUSTRE,z,1.248,,,,,,0.49551167,-0.140933573,0,0,0,,0,298,298,400,1,
,,,,,,,,,,,,,,,,,,5f1e827568c1bb862cb9f5bd,2020-08-10_12h48.46.753,lexical_decision_task_MP,2020.1.3,Win32,60,m,1,,,,,,,,0.939,1,,,,,,35,WORD,UN,50,vanish,SOCKET,m,0.939,,,,,,0.49551167,-0.140933573,0,0,0,,0,299,299,214,1,
,,,,,,,,,,,,,,,,,,5f1e827568c1bb862cb9f5bd,2020-08-10_12h48.46.753,lexical_decision_task_MP,2020.1.3,Win32,60,z,1,,,,,,,,0.821,1,,,,,,359,NW,"ID",33,fonver,FONVER,z,0.821,,,,,,0.49551167,-0.140933573,0,0,0,,0,300,300,298,1,
,,,,,,,,,,,,,,,,,,5f1e827568c1bb862cb9f5bd,2020-08-10_12h48.46.753,lexical_decision_task_MP,2020.1.3,Win32,60,m,1,,,,,,,,0.69,1,,,,,,194,WORD,UN,33,resign,ABSENT,m,0.69,,,,,,0.49551167,-0.140933573,0,0,0,,0,301,301,133,1,
,,,,,,,,,,,,,,,,,,5f1e827568c1bb862cb9f5bd,2020-08-10_12h48.46.753,lexical_decision_task_MP,2020.1.3,Win32,60,z,1,,,,,,,,0.822,1,,,,,,261,NW,UN,50,quilew,STUNCH,z,0.822,,,,,,0.49551167,-0.140933573,0,0,0,,0,302,302,440,1,
,,,,,,,,,,,,,,,,,,5f1e827568c1bb862cb9f5bd,2020-08-10_12h48.46.753,lexical_decision_task_MP,2020.1.3,Win32,60,m,1,,,,,,,,0.716,1,,,,,,9,WORD,UN,50,bridge,HUSTLE,m,0.716,,,,,,0.49551167,-0.140933573,0,0,0,,0,303,303,188,1,
,,,,,,,,,,,,,,,,,,5f1e827568c1bb862cb9f5bd,2020-08-10_12h48.46.753,lexical_decision_task_MP,2020.1.3,Win32,60,m,1,,,,,,,,0.711,1,,,,,,240,WORD,UN,33,seldom,FOREST,m,0.711,,,,,,0.49551167,-0.140933573,0,0,0,,0,304,304,179,1,
,,,,,,,,,,,,,,,,,,5f1e827568c1bb862cb9f5bd,2020-08-10_12h48.46.753,lexical_decision_task_MP,2020.1.3,Win32,60,m,1,,,,,,,,0.68,1,,,,,,138,WORD,"ID",50,melody,MELODY,m,0.68,,,,,,0.49551167,-0.140933573,0,0,0,,0,305,305,77,1,
,,,,,,,,,,,,,,,,,,5f1e827568c1bb862cb9f5bd,2020-08-10_12h48.46.753,lexical_decision_task_MP,2020.1.3,Win32,60,z,1,,,,,,,,0.717,1,,,,,,270,NW,UN,50,aubrid,WRIMSY,z,0.717,,,,,,0.49551167,-0.140933573,0,0,0,,0,306,306,449,1,
,,,,,,,,,,,,,,,,,,5f1e827568c1bb862cb9f5bd,2020-08-10_12h48.46.753,lexical_decision_task_MP,2020.1.3,Win32,60,m,1,,,,,,,,0.927,1,,,,,,26,WORD,UN,50,butler,SPRINT,m,0.927,,,,,,0.49551167,-0.140933573,0,0,0,,0,307,307,205,1,
,,,,,,,,,,,,,,,,,,5f1e827568c1bb862cb9f5bd,2020-08-10_12h48.46.753,lexical_decision_task_MP,2020.1.3,Win32,60,z,1,,,,,,,,0.917,1,,,,,,445,NW,UN,33,runamo,MINKEL,z,0.917,,,,,,0.49551167,-0.140933573,0,0,0,,0,308,308,384,1,
,,,,,,,,,,,,,,,,,,5f1e827568c1bb862cb9f5bd,2020-08-10_12h48.46.753,lexical_decision_task_MP,2020.1.3,Win32,60,m,1,,,,,,,,0.945,1,,,,,,58,WORD,UN,50,splint,FOSTER,m,0.945,,,,,,0.49551167,-0.140933573,0,0,0,,0,309,309,237,1,
,,,,,,,,,,,,,,,,,,5f1e827568c1bb862cb9f5bd,2020-08-10_12h48.46.753,lexical_decision_task_MP,2020.1.3,Win32,60,z,0,,,,,,,,0.695,0,,,,,,212,WORD,UN,33,squeal,VERIFY,m,0.695,,,,,,0.49551167,-0.140933573,0,0,0,,0,310,310,151,1,
,,,,,,,,,,,,,,,,,,5f1e827568c1bb862cb9f5bd,2020-08-10_12h48.46.753,lexical_decision_task_MP,2020.1.3,Win32,60,z,1,,,,,,,,1.571,1,,,,,,401,NW,"ID",50,mustil,MUSTIL,z,1.571,,,,,,0.49551167,-0.140933573,0,0,0,,0,311,311,340,1,
,,,,,,,,,,,,,,,,,,5f1e827568c1bb862cb9f5bd,2020-08-10_12h48.46.753,lexical_decision_task_MP,2020.1.3,Win32,60,z,0,,,,,,,,0.812,0,,,,,,183,WORD,UN,33,sleazy,MILDEW,m,0.812,,,,,,0.49551167,-0.140933573,0,0,0,,0,312,312,122,1,
,,,,,,,,,,,,,,,,,,5f1e827568c1bb862cb9f5bd,2020-08-10_12h48.46.753,lexical_decision_task_MP,2020.1.3,Win32,60,z,1,,,,,,,,0.904,1,,,,,,423,NW,UN,33,praile,STRELD,z,0.904,,,,,,0.49551167,-0.140933573,0,0,0,,0,313,313,362,1,
,,,,,,,,,,,,,,,,,,5f1e827568c1bb862cb9f5bd,2020-08-10_12h48.46.753,lexical_decision_task_MP,2020.1.3,Win32,60,z,1,,,,,,,,0.712,1,,,,,,346,NW,"ID",33,saudic,SAUDIC,z,0.712,,,,,,0.49551167,-0.140933573,0,0,0,,0,314,314,285,1,
,,,,,,,,,,,,,,,,,,5f1e827568c1bb862cb9f5bd,2020-08-10_12h48.46.753,lexical_decision_task_MP,2020.1.3,Win32,60,z,0,,,,,,,,1.168,0,,,,,,149,WORD,"ID",50,invade,INVADE,m,1.168,,,,,,0.49551167,-0.140933573,0,0,0,,0,315,315,88,1,
,,,,,,,,,,,,,,,,,,5f1e827568c1bb862cb9f5bd,2020-08-10_12h48.46.753,lexical_decision_task_MP,2020.1.3,Win32,60,z,1,,,,,,,,0.718,1,,,,,,276,NW,UN,50,petain,YARMON,z,0.718,,,,,,0.49551167,-0.140933573,0,0,0,,0,316,316,455,1,
,,,,,,,,,,,,,,,,,,5f1e827568c1bb862cb9f5bd,2020-08-10_12h48.46.753,lexical_decision_task_MP,2020.1.3,Win32,60,m,1,,,,,,,,1.021,1,,,,,,100,WORD,"ID",33,carbon,CARBON,m,1.021,,,,,,0.49551167,-0.140933573,0,0,0,,0,317,317,39,1,
,,,,,,,,,,,,,,,,,,5f1e827568c1bb862cb9f5bd,2020-08-10_12h48.46.753,lexical_decision_task_MP,2020.1.3,Win32,60,m,1,,,,,,,,1.085,1,,,,,,54,WORD,UN,50,stroke,RAMBLE,m,1.085,,,,,,0.49551167,-0.140933573,0,0,0,,0,318,318,233,1,
,,,,,,,,,,,,,,,,,,5f1e827568c1bb862cb9f5bd,2020-08-10_12h48.46.753,lexical_decision_task_MP,2020.1.3,Win32,60,z,1,,,,,,,,0.719,1,,,,,,362,NW,"ID",50,tireau,TIREAU,z,0.719,,,,,,0.49551167,-0.140933573,0,0,0,,0,319,319,301,1,
,,,,,,,,,,,,,,,,,,5f1e827568c1bb862cb9f5bd,2020-08-10_12h48.46.753,lexical_decision_task_MP,2020.1.3,Win32,60,m,1,,,,,,,,0.709,1,,,,,,72,WORD,"ID",33,bright,BRIGHT,m,0.709,,,,,,0.49551167,-0.140933573,0,0,0,,0,320,320,11,1,
,,,,,,,,,,,,,,,,,,5f1e827568c1bb862cb9f5bd,2020-08-10_12h48.46.753,lexical_decision_task_MP,2020.1.3,Win32,60,z,1,,,,,,,,1.275,1,,,,,,316,NW,"ID",33,scregm,SCREGM,z,1.275,,,,,,0.49551167,-0.140933573,0,0,0,,0,321,321,255,1,
,,,,,,,,,,,,,,,,,,5f1e827568c1bb862cb9f5bd,2020-08-10_12h48.46.753,lexical_decision_task_MP,2020.1.3,Win32,60,z,1,,,,,,,,1.442,1,,,,,,373,NW,"ID",50,bigent,BIGENT,z,1.442,,,,,,0.49551167,-0.140933573,0,0,0,,0,322,322,312,1,
,,,,,,,,,,,,,,,,,,5f1e827568c1bb862cb9f5bd,2020-08-10_12h48.46.753,lexical_decision_task_MP,2020.1.3,Win32,60,z,1,,,,,,,,0.968,1,,,,,,370,NW,"ID",50,sleact,SLEACT,z,0.968,,,,,,0.49551167,-0.140933573,0,0,0,,0,323,323,309,1,
,,,,,,,,,,,,,,,,,,5f1e827568c1bb862cb9f5bd,2020-08-10_12h48.46.753,lexical_decision_task_MP,2020.1.3,Win32,60,z,1,,,,,,,,0.986,1,,,,,,350,NW,"ID",33,nagurs,NAGURS,z,0.986,,,,,,0.49551167,-0.140933573,0,0,0,,0,324,324,289,1,
,,,,,,,,,,,,,,,,,,5f1e827568c1bb862cb9f5bd,2020-08-10_12h48.46.753,lexical_decision_task_MP,2020.1.3,Win32,60,z,1,,,,,,,,0.873,1,,,,,,311,NW,"ID",33,sproly,SPROLY,z,0.873,,,,,,0.49551167,-0.140933573,0,0,0,,0,325,325,250,1,
,,,,,,,,,,,,,,,,,,5f1e827568c1bb862cb9f5bd,2020-08-10_12h48.46.753,lexical_decision_task_MP,2020.1.3,Win32,60,m,0,,,,,,,,0.929,0,,,,,,398,NW,"ID",50,blunde,BLUNDE,z,0.929,,,,,,0.49551167,-0.140933573,0,0,0,,0,326,326,337,1,
,,,,,,,,,,,,,,,,,,5f1e827568c1bb862cb9f5bd,2020-08-10_12h48.46.753,lexical_decision_task_MP,2020.1.3,Win32,60,m,1,,,,,,,,1.176,1,,,,,,11,WORD,UN,50,amount,CRUISE,m,1.176,,,,,,0.49551167,-0.140933573,0,0,0,,0,327,327,190,1,
,,,,,,,,,,,,,,,,,,5f1e827568c1bb862cb9f5bd,2020-08-10_12h48.46.753,lexical_decision_task_MP,2020.1.3,Win32,60,m,1,,,,,,,,0.832,1,,,,,,27,WORD,UN,50,comedy,SCREAM,m,0.832,,,,,,0.49551167,-0.140933573,0,0,0,,0,328,328,206,1,
,,,,,,,,,,,,,,,,,,5f1e827568c1bb862cb9f5bd,2020-08-10_12h48.46.753,lexical_decision_task_MP,2020.1.3,Win32,60,z,1,,,,,,,,0.773,1,,,,,,410,NW,"ID",50,tunory,TUNORY,z,0.773,,,,,,0.49551167,-0.140933573,0,0,0,,0,329,329,349,1,
,,,,,,,,,,,,,,,,,,5f1e827568c1bb862cb9f5bd,2020-08-10_12h48.46.753,lexical_decision_task_MP,2020.1.3,Win32,60,z,1,,,,,,,,0.984,1,,,,,,302,NW,"ID",33,miluer,MILUER,z,0.984,,,,,,0.49551167,-0.140933573,0,0,0,,0,330,330,241,1,
,,,,,,,,,,,,,,,,,,5f1e827568c1bb862cb9f5bd,2020-08-10_12h48.46.753,lexical_decision_task_MP,2020.1.3,Win32,60,z,1,,,,,,,,0.694,1,,,,,,259,NW,UN,50,unject,SOUDAL,z,0.694,,,,,,0.49551167,-0.140933573,0,0,0,,0,331,331,438,1,
,,,,,,,,,,,,,,,,,,5f1e827568c1bb862cb9f5bd,2020-08-10_12h48.46.753,lexical_decision_task_MP,2020.1.3,Win32,60,z,1,,,,,,,,0.708,1,,,,,,439,NW,UN,33,saride,LIMPOR,z,0.708,,,,,,0.49551167,-0.140933573,0,0,0,,0,332,332,378,1,
,,,,,,,,,,,,,,,,,,5f1e827568c1bb862cb9f5bd,2020-08-10_12h48.46.753,lexical_decision_task_MP,2020.1.3,Win32,60,m,1,,,,,,,,0.977,1,,,,,,55,WORD,UN,50,ambush,STROKE,m,0.977,,,,,,0.49551167,-0.140933573,0,0,0,,0,333,333,234,1,
,,,,,,,,,,,,,,,,,,5f1e827568c1bb862cb9f5bd,2020-08-10_12h48.46.753,lexical_decision_task_MP,2020.1.3,Win32,60,z,1,,,,,,,,0.814,1,,,,,,347,NW,"ID",33,kerift,KERIFT,z,0.814,,,,,,0.49551167,-0.140933573,0,0,0,,0,334,334,286,1,
,,,,,,,,,,,,,,,,,,5f1e827568c1bb862cb9f5bd,2020-08-10_12h48.46.753,lexical_decision_task_MP,2020.1.3,Win32,60,z,1,,,,,,,,0.883,1,,,,,,381,NW,"ID",50,huniek,HUNIEK,z,0.883,,,,,,0.49551167,-0.140933573,0,0,0,,0,335,335,320,1,
,,,,,,,,,,,,,,,,,,5f1e827568c1bb862cb9f5bd,2020-08-10_12h48.46.753,lexical_decision_task_MP,2020.1.3,Win32,60,m,1,,,,,,,,0.792,1,,,,,,61,WORD,"ID",33,ponder,PONDER,m,0.792,,,,,,0.49551167,-0.140933573,0,0,0,,0,336,336,0,1,
,,,,,,,,,,,,,,,,,,5f1e827568c1bb862cb9f5bd,2020-08-10_12h48.46.753,lexical_decision_task_MP,2020.1.3,Win32,60,z,1,,,,,,,,0.609,1,,,,,,438,NW,UN,33,limpor,BAITCH,z,0.609,,,,,,0.49551167,-0.140933573,0,0,0,,0,337,337,377,1,
,,,,,,,,,,,,,,,,,,5f1e827568c1bb862cb9f5bd,2020-08-10_12h48.46.753,lexical_decision_task_MP,2020.1.3,Win32,60,m,1,,,,,,,,0.672,1,,,,,,37,WORD,UN,50,powder,INSULT,m,0.672,,,,,,0.49551167,-0.140933573,0,0,0,,0,338,338,216,1,
,,,,,,,,,,,,,,,,,,5f1e827568c1bb862cb9f5bd,2020-08-10_12h48.46.753,lexical_decision_task_MP,2020.1.3,Win32,60,z,1,,,,,,,,0.98,1,,,,,,289,NW,UN,50,splino,STARBY,z,0.98,,,,,,0.49551167,-0.140933573,0,0,0,,0,339,339,468,1,
,,,,,,,,,,,,,,,,,,5f1e827568c1bb862cb9f5bd,2020-08-10_12h48.46.753,lexical_decision_task_MP,2020.1.3,Win32,60,m,1,,,,,,,,0.904,1,,,,,,28,WORD,UN,50,sketch,COMEDY,m,0.904,,,,,,0.49551167,-0.140933573,0,0,0,,0,340,340,207,1,
,,,,,,,,,,,,,,,,,,5f1e827568c1bb862cb9f5bd,2020-08-10_12h48.46.753,lexical_decision_task_MP,2020.1.3,Win32,60,z,0,,,,,,,,1.021,0,,,,,,131,WORD,"ID",50,quench,QUENCH,m,1.021,,,,,,0.49551167,-0.140933573,0,0,0,,0,341,341,70,1,
,,,,,,,,,,,,,,,,,,5f1e827568c1bb862cb9f5bd,2020-08-10_12h48.46.753,lexical_decision_task_MP,2020.1.3,Win32,60,m,1,,,,,,,,0.561,1,,,,,,132,WORD,"ID",50,strong,STRONG,m,0.561,,,,,,0.49551167,-0.140933573,0,0,0,,0,342,342,71,1,
,,,,,,,,,,,,,,,,,,5f1e827568c1bb862cb9f5bd,2020-08-10_12h48.46.753,lexical_decision_task_MP,2020.1.3,Win32,60,z,0,,,,,,,,0.918,0,,,,,,239,WORD,UN,33,forest,LUMBER,m,0.918,,,,,,0.49551167,-0.140933573,0,0,0,,0,343,343,178,1,
,,,,,,,,,,,,,,,,,,5f1e827568c1bb862cb9f5bd,2020-08-10_12h48.46.753,lexical_decision_task_MP,2020.1.3,Win32,60,m,1,,,,,,,,0.587,1,,,,,,102,WORD,"ID",33,direct,DIRECT,m,0.587,,,,,,0.49551167,-0.140933573,0,0,0,,0,344,344,41,1,
,,,,,,,,,,,,,,,,,,5f1e827568c1bb862cb9f5bd,2020-08-10_12h48.46.753,lexical_decision_task_MP,2020.1.3,Win32,60,m,1,,,,,,,,0.67,1,,,,,,112,WORD,"ID",33,breath,BREATH,m,0.67,,,,,,0.49551167,-0.140933573,0,0,0,,0,345,345,51,1,
,,,,,,,,,,,,,,,,,,5f1e827568c1bb862cb9f5bd,2020-08-10_12h48.46.753,lexical_decision_task_MP,2020.1.3,Win32,60,z,1,,,,,,,,0.622,1,,,,,,465,NW,UN,33,bafent,WHIVEX,z,0.622,,,,,,0.49551167,-0.140933573,0,0,0,,0,346,346,404,1,
,,,,,,,,,,,,,,,,,,5f1e827568c1bb862cb9f5bd,2020-08-10_12h48.46.753,lexical_decision_task_MP,2020.1.3,Win32,60,m,1,,,,,,,,0.706,1,,,,,,53,WORD,UN,50,ramble,POLICE,m,0.706,,,,,,0.49551167,-0.140933573,0,0,0,,0,347,347,232,1,
,,,,,,,,,,,,,,,,,,5f1e827568c1bb862cb9f5bd,2020-08-10_12h48.46.753,lexical_decision_task_MP,2020.1.3,Win32,60,m,1,,,,,,,,0.624,1,,,,,,81,WORD,"ID",33,friend,FRIEND,m,0.624,,,,,,0.49551167,-0.140933573,0,0,0,,0,348,348,20,1,
,,,,,,,,,,,,,,,,,,5f1e827568c1bb862cb9f5bd,2020-08-10_12h48.46.753,lexical_decision_task_MP,2020.1.3,Win32,60,m,1,,,,,,,,0.775,1,,,,,,150,WORD,"ID",50,random,RANDOM,m,0.775,,,,,,0.49551167,-0.140933573,0,0,0,,0,349,349,89,1,
,,,,,,,,,,,,,,,,,,5f1e827568c1bb862cb9f5bd,2020-08-10_12h48.46.753,lexical_decision_task_MP,2020.1.3,Win32,60,z,1,,,,,,,,0.753,1,,,,,,454,NW,UN,33,tondle,SCOUGE,z,0.753,,,,,,0.49551167,-0.140933573,0,0,0,,0,350,350,393,1,
,,,,,,,,,,,,,,,,,,5f1e827568c1bb862cb9f5bd,2020-08-10_12h48.46.753,lexical_decision_task_MP,2020.1.3,Win32,60,z,0,,,,,,,,0.939,0,,,,,,199,WORD,UN,33,plague,INVOKE,m,0.939,,,,,,0.49551167,-0.140933573,0,0,0,,0,351,351,138,1,
,,,,,,,,,,,,,,,,,,5f1e827568c1bb862cb9f5bd,2020-08-10_12h48.46.753,lexical_decision_task_MP,2020.1.3,Win32,60,z,0,,,,,,,,0.722,0,,,,,,75,WORD,"ID",33,trophy,TROPHY,m,0.722,,,,,,0.49551167,-0.140933573,0,0,0,,0,352,352,14,1,
,,,,,,,,,,,,,,,,,,5f1e827568c1bb862cb9f5bd,2020-08-10_12h48.46.753,lexical_decision_task_MP,2020.1.3,Win32,60,m,1,,,,,,,,0.624,1,,,,,,197,WORD,UN,33,wicked,STREAM,m,0.624,,,,,,0.49551167,-0.140933573,0,0,0,,0,353,353,136,1,
,,,,,,,,,,,,,,,,,,5f1e827568c1bb862cb9f5bd,2020-08-10_12h48.46.753,lexical_decision_task_MP,2020.1.3,Win32,60,z,1,,,,,,,,0.833,1,,,,,,472,NW,UN,33,gorbie,CIGNEY,z,0.833,,,,,,0.49551167,-0.140933573,0,0,0,,0,354,354,411,1,
,,,,,,,,,,,,,,,,,,5f1e827568c1bb862cb9f5bd,2020-08-10_12h48.46.753,lexical_decision_task_MP,2020.1.3,Win32,60,z,1,,,,,,,,0.818,1,,,,,,408,NW,"ID",50,hurnia,HURNIA,z,0.818,,,,,,0.49551167,-0.140933573,0,0,0,,0,355,355,347,1,
,,,,,,,,,,,,,,,,,,5f1e827568c1bb862cb9f5bd,2020-08-10_12h48.46.753,lexical_decision_task_MP,2020.1.3,Win32,60,z,1,,,,,,,,0.836,1,,,,,,389,NW,"ID",50,witmer,WITMER,z,0.836,,,,,,0.49551167,-0.140933573,0,0,0,,0,356,356,328,1,
,,,,,,,,,,,,,,,,,,5f1e827568c1bb862cb9f5bd,2020-08-10_12h48.46.753,lexical_decision_task_MP,2020.1.3,Win32,60,z,1,,,,,,,,1.154,1,,,,,,475,NW,UN,33,josted,PEBRIC,z,1.154,,,,,,0.49551167,-0.140933573,0,0,0,,0,357,357,414,1,
,,,,,,,,,,,,,,,,,,5f1e827568c1bb862cb9f5bd,2020-08-10_12h48.46.753,lexical_decision_task_MP,2020.1.3,Win32,60,z,1,,,,,,,,1.543,1,,,,,,409,NW,"ID",50,elopia,ELOPIA,z,1.543,,,,,,0.49551167,-0.140933573,0,0,0,,0,358,358,348,1,
,,,,,,,,,,,,,,,,,,5f1e827568c1bb862cb9f5bd,2020-08-10_12h48.46.753,lexical_decision_task_MP,2020.1.3,Win32,60,m,1,,,,,,,,0.654,1,,,,,,57,WORD,UN,50,danger,CHANGE,m,0.654,,,,,,0.49551167,-0.140933573,0,0,0,,0,359,359,236,1,
,,,,,,,,,,,,,,,,,,5f1e827568c1bb862cb9f5bd,2020-08-10_12h48.46.753,lexical_decision_task_MP,2020.1.3,Win32,60,z,1,,,,,,,,0.75,1,,,,,,280,NW,UN,50,melaty,CURBOL,z,0.75,,,,,,0.49551167,-0.140933573,0,0,0,,0,360,360,459,1,
,,,,,,,,,,,,,,,,,,5f1e827568c1bb862cb9f5bd,2020-08-10_12h48.46.753,lexical_decision_task_MP,2020.1.3,Win32,60,m,1,,,,,,,,0.93,1,,,,,,174,WORD,"ID",50,turkey,TURKEY,m,0.93,,,,,,0.49551167,-0.140933573,0,0,0,,0,361,361,113,1,
,,,,,,,,,,,,,,,,,,5f1e827568c1bb862cb9f5bd,2020-08-10_12h48.46.753,lexical_decision_task_MP,2020.1.3,Win32,60,m,1,,,,,,,,0.587,1,,,,,,238,WORD,UN,33,behalf,FLOWER,m,0.587,,,,,,-0.382405745,-0.207360862,0,0,0,space,0,362,362,177,1,11.7
,,,,,,,,,,,,,,,,,,5f1e827568c1bb862cb9f5bd,2020-08-10_12h48.46.753,lexical_decision_task_MP,2020.1.3,Win32,60,m,1,,,,,,,,0.675,1,,,,,,80,WORD,"ID",33,family,FAMILY,m,0.675,,,,,,-0.382405745,-0.207360862,0,0,0,,0,363,363,19,1,
,,,,,,,,,,,,,,,,,,5f1e827568c1bb862cb9f5bd,2020-08-10_12h48.46.753,lexical_decision_task_MP,2020.1.3,Win32,60,z,0,,,,,,,,0.793,0,,,,,,236,WORD,UN,33,grumpy,PIRATE,m,0.793,,,,,,-0.382405745,-0.207360862,0,0,0,,0,364,364,175,1,
,,,,,,,,,,,,,,,,,,5f1e827568c1bb862cb9f5bd,2020-08-10_12h48.46.753,lexical_decision_task_MP,2020.1.3,Win32,60,z,1,,,,,,,,1.331,1,,,,,,352,NW,"ID",33,tringe,TRINGE,z,1.331,,,,,,-0.382405745,-0.207360862,0,0,0,,0,365,365,291,1,
,,,,,,,,,,,,,,,,,,5f1e827568c1bb862cb9f5bd,2020-08-10_12h48.46.753,lexical_decision_task_MP,2020.1.3,Win32,60,m,1,,,,,,,,1.003,1,,,,,,136,WORD,"ID",50,bleach,BLEACH,m,1.003,,,,,,-0.382405745,-0.207360862,0,0,0,,0,366,366,75,1,
,,,,,,,,,,,,,,,,,,5f1e827568c1bb862cb9f5bd,2020-08-10_12h48.46.753,lexical_decision_task_MP,2020.1.3,Win32,60,z,1,,,,,,,,0.775,1,,,,,,329,NW,"ID",33,yarike,YARIKE,z,0.775,,,,,,-0.382405745,-0.207360862,0,0,0,,0,367,367,268,1,
,,,,,,,,,,,,,,,,,,5f1e827568c1bb862cb9f5bd,2020-08-10_12h48.46.753,lexical_decision_task_MP,2020.1.3,Win32,60,m,1,,,,,,,,0.948,1,,,,,,215,WORD,UN,33,lumber,PHOBIA,m,0.948,,,,,,-0.382405745,-0.207360862,0,0,0,,0,368,368,154,1,
,,,,,,,,,,,,,,,,,,5f1e827568c1bb862cb9f5bd,2020-08-10_12h48.46.753,lexical_decision_task_MP,2020.1.3,Win32,60,z,1,,,,,,,,0.853,1,,,,,,415,NW,"ID",50,higsta,HIGSTA,z,0.853,,,,,,-0.382405745,-0.207360862,0,0,0,,0,369,369,354,1,
,,,,,,,,,,,,,,,,,,5f1e827568c1bb862cb9f5bd,2020-08-10_12h48.46.753,lexical_decision_task_MP,2020.1.3,Win32,60,z,1,,,,,,,,0.958,1,,,,,,272,NW,UN,50,sortel,DAMILT,z,0.958,,,,,,-0.382405745,-0.207360862,0,0,0,,0,370,370,451,1,
,,,,,,,,,,,,,,,,,,5f1e827568c1bb862cb9f5bd,2020-08-10_12h48.46.753,lexical_decision_task_MP,2020.1.3,Win32,60,m,1,,,,,,,,0.636,1,,,,,,76,WORD,"ID",33,exotic,EXOTIC,m,0.636,,,,,,-0.382405745,-0.207360862,0,0,0,,0,371,371,15,1,
,,,,,,,,,,,,,,,,,,5f1e827568c1bb862cb9f5bd,2020-08-10_12h48.46.753,lexical_decision_task_MP,2020.1.3,Win32,60,z,1,,,,,,,,0.877,1,,,,,,248,NW,UN,50,batrol,STROLE,z,0.877,,,,,,-0.382405745,-0.207360862,0,0,0,,0,372,372,427,1,
,,,,,,,,,,,,,,,,,,5f1e827568c1bb862cb9f5bd,2020-08-10_12h48.46.753,lexical_decision_task_MP,2020.1.3,Win32,60,m,1,,,,,,,,1.238,1,,,,,,198,WORD,UN,33,invoke,WICKED,m,1.238,,,,,,-0.382405745,-0.207360862,0,0,0,,0,373,373,137,1,
,,,,,,,,,,,,,,,,,,5f1e827568c1bb862cb9f5bd,2020-08-10_12h48.46.753,lexical_decision_task_MP,2020.1.3,Win32,60,m,1,,,,,,,,0.769,1,,,,,,191,WORD,UN,33,beacon,STABLE,m,0.769,,,,,,-0.382405745,-0.207360862,0,0,0,,0,374,374,130,1,
,,,,,,,,,,,,,,,,,,5f1e827568c1bb862cb9f5bd,2020-08-10_12h48.46.753,lexical_decision_task_MP,2020.1.3,Win32,60,z,1,,,,,,,,0.947,1,,,,,,277,NW,UN,50,unighs,PETAIN,z,0.947,,,,,,-0.382405745,-0.207360862,0,0,0,,0,375,375,456,1,
,,,,,,,,,,,,,,,,,,5f1e827568c1bb862cb9f5bd,2020-08-10_12h48.46.753,lexical_decision_task_MP,2020.1.3,Win32,60,m,1,,,,,,,,0.545,1,,,,,,168,WORD,"ID",50,answer,ANSWER,m,0.545,,,,,,-0.382405745,-0.207360862,0,0,0,,0,376,376,107,1,
,,,,,,,,,,,,,,,,,,5f1e827568c1bb862cb9f5bd,2020-08-10_12h48.46.753,lexical_decision_task_MP,2020.1.3,Win32,60,z,1,,,,,,,,0.735,1,,,,,,433,NW,UN,33,pitrom,DRANCE,z,0.735,,,,,,-0.382405745,-0.207360862,0,0,0,,0,377,377,372,1,
,,,,,,,,,,,,,,,,,,5f1e827568c1bb862cb9f5bd,2020-08-10_12h48.46.753,lexical_decision_task_MP,2020.1.3,Win32,60,m,1,,,,,,,,1.299,1,,,,,,161,WORD,"ID",50,pastor,PASTOR,m,1.299,,,,,,-0.382405745,-0.207360862,0,0,0,,0,378,378,100,1,
,,,,,,,,,,,,,,,,,,5f1e827568c1bb862cb9f5bd,2020-08-10_12h48.46.753,lexical_decision_task_MP,2020.1.3,Win32,60,m,1,,,,,,,,0.839,1,,,,,,43,WORD,UN,50,foster,TONGUE,m,0.839,,,,,,-0.382405745,-0.207360862,0,0,0,,0,379,379,222,1,
,,,,,,,,,,,,,,,,,,5f1e827568c1bb862cb9f5bd,2020-08-10_12h48.46.753,lexical_decision_task_MP,2020.1.3,Win32,60,m,0,,,,,,,,0.897,0,,,,,,250,NW,UN,50,lupict,MILTED,z,0.897,,,,,,-0.382405745,-0.207360862,0,0,0,,0,380,380,429,1,
,,,,,,,,,,,,,,,,,,5f1e827568c1bb862cb9f5bd,2020-08-10_12h48.46.753,lexical_decision_task_MP,2020.1.3,Win32,60,m,1,,,,,,,,0.667,1,,,,,,186,WORD,UN,33,course,PORTAL,m,0.667,,,,,,-0.382405745,-0.207360862,0,0,0,,0,381,381,125,1,
,,,,,,,,,,,,,,,,,,5f1e827568c1bb862cb9f5bd,2020-08-10_12h48.46.753,lexical_decision_task_MP,2020.1.3,Win32,60,m,1,,,,,,,,0.632,1,,,,,,18,WORD,UN,50,patron,HUMBLE,m,0.632,,,,,,-0.382405745,-0.207360862,0,0,0,,0,382,382,197,1,
,,,,,,,,,,,,,,,,,,5f1e827568c1bb862cb9f5bd,2020-08-10_12h48.46.753,lexical_decision_task_MP,2020.1.3,Win32,60,m,1,,,,,,,,1.24,1,,,,,,190,WORD,UN,33,stable,BACKUP,m,1.24,,,,,,-0.382405745,-0.207360862,0,0,0,,0,383,383,129,1,
,,,,,,,,,,,,,,,,,,5f1e827568c1bb862cb9f5bd,2020-08-10_12h48.46.753,lexical_decision_task_MP,2020.1.3,Win32,60,z,1,,,,,,,,0.979,1,,,,,,294,NW,UN,50,gleath,INHORT,z,0.979,,,,,,-0.382405745,-0.207360862,0,0,0,,0,384,384,473,1,
,,,,,,,,,,,,,,,,,,5f1e827568c1bb862cb9f5bd,2020-08-10_12h48.46.753,lexical_decision_task_MP,2020.1.3,Win32,60,z,1,,,,,,,,0.688,1,,,,,,328,NW,"ID",33,broake,BROAKE,z,0.688,,,,,,-0.382405745,-0.207360862,0,0,0,,0,385,385,267,1,
,,,,,,,,,,,,,,,,,,5f1e827568c1bb862cb9f5bd,2020-08-10_12h48.46.753,lexical_decision_task_MP,2020.1.3,Win32,60,m,0,,,,,,,,1.167,0,,,,,,345,NW,"ID",33,absend,ABSEND,z,1.167,,,,,,-0.382405745,-0.207360862,0,0,0,,0,386,386,284,1,
,,,,,,,,,,,,,,,,,,5f1e827568c1bb862cb9f5bd,2020-08-10_12h48.46.753,lexical_decision_task_MP,2020.1.3,Win32,60,m,1,,,,,,,,0.774,1,,,,,,155,WORD,"ID",50,lizard,LIZARD,m,0.774,,,,,,-0.382405745,-0.207360862,0,0,0,,0,387,387,94,1,
,,,,,,,,,,,,,,,,,,5f1e827568c1bb862cb9f5bd,2020-08-10_12h48.46.753,lexical_decision_task_MP,2020.1.3,Win32,60,z,1,,,,,,,,0.904,1,,,,,,442,NW,UN,33,dorsex,ABOUNE,z,0.904,,,,,,-0.382405745,-0.207360862,0,0,0,,0,388,388,381,1,
,,,,,,,,,,,,,,,,,,5f1e827568c1bb862cb9f5bd,2020-08-10_12h48.46.753,lexical_decision_task_MP,2020.1.3,Win32,60,m,1,,,,,,,,0.707,1,,,,,,206,WORD,UN,33,wreath,TAILOR,m,0.707,,,,,,-0.382405745,-0.207360862,0,0,0,,0,389,389,145,1,
,,,,,,,,,,,,,,,,,,5f1e827568c1bb862cb9f5bd,2020-08-10_12h48.46.753,lexical_decision_task_MP,2020.1.3,Win32,60,z,1,,,,,,,,0.74,1,,,,,,341,NW,"ID",33,myrtie,MYRTIE,z,0.74,,,,,,-0.382405745,-0.207360862,0,0,0,,0,390,390,280,1,
,,,,,,,,,,,,,,,,,,5f1e827568c1bb862cb9f5bd,2020-08-10_12h48.46.753,lexical_decision_task_MP,2020.1.3,Win32,60,m,1,,,,,,,,0.781,1,,,,,,25,WORD,UN,50,sprint,DOMAIN,m,0.781,,,,,,-0.382405745,-0.207360862,0,0,0,,0,391,391,204,1,
,,,,,,,,,,,,,,,,,,5f1e827568c1bb862cb9f5bd,2020-08-10_12h48.46.753,lexical_decision_task_MP,2020.1.3,Win32,60,m,1,,,,,,,,0.659,1,,,,,,119,WORD,"ID",33,spider,SPIDER,m,0.659,,,,,,-0.382405745,-0.207360862,0,0,0,,0,392,392,58,1,
,,,,,,,,,,,,,,,,,,5f1e827568c1bb862cb9f5bd,2020-08-10_12h48.46.753,lexical_decision_task_MP,2020.1.3,Win32,60,m,1,,,,,,,,0.572,1,,,,,,229,WORD,UN,33,fringe,MOTHER,m,0.572,,,,,,-0.382405745,-0.207360862,0,0,0,,0,393,393,168,1,
,,,,,,,,,,,,,,,,,,5f1e827568c1bb862cb9f5bd,2020-08-10_12h48.46.753,lexical_decision_task_MP,2020.1.3,Win32,60,m,1,,,,,,,,0.531,1,,,,,,93,WORD,"ID",33,public,PUBLIC,m,0.531,,,,,,-0.382405745,-0.207360862,0,0,0,,0,394,394,32,1,
,,,,,,,,,,,,,,,,,,5f1e827568c1bb862cb9f5bd,2020-08-10_12h48.46.753,lexical_decision_task_MP,2020.1.3,Win32,60,z,1,,,,,,,,0.925,1,,,,,,477,NW,UN,33,lobush,PHOTIE,z,0.925,,,,,,-0.382405745,-0.207360862,0,0,0,,0,395,395,416,1,
,,,,,,,,,,,,,,,,,,5f1e827568c1bb862cb9f5bd,2020-08-10_12h48.46.753,lexical_decision_task_MP,2020.1.3,Win32,60,m,1,,,,,,,,1.208,1,,,,,,60,WORD,UN,50,fright,PENCIL,m,1.208,,,,,,-0.382405745,-0.207360862,0,0,0,,0,396,396,239,1,
,,,,,,,,,,,,,,,,,,5f1e827568c1bb862cb9f5bd,2020-08-10_12h48.46.753,lexical_decision_task_MP,2020.1.3,Win32,60,z,1,,,,,,,,0.751,1,,,,,,375,NW,"ID",50,yorque,YORQUE,z,0.751,,,,,,-0.382405745,-0.207360862,0,0,0,,0,397,397,314,1,
,,,,,,,,,,,,,,,,,,5f1e827568c1bb862cb9f5bd,2020-08-10_12h48.46.753,lexical_decision_task_MP,2020.1.3,Win32,60,z,1,,,,,,,,0.782,1,,,,,,244,NW,UN,50,anougs,EATRIC,z,0.782,,,,,,-0.382405745,-0.207360862,0,0,0,,0,398,398,423,1,
,,,,,,,,,,,,,,,,,,5f1e827568c1bb862cb9f5bd,2020-08-10_12h48.46.753,lexical_decision_task_MP,2020.1.3,Win32,60,z,1,,,,,,,,1.462,1,,,,,,344,NW,"ID",33,scrily,SCRILY,z,1.462,,,,,,-0.382405745,-0.207360862,0,0,0,,0,399,399,283,1,
,,,,,,,,,,,,,,,,,,5f1e827568c1bb862cb9f5bd,2020-08-10_12h48.46.753,lexical_decision_task_MP,2020.1.3,Win32,60,z,1,,,,,,,,0.666,1,,,,,,383,NW,"ID",50,aungre,AUNGRE,z,0.666,,,,,,-0.382405745,-0.207360862,0,0,0,,0,400,400,322,1,
,,,,,,,,,,,,,,,,,,5f1e827568c1bb862cb9f5bd,2020-08-10_12h48.46.753,lexical_decision_task_MP,2020.1.3,Win32,60,z,1,,,,,,,,0.783,1,,,,,,395,NW,"ID",50,colury,COLURY,z,0.783,,,,,,-0.382405745,-0.207360862,0,0,0,,0,401,401,334,1,
,,,,,,,,,,,,,,,,,,5f1e827568c1bb862cb9f5bd,2020-08-10_12h48.46.753,lexical_decision_task_MP,2020.1.3,Win32,60,z,1,,,,,,,,0.814,1,,,,,,321,NW,"ID",33,miator,MIATOR,z,0.814,,,,,,-0.382405745,-0.207360862,0,0,0,,0,402,402,260,1,
,,,,,,,,,,,,,,,,,,5f1e827568c1bb862cb9f5bd,2020-08-10_12h48.46.753,lexical_decision_task_MP,2020.1.3,Win32,60,z,1,,,,,,,,0.74,1,,,,,,428,NW,UN,33,funtle,TANDLY,z,0.74,,,,,,-0.382405745,-0.207360862,0,0,0,,0,403,403,367,1,
,,,,,,,,,,,,,,,,,,5f1e827568c1bb862cb9f5bd,2020-08-10_12h48.46.753,lexical_decision_task_MP,2020.1.3,Win32,60,z,1,,,,,,,,0.687,1,,,,,,298,NW,UN,50,sturch,PIERGY,z,0.687,,,,,,-0.382405745,-0.207360862,0,0,0,,0,404,404,477,1,
,,,,,,,,,,,,,,,,,,5f1e827568c1bb862cb9f5bd,2020-08-10_12h48.46.753,lexical_decision_task_MP,2020.1.3,Win32,60,z,0,,,,,,,,0.646,0,,,,,,85,WORD,"ID",33,sprawl,SPRAWL,m,0.646,,,,,,-0.382405745,-0.207360862,0,0,0,,0,405,405,24,1,
,,,,,,,,,,,,,,,,,,5f1e827568c1bb862cb9f5bd,2020-08-10_12h48.46.753,lexical_decision_task_MP,2020.1.3,Win32,60,m,0,,,,,,,,0.956,0,,,,,,364,NW,"ID",50,impote,IMPOTE,z,0.956,,,,,,-0.382405745,-0.207360862,0,0,0,,0,406,406,303,1,
,,,,,,,,,,,,,,,,,,5f1e827568c1bb862cb9f5bd,2020-08-10_12h48.46.753,lexical_decision_task_MP,2020.1.3,Win32,60,m,1,,,,,,,,0.702,1,,,,,,118,WORD,"ID",33,flight,FLIGHT,m,0.702,,,,,,-0.382405745,-0.207360862,0,0,0,,0,407,407,57,1,
,,,,,,,,,,,,,,,,,,5f1e827568c1bb862cb9f5bd,2020-08-10_12h48.46.753,lexical_decision_task_MP,2020.1.3,Win32,60,z,1,,,,,,,,0.834,1,,,,,,340,NW,"ID",33,fiatch,FIATCH,z,0.834,,,,,,-0.382405745,-0.207360862,0,0,0,,0,408,408,279,1,
,,,,,,,,,,,,,,,,,,5f1e827568c1bb862cb9f5bd,2020-08-10_12h48.46.753,lexical_decision_task_MP,2020.1.3,Win32,60,m,1,,,,,,,,1.31,1,,,,,,225,WORD,UN,33,casino,VULGAR,m,1.31,,,,,,-0.382405745,-0.207360862,0,0,0,,0,409,409,164,1,
,,,,,,,,,,,,,,,,,,5f1e827568c1bb862cb9f5bd,2020-08-10_12h48.46.753,lexical_decision_task_MP,2020.1.3,Win32,60,z,1,,,,,,,,0.867,1,,,,,,441,NW,UN,33,aboune,RASTOE,z,0.867,,,,,,-0.382405745,-0.207360862,0,0,0,,0,410,410,380,1,
,,,,,,,,,,,,,,,,,,5f1e827568c1bb862cb9f5bd,2020-08-10_12h48.46.753,lexical_decision_task_MP,2020.1.3,Win32,60,m,1,,,,,,,,0.584,1,,,,,,126,WORD,"ID",50,enough,ENOUGH,m,0.584,,,,,,-0.382405745,-0.207360862,0,0,0,,0,411,411,65,1,
,,,,,,,,,,,,,,,,,,5f1e827568c1bb862cb9f5bd,2020-08-10_12h48.46.753,lexical_decision_task_MP,2020.1.3,Win32,60,m,1,,,,,,,,0.613,1,,,,,,21,WORD,UN,50,jockey,SIMPLE,m,0.613,,,,,,-0.382405745,-0.207360862,0,0,0,,0,412,412,200,1,
,,,,,,,,,,,,,,,,,,5f1e827568c1bb862cb9f5bd,2020-08-10_12h48.46.753,lexical_decision_task_MP,2020.1.3,Win32,60,z,0,,,,,,,,0.721,0,,,,,,48,WORD,UN,50,survey,WALNUT,m,0.721,,,,,,-0.382405745,-0.207360862,0,0,0,,0,413,413,227,1,
,,,,,,,,,,,,,,,,,,5f1e827568c1bb862cb9f5bd,2020-08-10_12h48.46.753,lexical_decision_task_MP,2020.1.3,Win32,60,z,1,,,,,,,,0.63,1,,,,,,446,NW,UN,33,gircue,RUNAMO,z,0.63,,,,,,-0.382405745,-0.207360862,0,0,0,,0,414,414,385,1,
