counterbalancing_condition,instr_done_keyboard.keys,instr_done_touch.x,instr_done_touch.y,instr_done_touch.leftButton,instr_done_touch.midButton,instr_done_touch.rightButton,instr_done_touch.clicked_name,instruction_pages.thisRepN,instruction_pages.thisTrialN,instruction_pages.thisN,instruction_pages.thisIndex,instruction_pages.ran,pageN,phase,instruct_text,has_image,instruct_image,participant,date,expName,psychopyVersion,OS,frameRate,response.keys,response.corr,touch_resp.x,touch_resp.y,touch_resp.leftButton,touch_resp.midButton,touch_resp.rightButton,touch_resp.time,touch_resp.clicked_name,rt,corr,practice_trials.thisRepN,practice_trials.thisTrialN,practice_trials.thisN,practice_trials.thisIndex,practice_trials.ran,TrialID,StimulusType,Condition,PrimeDuration,Prime,Target,corrAns,response.rt,end_of_practice_trials_pages.thisRepN,end_of_practice_trials_pages.thisTrialN,end_of_practice_trials_pages.thisN,end_of_practice_trials_pages.thisIndex,end_of_practice_trials_pages.ran,break_done_touch.x,break_done_touch.y,break_done_touch.leftButton,break_done_touch.midButton,break_done_touch.rightButton,break_done_keyboard.keys,trials.thisRepN,trials.thisTrialN,trials.thisN,trials.thisIndex,trials.ran,break_done_touch.clicked_name,break_done_keyboard.rt
3,,0.04518664,-0.415520629,1,0,0,instr_done_button,0,0,0,0,1,1,instructions,"INSTRUCTIONS
At the start of each trial, look at the hash marks (######) in the center of the screen. After a moment, a string of letters will appear. Your task is to indicate if the letter string forms a word or not (i.e., if it is a nonword). For example, AUTHOR is a word while AUTHON is a nonword.

Press the space bar or touch the button below to continue.",0,,5f28854b5672311974ef3f3a,2020-08-10_10h17.04.291,lexical_decision_task_MP,2020.1.3,Win32,60,,,,,,,,,,,,,,,,,,,,,,,,,,,,,,,,,,,,,,,,,,
,,0.013752456,-0.389980354,1,0,0,instr_done_button,0,1,1,1,1,2,instructions,"If your device has a keyboard, press the 'Z' key for nonwords and the 'M' key for words.





Press the space bar or touch the button below to continue.",1,keyboard-example.gif,5f28854b5672311974ef3f3a,2020-08-10_10h17.04.291,lexical_decision_task_MP,2020.1.3,Win32,60,,,,,,,,,,,,,,,,,,,,,,,,,,,,,,,,,,,,,,,,,,
,,0.009823183,-0.389980354,1,0,0,instr_done_button,0,2,2,2,1,3,instructions,"If you are using a touchscreen only device, use the buttons on the screen. Do not use the mouse.





Press the space bar or touch the button below to continue.",1,touchscreen-example.gif,5f28854b5672311974ef3f3a,2020-08-10_10h17.04.291,lexical_decision_task_MP,2020.1.3,Win32,60,,,,,,,,,,,,,,,,,,,,,,,,,,,,,,,,,,,,,,,,,,
,,0.009823183,-0.389980354,1,0,0,instr_done_button,0,3,3,3,1,4,instructions,"It is very important that you respond as quickly and accurately as possible, as each letter string will only be on the screen for two seconds. If you do not respond within this time, the message 'Too slow!' will be displayed and the experiment will progress to the next letter string. The first 20 trials will be practice trials and you will receive feedback on your answers. 

Press the space bar or touch the button below to start the practice trials.",0,,5f28854b5672311974ef3f3a,2020-08-10_10h17.04.291,lexical_decision_task_MP,2020.1.3,Win32,60,,,,,,,,,,,,,,,,,,,,,,,,,,,,,,,,,,,,,,,,,,
,,,,,,,,,,,,,,,,,,5f28854b5672311974ef3f3a,2020-08-10_10h17.04.291,lexical_decision_task_MP,2020.1.3,Win32,60,,0,,,,,,,,,-1,0,0,0,11,1,1012,NW,"ID",50,rashet,RASHET,z,,,,,,,,,,,,,,,,,,,
,,,,,,,,,,,,,,,,,,5f28854b5672311974ef3f3a,2020-08-10_10h17.04.291,lexical_decision_task_MP,2020.1.3,Win32,60,z,1,,,,,,,,1.562,1,0,1,1,13,1,1014,NW,UN,33,winfer,ROUPET,z,1.562,,,,,,,,,,,,,,,,,,
,,,,,,,,,,,,,,,,,,5f28854b5672311974ef3f3a,2020-08-10_10h17.04.291,lexical_decision_task_MP,2020.1.3,Win32,60,z,0,,,,,,,,0.162,0,0,2,2,4,1,1005,WORD,UN,33,abound,SQUEAK,m,0.162,,,,,,,,,,,,,,,,,,
,,,,,,,,,,,,,,,,,,5f28854b5672311974ef3f3a,2020-08-10_10h17.04.291,lexical_decision_task_MP,2020.1.3,Win32,60,,0,,,,,,,,0.162,-1,0,3,3,2,1,1003,WORD,"ID",50,almond,ALMOND,m,,,,,,,,,,,,,,,,,,,
,,,,,,,,,,,,,,,,,,5f28854b5672311974ef3f3a,2020-08-10_10h17.04.291,lexical_decision_task_MP,2020.1.3,Win32,60,z,1,,,,,,,,1.154,1,0,4,4,12,1,1013,NW,UN,33,adveil,SPRINY,z,1.154,,,,,,,,,,,,,,,,,,
,,,,,,,,,,,,,,,,,,5f28854b5672311974ef3f3a,2020-08-10_10h17.04.291,lexical_decision_task_MP,2020.1.3,Win32,60,m,1,,,,,,,,0.895,1,0,5,5,7,1,1008,WORD,UN,50,hurdle,VOLUME,m,0.895,,,,,,,,,,,,,,,,,,
,,,,,,,,,,,,,,,,,,5f28854b5672311974ef3f3a,2020-08-10_10h17.04.291,lexical_decision_task_MP,2020.1.3,Win32,60,m,1,,,,,,,,1.114,1,0,6,6,3,1,1004,WORD,"ID",50,matrix,MATRIX,m,1.114,,,,,,,,,,,,,,,,,,
,,,,,,,,,,,,,,,,,,5f28854b5672311974ef3f3a,2020-08-10_10h17.04.291,lexical_decision_task_MP,2020.1.3,Win32,60,m,1,,,,,,,,1.429,1,0,7,7,5,1,1006,WORD,UN,33,frenzy,OBTAIN,m,1.429,,,,,,,,,,,,,,,,,,
,,,,,,,,,,,,,,,,,,5f28854b5672311974ef3f3a,2020-08-10_10h17.04.291,lexical_decision_task_MP,2020.1.3,Win32,60,z,1,,,,,,,,1.252,1,0,8,8,9,1,1010,NW,"ID",33,fariny,FARINY,z,1.252,,,,,,,,,,,,,,,,,,
,,,,,,,,,,,,,,,,,,5f28854b5672311974ef3f3a,2020-08-10_10h17.04.291,lexical_decision_task_MP,2020.1.3,Win32,60,z,1,,,,,,,,1.065,1,0,9,9,15,1,1016,NW,UN,50,mushed,WHAISE,z,1.065,,,,,,,,,,,,,,,,,,
,,,,,,,,,,,,,,,,,,5f28854b5672311974ef3f3a,2020-08-10_10h17.04.291,lexical_decision_task_MP,2020.1.3,Win32,60,z,1,,,,,,,,0.881,1,0,10,10,14,1,1015,NW,UN,50,miaber,THRALE,z,0.881,,,,,,,,,,,,,,,,,,
,,,,,,,,,,,,,,,,,,5f28854b5672311974ef3f3a,2020-08-10_10h17.04.291,lexical_decision_task_MP,2020.1.3,Win32,60,z,1,,,,,,,,0.914,1,0,11,11,10,1,1011,NW,"ID",50,inlade,INLADE,z,0.914,,,,,,,,,,,,,,,,,,
,,,,,,,,,,,,,,,,,,5f28854b5672311974ef3f3a,2020-08-10_10h17.04.291,lexical_decision_task_MP,2020.1.3,Win32,60,m,1,,,,,,,,1.149,1,0,12,12,6,1,1007,WORD,UN,50,tropic,ZOMBIE,m,1.149,,,,,,,,,,,,,,,,,,
,,,,,,,,,,,,,,,,,,5f28854b5672311974ef3f3a,2020-08-10_10h17.04.291,lexical_decision_task_MP,2020.1.3,Win32,60,z,0,,,,,,,,1.479,0,0,13,13,1,1,1002,WORD,"ID",33,adjust,ADJUST,m,1.479,,,,,,,,,,,,,,,,,,
,,,,,,,,,,,,,,,,,,5f28854b5672311974ef3f3a,2020-08-10_10h17.04.291,lexical_decision_task_MP,2020.1.3,Win32,60,z,0,,,,,,,,1.314,0,0,14,14,0,1,1001,WORD,"ID",33,utopia,UTOPIA,m,1.314,,,,,,,,,,,,,,,,,,
,,,,,,,,,,,,,,,,,,5f28854b5672311974ef3f3a,2020-08-10_10h17.04.291,lexical_decision_task_MP,2020.1.3,Win32,60,z,1,,,,,,,,0.948,1,0,15,15,8,1,1009,NW,"ID",33,aslert,ASLERT,z,0.948,,,,,,,,,,,,,,,,,,
,,0.009823183,-0.389980354,1,0,0,instr_done_button,,,,,,1,end_of_practice,"You have completed the practice trials. During the experimental trials, you will not receive feedback, but it is very important that you respond as quickly and accurately as possible. 
Before you begin, please ensure that you are in a comfortable and quiet location and will not be disturbed for about 15 minutes, as we cannot use your data if you do not complete all the trials. 
There will be opportunities to take breaks at regular intervals during the experiment. When you are ready to start the experimental trials, please press space or touch the button below.",,,5f28854b5672311974ef3f3a,2020-08-10_10h17.04.291,lexical_decision_task_MP,2020.1.3,Win32,60,,,,,,,,,,,,,,,,,,,,,,,,,0,0,0,0,1,,,,,,,,,,,,,
,,,,,,,,,,,,,,,,,,5f28854b5672311974ef3f3a,2020-08-10_10h17.04.291,lexical_decision_task_MP,2020.1.3,Win32,60,z,0,,,,,,,,1.602,0,,,,,,56,WORD,UN,50,change,AMBUSH,m,1.602,,,,,,-0.001964637,-0.386051081,0,0,0,,0,0,0,235,1,,
,,,,,,,,,,,,,,,,,,5f28854b5672311974ef3f3a,2020-08-10_10h17.04.291,lexical_decision_task_MP,2020.1.3,Win32,60,z,0,,,,,,,,0.98,0,,,,,,8,WORD,UN,50,hustle,ABRUPT,m,0.98,,,,,,-0.001964637,-0.386051081,0,0,0,,0,1,1,187,1,,
,,,,,,,,,,,,,,,,,,5f28854b5672311974ef3f3a,2020-08-10_10h17.04.291,lexical_decision_task_MP,2020.1.3,Win32,60,m,1,,,,,,,,1.262,1,,,,,,110,WORD,"ID",33,polite,POLITE,m,1.262,,,,,,-0.001964637,-0.386051081,0,0,0,,0,2,2,49,1,,
,,,,,,,,,,,,,,,,,,5f28854b5672311974ef3f3a,2020-08-10_10h17.04.291,lexical_decision_task_MP,2020.1.3,Win32,60,m,1,,,,,,,,1.035,1,,,,,,75,WORD,"ID",33,trophy,TROPHY,m,1.035,,,,,,-0.001964637,-0.386051081,0,0,0,,0,3,3,14,1,,
,,,,,,,,,,,,,,,,,,5f28854b5672311974ef3f3a,2020-08-10_10h17.04.291,lexical_decision_task_MP,2020.1.3,Win32,60,m,1,,,,,,,,0.98,1,,,,,,119,WORD,"ID",33,spider,SPIDER,m,0.98,,,,,,-0.001964637,-0.386051081,0,0,0,,0,4,4,58,1,,
,,,,,,,,,,,,,,,,,,5f28854b5672311974ef3f3a,2020-08-10_10h17.04.291,lexical_decision_task_MP,2020.1.3,Win32,60,z,1,,,,,,,,1.115,1,,,,,,334,NW,"ID",33,watmeg,WATMEG,z,1.115,,,,,,-0.001964637,-0.386051081,0,0,0,,0,5,5,273,1,,
,,,,,,,,,,,,,,,,,,5f28854b5672311974ef3f3a,2020-08-10_10h17.04.291,lexical_decision_task_MP,2020.1.3,Win32,60,z,1,,,,,,,,1.347,1,,,,,,288,NW,UN,50,starby,YACEUP,z,1.347,,,,,,-0.001964637,-0.386051081,0,0,0,,0,6,6,467,1,,
,,,,,,,,,,,,,,,,,,5f28854b5672311974ef3f3a,2020-08-10_10h17.04.291,lexical_decision_task_MP,2020.1.3,Win32,60,m,1,,,,,,,,0.798,1,,,,,,49,WORD,UN,50,snatch,SURVEY,m,0.798,,,,,,-0.001964637,-0.386051081,0,0,0,,0,7,7,228,1,,
,,,,,,,,,,,,,,,,,,5f28854b5672311974ef3f3a,2020-08-10_10h17.04.291,lexical_decision_task_MP,2020.1.3,Win32,60,z,1,,,,,,,,0.946,1,,,,,,457,NW,UN,33,barcet,WANIGH,z,0.946,,,,,,-0.001964637,-0.386051081,0,0,0,,0,8,8,396,1,,
,,,,,,,,,,,,,,,,,,5f28854b5672311974ef3f3a,2020-08-10_10h17.04.291,lexical_decision_task_MP,2020.1.3,Win32,60,z,1,,,,,,,,1.186,1,,,,,,319,NW,"ID",33,zomber,ZOMBER,z,1.186,,,,,,-0.001964637,-0.386051081,0,0,0,,0,9,9,258,1,,
,,,,,,,,,,,,,,,,,,5f28854b5672311974ef3f3a,2020-08-10_10h17.04.291,lexical_decision_task_MP,2020.1.3,Win32,60,m,1,,,,,,,,1.229,1,,,,,,88,WORD,"ID",33,hunger,HUNGER,m,1.229,,,,,,-0.001964637,-0.386051081,0,0,0,,0,10,10,27,1,,
,,,,,,,,,,,,,,,,,,5f28854b5672311974ef3f3a,2020-08-10_10h17.04.291,lexical_decision_task_MP,2020.1.3,Win32,60,z,1,,,,,,,,1.198,1,,,,,,420,NW,"ID",50,gushop,GUSHOP,z,1.198,,,,,,-0.001964637,-0.386051081,0,0,0,,0,11,11,359,1,,
,,,,,,,,,,,,,,,,,,5f28854b5672311974ef3f3a,2020-08-10_10h17.04.291,lexical_decision_task_MP,2020.1.3,Win32,60,m,0,,,,,,,,0.744,0,,,,,,400,NW,"ID",50,wearox,WEAROX,z,0.744,,,,,,-0.001964637,-0.386051081,0,0,0,,0,12,12,339,1,,
,,,,,,,,,,,,,,,,,,5f28854b5672311974ef3f3a,2020-08-10_10h17.04.291,lexical_decision_task_MP,2020.1.3,Win32,60,z,1,,,,,,,,0.584,1,,,,,,258,NW,UN,50,soudal,POLUTH,z,0.584,,,,,,-0.001964637,-0.386051081,0,0,0,,0,13,13,437,1,,
,,,,,,,,,,,,,,,,,,5f28854b5672311974ef3f3a,2020-08-10_10h17.04.291,lexical_decision_task_MP,2020.1.3,Win32,60,z,0,,,,,,,,0.464,0,,,,,,151,WORD,"ID",50,mystic,MYSTIC,m,0.464,,,,,,-0.001964637,-0.386051081,0,0,0,,0,14,14,90,1,,
,,,,,,,,,,,,,,,,,,5f28854b5672311974ef3f3a,2020-08-10_10h17.04.291,lexical_decision_task_MP,2020.1.3,Win32,60,z,0,,,,,,,,1.033,0,,,,,,216,WORD,UN,33,liquor,BEHALF,m,1.033,,,,,,-0.001964637,-0.386051081,0,0,0,,0,15,15,155,1,,
,,,,,,,,,,,,,,,,,,5f28854b5672311974ef3f3a,2020-08-10_10h17.04.291,lexical_decision_task_MP,2020.1.3,Win32,60,,0,,,,,,,,1.033,-1,,,,,,264,NW,UN,50,distar,VACKEL,z,,,,,,,0.131630648,-0.199410609,0,0,0,,0,16,16,443,1,,
,,,,,,,,,,,,,,,,,,5f28854b5672311974ef3f3a,2020-08-10_10h17.04.291,lexical_decision_task_MP,2020.1.3,Win32,60,,0,,,,,,,,1.033,-1,,,,,,40,WORD,UN,50,spring,CONVEY,m,,,,,,,0.131630648,-0.201375246,0,0,0,,0,17,17,219,1,,
,,,,,,,,,,,,,,,,,,5f28854b5672311974ef3f3a,2020-08-10_10h17.04.291,lexical_decision_task_MP,2020.1.3,Win32,60,z,1,,,,,,,,0.438,1,,,,,,242,NW,UN,50,musied,UNWERT,z,0.438,,,,,,0.131630648,-0.201375246,0,0,0,,0,18,18,421,1,,
,,,,,,,,,,,,,,,,,,5f28854b5672311974ef3f3a,2020-08-10_10h17.04.291,lexical_decision_task_MP,2020.1.3,Win32,60,z,1,,,,,,,,0.434,1,,,,,,438,NW,UN,33,limpor,BAITCH,z,0.434,,,,,,0.131630648,-0.201375246,0,0,0,,0,19,19,377,1,,
,,,,,,,,,,,,,,,,,,5f28854b5672311974ef3f3a,2020-08-10_10h17.04.291,lexical_decision_task_MP,2020.1.3,Win32,60,m,1,,,,,,,,0.343,1,,,,,,7,WORD,UN,50,abrupt,ANCHOR,m,0.343,,,,,,0.131630648,-0.201375246,0,0,0,,0,20,20,186,1,,
,,,,,,,,,,,,,,,,,,5f28854b5672311974ef3f3a,2020-08-10_10h17.04.291,lexical_decision_task_MP,2020.1.3,Win32,60,z,1,,,,,,,,0.483,1,,,,,,306,NW,"ID",33,sounge,SOUNGE,z,0.483,,,,,,0.131630648,-0.201375246,0,0,0,,0,21,21,245,1,,
,,,,,,,,,,,,,,,,,,5f28854b5672311974ef3f3a,2020-08-10_10h17.04.291,lexical_decision_task_MP,2020.1.3,Win32,60,m,1,,,,,,,,0.301,1,,,,,,179,WORD,"ID",50,basket,BASKET,m,0.301,,,,,,0.131630648,-0.201375246,0,0,0,,0,22,22,118,1,,
,,,,,,,,,,,,,,,,,,5f28854b5672311974ef3f3a,2020-08-10_10h17.04.291,lexical_decision_task_MP,2020.1.3,Win32,60,z,1,,,,,,,,0.416,1,,,,,,252,NW,UN,50,resait,STAPOD,z,0.416,,,,,,0.131630648,-0.201375246,0,0,0,,0,23,23,431,1,,
,,,,,,,,,,,,,,,,,,5f28854b5672311974ef3f3a,2020-08-10_10h17.04.291,lexical_decision_task_MP,2020.1.3,Win32,60,,0,,,,,,,,0.416,-1,,,,,,278,NW,UN,50,celond,UNIGHS,z,,,,,,,0.115913556,-0.496070727,0,0,0,,0,24,24,457,1,,
,,,,,,,,,,,,,,,,,,5f28854b5672311974ef3f3a,2020-08-10_10h17.04.291,lexical_decision_task_MP,2020.1.3,Win32,60,,0,,,,,,,,0.416,-1,,,,,,417,NW,"ID",50,earoud,EAROUD,z,,,,,,,0.821218075,-0.484282908,0,0,0,,0,25,25,356,1,,
,,,,,,,,,,,,,,,,,,5f28854b5672311974ef3f3a,2020-08-10_10h17.04.291,lexical_decision_task_MP,2020.1.3,Win32,60,,0,,,,,,,,0.416,-1,,,,,,425,NW,UN,33,urivel,FRUDGE,z,,,,,,,0.75862069,-0.421960073,0,0,0,,0,26,26,364,1,,
,,,,,,,,,,,,,,,,,,5f28854b5672311974ef3f3a,2020-08-10_10h17.04.291,lexical_decision_task_MP,2020.1.3,Win32,60,,0,,,,,,,,0.416,-1,,,,,,150,WORD,"ID",50,random,RANDOM,m,,,,,,,0.736842105,-0.176950998,0,0,0,,0,27,27,89,1,,
,,,,,,,,,,,,,,,,,,5f28854b5672311974ef3f3a,2020-08-10_10h17.04.291,lexical_decision_task_MP,2020.1.3,Win32,60,,0,,,,,,,,0.416,-1,,,,,,386,NW,"ID",50,ancust,ANCUST,z,,,,,,,0.736842105,-0.176950998,0,0,0,,0,28,28,325,1,,
,,,,,,,,,,,,,,,,,,5f28854b5672311974ef3f3a,2020-08-10_10h17.04.291,lexical_decision_task_MP,2020.1.3,Win32,60,,0,,,,,,,,0.416,-1,,,,,,160,WORD,"ID",50,violet,VIOLET,m,,,,,,,0.736842105,-0.176950998,0,0,0,,0,29,29,99,1,,
,,,,,,,,,,,,,,,,,,5f28854b5672311974ef3f3a,2020-08-10_10h17.04.291,lexical_decision_task_MP,2020.1.3,Win32,60,,0,,,,,,,,0.416,-1,,,,,,377,NW,"ID",50,injore,INJORE,z,,,,,,,0.736842105,-0.176950998,0,0,0,,0,30,30,316,1,,
,,,,,,,,,,,,,,,,,,5f28854b5672311974ef3f3a,2020-08-10_10h17.04.291,lexical_decision_task_MP,2020.1.3,Win32,60,,0,,,,,,,,0.416,-1,,,,,,376,NW,"ID",50,iguare,IGUARE,z,,,,,,,0.736842105,-0.176950998,0,0,0,,0,31,31,315,1,,
,,,,,,,,,,,,,,,,,,5f28854b5672311974ef3f3a,2020-08-10_10h17.04.291,lexical_decision_task_MP,2020.1.3,Win32,60,,0,,,,,,,,0.416,-1,,,,,,175,WORD,"ID",50,fabric,FABRIC,m,,,,,,,0.736842105,-0.176950998,0,0,0,,0,32,32,114,1,,
,,,,,,,,,,,,,,,,,,5f28854b5672311974ef3f3a,2020-08-10_10h17.04.291,lexical_decision_task_MP,2020.1.3,Win32,60,,0,,,,,,,,0.416,-1,,,,,,117,WORD,"ID",33,branch,BRANCH,m,,,,,,,0.736842105,-0.176950998,0,0,0,,0,33,33,56,1,,
,,,,,,,,,,,,,,,,,,5f28854b5672311974ef3f3a,2020-08-10_10h17.04.291,lexical_decision_task_MP,2020.1.3,Win32,60,,0,,,,,,,,0.416,-1,,,,,,274,NW,UN,50,sleirt,FUMBLO,z,,,,,,,0.736842105,-0.176950998,0,0,0,,0,34,34,453,1,,
,,,,,,,,,,,,,,,,,,5f28854b5672311974ef3f3a,2020-08-10_10h17.04.291,lexical_decision_task_MP,2020.1.3,Win32,60,,0,,,,,,,,0.416,-1,,,,,,297,NW,UN,50,piergy,FERTIC,z,,,,,,,0.736842105,-0.176950998,0,0,0,,0,35,35,476,1,,
,,,,,,,,,,,,,,,,,,5f28854b5672311974ef3f3a,2020-08-10_10h17.04.291,lexical_decision_task_MP,2020.1.3,Win32,60,,0,,,,,,,,0.416,-1,,,,,,235,WORD,UN,33,pirate,GRUMPY,m,,,,,,,0.736842105,-0.176950998,0,0,0,,0,36,36,174,1,,
,,,,,,,,,,,,,,,,,,5f28854b5672311974ef3f3a,2020-08-10_10h17.04.291,lexical_decision_task_MP,2020.1.3,Win32,60,,0,,,,,,,,0.416,-1,,,,,,374,NW,"ID",50,sliant,SLIANT,z,,,,,,,0.736842105,-0.176950998,0,0,0,,0,37,37,313,1,,
,,,,,,,,,,,,,,,,,,5f28854b5672311974ef3f3a,2020-08-10_10h17.04.291,lexical_decision_task_MP,2020.1.3,Win32,60,,0,,,,,,,,0.416,-1,,,,,,476,NW,UN,33,photie,JOSTED,z,,,,,,,0.736842105,-0.176950998,0,0,0,,0,38,38,415,1,,
,,,,,,,,,,,,,,,,,,5f28854b5672311974ef3f3a,2020-08-10_10h17.04.291,lexical_decision_task_MP,2020.1.3,Win32,60,,0,,,,,,,,0.416,-1,,,,,,313,NW,"ID",33,paurse,PAURSE,z,,,,,,,0.736842105,-0.176950998,0,0,0,,0,39,39,252,1,,
,,,,,,,,,,,,,,,,,,5f28854b5672311974ef3f3a,2020-08-10_10h17.04.291,lexical_decision_task_MP,2020.1.3,Win32,60,,0,,,,,,,,0.416,-1,,,,,,153,WORD,"ID",50,behold,BEHOLD,m,,,,,,,0.736842105,-0.176950998,0,0,0,,0,40,40,92,1,,
,,,,,,,,,,,,,,,,,,5f28854b5672311974ef3f3a,2020-08-10_10h17.04.291,lexical_decision_task_MP,2020.1.3,Win32,60,,0,,,,,,,,0.416,-1,,,,,,401,NW,"ID",50,mustil,MUSTIL,z,,,,,,,0.353901996,-0.496370236,0,0,0,,0,41,41,340,1,,
,,,,,,,,,,,,,,,,,,5f28854b5672311974ef3f3a,2020-08-10_10h17.04.291,lexical_decision_task_MP,2020.1.3,Win32,60,,0,,,,,,,,0.416,-1,,,,,,225,WORD,UN,33,casino,VULGAR,m,,,,,,,0.893909627,-0.240667976,0,0,0,,0,42,42,164,1,,
,,,,,,,,,,,,,,,,,,5f28854b5672311974ef3f3a,2020-08-10_10h17.04.291,lexical_decision_task_MP,2020.1.3,Win32,60,,0,,,,,,,,0.416,-1,,,,,,344,NW,"ID",33,scrily,SCRILY,z,,,,,,,0.893909627,-0.240667976,0,0,0,,0,43,43,283,1,,
,,,,,,,,,,,,,,,,,,5f28854b5672311974ef3f3a,2020-08-10_10h17.04.291,lexical_decision_task_MP,2020.1.3,Win32,60,,0,,,,,,,,0.416,-1,,,,,,302,NW,"ID",33,miluer,MILUER,z,,,,,,,0.893909627,-0.240667976,0,0,0,,0,44,44,241,1,,
,,,,,,,,,,,,,,,,,,5f28854b5672311974ef3f3a,2020-08-10_10h17.04.291,lexical_decision_task_MP,2020.1.3,Win32,60,,0,,,,,,,,0.416,-1,,,,,,265,NW,UN,50,varmit,DISTAR,z,,,,,,,0.893909627,-0.240667976,0,0,0,,0,45,45,444,1,,
,,,,,,,,,,,,,,,,,,5f28854b5672311974ef3f3a,2020-08-10_10h17.04.291,lexical_decision_task_MP,2020.1.3,Win32,60,,0,,,,,,,,0.416,-1,,,,,,427,NW,UN,33,tandly,SCHIND,z,,,,,,,0.893909627,-0.240667976,0,0,0,,0,46,46,366,1,,
,,,,,,,,,,,,,,,,,,5f28854b5672311974ef3f3a,2020-08-10_10h17.04.291,lexical_decision_task_MP,2020.1.3,Win32,60,,0,,,,,,,,0.416,-1,,,,,,403,NW,"ID",50,bruats,BRUATS,z,,,,,,,0.893909627,-0.240667976,0,0,0,,0,47,47,342,1,,
,,,,,,,,,,,,,,,,,,5f28854b5672311974ef3f3a,2020-08-10_10h17.04.291,lexical_decision_task_MP,2020.1.3,Win32,60,,0,,,,,,,,0.416,-1,,,,,,275,NW,UN,50,yarmon,SLEIRT,z,,,,,,,0.893909627,-0.240667976,0,0,0,,0,48,48,454,1,,
,,,,,,,,,,,,,,,,,,5f28854b5672311974ef3f3a,2020-08-10_10h17.04.291,lexical_decision_task_MP,2020.1.3,Win32,60,,0,,,,,,,,0.416,-1,,,,,,418,NW,"ID",50,suidle,SUIDLE,z,,,,,,,0.893909627,-0.240667976,0,0,0,,0,49,49,357,1,,
,,,,,,,,,,,,,,,,,,5f28854b5672311974ef3f3a,2020-08-10_10h17.04.291,lexical_decision_task_MP,2020.1.3,Win32,60,,0,,,,,,,,0.416,-1,,,,,,176,WORD,"ID",50,strife,STRIFE,m,,,,,,,0.893909627,-0.240667976,0,0,0,,0,50,50,115,1,,
,,,,,,,,,,,,,,,,,,5f28854b5672311974ef3f3a,2020-08-10_10h17.04.291,lexical_decision_task_MP,2020.1.3,Win32,60,,0,,,,,,,,0.416,-1,,,,,,32,WORD,UN,50,scream,BUCKLE,m,,,,,,,0.893909627,-0.240667976,0,0,0,,0,51,51,211,1,,
,,,,,,,,,,,,,,,,,,5f28854b5672311974ef3f3a,2020-08-10_10h17.04.291,lexical_decision_task_MP,2020.1.3,Win32,60,,0,,,,,,,,0.416,-1,,,,,,460,NW,UN,33,justre,MINGAR,z,,,,,,,0.893909627,-0.240667976,0,0,0,,0,52,52,399,1,,
,,,,,,,,,,,,,,,,,,5f28854b5672311974ef3f3a,2020-08-10_10h17.04.291,lexical_decision_task_MP,2020.1.3,Win32,60,,0,,,,,,,,0.416,-1,,,,,,257,NW,UN,50,poluth,VENIOD,z,,,,,,,0.893909627,-0.240667976,0,0,0,,0,53,53,436,1,,
,,,,,,,,,,,,,,,,,,5f28854b5672311974ef3f3a,2020-08-10_10h17.04.291,lexical_decision_task_MP,2020.1.3,Win32,60,,0,,,,,,,,0.416,-1,,,,,,46,WORD,UN,50,income,SINGLE,m,,,,,,,0.893909627,-0.240667976,0,0,0,,0,54,54,225,1,,
,,,,,,,,,,,,,,,,,,5f28854b5672311974ef3f3a,2020-08-10_10h17.04.291,lexical_decision_task_MP,2020.1.3,Win32,60,,0,,,,,,,,0.416,-1,,,,,,471,NW,UN,33,cigney,NOBEST,z,,,,,,,0.893909627,-0.240667976,0,0,0,,0,55,55,410,1,,
,,,,,,,,,,,,,,,,,,5f28854b5672311974ef3f3a,2020-08-10_10h17.04.291,lexical_decision_task_MP,2020.1.3,Win32,60,,0,,,,,,,,0.416,-1,,,,,,299,NW,UN,50,yarion,STURCH,z,,,,,,,0.893909627,-0.240667976,0,0,0,,0,56,56,478,1,,
,,,,,,,,,,,,,,,,,,5f28854b5672311974ef3f3a,2020-08-10_10h17.04.291,lexical_decision_task_MP,2020.1.3,Win32,60,,0,,,,,,,,0.416,-1,,,,,,308,NW,"ID",33,psetch,PSETCH,z,,,,,,,0.893909627,-0.240667976,0,0,0,,0,57,57,247,1,,
,,,,,,,,,,,,,,,,,,5f28854b5672311974ef3f3a,2020-08-10_10h17.04.291,lexical_decision_task_MP,2020.1.3,Win32,60,,0,,,,,,,,0.416,-1,,,,,,445,NW,UN,33,runamo,MINKEL,z,,,,,,,0.499017682,-0.297642436,0,0,0,,0,58,58,384,1,,
,,,,,,,,,,,,,,,,,,5f28854b5672311974ef3f3a,2020-08-10_10h17.04.291,lexical_decision_task_MP,2020.1.3,Win32,60,,0,0.495088409,-0.297642436,1,0,0,0.252,button_right,0.252,0,,,,,,366,NW,"ID",50,toshel,TOSHEL,z,,,,,,,0.495088409,-0.297642436,1,0,0,,0,59,59,305,1,,
,,,,,,,,,,,,,,,,,,5f28854b5672311974ef3f3a,2020-08-10_10h17.04.291,lexical_decision_task_MP,2020.1.3,Win32,60,,0,0.473477407,-0.313359528,1,0,0,0.343,button_right,0.343,1,,,,,,27,WORD,UN,50,comedy,SCREAM,m,,,,,,,0.473477407,-0.313359528,1,0,0,,0,60,60,206,1,,
,,,,,,,,,,,,,,,,,,5f28854b5672311974ef3f3a,2020-08-10_10h17.04.291,lexical_decision_task_MP,2020.1.3,Win32,60,,0,0.469548134,-0.315324165,1,0,0,0.23,button_right,0.23,1,,,,,,50,WORD,UN,50,hungry,SNATCH,m,,,,,,,0.469548134,-0.315324165,1,0,0,,0,61,61,229,1,,
,,,,,,,,,,,,,,,,,,5f28854b5672311974ef3f3a,2020-08-10_10h17.04.291,lexical_decision_task_MP,2020.1.3,Win32,60,,0,0.469548134,-0.315324165,1,0,0,0.309,button_right,0.309,1,,,,,,220,WORD,UN,33,mascot,VOYAGE,m,,,,,,,0.469548134,-0.315324165,1,0,0,,0,62,62,159,1,,
,,,,,,,,,,,,,,,,,,5f28854b5672311974ef3f3a,2020-08-10_10h17.04.291,lexical_decision_task_MP,2020.1.3,Win32,60,,0,0.469548134,-0.315324165,1,0,0,0.262,button_right,0.262,1,,,,,,24,WORD,UN,50,domain,PRAISE,m,,,,,,,0.469548134,-0.315324165,1,0,0,,0,63,63,203,1,,
,,,,,,,,,,,,,,,,,,5f28854b5672311974ef3f3a,2020-08-10_10h17.04.291,lexical_decision_task_MP,2020.1.3,Win32,60,,0,-0.381139489,-0.268172888,1,0,0,0.326,button_left,0.326,0,,,,,,57,WORD,UN,50,danger,CHANGE,m,,,,,,,-0.381139489,-0.268172888,1,0,0,,0,64,64,236,1,,
,,,,,,,,,,,,,,,,,,5f28854b5672311974ef3f3a,2020-08-10_10h17.04.291,lexical_decision_task_MP,2020.1.3,Win32,60,,0,-0.275049116,-0.297642436,1,0,0,0.714,button_left,0.714,1,,,,,,246,NW,UN,50,blarge,PIATON,z,,,,,,,-0.275049116,-0.297642436,1,0,0,,0,65,65,425,1,,
,,,,,,,,,,,,,,,,,,5f28854b5672311974ef3f3a,2020-08-10_10h17.04.291,lexical_decision_task_MP,2020.1.3,Win32,60,,0,0.406679764,-0.315324165,1,0,0,0.365,button_right,0.365,1,,,,,,156,WORD,"ID",50,cradle,CRADLE,m,,,,,,,0.406679764,-0.315324165,1,0,0,,0,66,66,95,1,,
,,,,,,,,,,,,,,,,,,5f28854b5672311974ef3f3a,2020-08-10_10h17.04.291,lexical_decision_task_MP,2020.1.3,Win32,60,,0,-0.406679764,-0.307465619,1,0,0,0.065,button_left,0.065,1,,,,,,251,NW,UN,50,stapod,LUPICT,z,,,,,,,-0.406679764,-0.307465619,1,0,0,,0,67,67,430,1,,
,,,,,,,,,,,,,,,,,,5f28854b5672311974ef3f3a,2020-08-10_10h17.04.291,lexical_decision_task_MP,2020.1.3,Win32,60,,0,0.449901768,-0.276031434,1,0,0,0.23,button_right,0.23,1,,,,,,64,WORD,"ID",33,throne,THRONE,m,,,,,,,0.449901768,-0.276031434,1,0,0,,0,68,68,3,1,,
,,,,,,,,,,,,,,,,,,5f28854b5672311974ef3f3a,2020-08-10_10h17.04.291,lexical_decision_task_MP,2020.1.3,Win32,60,,0,-0.42632613,-0.277996071,1,0,0,0.107,button_left,0.107,1,,,,,,292,NW,UN,50,swance,ABLINT,z,,,,,,,-0.42632613,-0.277996071,1,0,0,,0,69,69,471,1,,
,,,,,,,,,,,,,,,,,,5f28854b5672311974ef3f3a,2020-08-10_10h17.04.291,lexical_decision_task_MP,2020.1.3,Win32,60,,0,0.316306483,-0.319253438,1,0,0,0.215,button_right,0.215,1,,,,,,186,WORD,UN,33,course,PORTAL,m,,,,,,,0.316306483,-0.319253438,1,0,0,,0,70,70,125,1,,
,,,,,,,,,,,,,,,,,,5f28854b5672311974ef3f3a,2020-08-10_10h17.04.291,lexical_decision_task_MP,2020.1.3,Win32,60,,0,-0.202357564,-0.301571709,1,0,0,0.279,button_left,0.279,1,,,,,,411,NW,"ID",50,orchin,ORCHIN,z,,,,,,,-0.202357564,-0.301571709,1,0,0,,0,71,71,350,1,,
,,,,,,,,,,,,,,,,,,5f28854b5672311974ef3f3a,2020-08-10_10h17.04.291,lexical_decision_task_MP,2020.1.3,Win32,60,,0,0.444007859,-0.311394892,1,0,0,0.685,button_right,0.685,1,,,,,,239,WORD,UN,33,forest,LUMBER,m,,,,,,,0.444007859,-0.311394892,1,0,0,,0,72,72,178,1,,
,,,,,,,,,,,,,,,,,,5f28854b5672311974ef3f3a,2020-08-10_10h17.04.291,lexical_decision_task_MP,2020.1.3,Win32,60,,0,-0.359528487,-0.311394892,1,0,0,0.859,button_left,0.859,1,,,,,,479,NW,UN,33,crible,LOBUSH,z,,,,,,,-0.359528487,-0.311394892,1,0,0,,0,73,73,418,1,,
,,,,,,,,,,,,,,,,,,5f28854b5672311974ef3f3a,2020-08-10_10h17.04.291,lexical_decision_task_MP,2020.1.3,Win32,60,,0,-0.359528487,-0.311394892,1,0,0,0.66,button_left,0.66,1,,,,,,272,NW,UN,50,sortel,DAMILT,z,,,,,,,-0.359528487,-0.311394892,1,0,0,,0,74,74,451,1,,
,,,,,,,,,,,,,,,,,,5f28854b5672311974ef3f3a,2020-08-10_10h17.04.291,lexical_decision_task_MP,2020.1.3,Win32,60,,0,0.332023576,-0.311394892,1,0,0,1.261,button_right,1.261,1,,,,,,223,WORD,UN,33,period,KIDNEY,m,,,,,,,0.332023576,-0.311394892,1,0,0,,0,75,75,162,1,,
,,,,,,,,,,,,,,,,,,5f28854b5672311974ef3f3a,2020-08-10_10h17.04.291,lexical_decision_task_MP,2020.1.3,Win32,60,,0,0.367387033,-0.2956778,1,0,0,1.105,button_right,1.105,0,,,,,,345,NW,"ID",33,absend,ABSEND,z,,,,,,,0.367387033,-0.2956778,1,0,0,,0,76,76,284,1,,
,,,,,,,,,,,,,,,,,,5f28854b5672311974ef3f3a,2020-08-10_10h17.04.291,lexical_decision_task_MP,2020.1.3,Win32,60,,0,-0.355599214,-0.236738703,1,0,0,0.913,button_left,0.913,0,,,,,,42,WORD,UN,50,tongue,CHAPEL,m,,,,,,,-0.355599214,-0.236738703,1,0,0,,0,77,77,221,1,,
,,,,,,,,,,,,,,,,,,5f28854b5672311974ef3f3a,2020-08-10_10h17.04.291,lexical_decision_task_MP,2020.1.3,Win32,60,,0,0.418467583,-0.268172888,1,0,0,1.162,button_right,1.162,1,,,,,,219,WORD,UN,33,voyage,BUCKET,m,,,,,,,0.418467583,-0.268172888,1,0,0,,0,78,78,158,1,,
,,,,,,,,,,,,,,,,,,5f28854b5672311974ef3f3a,2020-08-10_10h17.04.291,lexical_decision_task_MP,2020.1.3,Win32,60,,0,0.265225933,-0.266208251,1,0,0,1.596,button_right,1.596,1,,,,,,215,WORD,UN,33,lumber,PHOBIA,m,,,,,,,0.265225933,-0.266208251,1,0,0,,0,79,79,154,1,,
,,,,,,,,,,,,,,,,,,5f28854b5672311974ef3f3a,2020-08-10_10h17.04.291,lexical_decision_task_MP,2020.1.3,Win32,60,,0,0.512770138,-0.279960707,1,0,0,1.578,button_right,1.578,0,,,,,,384,NW,"ID",50,guesco,GUESCO,z,,,,,,,0.512770138,-0.279960707,1,0,0,,0,80,80,323,1,,
,,,,,,,,,,,,,,,,,,5f28854b5672311974ef3f3a,2020-08-10_10h17.04.291,lexical_decision_task_MP,2020.1.3,Win32,60,,0,-0.524557957,-0.331041257,1,0,0,0.999,button_left,0.999,0,,,,,,196,WORD,UN,33,stream,CREDIT,m,,,,,,,-0.524557957,-0.331041257,1,0,0,,0,81,81,135,1,,
,,,,,,,,,,,,,,,,,,5f28854b5672311974ef3f3a,2020-08-10_10h17.04.291,lexical_decision_task_MP,2020.1.3,Win32,60,,0,0.373280943,-0.305500982,1,0,0,0.828,button_right,0.828,1,,,,,,157,WORD,"ID",50,dragon,DRAGON,m,,,,,,,0.373280943,-0.305500982,1,0,0,,0,82,82,96,1,,
,,,,,,,,,,,,,,,,,,5f28854b5672311974ef3f3a,2020-08-10_10h17.04.291,lexical_decision_task_MP,2020.1.3,Win32,60,,0,0.373280943,-0.305500982,1,0,0,0.795,button_right,0.795,0,,,,,,320,NW,"ID",33,jockal,JOCKAL,z,,,,,,,0.373280943,-0.305500982,1,0,0,,0,83,83,259,1,,
,,,,,,,,,,,,,,,,,,5f28854b5672311974ef3f3a,2020-08-10_10h17.04.291,lexical_decision_task_MP,2020.1.3,Win32,60,,0,-0.434184676,-0.28388998,1,0,0,1.263,button_left,1.263,1,,,,,,407,NW,"ID",50,suiver,SUIVER,z,,,,,,,-0.434184676,-0.28388998,1,0,0,,0,84,84,346,1,,
,,,,,,,,,,,,,,,,,,5f28854b5672311974ef3f3a,2020-08-10_10h17.04.291,lexical_decision_task_MP,2020.1.3,Win32,60,,0,-0.410609037,-0.293713163,1,0,0,0.941,button_left,0.941,0,,,,,,212,WORD,UN,33,squeal,VERIFY,m,,,,,,,-0.410609037,-0.293713163,1,0,0,,0,85,85,151,1,,
,,,,,,,,,,,,,,,,,,5f28854b5672311974ef3f3a,2020-08-10_10h17.04.291,lexical_decision_task_MP,2020.1.3,Win32,60,,0,-0.410609037,-0.293713163,1,0,0,0.68,button_left,0.68,1,,,,,,394,NW,"ID",50,spaqux,SPAQUX,z,,,,,,,-0.410609037,-0.293713163,1,0,0,,0,86,86,333,1,,
,,,,,,,,,,,,,,,,,,5f28854b5672311974ef3f3a,2020-08-10_10h17.04.291,lexical_decision_task_MP,2020.1.3,Win32,60,,0,-0.410609037,-0.293713163,1,0,0,0.648,button_left,0.648,0,,,,,,10,WORD,UN,50,cruise,ETHNIC,m,,,,,,,-0.410609037,-0.293713163,1,0,0,,0,87,87,189,1,,
,,,,,,,,,,,,,,,,,,5f28854b5672311974ef3f3a,2020-08-10_10h17.04.291,lexical_decision_task_MP,2020.1.3,Win32,60,,0,,,,,,,,0.648,-1,,,,,,458,NW,UN,33,hocite,BARCET,z,,,,,,,-0.288801572,-0.315324165,0,0,0,,0,88,88,397,1,,
,,,,,,,,,,,,,,,,,,5f28854b5672311974ef3f3a,2020-08-10_10h17.04.291,lexical_decision_task_MP,2020.1.3,Win32,60,,0,0.296660118,-0.303536346,1,0,0,0.996,button_right,0.996,0,,,,,,413,NW,"ID",50,equats,EQUATS,z,,,,,,,0.296660118,-0.303536346,1,0,0,,0,89,89,352,1,,
,,,,,,,,,,,,,,,,,,5f28854b5672311974ef3f3a,2020-08-10_10h17.04.291,lexical_decision_task_MP,2020.1.3,Win32,60,,0,-0.339882122,-0.276031434,1,0,0,1.496,button_left,1.496,1,,,,,,290,NW,UN,50,pretch,SPLINO,z,,,,,,,-0.339882122,-0.276031434,1,0,0,,0,90,90,469,1,,
,,,,,,,,,,,,,,,,,,5f28854b5672311974ef3f3a,2020-08-10_10h17.04.291,lexical_decision_task_MP,2020.1.3,Win32,60,,0,0.31237721,-0.348722986,1,0,0,1.065,button_right,1.065,1,,,,,,162,WORD,"ID",50,candle,CANDLE,m,,,,,,,0.31237721,-0.348722986,1,0,0,,0,91,91,101,1,,
,,,,,,,,,,,,,,,,,,5f28854b5672311974ef3f3a,2020-08-10_10h17.04.291,lexical_decision_task_MP,2020.1.3,Win32,60,,0,-0.508840864,-0.307465619,1,0,0,1.214,button_left,1.214,1,,,,,,243,NW,UN,50,eatric,MUSIED,z,,,,,,,-0.508840864,-0.307465619,1,0,0,,0,92,92,422,1,,
,,,,,,,,,,,,,,,,,,5f28854b5672311974ef3f3a,2020-08-10_10h17.04.291,lexical_decision_task_MP,2020.1.3,Win32,60,,0,-0.508840864,-0.2956778,1,0,0,1.132,button_left,1.132,0,,,,,,180,WORD,"ID",50,silent,SILENT,m,,,,,,,-0.508840864,-0.2956778,1,0,0,,0,93,93,119,1,,
,,,,,,,,,,,,,,,,,,5f28854b5672311974ef3f3a,2020-08-10_10h17.04.291,lexical_decision_task_MP,2020.1.3,Win32,60,,0,0.379174853,-0.272102161,1,0,0,0.982,button_right,0.982,1,,,,,,189,WORD,UN,33,backup,CENSOR,m,,,,,,,0.379174853,-0.272102161,1,0,0,,0,94,94,128,1,,
,,,,,,,,,,,,,,,,,,5f28854b5672311974ef3f3a,2020-08-10_10h17.04.291,lexical_decision_task_MP,2020.1.3,Win32,60,,0,0.367387033,-0.309430255,1,0,0,1.392,button_right,1.392,1,,,,,,105,WORD,"ID",33,number,NUMBER,m,,,,,,,0.367387033,-0.309430255,1,0,0,,0,95,95,44,1,,
,,,,,,,,,,,,,,,,,,5f28854b5672311974ef3f3a,2020-08-10_10h17.04.291,lexical_decision_task_MP,2020.1.3,Win32,60,,0,0.371316306,-0.305500982,1,0,0,0.934,button_right,0.934,1,,,,,,191,WORD,UN,33,beacon,STABLE,m,,,,,,,0.371316306,-0.305500982,1,0,0,,0,96,96,130,1,,
,,,,,,,,,,,,,,,,,,5f28854b5672311974ef3f3a,2020-08-10_10h17.04.291,lexical_decision_task_MP,2020.1.3,Win32,60,,0,0.367387033,-0.305500982,1,0,0,0.758,button_right,0.758,1,,,,,,130,WORD,"ID",50,stupid,STUPID,m,,,,,,,0.367387033,-0.305500982,1,0,0,,0,97,97,69,1,,
,,,,,,,,,,,,,,,,,,5f28854b5672311974ef3f3a,2020-08-10_10h17.04.291,lexical_decision_task_MP,2020.1.3,Win32,60,,0,-0.355599214,-0.33497053,1,0,0,1.713,button_left,1.713,1,,,,,,441,NW,UN,33,aboune,RASTOE,z,,,,,,,-0.355599214,-0.33497053,1,0,0,,0,98,98,380,1,,
,,,,,,,,,,,,,,,,,,5f28854b5672311974ef3f3a,2020-08-10_10h17.04.291,lexical_decision_task_MP,2020.1.3,Win32,60,,0,0.37524558,-0.303536346,1,0,0,1.513,button_right,1.513,1,,,,,,15,WORD,UN,50,faucet,AMOUNT,m,,,,,,,0.37524558,-0.303536346,1,0,0,,0,99,99,194,1,,
,,,,,,,,,,,,,,,,,,5f28854b5672311974ef3f3a,2020-08-10_10h17.04.291,lexical_decision_task_MP,2020.1.3,Win32,60,,0,,,,,,,,1.513,-1,,,,,,128,WORD,"ID",50,senior,SENIOR,m,,,,,,,0.436149312,-0.268172888,0,0,0,,0,100,100,67,1,,
,,,,,,,,,,,,,,,,,,5f28854b5672311974ef3f3a,2020-08-10_10h17.04.291,lexical_decision_task_MP,2020.1.3,Win32,60,,0,-0.652259332,-0.221021611,1,0,0,1.086,button_left,1.086,0,,,,,,52,WORD,UN,50,police,IMPOSE,m,,,,,,,-0.387033399,-0.272102161,1,0,0,,0,101,101,231,1,,
,,,,,,,,,,,,,,,,,,5f28854b5672311974ef3f3a,2020-08-10_10h17.04.291,lexical_decision_task_MP,2020.1.3,Win32,60,,0,-0.430255403,-0.313359528,1,0,0,1.094,button_left,1.094,0,,,,,,217,WORD,UN,33,shrink,LIQUOR,m,,,,,,,-0.430255403,-0.313359528,1,0,0,,0,102,102,156,1,,
,,,,,,,,,,,,,,,,,,5f28854b5672311974ef3f3a,2020-08-10_10h17.04.291,lexical_decision_task_MP,2020.1.3,Win32,60,,0,0.410609037,-0.279960707,1,0,0,1.204,button_right,1.204,0,,,,,,428,NW,UN,33,funtle,TANDLY,z,,,,,,,0.410609037,-0.279960707,1,0,0,,0,103,103,367,1,,
,,,,,,,,,,,,,,,,,,5f28854b5672311974ef3f3a,2020-08-10_10h17.04.291,lexical_decision_task_MP,2020.1.3,Win32,60,,0,-0.404715128,-0.291748527,1,0,0,1.381,button_left,1.381,1,,,,,,347,NW,"ID",33,kerift,KERIFT,z,,,,,,,-0.404715128,-0.291748527,1,0,0,,0,104,104,286,1,,
,,,,,,,,,,,,,,,,,,5f28854b5672311974ef3f3a,2020-08-10_10h17.04.291,lexical_decision_task_MP,2020.1.3,Win32,60,,0,0.548133595,-0.307465619,1,0,0,1.646,button_right,1.646,1,,,,,,123,WORD,"ID",50,strike,STRIKE,m,,,,,,,0.548133595,-0.307465619,1,0,0,,0,105,105,62,1,,
,,,,,,,,,,,,,,,,,,5f28854b5672311974ef3f3a,2020-08-10_10h17.04.291,lexical_decision_task_MP,2020.1.3,Win32,60,,0,0.432220039,-0.297642436,1,0,0,1.022,button_right,1.022,1,,,,,,9,WORD,UN,50,bridge,HUSTLE,m,,,,,,,0.432220039,-0.297642436,1,0,0,,0,106,106,188,1,,
,,,,,,,,,,,,,,,,,,5f28854b5672311974ef3f3a,2020-08-10_10h17.04.291,lexical_decision_task_MP,2020.1.3,Win32,60,,0,-0.469548134,-0.279960707,1,0,0,0.964,button_left,0.964,0,,,,,,221,WORD,UN,33,hinder,MASCOT,m,,,,,,,-0.469548134,-0.279960707,1,0,0,,0,107,107,160,1,,
,,,,,,,,,,,,,,,,,,5f28854b5672311974ef3f3a,2020-08-10_10h17.04.291,lexical_decision_task_MP,2020.1.3,Win32,60,,0,-0.42043222,-0.2956778,1,0,0,1.274,button_left,1.274,1,,,,,,327,NW,"ID",33,plenac,PLENAC,z,,,,,,,-0.42043222,-0.2956778,1,0,0,,0,108,108,266,1,,
,,,,,,,,,,,,,,,,,,5f28854b5672311974ef3f3a,2020-08-10_10h17.04.291,lexical_decision_task_MP,2020.1.3,Win32,60,,0,0.337917485,-0.329076621,1,0,0,1.099,button_right,1.099,0,,,,,,368,NW,"ID",50,hornal,HORNAL,z,,,,,,,0.337917485,-0.329076621,1,0,0,,0,109,109,307,1,,
,,,,,,,,,,,,,,,,,,5f28854b5672311974ef3f3a,2020-08-10_10h17.04.291,lexical_decision_task_MP,2020.1.3,Win32,60,,0,-0.410609037,-0.350687623,1,0,0,0.98,button_left,0.98,0,,,,,,236,WORD,UN,33,grumpy,PIRATE,m,,,,,,,-0.410609037,-0.350687623,1,0,0,,0,110,110,175,1,,
,,,,,,,,,,,,,,,,,,5f28854b5672311974ef3f3a,2020-08-10_10h17.04.291,lexical_decision_task_MP,2020.1.3,Win32,60,,0,-0.387033399,-0.33497053,1,0,0,1.046,button_left,1.046,0,,,,,,95,WORD,"ID",33,thread,THREAD,m,,,,,,,-0.387033399,-0.33497053,1,0,0,,0,111,111,34,1,,
,,,,,,,,,,,,,,,,,,5f28854b5672311974ef3f3a,2020-08-10_10h17.04.291,lexical_decision_task_MP,2020.1.3,Win32,60,,0,-0.387033399,-0.33497053,1,0,0,0.996,button_left,0.996,1,,,,,,469,NW,UN,33,crudio,PADIFS,z,,,,,,,-0.387033399,-0.33497053,1,0,0,,0,112,112,408,1,,
,,,,,,,,,,,,,,,,,,5f28854b5672311974ef3f3a,2020-08-10_10h17.04.291,lexical_decision_task_MP,2020.1.3,Win32,60,,0,-0.383104126,-0.33497053,1,0,0,0.992,button_left,0.992,1,,,,,,444,NW,UN,33,minkel,JAUNCE,z,,,,,,,-0.383104126,-0.33497053,1,0,0,,0,113,113,383,1,,
,,,,,,,,,,,,,,,,,,5f28854b5672311974ef3f3a,2020-08-10_10h17.04.291,lexical_decision_task_MP,2020.1.3,Win32,60,,0,-0.253438114,-0.268172888,1,0,0,1.51,button_left,1.51,0,,,,,,86,WORD,"ID",33,rodent,RODENT,m,,,,,,,-0.253438114,-0.268172888,1,0,0,,0,114,114,25,1,,
,,,,,,,,,,,,,,,,,,5f28854b5672311974ef3f3a,2020-08-10_10h17.04.291,lexical_decision_task_MP,2020.1.3,Win32,60,,0,0.434184676,-0.2956778,1,0,0,1.014,button_right,1.014,0,,,,,,446,NW,UN,33,gircue,RUNAMO,z,,,,,,,0.434184676,-0.2956778,1,0,0,,0,115,115,385,1,,
,,,,,,,,,,,,,,,,,,5f28854b5672311974ef3f3a,2020-08-10_10h17.04.291,lexical_decision_task_MP,2020.1.3,Win32,60,,0,-0.396856582,-0.319253438,1,0,0,0.626,button_left,0.626,1,,,,,,247,NW,UN,50,strole,BLARGE,z,,,,,,,-0.396856582,-0.319253438,1,0,0,,0,116,116,426,1,,
,,,,,,,,,,,,,,,,,,5f28854b5672311974ef3f3a,2020-08-10_10h17.04.291,lexical_decision_task_MP,2020.1.3,Win32,60,,0,0.31237721,-0.319253438,1,0,0,1.303,button_right,1.303,1,,,,,,12,WORD,UN,50,strive,ORANGE,m,,,,,,,0.31237721,-0.319253438,1,0,0,,0,117,117,191,1,,
,,,,,,,,,,,,,,,,,,5f28854b5672311974ef3f3a,2020-08-10_10h17.04.291,lexical_decision_task_MP,2020.1.3,Win32,60,,0,0.388998035,-0.319253438,1,0,0,1.194,button_right,1.194,0,,,,,,341,NW,"ID",33,myrtie,MYRTIE,z,,,,,,,0.388998035,-0.319253438,1,0,0,,0,118,118,280,1,,
,,,,,,,,,,,,,,,,,,5f28854b5672311974ef3f3a,2020-08-10_10h17.04.291,lexical_decision_task_MP,2020.1.3,Win32,60,,0,0.404715128,-0.319253438,1,0,0,1.662,button_right,1.662,1,,,,,,26,WORD,UN,50,butler,SPRINT,m,,,,,,,0.404715128,-0.319253438,1,0,0,,0,119,119,205,1,,
,,,,,,,,,,,,,,,,,,5f28854b5672311974ef3f3a,2020-08-10_10h17.04.291,lexical_decision_task_MP,2020.1.3,Win32,60,,0,-0.438113949,-0.307465619,1,0,0,1.498,button_left,1.498,1,,,,,,307,NW,"ID",33,kirafe,KIRAFE,z,,,,,,,-0.019646365,-0.382121807,1,0,0,,0,120,120,246,1,break_done_button,
,,,,,,,,,,,,,,,,,,5f28854b5672311974ef3f3a,2020-08-10_10h17.04.291,lexical_decision_task_MP,2020.1.3,Win32,60,,0,0.280943026,-0.327111984,1,0,0,1.377,button_right,1.377,0,,,,,,379,NW,"ID",50,auting,AUTING,z,,,,,,,0.280943026,-0.327111984,1,0,0,,0,121,121,318,1,,
,,,,,,,,,,,,,,,,,,5f28854b5672311974ef3f3a,2020-08-10_10h17.04.291,lexical_decision_task_MP,2020.1.3,Win32,60,,0,-0.36935167,-0.333005894,1,0,0,1.479,button_left,1.479,1,,,,,,301,NW,"ID",33,fainch,FAINCH,z,,,,,,,-0.36935167,-0.333005894,1,0,0,,0,122,122,240,1,,
,,,,,,,,,,,,,,,,,,5f28854b5672311974ef3f3a,2020-08-10_10h17.04.291,lexical_decision_task_MP,2020.1.3,Win32,60,,0,-0.394891945,-0.299607073,1,0,0,0.88,button_left,0.88,1,,,,,,279,NW,UN,50,curbol,CELOND,z,,,,,,,-0.394891945,-0.299607073,1,0,0,,0,123,123,458,1,,
,,,,,,,,,,,,,,,,,,5f28854b5672311974ef3f3a,2020-08-10_10h17.04.291,lexical_decision_task_MP,2020.1.3,Win32,60,,0,-0.394891945,-0.299607073,1,0,0,0.68,button_left,0.68,0,,,,,,227,WORD,UN,33,master,SELDOM,m,,,,,,,-0.394891945,-0.299607073,1,0,0,,0,124,124,166,1,,
,,,,,,,,,,,,,,,,,,5f28854b5672311974ef3f3a,2020-08-10_10h17.04.291,lexical_decision_task_MP,2020.1.3,Win32,60,,0,0.489194499,-0.342829077,1,0,0,1.063,button_right,1.063,1,,,,,,116,WORD,"ID",33,tumble,TUMBLE,m,,,,,,,0.489194499,-0.342829077,1,0,0,,0,125,125,55,1,,
,,,,,,,,,,,,,,,,,,5f28854b5672311974ef3f3a,2020-08-10_10h17.04.291,lexical_decision_task_MP,2020.1.3,Win32,60,,0,-0.259332024,-0.342829077,1,0,0,0.975,button_left,0.975,1,,,,,,267,NW,UN,50,packes,PASINK,z,,,,,,,-0.259332024,-0.342829077,1,0,0,,0,126,126,446,1,,
,,,,,,,,,,,,,,,,,,5f28854b5672311974ef3f3a,2020-08-10_10h17.04.291,lexical_decision_task_MP,2020.1.3,Win32,60,,0,-0.41453831,-0.319253438,1,0,0,1.597,button_left,1.597,1,,,,,,448,NW,UN,33,brunge,SADENT,z,,,,,,,-0.41453831,-0.319253438,1,0,0,,0,127,127,387,1,,
,,,,,,,,,,,,,,,,,,5f28854b5672311974ef3f3a,2020-08-10_10h17.04.291,lexical_decision_task_MP,2020.1.3,Win32,60,,0,-0.365422397,-0.319253438,1,0,0,0.713,button_left,0.713,1,,,,,,340,NW,"ID",33,fiatch,FIATCH,z,,,,,,,-0.365422397,-0.319253438,1,0,0,,0,128,128,279,1,,
,,,,,,,,,,,,,,,,,,5f28854b5672311974ef3f3a,2020-08-10_10h17.04.291,lexical_decision_task_MP,2020.1.3,Win32,60,,0,-0.365422397,-0.319253438,1,0,0,0.62,button_left,0.62,1,,,,,,447,NW,UN,33,sadent,GIRCUE,z,,,,,,,-0.365422397,-0.319253438,1,0,0,,0,129,129,386,1,,
,,,,,,,,,,,,,,,,,,5f28854b5672311974ef3f3a,2020-08-10_10h17.04.291,lexical_decision_task_MP,2020.1.3,Win32,60,,0,-0.365422397,-0.319253438,1,0,0,0.657,button_left,0.657,1,,,,,,273,NW,UN,50,fumblo,SORTEL,z,,,,,,,-0.365422397,-0.319253438,1,0,0,,0,130,130,452,1,,
,,,,,,,,,,,,,,,,,,5f28854b5672311974ef3f3a,2020-08-10_10h17.04.291,lexical_decision_task_MP,2020.1.3,Win32,60,,0,0.314341847,-0.301571709,1,0,0,1.222,button_right,1.222,1,,,,,,54,WORD,UN,50,stroke,RAMBLE,m,,,,,,,0.314341847,-0.301571709,1,0,0,,0,131,131,233,1,,
,,,,,,,,,,,,,,,,,,5f28854b5672311974ef3f3a,2020-08-10_10h17.04.291,lexical_decision_task_MP,2020.1.3,Win32,60,,0,0.324165029,-0.301571709,1,0,0,0.697,button_right,0.697,0,,,,,,266,NW,UN,50,pasink,VARMIT,z,,,,,,,0.324165029,-0.301571709,1,0,0,,0,132,132,445,1,,
,,,,,,,,,,,,,,,,,,5f28854b5672311974ef3f3a,2020-08-10_10h17.04.291,lexical_decision_task_MP,2020.1.3,Win32,60,,0,0.324165029,-0.301571709,1,0,0,0.748,button_right,0.748,0,,,,,,371,NW,"ID",50,geiloy,GEILOY,z,,,,,,,0.324165029,-0.301571709,1,0,0,,0,133,133,310,1,,
,,,,,,,,,,,,,,,,,,5f28854b5672311974ef3f3a,2020-08-10_10h17.04.291,lexical_decision_task_MP,2020.1.3,Win32,60,,0,-0.330058939,-0.301571709,1,0,0,1.04,button_left,1.04,1,,,,,,416,NW,"ID",50,pathel,PATHEL,z,,,,,,,-0.330058939,-0.301571709,1,0,0,,0,134,134,355,1,,
,,,,,,,,,,,,,,,,,,5f28854b5672311974ef3f3a,2020-08-10_10h17.04.291,lexical_decision_task_MP,2020.1.3,Win32,60,,0,0.326129666,-0.325147348,1,0,0,1.29,button_right,1.29,0,,,,,,468,NW,UN,33,padifs,WICTOR,z,,,,,,,0.326129666,-0.325147348,1,0,0,,0,135,135,407,1,,
,,,,,,,,,,,,,,,,,,5f28854b5672311974ef3f3a,2020-08-10_10h17.04.291,lexical_decision_task_MP,2020.1.3,Win32,60,,0,0.341846758,-0.333005894,1,0,0,0.979,button_right,0.979,1,,,,,,143,WORD,"ID",50,reason,REASON,m,,,,,,,0.341846758,-0.333005894,1,0,0,,0,136,136,82,1,,
,,,,,,,,,,,,,,,,,,5f28854b5672311974ef3f3a,2020-08-10_10h17.04.291,lexical_decision_task_MP,2020.1.3,Win32,60,,0,-0.402750491,-0.333005894,1,0,0,1.74,button_left,1.74,1,,,,,,363,NW,"ID",50,breali,BREALI,z,,,,,,,-0.402750491,-0.333005894,1,0,0,,0,137,137,302,1,,
,,,,,,,,,,,,,,,,,,5f28854b5672311974ef3f3a,2020-08-10_10h17.04.291,lexical_decision_task_MP,2020.1.3,Win32,60,,0,-0.410609037,-0.33497053,1,0,0,0.73,button_left,0.73,0,,,,,,134,WORD,"ID",50,staple,STAPLE,m,,,,,,,-0.410609037,-0.33497053,1,0,0,,0,138,138,73,1,,
,,,,,,,,,,,,,,,,,,5f28854b5672311974ef3f3a,2020-08-10_10h17.04.291,lexical_decision_task_MP,2020.1.3,Win32,60,,0,-0.410609037,-0.33497053,1,0,0,0.695,button_left,0.695,1,,,,,,470,NW,UN,33,nobest,CRUDIO,z,,,,,,,-0.410609037,-0.33497053,1,0,0,,0,139,139,409,1,,
,,,,,,,,,,,,,,,,,,5f28854b5672311974ef3f3a,2020-08-10_10h17.04.291,lexical_decision_task_MP,2020.1.3,Win32,60,,0,-0.406679764,-0.33497053,1,0,0,0.594,button_left,0.594,0,,,,,,183,WORD,UN,33,sleazy,MILDEW,m,,,,,,,-0.406679764,-0.33497053,1,0,0,,0,140,140,122,1,,
,,,,,,,,,,,,,,,,,,5f28854b5672311974ef3f3a,2020-08-10_10h17.04.291,lexical_decision_task_MP,2020.1.3,Win32,60,,0,0.300589391,-0.323182711,1,0,0,1.526,button_right,1.526,1,,,,,,136,WORD,"ID",50,bleach,BLEACH,m,,,,,,,0.300589391,-0.323182711,1,0,0,,0,141,141,75,1,,
,,,,,,,,,,,,,,,,,,5f28854b5672311974ef3f3a,2020-08-10_10h17.04.291,lexical_decision_task_MP,2020.1.3,Win32,60,,0,0.298624754,-0.323182711,1,0,0,1.513,button_right,1.513,0,,,,,,284,NW,UN,50,prudge,SHAPLE,z,,,,,,,0.298624754,-0.323182711,1,0,0,,0,142,142,463,1,,
,,,,,,,,,,,,,,,,,,5f28854b5672311974ef3f3a,2020-08-10_10h17.04.291,lexical_decision_task_MP,2020.1.3,Win32,60,,0,-0.328094303,-0.327111984,1,0,0,1.013,button_left,1.013,1,,,,,,466,NW,UN,33,robuly,HOCITE,z,,,,,,,-0.328094303,-0.327111984,1,0,0,,0,143,143,405,1,,
,,,,,,,,,,,,,,,,,,5f28854b5672311974ef3f3a,2020-08-10_10h17.04.291,lexical_decision_task_MP,2020.1.3,Win32,60,,0,-0.320235756,-0.327111984,1,0,0,0.779,button_left,0.779,0,,,,,,2,WORD,UN,50,knight,BRIDGE,m,,,,,,,-0.320235756,-0.327111984,1,0,0,,0,144,144,181,1,,
,,,,,,,,,,,,,,,,,,5f28854b5672311974ef3f3a,2020-08-10_10h17.04.291,lexical_decision_task_MP,2020.1.3,Win32,60,,0,0.371316306,-0.274066798,1,0,0,1.016,button_right,1.016,1,,,,,,170,WORD,"ID",50,pounce,POUNCE,m,,,,,,,0.371316306,-0.274066798,1,0,0,,0,145,145,109,1,,
,,,,,,,,,,,,,,,,,,5f28854b5672311974ef3f3a,2020-08-10_10h17.04.291,lexical_decision_task_MP,2020.1.3,Win32,60,,0,0.383104126,-0.276031434,1,0,0,0.857,button_right,0.857,1,,,,,,174,WORD,"ID",50,turkey,TURKEY,m,,,,,,,0.383104126,-0.276031434,1,0,0,,0,146,146,113,1,,
,,,,,,,,,,,,,,,,,,5f28854b5672311974ef3f3a,2020-08-10_10h17.04.291,lexical_decision_task_MP,2020.1.3,Win32,60,,0,0.392927308,-0.276031434,1,0,0,0.99,button_right,0.99,1,,,,,,133,WORD,"ID",50,chrome,CHROME,m,,,,,,,0.392927308,-0.276031434,1,0,0,,0,147,147,72,1,,
,,,,,,,,,,,,,,,,,,5f28854b5672311974ef3f3a,2020-08-10_10h17.04.291,lexical_decision_task_MP,2020.1.3,Win32,60,,0,-0.343811395,-0.297642436,1,0,0,1.372,button_left,1.372,1,,,,,,421,NW,UN,33,alcoud,KNISMA,z,,,,,,,-0.343811395,-0.297642436,1,0,0,,0,148,148,360,1,,
,,,,,,,,,,,,,,,,,,5f28854b5672311974ef3f3a,2020-08-10_10h17.04.291,lexical_decision_task_MP,2020.1.3,Win32,60,,0,0.383104126,-0.240667976,1,0,0,1.514,button_right,1.514,1,,,,,,5,WORD,UN,50,bundle,PLUNGE,m,,,,,,,0.383104126,-0.240667976,1,0,0,,0,149,149,184,1,,
,,,,,,,,,,,,,,,,,,5f28854b5672311974ef3f3a,2020-08-10_10h17.04.291,lexical_decision_task_MP,2020.1.3,Win32,60,,0,-0.304518664,-0.336935167,1,0,0,0.947,button_left,0.947,1,,,,,,293,NW,UN,50,inhort,SWANCE,z,,,,,,,-0.304518664,-0.336935167,1,0,0,,0,150,150,472,1,,
,,,,,,,,,,,,,,,,,,5f28854b5672311974ef3f3a,2020-08-10_10h17.04.291,lexical_decision_task_MP,2020.1.3,Win32,60,,0,-0.278978389,-0.293713163,1,0,0,1.31,button_left,1.31,1,,,,,,435,NW,UN,33,frutan,IMPURB,z,,,,,,,-0.278978389,-0.293713163,1,0,0,,0,151,151,374,1,,
,,,,,,,,,,,,,,,,,,5f28854b5672311974ef3f3a,2020-08-10_10h17.04.291,lexical_decision_task_MP,2020.1.3,Win32,60,,0,-0.280943026,-0.2956778,1,0,0,0.777,button_left,0.777,0,,,,,,240,WORD,UN,33,seldom,FOREST,m,,,,,,,-0.280943026,-0.2956778,1,0,0,,0,152,152,179,1,,
,,,,,,,,,,,,,,,,,,5f28854b5672311974ef3f3a,2020-08-10_10h17.04.291,lexical_decision_task_MP,2020.1.3,Win32,60,,0,-0.58546169,-0.224950884,1,0,0,1.295,button_left,1.295,1,,,,,,364,NW,"ID",50,impote,IMPOTE,z,,,,,,,-0.58546169,-0.224950884,1,0,0,,0,153,153,303,1,,
,,,,,,,,,,,,,,,,,,5f28854b5672311974ef3f3a,2020-08-10_10h17.04.291,lexical_decision_task_MP,2020.1.3,Win32,60,,0,0.499017682,-0.327111984,1,0,0,1.942,button_right,1.942,1,,,,,,214,WORD,UN,33,phobia,INTAKE,m,,,,,,,0.499017682,-0.327111984,1,0,0,,0,154,154,153,1,,
,,,,,,,,,,,,,,,,,,5f28854b5672311974ef3f3a,2020-08-10_10h17.04.291,lexical_decision_task_MP,2020.1.3,Win32,60,,0,0.442043222,-0.327111984,1,0,0,0.729,button_right,0.729,1,,,,,,81,WORD,"ID",33,friend,FRIEND,m,,,,,,,0.442043222,-0.327111984,1,0,0,,0,155,155,20,1,,
,,,,,,,,,,,,,,,,,,5f28854b5672311974ef3f3a,2020-08-10_10h17.04.291,lexical_decision_task_MP,2020.1.3,Win32,60,,0,0.442043222,-0.327111984,1,0,0,1.18,button_right,1.18,1,,,,,,159,WORD,"ID",50,detail,DETAIL,m,,,,,,,0.442043222,-0.327111984,1,0,0,,0,156,156,98,1,,
,,,,,,,,,,,,,,,,,,5f28854b5672311974ef3f3a,2020-08-10_10h17.04.291,lexical_decision_task_MP,2020.1.3,Win32,60,,0,-0.271119843,-0.331041257,1,0,0,1.843,button_left,1.843,1,,,,,,312,NW,"ID",33,nerawl,NERAWL,z,,,,,,,-0.271119843,-0.331041257,1,0,0,,0,157,157,251,1,,
,,,,,,,,,,,,,,,,,,5f28854b5672311974ef3f3a,2020-08-10_10h17.04.291,lexical_decision_task_MP,2020.1.3,Win32,60,,0,0.390962672,-0.33497053,1,0,0,1.309,button_right,1.309,1,,,,,,69,WORD,"ID",33,plenty,PLENTY,m,,,,,,,0.390962672,-0.33497053,1,0,0,,0,158,158,8,1,,
,,,,,,,,,,,,,,,,,,5f28854b5672311974ef3f3a,2020-08-10_10h17.04.291,lexical_decision_task_MP,2020.1.3,Win32,60,,0,0.390962672,-0.33497053,1,0,0,0.946,button_right,0.946,1,,,,,,237,WORD,UN,33,glance,POSTER,m,,,,,,,0.390962672,-0.33497053,1,0,0,,0,159,159,176,1,,
,,,,,,,,,,,,,,,,,,5f28854b5672311974ef3f3a,2020-08-10_10h17.04.291,lexical_decision_task_MP,2020.1.3,Win32,60,,0,,,,,,,,0.946,-1,,,,,,1,WORD,UN,50,ethnic,FRIGHT,m,,,,,,,-0.277013752,-0.325147348,0,0,0,,0,160,160,180,1,,
,,,,,,,,,,,,,,,,,,5f28854b5672311974ef3f3a,2020-08-10_10h17.04.291,lexical_decision_task_MP,2020.1.3,Win32,60,,0,-0.265225933,-0.327111984,1,0,0,0.764,button_left,0.764,1,,,,,,375,NW,"ID",50,yorque,YORQUE,z,,,,,,,-0.265225933,-0.327111984,1,0,0,,0,161,161,314,1,,
,,,,,,,,,,,,,,,,,,5f28854b5672311974ef3f3a,2020-08-10_10h17.04.291,lexical_decision_task_MP,2020.1.3,Win32,60,,0,-0.269155206,-0.325147348,1,0,0,0.979,button_left,0.979,0,,,,,,192,WORD,UN,33,object,PLAGUE,m,,,,,,,-0.269155206,-0.325147348,1,0,0,,0,162,162,131,1,,
,,,,,,,,,,,,,,,,,,5f28854b5672311974ef3f3a,2020-08-10_10h17.04.291,lexical_decision_task_MP,2020.1.3,Win32,60,,0,0.536345776,-0.317288802,1,0,0,1.051,button_right,1.051,1,,,,,,120,WORD,"ID",33,strain,STRAIN,m,,,,,,,0.536345776,-0.317288802,1,0,0,,0,163,163,59,1,,
,,,,,,,,,,,,,,,,,,5f28854b5672311974ef3f3a,2020-08-10_10h17.04.291,lexical_decision_task_MP,2020.1.3,Win32,60,,0,0.412573674,-0.303536346,1,0,0,0.719,button_right,0.719,1,,,,,,55,WORD,UN,50,ambush,STROKE,m,,,,,,,0.412573674,-0.303536346,1,0,0,,0,164,164,234,1,,
,,,,,,,,,,,,,,,,,,5f28854b5672311974ef3f3a,2020-08-10_10h17.04.291,lexical_decision_task_MP,2020.1.3,Win32,60,,0,0.396856582,-0.303536346,1,0,0,0.644,button_right,0.644,1,,,,,,163,WORD,"ID",50,string,STRING,m,,,,,,,0.396856582,-0.303536346,1,0,0,,0,165,165,102,1,,
,,,,,,,,,,,,,,,,,,5f28854b5672311974ef3f3a,2020-08-10_10h17.04.291,lexical_decision_task_MP,2020.1.3,Win32,60,,0,-0.31827112,-0.309430255,1,0,0,1.677,button_left,1.677,0,,,,,,30,WORD,UN,50,weapon,ORIENT,m,,,,,,,-0.31827112,-0.309430255,1,0,0,,0,166,166,209,1,,
,,,,,,,,,,,,,,,,,,5f28854b5672311974ef3f3a,2020-08-10_10h17.04.291,lexical_decision_task_MP,2020.1.3,Win32,60,,0,0.294695481,-0.325147348,1,0,0,1.262,button_right,1.262,1,,,,,,115,WORD,"ID",33,guitar,GUITAR,m,,,,,,,0.294695481,-0.325147348,1,0,0,,0,167,167,54,1,,
,,,,,,,,,,,,,,,,,,5f28854b5672311974ef3f3a,2020-08-10_10h17.04.291,lexical_decision_task_MP,2020.1.3,Win32,60,,0,0.296660118,-0.325147348,1,0,0,0.816,button_right,0.816,1,,,,,,169,WORD,"ID",50,genius,GENIUS,m,,,,,,,0.296660118,-0.325147348,1,0,0,,0,168,168,108,1,,
,,,,,,,,,,,,,,,,,,5f28854b5672311974ef3f3a,2020-08-10_10h17.04.291,lexical_decision_task_MP,2020.1.3,Win32,60,,0,-0.271119843,-0.327111984,1,0,0,1.958,button_left,1.958,1,,,,,,324,NW,"ID",33,steikh,STEIKH,z,,,,,,,-0.271119843,-0.327111984,1,0,0,,0,169,169,263,1,,
,,,,,,,,,,,,,,,,,,5f28854b5672311974ef3f3a,2020-08-10_10h17.04.291,lexical_decision_task_MP,2020.1.3,Win32,60,,0,-0.278978389,-0.327111984,1,0,0,0.647,button_left,0.647,1,,,,,,367,NW,"ID",50,slique,SLIQUE,z,,,,,,,-0.278978389,-0.327111984,1,0,0,,0,170,170,306,1,,
,,,,,,,,,,,,,,,,,,5f28854b5672311974ef3f3a,2020-08-10_10h17.04.291,lexical_decision_task_MP,2020.1.3,Win32,60,,0,0.292730845,-0.319253438,1,0,0,1.022,button_right,1.022,1,,,,,,144,WORD,"ID",50,sponge,SPONGE,m,,,,,,,0.292730845,-0.319253438,1,0,0,,0,171,171,83,1,,
,,,,,,,,,,,,,,,,,,5f28854b5672311974ef3f3a,2020-08-10_10h17.04.291,lexical_decision_task_MP,2020.1.3,Win32,60,,0,0.300589391,-0.319253438,1,0,0,1.047,button_right,1.047,1,,,,,,20,WORD,UN,50,simple,BREAST,m,,,,,,,0.300589391,-0.319253438,1,0,0,,0,172,172,199,1,,
,,,,,,,,,,,,,,,,,,5f28854b5672311974ef3f3a,2020-08-10_10h17.04.291,lexical_decision_task_MP,2020.1.3,Win32,60,,0,0.300589391,-0.319253438,1,0,0,1.143,button_right,1.143,1,,,,,,66,WORD,"ID",33,gospel,GOSPEL,m,,,,,,,0.300589391,-0.319253438,1,0,0,,0,173,173,5,1,,
,,,,,,,,,,,,,,,,,,5f28854b5672311974ef3f3a,2020-08-10_10h17.04.291,lexical_decision_task_MP,2020.1.3,Win32,60,,0,,,,,,,,1.143,-1,,,,,,100,WORD,"ID",33,carbon,CARBON,m,,,,,,,0.296660118,-0.329076621,0,0,0,,0,174,174,39,1,,
,,,,,,,,,,,,,,,,,,5f28854b5672311974ef3f3a,2020-08-10_10h17.04.291,lexical_decision_task_MP,2020.1.3,Win32,60,,0,0.345776031,-0.329076621,1,0,0,0.758,button_right,0.758,0,,,,,,360,NW,"ID",33,desory,DESORY,z,,,,,,,0.345776031,-0.329076621,1,0,0,,0,175,175,299,1,,
,,,,,,,,,,,,,,,,,,5f28854b5672311974ef3f3a,2020-08-10_10h17.04.291,lexical_decision_task_MP,2020.1.3,Win32,60,,0,-0.265225933,-0.331041257,1,0,0,1.76,button_left,1.76,1,,,,,,467,NW,UN,33,wictor,GORBIE,z,,,,,,,-0.265225933,-0.331041257,1,0,0,,0,176,176,406,1,,
,,,,,,,,,,,,,,,,,,5f28854b5672311974ef3f3a,2020-08-10_10h17.04.291,lexical_decision_task_MP,2020.1.3,Win32,60,,0,-0.26719057,-0.331041257,1,0,0,0.831,button_left,0.831,0,,,,,,177,WORD,"ID",50,advent,ADVENT,m,,,,,,,-0.26719057,-0.331041257,1,0,0,,0,177,177,116,1,,
,,,,,,,,,,,,,,,,,,5f28854b5672311974ef3f3a,2020-08-10_10h17.04.291,lexical_decision_task_MP,2020.1.3,Win32,60,,0,-0.26719057,-0.331041257,1,0,0,0.947,button_left,0.947,1,,,,,,248,NW,UN,50,batrol,STROLE,z,,,,,,,-0.26719057,-0.331041257,1,0,0,,0,178,178,427,1,,
,,,,,,,,,,,,,,,,,,5f28854b5672311974ef3f3a,2020-08-10_10h17.04.291,lexical_decision_task_MP,2020.1.3,Win32,60,,0,0.249508841,-0.331041257,1,0,0,1.495,button_right,1.495,0,,,,,,402,NW,"ID",50,syntic,SYNTIC,z,,,,,,,0.249508841,-0.331041257,1,0,0,,0,179,179,341,1,,
,,,,,,,,,,,,,,,,,,5f28854b5672311974ef3f3a,2020-08-10_10h17.04.291,lexical_decision_task_MP,2020.1.3,Win32,60,,0,,,,,,,,1.495,-1,,,,,,382,NW,"ID",50,sarley,SARLEY,z,,,,,,,-0.300589391,-0.325147348,0,0,0,,0,180,180,321,1,,
,,,,,,,,,,,,,,,,,,5f28854b5672311974ef3f3a,2020-08-10_10h17.04.291,lexical_decision_task_MP,2020.1.3,Win32,60,,0,-0.36345776,-0.319253438,1,0,0,1.207,button_left,1.207,1,,,,,,439,NW,UN,33,saride,LIMPOR,z,,,,,,,-0.36345776,-0.319253438,1,0,0,,0,181,181,378,1,,
,,,,,,,,,,,,,,,,,,5f28854b5672311974ef3f3a,2020-08-10_10h17.04.291,lexical_decision_task_MP,2020.1.3,Win32,60,,0,0.402750491,-0.331041257,1,0,0,1.039,button_right,1.039,1,,,,,,164,WORD,"ID",50,market,MARKET,m,,,,,,,0.402750491,-0.331041257,1,0,0,,0,182,182,103,1,,
,,,,,,,,,,,,,,,,,,5f28854b5672311974ef3f3a,2020-08-10_10h17.04.291,lexical_decision_task_MP,2020.1.3,Win32,60,,0,0.383104126,-0.331041257,1,0,0,0.96,button_right,0.96,1,,,,,,135,WORD,"ID",50,import,IMPORT,m,,,,,,,0.383104126,-0.331041257,1,0,0,,0,183,183,74,1,,
,,,,,,,,,,,,,,,,,,5f28854b5672311974ef3f3a,2020-08-10_10h17.04.291,lexical_decision_task_MP,2020.1.3,Win32,60,,0,-0.320235756,-0.331041257,1,0,0,1.663,button_left,1.663,0,,,,,,195,WORD,UN,33,credit,RESIGN,m,,,,,,,-0.320235756,-0.331041257,1,0,0,,0,184,184,134,1,,
,,,,,,,,,,,,,,,,,,5f28854b5672311974ef3f3a,2020-08-10_10h17.04.291,lexical_decision_task_MP,2020.1.3,Win32,60,,0,0.294695481,-0.291748527,1,0,0,1.08,button_right,1.08,1,,,,,,35,WORD,UN,50,vanish,SOCKET,m,,,,,,,0.294695481,-0.291748527,1,0,0,,0,185,185,214,1,,
,,,,,,,,,,,,,,,,,,5f28854b5672311974ef3f3a,2020-08-10_10h17.04.291,lexical_decision_task_MP,2020.1.3,Win32,60,,0,0.294695481,-0.291748527,1,0,0,0.779,button_right,0.779,1,,,,,,104,WORD,"ID",33,studio,STUDIO,m,,,,,,,0.294695481,-0.291748527,1,0,0,,0,186,186,43,1,,
,,,,,,,,,,,,,,,,,,5f28854b5672311974ef3f3a,2020-08-10_10h17.04.291,lexical_decision_task_MP,2020.1.3,Win32,60,,0,0.294695481,-0.291748527,1,0,0,0.962,button_right,0.962,1,,,,,,38,WORD,UN,50,insect,POWDER,m,,,,,,,0.294695481,-0.291748527,1,0,0,,0,187,187,217,1,,
,,,,,,,,,,,,,,,,,,5f28854b5672311974ef3f3a,2020-08-10_10h17.04.291,lexical_decision_task_MP,2020.1.3,Win32,60,,0,-0.359528487,-0.276031434,1,0,0,1.413,button_left,1.413,0,,,,,,213,WORD,UN,33,intake,SQUEAL,m,,,,,,,-0.359528487,-0.276031434,1,0,0,,0,188,188,152,1,,
,,,,,,,,,,,,,,,,,,5f28854b5672311974ef3f3a,2020-08-10_10h17.04.291,lexical_decision_task_MP,2020.1.3,Win32,60,,0,-0.654223969,-0.270137525,1,0,0,1.43,button_left,1.43,1,,,,,,442,NW,UN,33,dorsex,ABOUNE,z,,,,,,,-0.467583497,-0.309430255,1,0,0,,0,189,189,381,1,,
,,,,,,,,,,,,,,,,,,5f28854b5672311974ef3f3a,2020-08-10_10h17.04.291,lexical_decision_task_MP,2020.1.3,Win32,60,,0,0.497053045,-0.342829077,1,0,0,1.58,button_right,1.58,0,,,,,,342,NW,"ID",33,randow,RANDOW,z,,,,,,,0.497053045,-0.342829077,1,0,0,,0,190,190,281,1,,
,,,,,,,,,,,,,,,,,,5f28854b5672311974ef3f3a,2020-08-10_10h17.04.291,lexical_decision_task_MP,2020.1.3,Win32,60,,0,-0.294695481,-0.293713163,1,0,0,1.302,button_left,1.302,0,,,,,,222,WORD,UN,33,export,HINDER,m,,,,,,,-0.294695481,-0.293713163,1,0,0,,0,191,191,161,1,,
,,,,,,,,,,,,,,,,,,5f28854b5672311974ef3f3a,2020-08-10_10h17.04.291,lexical_decision_task_MP,2020.1.3,Win32,60,,0,0.47740668,-0.293713163,1,0,0,1.114,button_right,1.114,1,,,,,,80,WORD,"ID",33,family,FAMILY,m,,,,,,,0.47740668,-0.293713163,1,0,0,,0,192,192,19,1,,
,,,,,,,,,,,,,,,,,,5f28854b5672311974ef3f3a,2020-08-10_10h17.04.291,lexical_decision_task_MP,2020.1.3,Win32,60,,0,-0.298624754,-0.291748527,1,0,0,1.429,button_left,1.429,1,,,,,,391,NW,"ID",50,theldy,THELDY,z,,,,,,,-0.298624754,-0.291748527,1,0,0,,0,193,193,330,1,,
,,,,,,,,,,,,,,,,,,5f28854b5672311974ef3f3a,2020-08-10_10h17.04.291,lexical_decision_task_MP,2020.1.3,Win32,60,,0,0.26719057,-0.270137525,1,0,0,1.382,button_right,1.382,1,,,,,,83,WORD,"ID",33,result,RESULT,m,,,,,,,0.26719057,-0.270137525,1,0,0,,0,194,194,22,1,,
,,,,,,,,,,,,,,,,,,5f28854b5672311974ef3f3a,2020-08-10_10h17.04.291,lexical_decision_task_MP,2020.1.3,Win32,60,,0,-0.339882122,-0.299607073,1,0,0,1.936,button_left,1.936,1,,,,,,346,NW,"ID",33,saudic,SAUDIC,z,,,,,,,-0.339882122,-0.299607073,1,0,0,,0,195,195,285,1,,
,,,,,,,,,,,,,,,,,,5f28854b5672311974ef3f3a,2020-08-10_10h17.04.291,lexical_decision_task_MP,2020.1.3,Win32,60,,0,,,,,,,,1.936,-1,,,,,,232,WORD,UN,33,nature,INJECT,m,,,,,,,-0.296660118,-0.2956778,0,0,0,,0,196,196,171,1,,
,,,,,,,,,,,,,,,,,,5f28854b5672311974ef3f3a,2020-08-10_10h17.04.291,lexical_decision_task_MP,2020.1.3,Win32,60,,0,-0.365422397,-0.299607073,1,0,0,1.22,button_left,1.22,0,,,,,,106,WORD,"ID",33,ransom,RANSOM,m,,,,,,,-0.365422397,-0.299607073,1,0,0,,0,197,197,45,1,,
,,,,,,,,,,,,,,,,,,5f28854b5672311974ef3f3a,2020-08-10_10h17.04.291,lexical_decision_task_MP,2020.1.3,Win32,60,,0,0.296660118,-0.315324165,1,0,0,1.618,button_right,1.618,0,,,,,,462,NW,UN,33,kispel,ABSULT,z,,,,,,,0.296660118,-0.315324165,1,0,0,,0,198,198,401,1,,
,,,,,,,,,,,,,,,,,,5f28854b5672311974ef3f3a,2020-08-10_10h17.04.291,lexical_decision_task_MP,2020.1.3,Win32,60,,0,0.296660118,-0.315324165,1,0,0,1.845,button_right,1.845,0,,,,,,328,NW,"ID",33,broake,BROAKE,z,,,,,,,0.296660118,-0.315324165,1,0,0,,0,199,199,267,1,,
,,,,,,,,,,,,,,,,,,5f28854b5672311974ef3f3a,2020-08-10_10h17.04.291,lexical_decision_task_MP,2020.1.3,Win32,60,,0,-0.280943026,-0.319253438,1,0,0,1.096,button_left,1.096,1,,,,,,269,NW,UN,50,wrimsy,ORCHET,z,,,,,,,-0.280943026,-0.319253438,1,0,0,,0,200,200,448,1,,
,,,,,,,,,,,,,,,,,,5f28854b5672311974ef3f3a,2020-08-10_10h17.04.291,lexical_decision_task_MP,2020.1.3,Win32,60,,0,0.390962672,-0.319253438,1,0,0,0.963,button_right,0.963,1,,,,,,127,WORD,"ID",50,castle,CASTLE,m,,,,,,,0.390962672,-0.319253438,1,0,0,,0,201,201,66,1,,
,,,,,,,,,,,,,,,,,,5f28854b5672311974ef3f3a,2020-08-10_10h17.04.291,lexical_decision_task_MP,2020.1.3,Win32,60,,0,0.31237721,-0.319253438,1,0,0,0.861,button_right,0.861,1,,,,,,238,WORD,UN,33,behalf,FLOWER,m,,,,,,,0.31237721,-0.319253438,1,0,0,,0,202,202,177,1,,
,,,,,,,,,,,,,,,,,,5f28854b5672311974ef3f3a,2020-08-10_10h17.04.291,lexical_decision_task_MP,2020.1.3,Win32,60,,0,-0.339882122,-0.307465619,1,0,0,1.083,button_left,1.083,0,,,,,,68,WORD,"ID",33,fumble,FUMBLE,m,,,,,,,-0.339882122,-0.307465619,1,0,0,,0,203,203,7,1,,
,,,,,,,,,,,,,,,,,,5f28854b5672311974ef3f3a,2020-08-10_10h17.04.291,lexical_decision_task_MP,2020.1.3,Win32,60,,0,0.351669941,-0.274066798,1,0,0,1.162,button_right,1.162,0,,,,,,437,NW,UN,33,baitch,SNAPEL,z,,,,,,,0.351669941,-0.274066798,1,0,0,,0,204,204,376,1,,
,,,,,,,,,,,,,,,,,,5f28854b5672311974ef3f3a,2020-08-10_10h17.04.291,lexical_decision_task_MP,2020.1.3,Win32,60,,0,,,,,,,,1.162,-1,,,,,,303,NW,"ID",33,fiream,FIREAM,z,,,,,,,-0.355599214,-0.301571709,0,0,0,,0,205,205,242,1,,
,,,,,,,,,,,,,,,,,,5f28854b5672311974ef3f3a,2020-08-10_10h17.04.291,lexical_decision_task_MP,2020.1.3,Win32,60,,0,-0.355599214,-0.301571709,1,0,0,0.894,button_left,0.894,1,,,,,,281,NW,UN,50,porlex,MELATY,z,,,,,,,-0.355599214,-0.301571709,1,0,0,,0,206,206,460,1,,
,,,,,,,,,,,,,,,,,,5f28854b5672311974ef3f3a,2020-08-10_10h17.04.291,lexical_decision_task_MP,2020.1.3,Win32,60,,0,-0.335952849,-0.301571709,1,0,0,1.746,button_left,1.746,0,,,,,,145,WORD,"ID",50,parish,PARISH,m,,,,,,,-0.335952849,-0.301571709,1,0,0,,0,207,207,84,1,,
,,,,,,,,,,,,,,,,,,5f28854b5672311974ef3f3a,2020-08-10_10h17.04.291,lexical_decision_task_MP,2020.1.3,Win32,60,,0,0.339882122,-0.313359528,1,0,0,1.447,button_right,1.447,0,,,,,,395,NW,"ID",50,colury,COLURY,z,,,,,,,0.339882122,-0.313359528,1,0,0,,0,208,208,334,1,,
,,,,,,,,,,,,,,,,,,5f28854b5672311974ef3f3a,2020-08-10_10h17.04.291,lexical_decision_task_MP,2020.1.3,Win32,60,,0,-0.304518664,-0.321218075,1,0,0,0.793,button_left,0.793,1,,,,,,325,NW,"ID",33,thruse,THRUSE,z,,,,,,,-0.304518664,-0.321218075,1,0,0,,0,209,209,264,1,,
,,,,,,,,,,,,,,,,,,5f28854b5672311974ef3f3a,2020-08-10_10h17.04.291,lexical_decision_task_MP,2020.1.3,Win32,60,,0,0.436149312,-0.313359528,1,0,0,1.601,button_right,1.601,1,,,,,,132,WORD,"ID",50,strong,STRONG,m,,,,,,,0.436149312,-0.313359528,1,0,0,,0,210,210,71,1,,
,,,,,,,,,,,,,,,,,,5f28854b5672311974ef3f3a,2020-08-10_10h17.04.291,lexical_decision_task_MP,2020.1.3,Win32,60,,0,-0.422396857,-0.293713163,1,0,0,1.505,button_left,1.505,1,,,,,,338,NW,"ID",33,wreash,WREASH,z,,,,,,,-0.422396857,-0.293713163,1,0,0,,0,211,211,277,1,,
,,,,,,,,,,,,,,,,,,5f28854b5672311974ef3f3a,2020-08-10_10h17.04.291,lexical_decision_task_MP,2020.1.3,Win32,60,,0,-0.603143418,-0.305500982,1,0,0,1.845,,1.505,-1,,,,,,370,NW,"ID",50,sleact,SLEACT,z,,,,,,,-0.131630648,-0.260314342,0,0,0,,0,212,212,309,1,,
,,,,,,,,,,,,,,,,,,5f28854b5672311974ef3f3a,2020-08-10_10h17.04.291,lexical_decision_task_MP,2020.1.3,Win32,60,,0,-0.296660118,-0.268172888,1,0,0,1.115,button_left,1.115,0,,,,,,48,WORD,UN,50,survey,WALNUT,m,,,,,,,-0.296660118,-0.268172888,1,0,0,,0,213,213,227,1,,
,,,,,,,,,,,,,,,,,,5f28854b5672311974ef3f3a,2020-08-10_10h17.04.291,lexical_decision_task_MP,2020.1.3,Win32,60,,0,-0.286836935,-0.28978389,1,0,0,0.964,button_left,0.964,0,,,,,,4,WORD,UN,50,plunge,TRENCH,m,,,,,,,-0.286836935,-0.28978389,1,0,0,,0,214,214,183,1,,
,,,,,,,,,,,,,,,,,,5f28854b5672311974ef3f3a,2020-08-10_10h17.04.291,lexical_decision_task_MP,2020.1.3,Win32,60,,0,0.26129666,-0.287819253,1,0,0,1.11,button_right,1.11,1,,,,,,94,WORD,"ID",33,travel,TRAVEL,m,,,,,,,0.26129666,-0.287819253,1,0,0,,0,215,215,33,1,,
,,,,,,,,,,,,,,,,,,5f28854b5672311974ef3f3a,2020-08-10_10h17.04.291,lexical_decision_task_MP,2020.1.3,Win32,60,,0,0.265225933,-0.287819253,1,0,0,1.743,button_right,1.743,0,,,,,,404,NW,"ID",50,cluirm,CLUIRM,z,,,,,,,0.265225933,-0.287819253,1,0,0,,0,216,216,343,1,,
,,,,,,,,,,,,,,,,,,5f28854b5672311974ef3f3a,2020-08-10_10h17.04.291,lexical_decision_task_MP,2020.1.3,Win32,60,,0,0.265225933,-0.287819253,1,0,0,1.578,button_right,1.578,1,,,,,,107,WORD,"ID",33,slogan,SLOGAN,m,,,,,,,0.265225933,-0.287819253,1,0,0,,0,217,217,46,1,,
,,,,,,,,,,,,,,,,,,5f28854b5672311974ef3f3a,2020-08-10_10h17.04.291,lexical_decision_task_MP,2020.1.3,Win32,60,,0,-0.326129666,-0.303536346,1,0,0,1.228,button_left,1.228,0,,,,,,207,WORD,UN,33,hockey,WREATH,m,,,,,,,-0.326129666,-0.303536346,1,0,0,,0,218,218,146,1,,
,,,,,,,,,,,,,,,,,,5f28854b5672311974ef3f3a,2020-08-10_10h17.04.291,lexical_decision_task_MP,2020.1.3,Win32,60,,0,0.554027505,-0.260314342,1,0,0,1.601,button_right,1.601,1,,,,,,109,WORD,"ID",33,wonder,WONDER,m,,,,,,,0.554027505,-0.260314342,1,0,0,,0,219,219,48,1,,
,,,,,,,,,,,,,,,,,,5f28854b5672311974ef3f3a,2020-08-10_10h17.04.291,lexical_decision_task_MP,2020.1.3,Win32,60,,0,0.516699411,-0.287819253,1,0,0,1.546,button_right,1.546,1,,,,,,230,WORD,UN,33,mother,FRINGE,m,,,,,,,0.516699411,-0.287819253,1,0,0,,0,220,220,169,1,,
,,,,,,,,,,,,,,,,,,5f28854b5672311974ef3f3a,2020-08-10_10h17.04.291,lexical_decision_task_MP,2020.1.3,Win32,60,,0,-0.432220039,-0.338899804,1,0,0,1.211,button_left,1.211,0,,,,,,224,WORD,UN,33,vulgar,PERIOD,m,,,,,,,-0.432220039,-0.338899804,1,0,0,,0,221,221,163,1,,
,,,,,,,,,,,,,,,,,,5f28854b5672311974ef3f3a,2020-08-10_10h17.04.291,lexical_decision_task_MP,2020.1.3,Win32,60,,0,0.324165029,-0.236738703,1,0,0,1.714,button_right,1.714,0,,,,,,277,NW,UN,50,unighs,PETAIN,z,,,,,,,0.324165029,-0.236738703,1,0,0,,0,222,222,456,1,,
,,,,,,,,,,,,,,,,,,5f28854b5672311974ef3f3a,2020-08-10_10h17.04.291,lexical_decision_task_MP,2020.1.3,Win32,60,,0,0.347740668,-0.303536346,1,0,0,1.491,button_right,1.491,0,,,,,,449,NW,UN,33,phrect,BRUNGE,z,,,,,,,0.347740668,-0.303536346,1,0,0,,0,223,223,388,1,,
,,,,,,,,,,,,,,,,,,5f28854b5672311974ef3f3a,2020-08-10_10h17.04.291,lexical_decision_task_MP,2020.1.3,Win32,60,,0,0.343811395,-0.299607073,1,0,0,1.247,button_right,1.247,1,,,,,,125,WORD,"ID",50,nickel,NICKEL,m,,,,,,,0.343811395,-0.299607073,1,0,0,,0,224,224,64,1,,
,,,,,,,,,,,,,,,,,,5f28854b5672311974ef3f3a,2020-08-10_10h17.04.291,lexical_decision_task_MP,2020.1.3,Win32,60,,0,0.385068762,-0.315324165,1,0,0,0.781,button_right,0.781,1,,,,,,93,WORD,"ID",33,public,PUBLIC,m,,,,,,,0.385068762,-0.315324165,1,0,0,,0,225,225,32,1,,
,,,,,,,,,,,,,,,,,,5f28854b5672311974ef3f3a,2020-08-10_10h17.04.291,lexical_decision_task_MP,2020.1.3,Win32,60,,0,0.398821218,-0.319253438,1,0,0,0.813,button_right,0.813,1,,,,,,47,WORD,UN,50,walnut,INCOME,m,,,,,,,0.398821218,-0.319253438,1,0,0,,0,226,226,226,1,,
,,,,,,,,,,,,,,,,,,5f28854b5672311974ef3f3a,2020-08-10_10h17.04.291,lexical_decision_task_MP,2020.1.3,Win32,60,,0,0.402750491,-0.323182711,1,0,0,1.147,button_right,1.147,1,,,,,,171,WORD,"ID",50,depart,DEPART,m,,,,,,,0.402750491,-0.323182711,1,0,0,,0,227,227,110,1,,
,,,,,,,,,,,,,,,,,,5f28854b5672311974ef3f3a,2020-08-10_10h17.04.291,lexical_decision_task_MP,2020.1.3,Win32,60,,0,0.430255403,-0.301571709,1,0,0,1.145,button_right,1.145,0,,,,,,373,NW,"ID",50,bigent,BIGENT,z,,,,,,,0.430255403,-0.301571709,1,0,0,,0,228,228,312,1,,
,,,,,,,,,,,,,,,,,,5f28854b5672311974ef3f3a,2020-08-10_10h17.04.291,lexical_decision_task_MP,2020.1.3,Win32,60,,0,-0.269155206,-0.2956778,1,0,0,1.482,button_left,1.482,1,,,,,,331,NW,"ID",33,gilfew,GILFEW,z,,,,,,,-0.269155206,-0.2956778,1,0,0,,0,229,229,270,1,,
,,,,,,,,,,,,,,,,,,5f28854b5672311974ef3f3a,2020-08-10_10h17.04.291,lexical_decision_task_MP,2020.1.3,Win32,60,,0,-0.286836935,-0.250491159,1,0,0,1.621,button_left,1.621,1,,,,,,414,NW,"ID",50,serbol,SERBOL,z,,,,,,,-0.286836935,-0.250491159,1,0,0,,0,230,230,353,1,,
,,,,,,,,,,,,,,,,,,5f28854b5672311974ef3f3a,2020-08-10_10h17.04.291,lexical_decision_task_MP,2020.1.3,Win32,60,,0,-0.288801572,-0.264243615,1,0,0,1.144,button_left,1.144,1,,,,,,254,NW,UN,50,apight,VAROSH,z,,,,,,,-0.288801572,-0.264243615,1,0,0,,0,231,231,433,1,,
,,,,,,,,,,,,,,,,,,5f28854b5672311974ef3f3a,2020-08-10_10h17.04.291,lexical_decision_task_MP,2020.1.3,Win32,60,,0,0.387033399,-0.268172888,1,0,0,1.33,button_right,1.33,1,,,,,,122,WORD,"ID",50,linger,LINGER,m,,,,,,,0.387033399,-0.268172888,1,0,0,,0,232,232,61,1,,
,,,,,,,,,,,,,,,,,,5f28854b5672311974ef3f3a,2020-08-10_10h17.04.291,lexical_decision_task_MP,2020.1.3,Win32,60,,0,-0.339882122,-0.277996071,1,0,0,1.543,button_left,1.543,1,,,,,,456,NW,UN,33,wanigh,BROGET,z,,,,,,,-0.339882122,-0.277996071,1,0,0,,0,233,233,395,1,,
,,,,,,,,,,,,,,,,,,5f28854b5672311974ef3f3a,2020-08-10_10h17.04.291,lexical_decision_task_MP,2020.1.3,Win32,60,,0,0.388998035,-0.311394892,1,0,0,1.295,button_right,1.295,1,,,,,,168,WORD,"ID",50,answer,ANSWER,m,,,,,,,0.388998035,-0.311394892,1,0,0,,0,234,234,107,1,,
,,,,,,,,,,,,,,,,,,5f28854b5672311974ef3f3a,2020-08-10_10h17.04.291,lexical_decision_task_MP,2020.1.3,Win32,60,,0,-0.280943026,-0.327111984,1,0,0,1.481,button_left,1.481,1,,,,,,317,NW,"ID",33,worbal,WORBAL,z,,,,,,,-0.280943026,-0.327111984,1,0,0,,0,235,235,256,1,,
,,,,,,,,,,,,,,,,,,5f28854b5672311974ef3f3a,2020-08-10_10h17.04.291,lexical_decision_task_MP,2020.1.3,Win32,60,,0,-0.359528487,-0.28978389,1,0,0,1.598,button_left,1.598,1,,,,,,477,NW,UN,33,lobush,PHOTIE,z,,,,,,,-0.359528487,-0.28978389,1,0,0,,0,236,236,416,1,,
,,,,,,,,,,,,,,,,,,5f28854b5672311974ef3f3a,2020-08-10_10h17.04.291,lexical_decision_task_MP,2020.1.3,Win32,60,,0,-0.314341847,-0.28978389,1,0,0,1.097,button_left,1.097,1,,,,,,451,NW,UN,33,surden,CAINKY,z,,,,,,,-0.314341847,-0.28978389,1,0,0,,0,237,237,390,1,,
,,,,,,,,,,,,,,,,,,5f28854b5672311974ef3f3a,2020-08-10_10h17.04.291,lexical_decision_task_MP,2020.1.3,Win32,60,,0,-0.347740668,-0.2956778,1,0,0,0.813,button_left,0.813,1,,,,,,255,NW,UN,50,inlors,APIGHT,z,,,,,,,-0.347740668,-0.2956778,1,0,0,,0,238,238,434,1,,
,,,,,,,,,,,,,,,,,,5f28854b5672311974ef3f3a,2020-08-10_10h17.04.291,lexical_decision_task_MP,2020.1.3,Win32,60,,0,-0.36345776,-0.309430255,1,0,0,0.864,button_left,0.864,0,,,,,,181,WORD,UN,33,winter,GLANCE,m,,,,,,,-0.36345776,-0.309430255,1,0,0,,0,239,239,120,1,,
,,,,,,,,,,,,,,,,,,5f28854b5672311974ef3f3a,2020-08-10_10h17.04.291,lexical_decision_task_MP,2020.1.3,Win32,60,,0,0.310412574,-0.28388998,1,0,0,1.595,button_right,1.595,0,,,,,,343,NW,"ID",33,aimosy,AIMOSY,z,,,,,,,0.310412574,-0.28388998,1,0,0,,0,240,240,282,1,,
,,,,,,,,,,,,,,,,,,5f28854b5672311974ef3f3a,2020-08-10_10h17.04.291,lexical_decision_task_MP,2020.1.3,Win32,60,,0,0.31827112,-0.28388998,1,0,0,1.177,button_right,1.177,0,,,,,,432,NW,UN,33,drance,LUNKER,z,,,,,,,0.178781925,-0.28388998,0,0,0,space,0,241,241,371,1,,12.246
,,,,,,,,,,,,,,,,,,5f28854b5672311974ef3f3a,2020-08-10_10h17.04.291,lexical_decision_task_MP,2020.1.3,Win32,60,,0,,,,,,,,1.177,-1,,,,,,16,WORD,UN,50,charge,FAUCET,m,,,,,,,-0.298624754,-0.333005894,0,0,0,,0,242,242,195,1,,
,,,,,,,,,,,,,,,,,,5f28854b5672311974ef3f3a,2020-08-10_10h17.04.291,lexical_decision_task_MP,2020.1.3,Win32,60,,0,-0.308447937,-0.336935167,1,0,0,1.163,button_left,1.163,1,,,,,,261,NW,UN,50,quilew,STUNCH,z,,,,,,,-0.308447937,-0.336935167,1,0,0,,0,243,243,440,1,,
,,,,,,,,,,,,,,,,,,5f28854b5672311974ef3f3a,2020-08-10_10h17.04.291,lexical_decision_task_MP,2020.1.3,Win32,60,,0,-0.320235756,-0.327111984,1,0,0,0.729,button_left,0.729,1,,,,,,472,NW,UN,33,gorbie,CIGNEY,z,,,,,,,-0.320235756,-0.327111984,1,0,0,,0,244,244,411,1,,
,,,,,,,,,,,,,,,,,,5f28854b5672311974ef3f3a,2020-08-10_10h17.04.291,lexical_decision_task_MP,2020.1.3,Win32,60,,0,-0.320235756,-0.327111984,1,0,0,0.696,button_left,0.696,1,,,,,,399,NW,"ID",50,fouret,FOURET,z,,,,,,,-0.320235756,-0.327111984,1,0,0,,0,245,245,338,1,,
,,,,,,,,,,,,,,,,,,5f28854b5672311974ef3f3a,2020-08-10_10h17.04.291,lexical_decision_task_MP,2020.1.3,Win32,60,,0,-0.320235756,-0.327111984,1,0,0,0.715,button_left,0.715,1,,,,,,350,NW,"ID",33,nagurs,NAGURS,z,,,,,,,-0.320235756,-0.327111984,1,0,0,,0,246,246,289,1,,
,,,,,,,,,,,,,,,,,,5f28854b5672311974ef3f3a,2020-08-10_10h17.04.291,lexical_decision_task_MP,2020.1.3,Win32,60,,0,-0.320235756,-0.327111984,1,0,0,0.598,button_left,0.598,1,,,,,,398,NW,"ID",50,blunde,BLUNDE,z,,,,,,,-0.320235756,-0.327111984,1,0,0,,0,247,247,337,1,,
,,,,,,,,,,,,,,,,,,5f28854b5672311974ef3f3a,2020-08-10_10h17.04.291,lexical_decision_task_MP,2020.1.3,Win32,60,,0,0.402750491,-0.323182711,1,0,0,1.229,button_right,1.229,1,,,,,,19,WORD,UN,50,breast,PATRON,m,,,,,,,0.402750491,-0.323182711,1,0,0,,0,248,248,198,1,,
,,,,,,,,,,,,,,,,,,5f28854b5672311974ef3f3a,2020-08-10_10h17.04.291,lexical_decision_task_MP,2020.1.3,Win32,60,,0,0.404715128,-0.319253438,1,0,0,1.443,button_right,1.443,0,,,,,,294,NW,UN,50,gleath,INHORT,z,,,,,,,0.404715128,-0.319253438,1,0,0,,0,249,249,473,1,,
,,,,,,,,,,,,,,,,,,5f28854b5672311974ef3f3a,2020-08-10_10h17.04.291,lexical_decision_task_MP,2020.1.3,Win32,60,,0,0.347740668,-0.303536346,1,0,0,1.679,button_right,1.679,1,,,,,,65,WORD,"ID",33,symbol,SYMBOL,m,,,,,,,0.347740668,-0.303536346,1,0,0,,0,250,250,4,1,,
,,,,,,,,,,,,,,,,,,5f28854b5672311974ef3f3a,2020-08-10_10h17.04.291,lexical_decision_task_MP,2020.1.3,Win32,60,,0,-0.265225933,-0.268172888,1,0,0,1.597,button_left,1.597,0,,,,,,90,WORD,"ID",33,relish,RELISH,m,,,,,,,-0.265225933,-0.268172888,1,0,0,,0,251,251,29,1,,
,,,,,,,,,,,,,,,,,,5f28854b5672311974ef3f3a,2020-08-10_10h17.04.291,lexical_decision_task_MP,2020.1.3,Win32,60,,0,0.402750491,-0.236738703,1,0,0,1.332,button_right,1.332,1,,,,,,78,WORD,"ID",33,column,COLUMN,m,,,,,,,0.402750491,-0.236738703,1,0,0,,0,252,252,17,1,,
,,,,,,,,,,,,,,,,,,5f28854b5672311974ef3f3a,2020-08-10_10h17.04.291,lexical_decision_task_MP,2020.1.3,Win32,60,,0,-0.337917485,-0.315324165,1,0,0,1.613,button_left,1.613,1,,,,,,352,NW,"ID",33,tringe,TRINGE,z,,,,,,,-0.337917485,-0.315324165,1,0,0,,0,253,253,291,1,,
,,,,,,,,,,,,,,,,,,5f28854b5672311974ef3f3a,2020-08-10_10h17.04.291,lexical_decision_task_MP,2020.1.3,Win32,60,,0,-0.351669941,-0.299607073,1,0,0,1.129,button_left,1.129,1,,,,,,454,NW,UN,33,tondle,SCOUGE,z,,,,,,,-0.351669941,-0.299607073,1,0,0,,0,254,254,393,1,,
,,,,,,,,,,,,,,,,,,5f28854b5672311974ef3f3a,2020-08-10_10h17.04.291,lexical_decision_task_MP,2020.1.3,Win32,60,,0,0.449901768,-0.291748527,1,0,0,1.398,button_right,1.398,1,,,,,,141,WORD,"ID",50,orphan,ORPHAN,m,,,,,,,0.449901768,-0.291748527,1,0,0,,0,255,255,80,1,,
,,,,,,,,,,,,,,,,,,5f28854b5672311974ef3f3a,2020-08-10_10h17.04.291,lexical_decision_task_MP,2020.1.3,Win32,60,,0,-0.278978389,-0.276031434,1,0,0,1.363,button_left,1.363,1,,,,,,332,NW,"ID",33,vangue,VANGUE,z,,,,,,,-0.278978389,-0.276031434,1,0,0,,0,256,256,271,1,,
,,,,,,,,,,,,,,,,,,5f28854b5672311974ef3f3a,2020-08-10_10h17.04.291,lexical_decision_task_MP,2020.1.3,Win32,60,,0,-0.282907662,-0.276031434,1,0,0,0.934,button_left,0.934,1,,,,,,362,NW,"ID",50,tireau,TIREAU,z,,,,,,,-0.282907662,-0.276031434,1,0,0,,0,257,257,301,1,,
,,,,,,,,,,,,,,,,,,5f28854b5672311974ef3f3a,2020-08-10_10h17.04.291,lexical_decision_task_MP,2020.1.3,Win32,60,,0,-0.269155206,-0.285854617,1,0,0,0.781,button_left,0.781,0,,,,,,202,WORD,UN,33,phrase,FACTOR,m,,,,,,,-0.269155206,-0.285854617,1,0,0,,0,258,258,141,1,,
,,,,,,,,,,,,,,,,,,5f28854b5672311974ef3f3a,2020-08-10_10h17.04.291,lexical_decision_task_MP,2020.1.3,Win32,60,,0,0.326129666,-0.307465619,1,0,0,0.999,button_right,0.999,0,,,,,,419,NW,"ID",50,slount,SLOUNT,z,,,,,,,0.326129666,-0.307465619,1,0,0,,0,259,259,358,1,,
,,,,,,,,,,,,,,,,,,5f28854b5672311974ef3f3a,2020-08-10_10h17.04.291,lexical_decision_task_MP,2020.1.3,Win32,60,,0,0.308447937,-0.313359528,1,0,0,1.039,button_right,1.039,1,,,,,,204,WORD,UN,33,lounge,BURDEN,m,,,,,,,0.308447937,-0.313359528,1,0,0,,0,260,260,143,1,,
,,,,,,,,,,,,,,,,,,5f28854b5672311974ef3f3a,2020-08-10_10h17.04.291,lexical_decision_task_MP,2020.1.3,Win32,60,,0,0.31827112,-0.313359528,1,0,0,0.865,button_right,0.865,1,,,,,,31,WORD,UN,50,buckle,WEAPON,m,,,,,,,0.31827112,-0.313359528,1,0,0,,0,261,261,210,1,,
,,,,,,,,,,,,,,,,,,5f28854b5672311974ef3f3a,2020-08-10_10h17.04.291,lexical_decision_task_MP,2020.1.3,Win32,60,,0,0.306483301,-0.285854617,1,0,0,1.514,button_right,1.514,1,,,,,,99,WORD,"ID",33,fluent,FLUENT,m,,,,,,,0.306483301,-0.285854617,1,0,0,,0,262,262,38,1,,
,,,,,,,,,,,,,,,,,,5f28854b5672311974ef3f3a,2020-08-10_10h17.04.291,lexical_decision_task_MP,2020.1.3,Win32,60,,0,0.351669941,-0.285854617,1,0,0,1.497,button_right,1.497,0,,,,,,310,NW,"ID",33,daniet,DANIET,z,,,,,,,0.351669941,-0.285854617,1,0,0,,0,263,263,249,1,,
,,,,,,,,,,,,,,,,,,5f28854b5672311974ef3f3a,2020-08-10_10h17.04.291,lexical_decision_task_MP,2020.1.3,Win32,60,,0,-0.343811395,-0.301571709,1,0,0,1.397,button_left,1.397,1,,,,,,260,NW,UN,50,stunch,UNJECT,z,,,,,,,-0.343811395,-0.301571709,1,0,0,,0,264,264,439,1,,
,,,,,,,,,,,,,,,,,,5f28854b5672311974ef3f3a,2020-08-10_10h17.04.291,lexical_decision_task_MP,2020.1.3,Win32,60,,0,-0.459724951,-0.293713163,1,0,0,1.731,button_left,1.731,1,,,,,,245,NW,UN,50,piaton,ANOUGS,z,,,,,,,-0.459724951,-0.293713163,1,0,0,,0,265,265,424,1,,
,,,,,,,,,,,,,,,,,,5f28854b5672311974ef3f3a,2020-08-10_10h17.04.291,lexical_decision_task_MP,2020.1.3,Win32,60,,0,-0.36935167,-0.293713163,1,0,0,0.988,button_left,0.988,1,,,,,,463,NW,UN,33,chaite,KISPEL,z,,,,,,,-0.36935167,-0.293713163,1,0,0,,0,266,266,402,1,,
,,,,,,,,,,,,,,,,,,5f28854b5672311974ef3f3a,2020-08-10_10h17.04.291,lexical_decision_task_MP,2020.1.3,Win32,60,,0,-0.333988212,-0.287819253,1,0,0,0.815,button_left,0.815,1,,,,,,351,NW,"ID",33,tiesch,TIESCH,z,,,,,,,-0.333988212,-0.287819253,1,0,0,,0,267,267,290,1,,
,,,,,,,,,,,,,,,,,,5f28854b5672311974ef3f3a,2020-08-10_10h17.04.291,lexical_decision_task_MP,2020.1.3,Win32,60,,0,-0.282907662,-0.291748527,1,0,0,1.245,button_left,1.245,0,,,,,,13,WORD,UN,50,almost,STRIVE,m,,,,,,,-0.282907662,-0.291748527,1,0,0,,0,268,268,192,1,,
,,,,,,,,,,,,,,,,,,5f28854b5672311974ef3f3a,2020-08-10_10h17.04.291,lexical_decision_task_MP,2020.1.3,Win32,60,,0,0.365422397,-0.279960707,1,0,0,1.365,button_right,1.365,1,,,,,,60,WORD,UN,50,fright,PENCIL,m,,,,,,,0.365422397,-0.279960707,1,0,0,,0,269,269,239,1,,
,,,,,,,,,,,,,,,,,,5f28854b5672311974ef3f3a,2020-08-10_10h17.04.291,lexical_decision_task_MP,2020.1.3,Win32,60,,0,0.359528487,-0.303536346,1,0,0,0.915,button_right,0.915,1,,,,,,62,WORD,"ID",33,region,REGION,m,,,,,,,0.359528487,-0.303536346,1,0,0,,0,270,270,1,1,,
,,,,,,,,,,,,,,,,,,5f28854b5672311974ef3f3a,2020-08-10_10h17.04.291,lexical_decision_task_MP,2020.1.3,Win32,60,,0,0.406679764,-0.327111984,1,0,0,0.962,button_right,0.962,0,,,,,,406,NW,"ID",50,nouply,NOUPLY,z,,,,,,,0.406679764,-0.327111984,1,0,0,,0,271,271,345,1,,
,,,,,,,,,,,,,,,,,,5f28854b5672311974ef3f3a,2020-08-10_10h17.04.291,lexical_decision_task_MP,2020.1.3,Win32,60,,0,0.410609037,-0.33497053,1,0,0,0.847,button_right,0.847,1,,,,,,103,WORD,"ID",33,bounce,BOUNCE,m,,,,,,,0.410609037,-0.33497053,1,0,0,,0,272,272,42,1,,
,,,,,,,,,,,,,,,,,,5f28854b5672311974ef3f3a,2020-08-10_10h17.04.291,lexical_decision_task_MP,2020.1.3,Win32,60,,0,-0.351669941,-0.33497053,1,0,0,1.797,button_left,1.797,0,,,,,,114,WORD,"ID",33,placid,PLACID,m,,,,,,,-0.351669941,-0.33497053,1,0,0,,0,273,273,53,1,,
,,,,,,,,,,,,,,,,,,5f28854b5672311974ef3f3a,2020-08-10_10h17.04.291,lexical_decision_task_MP,2020.1.3,Win32,60,,0,-0.347740668,-0.315324165,1,0,0,1.097,button_left,1.097,1,,,,,,410,NW,"ID",50,tunory,TUNORY,z,,,,,,,-0.347740668,-0.315324165,1,0,0,,0,274,274,349,1,,
,,,,,,,,,,,,,,,,,,5f28854b5672311974ef3f3a,2020-08-10_10h17.04.291,lexical_decision_task_MP,2020.1.3,Win32,60,,0,-0.347740668,-0.315324165,1,0,0,0.731,button_left,0.731,1,,,,,,473,NW,UN,33,hablin,CRIBLE,z,,,,,,,-0.347740668,-0.315324165,1,0,0,,0,275,275,412,1,,
,,,,,,,,,,,,,,,,,,5f28854b5672311974ef3f3a,2020-08-10_10h17.04.291,lexical_decision_task_MP,2020.1.3,Win32,60,,0,-0.347740668,-0.315324165,1,0,0,0.847,button_left,0.847,1,,,,,,270,NW,UN,50,aubrid,WRIMSY,z,,,,,,,-0.347740668,-0.315324165,1,0,0,,0,276,276,449,1,,
,,,,,,,,,,,,,,,,,,5f28854b5672311974ef3f3a,2020-08-10_10h17.04.291,lexical_decision_task_MP,2020.1.3,Win32,60,,0,0.473477407,-0.28388998,1,0,0,1.33,button_right,1.33,1,,,,,,39,WORD,UN,50,convey,INSECT,m,,,,,,,0.473477407,-0.28388998,1,0,0,,0,277,277,218,1,,
,,,,,,,,,,,,,,,,,,5f28854b5672311974ef3f3a,2020-08-10_10h17.04.291,lexical_decision_task_MP,2020.1.3,Win32,60,,0,0.465618861,-0.28388998,1,0,0,0.813,button_right,0.813,1,,,,,,206,WORD,UN,33,wreath,TAILOR,m,,,,,,,0.465618861,-0.28388998,1,0,0,,0,278,278,145,1,,
,,,,,,,,,,,,,,,,,,5f28854b5672311974ef3f3a,2020-08-10_10h17.04.291,lexical_decision_task_MP,2020.1.3,Win32,60,,0,0.463654224,-0.285854617,1,0,0,0.895,button_right,0.895,1,,,,,,79,WORD,"ID",33,theory,THEORY,m,,,,,,,0.463654224,-0.285854617,1,0,0,,0,279,279,18,1,,
,,,,,,,,,,,,,,,,,,5f28854b5672311974ef3f3a,2020-08-10_10h17.04.291,lexical_decision_task_MP,2020.1.3,Win32,60,,0,0.461689587,-0.291748527,1,0,0,0.83,button_right,0.83,0,,,,,,405,NW,"ID",50,flumni,FLUMNI,z,,,,,,,0.461689587,-0.291748527,1,0,0,,0,280,280,344,1,,
,,,,,,,,,,,,,,,,,,5f28854b5672311974ef3f3a,2020-08-10_10h17.04.291,lexical_decision_task_MP,2020.1.3,Win32,60,,0,0.461689587,-0.291748527,1,0,0,0.743,button_right,0.743,1,,,,,,211,WORD,UN,33,verify,INFECT,m,,,,,,,0.461689587,-0.291748527,1,0,0,,0,281,281,150,1,,
,,,,,,,,,,,,,,,,,,5f28854b5672311974ef3f3a,2020-08-10_10h17.04.291,lexical_decision_task_MP,2020.1.3,Win32,60,,0,-0.304518664,-0.305500982,1,0,0,1.463,button_left,1.463,1,,,,,,480,NW,UN,33,knisma,ROBULY,z,,,,,,,-0.304518664,-0.305500982,1,0,0,,0,282,282,419,1,,
,,,,,,,,,,,,,,,,,,5f28854b5672311974ef3f3a,2020-08-10_10h17.04.291,lexical_decision_task_MP,2020.1.3,Win32,60,,0,,,,,,,,1.463,-1,,,,,,387,NW,"ID",50,gronce,GRONCE,z,,,,,,,-0.273084479,-0.319253438,0,0,0,,0,283,283,326,1,,
,,,,,,,,,,,,,,,,,,5f28854b5672311974ef3f3a,2020-08-10_10h17.04.291,lexical_decision_task_MP,2020.1.3,Win32,60,,0,-0.273084479,-0.319253438,1,0,0,1.098,button_left,1.098,1,,,,,,475,NW,UN,33,josted,PEBRIC,z,,,,,,,-0.273084479,-0.319253438,1,0,0,,0,284,284,414,1,,
,,,,,,,,,,,,,,,,,,5f28854b5672311974ef3f3a,2020-08-10_10h17.04.291,lexical_decision_task_MP,2020.1.3,Win32,60,,0,-0.273084479,-0.319253438,1,0,0,1.497,button_left,1.497,0,,,,,,121,WORD,"ID",50,thrive,THRIVE,m,,,,,,,-0.273084479,-0.319253438,1,0,0,,0,285,285,60,1,,
,,,,,,,,,,,,,,,,,,5f28854b5672311974ef3f3a,2020-08-10_10h17.04.291,lexical_decision_task_MP,2020.1.3,Win32,60,,0,0.286836935,-0.2956778,1,0,0,1.594,button_right,1.594,1,,,,,,149,WORD,"ID",50,invade,INVADE,m,,,,,,,0.286836935,-0.2956778,1,0,0,,0,286,286,88,1,,
,,,,,,,,,,,,,,,,,,5f28854b5672311974ef3f3a,2020-08-10_10h17.04.291,lexical_decision_task_MP,2020.1.3,Win32,60,,0,0.300589391,-0.315324165,1,0,0,1.177,button_right,1.177,1,,,,,,108,WORD,"ID",33,reckon,RECKON,m,,,,,,,0.300589391,-0.315324165,1,0,0,,0,287,287,47,1,,
,,,,,,,,,,,,,,,,,,5f28854b5672311974ef3f3a,2020-08-10_10h17.04.291,lexical_decision_task_MP,2020.1.3,Win32,60,,0,-0.31827112,-0.301571709,1,0,0,1.488,button_left,1.488,1,,,,,,381,NW,"ID",50,huniek,HUNIEK,z,,,,,,,-0.31827112,-0.301571709,1,0,0,,0,288,288,320,1,,
,,,,,,,,,,,,,,,,,,5f28854b5672311974ef3f3a,2020-08-10_10h17.04.291,lexical_decision_task_MP,2020.1.3,Win32,60,,0,0.314341847,-0.230844794,1,0,0,1.593,button_right,1.593,1,,,,,,84,WORD,"ID",33,mortal,MORTAL,m,,,,,,,0.314341847,-0.230844794,1,0,0,,0,289,289,23,1,,
,,,,,,,,,,,,,,,,,,5f28854b5672311974ef3f3a,2020-08-10_10h17.04.291,lexical_decision_task_MP,2020.1.3,Win32,60,,0,0.314341847,-0.272102161,1,0,0,0.817,button_right,0.817,1,,,,,,118,WORD,"ID",33,flight,FLIGHT,m,,,,,,,0.314341847,-0.272102161,1,0,0,,0,290,290,57,1,,
,,,,,,,,,,,,,,,,,,5f28854b5672311974ef3f3a,2020-08-10_10h17.04.291,lexical_decision_task_MP,2020.1.3,Win32,60,,0,-0.265225933,-0.309430255,1,0,0,1.578,button_left,1.578,1,,,,,,271,NW,UN,50,damilt,AUBRID,z,,,,,,,-0.265225933,-0.309430255,1,0,0,,0,291,291,450,1,,
,,,,,,,,,,,,,,,,,,5f28854b5672311974ef3f3a,2020-08-10_10h17.04.291,lexical_decision_task_MP,2020.1.3,Win32,60,,0,-0.249508841,-0.319253438,1,0,0,0.813,button_left,0.813,1,,,,,,326,NW,"ID",33,iguade,IGUADE,z,,,,,,,-0.249508841,-0.319253438,1,0,0,,0,292,292,265,1,,
,,,,,,,,,,,,,,,,,,5f28854b5672311974ef3f3a,2020-08-10_10h17.04.291,lexical_decision_task_MP,2020.1.3,Win32,60,,0,0.449901768,-0.299607073,1,0,0,1.246,button_right,1.246,1,,,,,,198,WORD,UN,33,invoke,WICKED,m,,,,,,,0.449901768,-0.299607073,1,0,0,,0,293,293,137,1,,
,,,,,,,,,,,,,,,,,,5f28854b5672311974ef3f3a,2020-08-10_10h17.04.291,lexical_decision_task_MP,2020.1.3,Win32,60,,0,0.322200393,-0.28388998,1,0,0,1.796,button_right,1.796,1,,,,,,226,WORD,UN,33,flower,CASINO,m,,,,,,,0.322200393,-0.28388998,1,0,0,,0,294,294,165,1,,
,,,,,,,,,,,,,,,,,,5f28854b5672311974ef3f3a,2020-08-10_10h17.04.291,lexical_decision_task_MP,2020.1.3,Win32,60,,0,0.337917485,-0.305500982,1,0,0,0.764,button_right,0.764,1,,,,,,33,WORD,UN,50,jungle,BUTLER,m,,,,,,,0.337917485,-0.305500982,1,0,0,,0,295,295,212,1,,
,,,,,,,,,,,,,,,,,,5f28854b5672311974ef3f3a,2020-08-10_10h17.04.291,lexical_decision_task_MP,2020.1.3,Win32,60,,0,-0.278978389,-0.311394892,1,0,0,1.678,button_left,1.678,1,,,,,,452,NW,UN,33,bolvis,SURDEN,z,,,,,,,-0.278978389,-0.311394892,1,0,0,,0,296,296,391,1,,
,,,,,,,,,,,,,,,,,,5f28854b5672311974ef3f3a,2020-08-10_10h17.04.291,lexical_decision_task_MP,2020.1.3,Win32,60,,0,-0.62475442,-0.327111984,1,0,0,1.542,button_left,1.542,1,,,,,,461,NW,UN,33,absult,JUSTRE,z,,,,,,,-0.502946955,-0.309430255,1,0,0,,0,297,297,400,1,,
,,,,,,,,,,,,,,,,,,5f28854b5672311974ef3f3a,2020-08-10_10h17.04.291,lexical_decision_task_MP,2020.1.3,Win32,60,,0,-0.392927308,-0.319253438,1,0,0,0.911,button_left,0.911,0,,,,,,63,WORD,"ID",33,launch,LAUNCH,m,,,,,,,-0.392927308,-0.319253438,1,0,0,,0,298,298,2,1,,
,,,,,,,,,,,,,,,,,,5f28854b5672311974ef3f3a,2020-08-10_10h17.04.291,lexical_decision_task_MP,2020.1.3,Win32,60,,0,0.36935167,-0.333005894,1,0,0,1.027,button_right,1.027,1,,,,,,148,WORD,"ID",50,custom,CUSTOM,m,,,,,,,0.36935167,-0.333005894,1,0,0,,0,299,299,87,1,,
,,,,,,,,,,,,,,,,,,5f28854b5672311974ef3f3a,2020-08-10_10h17.04.291,lexical_decision_task_MP,2020.1.3,Win32,60,,0,0.36935167,-0.333005894,1,0,0,0.816,button_right,0.816,0,,,,,,465,NW,UN,33,bafent,WHIVEX,z,,,,,,,0.36935167,-0.333005894,1,0,0,,0,300,300,404,1,,
,,,,,,,,,,,,,,,,,,5f28854b5672311974ef3f3a,2020-08-10_10h17.04.291,lexical_decision_task_MP,2020.1.3,Win32,60,,0,0.280943026,-0.279960707,1,0,0,0.918,button_right,0.918,1,,,,,,182,WORD,UN,33,absent,WINTER,m,,,,,,,0.280943026,-0.279960707,1,0,0,,0,301,301,121,1,,
,,,,,,,,,,,,,,,,,,5f28854b5672311974ef3f3a,2020-08-10_10h17.04.291,lexical_decision_task_MP,2020.1.3,Win32,60,,0,0.300589391,-0.279960707,1,0,0,0.697,button_right,0.697,1,,,,,,28,WORD,UN,50,sketch,COMEDY,m,,,,,,,0.300589391,-0.279960707,1,0,0,,0,302,302,207,1,,
,,,,,,,,,,,,,,,,,,5f28854b5672311974ef3f3a,2020-08-10_10h17.04.291,lexical_decision_task_MP,2020.1.3,Win32,60,,0,-0.326129666,-0.240667976,1,0,0,1.147,button_left,1.147,0,,,,,,85,WORD,"ID",33,sprawl,SPRAWL,m,,,,,,,-0.326129666,-0.240667976,1,0,0,,0,303,303,24,1,,
,,,,,,,,,,,,,,,,,,5f28854b5672311974ef3f3a,2020-08-10_10h17.04.291,lexical_decision_task_MP,2020.1.3,Win32,60,,0,0.31827112,-0.291748527,1,0,0,1.197,button_right,1.197,1,,,,,,23,WORD,UN,50,praise,WEALTH,m,,,,,,,0.31827112,-0.291748527,1,0,0,,0,304,304,202,1,,
,,,,,,,,,,,,,,,,,,5f28854b5672311974ef3f3a,2020-08-10_10h17.04.291,lexical_decision_task_MP,2020.1.3,Win32,60,,0,0.320235756,-0.291748527,1,0,0,1.215,button_right,1.215,1,,,,,,140,WORD,"ID",50,prince,PRINCE,m,,,,,,,0.320235756,-0.291748527,1,0,0,,0,305,305,79,1,,
,,,,,,,,,,,,,,,,,,5f28854b5672311974ef3f3a,2020-08-10_10h17.04.291,lexical_decision_task_MP,2020.1.3,Win32,60,,0,-0.245579568,-0.321218075,1,0,0,1.762,button_left,1.762,1,,,,,,263,NW,UN,50,vackel,DOLICA,z,,,,,,,-0.245579568,-0.321218075,1,0,0,,0,306,306,442,1,,
,,,,,,,,,,,,,,,,,,5f28854b5672311974ef3f3a,2020-08-10_10h17.04.291,lexical_decision_task_MP,2020.1.3,Win32,60,,0,-0.249508841,-0.323182711,1,0,0,0.997,button_left,0.997,1,,,,,,424,NW,UN,33,frudge,PRAILE,z,,,,,,,-0.249508841,-0.323182711,1,0,0,,0,307,307,363,1,,
,,,,,,,,,,,,,,,,,,5f28854b5672311974ef3f3a,2020-08-10_10h17.04.291,lexical_decision_task_MP,2020.1.3,Win32,60,,0,0.322200393,-0.317288802,1,0,0,1.179,button_right,1.179,1,,,,,,129,WORD,"ID",50,marvel,MARVEL,m,,,,,,,0.322200393,-0.317288802,1,0,0,,0,308,308,68,1,,
,,,,,,,,,,,,,,,,,,5f28854b5672311974ef3f3a,2020-08-10_10h17.04.291,lexical_decision_task_MP,2020.1.3,Win32,60,,0,0.333988212,-0.307465619,1,0,0,0.848,button_right,0.848,1,,,,,,96,WORD,"ID",33,ignore,IGNORE,m,,,,,,,0.333988212,-0.307465619,1,0,0,,0,309,309,35,1,,
,,,,,,,,,,,,,,,,,,5f28854b5672311974ef3f3a,2020-08-10_10h17.04.291,lexical_decision_task_MP,2020.1.3,Win32,60,,0,0.347740668,-0.368369352,1,0,0,0.895,button_right,0.895,1,,,,,,172,WORD,"ID",50,patrol,PATROL,m,,,,,,,0.347740668,-0.368369352,1,0,0,,0,310,310,111,1,,
,,,,,,,,,,,,,,,,,,5f28854b5672311974ef3f3a,2020-08-10_10h17.04.291,lexical_decision_task_MP,2020.1.3,Win32,60,,0,0.335952849,-0.338899804,1,0,0,0.813,button_right,0.813,1,,,,,,233,WORD,UN,33,clumsy,NATURE,m,,,,,,,0.335952849,-0.338899804,1,0,0,,0,311,311,172,1,,
,,,,,,,,,,,,,,,,,,5f28854b5672311974ef3f3a,2020-08-10_10h17.04.291,lexical_decision_task_MP,2020.1.3,Win32,60,,0,-0.306483301,-0.291748527,1,0,0,1.63,button_left,1.63,0,,,,,,234,WORD,UN,33,poster,CLUMSY,m,,,,,,,-0.306483301,-0.291748527,1,0,0,,0,312,312,173,1,,
,,,,,,,,,,,,,,,,,,5f28854b5672311974ef3f3a,2020-08-10_10h17.04.291,lexical_decision_task_MP,2020.1.3,Win32,60,,0,-0.377210216,-0.297642436,1,0,0,1.176,button_left,1.176,1,,,,,,298,NW,UN,50,sturch,PIERGY,z,,,,,,,-0.377210216,-0.297642436,1,0,0,,0,313,313,477,1,,
,,,,,,,,,,,,,,,,,,5f28854b5672311974ef3f3a,2020-08-10_10h17.04.291,lexical_decision_task_MP,2020.1.3,Win32,60,,0,0.335952849,-0.268172888,1,0,0,1.114,button_right,1.114,1,,,,,,228,WORD,UN,33,kidney,MASTER,m,,,,,,,0.335952849,-0.268172888,1,0,0,,0,314,314,167,1,,
,,,,,,,,,,,,,,,,,,5f28854b5672311974ef3f3a,2020-08-10_10h17.04.291,lexical_decision_task_MP,2020.1.3,Win32,60,,0,0.335952849,-0.268172888,1,0,0,0.98,button_right,0.98,1,,,,,,193,WORD,UN,33,mildew,OBJECT,m,,,,,,,0.335952849,-0.268172888,1,0,0,,0,315,315,132,1,,
,,,,,,,,,,,,,,,,,,5f28854b5672311974ef3f3a,2020-08-10_10h17.04.291,lexical_decision_task_MP,2020.1.3,Win32,60,,0,0.335952849,-0.268172888,1,0,0,0.796,button_right,0.796,1,,,,,,73,WORD,"ID",33,source,SOURCE,m,,,,,,,0.335952849,-0.268172888,1,0,0,,0,316,316,12,1,,
,,,,,,,,,,,,,,,,,,5f28854b5672311974ef3f3a,2020-08-10_10h17.04.291,lexical_decision_task_MP,2020.1.3,Win32,60,,0,-0.310412574,-0.258349705,1,0,0,1.864,button_left,1.864,1,,,,,,464,NW,UN,33,whivex,CHAITE,z,,,,,,,-0.310412574,-0.258349705,1,0,0,,0,317,317,403,1,,
,,,,,,,,,,,,,,,,,,5f28854b5672311974ef3f3a,2020-08-10_10h17.04.291,lexical_decision_task_MP,2020.1.3,Win32,60,,0,0.37524558,-0.276031434,1,0,0,1.298,button_right,1.298,1,,,,,,89,WORD,"ID",33,permit,PERMIT,m,,,,,,,0.37524558,-0.276031434,1,0,0,,0,318,318,28,1,,
,,,,,,,,,,,,,,,,,,5f28854b5672311974ef3f3a,2020-08-10_10h17.04.291,lexical_decision_task_MP,2020.1.3,Win32,60,,0,-0.31237721,-0.309430255,1,0,0,1.614,button_left,1.614,1,,,,,,339,NW,"ID",33,fachow,FACHOW,z,,,,,,,-0.31237721,-0.309430255,1,0,0,,0,319,319,278,1,,
,,,,,,,,,,,,,,,,,,5f28854b5672311974ef3f3a,2020-08-10_10h17.04.291,lexical_decision_task_MP,2020.1.3,Win32,60,,0,-0.365422397,-0.327111984,1,0,0,1.13,button_left,1.13,1,,,,,,390,NW,"ID",50,hatrus,HATRUS,z,,,,,,,-0.365422397,-0.327111984,1,0,0,,0,320,320,329,1,,
,,,,,,,,,,,,,,,,,,5f28854b5672311974ef3f3a,2020-08-10_10h17.04.291,lexical_decision_task_MP,2020.1.3,Win32,60,,0,-0.339882122,-0.331041257,1,0,0,1.696,button_left,1.696,1,,,,,,393,NW,"ID",50,ganous,GANOUS,z,,,,,,,-0.339882122,-0.331041257,1,0,0,,0,321,321,332,1,,
,,,,,,,,,,,,,,,,,,5f28854b5672311974ef3f3a,2020-08-10_10h17.04.291,lexical_decision_task_MP,2020.1.3,Win32,60,,0,0.335952849,-0.323182711,1,0,0,1.18,button_right,1.18,1,,,,,,53,WORD,UN,50,ramble,POLICE,m,,,,,,,0.335952849,-0.323182711,1,0,0,,0,322,322,232,1,,
,,,,,,,,,,,,,,,,,,5f28854b5672311974ef3f3a,2020-08-10_10h17.04.291,lexical_decision_task_MP,2020.1.3,Win32,60,,0,0.337917485,-0.319253438,1,0,0,0.646,button_right,0.646,1,,,,,,210,WORD,UN,33,infect,MONKEY,m,,,,,,,0.337917485,-0.319253438,1,0,0,,0,323,323,149,1,,
,,,,,,,,,,,,,,,,,,5f28854b5672311974ef3f3a,2020-08-10_10h17.04.291,lexical_decision_task_MP,2020.1.3,Win32,60,,0,0.337917485,-0.319253438,1,0,0,0.927,button_right,0.927,1,,,,,,161,WORD,"ID",50,pastor,PASTOR,m,,,,,,,0.337917485,-0.319253438,1,0,0,,0,324,324,100,1,,
,,,,,,,,,,,,,,,,,,5f28854b5672311974ef3f3a,2020-08-10_10h17.04.291,lexical_decision_task_MP,2020.1.3,Win32,60,,0,0.461689587,-0.366404715,1,0,0,1.367,button_right,1.367,1,,,,,,137,WORD,"ID",50,finger,FINGER,m,,,,,,,0.461689587,-0.366404715,1,0,0,,0,325,325,76,1,,
,,,,,,,,,,,,,,,,,,5f28854b5672311974ef3f3a,2020-08-10_10h17.04.291,lexical_decision_task_MP,2020.1.3,Win32,60,,0,-0.31827112,-0.264243615,1,0,0,1.212,button_left,1.212,1,,,,,,285,NW,UN,50,reldon,PRUDGE,z,,,,,,,-0.31827112,-0.264243615,1,0,0,,0,326,326,464,1,,
,,,,,,,,,,,,,,,,,,5f28854b5672311974ef3f3a,2020-08-10_10h17.04.291,lexical_decision_task_MP,2020.1.3,Win32,60,,0,-0.290766208,-0.250491159,1,0,0,0.946,button_left,0.946,1,,,,,,291,NW,UN,50,ablint,PRETCH,z,,,,,,,-0.290766208,-0.250491159,1,0,0,,0,327,327,470,1,,
,,,,,,,,,,,,,,,,,,5f28854b5672311974ef3f3a,2020-08-10_10h17.04.291,lexical_decision_task_MP,2020.1.3,Win32,60,,0,-0.288801572,-0.287819253,1,0,0,1.181,button_left,1.181,0,,,,,,142,WORD,"ID",50,spruce,SPRUCE,m,,,,,,,-0.288801572,-0.287819253,1,0,0,,0,328,328,81,1,,
,,,,,,,,,,,,,,,,,,5f28854b5672311974ef3f3a,2020-08-10_10h17.04.291,lexical_decision_task_MP,2020.1.3,Win32,60,,0,0.359528487,-0.28388998,1,0,0,1.279,button_right,1.279,1,,,,,,188,WORD,UN,33,censor,SOCIAL,m,,,,,,,0.359528487,-0.28388998,1,0,0,,0,329,329,127,1,,
,,,,,,,,,,,,,,,,,,5f28854b5672311974ef3f3a,2020-08-10_10h17.04.291,lexical_decision_task_MP,2020.1.3,Win32,60,,0,0.359528487,-0.28388998,1,0,0,0.899,button_right,0.899,1,,,,,,231,WORD,UN,33,inject,EXPORT,m,,,,,,,0.359528487,-0.28388998,1,0,0,,0,330,330,170,1,,
,,,,,,,,,,,,,,,,,,5f28854b5672311974ef3f3a,2020-08-10_10h17.04.291,lexical_decision_task_MP,2020.1.3,Win32,60,,0,0.359528487,-0.28388998,1,0,0,1.048,button_right,1.048,1,,,,,,124,WORD,"ID",50,blouse,BLOUSE,m,,,,,,,0.359528487,-0.28388998,1,0,0,,0,331,331,63,1,,
,,,,,,,,,,,,,,,,,,5f28854b5672311974ef3f3a,2020-08-10_10h17.04.291,lexical_decision_task_MP,2020.1.3,Win32,60,,0,0.359528487,-0.28388998,1,0,0,0.741,button_right,0.741,1,,,,,,21,WORD,UN,50,jockey,SIMPLE,m,,,,,,,0.359528487,-0.28388998,1,0,0,,0,332,332,200,1,,
,,,,,,,,,,,,,,,,,,5f28854b5672311974ef3f3a,2020-08-10_10h17.04.291,lexical_decision_task_MP,2020.1.3,Win32,60,,0,-0.371316306,-0.279960707,1,0,0,1.444,button_left,1.444,1,,,,,,315,NW,"ID",33,laston,LASTON,z,,,,,,,-0.371316306,-0.279960707,1,0,0,,0,333,333,254,1,,
,,,,,,,,,,,,,,,,,,5f28854b5672311974ef3f3a,2020-08-10_10h17.04.291,lexical_decision_task_MP,2020.1.3,Win32,60,,0,0.292730845,-0.315324165,1,0,0,1.079,button_right,1.079,0,,,,,,383,NW,"ID",50,aungre,AUNGRE,z,,,,,,,0.292730845,-0.315324165,1,0,0,,0,334,334,322,1,,
,,,,,,,,,,,,,,,,,,5f28854b5672311974ef3f3a,2020-08-10_10h17.04.291,lexical_decision_task_MP,2020.1.3,Win32,60,,0,0.306483301,-0.293713163,1,0,0,1.662,button_right,1.662,1,,,,,,36,WORD,UN,50,insult,VANISH,m,,,,,,,0.306483301,-0.293713163,1,0,0,,0,335,335,215,1,,
,,,,,,,,,,,,,,,,,,5f28854b5672311974ef3f3a,2020-08-10_10h17.04.291,lexical_decision_task_MP,2020.1.3,Win32,60,,0,0.308447937,-0.293713163,1,0,0,0.979,button_right,0.979,1,,,,,,18,WORD,UN,50,patron,HUMBLE,m,,,,,,,0.308447937,-0.293713163,1,0,0,,0,336,336,197,1,,
,,,,,,,,,,,,,,,,,,5f28854b5672311974ef3f3a,2020-08-10_10h17.04.291,lexical_decision_task_MP,2020.1.3,Win32,60,,0,-0.506876228,-0.301571709,1,0,0,1.347,button_left,1.347,1,,,,,,336,NW,"ID",33,ghodus,GHODUS,z,,,,,,,-0.506876228,-0.301571709,1,0,0,,0,337,337,275,1,,
,,,,,,,,,,,,,,,,,,5f28854b5672311974ef3f3a,2020-08-10_10h17.04.291,lexical_decision_task_MP,2020.1.3,Win32,60,,0,-0.428290766,-0.325147348,1,0,0,1.281,button_left,1.281,1,,,,,,330,NW,"ID",33,kensom,KENSOM,z,,,,,,,-0.428290766,-0.325147348,1,0,0,,0,338,338,269,1,,
,,,,,,,,,,,,,,,,,,5f28854b5672311974ef3f3a,2020-08-10_10h17.04.291,lexical_decision_task_MP,2020.1.3,Win32,60,,0,-0.330058939,-0.305500982,1,0,0,1.364,button_left,1.364,1,,,,,,241,NW,UN,50,unwert,SMENCO,z,,,,,,,-0.330058939,-0.305500982,1,0,0,,0,339,339,420,1,,
,,,,,,,,,,,,,,,,,,5f28854b5672311974ef3f3a,2020-08-10_10h17.04.291,lexical_decision_task_MP,2020.1.3,Win32,60,,0,-0.330058939,-0.305500982,1,0,0,0.716,button_left,0.716,1,,,,,,262,NW,UN,50,dolica,QUILEW,z,,,,,,,-0.330058939,-0.305500982,1,0,0,,0,340,340,441,1,,
,,,,,,,,,,,,,,,,,,5f28854b5672311974ef3f3a,2020-08-10_10h17.04.291,lexical_decision_task_MP,2020.1.3,Win32,60,,0,-0.330058939,-0.305500982,1,0,0,0.646,button_left,0.646,1,,,,,,356,NW,"ID",33,othnis,OTHNIS,z,,,,,,,-0.330058939,-0.305500982,1,0,0,,0,341,341,295,1,,
,,,,,,,,,,,,,,,,,,5f28854b5672311974ef3f3a,2020-08-10_10h17.04.291,lexical_decision_task_MP,2020.1.3,Win32,60,,0,-0.330058939,-0.309430255,1,0,0,1.78,button_left,1.78,1,,,,,,333,NW,"ID",33,catrie,CATRIE,z,,,,,,,-0.330058939,-0.309430255,1,0,0,,0,342,342,272,1,,
,,,,,,,,,,,,,,,,,,5f28854b5672311974ef3f3a,2020-08-10_10h17.04.291,lexical_decision_task_MP,2020.1.3,Win32,60,,0,0.237721022,-0.309430255,1,0,0,1.163,button_right,1.163,1,,,,,,197,WORD,UN,33,wicked,STREAM,m,,,,,,,0.237721022,-0.309430255,1,0,0,,0,343,343,136,1,,
,,,,,,,,,,,,,,,,,,5f28854b5672311974ef3f3a,2020-08-10_10h17.04.291,lexical_decision_task_MP,2020.1.3,Win32,60,,0,0.257367387,-0.309430255,1,0,0,0.848,button_right,0.848,1,,,,,,167,WORD,"ID",50,design,DESIGN,m,,,,,,,0.257367387,-0.309430255,1,0,0,,0,344,344,106,1,,
,,,,,,,,,,,,,,,,,,5f28854b5672311974ef3f3a,2020-08-10_10h17.04.291,lexical_decision_task_MP,2020.1.3,Win32,60,,0,-0.31237721,-0.287819253,1,0,0,1.896,button_left,1.896,1,,,,,,409,NW,"ID",50,elopia,ELOPIA,z,,,,,,,-0.31237721,-0.287819253,1,0,0,,0,345,345,348,1,,
,,,,,,,,,,,,,,,,,,5f28854b5672311974ef3f3a,2020-08-10_10h17.04.291,lexical_decision_task_MP,2020.1.3,Win32,60,,0,0.332023576,-0.336935167,1,0,0,1.479,button_right,1.479,1,,,,,,166,WORD,"ID",50,starch,STARCH,m,,,,,,,0.332023576,-0.336935167,1,0,0,,0,346,346,105,1,,
,,,,,,,,,,,,,,,,,,5f28854b5672311974ef3f3a,2020-08-10_10h17.04.291,lexical_decision_task_MP,2020.1.3,Win32,60,,0,0.339882122,-0.331041257,1,0,0,1.014,button_right,1.014,1,,,,,,199,WORD,UN,33,plague,INVOKE,m,,,,,,,0.339882122,-0.331041257,1,0,0,,0,347,347,138,1,,
,,,,,,,,,,,,,,,,,,5f28854b5672311974ef3f3a,2020-08-10_10h17.04.291,lexical_decision_task_MP,2020.1.3,Win32,60,,0,0.343811395,-0.331041257,1,0,0,0.981,button_right,0.981,1,,,,,,76,WORD,"ID",33,exotic,EXOTIC,m,,,,,,,0.343811395,-0.331041257,1,0,0,,0,348,348,15,1,,
,,,,,,,,,,,,,,,,,,5f28854b5672311974ef3f3a,2020-08-10_10h17.04.291,lexical_decision_task_MP,2020.1.3,Win32,60,,0,-0.330058939,-0.313359528,1,0,0,1.247,button_left,1.247,1,,,,,,453,NW,UN,33,scouge,BOLVIS,z,,,,,,,-0.330058939,-0.313359528,1,0,0,,0,349,349,392,1,,
,,,,,,,,,,,,,,,,,,5f28854b5672311974ef3f3a,2020-08-10_10h17.04.291,lexical_decision_task_MP,2020.1.3,Win32,60,,0,-0.330058939,-0.313359528,1,0,0,1.363,button_left,1.363,0,,,,,,102,WORD,"ID",33,direct,DIRECT,m,,,,,,,-0.330058939,-0.313359528,1,0,0,,0,350,350,41,1,,
,,,,,,,,,,,,,,,,,,5f28854b5672311974ef3f3a,2020-08-10_10h17.04.291,lexical_decision_task_MP,2020.1.3,Win32,60,,0,0.339882122,-0.313359528,1,0,0,1.291,button_right,1.291,1,,,,,,82,WORD,"ID",33,stigma,STIGMA,m,,,,,,,0.339882122,-0.313359528,1,0,0,,0,351,351,21,1,,
,,,,,,,,,,,,,,,,,,5f28854b5672311974ef3f3a,2020-08-10_10h17.04.291,lexical_decision_task_MP,2020.1.3,Win32,60,,0,-0.278978389,-0.256385069,1,0,0,1.913,button_left,1.913,1,,,,,,253,NW,UN,50,varosh,RESAIT,z,,,,,,,-0.278978389,-0.256385069,1,0,0,,0,352,352,432,1,,
,,,,,,,,,,,,,,,,,,5f28854b5672311974ef3f3a,2020-08-10_10h17.04.291,lexical_decision_task_MP,2020.1.3,Win32,60,,0,-0.284872299,-0.256385069,1,0,0,1.493,button_left,1.493,1,,,,,,415,NW,"ID",50,higsta,HIGSTA,z,,,,,,,-0.284872299,-0.256385069,1,0,0,,0,353,353,354,1,,
,,,,,,,,,,,,,,,,,,5f28854b5672311974ef3f3a,2020-08-10_10h17.04.291,lexical_decision_task_MP,2020.1.3,Win32,60,,0,0.361493124,-0.256385069,1,0,0,1.146,button_right,1.146,1,,,,,,201,WORD,UN,33,factor,ADMIRE,m,,,,,,,0.361493124,-0.256385069,1,0,0,,0,354,354,140,1,,
,,,,,,,,,,,,,,,,,,5f28854b5672311974ef3f3a,2020-08-10_10h17.04.291,lexical_decision_task_MP,2020.1.3,Win32,60,,0,0.361493124,-0.256385069,1,0,0,1.041,button_right,1.041,1,,,,,,155,WORD,"ID",50,lizard,LIZARD,m,,,,,,,0.361493124,-0.256385069,1,0,0,,0,355,355,94,1,,
,,,,,,,,,,,,,,,,,,5f28854b5672311974ef3f3a,2020-08-10_10h17.04.291,lexical_decision_task_MP,2020.1.3,Win32,60,,0,0.357563851,-0.274066798,1,0,0,0.813,button_right,0.813,1,,,,,,41,WORD,UN,50,chapel,SPRING,m,,,,,,,0.357563851,-0.274066798,1,0,0,,0,356,356,220,1,,
,,,,,,,,,,,,,,,,,,5f28854b5672311974ef3f3a,2020-08-10_10h17.04.291,lexical_decision_task_MP,2020.1.3,Win32,60,,0,0.357563851,-0.274066798,1,0,0,0.996,button_right,0.996,1,,,,,,165,WORD,"ID",50,invest,INVEST,m,,,,,,,0.357563851,-0.274066798,1,0,0,,0,357,357,104,1,,
,,,,,,,,,,,,,,,,,,5f28854b5672311974ef3f3a,2020-08-10_10h17.04.291,lexical_decision_task_MP,2020.1.3,Win32,60,,0,-0.290766208,-0.311394892,1,0,0,1.346,button_left,1.346,1,,,,,,361,NW,"ID",50,pauche,PAUCHE,z,,,,,,,-0.290766208,-0.311394892,1,0,0,,0,358,358,300,1,,
,,,,,,,,,,,,,,,,,,5f28854b5672311974ef3f3a,2020-08-10_10h17.04.291,lexical_decision_task_MP,2020.1.3,Win32,60,,0,-0.473477407,-0.266208251,1,0,0,1.245,button_left,1.245,1,,,,,,474,NW,UN,33,acrise,HABLIN,z,,,,,,,-0.473477407,-0.266208251,1,0,0,,0,359,359,413,1,,
,,,,,,,,,,,,,,,,,,5f28854b5672311974ef3f3a,2020-08-10_10h17.04.291,lexical_decision_task_MP,2020.1.3,Win32,60,,0,0.316306483,-0.268172888,1,0,0,1.496,button_right,1.496,1,,,,,,229,WORD,UN,33,fringe,MOTHER,m,,,,,,,0.316306483,-0.268172888,1,0,0,,0,360,360,168,1,,
,,,,,,,,,,,,,,,,,,5f28854b5672311974ef3f3a,2020-08-10_10h17.04.291,lexical_decision_task_MP,2020.1.3,Win32,60,,0,0.298624754,-0.342829077,1,0,0,0.732,button_right,0.732,1,,,,,,146,WORD,"ID",50,couple,COUPLE,m,,,,,,,0.298624754,-0.342829077,1,0,0,,0,361,361,85,1,,
,,,,,,,,,,,,,,,,,,5f28854b5672311974ef3f3a,2020-08-10_10h17.04.291,lexical_decision_task_MP,2020.1.3,Win32,60,,0,0.300589391,-0.344793713,1,0,0,1.279,button_right,1.279,1,,,,,,203,WORD,UN,33,burden,PHRASE,m,,,,,,,0.104125737,-0.386051081,1,0,0,,0,362,362,142,1,break_done_button,
,,,,,,,,,,,,,,,,,,5f28854b5672311974ef3f3a,2020-08-10_10h17.04.291,lexical_decision_task_MP,2020.1.3,Win32,60,,0,0.442043222,-0.260314342,1,0,0,1.775,button_right,1.775,1,,,,,,92,WORD,"ID",33,strand,STRAND,m,,,,,,,0.442043222,-0.260314342,1,0,0,,0,363,363,31,1,,
