counterbalancing_condition,instr_done_keyboard.keys,instr_done_keyboard.rt,instr_done_touch.x,instr_done_touch.y,instr_done_touch.leftButton,instr_done_touch.midButton,instr_done_touch.rightButton,instruction_pages.thisRepN,instruction_pages.thisTrialN,instruction_pages.thisN,instruction_pages.thisIndex,instruction_pages.ran,pageN,phase,instruct_text,has_image,instruct_image,participant,date,expName,psychopyVersion,OS,frameRate,response.keys,response.corr,response.rt,touch_resp.x,touch_resp.y,touch_resp.leftButton,touch_resp.midButton,touch_resp.rightButton,touch_resp.time,touch_resp.clicked_name,rt,corr,practice_trials.thisRepN,practice_trials.thisTrialN,practice_trials.thisN,practice_trials.thisIndex,practice_trials.ran,TrialID,StimulusType,Condition,PrimeDuration,Prime,Target,corrAns,end_of_practice_trials_pages.thisRepN,end_of_practice_trials_pages.thisTrialN,end_of_practice_trials_pages.thisN,end_of_practice_trials_pages.thisIndex,end_of_practice_trials_pages.ran,break_done_touch.x,break_done_touch.y,break_done_touch.leftButton,break_done_touch.midButton,break_done_touch.rightButton,break_done_keyboard.keys,trials.thisRepN,trials.thisTrialN,trials.thisN,trials.thisIndex,trials.ran,break_done_keyboard.rt
1,space,16.67339,0.133193359,-0.240859375,0,0,0,0,0,0,0,1,1,instructions,"INSTRUCTIONS
At the start of each trial, look at the hash marks (######) in the center of the screen. After a moment, a string of letters will appear. Your task is to indicate if the letter string forms a word or not (i.e., if it is a nonword). For example, AUTHOR is a word while AUTHON is a nonword.

Press the space bar or touch the button below to continue.",0,,5f2aed37c08ef8437c72aa73,2020-08-10_16h04.39.001,lexical_decision_task_MP,2020.1.3,MacIntel,60,,,,,,,,,,,,,,,,,,,,,,,,,,,,,,,,,,,,,,,,,
,space,9.2818,0.133193359,-0.240859375,0,0,0,0,1,1,1,1,2,instructions,"If your device has a keyboard, press the 'Z' key for nonwords and the 'M' key for words.





Press the space bar or touch the button below to continue.",1,keyboard-example.gif,5f2aed37c08ef8437c72aa73,2020-08-10_16h04.39.001,lexical_decision_task_MP,2020.1.3,MacIntel,60,,,,,,,,,,,,,,,,,,,,,,,,,,,,,,,,,,,,,,,,,
,space,8.274275,0.133193359,-0.240859375,0,0,0,0,2,2,2,1,3,instructions,"If you are using a touchscreen only device, use the buttons on the screen. Do not use the mouse.





Press the space bar or touch the button below to continue.",1,touchscreen-example.gif,5f2aed37c08ef8437c72aa73,2020-08-10_16h04.39.001,lexical_decision_task_MP,2020.1.3,MacIntel,60,,,,,,,,,,,,,,,,,,,,,,,,,,,,,,,,,,,,,,,,,
,space,14.519055,0.133193359,-0.240859375,0,0,0,0,3,3,3,1,4,instructions,"It is very important that you respond as quickly and accurately as possible, as each letter string will only be on the screen for two seconds. If you do not respond within this time, the message 'Too slow!' will be displayed and the experiment will progress to the next letter string. The first 20 trials will be practice trials and you will receive feedback on your answers. 

Press the space bar or touch the button below to start the practice trials.",0,,5f2aed37c08ef8437c72aa73,2020-08-10_16h04.39.001,lexical_decision_task_MP,2020.1.3,MacIntel,60,,,,,,,,,,,,,,,,,,,,,,,,,,,,,,,,,,,,,,,,,
,,,,,,,,,,,,,,,,,,5f2aed37c08ef8437c72aa73,2020-08-10_16h04.39.001,lexical_decision_task_MP,2020.1.3,MacIntel,60,m,0,0.51562,,,,,,,,0.51562,0,0,0,0,10,1,1011,NW,"ID",50,inlade,INLADE,z,,,,,,,,,,,,,,,,,
,,,,,,,,,,,,,,,,,,5f2aed37c08ef8437c72aa73,2020-08-10_16h04.39.001,lexical_decision_task_MP,2020.1.3,MacIntel,60,m,1,0.51543,,,,,,,,0.51543,1,0,1,1,4,1,1005,WORD,UN,33,abound,SQUEAK,m,,,,,,,,,,,,,,,,,
,,,,,,,,,,,,,,,,,,5f2aed37c08ef8437c72aa73,2020-08-10_16h04.39.001,lexical_decision_task_MP,2020.1.3,MacIntel,60,m,0,0.74854,,,,,,,,0.74854,0,0,2,2,8,1,1009,NW,"ID",33,aslert,ASLERT,z,,,,,,,,,,,,,,,,,
,,,,,,,,,,,,,,,,,,5f2aed37c08ef8437c72aa73,2020-08-10_16h04.39.001,lexical_decision_task_MP,2020.1.3,MacIntel,60,z,1,1.083635,,,,,,,,1.083635,1,0,3,3,12,1,1013,NW,UN,33,adveil,SPRINY,z,,,,,,,,,,,,,,,,,
,,,,,,,,,,,,,,,,,,5f2aed37c08ef8437c72aa73,2020-08-10_16h04.39.001,lexical_decision_task_MP,2020.1.3,MacIntel,60,z,1,0.950385,,,,,,,,0.950385,1,0,4,4,15,1,1016,NW,UN,50,mushed,WHAISE,z,,,,,,,,,,,,,,,,,
,,,,,,,,,,,,,,,,,,5f2aed37c08ef8437c72aa73,2020-08-10_16h04.39.001,lexical_decision_task_MP,2020.1.3,MacIntel,60,m,1,0.600065,,,,,,,,0.600065,1,0,5,5,2,1,1003,WORD,"ID",50,almond,ALMOND,m,,,,,,,,,,,,,,,,,
,,,,,,,,,,,,,,,,,,5f2aed37c08ef8437c72aa73,2020-08-10_16h04.39.001,lexical_decision_task_MP,2020.1.3,MacIntel,60,m,1,0.72111,,,,,,,,0.72111,1,0,6,6,6,1,1007,WORD,UN,50,tropic,ZOMBIE,m,,,,,,,,,,,,,,,,,
,,,,,,,,,,,,,,,,,,5f2aed37c08ef8437c72aa73,2020-08-10_16h04.39.001,lexical_decision_task_MP,2020.1.3,MacIntel,60,m,1,0.485835,,,,,,,,0.485835,1,0,7,7,7,1,1008,WORD,UN,50,hurdle,VOLUME,m,,,,,,,,,,,,,,,,,
,,,,,,,,,,,,,,,,,,5f2aed37c08ef8437c72aa73,2020-08-10_16h04.39.001,lexical_decision_task_MP,2020.1.3,MacIntel,60,z,1,0.701505,,,,,,,,0.701505,1,0,8,8,13,1,1014,NW,UN,33,winfer,ROUPET,z,,,,,,,,,,,,,,,,,
,,,,,,,,,,,,,,,,,,5f2aed37c08ef8437c72aa73,2020-08-10_16h04.39.001,lexical_decision_task_MP,2020.1.3,MacIntel,60,m,1,0.735015,,,,,,,,0.735015,1,0,9,9,0,1,1001,WORD,"ID",33,utopia,UTOPIA,m,,,,,,,,,,,,,,,,,
,,,,,,,,,,,,,,,,,,5f2aed37c08ef8437c72aa73,2020-08-10_16h04.39.001,lexical_decision_task_MP,2020.1.3,MacIntel,60,m,1,0.517885,,,,,,,,0.517885,1,0,10,10,1,1,1002,WORD,"ID",33,adjust,ADJUST,m,,,,,,,,,,,,,,,,,
,,,,,,,,,,,,,,,,,,5f2aed37c08ef8437c72aa73,2020-08-10_16h04.39.001,lexical_decision_task_MP,2020.1.3,MacIntel,60,z,1,0.60075,,,,,,,,0.60075,1,0,11,11,11,1,1012,NW,"ID",50,rashet,RASHET,z,,,,,,,,,,,,,,,,,
,,,,,,,,,,,,,,,,,,5f2aed37c08ef8437c72aa73,2020-08-10_16h04.39.001,lexical_decision_task_MP,2020.1.3,MacIntel,60,m,1,0.5643,,,,,,,,0.5643,1,0,12,12,5,1,1006,WORD,UN,33,frenzy,OBTAIN,m,,,,,,,,,,,,,,,,,
,,,,,,,,,,,,,,,,,,5f2aed37c08ef8437c72aa73,2020-08-10_16h04.39.001,lexical_decision_task_MP,2020.1.3,MacIntel,60,m,1,0.47058,,,,,,,,0.47058,1,0,13,13,3,1,1004,WORD,"ID",50,matrix,MATRIX,m,,,,,,,,,,,,,,,,,
,,,,,,,,,,,,,,,,,,5f2aed37c08ef8437c72aa73,2020-08-10_16h04.39.001,lexical_decision_task_MP,2020.1.3,MacIntel,60,z,1,0.666205,,,,,,,,0.666205,1,0,14,14,9,1,1010,NW,"ID",33,fariny,FARINY,z,,,,,,,,,,,,,,,,,
,,,,,,,,,,,,,,,,,,5f2aed37c08ef8437c72aa73,2020-08-10_16h04.39.001,lexical_decision_task_MP,2020.1.3,MacIntel,60,z,1,0.6666,,,,,,,,0.6666,1,0,15,15,14,1,1015,NW,UN,50,miaber,THRALE,z,,,,,,,,,,,,,,,,,
,space,16.802895,0.064853516,-0.390219727,0,0,0,,,,,,1,end_of_practice,"You have completed the practice trials. During the experimental trials, you will not receive feedback, but it is very important that you respond as quickly and accurately as possible. 
Before you begin, please ensure that you are in a comfortable and quiet location and will not be disturbed for about 15 minutes, as we cannot use your data if you do not complete all the trials. 
There will be opportunities to take breaks at regular intervals during the experiment. When you are ready to start the experimental trials, please press space or touch the button below.",,,5f2aed37c08ef8437c72aa73,2020-08-10_16h04.39.001,lexical_decision_task_MP,2020.1.3,MacIntel,60,,,,,,,,,,,,,,,,,,,,,,,,,0,0,0,0,1,,,,,,,,,,,,
,,,,,,,,,,,,,,,,,,5f2aed37c08ef8437c72aa73,2020-08-10_16h04.39.001,lexical_decision_task_MP,2020.1.3,MacIntel,60,m,1,0.45217,,,,,,,,0.45217,1,,,,,,212,WORD,UN,50,squeal,VERIFY,m,,,,,,0.064853516,-0.390219727,0,0,0,,0,0,0,211,1,
,,,,,,,,,,,,,,,,,,5f2aed37c08ef8437c72aa73,2020-08-10_16h04.39.001,lexical_decision_task_MP,2020.1.3,MacIntel,60,m,1,0.502845,,,,,,,,0.502845,1,,,,,,41,WORD,"ID",33,spring,SPRING,m,,,,,,0.064853516,-0.390219727,0,0,0,,0,1,1,40,1,
,,,,,,,,,,,,,,,,,,5f2aed37c08ef8437c72aa73,2020-08-10_16h04.39.001,lexical_decision_task_MP,2020.1.3,MacIntel,60,z,1,0.650535,,,,,,,,0.650535,1,,,,,,293,NW,"ID",33,swance,SWANCE,z,,,,,,0.064853516,-0.390219727,0,0,0,,0,2,2,292,1,
,,,,,,,,,,,,,,,,,,5f2aed37c08ef8437c72aa73,2020-08-10_16h04.39.001,lexical_decision_task_MP,2020.1.3,MacIntel,60,m,1,0.7024,,,,,,,,0.7024,1,,,,,,7,WORD,"ID",33,anchor,ANCHOR,m,,,,,,0.064853516,-0.390219727,0,0,0,,0,3,3,6,1,
,,,,,,,,,,,,,,,,,,5f2aed37c08ef8437c72aa73,2020-08-10_16h04.39.001,lexical_decision_task_MP,2020.1.3,MacIntel,60,m,1,0.48475,,,,,,,,0.48475,1,,,,,,198,WORD,UN,50,invoke,WICKED,m,,,,,,0.064853516,-0.390219727,0,0,0,,0,4,4,197,1,
,,,,,,,,,,,,,,,,,,5f2aed37c08ef8437c72aa73,2020-08-10_16h04.39.001,lexical_decision_task_MP,2020.1.3,MacIntel,60,z,1,0.584365,,,,,,,,0.584365,1,,,,,,419,NW,UN,33,gushop,SLOUNT,z,,,,,,0.064853516,-0.390219727,0,0,0,,0,5,5,418,1,
,,,,,,,,,,,,,,,,,,5f2aed37c08ef8437c72aa73,2020-08-10_16h04.39.001,lexical_decision_task_MP,2020.1.3,MacIntel,60,z,1,0.582665,,,,,,,,0.582665,1,,,,,,337,NW,"ID",50,rejols,REJOLS,z,,,,,,0.064853516,-0.390219727,0,0,0,,0,6,6,336,1,
,,,,,,,,,,,,,,,,,,5f2aed37c08ef8437c72aa73,2020-08-10_16h04.39.001,lexical_decision_task_MP,2020.1.3,MacIntel,60,z,1,0.583935,,,,,,,,0.583935,1,,,,,,242,NW,"ID",33,unwert,UNWERT,z,,,,,,0.064853516,-0.390219727,0,0,0,,0,7,7,241,1,
,,,,,,,,,,,,,,,,,,5f2aed37c08ef8437c72aa73,2020-08-10_16h04.39.001,lexical_decision_task_MP,2020.1.3,MacIntel,60,m,1,0.500555,,,,,,,,0.500555,1,,,,,,151,WORD,UN,33,rocket,MYSTIC,m,,,,,,0.064853516,-0.390219727,0,0,0,,0,8,8,150,1,
,,,,,,,,,,,,,,,,,,5f2aed37c08ef8437c72aa73,2020-08-10_16h04.39.001,lexical_decision_task_MP,2020.1.3,MacIntel,60,m,1,0.503205,,,,,,,,0.503205,1,,,,,,115,WORD,"ID",50,guitar,GUITAR,m,,,,,,0.064853516,-0.390219727,0,0,0,,0,9,9,114,1,
,,,,,,,,,,,,,,,,,,5f2aed37c08ef8437c72aa73,2020-08-10_16h04.39.001,lexical_decision_task_MP,2020.1.3,MacIntel,60,z,1,0.52038,,,,,,,,0.52038,1,,,,,,323,NW,"ID",50,rosail,ROSAIL,z,,,,,,0.064853516,-0.390219727,0,0,0,,0,10,10,322,1,
,,,,,,,,,,,,,,,,,,5f2aed37c08ef8437c72aa73,2020-08-10_16h04.39.001,lexical_decision_task_MP,2020.1.3,MacIntel,60,m,1,0.468075,,,,,,,,0.468075,1,,,,,,80,WORD,"ID",50,family,FAMILY,m,,,,,,0.064853516,-0.390219727,0,0,0,,0,11,11,79,1,
,,,,,,,,,,,,,,,,,,5f2aed37c08ef8437c72aa73,2020-08-10_16h04.39.001,lexical_decision_task_MP,2020.1.3,MacIntel,60,m,1,0.6826,,,,,,,,0.6826,1,,,,,,101,WORD,"ID",50,wrench,WRENCH,m,,,,,,0.064853516,-0.390219727,0,0,0,,0,12,12,100,1,
,,,,,,,,,,,,,,,,,,5f2aed37c08ef8437c72aa73,2020-08-10_16h04.39.001,lexical_decision_task_MP,2020.1.3,MacIntel,60,z,1,0.600285,,,,,,,,0.600285,1,,,,,,427,NW,UN,50,tandly,SCHIND,z,,,,,,0.064853516,-0.390219727,0,0,0,,0,13,13,426,1,
,,,,,,,,,,,,,,,,,,5f2aed37c08ef8437c72aa73,2020-08-10_16h04.39.001,lexical_decision_task_MP,2020.1.3,MacIntel,60,m,0,0.868815,,,,,,,,0.868815,0,,,,,,276,NW,"ID",33,yarmon,YARMON,z,,,,,,0.064853516,-0.390219727,0,0,0,,0,14,14,275,1,
,,,,,,,,,,,,,,,,,,5f2aed37c08ef8437c72aa73,2020-08-10_16h04.39.001,lexical_decision_task_MP,2020.1.3,MacIntel,60,m,1,0.53629,,,,,,,,0.53629,1,,,,,,155,WORD,UN,33,cradle,LIZARD,m,,,,,,0.064853516,-0.390219727,0,0,0,,0,15,15,154,1,
,,,,,,,,,,,,,,,,,,5f2aed37c08ef8437c72aa73,2020-08-10_16h04.39.001,lexical_decision_task_MP,2020.1.3,MacIntel,60,z,1,0.62111,,,,,,,,0.62111,1,,,,,,370,NW,UN,33,geiloy,SLEACT,z,,,,,,0.064853516,-0.390219727,0,0,0,,0,16,16,369,1,
,,,,,,,,,,,,,,,,,,5f2aed37c08ef8437c72aa73,2020-08-10_16h04.39.001,lexical_decision_task_MP,2020.1.3,MacIntel,60,z,1,0.63838,,,,,,,,0.63838,1,,,,,,286,NW,"ID",33,reldon,RELDON,z,,,,,,0.064853516,-0.390219727,0,0,0,,0,17,17,285,1,
,,,,,,,,,,,,,,,,,,5f2aed37c08ef8437c72aa73,2020-08-10_16h04.39.001,lexical_decision_task_MP,2020.1.3,MacIntel,60,z,1,0.76699,,,,,,,,0.76699,1,,,,,,411,NW,UN,33,jiluer,ORCHIN,z,,,,,,0.064853516,-0.390219727,0,0,0,,0,18,18,410,1,
,,,,,,,,,,,,,,,,,,5f2aed37c08ef8437c72aa73,2020-08-10_16h04.39.001,lexical_decision_task_MP,2020.1.3,MacIntel,60,m,0,0.816805,,,,,,,,0.816805,0,,,,,,364,NW,UN,33,guairt,IMPOTE,z,,,,,,0.064853516,-0.390219727,0,0,0,,0,19,19,363,1,
,,,,,,,,,,,,,,,,,,5f2aed37c08ef8437c72aa73,2020-08-10_16h04.39.001,lexical_decision_task_MP,2020.1.3,MacIntel,60,z,1,0.837225,,,,,,,,0.837225,1,,,,,,472,NW,UN,50,crible,CIGNEY,z,,,,,,0.064853516,-0.390219727,0,0,0,,0,20,20,471,1,
,,,,,,,,,,,,,,,,,,5f2aed37c08ef8437c72aa73,2020-08-10_16h04.39.001,lexical_decision_task_MP,2020.1.3,MacIntel,60,m,1,0.6202,,,,,,,,0.6202,1,,,,,,192,WORD,UN,50,object,PLAGUE,m,,,,,,0.064853516,-0.390219727,0,0,0,,0,21,21,191,1,
,,,,,,,,,,,,,,,,,,5f2aed37c08ef8437c72aa73,2020-08-10_16h04.39.001,lexical_decision_task_MP,2020.1.3,MacIntel,60,m,1,0.65032,,,,,,,,0.65032,1,,,,,,61,WORD,"ID",50,ponder,PONDER,m,,,,,,0.064853516,-0.390219727,0,0,0,,0,22,22,60,1,
,,,,,,,,,,,,,,,,,,5f2aed37c08ef8437c72aa73,2020-08-10_16h04.39.001,lexical_decision_task_MP,2020.1.3,MacIntel,60,m,1,0.499495,,,,,,,,0.499495,1,,,,,,224,WORD,UN,50,vulgar,PERIOD,m,,,,,,0.064853516,-0.390219727,0,0,0,,0,23,23,223,1,
,,,,,,,,,,,,,,,,,,5f2aed37c08ef8437c72aa73,2020-08-10_16h04.39.001,lexical_decision_task_MP,2020.1.3,MacIntel,60,m,1,0.549315,,,,,,,,0.549315,1,,,,,,201,WORD,UN,50,factor,ADMIRE,m,,,,,,0.064853516,-0.390219727,0,0,0,,0,24,24,200,1,
,,,,,,,,,,,,,,,,,,5f2aed37c08ef8437c72aa73,2020-08-10_16h04.39.001,lexical_decision_task_MP,2020.1.3,MacIntel,60,z,1,0.54961,,,,,,,,0.54961,1,,,,,,390,NW,UN,33,theldy,HATRUS,z,,,,,,0.064853516,-0.390219727,0,0,0,,0,25,25,389,1,
,,,,,,,,,,,,,,,,,,5f2aed37c08ef8437c72aa73,2020-08-10_16h04.39.001,lexical_decision_task_MP,2020.1.3,MacIntel,60,m,1,0.60075,,,,,,,,0.60075,1,,,,,,216,WORD,UN,50,liquor,BEHALF,m,,,,,,0.064853516,-0.390219727,0,0,0,,0,26,26,215,1,
,,,,,,,,,,,,,,,,,,5f2aed37c08ef8437c72aa73,2020-08-10_16h04.39.001,lexical_decision_task_MP,2020.1.3,MacIntel,60,m,1,0.51609,,,,,,,,0.51609,1,,,,,,71,WORD,"ID",50,garden,GARDEN,m,,,,,,0.064853516,-0.390219727,0,0,0,,0,27,27,70,1,
,,,,,,,,,,,,,,,,,,5f2aed37c08ef8437c72aa73,2020-08-10_16h04.39.001,lexical_decision_task_MP,2020.1.3,MacIntel,60,z,1,0.582825,,,,,,,,0.582825,1,,,,,,253,NW,"ID",33,resait,RESAIT,z,,,,,,0.064853516,-0.390219727,0,0,0,,0,28,28,252,1,
,,,,,,,,,,,,,,,,,,5f2aed37c08ef8437c72aa73,2020-08-10_16h04.39.001,lexical_decision_task_MP,2020.1.3,MacIntel,60,m,1,0.46936,,,,,,,,0.46936,1,,,,,,111,WORD,"ID",50,induce,INDUCE,m,,,,,,0.064853516,-0.390219727,0,0,0,,0,29,29,110,1,
,,,,,,,,,,,,,,,,,,5f2aed37c08ef8437c72aa73,2020-08-10_16h04.39.001,lexical_decision_task_MP,2020.1.3,MacIntel,60,m,1,0.40246,,,,,,,,0.40246,1,,,,,,143,WORD,UN,33,sponge,REASON,m,,,,,,0.064853516,-0.390219727,0,0,0,,0,30,30,142,1,
,,,,,,,,,,,,,,,,,,5f2aed37c08ef8437c72aa73,2020-08-10_16h04.39.001,lexical_decision_task_MP,2020.1.3,MacIntel,60,z,1,0.649975,,,,,,,,0.649975,1,,,,,,473,NW,UN,50,hablin,CRIBLE,z,,,,,,0.064853516,-0.390219727,0,0,0,,0,31,31,472,1,
,,,,,,,,,,,,,,,,,,5f2aed37c08ef8437c72aa73,2020-08-10_16h04.39.001,lexical_decision_task_MP,2020.1.3,MacIntel,60,z,1,0.63558,,,,,,,,0.63558,1,,,,,,297,NW,"ID",33,fertic,FERTIC,z,,,,,,0.064853516,-0.390219727,0,0,0,,0,32,32,296,1,
,,,,,,,,,,,,,,,,,,5f2aed37c08ef8437c72aa73,2020-08-10_16h04.39.001,lexical_decision_task_MP,2020.1.3,MacIntel,60,m,1,0.53322,,,,,,,,0.53322,1,,,,,,238,WORD,UN,50,grumpy,FLOWER,m,,,,,,0.064853516,-0.390219727,0,0,0,,0,33,33,237,1,
,,,,,,,,,,,,,,,,,,5f2aed37c08ef8437c72aa73,2020-08-10_16h04.39.001,lexical_decision_task_MP,2020.1.3,MacIntel,60,z,0,0.61665,,,,,,,,0.61665,0,,,,,,54,WORD,"ID",33,ramble,RAMBLE,m,,,,,,0.064853516,-0.390219727,0,0,0,,0,34,34,53,1,
,,,,,,,,,,,,,,,,,,5f2aed37c08ef8437c72aa73,2020-08-10_16h04.39.001,lexical_decision_task_MP,2020.1.3,MacIntel,60,z,1,0.81729,,,,,,,,0.81729,1,,,,,,391,NW,UN,33,rouncy,THELDY,z,,,,,,0.064853516,-0.390219727,0,0,0,,0,35,35,390,1,
,,,,,,,,,,,,,,,,,,5f2aed37c08ef8437c72aa73,2020-08-10_16h04.39.001,lexical_decision_task_MP,2020.1.3,MacIntel,60,m,1,0.482515,,,,,,,,0.482515,1,,,,,,160,WORD,UN,33,dragon,VIOLET,m,,,,,,0.064853516,-0.390219727,0,0,0,,0,36,36,159,1,
,,,,,,,,,,,,,,,,,,5f2aed37c08ef8437c72aa73,2020-08-10_16h04.39.001,lexical_decision_task_MP,2020.1.3,MacIntel,60,z,1,0.66564,,,,,,,,0.66564,1,,,,,,418,NW,UN,33,slount,SUIDLE,z,,,,,,0.064853516,-0.390219727,0,0,0,,0,37,37,417,1,
,,,,,,,,,,,,,,,,,,5f2aed37c08ef8437c72aa73,2020-08-10_16h04.39.001,lexical_decision_task_MP,2020.1.3,MacIntel,60,z,1,0.600025,,,,,,,,0.600025,1,,,,,,287,NW,"ID",33,nymbel,NYMBEL,z,,,,,,0.064853516,-0.390219727,0,0,0,,0,38,38,286,1,
,,,,,,,,,,,,,,,,,,5f2aed37c08ef8437c72aa73,2020-08-10_16h04.39.001,lexical_decision_task_MP,2020.1.3,MacIntel,60,m,1,0.516065,,,,,,,,0.516065,1,,,,,,130,WORD,UN,33,quench,STUPID,m,,,,,,0.064853516,-0.390219727,0,0,0,,0,39,39,129,1,
,,,,,,,,,,,,,,,,,,5f2aed37c08ef8437c72aa73,2020-08-10_16h04.39.001,lexical_decision_task_MP,2020.1.3,MacIntel,60,m,0,0.466195,,,,,,,,0.466195,0,,,,,,285,NW,"ID",33,prudge,PRUDGE,z,,,,,,0.064853516,-0.390219727,0,0,0,,0,40,40,284,1,
,,,,,,,,,,,,,,,,,,5f2aed37c08ef8437c72aa73,2020-08-10_16h04.39.001,lexical_decision_task_MP,2020.1.3,MacIntel,60,m,1,1.21615,,,,,,,,1.21615,1,,,,,,163,WORD,UN,33,market,STRING,m,,,,,,0.064853516,-0.390219727,0,0,0,,0,41,41,162,1,
,,,,,,,,,,,,,,,,,,5f2aed37c08ef8437c72aa73,2020-08-10_16h04.39.001,lexical_decision_task_MP,2020.1.3,MacIntel,60,m,1,0.48341,,,,,,,,0.48341,1,,,,,,144,WORD,UN,33,parish,SPONGE,m,,,,,,0.064853516,-0.390219727,0,0,0,,0,42,42,143,1,
,,,,,,,,,,,,,,,,,,5f2aed37c08ef8437c72aa73,2020-08-10_16h04.39.001,lexical_decision_task_MP,2020.1.3,MacIntel,60,z,1,0.57223,,,,,,,,0.57223,1,,,,,,347,NW,"ID",50,kerift,KERIFT,z,,,,,,0.064853516,-0.390219727,0,0,0,,0,43,43,346,1,
,,,,,,,,,,,,,,,,,,5f2aed37c08ef8437c72aa73,2020-08-10_16h04.39.001,lexical_decision_task_MP,2020.1.3,MacIntel,60,m,1,0.482855,,,,,,,,0.482855,1,,,,,,132,WORD,UN,33,bleach,STRONG,m,,,,,,0.064853516,-0.390219727,0,0,0,,0,44,44,131,1,
,,,,,,,,,,,,,,,,,,5f2aed37c08ef8437c72aa73,2020-08-10_16h04.39.001,lexical_decision_task_MP,2020.1.3,MacIntel,60,z,1,0.801435,,,,,,,,0.801435,1,,,,,,319,NW,"ID",50,zomber,ZOMBER,z,,,,,,0.064853516,-0.390219727,0,0,0,,0,45,45,318,1,
,,,,,,,,,,,,,,,,,,5f2aed37c08ef8437c72aa73,2020-08-10_16h04.39.001,lexical_decision_task_MP,2020.1.3,MacIntel,60,z,1,0.71636,,,,,,,,0.71636,1,,,,,,420,NW,UN,33,pauche,GUSHOP,z,,,,,,0.064853516,-0.390219727,0,0,0,,0,46,46,419,1,
,,,,,,,,,,,,,,,,,,5f2aed37c08ef8437c72aa73,2020-08-10_16h04.39.001,lexical_decision_task_MP,2020.1.3,MacIntel,60,m,1,0.46707,,,,,,,,0.46707,1,,,,,,95,WORD,"ID",50,thread,THREAD,m,,,,,,0.064853516,-0.390219727,0,0,0,,0,47,47,94,1,
,,,,,,,,,,,,,,,,,,5f2aed37c08ef8437c72aa73,2020-08-10_16h04.39.001,lexical_decision_task_MP,2020.1.3,MacIntel,60,z,1,0.570125,,,,,,,,0.570125,1,,,,,,385,NW,UN,33,ancust,VEIGMA,z,,,,,,0.064853516,-0.390219727,0,0,0,,0,48,48,384,1,
,,,,,,,,,,,,,,,,,,5f2aed37c08ef8437c72aa73,2020-08-10_16h04.39.001,lexical_decision_task_MP,2020.1.3,MacIntel,60,z,1,0.70022,,,,,,,,0.70022,1,,,,,,430,NW,UN,50,funtle,CAROEY,z,,,,,,0.064853516,-0.390219727,0,0,0,,0,49,49,429,1,
,,,,,,,,,,,,,,,,,,5f2aed37c08ef8437c72aa73,2020-08-10_16h04.39.001,lexical_decision_task_MP,2020.1.3,MacIntel,60,m,1,0.585055,,,,,,,,0.585055,1,,,,,,181,WORD,UN,50,winter,GLANCE,m,,,,,,0.064853516,-0.390219727,0,0,0,,0,50,50,180,1,
,,,,,,,,,,,,,,,,,,5f2aed37c08ef8437c72aa73,2020-08-10_16h04.39.001,lexical_decision_task_MP,2020.1.3,MacIntel,60,m,0,0.516735,,,,,,,,0.516735,0,,,,,,431,NW,UN,50,lunker,CHRUMS,z,,,,,,0.064853516,-0.390219727,0,0,0,,0,51,51,430,1,
,,,,,,,,,,,,,,,,,,5f2aed37c08ef8437c72aa73,2020-08-10_16h04.39.001,lexical_decision_task_MP,2020.1.3,MacIntel,60,z,1,0.80241,,,,,,,,0.80241,1,,,,,,449,NW,UN,50,phrect,BRUNGE,z,,,,,,0.064853516,-0.390219727,0,0,0,,0,52,52,448,1,
,,,,,,,,,,,,,,,,,,5f2aed37c08ef8437c72aa73,2020-08-10_16h04.39.001,lexical_decision_task_MP,2020.1.3,MacIntel,60,z,1,0.56628,,,,,,,,0.56628,1,,,,,,445,NW,UN,50,runamo,MINKEL,z,,,,,,0.064853516,-0.390219727,0,0,0,,0,53,53,444,1,
,,,,,,,,,,,,,,,,,,5f2aed37c08ef8437c72aa73,2020-08-10_16h04.39.001,lexical_decision_task_MP,2020.1.3,MacIntel,60,m,1,0.533965,,,,,,,,0.533965,1,,,,,,206,WORD,UN,50,wreath,TAILOR,m,,,,,,0.064853516,-0.390219727,0,0,0,,0,54,54,205,1,
,,,,,,,,,,,,,,,,,,5f2aed37c08ef8437c72aa73,2020-08-10_16h04.39.001,lexical_decision_task_MP,2020.1.3,MacIntel,60,z,1,0.800945,,,,,,,,0.800945,1,,,,,,281,NW,"ID",33,melaty,MELATY,z,,,,,,0.064853516,-0.390219727,0,0,0,,0,55,55,280,1,
,,,,,,,,,,,,,,,,,,5f2aed37c08ef8437c72aa73,2020-08-10_16h04.39.001,lexical_decision_task_MP,2020.1.3,MacIntel,60,m,1,0.633,,,,,,,,0.633,1,,,,,,177,WORD,UN,33,inform,ADVENT,m,,,,,,0.064853516,-0.390219727,0,0,0,,0,56,56,176,1,
,,,,,,,,,,,,,,,,,,5f2aed37c08ef8437c72aa73,2020-08-10_16h04.39.001,lexical_decision_task_MP,2020.1.3,MacIntel,60,z,1,0.583145,,,,,,,,0.583145,1,,,,,,456,NW,UN,50,wanigh,BROGET,z,,,,,,0.064853516,-0.390219727,0,0,0,,0,57,57,455,1,
,,,,,,,,,,,,,,,,,,5f2aed37c08ef8437c72aa73,2020-08-10_16h04.39.001,lexical_decision_task_MP,2020.1.3,MacIntel,60,m,1,0.60064,,,,,,,,0.60064,1,,,,,,50,WORD,"ID",33,snatch,SNATCH,m,,,,,,0.064853516,-0.390219727,0,0,0,,0,58,58,49,1,
,,,,,,,,,,,,,,,,,,5f2aed37c08ef8437c72aa73,2020-08-10_16h04.39.001,lexical_decision_task_MP,2020.1.3,MacIntel,60,z,0,0.687805,,,,,,,,0.687805,0,,,,,,221,WORD,UN,50,hinder,MASCOT,m,,,,,,0.064853516,-0.390219727,0,0,0,,0,59,59,220,1,
,,,,,,,,,,,,,,,,,,5f2aed37c08ef8437c72aa73,2020-08-10_16h04.39.001,lexical_decision_task_MP,2020.1.3,MacIntel,60,m,0,0.50021,,,,,,,,0.50021,0,,,,,,305,NW,"ID",50,forgle,FORGLE,z,,,,,,0.064853516,-0.390219727,0,0,0,,0,60,60,304,1,
,,,,,,,,,,,,,,,,,,5f2aed37c08ef8437c72aa73,2020-08-10_16h04.39.001,lexical_decision_task_MP,2020.1.3,MacIntel,60,z,1,0.667505,,,,,,,,0.667505,1,,,,,,313,NW,"ID",50,paurse,PAURSE,z,,,,,,0.064853516,-0.390219727,0,0,0,,0,61,61,312,1,
,,,,,,,,,,,,,,,,,,5f2aed37c08ef8437c72aa73,2020-08-10_16h04.39.001,lexical_decision_task_MP,2020.1.3,MacIntel,60,z,1,0.566605,,,,,,,,0.566605,1,,,,,,357,NW,"ID",50,derain,DERAIN,z,,,,,,0.064853516,-0.390219727,0,0,0,,0,62,62,356,1,
,,,,,,,,,,,,,,,,,,5f2aed37c08ef8437c72aa73,2020-08-10_16h04.39.001,lexical_decision_task_MP,2020.1.3,MacIntel,60,m,0,0.783465,,,,,,,,0.783465,0,,,,,,284,NW,"ID",33,shaple,SHAPLE,z,,,,,,0.064853516,-0.390219727,0,0,0,,0,63,63,283,1,
,,,,,,,,,,,,,,,,,,5f2aed37c08ef8437c72aa73,2020-08-10_16h04.39.001,lexical_decision_task_MP,2020.1.3,MacIntel,60,z,1,0.616525,,,,,,,,0.616525,1,,,,,,354,NW,"ID",50,virlex,VIRLEX,z,,,,,,0.064853516,-0.390219727,0,0,0,,0,64,64,353,1,
,,,,,,,,,,,,,,,,,,5f2aed37c08ef8437c72aa73,2020-08-10_16h04.39.001,lexical_decision_task_MP,2020.1.3,MacIntel,60,z,1,0.683225,,,,,,,,0.683225,1,,,,,,477,NW,UN,50,acrise,PHOTIE,z,,,,,,0.064853516,-0.390219727,0,0,0,,0,65,65,476,1,
,,,,,,,,,,,,,,,,,,5f2aed37c08ef8437c72aa73,2020-08-10_16h04.39.001,lexical_decision_task_MP,2020.1.3,MacIntel,60,m,1,0.516775,,,,,,,,0.516775,1,,,,,,117,WORD,"ID",50,branch,BRANCH,m,,,,,,0.064853516,-0.390219727,0,0,0,,0,66,66,116,1,
,,,,,,,,,,,,,,,,,,5f2aed37c08ef8437c72aa73,2020-08-10_16h04.39.001,lexical_decision_task_MP,2020.1.3,MacIntel,60,m,1,0.55149,,,,,,,,0.55149,1,,,,,,182,WORD,UN,50,basket,WINTER,m,,,,,,0.064853516,-0.390219727,0,0,0,,0,67,67,181,1,
,,,,,,,,,,,,,,,,,,5f2aed37c08ef8437c72aa73,2020-08-10_16h04.39.001,lexical_decision_task_MP,2020.1.3,MacIntel,60,z,1,0.533155,,,,,,,,0.533155,1,,,,,,377,NW,UN,33,shrile,INJORE,z,,,,,,0.064853516,-0.390219727,0,0,0,,0,68,68,376,1,
,,,,,,,,,,,,,,,,,,5f2aed37c08ef8437c72aa73,2020-08-10_16h04.39.001,lexical_decision_task_MP,2020.1.3,MacIntel,60,m,1,0.70403,,,,,,,,0.70403,1,,,,,,219,WORD,UN,50,voyage,BUCKET,m,,,,,,0.064853516,-0.390219727,0,0,0,,0,69,69,218,1,
,,,,,,,,,,,,,,,,,,5f2aed37c08ef8437c72aa73,2020-08-10_16h04.39.001,lexical_decision_task_MP,2020.1.3,MacIntel,60,m,1,0.49949,,,,,,,,0.49949,1,,,,,,89,WORD,"ID",50,permit,PERMIT,m,,,,,,0.064853516,-0.390219727,0,0,0,,0,70,70,88,1,
,,,,,,,,,,,,,,,,,,5f2aed37c08ef8437c72aa73,2020-08-10_16h04.39.001,lexical_decision_task_MP,2020.1.3,MacIntel,60,m,1,0.802635,,,,,,,,0.802635,1,,,,,,74,WORD,"ID",50,plaque,PLAQUE,m,,,,,,0.064853516,-0.390219727,0,0,0,,0,71,71,73,1,
,,,,,,,,,,,,,,,,,,5f2aed37c08ef8437c72aa73,2020-08-10_16h04.39.001,lexical_decision_task_MP,2020.1.3,MacIntel,60,z,1,0.63342,,,,,,,,0.63342,1,,,,,,349,NW,"ID",50,asylen,ASYLEN,z,,,,,,0.064853516,-0.390219727,0,0,0,,0,72,72,348,1,
,,,,,,,,,,,,,,,,,,5f2aed37c08ef8437c72aa73,2020-08-10_16h04.39.001,lexical_decision_task_MP,2020.1.3,MacIntel,60,m,0,0.54925,,,,,,,,0.54925,0,,,,,,343,NW,"ID",50,aimosy,AIMOSY,z,,,,,,0.064853516,-0.390219727,0,0,0,,0,73,73,342,1,
,,,,,,,,,,,,,,,,,,5f2aed37c08ef8437c72aa73,2020-08-10_16h04.39.001,lexical_decision_task_MP,2020.1.3,MacIntel,60,z,1,0.78969,,,,,,,,0.78969,1,,,,,,310,NW,"ID",50,daniet,DANIET,z,,,,,,0.064853516,-0.390219727,0,0,0,,0,74,74,309,1,
,,,,,,,,,,,,,,,,,,5f2aed37c08ef8437c72aa73,2020-08-10_16h04.39.001,lexical_decision_task_MP,2020.1.3,MacIntel,60,z,1,0.538955,,,,,,,,0.538955,1,,,,,,270,NW,"ID",33,wrimsy,WRIMSY,z,,,,,,0.064853516,-0.390219727,0,0,0,,0,75,75,269,1,
,,,,,,,,,,,,,,,,,,5f2aed37c08ef8437c72aa73,2020-08-10_16h04.39.001,lexical_decision_task_MP,2020.1.3,MacIntel,60,z,1,0.71655,,,,,,,,0.71655,1,,,,,,316,NW,"ID",50,scregm,SCREGM,z,,,,,,0.064853516,-0.390219727,0,0,0,,0,76,76,315,1,
,,,,,,,,,,,,,,,,,,5f2aed37c08ef8437c72aa73,2020-08-10_16h04.39.001,lexical_decision_task_MP,2020.1.3,MacIntel,60,m,1,0.54969,,,,,,,,0.54969,1,,,,,,197,WORD,UN,50,wicked,STREAM,m,,,,,,0.064853516,-0.390219727,0,0,0,,0,77,77,196,1,
,,,,,,,,,,,,,,,,,,5f2aed37c08ef8437c72aa73,2020-08-10_16h04.39.001,lexical_decision_task_MP,2020.1.3,MacIntel,60,z,1,0.749855,,,,,,,,0.749855,1,,,,,,275,NW,"ID",33,sleirt,SLEIRT,z,,,,,,0.064853516,-0.390219727,0,0,0,,0,78,78,274,1,
,,,,,,,,,,,,,,,,,,5f2aed37c08ef8437c72aa73,2020-08-10_16h04.39.001,lexical_decision_task_MP,2020.1.3,MacIntel,60,m,1,0.67899,,,,,,,,0.67899,1,,,,,,9,WORD,"ID",33,hustle,HUSTLE,m,,,,,,0.064853516,-0.390219727,0,0,0,,0,79,79,8,1,
,,,,,,,,,,,,,,,,,,5f2aed37c08ef8437c72aa73,2020-08-10_16h04.39.001,lexical_decision_task_MP,2020.1.3,MacIntel,60,z,1,0.550545,,,,,,,,0.550545,1,,,,,,241,NW,"ID",33,smenco,SMENCO,z,,,,,,0.064853516,-0.390219727,0,0,0,,0,80,80,240,1,
,,,,,,,,,,,,,,,,,,5f2aed37c08ef8437c72aa73,2020-08-10_16h04.39.001,lexical_decision_task_MP,2020.1.3,MacIntel,60,m,1,0.616055,,,,,,,,0.616055,1,,,,,,225,WORD,UN,50,kidney,VULGAR,m,,,,,,0.064853516,-0.390219727,0,0,0,,0,81,81,224,1,
,,,,,,,,,,,,,,,,,,5f2aed37c08ef8437c72aa73,2020-08-10_16h04.39.001,lexical_decision_task_MP,2020.1.3,MacIntel,60,z,1,0.53267,,,,,,,,0.53267,1,,,,,,454,NW,UN,50,tondle,SCOUGE,z,,,,,,0.064853516,-0.390219727,0,0,0,,0,82,82,453,1,
,,,,,,,,,,,,,,,,,,5f2aed37c08ef8437c72aa73,2020-08-10_16h04.39.001,lexical_decision_task_MP,2020.1.3,MacIntel,60,m,0,0.983475,,,,,,,,0.983475,0,,,,,,476,NW,UN,50,photie,JOSTED,z,,,,,,0.064853516,-0.390219727,0,0,0,,0,83,83,475,1,
,,,,,,,,,,,,,,,,,,5f2aed37c08ef8437c72aa73,2020-08-10_16h04.39.001,lexical_decision_task_MP,2020.1.3,MacIntel,60,m,1,0.53412,,,,,,,,0.53412,1,,,,,,30,WORD,"ID",33,orient,ORIENT,m,,,,,,0.064853516,-0.390219727,0,0,0,,0,84,84,29,1,
,,,,,,,,,,,,,,,,,,5f2aed37c08ef8437c72aa73,2020-08-10_16h04.39.001,lexical_decision_task_MP,2020.1.3,MacIntel,60,z,1,0.783605,,,,,,,,0.783605,1,,,,,,246,NW,"ID",33,piaton,PIATON,z,,,,,,0.064853516,-0.390219727,0,0,0,,0,85,85,245,1,
,,,,,,,,,,,,,,,,,,5f2aed37c08ef8437c72aa73,2020-08-10_16h04.39.001,lexical_decision_task_MP,2020.1.3,MacIntel,60,m,0,0.699425,,,,,,,,0.699425,0,,,,,,314,NW,"ID",50,sprine,SPRINE,z,,,,,,0.064853516,-0.390219727,0,0,0,,0,86,86,313,1,
,,,,,,,,,,,,,,,,,,5f2aed37c08ef8437c72aa73,2020-08-10_16h04.39.001,lexical_decision_task_MP,2020.1.3,MacIntel,60,m,1,0.550835,,,,,,,,0.550835,1,,,,,,170,WORD,UN,33,depart,POUNCE,m,,,,,,0.064853516,-0.390219727,0,0,0,,0,87,87,169,1,
,,,,,,,,,,,,,,,,,,5f2aed37c08ef8437c72aa73,2020-08-10_16h04.39.001,lexical_decision_task_MP,2020.1.3,MacIntel,60,z,1,0.55543,,,,,,,,0.55543,1,,,,,,256,NW,"ID",33,inlors,INLORS,z,,,,,,0.064853516,-0.390219727,0,0,0,,0,88,88,255,1,
,,,,,,,,,,,,,,,,,,5f2aed37c08ef8437c72aa73,2020-08-10_16h04.39.001,lexical_decision_task_MP,2020.1.3,MacIntel,60,z,1,0.66711,,,,,,,,0.66711,1,,,,,,262,NW,"ID",33,quilew,QUILEW,z,,,,,,0.064853516,-0.390219727,0,0,0,,0,89,89,261,1,
,,,,,,,,,,,,,,,,,,5f2aed37c08ef8437c72aa73,2020-08-10_16h04.39.001,lexical_decision_task_MP,2020.1.3,MacIntel,60,m,0,0.583245,,,,,,,,0.583245,0,,,,,,303,NW,"ID",50,fiream,FIREAM,z,,,,,,0.064853516,-0.390219727,0,0,0,,0,90,90,302,1,
,,,,,,,,,,,,,,,,,,5f2aed37c08ef8437c72aa73,2020-08-10_16h04.39.001,lexical_decision_task_MP,2020.1.3,MacIntel,60,z,1,0.66823,,,,,,,,0.66823,1,,,,,,301,NW,"ID",50,fainch,FAINCH,z,,,,,,0.064853516,-0.390219727,0,0,0,,0,91,91,300,1,
,,,,,,,,,,,,,,,,,,5f2aed37c08ef8437c72aa73,2020-08-10_16h04.39.001,lexical_decision_task_MP,2020.1.3,MacIntel,60,z,1,0.803795,,,,,,,,0.803795,1,,,,,,463,NW,UN,50,bafent,KISPEL,z,,,,,,0.064853516,-0.390219727,0,0,0,,0,92,92,462,1,
,,,,,,,,,,,,,,,,,,5f2aed37c08ef8437c72aa73,2020-08-10_16h04.39.001,lexical_decision_task_MP,2020.1.3,MacIntel,60,z,1,0.600435,,,,,,,,0.600435,1,,,,,,384,NW,UN,33,veigma,GUESCO,z,,,,,,0.064853516,-0.390219727,0,0,0,,0,93,93,383,1,
,,,,,,,,,,,,,,,,,,5f2aed37c08ef8437c72aa73,2020-08-10_16h04.39.001,lexical_decision_task_MP,2020.1.3,MacIntel,60,m,1,0.8035,,,,,,,,0.8035,1,,,,,,68,WORD,"ID",50,fumble,FUMBLE,m,,,,,,0.064853516,-0.390219727,0,0,0,,0,94,94,67,1,
,,,,,,,,,,,,,,,,,,5f2aed37c08ef8437c72aa73,2020-08-10_16h04.39.001,lexical_decision_task_MP,2020.1.3,MacIntel,60,m,1,0.602515,,,,,,,,0.602515,1,,,,,,116,WORD,"ID",50,tumble,TUMBLE,m,,,,,,0.064853516,-0.390219727,0,0,0,,0,95,95,115,1,
,,,,,,,,,,,,,,,,,,5f2aed37c08ef8437c72aa73,2020-08-10_16h04.39.001,lexical_decision_task_MP,2020.1.3,MacIntel,60,m,1,0.733425,,,,,,,,0.733425,1,,,,,,179,WORD,UN,33,silent,BASKET,m,,,,,,0.064853516,-0.390219727,0,0,0,,0,96,96,178,1,
,,,,,,,,,,,,,,,,,,5f2aed37c08ef8437c72aa73,2020-08-10_16h04.39.001,lexical_decision_task_MP,2020.1.3,MacIntel,60,m,1,0.483905,,,,,,,,0.483905,1,,,,,,4,WORD,"ID",33,trench,TRENCH,m,,,,,,0.064853516,-0.390219727,0,0,0,,0,97,97,3,1,
,,,,,,,,,,,,,,,,,,5f2aed37c08ef8437c72aa73,2020-08-10_16h04.39.001,lexical_decision_task_MP,2020.1.3,MacIntel,60,m,1,0.504865,,,,,,,,0.504865,1,,,,,,17,WORD,"ID",33,charge,CHARGE,m,,,,,,0.064853516,-0.390219727,0,0,0,,0,98,98,16,1,
,,,,,,,,,,,,,,,,,,5f2aed37c08ef8437c72aa73,2020-08-10_16h04.39.001,lexical_decision_task_MP,2020.1.3,MacIntel,60,z,1,0.684525,,,,,,,,0.684525,1,,,,,,255,NW,"ID",33,apight,APIGHT,z,,,,,,0.064853516,-0.390219727,0,0,0,,0,99,99,254,1,
,,,,,,,,,,,,,,,,,,5f2aed37c08ef8437c72aa73,2020-08-10_16h04.39.001,lexical_decision_task_MP,2020.1.3,MacIntel,60,z,1,0.652235,,,,,,,,0.652235,1,,,,,,251,NW,"ID",33,lupict,LUPICT,z,,,,,,0.064853516,-0.390219727,0,0,0,,0,100,100,250,1,
,,,,,,,,,,,,,,,,,,5f2aed37c08ef8437c72aa73,2020-08-10_16h04.39.001,lexical_decision_task_MP,2020.1.3,MacIntel,60,z,1,0.8196,,,,,,,,0.8196,1,,,,,,446,NW,UN,50,gircue,RUNAMO,z,,,,,,0.064853516,-0.390219727,0,0,0,,0,101,101,445,1,
,,,,,,,,,,,,,,,,,,5f2aed37c08ef8437c72aa73,2020-08-10_16h04.39.001,lexical_decision_task_MP,2020.1.3,MacIntel,60,z,1,0.66674,,,,,,,,0.66674,1,,,,,,442,NW,UN,50,dorsex,ABOUNE,z,,,,,,0.064853516,-0.390219727,0,0,0,,0,102,102,441,1,
,,,,,,,,,,,,,,,,,,5f2aed37c08ef8437c72aa73,2020-08-10_16h04.39.001,lexical_decision_task_MP,2020.1.3,MacIntel,60,m,1,0.47133,,,,,,,,0.47133,1,,,,,,105,WORD,"ID",50,number,NUMBER,m,,,,,,0.064853516,-0.390219727,0,0,0,,0,103,103,104,1,
,,,,,,,,,,,,,,,,,,5f2aed37c08ef8437c72aa73,2020-08-10_16h04.39.001,lexical_decision_task_MP,2020.1.3,MacIntel,60,m,1,0.516595,,,,,,,,0.516595,1,,,,,,148,WORD,UN,33,invade,CUSTOM,m,,,,,,0.064853516,-0.390219727,0,0,0,,0,104,104,147,1,
,,,,,,,,,,,,,,,,,,5f2aed37c08ef8437c72aa73,2020-08-10_16h04.39.001,lexical_decision_task_MP,2020.1.3,MacIntel,60,m,1,0.517785,,,,,,,,0.517785,1,,,,,,187,WORD,UN,50,social,COURSE,m,,,,,,0.064853516,-0.390219727,0,0,0,,0,105,105,186,1,
,,,,,,,,,,,,,,,,,,5f2aed37c08ef8437c72aa73,2020-08-10_16h04.39.001,lexical_decision_task_MP,2020.1.3,MacIntel,60,m,1,0.615805,,,,,,,,0.615805,1,,,,,,213,WORD,UN,50,intake,SQUEAL,m,,,,,,0.064853516,-0.390219727,0,0,0,,0,106,106,212,1,
,,,,,,,,,,,,,,,,,,5f2aed37c08ef8437c72aa73,2020-08-10_16h04.39.001,lexical_decision_task_MP,2020.1.3,MacIntel,60,z,0,0.633175,,,,,,,,0.633175,0,,,,,,183,WORD,UN,50,sleazy,MILDEW,m,,,,,,0.064853516,-0.390219727,0,0,0,,0,107,107,182,1,
,,,,,,,,,,,,,,,,,,5f2aed37c08ef8437c72aa73,2020-08-10_16h04.39.001,lexical_decision_task_MP,2020.1.3,MacIntel,60,m,1,0.54948,,,,,,,,0.54948,1,,,,,,152,WORD,UN,33,behold,ROCKET,m,,,,,,0.064853516,-0.390219727,0,0,0,,0,108,108,151,1,
,,,,,,,,,,,,,,,,,,5f2aed37c08ef8437c72aa73,2020-08-10_16h04.39.001,lexical_decision_task_MP,2020.1.3,MacIntel,60,m,1,0.537155,,,,,,,,0.537155,1,,,,,,186,WORD,UN,50,course,PORTAL,m,,,,,,0.064853516,-0.390219727,0,0,0,,0,109,109,185,1,
,,,,,,,,,,,,,,,,,,5f2aed37c08ef8437c72aa73,2020-08-10_16h04.39.001,lexical_decision_task_MP,2020.1.3,MacIntel,60,m,1,0.63272,,,,,,,,0.63272,1,,,,,,114,WORD,"ID",50,placid,PLACID,m,,,,,,0.064853516,-0.390219727,0,0,0,,0,110,110,113,1,
,,,,,,,,,,,,,,,,,,5f2aed37c08ef8437c72aa73,2020-08-10_16h04.39.001,lexical_decision_task_MP,2020.1.3,MacIntel,60,m,0,0.586825,,,,,,,,0.586825,0,,,,,,409,NW,UN,33,tunory,ELOPIA,z,,,,,,0.064853516,-0.390219727,0,0,0,,0,111,111,408,1,
,,,,,,,,,,,,,,,,,,5f2aed37c08ef8437c72aa73,2020-08-10_16h04.39.001,lexical_decision_task_MP,2020.1.3,MacIntel,60,z,1,0.63257,,,,,,,,0.63257,1,,,,,,439,NW,UN,50,saride,LIMPOR,z,,,,,,0.064853516,-0.390219727,0,0,0,,0,112,112,438,1,
,,,,,,,,,,,,,,,,,,5f2aed37c08ef8437c72aa73,2020-08-10_16h04.39.001,lexical_decision_task_MP,2020.1.3,MacIntel,60,m,1,0.60087,,,,,,,,0.60087,1,,,,,,223,WORD,UN,50,period,KIDNEY,m,,,,,,0.064853516,-0.390219727,0,0,0,,0,113,113,222,1,
,,,,,,,,,,,,,,,,,,5f2aed37c08ef8437c72aa73,2020-08-10_16h04.39.001,lexical_decision_task_MP,2020.1.3,MacIntel,60,z,1,0.603755,,,,,,,,0.603755,1,,,,,,415,NW,UN,33,pathel,HIGSTA,z,,,,,,0.064853516,-0.390219727,0,0,0,,0,114,114,414,1,
,,,,,,,,,,,,,,,,,,5f2aed37c08ef8437c72aa73,2020-08-10_16h04.39.001,lexical_decision_task_MP,2020.1.3,MacIntel,60,z,1,0.700015,,,,,,,,0.700015,1,,,,,,440,NW,UN,50,cainky,SARIDE,z,,,,,,0.064853516,-0.390219727,0,0,0,,0,115,115,439,1,
,,,,,,,,,,,,,,,,,,5f2aed37c08ef8437c72aa73,2020-08-10_16h04.39.001,lexical_decision_task_MP,2020.1.3,MacIntel,60,m,1,0.61631,,,,,,,,0.61631,1,,,,,,193,WORD,UN,50,plague,OBJECT,m,,,,,,0.064853516,-0.390219727,0,0,0,,0,116,116,192,1,
,,,,,,,,,,,,,,,,,,5f2aed37c08ef8437c72aa73,2020-08-10_16h04.39.001,lexical_decision_task_MP,2020.1.3,MacIntel,60,m,0,0.66733,,,,,,,,0.66733,0,,,,,,424,NW,UN,50,urivel,PRAILE,z,,,,,,0.064853516,-0.390219727,0,0,0,,0,117,117,423,1,
,,,,,,,,,,,,,,,,,,5f2aed37c08ef8437c72aa73,2020-08-10_16h04.39.001,lexical_decision_task_MP,2020.1.3,MacIntel,60,m,1,0.50379,,,,,,,,0.50379,1,,,,,,5,WORD,"ID",33,plunge,PLUNGE,m,,,,,,0.064853516,-0.390219727,0,0,0,,0,118,118,4,1,
,,,,,,,,,,,,,,,,,,5f2aed37c08ef8437c72aa73,2020-08-10_16h04.39.001,lexical_decision_task_MP,2020.1.3,MacIntel,60,z,1,0.581655,,,,,,,,0.581655,1,,,,,,371,NW,UN,33,ramily,GEILOY,z,,,,,,0.064853516,-0.390219727,0,0,0,,0,119,119,370,1,
,,,,,,,,,,,,,,,,,,5f2aed37c08ef8437c72aa73,2020-08-10_16h04.39.001,lexical_decision_task_MP,2020.1.3,MacIntel,60,m,1,0.60256,,,,,,,,0.60256,1,,,,,,57,WORD,"ID",33,change,CHANGE,m,,,,,,0.199604492,-0.273691406,0,0,0,space,0,120,120,56,1,35.211475
,,,,,,,,,,,,,,,,,,5f2aed37c08ef8437c72aa73,2020-08-10_16h04.39.001,lexical_decision_task_MP,2020.1.3,MacIntel,60,m,0,0.454185,,,,,,,,0.454185,0,,,,,,398,NW,UN,33,fouret,BLUNDE,z,,,,,,0.199604492,-0.273691406,0,0,0,,0,121,121,397,1,
,,,,,,,,,,,,,,,,,,5f2aed37c08ef8437c72aa73,2020-08-10_16h04.39.001,lexical_decision_task_MP,2020.1.3,MacIntel,60,m,1,0.500045,,,,,,,,0.500045,1,,,,,,100,WORD,"ID",50,carbon,CARBON,m,,,,,,0.199604492,-0.273691406,0,0,0,,0,122,122,99,1,
,,,,,,,,,,,,,,,,,,5f2aed37c08ef8437c72aa73,2020-08-10_16h04.39.001,lexical_decision_task_MP,2020.1.3,MacIntel,60,m,1,0.750945,,,,,,,,0.750945,1,,,,,,31,WORD,"ID",33,weapon,WEAPON,m,,,,,,0.199604492,-0.273691406,0,0,0,,0,123,123,30,1,
,,,,,,,,,,,,,,,,,,5f2aed37c08ef8437c72aa73,2020-08-10_16h04.39.001,lexical_decision_task_MP,2020.1.3,MacIntel,60,z,1,0.670815,,,,,,,,0.670815,1,,,,,,259,NW,"ID",33,soudal,SOUDAL,z,,,,,,0.199604492,-0.273691406,0,0,0,,0,124,124,258,1,
,,,,,,,,,,,,,,,,,,5f2aed37c08ef8437c72aa73,2020-08-10_16h04.39.001,lexical_decision_task_MP,2020.1.3,MacIntel,60,z,1,0.71676,,,,,,,,0.71676,1,,,,,,389,NW,UN,33,hatrus,WITMER,z,,,,,,0.199604492,-0.273691406,0,0,0,,0,125,125,388,1,
,,,,,,,,,,,,,,,,,,5f2aed37c08ef8437c72aa73,2020-08-10_16h04.39.001,lexical_decision_task_MP,2020.1.3,MacIntel,60,m,1,0.637955,,,,,,,,0.637955,1,,,,,,203,WORD,UN,50,burden,PHRASE,m,,,,,,0.199604492,-0.273691406,0,0,0,,0,126,126,202,1,
,,,,,,,,,,,,,,,,,,5f2aed37c08ef8437c72aa73,2020-08-10_16h04.39.001,lexical_decision_task_MP,2020.1.3,MacIntel,60,m,1,0.53527,,,,,,,,0.53527,1,,,,,,90,WORD,"ID",50,relish,RELISH,m,,,,,,0.199604492,-0.273691406,0,0,0,,0,127,127,89,1,
,,,,,,,,,,,,,,,,,,5f2aed37c08ef8437c72aa73,2020-08-10_16h04.39.001,lexical_decision_task_MP,2020.1.3,MacIntel,60,m,0,0.67072,,,,,,,,0.67072,0,,,,,,348,NW,"ID",50,dumple,DUMPLE,z,,,,,,0.199604492,-0.273691406,0,0,0,,0,128,128,347,1,
,,,,,,,,,,,,,,,,,,5f2aed37c08ef8437c72aa73,2020-08-10_16h04.39.001,lexical_decision_task_MP,2020.1.3,MacIntel,60,m,1,0.567025,,,,,,,,0.567025,1,,,,,,234,WORD,UN,50,lumber,CLUMSY,m,,,,,,0.199604492,-0.273691406,0,0,0,,0,129,129,233,1,
,,,,,,,,,,,,,,,,,,5f2aed37c08ef8437c72aa73,2020-08-10_16h04.39.001,lexical_decision_task_MP,2020.1.3,MacIntel,60,z,1,0.687005,,,,,,,,0.687005,1,,,,,,478,NW,UN,50,lobush,ACRISE,z,,,,,,0.199604492,-0.273691406,0,0,0,,0,130,130,477,1,
,,,,,,,,,,,,,,,,,,5f2aed37c08ef8437c72aa73,2020-08-10_16h04.39.001,lexical_decision_task_MP,2020.1.3,MacIntel,60,m,1,0.568615,,,,,,,,0.568615,1,,,,,,110,WORD,"ID",50,polite,POLITE,m,,,,,,0.199604492,-0.273691406,0,0,0,,0,131,131,109,1,
,,,,,,,,,,,,,,,,,,5f2aed37c08ef8437c72aa73,2020-08-10_16h04.39.001,lexical_decision_task_MP,2020.1.3,MacIntel,60,m,1,0.51998,,,,,,,,0.51998,1,,,,,,33,WORD,"ID",33,butler,BUTLER,m,,,,,,0.199604492,-0.273691406,0,0,0,,0,132,132,32,1,
,,,,,,,,,,,,,,,,,,5f2aed37c08ef8437c72aa73,2020-08-10_16h04.39.001,lexical_decision_task_MP,2020.1.3,MacIntel,60,m,1,0.533215,,,,,,,,0.533215,1,,,,,,64,WORD,"ID",50,throne,THRONE,m,,,,,,0.199604492,-0.273691406,0,0,0,,0,133,133,63,1,
,,,,,,,,,,,,,,,,,,5f2aed37c08ef8437c72aa73,2020-08-10_16h04.39.001,lexical_decision_task_MP,2020.1.3,MacIntel,60,z,1,0.75403,,,,,,,,0.75403,1,,,,,,292,NW,"ID",33,ablint,ABLINT,z,,,,,,0.199604492,-0.273691406,0,0,0,,0,134,134,291,1,
,,,,,,,,,,,,,,,,,,5f2aed37c08ef8437c72aa73,2020-08-10_16h04.39.001,lexical_decision_task_MP,2020.1.3,MacIntel,60,z,1,0.672485,,,,,,,,0.672485,1,,,,,,295,NW,"ID",33,gleath,GLEATH,z,,,,,,0.199604492,-0.273691406,0,0,0,,0,135,135,294,1,
,,,,,,,,,,,,,,,,,,5f2aed37c08ef8437c72aa73,2020-08-10_16h04.39.001,lexical_decision_task_MP,2020.1.3,MacIntel,60,m,1,0.54944,,,,,,,,0.54944,1,,,,,,233,WORD,UN,50,clumsy,NATURE,m,,,,,,0.199604492,-0.273691406,0,0,0,,0,136,136,232,1,
,,,,,,,,,,,,,,,,,,5f2aed37c08ef8437c72aa73,2020-08-10_16h04.39.001,lexical_decision_task_MP,2020.1.3,MacIntel,60,m,1,0.74938,,,,,,,,0.74938,1,,,,,,127,WORD,UN,33,senior,CASTLE,m,,,,,,0.199604492,-0.273691406,0,0,0,,0,137,137,126,1,
,,,,,,,,,,,,,,,,,,5f2aed37c08ef8437c72aa73,2020-08-10_16h04.39.001,lexical_decision_task_MP,2020.1.3,MacIntel,60,m,1,0.499895,,,,,,,,0.499895,1,,,,,,36,WORD,"ID",33,vanish,VANISH,m,,,,,,0.199604492,-0.273691406,0,0,0,,0,138,138,35,1,
,,,,,,,,,,,,,,,,,,5f2aed37c08ef8437c72aa73,2020-08-10_16h04.39.001,lexical_decision_task_MP,2020.1.3,MacIntel,60,z,1,0.59977,,,,,,,,0.59977,1,,,,,,397,NW,UN,33,blunde,CAMBLE,z,,,,,,0.199604492,-0.273691406,0,0,0,,0,139,139,396,1,
,,,,,,,,,,,,,,,,,,5f2aed37c08ef8437c72aa73,2020-08-10_16h04.39.001,lexical_decision_task_MP,2020.1.3,MacIntel,60,z,1,0.616095,,,,,,,,0.616095,1,,,,,,465,NW,UN,50,hocite,WHIVEX,z,,,,,,0.199604492,-0.273691406,0,0,0,,0,140,140,464,1,
,,,,,,,,,,,,,,,,,,5f2aed37c08ef8437c72aa73,2020-08-10_16h04.39.001,lexical_decision_task_MP,2020.1.3,MacIntel,60,z,1,0.65063,,,,,,,,0.65063,1,,,,,,444,NW,UN,50,minkel,JAUNCE,z,,,,,,0.199604492,-0.273691406,0,0,0,,0,141,141,443,1,
,,,,,,,,,,,,,,,,,,5f2aed37c08ef8437c72aa73,2020-08-10_16h04.39.001,lexical_decision_task_MP,2020.1.3,MacIntel,60,m,1,0.49889,,,,,,,,0.49889,1,,,,,,88,WORD,"ID",50,hunger,HUNGER,m,,,,,,0.199604492,-0.273691406,0,0,0,,0,142,142,87,1,
,,,,,,,,,,,,,,,,,,5f2aed37c08ef8437c72aa73,2020-08-10_16h04.39.001,lexical_decision_task_MP,2020.1.3,MacIntel,60,m,1,0.504795,,,,,,,,0.504795,1,,,,,,106,WORD,"ID",50,ransom,RANSOM,m,,,,,,0.199604492,-0.273691406,0,0,0,,0,143,143,105,1,
,,,,,,,,,,,,,,,,,,5f2aed37c08ef8437c72aa73,2020-08-10_16h04.39.001,lexical_decision_task_MP,2020.1.3,MacIntel,60,m,1,0.56675,,,,,,,,0.56675,1,,,,,,165,WORD,UN,33,starch,INVEST,m,,,,,,0.199604492,-0.273691406,0,0,0,,0,144,144,164,1,
,,,,,,,,,,,,,,,,,,5f2aed37c08ef8437c72aa73,2020-08-10_16h04.39.001,lexical_decision_task_MP,2020.1.3,MacIntel,60,z,1,0.567065,,,,,,,,0.567065,1,,,,,,381,NW,UN,33,sarley,HUNIEK,z,,,,,,0.199604492,-0.273691406,0,0,0,,0,145,145,380,1,
,,,,,,,,,,,,,,,,,,5f2aed37c08ef8437c72aa73,2020-08-10_16h04.39.001,lexical_decision_task_MP,2020.1.3,MacIntel,60,m,1,0.585325,,,,,,,,0.585325,1,,,,,,56,WORD,"ID",33,ambush,AMBUSH,m,,,,,,0.199604492,-0.273691406,0,0,0,,0,146,146,55,1,
,,,,,,,,,,,,,,,,,,5f2aed37c08ef8437c72aa73,2020-08-10_16h04.39.001,lexical_decision_task_MP,2020.1.3,MacIntel,60,z,1,0.734605,,,,,,,,0.734605,1,,,,,,452,NW,UN,50,bolvis,SURDEN,z,,,,,,0.199604492,-0.273691406,0,0,0,,0,147,147,451,1,
,,,,,,,,,,,,,,,,,,5f2aed37c08ef8437c72aa73,2020-08-10_16h04.39.001,lexical_decision_task_MP,2020.1.3,MacIntel,60,m,0,0.551355,,,,,,,,0.551355,0,,,,,,421,NW,UN,50,alcoud,KNISMA,z,,,,,,0.199604492,-0.273691406,0,0,0,,0,148,148,420,1,
,,,,,,,,,,,,,,,,,,5f2aed37c08ef8437c72aa73,2020-08-10_16h04.39.001,lexical_decision_task_MP,2020.1.3,MacIntel,60,m,1,0.615875,,,,,,,,0.615875,1,,,,,,167,WORD,UN,33,answer,DESIGN,m,,,,,,0.199604492,-0.273691406,0,0,0,,0,149,149,166,1,
,,,,,,,,,,,,,,,,,,5f2aed37c08ef8437c72aa73,2020-08-10_16h04.39.001,lexical_decision_task_MP,2020.1.3,MacIntel,60,m,1,0.78515,,,,,,,,0.78515,1,,,,,,118,WORD,"ID",50,flight,FLIGHT,m,,,,,,0.199604492,-0.273691406,0,0,0,,0,150,150,117,1,
,,,,,,,,,,,,,,,,,,5f2aed37c08ef8437c72aa73,2020-08-10_16h04.39.001,lexical_decision_task_MP,2020.1.3,MacIntel,60,m,0,0.516115,,,,,,,,0.516115,0,,,,,,335,NW,"ID",50,desion,DESION,z,,,,,,0.199604492,-0.273691406,0,0,0,,0,151,151,334,1,
,,,,,,,,,,,,,,,,,,5f2aed37c08ef8437c72aa73,2020-08-10_16h04.39.001,lexical_decision_task_MP,2020.1.3,MacIntel,60,z,1,0.68876,,,,,,,,0.68876,1,,,,,,474,NW,UN,50,gorbie,HABLIN,z,,,,,,0.199604492,-0.273691406,0,0,0,,0,152,152,473,1,
,,,,,,,,,,,,,,,,,,5f2aed37c08ef8437c72aa73,2020-08-10_16h04.39.001,lexical_decision_task_MP,2020.1.3,MacIntel,60,z,1,0.61958,,,,,,,,0.61958,1,,,,,,437,NW,UN,50,baitch,SNAPEL,z,,,,,,0.199604492,-0.273691406,0,0,0,,0,153,153,436,1,
,,,,,,,,,,,,,,,,,,5f2aed37c08ef8437c72aa73,2020-08-10_16h04.39.001,lexical_decision_task_MP,2020.1.3,MacIntel,60,m,1,0.6328,,,,,,,,0.6328,1,,,,,,240,WORD,UN,50,glance,FOREST,m,,,,,,0.199604492,-0.273691406,0,0,0,,0,154,154,239,1,
,,,,,,,,,,,,,,,,,,5f2aed37c08ef8437c72aa73,2020-08-10_16h04.39.001,lexical_decision_task_MP,2020.1.3,MacIntel,60,m,0,0.91684,,,,,,,,0.91684,0,,,,,,433,NW,UN,50,pitrom,DRANCE,z,,,,,,0.199604492,-0.273691406,0,0,0,,0,155,155,432,1,
,,,,,,,,,,,,,,,,,,5f2aed37c08ef8437c72aa73,2020-08-10_16h04.39.001,lexical_decision_task_MP,2020.1.3,MacIntel,60,m,1,0.571655,,,,,,,,0.571655,1,,,,,,150,WORD,UN,33,mystic,RANDOM,m,,,,,,0.199604492,-0.273691406,0,0,0,,0,156,156,149,1,
,,,,,,,,,,,,,,,,,,5f2aed37c08ef8437c72aa73,2020-08-10_16h04.39.001,lexical_decision_task_MP,2020.1.3,MacIntel,60,m,1,0.667035,,,,,,,,0.667035,1,,,,,,87,WORD,"ID",50,filter,FILTER,m,,,,,,0.199604492,-0.273691406,0,0,0,,0,157,157,86,1,
,,,,,,,,,,,,,,,,,,5f2aed37c08ef8437c72aa73,2020-08-10_16h04.39.001,lexical_decision_task_MP,2020.1.3,MacIntel,60,z,1,0.64967,,,,,,,,0.64967,1,,,,,,252,NW,"ID",33,stapod,STAPOD,z,,,,,,0.199604492,-0.273691406,0,0,0,,0,158,158,251,1,
,,,,,,,,,,,,,,,,,,5f2aed37c08ef8437c72aa73,2020-08-10_16h04.39.001,lexical_decision_task_MP,2020.1.3,MacIntel,60,z,1,0.749435,,,,,,,,0.749435,1,,,,,,322,NW,"ID",50,slanch,SLANCH,z,,,,,,0.199604492,-0.273691406,0,0,0,,0,159,159,321,1,
,,,,,,,,,,,,,,,,,,5f2aed37c08ef8437c72aa73,2020-08-10_16h04.39.001,lexical_decision_task_MP,2020.1.3,MacIntel,60,m,1,0.734135,,,,,,,,0.734135,1,,,,,,236,WORD,UN,50,poster,PIRATE,m,,,,,,0.199604492,-0.273691406,0,0,0,,0,160,160,235,1,
,,,,,,,,,,,,,,,,,,5f2aed37c08ef8437c72aa73,2020-08-10_16h04.39.001,lexical_decision_task_MP,2020.1.3,MacIntel,60,z,1,0.699105,,,,,,,,0.699105,1,,,,,,457,NW,UN,50,barcet,WANIGH,z,,,,,,0.199604492,-0.273691406,0,0,0,,0,161,161,456,1,
,,,,,,,,,,,,,,,,,,5f2aed37c08ef8437c72aa73,2020-08-10_16h04.39.001,lexical_decision_task_MP,2020.1.3,MacIntel,60,z,1,0.567395,,,,,,,,0.567395,1,,,,,,406,NW,UN,33,suiver,NOUPLY,z,,,,,,0.199604492,-0.273691406,0,0,0,,0,162,162,405,1,
,,,,,,,,,,,,,,,,,,5f2aed37c08ef8437c72aa73,2020-08-10_16h04.39.001,lexical_decision_task_MP,2020.1.3,MacIntel,60,z,1,0.599625,,,,,,,,0.599625,1,,,,,,282,NW,"ID",33,porlex,PORLEX,z,,,,,,0.199604492,-0.273691406,0,0,0,,0,163,163,281,1,
,,,,,,,,,,,,,,,,,,5f2aed37c08ef8437c72aa73,2020-08-10_16h04.39.001,lexical_decision_task_MP,2020.1.3,MacIntel,60,m,1,0.498965,,,,,,,,0.498965,1,,,,,,120,WORD,"ID",50,strain,STRAIN,m,,,,,,0.199604492,-0.273691406,0,0,0,,0,164,164,119,1,
,,,,,,,,,,,,,,,,,,5f2aed37c08ef8437c72aa73,2020-08-10_16h04.39.001,lexical_decision_task_MP,2020.1.3,MacIntel,60,z,0,0.80122,,,,,,,,0.80122,0,,,,,,134,WORD,UN,33,import,STAPLE,m,,,,,,0.199604492,-0.273691406,0,0,0,,0,165,165,133,1,
,,,,,,,,,,,,,,,,,,5f2aed37c08ef8437c72aa73,2020-08-10_16h04.39.001,lexical_decision_task_MP,2020.1.3,MacIntel,60,z,1,0.65267,,,,,,,,0.65267,1,,,,,,374,NW,UN,33,yorque,SLIANT,z,,,,,,0.199604492,-0.273691406,0,0,0,,0,166,166,373,1,
,,,,,,,,,,,,,,,,,,5f2aed37c08ef8437c72aa73,2020-08-10_16h04.39.001,lexical_decision_task_MP,2020.1.3,MacIntel,60,z,1,0.64928,,,,,,,,0.64928,1,,,,,,331,NW,"ID",50,gilfew,GILFEW,z,,,,,,0.199604492,-0.273691406,0,0,0,,0,167,167,330,1,
,,,,,,,,,,,,,,,,,,5f2aed37c08ef8437c72aa73,2020-08-10_16h04.39.001,lexical_decision_task_MP,2020.1.3,MacIntel,60,m,1,0.518605,,,,,,,,0.518605,1,,,,,,26,WORD,"ID",33,sprint,SPRINT,m,,,,,,0.199604492,-0.273691406,0,0,0,,0,168,168,25,1,
,,,,,,,,,,,,,,,,,,5f2aed37c08ef8437c72aa73,2020-08-10_16h04.39.001,lexical_decision_task_MP,2020.1.3,MacIntel,60,z,1,0.598785,,,,,,,,0.598785,1,,,,,,326,NW,"ID",50,iguade,IGUADE,z,,,,,,0.199604492,-0.273691406,0,0,0,,0,169,169,325,1,
,,,,,,,,,,,,,,,,,,5f2aed37c08ef8437c72aa73,2020-08-10_16h04.39.001,lexical_decision_task_MP,2020.1.3,MacIntel,60,z,1,0.62086,,,,,,,,0.62086,1,,,,,,325,NW,"ID",50,thruse,THRUSE,z,,,,,,0.199604492,-0.273691406,0,0,0,,0,170,170,324,1,
,,,,,,,,,,,,,,,,,,5f2aed37c08ef8437c72aa73,2020-08-10_16h04.39.001,lexical_decision_task_MP,2020.1.3,MacIntel,60,z,1,0.683505,,,,,,,,0.683505,1,,,,,,400,NW,UN,33,mustil,WEAROX,z,,,,,,0.199604492,-0.273691406,0,0,0,,0,171,171,399,1,
,,,,,,,,,,,,,,,,,,5f2aed37c08ef8437c72aa73,2020-08-10_16h04.39.001,lexical_decision_task_MP,2020.1.3,MacIntel,60,m,1,0.60033,,,,,,,,0.60033,1,,,,,,112,WORD,"ID",50,breath,BREATH,m,,,,,,0.199604492,-0.273691406,0,0,0,,0,172,172,111,1,
,,,,,,,,,,,,,,,,,,5f2aed37c08ef8437c72aa73,2020-08-10_16h04.39.001,lexical_decision_task_MP,2020.1.3,MacIntel,60,z,1,0.602935,,,,,,,,0.602935,1,,,,,,388,NW,UN,33,witmer,CRAGIN,z,,,,,,0.199604492,-0.273691406,0,0,0,,0,173,173,387,1,
,,,,,,,,,,,,,,,,,,5f2aed37c08ef8437c72aa73,2020-08-10_16h04.39.001,lexical_decision_task_MP,2020.1.3,MacIntel,60,z,1,0.62129,,,,,,,,0.62129,1,,,,,,254,NW,"ID",33,varosh,VAROSH,z,,,,,,0.199604492,-0.273691406,0,0,0,,0,174,174,253,1,
,,,,,,,,,,,,,,,,,,5f2aed37c08ef8437c72aa73,2020-08-10_16h04.39.001,lexical_decision_task_MP,2020.1.3,MacIntel,60,m,1,0.73929,,,,,,,,0.73929,1,,,,,,204,WORD,UN,50,lounge,BURDEN,m,,,,,,0.199604492,-0.273691406,0,0,0,,0,175,175,203,1,
,,,,,,,,,,,,,,,,,,5f2aed37c08ef8437c72aa73,2020-08-10_16h04.39.001,lexical_decision_task_MP,2020.1.3,MacIntel,60,z,1,0.733275,,,,,,,,0.733275,1,,,,,,307,NW,"ID",50,kirafe,KIRAFE,z,,,,,,0.199604492,-0.273691406,0,0,0,,0,176,176,306,1,
,,,,,,,,,,,,,,,,,,5f2aed37c08ef8437c72aa73,2020-08-10_16h04.39.001,lexical_decision_task_MP,2020.1.3,MacIntel,60,z,0,0.78475,,,,,,,,0.78475,0,,,,,,166,WORD,UN,33,design,STARCH,m,,,,,,0.199604492,-0.273691406,0,0,0,,0,177,177,165,1,
,,,,,,,,,,,,,,,,,,5f2aed37c08ef8437c72aa73,2020-08-10_16h04.39.001,lexical_decision_task_MP,2020.1.3,MacIntel,60,m,1,0.58478,,,,,,,,0.58478,1,,,,,,162,WORD,UN,33,string,CANDLE,m,,,,,,0.199604492,-0.273691406,0,0,0,,0,178,178,161,1,
,,,,,,,,,,,,,,,,,,5f2aed37c08ef8437c72aa73,2020-08-10_16h04.39.001,lexical_decision_task_MP,2020.1.3,MacIntel,60,m,1,0.46766,,,,,,,,0.46766,1,,,,,,154,WORD,UN,33,lizard,AUTHOR,m,,,,,,0.199604492,-0.273691406,0,0,0,,0,179,179,153,1,
,,,,,,,,,,,,,,,,,,5f2aed37c08ef8437c72aa73,2020-08-10_16h04.39.001,lexical_decision_task_MP,2020.1.3,MacIntel,60,z,1,0.685865,,,,,,,,0.685865,1,,,,,,428,NW,UN,50,chrums,TANDLY,z,,,,,,0.199604492,-0.273691406,0,0,0,,0,180,180,427,1,
,,,,,,,,,,,,,,,,,,5f2aed37c08ef8437c72aa73,2020-08-10_16h04.39.001,lexical_decision_task_MP,2020.1.3,MacIntel,60,z,1,0.867365,,,,,,,,0.867365,1,,,,,,460,NW,UN,50,justre,MINGAR,z,,,,,,0.199604492,-0.273691406,0,0,0,,0,181,181,459,1,
,,,,,,,,,,,,,,,,,,5f2aed37c08ef8437c72aa73,2020-08-10_16h04.39.001,lexical_decision_task_MP,2020.1.3,MacIntel,60,m,1,0.73512,,,,,,,,0.73512,1,,,,,,222,WORD,UN,50,casino,HINDER,m,,,,,,0.199604492,-0.273691406,0,0,0,,0,182,182,221,1,
,,,,,,,,,,,,,,,,,,5f2aed37c08ef8437c72aa73,2020-08-10_16h04.39.001,lexical_decision_task_MP,2020.1.3,MacIntel,60,m,1,0.60001,,,,,,,,0.60001,1,,,,,,40,WORD,"ID",33,convey,CONVEY,m,,,,,,0.199604492,-0.273691406,0,0,0,,0,183,183,39,1,
,,,,,,,,,,,,,,,,,,5f2aed37c08ef8437c72aa73,2020-08-10_16h04.39.001,lexical_decision_task_MP,2020.1.3,MacIntel,60,m,1,0.683695,,,,,,,,0.683695,1,,,,,,189,WORD,UN,50,backup,CENSOR,m,,,,,,0.199604492,-0.273691406,0,0,0,,0,184,184,188,1,
,,,,,,,,,,,,,,,,,,5f2aed37c08ef8437c72aa73,2020-08-10_16h04.39.001,lexical_decision_task_MP,2020.1.3,MacIntel,60,m,1,0.500325,,,,,,,,0.500325,1,,,,,,29,WORD,"ID",33,sketch,SKETCH,m,,,,,,0.199604492,-0.273691406,0,0,0,,0,185,185,28,1,
,,,,,,,,,,,,,,,,,,5f2aed37c08ef8437c72aa73,2020-08-10_16h04.39.001,lexical_decision_task_MP,2020.1.3,MacIntel,60,z,1,0.58614,,,,,,,,0.58614,1,,,,,,279,NW,"ID",33,celond,CELOND,z,,,,,,0.199604492,-0.273691406,0,0,0,,0,186,186,278,1,
,,,,,,,,,,,,,,,,,,5f2aed37c08ef8437c72aa73,2020-08-10_16h04.39.001,lexical_decision_task_MP,2020.1.3,MacIntel,60,m,1,0.584845,,,,,,,,0.584845,1,,,,,,209,WORD,UN,50,monkey,SEARCH,m,,,,,,0.199604492,-0.273691406,0,0,0,,0,187,187,208,1,
,,,,,,,,,,,,,,,,,,5f2aed37c08ef8437c72aa73,2020-08-10_16h04.39.001,lexical_decision_task_MP,2020.1.3,MacIntel,60,z,1,0.685825,,,,,,,,0.685825,1,,,,,,359,NW,"ID",50,fonver,FONVER,z,,,,,,0.199604492,-0.273691406,0,0,0,,0,188,188,358,1,
,,,,,,,,,,,,,,,,,,5f2aed37c08ef8437c72aa73,2020-08-10_16h04.39.001,lexical_decision_task_MP,2020.1.3,MacIntel,60,m,1,0.505795,,,,,,,,0.505795,1,,,,,,81,WORD,"ID",50,friend,FRIEND,m,,,,,,0.199604492,-0.273691406,0,0,0,,0,189,189,80,1,
,,,,,,,,,,,,,,,,,,5f2aed37c08ef8437c72aa73,2020-08-10_16h04.39.001,lexical_decision_task_MP,2020.1.3,MacIntel,60,m,1,0.583685,,,,,,,,0.583685,1,,,,,,86,WORD,"ID",50,rodent,RODENT,m,,,,,,0.199604492,-0.273691406,0,0,0,,0,190,190,85,1,
,,,,,,,,,,,,,,,,,,5f2aed37c08ef8437c72aa73,2020-08-10_16h04.39.001,lexical_decision_task_MP,2020.1.3,MacIntel,60,m,1,0.8504,,,,,,,,0.8504,1,,,,,,185,WORD,UN,50,portal,BOTHER,m,,,,,,0.199604492,-0.273691406,0,0,0,,0,191,191,184,1,
,,,,,,,,,,,,,,,,,,5f2aed37c08ef8437c72aa73,2020-08-10_16h04.39.001,lexical_decision_task_MP,2020.1.3,MacIntel,60,m,1,0.74002,,,,,,,,0.74002,1,,,,,,2,WORD,"ID",33,bridge,BRIDGE,m,,,,,,0.199604492,-0.273691406,0,0,0,,0,192,192,1,1,
,,,,,,,,,,,,,,,,,,5f2aed37c08ef8437c72aa73,2020-08-10_16h04.39.001,lexical_decision_task_MP,2020.1.3,MacIntel,60,z,1,0.733865,,,,,,,,0.733865,1,,,,,,387,NW,UN,33,cragin,GRONCE,z,,,,,,0.199604492,-0.273691406,0,0,0,,0,193,193,386,1,
,,,,,,,,,,,,,,,,,,5f2aed37c08ef8437c72aa73,2020-08-10_16h04.39.001,lexical_decision_task_MP,2020.1.3,MacIntel,60,z,1,0.72125,,,,,,,,0.72125,1,,,,,,459,NW,UN,50,mingar,BAFENT,z,,,,,,0.199604492,-0.273691406,0,0,0,,0,194,194,458,1,
,,,,,,,,,,,,,,,,,,5f2aed37c08ef8437c72aa73,2020-08-10_16h04.39.001,lexical_decision_task_MP,2020.1.3,MacIntel,60,m,1,0.566935,,,,,,,,0.566935,1,,,,,,27,WORD,"ID",33,scream,SCREAM,m,,,,,,0.199604492,-0.273691406,0,0,0,,0,195,195,26,1,
,,,,,,,,,,,,,,,,,,5f2aed37c08ef8437c72aa73,2020-08-10_16h04.39.001,lexical_decision_task_MP,2020.1.3,MacIntel,60,z,1,0.78672,,,,,,,,0.78672,1,,,,,,265,NW,"ID",33,distar,DISTAR,z,,,,,,0.199604492,-0.273691406,0,0,0,,0,196,196,264,1,
,,,,,,,,,,,,,,,,,,5f2aed37c08ef8437c72aa73,2020-08-10_16h04.39.001,lexical_decision_task_MP,2020.1.3,MacIntel,60,m,1,0.602285,,,,,,,,0.602285,1,,,,,,82,WORD,"ID",50,stigma,STIGMA,m,,,,,,0.199604492,-0.273691406,0,0,0,,0,197,197,81,1,
,,,,,,,,,,,,,,,,,,5f2aed37c08ef8437c72aa73,2020-08-10_16h04.39.001,lexical_decision_task_MP,2020.1.3,MacIntel,60,m,1,0.51823,,,,,,,,0.51823,1,,,,,,34,WORD,"ID",33,jungle,JUNGLE,m,,,,,,0.199604492,-0.273691406,0,0,0,,0,198,198,33,1,
,,,,,,,,,,,,,,,,,,5f2aed37c08ef8437c72aa73,2020-08-10_16h04.39.001,lexical_decision_task_MP,2020.1.3,MacIntel,60,z,1,0.749215,,,,,,,,0.749215,1,,,,,,413,NW,UN,33,serbol,EQUATS,z,,,,,,0.199604492,-0.273691406,0,0,0,,0,199,199,412,1,
,,,,,,,,,,,,,,,,,,5f2aed37c08ef8437c72aa73,2020-08-10_16h04.39.001,lexical_decision_task_MP,2020.1.3,MacIntel,60,z,1,0.61594,,,,,,,,0.61594,1,,,,,,451,NW,UN,50,surden,CAINKY,z,,,,,,0.199604492,-0.273691406,0,0,0,,0,200,200,450,1,
,,,,,,,,,,,,,,,,,,5f2aed37c08ef8437c72aa73,2020-08-10_16h04.39.001,lexical_decision_task_MP,2020.1.3,MacIntel,60,z,1,0.58377,,,,,,,,0.58377,1,,,,,,372,NW,UN,33,bigent,RAMILY,z,,,,,,0.199604492,-0.273691406,0,0,0,,0,201,201,371,1,
,,,,,,,,,,,,,,,,,,5f2aed37c08ef8437c72aa73,2020-08-10_16h04.39.001,lexical_decision_task_MP,2020.1.3,MacIntel,60,z,1,0.61604,,,,,,,,0.61604,1,,,,,,315,NW,"ID",50,laston,LASTON,z,,,,,,0.199604492,-0.273691406,0,0,0,,0,202,202,314,1,
,,,,,,,,,,,,,,,,,,5f2aed37c08ef8437c72aa73,2020-08-10_16h04.39.001,lexical_decision_task_MP,2020.1.3,MacIntel,60,z,1,0.64865,,,,,,,,0.64865,1,,,,,,423,NW,UN,50,praile,STRELD,z,,,,,,0.199604492,-0.273691406,0,0,0,,0,203,203,422,1,
,,,,,,,,,,,,,,,,,,5f2aed37c08ef8437c72aa73,2020-08-10_16h04.39.001,lexical_decision_task_MP,2020.1.3,MacIntel,60,z,1,0.62068,,,,,,,,0.62068,1,,,,,,408,NW,UN,33,flumni,HURNIA,z,,,,,,0.199604492,-0.273691406,0,0,0,,0,204,204,407,1,
,,,,,,,,,,,,,,,,,,5f2aed37c08ef8437c72aa73,2020-08-10_16h04.39.001,lexical_decision_task_MP,2020.1.3,MacIntel,60,z,1,1.0502,,,,,,,,1.0502,1,,,,,,249,NW,"ID",33,batrol,BATROL,z,,,,,,0.199604492,-0.273691406,0,0,0,,0,205,205,248,1,
,,,,,,,,,,,,,,,,,,5f2aed37c08ef8437c72aa73,2020-08-10_16h04.39.001,lexical_decision_task_MP,2020.1.3,MacIntel,60,m,1,0.532985,,,,,,,,0.532985,1,,,,,,102,WORD,"ID",50,direct,DIRECT,m,,,,,,0.199604492,-0.273691406,0,0,0,,0,206,206,101,1,
,,,,,,,,,,,,,,,,,,5f2aed37c08ef8437c72aa73,2020-08-10_16h04.39.001,lexical_decision_task_MP,2020.1.3,MacIntel,60,m,1,0.58347,,,,,,,,0.58347,1,,,,,,131,WORD,UN,33,strong,QUENCH,m,,,,,,0.199604492,-0.273691406,0,0,0,,0,207,207,130,1,
,,,,,,,,,,,,,,,,,,5f2aed37c08ef8437c72aa73,2020-08-10_16h04.39.001,lexical_decision_task_MP,2020.1.3,MacIntel,60,m,1,0.565645,,,,,,,,0.565645,1,,,,,,119,WORD,"ID",50,spider,SPIDER,m,,,,,,0.199604492,-0.273691406,0,0,0,,0,208,208,118,1,
,,,,,,,,,,,,,,,,,,5f2aed37c08ef8437c72aa73,2020-08-10_16h04.39.001,lexical_decision_task_MP,2020.1.3,MacIntel,60,z,1,0.966175,,,,,,,,0.966175,1,,,,,,298,NW,"ID",33,piergy,PIERGY,z,,,,,,0.199604492,-0.273691406,0,0,0,,0,209,209,297,1,
,,,,,,,,,,,,,,,,,,5f2aed37c08ef8437c72aa73,2020-08-10_16h04.39.001,lexical_decision_task_MP,2020.1.3,MacIntel,60,m,1,0.56931,,,,,,,,0.56931,1,,,,,,59,WORD,"ID",33,splint,SPLINT,m,,,,,,0.199604492,-0.273691406,0,0,0,,0,210,210,58,1,
,,,,,,,,,,,,,,,,,,5f2aed37c08ef8437c72aa73,2020-08-10_16h04.39.001,lexical_decision_task_MP,2020.1.3,MacIntel,60,m,1,0.505985,,,,,,,,0.505985,1,,,,,,47,WORD,"ID",33,income,INCOME,m,,,,,,0.199604492,-0.273691406,0,0,0,,0,211,211,46,1,
,,,,,,,,,,,,,,,,,,5f2aed37c08ef8437c72aa73,2020-08-10_16h04.39.001,lexical_decision_task_MP,2020.1.3,MacIntel,60,z,1,0.69939,,,,,,,,0.69939,1,,,,,,309,NW,"ID",50,amiloy,AMILOY,z,,,,,,0.199604492,-0.273691406,0,0,0,,0,212,212,308,1,
,,,,,,,,,,,,,,,,,,5f2aed37c08ef8437c72aa73,2020-08-10_16h04.39.001,lexical_decision_task_MP,2020.1.3,MacIntel,60,m,1,0.516935,,,,,,,,0.516935,1,,,,,,85,WORD,"ID",50,sprawl,SPRAWL,m,,,,,,0.199604492,-0.273691406,0,0,0,,0,213,213,84,1,
,,,,,,,,,,,,,,,,,,5f2aed37c08ef8437c72aa73,2020-08-10_16h04.39.001,lexical_decision_task_MP,2020.1.3,MacIntel,60,z,1,0.599625,,,,,,,,0.599625,1,,,,,,336,NW,"ID",50,ghodus,GHODUS,z,,,,,,0.199604492,-0.273691406,0,0,0,,0,214,214,335,1,
,,,,,,,,,,,,,,,,,,5f2aed37c08ef8437c72aa73,2020-08-10_16h04.39.001,lexical_decision_task_MP,2020.1.3,MacIntel,60,m,1,0.566275,,,,,,,,0.566275,1,,,,,,91,WORD,"ID",50,expand,EXPAND,m,,,,,,0.199604492,-0.273691406,0,0,0,,0,215,215,90,1,
,,,,,,,,,,,,,,,,,,5f2aed37c08ef8437c72aa73,2020-08-10_16h04.39.001,lexical_decision_task_MP,2020.1.3,MacIntel,60,m,1,0.81669,,,,,,,,0.81669,1,,,,,,139,WORD,UN,33,prince,DEBRIS,m,,,,,,0.199604492,-0.273691406,0,0,0,,0,216,216,138,1,
,,,,,,,,,,,,,,,,,,5f2aed37c08ef8437c72aa73,2020-08-10_16h04.39.001,lexical_decision_task_MP,2020.1.3,MacIntel,60,m,1,0.480745,,,,,,,,0.480745,1,,,,,,38,WORD,"ID",33,powder,POWDER,m,,,,,,0.199604492,-0.273691406,0,0,0,,0,217,217,37,1,
,,,,,,,,,,,,,,,,,,5f2aed37c08ef8437c72aa73,2020-08-10_16h04.39.001,lexical_decision_task_MP,2020.1.3,MacIntel,60,m,0,0.649285,,,,,,,,0.649285,0,,,,,,462,NW,UN,50,kispel,ABSULT,z,,,,,,0.199604492,-0.273691406,0,0,0,,0,218,218,461,1,
,,,,,,,,,,,,,,,,,,5f2aed37c08ef8437c72aa73,2020-08-10_16h04.39.001,lexical_decision_task_MP,2020.1.3,MacIntel,60,m,1,0.483655,,,,,,,,0.483655,1,,,,,,12,WORD,"ID",33,orange,ORANGE,m,,,,,,0.199604492,-0.273691406,0,0,0,,0,219,219,11,1,
,,,,,,,,,,,,,,,,,,5f2aed37c08ef8437c72aa73,2020-08-10_16h04.39.001,lexical_decision_task_MP,2020.1.3,MacIntel,60,m,1,0.65084,,,,,,,,0.65084,1,,,,,,226,WORD,UN,50,flower,CASINO,m,,,,,,0.199604492,-0.273691406,0,0,0,,0,220,220,225,1,
,,,,,,,,,,,,,,,,,,5f2aed37c08ef8437c72aa73,2020-08-10_16h04.39.001,lexical_decision_task_MP,2020.1.3,MacIntel,60,z,1,0.83367,,,,,,,,0.83367,1,,,,,,302,NW,"ID",50,miluer,MILUER,z,,,,,,0.199604492,-0.273691406,0,0,0,,0,221,221,301,1,
,,,,,,,,,,,,,,,,,,5f2aed37c08ef8437c72aa73,2020-08-10_16h04.39.001,lexical_decision_task_MP,2020.1.3,MacIntel,60,m,1,0.549385,,,,,,,,0.549385,1,,,,,,6,WORD,"ID",33,bundle,BUNDLE,m,,,,,,0.199604492,-0.273691406,0,0,0,,0,222,222,5,1,
,,,,,,,,,,,,,,,,,,5f2aed37c08ef8437c72aa73,2020-08-10_16h04.39.001,lexical_decision_task_MP,2020.1.3,MacIntel,60,m,1,1.034305,,,,,,,,1.034305,1,,,,,,42,WORD,"ID",33,chapel,CHAPEL,m,,,,,,0.199604492,-0.273691406,0,0,0,,0,223,223,41,1,
,,,,,,,,,,,,,,,,,,5f2aed37c08ef8437c72aa73,2020-08-10_16h04.39.001,lexical_decision_task_MP,2020.1.3,MacIntel,60,m,1,0.63267,,,,,,,,0.63267,1,,,,,,220,WORD,UN,50,mascot,VOYAGE,m,,,,,,0.199604492,-0.273691406,0,0,0,,0,224,224,219,1,
,,,,,,,,,,,,,,,,,,5f2aed37c08ef8437c72aa73,2020-08-10_16h04.39.001,lexical_decision_task_MP,2020.1.3,MacIntel,60,m,1,0.63687,,,,,,,,0.63687,1,,,,,,53,WORD,"ID",33,police,POLICE,m,,,,,,0.199604492,-0.273691406,0,0,0,,0,225,225,52,1,
,,,,,,,,,,,,,,,,,,5f2aed37c08ef8437c72aa73,2020-08-10_16h04.39.001,lexical_decision_task_MP,2020.1.3,MacIntel,60,m,1,0.50525,,,,,,,,0.50525,1,,,,,,229,WORD,UN,50,fringe,MOTHER,m,,,,,,0.199604492,-0.273691406,0,0,0,,0,226,226,228,1,
,,,,,,,,,,,,,,,,,,5f2aed37c08ef8437c72aa73,2020-08-10_16h04.39.001,lexical_decision_task_MP,2020.1.3,MacIntel,60,m,1,0.63734,,,,,,,,0.63734,1,,,,,,133,WORD,UN,33,debris,CHROME,m,,,,,,0.199604492,-0.273691406,0,0,0,,0,227,227,132,1,
,,,,,,,,,,,,,,,,,,5f2aed37c08ef8437c72aa73,2020-08-10_16h04.39.001,lexical_decision_task_MP,2020.1.3,MacIntel,60,z,1,0.649865,,,,,,,,0.649865,1,,,,,,317,NW,"ID",50,worbal,WORBAL,z,,,,,,0.199604492,-0.273691406,0,0,0,,0,228,228,316,1,
,,,,,,,,,,,,,,,,,,5f2aed37c08ef8437c72aa73,2020-08-10_16h04.39.001,lexical_decision_task_MP,2020.1.3,MacIntel,60,z,1,0.602745,,,,,,,,0.602745,1,,,,,,278,NW,"ID",33,unighs,UNIGHS,z,,,,,,0.199604492,-0.273691406,0,0,0,,0,229,229,277,1,
,,,,,,,,,,,,,,,,,,5f2aed37c08ef8437c72aa73,2020-08-10_16h04.39.001,lexical_decision_task_MP,2020.1.3,MacIntel,60,m,1,0.515905,,,,,,,,0.515905,1,,,,,,73,WORD,"ID",50,source,SOURCE,m,,,,,,0.199604492,-0.273691406,0,0,0,,0,230,230,72,1,
,,,,,,,,,,,,,,,,,,5f2aed37c08ef8437c72aa73,2020-08-10_16h04.39.001,lexical_decision_task_MP,2020.1.3,MacIntel,60,z,1,0.687365,,,,,,,,0.687365,1,,,,,,458,NW,UN,50,chaite,BARCET,z,,,,,,0.199604492,-0.273691406,0,0,0,,0,231,231,457,1,
,,,,,,,,,,,,,,,,,,5f2aed37c08ef8437c72aa73,2020-08-10_16h04.39.001,lexical_decision_task_MP,2020.1.3,MacIntel,60,z,1,0.585085,,,,,,,,0.585085,1,,,,,,432,NW,UN,50,drance,LUNKER,z,,,,,,0.199604492,-0.273691406,0,0,0,,0,232,232,431,1,
,,,,,,,,,,,,,,,,,,5f2aed37c08ef8437c72aa73,2020-08-10_16h04.39.001,lexical_decision_task_MP,2020.1.3,MacIntel,60,z,1,0.78513,,,,,,,,0.78513,1,,,,,,436,NW,UN,50,snapel,FRUTAN,z,,,,,,0.199604492,-0.273691406,0,0,0,,0,233,233,435,1,
,,,,,,,,,,,,,,,,,,5f2aed37c08ef8437c72aa73,2020-08-10_16h04.39.001,lexical_decision_task_MP,2020.1.3,MacIntel,60,z,1,0.61689,,,,,,,,0.61689,1,,,,,,410,NW,UN,33,orchin,TUNORY,z,,,,,,0.199604492,-0.273691406,0,0,0,,0,234,234,409,1,
,,,,,,,,,,,,,,,,,,5f2aed37c08ef8437c72aa73,2020-08-10_16h04.39.001,lexical_decision_task_MP,2020.1.3,MacIntel,60,m,1,0.5992,,,,,,,,0.5992,1,,,,,,239,WORD,UN,50,forest,LUMBER,m,,,,,,0.199604492,-0.273691406,0,0,0,,0,235,235,238,1,
,,,,,,,,,,,,,,,,,,5f2aed37c08ef8437c72aa73,2020-08-10_16h04.39.001,lexical_decision_task_MP,2020.1.3,MacIntel,60,m,1,0.516175,,,,,,,,0.516175,1,,,,,,72,WORD,"ID",50,bright,BRIGHT,m,,,,,,0.199604492,-0.273691406,0,0,0,,0,236,236,71,1,
,,,,,,,,,,,,,,,,,,5f2aed37c08ef8437c72aa73,2020-08-10_16h04.39.001,lexical_decision_task_MP,2020.1.3,MacIntel,60,z,1,0.670795,,,,,,,,0.670795,1,,,,,,448,NW,UN,50,brunge,SADENT,z,,,,,,0.199604492,-0.273691406,0,0,0,,0,237,237,447,1,
,,,,,,,,,,,,,,,,,,5f2aed37c08ef8437c72aa73,2020-08-10_16h04.39.001,lexical_decision_task_MP,2020.1.3,MacIntel,60,z,1,0.73685,,,,,,,,0.73685,1,,,,,,261,NW,"ID",33,stunch,STUNCH,z,,,,,,0.199604492,-0.273691406,0,0,0,,0,238,238,260,1,
,,,,,,,,,,,,,,,,,,5f2aed37c08ef8437c72aa73,2020-08-10_16h04.39.001,lexical_decision_task_MP,2020.1.3,MacIntel,60,m,1,0.716495,,,,,,,,0.716495,1,,,,,,161,WORD,UN,33,candle,PASTOR,m,,,,,,0.199604492,-0.273691406,0,0,0,,0,239,239,160,1,
,,,,,,,,,,,,,,,,,,5f2aed37c08ef8437c72aa73,2020-08-10_16h04.39.001,lexical_decision_task_MP,2020.1.3,MacIntel,60,m,1,0.50334,,,,,,,,0.50334,1,,,,,,168,WORD,UN,33,genius,ANSWER,m,,,,,,0.199604492,-0.273691406,0,0,0,,0,240,240,167,1,
,,,,,,,,,,,,,,,,,,5f2aed37c08ef8437c72aa73,2020-08-10_16h04.39.001,lexical_decision_task_MP,2020.1.3,MacIntel,60,m,1,0.601895,,,,,,,,0.601895,1,,,,,,237,WORD,UN,50,seldom,POSTER,m,,,,,,0.199604492,-0.273691406,0,0,0,space,0,241,241,236,1,46.40594
,,,,,,,,,,,,,,,,,,5f2aed37c08ef8437c72aa73,2020-08-10_16h04.39.001,lexical_decision_task_MP,2020.1.3,MacIntel,60,m,1,0.499735,,,,,,,,0.499735,1,,,,,,174,WORD,UN,33,fabric,TURKEY,m,,,,,,0.199604492,-0.273691406,0,0,0,,0,242,242,173,1,
,,,,,,,,,,,,,,,,,,5f2aed37c08ef8437c72aa73,2020-08-10_16h04.39.001,lexical_decision_task_MP,2020.1.3,MacIntel,60,z,1,0.549505,,,,,,,,0.549505,1,,,,,,470,NW,UN,50,nobest,CRUDIO,z,,,,,,0.199604492,-0.273691406,0,0,0,,0,243,243,469,1,
,,,,,,,,,,,,,,,,,,5f2aed37c08ef8437c72aa73,2020-08-10_16h04.39.001,lexical_decision_task_MP,2020.1.3,MacIntel,60,m,1,0.53771,,,,,,,,0.53771,1,,,,,,145,WORD,UN,33,couple,PARISH,m,,,,,,0.199604492,-0.273691406,0,0,0,,0,244,244,144,1,
,,,,,,,,,,,,,,,,,,5f2aed37c08ef8437c72aa73,2020-08-10_16h04.39.001,lexical_decision_task_MP,2020.1.3,MacIntel,60,m,1,0.78491,,,,,,,,0.78491,1,,,,,,171,WORD,UN,33,patrol,DEPART,m,,,,,,0.199604492,-0.273691406,0,0,0,,0,245,245,170,1,
,,,,,,,,,,,,,,,,,,5f2aed37c08ef8437c72aa73,2020-08-10_16h04.39.001,lexical_decision_task_MP,2020.1.3,MacIntel,60,m,1,0.469445,,,,,,,,0.469445,1,,,,,,62,WORD,"ID",50,region,REGION,m,,,,,,0.199604492,-0.273691406,0,0,0,,0,246,246,61,1,
,,,,,,,,,,,,,,,,,,5f2aed37c08ef8437c72aa73,2020-08-10_16h04.39.001,lexical_decision_task_MP,2020.1.3,MacIntel,60,z,1,0.76843,,,,,,,,0.76843,1,,,,,,461,NW,UN,50,absult,JUSTRE,z,,,,,,0.199604492,-0.273691406,0,0,0,,0,247,247,460,1,
,,,,,,,,,,,,,,,,,,5f2aed37c08ef8437c72aa73,2020-08-10_16h04.39.001,lexical_decision_task_MP,2020.1.3,MacIntel,60,m,1,0.60608,,,,,,,,0.60608,1,,,,,,107,WORD,"ID",50,slogan,SLOGAN,m,,,,,,0.199604492,-0.273691406,0,0,0,,0,248,248,106,1,
,,,,,,,,,,,,,,,,,,5f2aed37c08ef8437c72aa73,2020-08-10_16h04.39.001,lexical_decision_task_MP,2020.1.3,MacIntel,60,z,1,0.73625,,,,,,,,0.73625,1,,,,,,416,NW,UN,33,earoud,PATHEL,z,,,,,,0.199604492,-0.273691406,0,0,0,,0,249,249,415,1,
,,,,,,,,,,,,,,,,,,5f2aed37c08ef8437c72aa73,2020-08-10_16h04.39.001,lexical_decision_task_MP,2020.1.3,MacIntel,60,z,1,0.671685,,,,,,,,0.671685,1,,,,,,321,NW,"ID",50,miator,MIATOR,z,,,,,,0.199604492,-0.273691406,0,0,0,,0,250,250,320,1,
,,,,,,,,,,,,,,,,,,5f2aed37c08ef8437c72aa73,2020-08-10_16h04.39.001,lexical_decision_task_MP,2020.1.3,MacIntel,60,m,1,0.56901,,,,,,,,0.56901,1,,,,,,23,WORD,"ID",33,wealth,WEALTH,m,,,,,,0.199604492,-0.273691406,0,0,0,,0,251,251,22,1,
,,,,,,,,,,,,,,,,,,5f2aed37c08ef8437c72aa73,2020-08-10_16h04.39.001,lexical_decision_task_MP,2020.1.3,MacIntel,60,z,1,0.717055,,,,,,,,0.717055,1,,,,,,327,NW,"ID",50,plenac,PLENAC,z,,,,,,0.199604492,-0.273691406,0,0,0,,0,252,252,326,1,
,,,,,,,,,,,,,,,,,,5f2aed37c08ef8437c72aa73,2020-08-10_16h04.39.001,lexical_decision_task_MP,2020.1.3,MacIntel,60,z,1,0.70238,,,,,,,,0.70238,1,,,,,,407,NW,UN,33,hurnia,SUIVER,z,,,,,,0.199604492,-0.273691406,0,0,0,,0,253,253,406,1,
,,,,,,,,,,,,,,,,,,5f2aed37c08ef8437c72aa73,2020-08-10_16h04.39.001,lexical_decision_task_MP,2020.1.3,MacIntel,60,m,1,0.55047,,,,,,,,0.55047,1,,,,,,124,WORD,UN,33,nickel,BLOUSE,m,,,,,,0.199604492,-0.273691406,0,0,0,,0,254,254,123,1,
,,,,,,,,,,,,,,,,,,5f2aed37c08ef8437c72aa73,2020-08-10_16h04.39.001,lexical_decision_task_MP,2020.1.3,MacIntel,60,z,1,0.60099,,,,,,,,0.60099,1,,,,,,403,NW,UN,33,cluirm,BRUATS,z,,,,,,0.199604492,-0.273691406,0,0,0,,0,255,255,402,1,
,,,,,,,,,,,,,,,,,,5f2aed37c08ef8437c72aa73,2020-08-10_16h04.39.001,lexical_decision_task_MP,2020.1.3,MacIntel,60,z,1,0.63532,,,,,,,,0.63532,1,,,,,,386,NW,UN,33,gronce,ANCUST,z,,,,,,0.199604492,-0.273691406,0,0,0,,0,256,256,385,1,
,,,,,,,,,,,,,,,,,,5f2aed37c08ef8437c72aa73,2020-08-10_16h04.39.001,lexical_decision_task_MP,2020.1.3,MacIntel,60,m,1,0.532895,,,,,,,,0.532895,1,,,,,,60,WORD,"ID",33,pencil,PENCIL,m,,,,,,0.199604492,-0.273691406,0,0,0,,0,257,257,59,1,
,,,,,,,,,,,,,,,,,,5f2aed37c08ef8437c72aa73,2020-08-10_16h04.39.001,lexical_decision_task_MP,2020.1.3,MacIntel,60,z,1,0.58523,,,,,,,,0.58523,1,,,,,,271,NW,"ID",33,aubrid,AUBRID,z,,,,,,0.199604492,-0.273691406,0,0,0,,0,258,258,270,1,
,,,,,,,,,,,,,,,,,,5f2aed37c08ef8437c72aa73,2020-08-10_16h04.39.001,lexical_decision_task_MP,2020.1.3,MacIntel,60,z,0,0.616155,,,,,,,,0.616155,0,,,,,,32,WORD,"ID",33,buckle,BUCKLE,m,,,,,,0.199604492,-0.273691406,0,0,0,,0,259,259,31,1,
,,,,,,,,,,,,,,,,,,5f2aed37c08ef8437c72aa73,2020-08-10_16h04.39.001,lexical_decision_task_MP,2020.1.3,MacIntel,60,m,1,0.600165,,,,,,,,0.600165,1,,,,,,135,WORD,UN,33,chrome,IMPORT,m,,,,,,0.199604492,-0.273691406,0,0,0,,0,260,260,134,1,
,,,,,,,,,,,,,,,,,,5f2aed37c08ef8437c72aa73,2020-08-10_16h04.39.001,lexical_decision_task_MP,2020.1.3,MacIntel,60,m,1,0.66803,,,,,,,,0.66803,1,,,,,,1,WORD,"ID",33,fright,FRIGHT,m,,,,,,0.199604492,-0.273691406,0,0,0,,0,261,261,0,1,
,,,,,,,,,,,,,,,,,,5f2aed37c08ef8437c72aa73,2020-08-10_16h04.39.001,lexical_decision_task_MP,2020.1.3,MacIntel,60,m,1,0.6671,,,,,,,,0.6671,1,,,,,,13,WORD,"ID",33,strive,STRIVE,m,,,,,,0.199604492,-0.273691406,0,0,0,,0,262,262,12,1,
,,,,,,,,,,,,,,,,,,5f2aed37c08ef8437c72aa73,2020-08-10_16h04.39.001,lexical_decision_task_MP,2020.1.3,MacIntel,60,m,1,0.568035,,,,,,,,0.568035,1,,,,,,180,WORD,UN,33,thrive,SILENT,m,,,,,,0.199604492,-0.273691406,0,0,0,,0,263,263,179,1,
,,,,,,,,,,,,,,,,,,5f2aed37c08ef8437c72aa73,2020-08-10_16h04.39.001,lexical_decision_task_MP,2020.1.3,MacIntel,60,z,1,0.6665,,,,,,,,0.6665,1,,,,,,258,NW,"ID",33,poluth,POLUTH,z,,,,,,0.199604492,-0.273691406,0,0,0,,0,264,264,257,1,
,,,,,,,,,,,,,,,,,,5f2aed37c08ef8437c72aa73,2020-08-10_16h04.39.001,lexical_decision_task_MP,2020.1.3,MacIntel,60,m,1,0.70584,,,,,,,,0.70584,1,,,,,,22,WORD,"ID",33,jockey,JOCKEY,m,,,,,,0.199604492,-0.273691406,0,0,0,,0,265,265,21,1,
,,,,,,,,,,,,,,,,,,5f2aed37c08ef8437c72aa73,2020-08-10_16h04.39.001,lexical_decision_task_MP,2020.1.3,MacIntel,60,m,1,0.60243,,,,,,,,0.60243,1,,,,,,48,WORD,"ID",33,walnut,WALNUT,m,,,,,,0.199604492,-0.273691406,0,0,0,,0,266,266,47,1,
,,,,,,,,,,,,,,,,,,5f2aed37c08ef8437c72aa73,2020-08-10_16h04.39.001,lexical_decision_task_MP,2020.1.3,MacIntel,60,m,1,0.61718,,,,,,,,0.61718,1,,,,,,214,WORD,UN,50,phobia,INTAKE,m,,,,,,0.199604492,-0.273691406,0,0,0,,0,267,267,213,1,
,,,,,,,,,,,,,,,,,,5f2aed37c08ef8437c72aa73,2020-08-10_16h04.39.001,lexical_decision_task_MP,2020.1.3,MacIntel,60,m,1,0.817025,,,,,,,,0.817025,1,,,,,,122,WORD,UN,33,strike,LINGER,m,,,,,,0.199604492,-0.273691406,0,0,0,,0,268,268,121,1,
,,,,,,,,,,,,,,,,,,5f2aed37c08ef8437c72aa73,2020-08-10_16h04.39.001,lexical_decision_task_MP,2020.1.3,MacIntel,60,m,1,1.000185,,,,,,,,1.000185,1,,,,,,207,WORD,UN,50,hockey,WREATH,m,,,,,,0.199604492,-0.273691406,0,0,0,,0,269,269,206,1,
,,,,,,,,,,,,,,,,,,5f2aed37c08ef8437c72aa73,2020-08-10_16h04.39.001,lexical_decision_task_MP,2020.1.3,MacIntel,60,m,1,0.48378,,,,,,,,0.48378,1,,,,,,21,WORD,"ID",33,simple,SIMPLE,m,,,,,,0.199604492,-0.273691406,0,0,0,,0,270,270,20,1,
,,,,,,,,,,,,,,,,,,5f2aed37c08ef8437c72aa73,2020-08-10_16h04.39.001,lexical_decision_task_MP,2020.1.3,MacIntel,60,m,1,0.567475,,,,,,,,0.567475,1,,,,,,123,WORD,UN,33,enough,STRIKE,m,,,,,,0.199604492,-0.273691406,0,0,0,,0,271,271,122,1,
,,,,,,,,,,,,,,,,,,5f2aed37c08ef8437c72aa73,2020-08-10_16h04.39.001,lexical_decision_task_MP,2020.1.3,MacIntel,60,m,1,0.5506,,,,,,,,0.5506,1,,,,,,231,WORD,UN,50,mother,EXPORT,m,,,,,,0.199604492,-0.273691406,0,0,0,,0,272,272,230,1,
,,,,,,,,,,,,,,,,,,5f2aed37c08ef8437c72aa73,2020-08-10_16h04.39.001,lexical_decision_task_MP,2020.1.3,MacIntel,60,m,1,0.565865,,,,,,,,0.565865,1,,,,,,99,WORD,"ID",50,fluent,FLUENT,m,,,,,,0.199604492,-0.273691406,0,0,0,,0,273,273,98,1,
,,,,,,,,,,,,,,,,,,5f2aed37c08ef8437c72aa73,2020-08-10_16h04.39.001,lexical_decision_task_MP,2020.1.3,MacIntel,60,z,1,0.704755,,,,,,,,0.704755,1,,,,,,395,NW,UN,33,flengy,COLURY,z,,,,,,0.199604492,-0.273691406,0,0,0,,0,274,274,394,1,
,,,,,,,,,,,,,,,,,,5f2aed37c08ef8437c72aa73,2020-08-10_16h04.39.001,lexical_decision_task_MP,2020.1.3,MacIntel,60,m,1,0.633455,,,,,,,,0.633455,1,,,,,,69,WORD,"ID",50,plenty,PLENTY,m,,,,,,0.199604492,-0.273691406,0,0,0,,0,275,275,68,1,
,,,,,,,,,,,,,,,,,,5f2aed37c08ef8437c72aa73,2020-08-10_16h04.39.001,lexical_decision_task_MP,2020.1.3,MacIntel,60,z,1,0.75194,,,,,,,,0.75194,1,,,,,,378,NW,UN,33,auting,SHRILE,z,,,,,,0.199604492,-0.273691406,0,0,0,,0,276,276,377,1,
,,,,,,,,,,,,,,,,,,5f2aed37c08ef8437c72aa73,2020-08-10_16h04.39.001,lexical_decision_task_MP,2020.1.3,MacIntel,60,m,0,0.633245,,,,,,,,0.633245,0,,,,,,392,NW,UN,33,ganous,ROUNCY,z,,,,,,0.199604492,-0.273691406,0,0,0,,0,277,277,391,1,
,,,,,,,,,,,,,,,,,,5f2aed37c08ef8437c72aa73,2020-08-10_16h04.39.001,lexical_decision_task_MP,2020.1.3,MacIntel,60,m,1,0.602285,,,,,,,,0.602285,1,,,,,,128,WORD,UN,33,marvel,SENIOR,m,,,,,,0.199604492,-0.273691406,0,0,0,,0,278,278,127,1,
,,,,,,,,,,,,,,,,,,5f2aed37c08ef8437c72aa73,2020-08-10_16h04.39.001,lexical_decision_task_MP,2020.1.3,MacIntel,60,m,1,0.553935,,,,,,,,0.553935,1,,,,,,175,WORD,UN,33,strife,FABRIC,m,,,,,,0.199604492,-0.273691406,0,0,0,,0,279,279,174,1,
,,,,,,,,,,,,,,,,,,5f2aed37c08ef8437c72aa73,2020-08-10_16h04.39.001,lexical_decision_task_MP,2020.1.3,MacIntel,60,m,1,0.649795,,,,,,,,0.649795,1,,,,,,138,WORD,UN,33,staple,MELODY,m,,,,,,0.199604492,-0.273691406,0,0,0,,0,280,280,137,1,
,,,,,,,,,,,,,,,,,,5f2aed37c08ef8437c72aa73,2020-08-10_16h04.39.001,lexical_decision_task_MP,2020.1.3,MacIntel,60,z,1,0.835705,,,,,,,,0.835705,1,,,,,,453,NW,UN,50,scouge,BOLVIS,z,,,,,,0.199604492,-0.273691406,0,0,0,,0,281,281,452,1,
,,,,,,,,,,,,,,,,,,5f2aed37c08ef8437c72aa73,2020-08-10_16h04.39.001,lexical_decision_task_MP,2020.1.3,MacIntel,60,z,1,0.73314,,,,,,,,0.73314,1,,,,,,289,NW,"ID",33,starby,STARBY,z,,,,,,0.199604492,-0.273691406,0,0,0,,0,282,282,288,1,
,,,,,,,,,,,,,,,,,,5f2aed37c08ef8437c72aa73,2020-08-10_16h04.39.001,lexical_decision_task_MP,2020.1.3,MacIntel,60,z,1,0.685985,,,,,,,,0.685985,1,,,,,,375,NW,UN,33,iguare,YORQUE,z,,,,,,0.199604492,-0.273691406,0,0,0,,0,283,283,374,1,
,,,,,,,,,,,,,,,,,,5f2aed37c08ef8437c72aa73,2020-08-10_16h04.39.001,lexical_decision_task_MP,2020.1.3,MacIntel,60,m,1,0.549275,,,,,,,,0.549275,1,,,,,,44,WORD,"ID",33,danger,DANGER,m,,,,,,0.199604492,-0.273691406,0,0,0,,0,284,284,43,1,
,,,,,,,,,,,,,,,,,,5f2aed37c08ef8437c72aa73,2020-08-10_16h04.39.001,lexical_decision_task_MP,2020.1.3,MacIntel,60,z,1,0.6855,,,,,,,,0.6855,1,,,,,,469,NW,UN,50,crudio,PADIFS,z,,,,,,0.199604492,-0.273691406,0,0,0,,0,285,285,468,1,
,,,,,,,,,,,,,,,,,,5f2aed37c08ef8437c72aa73,2020-08-10_16h04.39.001,lexical_decision_task_MP,2020.1.3,MacIntel,60,m,1,0.616325,,,,,,,,0.616325,1,,,,,,190,WORD,UN,50,stable,BACKUP,m,,,,,,0.199604492,-0.273691406,0,0,0,,0,286,286,189,1,
,,,,,,,,,,,,,,,,,,5f2aed37c08ef8437c72aa73,2020-08-10_16h04.39.001,lexical_decision_task_MP,2020.1.3,MacIntel,60,m,1,0.755765,,,,,,,,0.755765,1,,,,,,153,WORD,UN,33,author,BEHOLD,m,,,,,,0.199604492,-0.273691406,0,0,0,,0,287,287,152,1,
,,,,,,,,,,,,,,,,,,5f2aed37c08ef8437c72aa73,2020-08-10_16h04.39.001,lexical_decision_task_MP,2020.1.3,MacIntel,60,z,1,0.735985,,,,,,,,0.735985,1,,,,,,412,NW,UN,33,equats,JILUER,z,,,,,,0.199604492,-0.273691406,0,0,0,,0,288,288,411,1,
,,,,,,,,,,,,,,,,,,5f2aed37c08ef8437c72aa73,2020-08-10_16h04.39.001,lexical_decision_task_MP,2020.1.3,MacIntel,60,z,1,0.600585,,,,,,,,0.600585,1,,,,,,351,NW,"ID",50,tiesch,TIESCH,z,,,,,,0.199604492,-0.273691406,0,0,0,,0,289,289,350,1,
,,,,,,,,,,,,,,,,,,5f2aed37c08ef8437c72aa73,2020-08-10_16h04.39.001,lexical_decision_task_MP,2020.1.3,MacIntel,60,z,1,0.98746,,,,,,,,0.98746,1,,,,,,399,NW,UN,33,wearox,FOURET,z,,,,,,0.199604492,-0.273691406,0,0,0,,0,290,290,398,1,
,,,,,,,,,,,,,,,,,,5f2aed37c08ef8437c72aa73,2020-08-10_16h04.39.001,lexical_decision_task_MP,2020.1.3,MacIntel,60,z,1,0.66646,,,,,,,,0.66646,1,,,,,,404,NW,UN,33,syntic,CLUIRM,z,,,,,,0.199604492,-0.273691406,0,0,0,,0,291,291,403,1,
,,,,,,,,,,,,,,,,,,5f2aed37c08ef8437c72aa73,2020-08-10_16h04.39.001,lexical_decision_task_MP,2020.1.3,MacIntel,60,m,1,0.584265,,,,,,,,0.584265,1,,,,,,125,WORD,UN,33,blouse,NICKEL,m,,,,,,0.199604492,-0.273691406,0,0,0,,0,292,292,124,1,
,,,,,,,,,,,,,,,,,,5f2aed37c08ef8437c72aa73,2020-08-10_16h04.39.001,lexical_decision_task_MP,2020.1.3,MacIntel,60,z,0,0.618395,,,,,,,,0.618395,0,,,,,,16,WORD,"ID",33,faucet,FAUCET,m,,,,,,0.199604492,-0.273691406,0,0,0,,0,293,293,15,1,
,,,,,,,,,,,,,,,,,,5f2aed37c08ef8437c72aa73,2020-08-10_16h04.39.001,lexical_decision_task_MP,2020.1.3,MacIntel,60,z,1,0.884815,,,,,,,,0.884815,1,,,,,,464,NW,UN,50,whivex,CHAITE,z,,,,,,0.199604492,-0.273691406,0,0,0,,0,294,294,463,1,
,,,,,,,,,,,,,,,,,,5f2aed37c08ef8437c72aa73,2020-08-10_16h04.39.001,lexical_decision_task_MP,2020.1.3,MacIntel,60,m,1,0.77196,,,,,,,,0.77196,1,,,,,,157,WORD,UN,33,island,DRAGON,m,,,,,,0.199604492,-0.273691406,0,0,0,,0,295,295,156,1,
,,,,,,,,,,,,,,,,,,5f2aed37c08ef8437c72aa73,2020-08-10_16h04.39.001,lexical_decision_task_MP,2020.1.3,MacIntel,60,z,1,0.65009,,,,,,,,0.65009,1,,,,,,274,NW,"ID",33,fumblo,FUMBLO,z,,,,,,0.199604492,-0.273691406,0,0,0,,0,296,296,273,1,
,,,,,,,,,,,,,,,,,,5f2aed37c08ef8437c72aa73,2020-08-10_16h04.39.001,lexical_decision_task_MP,2020.1.3,MacIntel,60,m,1,0.485485,,,,,,,,0.485485,1,,,,,,84,WORD,"ID",50,mortal,MORTAL,m,,,,,,0.199604492,-0.273691406,0,0,0,,0,297,297,83,1,
,,,,,,,,,,,,,,,,,,5f2aed37c08ef8437c72aa73,2020-08-10_16h04.39.001,lexical_decision_task_MP,2020.1.3,MacIntel,60,z,1,0.900715,,,,,,,,0.900715,1,,,,,,475,NW,UN,50,robuly,PEBRIC,z,,,,,,0.199604492,-0.273691406,0,0,0,,0,298,298,474,1,
,,,,,,,,,,,,,,,,,,5f2aed37c08ef8437c72aa73,2020-08-10_16h04.39.001,lexical_decision_task_MP,2020.1.3,MacIntel,60,z,1,0.65197,,,,,,,,0.65197,1,,,,,,334,NW,"ID",50,watmeg,WATMEG,z,,,,,,0.199604492,-0.273691406,0,0,0,,0,299,299,333,1,
,,,,,,,,,,,,,,,,,,5f2aed37c08ef8437c72aa73,2020-08-10_16h04.39.001,lexical_decision_task_MP,2020.1.3,MacIntel,60,m,1,0.867525,,,,,,,,0.867525,1,,,,,,200,WORD,UN,50,admire,BEACON,m,,,,,,0.199604492,-0.273691406,0,0,0,,0,300,300,199,1,
,,,,,,,,,,,,,,,,,,5f2aed37c08ef8437c72aa73,2020-08-10_16h04.39.001,lexical_decision_task_MP,2020.1.3,MacIntel,60,z,1,0.632745,,,,,,,,0.632745,1,,,,,,450,NW,UN,50,rastoe,PHRECT,z,,,,,,0.199604492,-0.273691406,0,0,0,,0,301,301,449,1,
,,,,,,,,,,,,,,,,,,5f2aed37c08ef8437c72aa73,2020-08-10_16h04.39.001,lexical_decision_task_MP,2020.1.3,MacIntel,60,z,1,0.633735,,,,,,,,0.633735,1,,,,,,312,NW,"ID",50,nerawl,NERAWL,z,,,,,,0.199604492,-0.273691406,0,0,0,,0,302,302,311,1,
,,,,,,,,,,,,,,,,,,5f2aed37c08ef8437c72aa73,2020-08-10_16h04.39.001,lexical_decision_task_MP,2020.1.3,MacIntel,60,m,1,0.552205,,,,,,,,0.552205,1,,,,,,58,WORD,"ID",33,foster,FOSTER,m,,,,,,0.199604492,-0.273691406,0,0,0,,0,303,303,57,1,
,,,,,,,,,,,,,,,,,,5f2aed37c08ef8437c72aa73,2020-08-10_16h04.39.001,lexical_decision_task_MP,2020.1.3,MacIntel,60,z,1,0.833835,,,,,,,,0.833835,1,,,,,,417,NW,UN,33,suidle,EAROUD,z,,,,,,0.199604492,-0.273691406,0,0,0,,0,304,304,416,1,
,,,,,,,,,,,,,,,,,,5f2aed37c08ef8437c72aa73,2020-08-10_16h04.39.001,lexical_decision_task_MP,2020.1.3,MacIntel,60,z,1,0.800395,,,,,,,,0.800395,1,,,,,,267,NW,"ID",33,pasink,PASINK,z,,,,,,0.199604492,-0.273691406,0,0,0,,0,305,305,266,1,
,,,,,,,,,,,,,,,,,,5f2aed37c08ef8437c72aa73,2020-08-10_16h04.39.001,lexical_decision_task_MP,2020.1.3,MacIntel,60,z,1,0.734045,,,,,,,,0.734045,1,,,,,,380,NW,UN,33,huniek,CAVORY,z,,,,,,0.199604492,-0.273691406,0,0,0,,0,306,306,379,1,
,,,,,,,,,,,,,,,,,,5f2aed37c08ef8437c72aa73,2020-08-10_16h04.39.001,lexical_decision_task_MP,2020.1.3,MacIntel,60,z,0,1.18407,,,,,,,,1.18407,0,,,,,,45,WORD,"ID",33,clergy,CLERGY,m,,,,,,0.199604492,-0.273691406,0,0,0,,0,307,307,44,1,
,,,,,,,,,,,,,,,,,,5f2aed37c08ef8437c72aa73,2020-08-10_16h04.39.001,lexical_decision_task_MP,2020.1.3,MacIntel,60,z,1,0.801845,,,,,,,,0.801845,1,,,,,,455,NW,UN,50,broget,TONDLE,z,,,,,,0.199604492,-0.273691406,0,0,0,,0,308,308,454,1,
,,,,,,,,,,,,,,,,,,5f2aed37c08ef8437c72aa73,2020-08-10_16h04.39.001,lexical_decision_task_MP,2020.1.3,MacIntel,60,z,1,0.785325,,,,,,,,0.785325,1,,,,,,264,NW,"ID",33,vackel,VACKEL,z,,,,,,0.199604492,-0.273691406,0,0,0,,0,309,309,263,1,
,,,,,,,,,,,,,,,,,,5f2aed37c08ef8437c72aa73,2020-08-10_16h04.39.001,lexical_decision_task_MP,2020.1.3,MacIntel,60,m,1,0.501035,,,,,,,,0.501035,1,,,,,,103,WORD,"ID",50,bounce,BOUNCE,m,,,,,,0.199604492,-0.273691406,0,0,0,,0,310,310,102,1,
,,,,,,,,,,,,,,,,,,5f2aed37c08ef8437c72aa73,2020-08-10_16h04.39.001,lexical_decision_task_MP,2020.1.3,MacIntel,60,z,1,0.732545,,,,,,,,0.732545,1,,,,,,266,NW,"ID",33,varmit,VARMIT,z,,,,,,0.199604492,-0.273691406,0,0,0,,0,311,311,265,1,
,,,,,,,,,,,,,,,,,,5f2aed37c08ef8437c72aa73,2020-08-10_16h04.39.001,lexical_decision_task_MP,2020.1.3,MacIntel,60,m,1,0.549465,,,,,,,,0.549465,1,,,,,,147,WORD,UN,33,custom,GARLIC,m,,,,,,0.199604492,-0.273691406,0,0,0,,0,312,312,146,1,
,,,,,,,,,,,,,,,,,,5f2aed37c08ef8437c72aa73,2020-08-10_16h04.39.001,lexical_decision_task_MP,2020.1.3,MacIntel,60,m,1,0.905115,,,,,,,,0.905115,1,,,,,,146,WORD,UN,33,garlic,COUPLE,m,,,,,,0.199604492,-0.273691406,0,0,0,,0,313,313,145,1,
,,,,,,,,,,,,,,,,,,5f2aed37c08ef8437c72aa73,2020-08-10_16h04.39.001,lexical_decision_task_MP,2020.1.3,MacIntel,60,m,0,0.819585,,,,,,,,0.819585,0,,,,,,355,NW,"ID",50,zingly,ZINGLY,z,,,,,,0.199604492,-0.273691406,0,0,0,,0,314,314,354,1,
,,,,,,,,,,,,,,,,,,5f2aed37c08ef8437c72aa73,2020-08-10_16h04.39.001,lexical_decision_task_MP,2020.1.3,MacIntel,60,m,1,0.783665,,,,,,,,0.783665,1,,,,,,227,WORD,UN,50,master,SELDOM,m,,,,,,0.199604492,-0.273691406,0,0,0,,0,315,315,226,1,
,,,,,,,,,,,,,,,,,,5f2aed37c08ef8437c72aa73,2020-08-10_16h04.39.001,lexical_decision_task_MP,2020.1.3,MacIntel,60,m,1,0.617195,,,,,,,,0.617195,1,,,,,,8,WORD,"ID",33,abrupt,ABRUPT,m,,,,,,0.199604492,-0.273691406,0,0,0,,0,316,316,7,1,
,,,,,,,,,,,,,,,,,,5f2aed37c08ef8437c72aa73,2020-08-10_16h04.39.001,lexical_decision_task_MP,2020.1.3,MacIntel,60,m,1,0.5826,,,,,,,,0.5826,1,,,,,,217,WORD,UN,50,shrink,LIQUOR,m,,,,,,0.199604492,-0.273691406,0,0,0,,0,317,317,216,1,
,,,,,,,,,,,,,,,,,,5f2aed37c08ef8437c72aa73,2020-08-10_16h04.39.001,lexical_decision_task_MP,2020.1.3,MacIntel,60,z,1,0.751405,,,,,,,,0.751405,1,,,,,,294,NW,"ID",33,inhort,INHORT,z,,,,,,0.199604492,-0.273691406,0,0,0,,0,318,318,293,1,
,,,,,,,,,,,,,,,,,,5f2aed37c08ef8437c72aa73,2020-08-10_16h04.39.001,lexical_decision_task_MP,2020.1.3,MacIntel,60,z,1,0.520565,,,,,,,,0.520565,1,,,,,,308,NW,"ID",50,psetch,PSETCH,z,,,,,,0.199604492,-0.273691406,0,0,0,,0,319,319,307,1,
,,,,,,,,,,,,,,,,,,5f2aed37c08ef8437c72aa73,2020-08-10_16h04.39.001,lexical_decision_task_MP,2020.1.3,MacIntel,60,z,1,0.549035,,,,,,,,0.549035,1,,,,,,245,NW,"ID",33,anougs,ANOUGS,z,,,,,,0.199604492,-0.273691406,0,0,0,,0,320,320,244,1,
,,,,,,,,,,,,,,,,,,5f2aed37c08ef8437c72aa73,2020-08-10_16h04.39.001,lexical_decision_task_MP,2020.1.3,MacIntel,60,z,1,0.86633,,,,,,,,0.86633,1,,,,,,365,NW,UN,33,toshel,GUAIRT,z,,,,,,0.199604492,-0.273691406,0,0,0,,0,321,321,364,1,
,,,,,,,,,,,,,,,,,,5f2aed37c08ef8437c72aa73,2020-08-10_16h04.39.001,lexical_decision_task_MP,2020.1.3,MacIntel,60,z,1,0.582765,,,,,,,,0.582765,1,,,,,,329,NW,"ID",50,yarike,YARIKE,z,,,,,,0.199604492,-0.273691406,0,0,0,,0,322,322,328,1,
,,,,,,,,,,,,,,,,,,5f2aed37c08ef8437c72aa73,2020-08-10_16h04.39.001,lexical_decision_task_MP,2020.1.3,MacIntel,60,z,1,0.585455,,,,,,,,0.585455,1,,,,,,328,NW,"ID",50,broake,BROAKE,z,,,,,,0.199604492,-0.273691406,0,0,0,,0,323,323,327,1,
,,,,,,,,,,,,,,,,,,5f2aed37c08ef8437c72aa73,2020-08-10_16h04.39.001,lexical_decision_task_MP,2020.1.3,MacIntel,60,z,1,0.669345,,,,,,,,0.669345,1,,,,,,330,NW,"ID",50,kensom,KENSOM,z,,,,,,0.199604492,-0.273691406,0,0,0,,0,324,324,329,1,
,,,,,,,,,,,,,,,,,,5f2aed37c08ef8437c72aa73,2020-08-10_16h04.39.001,lexical_decision_task_MP,2020.1.3,MacIntel,60,m,1,0.651895,,,,,,,,0.651895,1,,,,,,25,WORD,"ID",33,domain,DOMAIN,m,,,,,,0.199604492,-0.273691406,0,0,0,,0,325,325,24,1,
,,,,,,,,,,,,,,,,,,5f2aed37c08ef8437c72aa73,2020-08-10_16h04.39.001,lexical_decision_task_MP,2020.1.3,MacIntel,60,m,1,0.53225,,,,,,,,0.53225,1,,,,,,194,WORD,UN,50,resign,ABSENT,m,,,,,,0.199604492,-0.273691406,0,0,0,,0,326,326,193,1,
,,,,,,,,,,,,,,,,,,5f2aed37c08ef8437c72aa73,2020-08-10_16h04.39.001,lexical_decision_task_MP,2020.1.3,MacIntel,60,z,1,0.599445,,,,,,,,0.599445,1,,,,,,324,NW,"ID",50,steikh,STEIKH,z,,,,,,0.199604492,-0.273691406,0,0,0,,0,327,327,323,1,
,,,,,,,,,,,,,,,,,,5f2aed37c08ef8437c72aa73,2020-08-10_16h04.39.001,lexical_decision_task_MP,2020.1.3,MacIntel,60,m,1,0.636355,,,,,,,,0.636355,1,,,,,,202,WORD,UN,50,phrase,FACTOR,m,,,,,,0.199604492,-0.273691406,0,0,0,,0,328,328,201,1,
,,,,,,,,,,,,,,,,,,5f2aed37c08ef8437c72aa73,2020-08-10_16h04.39.001,lexical_decision_task_MP,2020.1.3,MacIntel,60,z,1,0.77018,,,,,,,,0.77018,1,,,,,,376,NW,UN,33,sliant,IGUARE,z,,,,,,0.199604492,-0.273691406,0,0,0,,0,329,329,375,1,
,,,,,,,,,,,,,,,,,,5f2aed37c08ef8437c72aa73,2020-08-10_16h04.39.001,lexical_decision_task_MP,2020.1.3,MacIntel,60,z,1,0.683265,,,,,,,,0.683265,1,,,,,,291,NW,"ID",33,pretch,PRETCH,z,,,,,,0.199604492,-0.273691406,0,0,0,,0,330,330,290,1,
,,,,,,,,,,,,,,,,,,5f2aed37c08ef8437c72aa73,2020-08-10_16h04.39.001,lexical_decision_task_MP,2020.1.3,MacIntel,60,m,1,0.63486,,,,,,,,0.63486,1,,,,,,11,WORD,"ID",33,cruise,CRUISE,m,,,,,,0.199604492,-0.273691406,0,0,0,,0,331,331,10,1,
,,,,,,,,,,,,,,,,,,5f2aed37c08ef8437c72aa73,2020-08-10_16h04.39.001,lexical_decision_task_MP,2020.1.3,MacIntel,60,m,1,0.566165,,,,,,,,0.566165,1,,,,,,28,WORD,"ID",33,comedy,COMEDY,m,,,,,,0.199604492,-0.273691406,0,0,0,,0,332,332,27,1,
,,,,,,,,,,,,,,,,,,5f2aed37c08ef8437c72aa73,2020-08-10_16h04.39.001,lexical_decision_task_MP,2020.1.3,MacIntel,60,z,0,0.57049,,,,,,,,0.57049,0,,,,,,77,WORD,"ID",50,racket,RACKET,m,,,,,,0.199604492,-0.273691406,0,0,0,,0,333,333,76,1,
,,,,,,,,,,,,,,,,,,5f2aed37c08ef8437c72aa73,2020-08-10_16h04.39.001,lexical_decision_task_MP,2020.1.3,MacIntel,60,m,1,0.500395,,,,,,,,0.500395,1,,,,,,67,WORD,"ID",50,policy,POLICY,m,,,,,,0.199604492,-0.273691406,0,0,0,,0,334,334,66,1,
,,,,,,,,,,,,,,,,,,5f2aed37c08ef8437c72aa73,2020-08-10_16h04.39.001,lexical_decision_task_MP,2020.1.3,MacIntel,60,m,1,0.53615,,,,,,,,0.53615,1,,,,,,191,WORD,UN,50,absent,STABLE,m,,,,,,0.199604492,-0.273691406,0,0,0,,0,335,335,190,1,
,,,,,,,,,,,,,,,,,,5f2aed37c08ef8437c72aa73,2020-08-10_16h04.39.001,lexical_decision_task_MP,2020.1.3,MacIntel,60,m,1,0.551955,,,,,,,,0.551955,1,,,,,,195,WORD,UN,50,credit,RESIGN,m,,,,,,0.199604492,-0.273691406,0,0,0,,0,336,336,194,1,
,,,,,,,,,,,,,,,,,,5f2aed37c08ef8437c72aa73,2020-08-10_16h04.39.001,lexical_decision_task_MP,2020.1.3,MacIntel,60,z,1,0.66628,,,,,,,,0.66628,1,,,,,,441,NW,UN,50,aboune,RASTOE,z,,,,,,0.199604492,-0.273691406,0,0,0,,0,337,337,440,1,
,,,,,,,,,,,,,,,,,,5f2aed37c08ef8437c72aa73,2020-08-10_16h04.39.001,lexical_decision_task_MP,2020.1.3,MacIntel,60,m,1,0.653425,,,,,,,,0.653425,1,,,,,,66,WORD,"ID",50,gospel,GOSPEL,m,,,,,,0.199604492,-0.273691406,0,0,0,,0,338,338,65,1,
,,,,,,,,,,,,,,,,,,5f2aed37c08ef8437c72aa73,2020-08-10_16h04.39.001,lexical_decision_task_MP,2020.1.3,MacIntel,60,z,1,0.73435,,,,,,,,0.73435,1,,,,,,438,NW,UN,50,limpor,BAITCH,z,,,,,,0.199604492,-0.273691406,0,0,0,,0,339,339,437,1,
,,,,,,,,,,,,,,,,,,5f2aed37c08ef8437c72aa73,2020-08-10_16h04.39.001,lexical_decision_task_MP,2020.1.3,MacIntel,60,m,1,0.549045,,,,,,,,0.549045,1,,,,,,230,WORD,UN,50,export,FRINGE,m,,,,,,0.199604492,-0.273691406,0,0,0,,0,340,340,229,1,
,,,,,,,,,,,,,,,,,,5f2aed37c08ef8437c72aa73,2020-08-10_16h04.39.001,lexical_decision_task_MP,2020.1.3,MacIntel,60,m,1,0.585145,,,,,,,,0.585145,1,,,,,,19,WORD,"ID",33,patron,PATRON,m,,,,,,0.199604492,-0.273691406,0,0,0,,0,341,341,18,1,
,,,,,,,,,,,,,,,,,,5f2aed37c08ef8437c72aa73,2020-08-10_16h04.39.001,lexical_decision_task_MP,2020.1.3,MacIntel,60,m,1,0.52237,,,,,,,,0.52237,1,,,,,,43,WORD,"ID",33,tongue,TONGUE,m,,,,,,0.199604492,-0.273691406,0,0,0,,0,342,342,42,1,
,,,,,,,,,,,,,,,,,,5f2aed37c08ef8437c72aa73,2020-08-10_16h04.39.001,lexical_decision_task_MP,2020.1.3,MacIntel,60,m,1,0.73616,,,,,,,,0.73616,1,,,,,,121,WORD,UN,33,linger,THRIVE,m,,,,,,0.199604492,-0.273691406,0,0,0,,0,343,343,120,1,
,,,,,,,,,,,,,,,,,,5f2aed37c08ef8437c72aa73,2020-08-10_16h04.39.001,lexical_decision_task_MP,2020.1.3,MacIntel,60,m,1,0.65076,,,,,,,,0.65076,1,,,,,,156,WORD,UN,33,pastor,CRADLE,m,,,,,,0.199604492,-0.273691406,0,0,0,,0,344,344,155,1,
,,,,,,,,,,,,,,,,,,5f2aed37c08ef8437c72aa73,2020-08-10_16h04.39.001,lexical_decision_task_MP,2020.1.3,MacIntel,60,m,1,0.51901,,,,,,,,0.51901,1,,,,,,108,WORD,"ID",50,reckon,RECKON,m,,,,,,0.199604492,-0.273691406,0,0,0,,0,345,345,107,1,
,,,,,,,,,,,,,,,,,,5f2aed37c08ef8437c72aa73,2020-08-10_16h04.39.001,lexical_decision_task_MP,2020.1.3,MacIntel,60,m,1,0.583705,,,,,,,,0.583705,1,,,,,,39,WORD,"ID",33,insect,INSECT,m,,,,,,0.199604492,-0.273691406,0,0,0,,0,346,346,38,1,
,,,,,,,,,,,,,,,,,,5f2aed37c08ef8437c72aa73,2020-08-10_16h04.39.001,lexical_decision_task_MP,2020.1.3,MacIntel,60,z,1,0.91986,,,,,,,,0.91986,1,,,,,,244,NW,"ID",33,eatric,EATRIC,z,,,,,,0.199604492,-0.273691406,0,0,0,,0,347,347,243,1,
,,,,,,,,,,,,,,,,,,5f2aed37c08ef8437c72aa73,2020-08-10_16h04.39.001,lexical_decision_task_MP,2020.1.3,MacIntel,60,z,1,0.65049,,,,,,,,0.65049,1,,,,,,268,NW,"ID",33,packes,PACKES,z,,,,,,0.199604492,-0.273691406,0,0,0,,0,348,348,267,1,
,,,,,,,,,,,,,,,,,,5f2aed37c08ef8437c72aa73,2020-08-10_16h04.39.001,lexical_decision_task_MP,2020.1.3,MacIntel,60,m,1,0.516155,,,,,,,,0.516155,1,,,,,,97,WORD,"ID",50,client,CLIENT,m,,,,,,0.199604492,-0.273691406,0,0,0,,0,349,349,96,1,
,,,,,,,,,,,,,,,,,,5f2aed37c08ef8437c72aa73,2020-08-10_16h04.39.001,lexical_decision_task_MP,2020.1.3,MacIntel,60,z,1,0.633915,,,,,,,,0.633915,1,,,,,,273,NW,"ID",33,sortel,SORTEL,z,,,,,,0.199604492,-0.273691406,0,0,0,,0,350,350,272,1,
,,,,,,,,,,,,,,,,,,5f2aed37c08ef8437c72aa73,2020-08-10_16h04.39.001,lexical_decision_task_MP,2020.1.3,MacIntel,60,m,1,0.76596,,,,,,,,0.76596,1,,,,,,149,WORD,UN,33,random,INVADE,m,,,,,,0.199604492,-0.273691406,0,0,0,,0,351,351,148,1,
,,,,,,,,,,,,,,,,,,5f2aed37c08ef8437c72aa73,2020-08-10_16h04.39.001,lexical_decision_task_MP,2020.1.3,MacIntel,60,m,1,0.517685,,,,,,,,0.517685,1,,,,,,78,WORD,"ID",50,column,COLUMN,m,,,,,,0.199604492,-0.273691406,0,0,0,,0,352,352,77,1,
,,,,,,,,,,,,,,,,,,5f2aed37c08ef8437c72aa73,2020-08-10_16h04.39.001,lexical_decision_task_MP,2020.1.3,MacIntel,60,z,1,0.63537,,,,,,,,0.63537,1,,,,,,401,NW,UN,33,elopia,MUSTIL,z,,,,,,0.199604492,-0.273691406,0,0,0,,0,353,353,400,1,
,,,,,,,,,,,,,,,,,,5f2aed37c08ef8437c72aa73,2020-08-10_16h04.39.001,lexical_decision_task_MP,2020.1.3,MacIntel,60,z,1,0.582605,,,,,,,,0.582605,1,,,,,,480,NW,UN,50,knisma,ROBULY,z,,,,,,0.199604492,-0.273691406,0,0,0,,0,354,354,479,1,
,,,,,,,,,,,,,,,,,,5f2aed37c08ef8437c72aa73,2020-08-10_16h04.39.001,lexical_decision_task_MP,2020.1.3,MacIntel,60,z,1,0.56706,,,,,,,,0.56706,1,,,,,,269,NW,"ID",33,orchet,ORCHET,z,,,,,,0.199604492,-0.273691406,0,0,0,,0,355,355,268,1,
,,,,,,,,,,,,,,,,,,5f2aed37c08ef8437c72aa73,2020-08-10_16h04.39.001,lexical_decision_task_MP,2020.1.3,MacIntel,60,z,1,0.6845,,,,,,,,0.6845,1,,,,,,340,NW,"ID",50,fiatch,FIATCH,z,,,,,,0.199604492,-0.273691406,0,0,0,,0,356,356,339,1,
,,,,,,,,,,,,,,,,,,5f2aed37c08ef8437c72aa73,2020-08-10_16h04.39.001,lexical_decision_task_MP,2020.1.3,MacIntel,60,z,1,0.58591,,,,,,,,0.58591,1,,,,,,366,NW,UN,33,slique,TOSHEL,z,,,,,,0.199604492,-0.273691406,0,0,0,,0,357,357,365,1,
,,,,,,,,,,,,,,,,,,5f2aed37c08ef8437c72aa73,2020-08-10_16h04.39.001,lexical_decision_task_MP,2020.1.3,MacIntel,60,m,1,0.551145,,,,,,,,0.551145,1,,,,,,55,WORD,"ID",33,stroke,STROKE,m,,,,,,0.199604492,-0.273691406,0,0,0,,0,358,358,54,1,
,,,,,,,,,,,,,,,,,,5f2aed37c08ef8437c72aa73,2020-08-10_16h04.39.001,lexical_decision_task_MP,2020.1.3,MacIntel,60,m,1,0.58272,,,,,,,,0.58272,1,,,,,,172,WORD,UN,33,shower,PATROL,m,,,,,,0.199604492,-0.273691406,0,0,0,,0,359,359,171,1,
,,,,,,,,,,,,,,,,,,5f2aed37c08ef8437c72aa73,2020-08-10_16h04.39.001,lexical_decision_task_MP,2020.1.3,MacIntel,60,m,1,0.549005,,,,,,,,0.549005,1,,,,,,46,WORD,"ID",33,single,SINGLE,m,,,,,,0.199604492,-0.273691406,0,0,0,,0,360,360,45,1,
,,,,,,,,,,,,,,,,,,5f2aed37c08ef8437c72aa73,2020-08-10_16h04.39.001,lexical_decision_task_MP,2020.1.3,MacIntel,60,m,0,0.36701,,,,,,,,0.36701,0,,,,,,342,NW,"ID",50,randow,RANDOW,z,,,,,,0.199604492,-0.273691406,0,0,0,,0,361,361,341,1,
,,,,,,,,,,,,,,,,,,5f2aed37c08ef8437c72aa73,2020-08-10_16h04.39.001,lexical_decision_task_MP,2020.1.3,MacIntel,60,z,1,0.620565,,,,,,,,0.620565,1,,,,,,422,NW,UN,50,streld,ALCOUD,z,,,,,,0.072636719,-0.290571289,0,0,0,space,0,362,362,421,1,5.76609
,,,,,,,,,,,,,,,,,,5f2aed37c08ef8437c72aa73,2020-08-10_16h04.39.001,lexical_decision_task_MP,2020.1.3,MacIntel,60,z,1,0.533485,,,,,,,,0.533485,1,,,,,,383,NW,UN,33,guesco,AUNGRE,z,,,,,,0.072636719,-0.290571289,0,0,0,,0,363,363,382,1,
,,,,,,,,,,,,,,,,,,5f2aed37c08ef8437c72aa73,2020-08-10_16h04.39.001,lexical_decision_task_MP,2020.1.3,MacIntel,60,z,1,0.520625,,,,,,,,0.520625,1,,,,,,435,NW,UN,50,frutan,IMPURB,z,,,,,,0.072636719,-0.290571289,0,0,0,,0,364,364,434,1,
,,,,,,,,,,,,,,,,,,5f2aed37c08ef8437c72aa73,2020-08-10_16h04.39.001,lexical_decision_task_MP,2020.1.3,MacIntel,60,z,1,0.700295,,,,,,,,0.700295,1,,,,,,467,NW,UN,50,wictor,GORBIE,z,,,,,,0.072636719,-0.290571289,0,0,0,,0,365,365,466,1,
,,,,,,,,,,,,,,,,,,5f2aed37c08ef8437c72aa73,2020-08-10_16h04.39.001,lexical_decision_task_MP,2020.1.3,MacIntel,60,m,1,0.50235,,,,,,,,0.50235,1,,,,,,15,WORD,"ID",33,amount,AMOUNT,m,,,,,,0.072636719,-0.290571289,0,0,0,,0,366,366,14,1,
,,,,,,,,,,,,,,,,,,5f2aed37c08ef8437c72aa73,2020-08-10_16h04.39.001,lexical_decision_task_MP,2020.1.3,MacIntel,60,z,1,0.617515,,,,,,,,0.617515,1,,,,,,369,NW,UN,33,sleact,WRONCH,z,,,,,,0.072636719,-0.290571289,0,0,0,,0,367,367,368,1,
,,,,,,,,,,,,,,,,,,5f2aed37c08ef8437c72aa73,2020-08-10_16h04.39.001,lexical_decision_task_MP,2020.1.3,MacIntel,60,z,1,0.50319,,,,,,,,0.50319,1,,,,,,306,NW,"ID",50,sounge,SOUNGE,z,,,,,,0.072636719,-0.290571289,0,0,0,,0,368,368,305,1,
,,,,,,,,,,,,,,,,,,5f2aed37c08ef8437c72aa73,2020-08-10_16h04.39.001,lexical_decision_task_MP,2020.1.3,MacIntel,60,z,1,0.632855,,,,,,,,0.632855,1,,,,,,479,NW,UN,50,josted,LOBUSH,z,,,,,,0.072636719,-0.290571289,0,0,0,,0,369,369,478,1,
,,,,,,,,,,,,,,,,,,5f2aed37c08ef8437c72aa73,2020-08-10_16h04.39.001,lexical_decision_task_MP,2020.1.3,MacIntel,60,m,1,0.619235,,,,,,,,0.619235,1,,,,,,92,WORD,"ID",50,strand,STRAND,m,,,,,,0.072636719,-0.290571289,0,0,0,,0,370,370,91,1,
,,,,,,,,,,,,,,,,,,5f2aed37c08ef8437c72aa73,2020-08-10_16h04.39.001,lexical_decision_task_MP,2020.1.3,MacIntel,60,m,1,0.51849,,,,,,,,0.51849,1,,,,,,63,WORD,"ID",50,launch,LAUNCH,m,,,,,,0.072636719,-0.290571289,0,0,0,,0,371,371,62,1,
,,,,,,,,,,,,,,,,,,5f2aed37c08ef8437c72aa73,2020-08-10_16h04.39.001,lexical_decision_task_MP,2020.1.3,MacIntel,60,z,1,0.553095,,,,,,,,0.553095,1,,,,,,339,NW,"ID",50,fachow,FACHOW,z,,,,,,0.072636719,-0.290571289,0,0,0,,0,372,372,338,1,
,,,,,,,,,,,,,,,,,,5f2aed37c08ef8437c72aa73,2020-08-10_16h04.39.001,lexical_decision_task_MP,2020.1.3,MacIntel,60,m,1,0.6673,,,,,,,,0.6673,1,,,,,,218,WORD,UN,50,bucket,SHRINK,m,,,,,,0.072636719,-0.290571289,0,0,0,,0,373,373,217,1,
,,,,,,,,,,,,,,,,,,5f2aed37c08ef8437c72aa73,2020-08-10_16h04.39.001,lexical_decision_task_MP,2020.1.3,MacIntel,60,m,1,0.484835,,,,,,,,0.484835,1,,,,,,94,WORD,"ID",50,travel,TRAVEL,m,,,,,,0.072636719,-0.290571289,0,0,0,,0,374,374,93,1,
,,,,,,,,,,,,,,,,,,5f2aed37c08ef8437c72aa73,2020-08-10_16h04.39.001,lexical_decision_task_MP,2020.1.3,MacIntel,60,z,1,0.899695,,,,,,,,0.899695,1,,,,,,414,NW,UN,33,higsta,SERBOL,z,,,,,,0.072636719,-0.290571289,0,0,0,,0,375,375,413,1,
,,,,,,,,,,,,,,,,,,5f2aed37c08ef8437c72aa73,2020-08-10_16h04.39.001,lexical_decision_task_MP,2020.1.3,MacIntel,60,m,1,0.582715,,,,,,,,0.582715,1,,,,,,49,WORD,"ID",33,survey,SURVEY,m,,,,,,0.072636719,-0.290571289,0,0,0,,0,376,376,48,1,
,,,,,,,,,,,,,,,,,,5f2aed37c08ef8437c72aa73,2020-08-10_16h04.39.001,lexical_decision_task_MP,2020.1.3,MacIntel,60,z,1,0.57112,,,,,,,,0.57112,1,,,,,,333,NW,"ID",50,catrie,CATRIE,z,,,,,,0.072636719,-0.290571289,0,0,0,,0,377,377,332,1,
,,,,,,,,,,,,,,,,,,5f2aed37c08ef8437c72aa73,2020-08-10_16h04.39.001,lexical_decision_task_MP,2020.1.3,MacIntel,60,z,1,0.64954,,,,,,,,0.64954,1,,,,,,468,NW,UN,50,padifs,WICTOR,z,,,,,,0.072636719,-0.290571289,0,0,0,,0,378,378,467,1,
,,,,,,,,,,,,,,,,,,5f2aed37c08ef8437c72aa73,2020-08-10_16h04.39.001,lexical_decision_task_MP,2020.1.3,MacIntel,60,m,1,0.5656,,,,,,,,0.5656,1,,,,,,188,WORD,UN,50,censor,SOCIAL,m,,,,,,0.072636719,-0.290571289,0,0,0,,0,379,379,187,1,
,,,,,,,,,,,,,,,,,,5f2aed37c08ef8437c72aa73,2020-08-10_16h04.39.001,lexical_decision_task_MP,2020.1.3,MacIntel,60,m,1,0.53334,,,,,,,,0.53334,1,,,,,,205,WORD,UN,50,tailor,LOUNGE,m,,,,,,0.072636719,-0.290571289,0,0,0,,0,380,380,204,1,
,,,,,,,,,,,,,,,,,,5f2aed37c08ef8437c72aa73,2020-08-10_16h04.39.001,lexical_decision_task_MP,2020.1.3,MacIntel,60,m,0,0.468065,,,,,,,,0.468065,0,,,,,,345,NW,"ID",50,absend,ABSEND,z,,,,,,0.072636719,-0.290571289,0,0,0,,0,381,381,344,1,
,,,,,,,,,,,,,,,,,,5f2aed37c08ef8437c72aa73,2020-08-10_16h04.39.001,lexical_decision_task_MP,2020.1.3,MacIntel,60,z,1,0.634965,,,,,,,,0.634965,1,,,,,,288,NW,"ID",33,yaceup,YACEUP,z,,,,,,0.072636719,-0.290571289,0,0,0,,0,382,382,287,1,
,,,,,,,,,,,,,,,,,,5f2aed37c08ef8437c72aa73,2020-08-10_16h04.39.001,lexical_decision_task_MP,2020.1.3,MacIntel,60,z,1,0.63237,,,,,,,,0.63237,1,,,,,,341,NW,"ID",50,myrtie,MYRTIE,z,,,,,,0.072636719,-0.290571289,0,0,0,,0,383,383,340,1,
,,,,,,,,,,,,,,,,,,5f2aed37c08ef8437c72aa73,2020-08-10_16h04.39.001,lexical_decision_task_MP,2020.1.3,MacIntel,60,z,1,0.619315,,,,,,,,0.619315,1,,,,,,247,NW,"ID",33,blarge,BLARGE,z,,,,,,0.072636719,-0.290571289,0,0,0,,0,384,384,246,1,
,,,,,,,,,,,,,,,,,,5f2aed37c08ef8437c72aa73,2020-08-10_16h04.39.001,lexical_decision_task_MP,2020.1.3,MacIntel,60,z,1,0.668685,,,,,,,,0.668685,1,,,,,,443,NW,UN,50,jaunce,DORSEX,z,,,,,,0.072636719,-0.290571289,0,0,0,,0,385,385,442,1,
,,,,,,,,,,,,,,,,,,5f2aed37c08ef8437c72aa73,2020-08-10_16h04.39.001,lexical_decision_task_MP,2020.1.3,MacIntel,60,z,1,0.58312,,,,,,,,0.58312,1,,,,,,426,NW,UN,50,frudge,URIVEL,z,,,,,,0.072636719,-0.290571289,0,0,0,,0,386,386,425,1,
,,,,,,,,,,,,,,,,,,5f2aed37c08ef8437c72aa73,2020-08-10_16h04.39.001,lexical_decision_task_MP,2020.1.3,MacIntel,60,z,1,0.632655,,,,,,,,0.632655,1,,,,,,318,NW,"ID",50,reagly,REAGLY,z,,,,,,0.072636719,-0.290571289,0,0,0,,0,387,387,317,1,
,,,,,,,,,,,,,,,,,,5f2aed37c08ef8437c72aa73,2020-08-10_16h04.39.001,lexical_decision_task_MP,2020.1.3,MacIntel,60,z,1,0.584935,,,,,,,,0.584935,1,,,,,,344,NW,"ID",50,scrily,SCRILY,z,,,,,,0.072636719,-0.290571289,0,0,0,,0,388,388,343,1,
,,,,,,,,,,,,,,,,,,5f2aed37c08ef8437c72aa73,2020-08-10_16h04.39.001,lexical_decision_task_MP,2020.1.3,MacIntel,60,z,1,0.820695,,,,,,,,0.820695,1,,,,,,346,NW,"ID",50,saudic,SAUDIC,z,,,,,,0.072636719,-0.290571289,0,0,0,,0,389,389,345,1,
,,,,,,,,,,,,,,,,,,5f2aed37c08ef8437c72aa73,2020-08-10_16h04.39.001,lexical_decision_task_MP,2020.1.3,MacIntel,60,z,1,0.569025,,,,,,,,0.569025,1,,,,,,393,NW,UN,33,spaqux,GANOUS,z,,,,,,0.072636719,-0.290571289,0,0,0,,0,390,390,392,1,
,,,,,,,,,,,,,,,,,,5f2aed37c08ef8437c72aa73,2020-08-10_16h04.39.001,lexical_decision_task_MP,2020.1.3,MacIntel,60,z,1,0.68287,,,,,,,,0.68287,1,,,,,,367,NW,UN,33,hornal,SLIQUE,z,,,,,,0.072636719,-0.290571289,0,0,0,,0,391,391,366,1,
,,,,,,,,,,,,,,,,,,5f2aed37c08ef8437c72aa73,2020-08-10_16h04.39.001,lexical_decision_task_MP,2020.1.3,MacIntel,60,m,1,0.61666,,,,,,,,0.61666,1,,,,,,18,WORD,"ID",33,humble,HUMBLE,m,,,,,,0.072636719,-0.290571289,0,0,0,,0,392,392,17,1,
,,,,,,,,,,,,,,,,,,5f2aed37c08ef8437c72aa73,2020-08-10_16h04.39.001,lexical_decision_task_MP,2020.1.3,MacIntel,60,z,1,0.800655,,,,,,,,0.800655,1,,,,,,434,NW,UN,50,impurb,PITROM,z,,,,,,0.072636719,-0.290571289,0,0,0,,0,393,393,433,1,
,,,,,,,,,,,,,,,,,,5f2aed37c08ef8437c72aa73,2020-08-10_16h04.39.001,lexical_decision_task_MP,2020.1.3,MacIntel,60,m,1,0.66612,,,,,,,,0.66612,1,,,,,,232,WORD,UN,50,nature,INJECT,m,,,,,,0.072636719,-0.290571289,0,0,0,,0,394,394,231,1,
,,,,,,,,,,,,,,,,,,5f2aed37c08ef8437c72aa73,2020-08-10_16h04.39.001,lexical_decision_task_MP,2020.1.3,MacIntel,60,z,1,0.635835,,,,,,,,0.635835,1,,,,,,353,NW,"ID",50,clurey,CLUREY,z,,,,,,0.072636719,-0.290571289,0,0,0,,0,395,395,352,1,
,,,,,,,,,,,,,,,,,,5f2aed37c08ef8437c72aa73,2020-08-10_16h04.39.001,lexical_decision_task_MP,2020.1.3,MacIntel,60,m,1,0.58184,,,,,,,,0.58184,1,,,,,,65,WORD,"ID",50,symbol,SYMBOL,m,,,,,,0.072636719,-0.290571289,0,0,0,,0,396,396,64,1,
,,,,,,,,,,,,,,,,,,5f2aed37c08ef8437c72aa73,2020-08-10_16h04.39.001,lexical_decision_task_MP,2020.1.3,MacIntel,60,z,1,0.770555,,,,,,,,0.770555,1,,,,,,250,NW,"ID",33,milted,MILTED,z,,,,,,0.072636719,-0.290571289,0,0,0,,0,397,397,249,1,
,,,,,,,,,,,,,,,,,,5f2aed37c08ef8437c72aa73,2020-08-10_16h04.39.001,lexical_decision_task_MP,2020.1.3,MacIntel,60,m,1,0.50317,,,,,,,,0.50317,1,,,,,,235,WORD,UN,50,pirate,GRUMPY,m,,,,,,0.072636719,-0.290571289,0,0,0,,0,398,398,234,1,
