counterbalancing_condition,instr_done_keyboard.keys,instr_done_touch.x,instr_done_touch.y,instr_done_touch.leftButton,instr_done_touch.midButton,instr_done_touch.rightButton,instr_done_touch.clicked_name,instruction_pages.thisRepN,instruction_pages.thisTrialN,instruction_pages.thisN,instruction_pages.thisIndex,instruction_pages.ran,pageN,phase,instruct_text,has_image,instruct_image,participant,date,expName,psychopyVersion,OS,frameRate,response.keys,response.corr,touch_resp.x,touch_resp.y,touch_resp.leftButton,touch_resp.midButton,touch_resp.rightButton,touch_resp.time,touch_resp.clicked_name,rt,corr,practice_trials.thisRepN,practice_trials.thisTrialN,practice_trials.thisN,practice_trials.thisIndex,practice_trials.ran,TrialID,StimulusType,Condition,PrimeDuration,Prime,Target,corrAns,end_of_practice_trials_pages.thisRepN,end_of_practice_trials_pages.thisTrialN,end_of_practice_trials_pages.thisN,end_of_practice_trials_pages.thisIndex,end_of_practice_trials_pages.ran,break_done_touch.x,break_done_touch.y,break_done_touch.leftButton,break_done_touch.midButton,break_done_touch.rightButton,break_done_keyboard.keys,trials.thisRepN,trials.thisTrialN,trials.thisN,trials.thisIndex,trials.ran,break_done_touch.clicked_name
1,,0.135338169,-0.404299588,1,0,0,instr_done_button,0,0,0,0,1,1,instructions,"INSTRUCTIONS
At the start of each trial, look at the hash marks (######) in the center of the screen. After a moment, a string of letters will appear. Your task is to indicate if the letter string forms a word or not (i.e., if it is a nonword). For example, AUTHOR is a word while AUTHON is a nonword.

Press the space bar or touch the button below to continue.",0,,5f2aa0c85cf0cd3026283f76,2020-08-08_10h37.08.424,lexical_decision_task_MP,2020.1.3,Linux armv7l,60,,,,,,,,,,,,,,,,,,,,,,,,,,,,,,,,,,,,,,,,
,,0.015972646,-0.405686527,1,0,0,instr_done_button,0,1,1,1,1,2,instructions,"If your device has a keyboard, press the 'Z' key for nonwords and the 'M' key for words.





Press the space bar or touch the button below to continue.",1,keyboard-example.gif,5f2aa0c85cf0cd3026283f76,2020-08-08_10h37.08.424,lexical_decision_task_MP,2020.1.3,Linux armv7l,60,,,,,,,,,,,,,,,,,,,,,,,,,,,,,,,,,,,,,,,,
,,0.063163673,-0.407073551,1,0,0,instr_done_button,0,2,2,2,1,3,instructions,"If you are using a touchscreen only device, use the buttons on the screen. Do not use the mouse.





Press the space bar or touch the button below to continue.",1,touchscreen-example.gif,5f2aa0c85cf0cd3026283f76,2020-08-08_10h37.08.424,lexical_decision_task_MP,2020.1.3,Linux armv7l,60,,,,,,,,,,,,,,,,,,,,,,,,,,,,,,,,,,,,,,,,
,,0.058999719,-0.423717075,1,0,0,instr_done_button,0,3,3,3,1,4,instructions,"It is very important that you respond as quickly and accurately as possible, as each letter string will only be on the screen for two seconds. If you do not respond within this time, the message 'Too slow!' will be displayed and the experiment will progress to the next letter string. The first 20 trials will be practice trials and you will receive feedback on your answers. 

Press the space bar or touch the button below to start the practice trials.",0,,5f2aa0c85cf0cd3026283f76,2020-08-08_10h37.08.424,lexical_decision_task_MP,2020.1.3,Linux armv7l,60,,,,,,,,,,,,,,,,,,,,,,,,,,,,,,,,,,,,,,,,
,,,,,,,,,,,,,,,,,,5f2aa0c85cf0cd3026283f76,2020-08-08_10h37.08.424,lexical_decision_task_MP,2020.1.3,Linux armv7l,60,,0,0.462899272,-0.31692098,1,0,0,1.6214,button_right,1.6214,0,0,0,0,11,1,1012,NW,"ID",50,rashet,RASHET,z,,,,,,,,,,,,,,,,,
,,,,,,,,,,,,,,,,,,5f2aa0c85cf0cd3026283f76,2020-08-08_10h37.08.424,lexical_decision_task_MP,2020.1.3,Linux armv7l,60,,0,0.507314385,-0.332177565,1,0,0,1.6137,button_right,1.6137,1,0,1,1,0,1,1001,WORD,"ID",33,utopia,UTOPIA,m,,,,,,,,,,,,,,,,,
,,,,,,,,,,,,,,,,,,5f2aa0c85cf0cd3026283f76,2020-08-08_10h37.08.424,lexical_decision_task_MP,2020.1.3,Linux armv7l,60,,0,0.518418206,-0.304438273,1,0,0,0.5664,button_right,0.5664,1,0,2,2,4,1,1005,WORD,UN,33,abound,SQUEAK,m,,,,,,,,,,,,,,,,,
,,,,,,,,,,,,,,,,,,5f2aa0c85cf0cd3026283f76,2020-08-08_10h37.08.424,lexical_decision_task_MP,2020.1.3,Linux armv7l,60,,0,,,,,,,,0.5664,-1,0,3,3,8,1,1009,NW,"ID",33,aslert,ASLERT,z,,,,,,,,,,,,,,,,,
,,,,,,,,,,,,,,,,,,5f2aa0c85cf0cd3026283f76,2020-08-08_10h37.08.424,lexical_decision_task_MP,2020.1.3,Linux armv7l,60,,0,-0.523948034,-0.303051334,1,0,0,1.1322,button_left,1.1322,1,0,4,4,9,1,1010,NW,"ID",33,fariny,FARINY,z,,,,,,,,,,,,,,,,,
,,,,,,,,,,,,,,,,,,5f2aa0c85cf0cd3026283f76,2020-08-08_10h37.08.424,lexical_decision_task_MP,2020.1.3,Linux armv7l,60,,0,0.550341458,-0.304438273,1,0,0,0.5295,button_right,0.5295,1,0,5,5,6,1,1007,WORD,UN,50,tropic,ZOMBIE,m,,,,,,,,,,,,,,,,,
,,,,,,,,,,,,,,,,,,5f2aa0c85cf0cd3026283f76,2020-08-08_10h37.08.424,lexical_decision_task_MP,2020.1.3,Linux armv7l,60,,0,0.548953417,-0.304438273,1,0,0,0.546,button_right,0.546,0,0,6,6,12,1,1013,NW,UN,33,adveil,SPRINY,z,,,,,,,,,,,,,,,,,
,,,,,,,,,,,,,,,,,,5f2aa0c85cf0cd3026283f76,2020-08-08_10h37.08.424,lexical_decision_task_MP,2020.1.3,Linux armv7l,60,,0,-0.497576565,-0.31692098,1,0,0,0.7804,button_left,0.7804,1,0,7,7,10,1,1011,NW,"ID",50,inlade,INLADE,z,,,,,,,,,,,,,,,,,
,,,,,,,,,,,,,,,,,,5f2aa0c85cf0cd3026283f76,2020-08-08_10h37.08.424,lexical_decision_task_MP,2020.1.3,Linux armv7l,60,,0,0.553117371,-0.307212236,1,0,0,0.5809,button_right,0.5809,1,0,8,8,1,1,1002,WORD,"ID",33,adjust,ADJUST,m,,,,,,,,,,,,,,,,,
,,,,,,,,,,,,,,,,,,5f2aa0c85cf0cd3026283f76,2020-08-08_10h37.08.424,lexical_decision_task_MP,2020.1.3,Linux armv7l,60,,0,-0.48508483,-0.329403602,1,0,0,0.666,button_left,0.666,1,0,9,9,14,1,1015,NW,UN,50,miaber,THRALE,z,,,,,,,,,,,,,,,,,
,,,,,,,,,,,,,,,,,,5f2aa0c85cf0cd3026283f76,2020-08-08_10h37.08.424,lexical_decision_task_MP,2020.1.3,Linux armv7l,60,,0,0.510090298,-0.307212236,1,0,0,0.497,button_right,0.497,1,0,10,10,3,1,1004,WORD,"ID",50,matrix,MATRIX,m,,,,,,,,,,,,,,,,,
,,,,,,,,,,,,,,,,,,5f2aa0c85cf0cd3026283f76,2020-08-08_10h37.08.424,lexical_decision_task_MP,2020.1.3,Linux armv7l,60,,0,-0.482308875,-0.312760078,1,0,0,0.4642,button_left,0.4642,0,0,11,11,7,1,1008,WORD,UN,50,hurdle,VOLUME,m,,,,,,,,,,,,,,,,,
,,,,,,,,,,,,,,,,,,5f2aa0c85cf0cd3026283f76,2020-08-08_10h37.08.424,lexical_decision_task_MP,2020.1.3,Linux armv7l,60,,0,0.454571533,-0.328016663,1,0,0,0.4822,button_right,0.4822,1,0,12,12,2,1,1003,WORD,"ID",50,almond,ALMOND,m,,,,,,,,,,,,,,,,,
,,,,,,,,,,,,,,,,,,5f2aa0c85cf0cd3026283f76,2020-08-08_10h37.08.424,lexical_decision_task_MP,2020.1.3,Linux armv7l,60,,0,0.496210565,-0.297503493,1,0,0,0.5809,button_right,0.5809,0,0,13,13,15,1,1016,NW,UN,50,mushed,WHAISE,z,,,,,,,,,,,,,,,,,
,,,,,,,,,,,,,,,,,,5f2aa0c85cf0cd3026283f76,2020-08-08_10h37.08.424,lexical_decision_task_MP,2020.1.3,Linux armv7l,60,,0,0.510090298,-0.300277371,1,0,0,0.7801,button_right,0.7801,1,0,14,14,5,1,1006,WORD,UN,33,frenzy,OBTAIN,m,,,,,,,,,,,,,,,,,
,,,,,,,,,,,,,,,,,,5f2aa0c85cf0cd3026283f76,2020-08-08_10h37.08.424,lexical_decision_task_MP,2020.1.3,Linux armv7l,60,,0,-0.468429184,-0.344660187,1,0,0,0.6651,button_left,0.6651,1,0,15,15,13,1,1014,NW,UN,33,winfer,ROUPET,z,,,,,,,,,,,,,,,,,
,,0.093699053,-0.422330136,1,0,0,instr_done_button,,,,,,1,end_of_practice,"You have completed the practice trials. During the experimental trials, you will not receive feedback, but it is very important that you respond as quickly and accurately as possible. 
Before you begin, please ensure that you are in a comfortable and quiet location and will not be disturbed for about 25 minutes, as we cannot use your data if you do not complete all the trials. 
There will be opportunities to take breaks at regular intervals during the experiment. When you are ready to start the experimental trials, please press space or touch the button below.",,,5f2aa0c85cf0cd3026283f76,2020-08-08_10h37.08.424,lexical_decision_task_MP,2020.1.3,Linux armv7l,60,,,,,,,,,,,,,,,,,,,,,,,,0,0,0,0,1,,,,,,,,,,,,
,,,,,,,,,,,,,,,,,,5f2aa0c85cf0cd3026283f76,2020-08-08_10h37.08.424,lexical_decision_task_MP,2020.1.3,Linux armv7l,60,,0,0.472615051,-0.375173357,1,0,0,0.7485,button_right,0.7485,1,,,,,,33,WORD,"ID",33,butler,BUTLER,m,,,,,,0.472615051,-0.375173357,1,0,0,,0,0,0,32,1,
,,,,,,,,,,,,,,,,,,5f2aa0c85cf0cd3026283f76,2020-08-08_10h37.08.424,lexical_decision_task_MP,2020.1.3,Linux armv7l,60,,0,-0.471205139,-0.319694858,1,0,0,0.6985,button_left,0.6985,1,,,,,,465,NW,UN,50,hocite,WHIVEX,z,,,,,,-0.471205139,-0.319694858,1,0,0,,0,1,1,464,1,
,,,,,,,,,,,,,,,,,,5f2aa0c85cf0cd3026283f76,2020-08-08_10h37.08.424,lexical_decision_task_MP,2020.1.3,Linux armv7l,60,,0,0.472615051,-0.314147017,1,0,0,0.3976,button_right,0.3976,1,,,,,,210,WORD,UN,50,infect,MONKEY,m,,,,,,0.472615051,-0.314147017,1,0,0,,0,2,2,209,1,
,,,,,,,,,,,,,,,,,,5f2aa0c85cf0cd3026283f76,2020-08-08_10h37.08.424,lexical_decision_task_MP,2020.1.3,Linux armv7l,60,,0,-0.46981714,-0.333564504,1,0,0,0.4975,button_left,0.4975,1,,,,,,366,NW,UN,33,slique,TOSHEL,z,,,,,,-0.46981714,-0.333564504,1,0,0,,0,3,3,365,1,
,,,,,,,,,,,,,,,,,,5f2aa0c85cf0cd3026283f76,2020-08-08_10h37.08.424,lexical_decision_task_MP,2020.1.3,Linux armv7l,60,,0,0.480942959,-0.265603383,1,0,0,0.3808,button_right,0.3808,1,,,,,,189,WORD,UN,50,backup,CENSOR,m,,,,,,0.480942959,-0.265603383,1,0,0,,0,4,4,188,1,
,,,,,,,,,,,,,,,,,,5f2aa0c85cf0cd3026283f76,2020-08-08_10h37.08.424,lexical_decision_task_MP,2020.1.3,Linux armv7l,60,,0,0.503150431,-0.257281579,1,0,0,0.5651,button_right,0.5651,1,,,,,,158,WORD,UN,33,detail,ISLAND,m,,,,,,0.503150431,-0.257281579,1,0,0,,0,5,5,157,1,
,,,,,,,,,,,,,,,,,,5f2aa0c85cf0cd3026283f76,2020-08-08_10h37.08.424,lexical_decision_task_MP,2020.1.3,Linux armv7l,60,,0,-0.475369051,-0.329403602,1,0,0,0.3156,button_left,0.3156,1,,,,,,417,NW,UN,33,suidle,EAROUD,z,,,,,,-0.475369051,-0.329403602,1,0,0,,0,6,6,416,1,
,,,,,,,,,,,,,,,,,,5f2aa0c85cf0cd3026283f76,2020-08-08_10h37.08.424,lexical_decision_task_MP,2020.1.3,Linux armv7l,60,,0,0.507314385,-0.266990323,1,0,0,0.415,button_right,0.415,1,,,,,,231,WORD,UN,50,mother,EXPORT,m,,,,,,0.507314385,-0.266990323,1,0,0,,0,7,7,230,1,
,,,,,,,,,,,,,,,,,,5f2aa0c85cf0cd3026283f76,2020-08-08_10h37.08.424,lexical_decision_task_MP,2020.1.3,Linux armv7l,60,,0,0.474003092,-0.300277371,1,0,0,0.6309,button_right,0.6309,1,,,,,,64,WORD,"ID",50,throne,THRONE,m,,,,,,0.474003092,-0.300277371,1,0,0,,0,8,8,63,1,
,,,,,,,,,,,,,,,,,,5f2aa0c85cf0cd3026283f76,2020-08-08_10h37.08.424,lexical_decision_task_MP,2020.1.3,Linux armv7l,60,,0,0.474003092,-0.300277371,1,0,0,0.5153,button_right,0.5153,1,,,,,,81,WORD,"ID",50,friend,FRIEND,m,,,,,,0.474003092,-0.300277371,1,0,0,,0,9,9,80,1,
,,,,,,,,,,,,,,,,,,5f2aa0c85cf0cd3026283f76,2020-08-08_10h37.08.424,lexical_decision_task_MP,2020.1.3,Linux armv7l,60,,0,-0.45454945,-0.315534041,1,0,0,0.7991,button_left,0.7991,1,,,,,,392,NW,UN,33,ganous,ROUNCY,z,,,,,,-0.45454945,-0.315534041,1,0,0,,0,10,10,391,1,
,,,,,,,,,,,,,,,,,,5f2aa0c85cf0cd3026283f76,2020-08-08_10h37.08.424,lexical_decision_task_MP,2020.1.3,Linux armv7l,60,,0,0.482330831,-0.29334259,1,0,0,0.4975,button_right,0.4975,0,,,,,,268,NW,"ID",33,packes,PACKES,z,,,,,,0.482330831,-0.29334259,1,0,0,,0,11,11,267,1,
,,,,,,,,,,,,,,,,,,5f2aa0c85cf0cd3026283f76,2020-08-08_10h37.08.424,lexical_decision_task_MP,2020.1.3,Linux armv7l,60,,0,-0.467041228,-0.321081882,1,0,0,0.6814,button_left,0.6814,1,,,,,,341,NW,"ID",50,myrtie,MYRTIE,z,,,,,,-0.467041228,-0.321081882,1,0,0,,0,12,12,340,1,
,,,,,,,,,,,,,,,,,,5f2aa0c85cf0cd3026283f76,2020-08-08_10h37.08.424,lexical_decision_task_MP,2020.1.3,Linux armv7l,60,,0,-0.467041228,-0.321081882,1,0,0,0.6987,button_left,0.6987,1,,,,,,261,NW,"ID",33,stunch,STUNCH,z,,,,,,-0.467041228,-0.321081882,1,0,0,,0,13,13,260,1,
,,,,,,,,,,,,,,,,,,5f2aa0c85cf0cd3026283f76,2020-08-08_10h37.08.424,lexical_decision_task_MP,2020.1.3,Linux armv7l,60,,0,-0.450385539,-0.312760078,1,0,0,0.5328,button_left,0.5328,1,,,,,,445,NW,UN,50,runamo,MINKEL,z,,,,,,-0.450385539,-0.312760078,1,0,0,,0,14,14,444,1,
,,,,,,,,,,,,,,,,,,5f2aa0c85cf0cd3026283f76,2020-08-08_10h37.08.424,lexical_decision_task_MP,2020.1.3,Linux armv7l,60,,0,-0.451773538,-0.312760078,1,0,0,0.7477,button_left,0.7477,1,,,,,,255,NW,"ID",33,apight,APIGHT,z,,,,,,-0.451773538,-0.312760078,1,0,0,,0,15,15,254,1,
,,,,,,,,,,,,,,,,,,5f2aa0c85cf0cd3026283f76,2020-08-08_10h37.08.424,lexical_decision_task_MP,2020.1.3,Linux armv7l,60,,0,-0.453161494,-0.312760078,1,0,0,0.7646,button_left,0.7646,1,,,,,,322,NW,"ID",50,slanch,SLANCH,z,,,,,,-0.453161494,-0.312760078,1,0,0,,0,16,16,321,1,
,,,,,,,,,,,,,,,,,,5f2aa0c85cf0cd3026283f76,2020-08-08_10h37.08.424,lexical_decision_task_MP,2020.1.3,Linux armv7l,60,,0,-0.453161494,-0.312760078,1,0,0,0.6975,button_left,0.6975,1,,,,,,372,NW,UN,33,bigent,RAMILY,z,,,,,,-0.453161494,-0.312760078,1,0,0,,0,17,17,371,1,
,,,,,,,,,,,,,,,,,,5f2aa0c85cf0cd3026283f76,2020-08-08_10h37.08.424,lexical_decision_task_MP,2020.1.3,Linux armv7l,60,,0,0.478167046,-0.311373138,1,0,0,0.5471,button_right,0.5471,1,,,,,,111,WORD,"ID",50,induce,INDUCE,m,,,,,,0.478167046,-0.311373138,1,0,0,,0,18,18,110,1,
,,,,,,,,,,,,,,,,,,5f2aa0c85cf0cd3026283f76,2020-08-08_10h37.08.424,lexical_decision_task_MP,2020.1.3,Linux armv7l,60,,0,-0.457325406,-0.3252427,1,0,0,0.6145,button_left,0.6145,1,,,,,,292,NW,"ID",33,ablint,ABLINT,z,,,,,,-0.457325406,-0.3252427,1,0,0,,0,19,19,291,1,
,,,,,,,,,,,,,,,,,,5f2aa0c85cf0cd3026283f76,2020-08-08_10h37.08.424,lexical_decision_task_MP,2020.1.3,Linux armv7l,60,,0,0.475390964,-0.304438273,1,0,0,0.5635,button_right,0.5635,0,,,,,,425,NW,UN,50,schind,FRUDGE,z,,,,,,0.475390964,-0.304438273,1,0,0,,0,20,20,424,1,
,,,,,,,,,,,,,,,,,,5f2aa0c85cf0cd3026283f76,2020-08-08_10h37.08.424,lexical_decision_task_MP,2020.1.3,Linux armv7l,60,,0,0.476779005,-0.304438273,1,0,0,0.8652,button_right,0.8652,1,,,,,,106,WORD,"ID",50,ransom,RANSOM,m,,,,,,0.476779005,-0.304438273,1,0,0,,0,21,21,105,1,
,,,,,,,,,,,,,,,,,,5f2aa0c85cf0cd3026283f76,2020-08-08_10h37.08.424,lexical_decision_task_MP,2020.1.3,Linux armv7l,60,,0,-0.451773538,-0.315534041,1,0,0,0.6475,button_left,0.6475,1,,,,,,460,NW,UN,50,justre,MINGAR,z,,,,,,-0.451773538,-0.315534041,1,0,0,,0,22,22,459,1,
,,,,,,,,,,,,,,,,,,5f2aa0c85cf0cd3026283f76,2020-08-08_10h37.08.424,lexical_decision_task_MP,2020.1.3,Linux armv7l,60,,0,0.467063226,-0.308599175,1,0,0,0.6136,button_right,0.6136,1,,,,,,56,WORD,"ID",33,ambush,AMBUSH,m,,,,,,0.467063226,-0.308599175,1,0,0,,0,23,23,55,1,
,,,,,,,,,,,,,,,,,,5f2aa0c85cf0cd3026283f76,2020-08-08_10h37.08.424,lexical_decision_task_MP,2020.1.3,Linux armv7l,60,,0,-0.458713362,-0.303051334,1,0,0,0.5144,button_left,0.5144,1,,,,,,362,NW,UN,33,breali,TIREAU,z,,,,,,-0.458713362,-0.303051334,1,0,0,,0,24,24,361,1,
,,,,,,,,,,,,,,,,,,5f2aa0c85cf0cd3026283f76,2020-08-08_10h37.08.424,lexical_decision_task_MP,2020.1.3,Linux armv7l,60,,0,0.465675184,-0.308599175,1,0,0,0.5645,button_right,0.5645,1,,,,,,24,WORD,"ID",33,praise,PRAISE,m,,,,,,0.465675184,-0.308599175,1,0,0,,0,25,25,23,1,
,,,,,,,,,,,,,,,,,,5f2aa0c85cf0cd3026283f76,2020-08-08_10h37.08.424,lexical_decision_task_MP,2020.1.3,Linux armv7l,60,,0,0.465675184,-0.308599175,1,0,0,0.6146,button_right,0.6146,1,,,,,,138,WORD,UN,33,staple,MELODY,m,,,,,,0.465675184,-0.308599175,1,0,0,,0,26,26,137,1,
,,,,,,,,,,,,,,,,,,5f2aa0c85cf0cd3026283f76,2020-08-08_10h37.08.424,lexical_decision_task_MP,2020.1.3,Linux armv7l,60,,0,-0.453161494,-0.303051334,1,0,0,0.5824,button_left,0.5824,1,,,,,,248,NW,"ID",33,strole,STROLE,z,,,,,,-0.453161494,-0.303051334,1,0,0,,0,27,27,247,1,
,,,,,,,,,,,,,,,,,,5f2aa0c85cf0cd3026283f76,2020-08-08_10h37.08.424,lexical_decision_task_MP,2020.1.3,Linux armv7l,60,,0,0.443467712,-0.315534041,1,0,0,0.5476,button_right,0.5476,1,,,,,,171,WORD,UN,33,patrol,DEPART,m,,,,,,0.443467712,-0.315534041,1,0,0,,0,28,28,170,1,
,,,,,,,,,,,,,,,,,,5f2aa0c85cf0cd3026283f76,2020-08-08_10h37.08.424,lexical_decision_task_MP,2020.1.3,Linux armv7l,60,,0,-0.462877316,-0.303051334,1,0,0,0.7644,button_left,0.7644,1,,,,,,260,NW,"ID",33,unject,UNJECT,z,,,,,,-0.462877316,-0.303051334,1,0,0,,0,29,29,259,1,
,,,,,,,,,,,,,,,,,,5f2aa0c85cf0cd3026283f76,2020-08-08_10h37.08.424,lexical_decision_task_MP,2020.1.3,Linux armv7l,60,,0,-0.462877316,-0.303051334,1,0,0,0.6326,button_left,0.6326,1,,,,,,347,NW,"ID",50,kerift,KERIFT,z,,,,,,-0.462877316,-0.303051334,1,0,0,,0,30,30,346,1,
,,,,,,,,,,,,,,,,,,5f2aa0c85cf0cd3026283f76,2020-08-08_10h37.08.424,lexical_decision_task_MP,2020.1.3,Linux armv7l,60,,0,0.450407579,-0.308599175,1,0,0,0.5956,button_right,0.5956,1,,,,,,219,WORD,UN,50,voyage,BUCKET,m,,,,,,0.450407579,-0.308599175,1,0,0,,0,31,31,218,1,
,,,,,,,,,,,,,,,,,,5f2aa0c85cf0cd3026283f76,2020-08-08_10h37.08.424,lexical_decision_task_MP,2020.1.3,Linux armv7l,60,,0,-0.464265272,-0.297503493,1,0,0,0.6463,button_left,0.6463,1,,,,,,375,NW,UN,33,iguare,YORQUE,z,,,,,,-0.464265272,-0.297503493,1,0,0,,0,32,32,374,1,
,,,,,,,,,,,,,,,,,,5f2aa0c85cf0cd3026283f76,2020-08-08_10h37.08.424,lexical_decision_task_MP,2020.1.3,Linux armv7l,60,,0,0.453183492,-0.307212236,1,0,0,0.5489,button_right,0.5489,1,,,,,,233,WORD,UN,50,clumsy,NATURE,m,,,,,,0.453183492,-0.307212236,1,0,0,,0,33,33,232,1,
,,,,,,,,,,,,,,,,,,5f2aa0c85cf0cd3026283f76,2020-08-08_10h37.08.424,lexical_decision_task_MP,2020.1.3,Linux armv7l,60,,0,0.454571533,-0.307212236,1,0,0,0.681,button_right,0.681,1,,,,,,155,WORD,UN,33,cradle,LIZARD,m,,,,,,0.454571533,-0.307212236,1,0,0,,0,34,34,154,1,
,,,,,,,,,,,,,,,,,,5f2aa0c85cf0cd3026283f76,2020-08-08_10h37.08.424,lexical_decision_task_MP,2020.1.3,Linux armv7l,60,,0,0.454571533,-0.307212236,1,0,0,0.764,button_right,0.764,1,,,,,,142,WORD,UN,33,orphan,SPRUCE,m,,,,,,0.454571533,-0.307212236,1,0,0,,0,35,35,141,1,
,,,,,,,,,,,,,,,,,,5f2aa0c85cf0cd3026283f76,2020-08-08_10h37.08.424,lexical_decision_task_MP,2020.1.3,Linux armv7l,60,,0,0.454571533,-0.307212236,1,0,0,0.5313,button_right,0.5313,1,,,,,,46,WORD,"ID",33,single,SINGLE,m,,,,,,0.454571533,-0.307212236,1,0,0,,0,36,36,45,1,
,,,,,,,,,,,,,,,,,,5f2aa0c85cf0cd3026283f76,2020-08-08_10h37.08.424,lexical_decision_task_MP,2020.1.3,Linux armv7l,60,,0,-0.461489317,-0.304438273,1,0,0,0.5652,button_left,0.5652,1,,,,,,294,NW,"ID",33,inhort,INHORT,z,,,,,,-0.461489317,-0.304438273,1,0,0,,0,37,37,293,1,
,,,,,,,,,,,,,,,,,,5f2aa0c85cf0cd3026283f76,2020-08-08_10h37.08.424,lexical_decision_task_MP,2020.1.3,Linux armv7l,60,,0,0.444855754,-0.314147017,1,0,0,0.5309,button_right,0.5309,1,,,,,,228,WORD,UN,50,inject,MASTER,m,,,,,,0.444855754,-0.314147017,1,0,0,,0,38,38,227,1,
,,,,,,,,,,,,,,,,,,5f2aa0c85cf0cd3026283f76,2020-08-08_10h37.08.424,lexical_decision_task_MP,2020.1.3,Linux armv7l,60,,0,0.446243625,-0.312760078,1,0,0,0.5646,button_right,0.5646,1,,,,,,226,WORD,UN,50,flower,CASINO,m,,,,,,0.446243625,-0.312760078,1,0,0,,0,39,39,225,1,
,,,,,,,,,,,,,,,,,,5f2aa0c85cf0cd3026283f76,2020-08-08_10h37.08.424,lexical_decision_task_MP,2020.1.3,Linux armv7l,60,,0,-0.460101361,-0.305825297,1,0,0,0.8317,button_left,0.8317,1,,,,,,433,NW,UN,50,pitrom,DRANCE,z,,,,,,-0.460101361,-0.305825297,1,0,0,,0,40,40,432,1,
,,,,,,,,,,,,,,,,,,5f2aa0c85cf0cd3026283f76,2020-08-08_10h37.08.424,lexical_decision_task_MP,2020.1.3,Linux armv7l,60,,0,-0.460101361,-0.305825297,1,0,0,0.6304,button_left,0.6304,1,,,,,,368,NW,UN,33,wronch,HORNAL,z,,,,,,-0.460101361,-0.305825297,1,0,0,,0,41,41,367,1,
,,,,,,,,,,,,,,,,,,5f2aa0c85cf0cd3026283f76,2020-08-08_10h37.08.424,lexical_decision_task_MP,2020.1.3,Linux armv7l,60,,0,-0.460101361,-0.305825297,1,0,0,0.648,button_left,0.648,1,,,,,,412,NW,UN,33,equats,JILUER,z,,,,,,-0.460101361,-0.305825297,1,0,0,,0,42,42,411,1,
,,,,,,,,,,,,,,,,,,5f2aa0c85cf0cd3026283f76,2020-08-08_10h37.08.424,lexical_decision_task_MP,2020.1.3,Linux armv7l,60,,0,0.444855754,-0.31692098,1,0,0,0.5145,button_right,0.5145,1,,,,,,35,WORD,"ID",33,socket,SOCKET,m,,,,,,0.444855754,-0.31692098,1,0,0,,0,43,43,34,1,
,,,,,,,,,,,,,,,,,,5f2aa0c85cf0cd3026283f76,2020-08-08_10h37.08.424,lexical_decision_task_MP,2020.1.3,Linux armv7l,60,,0,-0.475369051,-0.308599175,1,0,0,0.6479,button_left,0.6479,1,,,,,,437,NW,UN,50,baitch,SNAPEL,z,,,,,,-0.475369051,-0.308599175,1,0,0,,0,44,44,436,1,
,,,,,,,,,,,,,,,,,,5f2aa0c85cf0cd3026283f76,2020-08-08_10h37.08.424,lexical_decision_task_MP,2020.1.3,Linux armv7l,60,,0,-0.473981052,-0.308599175,1,0,0,0.7819,button_left,0.7819,1,,,,,,298,NW,"ID",33,piergy,PIERGY,z,,,,,,-0.473981052,-0.308599175,1,0,0,,0,45,45,297,1,
,,,,,,,,,,,,,,,,,,5f2aa0c85cf0cd3026283f76,2020-08-08_10h37.08.424,lexical_decision_task_MP,2020.1.3,Linux armv7l,60,,0,-0.473981052,-0.308599175,1,0,0,0.864,button_left,0.864,1,,,,,,358,NW,"ID",50,fleack,FLEACK,z,,,,,,-0.473981052,-0.308599175,1,0,0,,0,46,46,357,1,
,,,,,,,,,,,,,,,,,,5f2aa0c85cf0cd3026283f76,2020-08-08_10h37.08.424,lexical_decision_task_MP,2020.1.3,Linux armv7l,60,,0,-0.473981052,-0.308599175,1,0,0,0.6979,button_left,0.6979,1,,,,,,302,NW,"ID",50,miluer,MILUER,z,,,,,,-0.473981052,-0.308599175,1,0,0,,0,47,47,301,1,
,,,,,,,,,,,,,,,,,,5f2aa0c85cf0cd3026283f76,2020-08-08_10h37.08.424,lexical_decision_task_MP,2020.1.3,Linux armv7l,60,,0,0.467063226,-0.296116553,1,0,0,0.5472,button_right,0.5472,1,,,,,,50,WORD,"ID",33,snatch,SNATCH,m,,,,,,0.467063226,-0.296116553,1,0,0,,0,48,48,49,1,
,,,,,,,,,,,,,,,,,,5f2aa0c85cf0cd3026283f76,2020-08-08_10h37.08.424,lexical_decision_task_MP,2020.1.3,Linux armv7l,60,,0,0.475390964,-0.275312042,1,0,0,0.5814,button_right,0.5814,1,,,,,,95,WORD,"ID",50,thread,THREAD,m,,,,,,0.475390964,-0.275312042,1,0,0,,0,49,49,94,1,
,,,,,,,,,,,,,,,,,,5f2aa0c85cf0cd3026283f76,2020-08-08_10h37.08.424,lexical_decision_task_MP,2020.1.3,Linux armv7l,60,,0,-0.514232212,-0.282246908,1,0,0,0.6265,button_left,0.6265,1,,,,,,403,NW,UN,33,cluirm,BRUATS,z,,,,,,-0.514232212,-0.282246908,1,0,0,,0,50,50,402,1,
,,,,,,,,,,,,,,,,,,5f2aa0c85cf0cd3026283f76,2020-08-08_10h37.08.424,lexical_decision_task_MP,2020.1.3,Linux armv7l,60,,0,-0.50035252,-0.275312042,1,0,0,0.6491,button_left,0.6491,1,,,,,,257,NW,"ID",33,veniod,VENIOD,z,,,,,,-0.50035252,-0.275312042,1,0,0,,0,51,51,256,1,
,,,,,,,,,,,,,,,,,,5f2aa0c85cf0cd3026283f76,2020-08-08_10h37.08.424,lexical_decision_task_MP,2020.1.3,Linux armv7l,60,,0,-0.50035252,-0.273925103,1,0,0,0.5471,button_left,0.5471,1,,,,,,407,NW,UN,33,hurnia,SUIVER,z,,,,,,-0.50035252,-0.273925103,1,0,0,,0,52,52,406,1,
,,,,,,,,,,,,,,,,,,5f2aa0c85cf0cd3026283f76,2020-08-08_10h37.08.424,lexical_decision_task_MP,2020.1.3,Linux armv7l,60,,0,0.472615051,-0.326629723,1,0,0,0.5485,button_right,0.5485,1,,,,,,202,WORD,UN,50,phrase,FACTOR,m,,,,,,0.472615051,-0.326629723,1,0,0,,0,53,53,201,1,
,,,,,,,,,,,,,,,,,,5f2aa0c85cf0cd3026283f76,2020-08-08_10h37.08.424,lexical_decision_task_MP,2020.1.3,Linux armv7l,60,,0,-0.480920919,-0.290568712,1,0,0,0.7487,button_left,0.7487,1,,,,,,426,NW,UN,50,frudge,URIVEL,z,,,,,,-0.480920919,-0.290568712,1,0,0,,0,54,54,425,1,
,,,,,,,,,,,,,,,,,,5f2aa0c85cf0cd3026283f76,2020-08-08_10h37.08.424,lexical_decision_task_MP,2020.1.3,Linux armv7l,60,,0,-0.480920919,-0.289181688,1,0,0,0.4966,button_left,0.4966,1,,,,,,326,NW,"ID",50,iguade,IGUADE,z,,,,,,-0.480920919,-0.289181688,1,0,0,,0,55,55,325,1,
,,,,,,,,,,,,,,,,,,5f2aa0c85cf0cd3026283f76,2020-08-08_10h37.08.424,lexical_decision_task_MP,2020.1.3,Linux armv7l,60,,0,0.514254252,-0.301664395,1,0,0,0.5136,button_right,0.5136,1,,,,,,6,WORD,"ID",33,bundle,BUNDLE,m,,,,,,0.514254252,-0.301664395,1,0,0,,0,56,56,5,1,
,,,,,,,,,,,,,,,,,,5f2aa0c85cf0cd3026283f76,2020-08-08_10h37.08.424,lexical_decision_task_MP,2020.1.3,Linux armv7l,60,,0,0.535073853,-0.343273248,1,0,0,0.6142,button_right,0.6142,1,,,,,,63,WORD,"ID",50,launch,LAUNCH,m,,,,,,0.535073853,-0.343273248,1,0,0,,0,57,57,62,1,
,,,,,,,,,,,,,,,,,,5f2aa0c85cf0cd3026283f76,2020-08-08_10h37.08.424,lexical_decision_task_MP,2020.1.3,Linux armv7l,60,,0,-0.472593096,-0.296116553,1,0,0,0.664,button_left,0.664,1,,,,,,386,NW,UN,33,gronce,ANCUST,z,,,,,,-0.472593096,-0.296116553,1,0,0,,0,58,58,385,1,
,,,,,,,,,,,,,,,,,,5f2aa0c85cf0cd3026283f76,2020-08-08_10h37.08.424,lexical_decision_task_MP,2020.1.3,Linux armv7l,60,,0,0.54201355,-0.328016663,1,0,0,0.5173,button_right,0.5173,1,,,,,,196,WORD,UN,50,stream,CREDIT,m,,,,,,0.54201355,-0.328016663,1,0,0,,0,59,59,195,1,
,,,,,,,,,,,,,,,,,,5f2aa0c85cf0cd3026283f76,2020-08-08_10h37.08.424,lexical_decision_task_MP,2020.1.3,Linux armv7l,60,,0,0.547565545,-0.309986115,1,0,0,0.5812,button_right,0.5812,1,,,,,,191,WORD,UN,50,absent,STABLE,m,,,,,,0.547565545,-0.309986115,1,0,0,,0,60,60,190,1,
,,,,,,,,,,,,,,,,,,5f2aa0c85cf0cd3026283f76,2020-08-08_10h37.08.424,lexical_decision_task_MP,2020.1.3,Linux armv7l,60,,0,0.536461724,-0.328016663,1,0,0,0.5646,button_right,0.5646,1,,,,,,153,WORD,UN,33,author,BEHOLD,m,,,,,,0.536461724,-0.328016663,1,0,0,,0,61,61,152,1,
,,,,,,,,,,,,,,,,,,5f2aa0c85cf0cd3026283f76,2020-08-08_10h37.08.424,lexical_decision_task_MP,2020.1.3,Linux armv7l,60,,0,-0.467041228,-0.307212236,1,0,0,0.6636,button_left,0.6636,1,,,,,,307,NW,"ID",50,kirafe,KIRAFE,z,,,,,,-0.467041228,-0.307212236,1,0,0,,0,62,62,306,1,
,,,,,,,,,,,,,,,,,,5f2aa0c85cf0cd3026283f76,2020-08-08_10h37.08.424,lexical_decision_task_MP,2020.1.3,Linux armv7l,60,,0,0.535073853,-0.31692098,1,0,0,0.5661,button_right,0.5661,1,,,,,,208,WORD,UN,50,search,HOCKEY,m,,,,,,0.535073853,-0.31692098,1,0,0,,0,63,63,207,1,
,,,,,,,,,,,,,,,,,,5f2aa0c85cf0cd3026283f76,2020-08-08_10h37.08.424,lexical_decision_task_MP,2020.1.3,Linux armv7l,60,,0,0.535073853,-0.318307919,1,0,0,0.7162,button_right,0.7162,1,,,,,,110,WORD,"ID",50,polite,POLITE,m,,,,,,0.535073853,-0.318307919,1,0,0,,0,64,64,109,1,
,,,,,,,,,,,,,,,,,,5f2aa0c85cf0cd3026283f76,2020-08-08_10h37.08.424,lexical_decision_task_MP,2020.1.3,Linux armv7l,60,,0,-0.458713362,-0.308599175,1,0,0,0.5821,button_left,0.5821,1,,,,,,329,NW,"ID",50,yarike,YARIKE,z,,,,,,-0.458713362,-0.308599175,1,0,0,,0,65,65,328,1,
,,,,,,,,,,,,,,,,,,5f2aa0c85cf0cd3026283f76,2020-08-08_10h37.08.424,lexical_decision_task_MP,2020.1.3,Linux armv7l,60,,0,0.53229777,-0.326629723,1,0,0,0.5307,button_right,0.5307,1,,,,,,86,WORD,"ID",50,rodent,RODENT,m,,,,,,0.53229777,-0.326629723,1,0,0,,0,66,66,85,1,
,,,,,,,,,,,,,,,,,,5f2aa0c85cf0cd3026283f76,2020-08-08_10h37.08.424,lexical_decision_task_MP,2020.1.3,Linux armv7l,60,,0,-0.468429184,-0.304438273,1,0,0,0.4981,button_left,0.4981,1,,,,,,263,NW,"ID",33,dolica,DOLICA,z,,,,,,-0.468429184,-0.304438273,1,0,0,,0,67,67,262,1,
,,,,,,,,,,,,,,,,,,5f2aa0c85cf0cd3026283f76,2020-08-08_10h37.08.424,lexical_decision_task_MP,2020.1.3,Linux armv7l,60,,0,-0.467041228,-0.304438273,1,0,0,0.5644,button_left,0.5644,1,,,,,,295,NW,"ID",33,gleath,GLEATH,z,,,,,,-0.467041228,-0.304438273,1,0,0,,0,68,68,294,1,
,,,,,,,,,,,,,,,,,,5f2aa0c85cf0cd3026283f76,2020-08-08_10h37.08.424,lexical_decision_task_MP,2020.1.3,Linux armv7l,60,,0,0.519806078,-0.330790626,1,0,0,0.4809,button_right,0.4809,1,,,,,,42,WORD,"ID",33,chapel,CHAPEL,m,,,,,,0.519806078,-0.330790626,1,0,0,,0,69,69,41,1,
,,,,,,,,,,,,,,,,,,5f2aa0c85cf0cd3026283f76,2020-08-08_10h37.08.424,lexical_decision_task_MP,2020.1.3,Linux armv7l,60,,0,-0.455937449,-0.309986115,1,0,0,0.4964,button_left,0.4964,1,,,,,,351,NW,"ID",50,tiesch,TIESCH,z,,,,,,-0.455937449,-0.309986115,1,0,0,,0,70,70,350,1,
,,,,,,,,,,,,,,,,,,5f2aa0c85cf0cd3026283f76,2020-08-08_10h37.08.424,lexical_decision_task_MP,2020.1.3,Linux armv7l,60,,0,0.526745945,-0.3252427,1,0,0,0.5497,button_right,0.5497,1,,,,,,9,WORD,"ID",33,hustle,HUSTLE,m,,,,,,0.526745945,-0.3252427,1,0,0,,0,71,71,8,1,
,,,,,,,,,,,,,,,,,,5f2aa0c85cf0cd3026283f76,2020-08-08_10h37.08.424,lexical_decision_task_MP,2020.1.3,Linux armv7l,60,,0,-0.464265272,-0.305825297,1,0,0,0.6641,button_left,0.6641,1,,,,,,431,NW,UN,50,lunker,CHRUMS,z,,,,,,-0.464265272,-0.305825297,1,0,0,,0,72,72,430,1,
,,,,,,,,,,,,,,,,,,5f2aa0c85cf0cd3026283f76,2020-08-08_10h37.08.424,lexical_decision_task_MP,2020.1.3,Linux armv7l,60,,0,-0.462877316,-0.305825297,1,0,0,0.5661,button_left,0.5661,1,,,,,,337,NW,"ID",50,rejols,REJOLS,z,,,,,,-0.462877316,-0.305825297,1,0,0,,0,73,73,336,1,
,,,,,,,,,,,,,,,,,,5f2aa0c85cf0cd3026283f76,2020-08-08_10h37.08.424,lexical_decision_task_MP,2020.1.3,Linux armv7l,60,,0,-0.461489317,-0.305825297,1,0,0,0.6142,button_left,0.6142,1,,,,,,401,NW,UN,33,elopia,MUSTIL,z,,,,,,-0.461489317,-0.305825297,1,0,0,,0,74,74,400,1,
,,,,,,,,,,,,,,,,,,5f2aa0c85cf0cd3026283f76,2020-08-08_10h37.08.424,lexical_decision_task_MP,2020.1.3,Linux armv7l,60,,0,-0.461489317,-0.305825297,1,0,0,0.6322,button_left,0.6322,1,,,,,,246,NW,"ID",33,piaton,PIATON,z,,,,,,-0.461489317,-0.305825297,1,0,0,,0,75,75,245,1,
,,,,,,,,,,,,,,,,,,5f2aa0c85cf0cd3026283f76,2020-08-08_10h37.08.424,lexical_decision_task_MP,2020.1.3,Linux armv7l,60,,0,0.529521857,-0.332177565,1,0,0,0.5148,button_right,0.5148,1,,,,,,126,WORD,UN,33,castle,ENOUGH,m,,,,,,0.529521857,-0.332177565,1,0,0,,0,76,76,125,1,
,,,,,,,,,,,,,,,,,,5f2aa0c85cf0cd3026283f76,2020-08-08_10h37.08.424,lexical_decision_task_MP,2020.1.3,Linux armv7l,60,,0,0.529521857,-0.332177565,1,0,0,0.4989,button_right,0.4989,1,,,,,,71,WORD,"ID",50,garden,GARDEN,m,,,,,,0.529521857,-0.332177565,1,0,0,,0,77,77,70,1,
,,,,,,,,,,,,,,,,,,5f2aa0c85cf0cd3026283f76,2020-08-08_10h37.08.424,lexical_decision_task_MP,2020.1.3,Linux armv7l,60,,0,0.529521857,-0.332177565,1,0,0,0.5132,button_right,0.5132,1,,,,,,2,WORD,"ID",33,bridge,BRIDGE,m,,,,,,0.529521857,-0.332177565,1,0,0,,0,78,78,1,1,
,,,,,,,,,,,,,,,,,,5f2aa0c85cf0cd3026283f76,2020-08-08_10h37.08.424,lexical_decision_task_MP,2020.1.3,Linux armv7l,60,,0,-0.461489317,-0.309986115,1,0,0,0.9815,button_left,0.9815,1,,,,,,304,NW,"ID",50,cludie,CLUDIE,z,,,,,,-0.461489317,-0.309986115,1,0,0,,0,79,79,303,1,
,,,,,,,,,,,,,,,,,,5f2aa0c85cf0cd3026283f76,2020-08-08_10h37.08.424,lexical_decision_task_MP,2020.1.3,Linux armv7l,60,,0,0.515642124,-0.326629723,1,0,0,0.531,button_right,0.531,1,,,,,,164,WORD,UN,33,invest,MARKET,m,,,,,,0.515642124,-0.326629723,1,0,0,,0,80,80,163,1,
,,,,,,,,,,,,,,,,,,5f2aa0c85cf0cd3026283f76,2020-08-08_10h37.08.424,lexical_decision_task_MP,2020.1.3,Linux armv7l,60,,0,-0.458713362,-0.296116553,1,0,0,0.5161,button_left,0.5161,1,,,,,,455,NW,UN,50,broget,TONDLE,z,,,,,,-0.458713362,-0.296116553,1,0,0,,0,81,81,454,1,
,,,,,,,,,,,,,,,,,,5f2aa0c85cf0cd3026283f76,2020-08-08_10h37.08.424,lexical_decision_task_MP,2020.1.3,Linux armv7l,60,,0,-0.460101361,-0.296116553,1,0,0,0.5318,button_left,0.5318,1,,,,,,276,NW,"ID",33,yarmon,YARMON,z,,,,,,-0.460101361,-0.296116553,1,0,0,,0,82,82,275,1,
,,,,,,,,,,,,,,,,,,5f2aa0c85cf0cd3026283f76,2020-08-08_10h37.08.424,lexical_decision_task_MP,2020.1.3,Linux armv7l,60,,0,-0.471205139,-0.290568712,1,0,0,0.6138,button_left,0.6138,1,,,,,,461,NW,UN,50,absult,JUSTRE,z,,,,,,-0.471205139,-0.290568712,1,0,0,,0,83,83,460,1,
,,,,,,,,,,,,,,,,,,5f2aa0c85cf0cd3026283f76,2020-08-08_10h37.08.424,lexical_decision_task_MP,2020.1.3,Linux armv7l,60,,0,-0.471205139,-0.290568712,1,0,0,0.4817,button_left,0.4817,0,,,,,,82,WORD,"ID",50,stigma,STIGMA,m,,,,,,-0.471205139,-0.290568712,1,0,0,,0,84,84,81,1,
,,,,,,,,,,,,,,,,,,5f2aa0c85cf0cd3026283f76,2020-08-08_10h37.08.424,lexical_decision_task_MP,2020.1.3,Linux armv7l,60,,0,0.512866211,-0.319694858,1,0,0,0.4644,button_right,0.4644,1,,,,,,157,WORD,UN,33,island,DRAGON,m,,,,,,0.512866211,-0.319694858,1,0,0,,0,85,85,156,1,
,,,,,,,,,,,,,,,,,,5f2aa0c85cf0cd3026283f76,2020-08-08_10h37.08.424,lexical_decision_task_MP,2020.1.3,Linux armv7l,60,,0,0.526745945,-0.328016663,1,0,0,0.531,button_right,0.531,1,,,,,,48,WORD,"ID",33,walnut,WALNUT,m,,,,,,0.526745945,-0.328016663,1,0,0,,0,86,86,47,1,
,,,,,,,,,,,,,,,,,,5f2aa0c85cf0cd3026283f76,2020-08-08_10h37.08.424,lexical_decision_task_MP,2020.1.3,Linux armv7l,60,,0,-0.48508483,-0.287794749,1,0,0,0.8984,button_left,0.8984,1,,,,,,252,NW,"ID",33,stapod,STAPOD,z,,,,,,-0.48508483,-0.287794749,1,0,0,,0,87,87,251,1,
,,,,,,,,,,,,,,,,,,5f2aa0c85cf0cd3026283f76,2020-08-08_10h37.08.424,lexical_decision_task_MP,2020.1.3,Linux armv7l,60,,0,-0.483696874,-0.287794749,1,0,0,0.8477,button_left,0.8477,1,,,,,,477,NW,UN,50,acrise,PHOTIE,z,,,,,,-0.483696874,-0.287794749,1,0,0,,0,88,88,476,1,
,,,,,,,,,,,,,,,,,,5f2aa0c85cf0cd3026283f76,2020-08-08_10h37.08.424,lexical_decision_task_MP,2020.1.3,Linux armv7l,60,,0,0.519806078,-0.321081882,1,0,0,0.5668,button_right,0.5668,1,,,,,,58,WORD,"ID",33,foster,FOSTER,m,,,,,,0.519806078,-0.321081882,1,0,0,,0,89,89,57,1,
,,,,,,,,,,,,,,,,,,5f2aa0c85cf0cd3026283f76,2020-08-08_10h37.08.424,lexical_decision_task_MP,2020.1.3,Linux armv7l,60,,0,0.518418206,-0.322468821,1,0,0,0.4974,button_right,0.4974,1,,,,,,12,WORD,"ID",33,orange,ORANGE,m,,,,,,0.518418206,-0.322468821,1,0,0,,0,90,90,11,1,
,,,,,,,,,,,,,,,,,,5f2aa0c85cf0cd3026283f76,2020-08-08_10h37.08.424,lexical_decision_task_MP,2020.1.3,Linux armv7l,60,,0,0.517030165,-0.32385576,1,0,0,0.6316,button_right,0.6316,1,,,,,,107,WORD,"ID",50,slogan,SLOGAN,m,,,,,,0.517030165,-0.32385576,1,0,0,,0,91,91,106,1,
,,,,,,,,,,,,,,,,,,5f2aa0c85cf0cd3026283f76,2020-08-08_10h37.08.424,lexical_decision_task_MP,2020.1.3,Linux armv7l,60,,0,0.517030165,-0.32385576,1,0,0,0.6919,button_right,0.6919,1,,,,,,25,WORD,"ID",33,domain,DOMAIN,m,,,,,,0.517030165,-0.32385576,1,0,0,,0,92,92,24,1,
,,,,,,,,,,,,,,,,,,5f2aa0c85cf0cd3026283f76,2020-08-08_10h37.08.424,lexical_decision_task_MP,2020.1.3,Linux armv7l,60,,0,0.517030165,-0.3252427,1,0,0,0.6404,button_right,0.6404,1,,,,,,8,WORD,"ID",33,abrupt,ABRUPT,m,,,,,,0.517030165,-0.3252427,1,0,0,,0,93,93,7,1,
,,,,,,,,,,,,,,,,,,5f2aa0c85cf0cd3026283f76,2020-08-08_10h37.08.424,lexical_decision_task_MP,2020.1.3,Linux armv7l,60,,0,-0.472593096,-0.307212236,1,0,0,0.714,button_left,0.714,1,,,,,,343,NW,"ID",50,aimosy,AIMOSY,z,,,,,,-0.472593096,-0.307212236,1,0,0,,0,94,94,342,1,
,,,,,,,,,,,,,,,,,,5f2aa0c85cf0cd3026283f76,2020-08-08_10h37.08.424,lexical_decision_task_MP,2020.1.3,Linux armv7l,60,,0,0.504538472,-0.332177565,1,0,0,0.5316,button_right,0.5316,1,,,,,,20,WORD,"ID",33,breast,BREAST,m,,,,,,0.504538472,-0.332177565,1,0,0,,0,95,95,19,1,
,,,,,,,,,,,,,,,,,,5f2aa0c85cf0cd3026283f76,2020-08-08_10h37.08.424,lexical_decision_task_MP,2020.1.3,Linux armv7l,60,,0,0.504538472,-0.330790626,1,0,0,1.105,button_right,1.105,0,,,,,,408,NW,UN,33,flumni,HURNIA,z,,,,,,0.504538472,-0.330790626,1,0,0,,0,96,96,407,1,
,,,,,,,,,,,,,,,,,,5f2aa0c85cf0cd3026283f76,2020-08-08_10h37.08.424,lexical_decision_task_MP,2020.1.3,Linux armv7l,60,,0,-0.480920919,-0.305825297,1,0,0,0.6133,button_left,0.6133,1,,,,,,421,NW,UN,50,alcoud,KNISMA,z,,,,,,-0.480920919,-0.305825297,1,0,0,,0,97,97,420,1,
,,,,,,,,,,,,,,,,,,5f2aa0c85cf0cd3026283f76,2020-08-08_10h37.08.424,lexical_decision_task_MP,2020.1.3,Linux armv7l,60,,0,-0.480920919,-0.305825297,1,0,0,0.6323,button_left,0.6323,1,,,,,,400,NW,UN,33,mustil,WEAROX,z,,,,,,-0.480920919,-0.305825297,1,0,0,,0,98,98,399,1,
,,,,,,,,,,,,,,,,,,5f2aa0c85cf0cd3026283f76,2020-08-08_10h37.08.424,lexical_decision_task_MP,2020.1.3,Linux armv7l,60,,0,-0.480920919,-0.305825297,1,0,0,0.9927,button_left,0.9927,1,,,,,,454,NW,UN,50,tondle,SCOUGE,z,,,,,,-0.480920919,-0.305825297,1,0,0,,0,99,99,453,1,
,,,,,,,,,,,,,,,,,,5f2aa0c85cf0cd3026283f76,2020-08-08_10h37.08.424,lexical_decision_task_MP,2020.1.3,Linux armv7l,60,,0,-0.479532962,-0.305825297,1,0,0,0.7001,button_left,0.7001,1,,,,,,382,NW,UN,33,aungre,SARLEY,z,,,,,,-0.479532962,-0.305825297,1,0,0,,0,100,100,381,1,
,,,,,,,,,,,,,,,,,,5f2aa0c85cf0cd3026283f76,2020-08-08_10h37.08.424,lexical_decision_task_MP,2020.1.3,Linux armv7l,60,,0,0.500374519,-0.329403602,1,0,0,0.5501,button_right,0.5501,1,,,,,,60,WORD,"ID",33,pencil,PENCIL,m,,,,,,0.500374519,-0.329403602,1,0,0,,0,101,101,59,1,
,,,,,,,,,,,,,,,,,,5f2aa0c85cf0cd3026283f76,2020-08-08_10h37.08.424,lexical_decision_task_MP,2020.1.3,Linux armv7l,60,,0,0.494822693,-0.314147017,1,0,0,0.5477,button_right,0.5477,1,,,,,,119,WORD,"ID",50,spider,SPIDER,m,,,,,,0.494822693,-0.314147017,1,0,0,,0,102,102,118,1,
,,,,,,,,,,,,,,,,,,5f2aa0c85cf0cd3026283f76,2020-08-08_10h37.08.424,lexical_decision_task_MP,2020.1.3,Linux armv7l,60,,0,-0.479532962,-0.304438273,1,0,0,0.7317,button_left,0.7317,1,,,,,,250,NW,"ID",33,milted,MILTED,z,,,,,,-0.479532962,-0.304438273,1,0,0,,0,103,103,249,1,
,,,,,,,,,,,,,,,,,,5f2aa0c85cf0cd3026283f76,2020-08-08_10h37.08.424,lexical_decision_task_MP,2020.1.3,Linux armv7l,60,,0,0.492046611,-0.32385576,1,0,0,0.5999,button_right,0.5999,1,,,,,,239,WORD,UN,50,forest,LUMBER,m,,,,,,0.492046611,-0.32385576,1,0,0,,0,104,104,238,1,
,,,,,,,,,,,,,,,,,,5f2aa0c85cf0cd3026283f76,2020-08-08_10h37.08.424,lexical_decision_task_MP,2020.1.3,Linux armv7l,60,,0,-0.478144964,-0.301664395,1,0,0,0.7648,button_left,0.7648,1,,,,,,364,NW,UN,33,guairt,IMPOTE,z,,,,,,-0.478144964,-0.301664395,1,0,0,,0,105,105,363,1,
,,,,,,,,,,,,,,,,,,5f2aa0c85cf0cd3026283f76,2020-08-08_10h37.08.424,lexical_decision_task_MP,2020.1.3,Linux armv7l,60,,0,0.490658739,-0.32385576,1,0,0,0.5577,button_right,0.5577,1,,,,,,136,WORD,UN,33,finger,BLEACH,m,,,,,,0.490658739,-0.32385576,1,0,0,,0,106,106,135,1,
,,,,,,,,,,,,,,,,,,5f2aa0c85cf0cd3026283f76,2020-08-08_10h37.08.424,lexical_decision_task_MP,2020.1.3,Linux armv7l,60,,0,0.490658739,-0.322468821,1,0,0,0.4904,button_right,0.4904,1,,,,,,36,WORD,"ID",33,vanish,VANISH,m,,,,,,0.490658739,-0.322468821,1,0,0,,0,107,107,35,1,
,,,,,,,,,,,,,,,,,,5f2aa0c85cf0cd3026283f76,2020-08-08_10h37.08.424,lexical_decision_task_MP,2020.1.3,Linux armv7l,60,,0,0.490658739,-0.322468821,1,0,0,0.5473,button_right,0.5473,1,,,,,,147,WORD,UN,33,custom,GARLIC,m,,,,,,0.490658739,-0.322468821,1,0,0,,0,108,108,146,1,
,,,,,,,,,,,,,,,,,,5f2aa0c85cf0cd3026283f76,2020-08-08_10h37.08.424,lexical_decision_task_MP,2020.1.3,Linux armv7l,60,,0,-0.479532962,-0.307212236,1,0,0,0.6125,button_left,0.6125,1,,,,,,480,NW,UN,50,knisma,ROBULY,z,,,,,,-0.479532962,-0.307212236,1,0,0,,0,109,109,479,1,
,,,,,,,,,,,,,,,,,,5f2aa0c85cf0cd3026283f76,2020-08-08_10h37.08.424,lexical_decision_task_MP,2020.1.3,Linux armv7l,60,,0,-0.479532962,-0.307212236,1,0,0,0.6817,button_left,0.6817,1,,,,,,317,NW,"ID",50,worbal,WORBAL,z,,,,,,-0.479532962,-0.307212236,1,0,0,,0,110,110,316,1,
,,,,,,,,,,,,,,,,,,5f2aa0c85cf0cd3026283f76,2020-08-08_10h37.08.424,lexical_decision_task_MP,2020.1.3,Linux armv7l,60,,0,0.500374519,-0.318307919,1,0,0,0.8321,button_right,0.8321,1,,,,,,16,WORD,"ID",33,faucet,FAUCET,m,,,,,,0.500374519,-0.318307919,1,0,0,,0,111,111,15,1,
,,,,,,,,,,,,,,,,,,5f2aa0c85cf0cd3026283f76,2020-08-08_10h37.08.424,lexical_decision_task_MP,2020.1.3,Linux armv7l,60,,0,-0.462877316,-0.304438273,1,0,0,1.3293,button_left,1.3293,1,,,,,,335,NW,"ID",50,desion,DESION,z,,,,,,-0.462877316,-0.304438273,1,0,0,,0,112,112,334,1,
,,,,,,,,,,,,,,,,,,5f2aa0c85cf0cd3026283f76,2020-08-08_10h37.08.424,lexical_decision_task_MP,2020.1.3,Linux armv7l,60,,0,0.497598606,-0.309986115,1,0,0,0.7809,button_right,0.7809,1,,,,,,45,WORD,"ID",33,clergy,CLERGY,m,,,,,,0.497598606,-0.309986115,1,0,0,,0,113,113,44,1,
,,,,,,,,,,,,,,,,,,5f2aa0c85cf0cd3026283f76,2020-08-08_10h37.08.424,lexical_decision_task_MP,2020.1.3,Linux armv7l,60,,0,-0.467041228,-0.308599175,1,0,0,0.8113,button_left,0.8113,1,,,,,,451,NW,UN,50,surden,CAINKY,z,,,,,,-0.467041228,-0.308599175,1,0,0,,0,114,114,450,1,
,,,,,,,,,,,,,,,,,,5f2aa0c85cf0cd3026283f76,2020-08-08_10h37.08.424,lexical_decision_task_MP,2020.1.3,Linux armv7l,60,,0,-0.467041228,-0.308599175,1,0,0,0.7687,button_left,0.7687,1,,,,,,318,NW,"ID",50,reagly,REAGLY,z,,,,,,-0.467041228,-0.308599175,1,0,0,,0,115,115,317,1,
,,,,,,,,,,,,,,,,,,5f2aa0c85cf0cd3026283f76,2020-08-08_10h37.08.424,lexical_decision_task_MP,2020.1.3,Linux armv7l,60,,0,0.492046611,-0.3252427,1,0,0,0.5313,button_right,0.5313,1,,,,,,128,WORD,UN,33,marvel,SENIOR,m,,,,,,0.492046611,-0.3252427,1,0,0,,0,116,116,127,1,
,,,,,,,,,,,,,,,,,,5f2aa0c85cf0cd3026283f76,2020-08-08_10h37.08.424,lexical_decision_task_MP,2020.1.3,Linux armv7l,60,,0,-0.473981052,-0.300277371,1,0,0,0.664,button_left,0.664,1,,,,,,297,NW,"ID",33,fertic,FERTIC,z,,,,,,-0.473981052,-0.300277371,1,0,0,,0,117,117,296,1,
,,,,,,,,,,,,,,,,,,5f2aa0c85cf0cd3026283f76,2020-08-08_10h37.08.424,lexical_decision_task_MP,2020.1.3,Linux armv7l,60,,0,-0.479532962,-0.287794749,1,0,0,0.5814,button_left,0.5814,0,,,,,,227,WORD,UN,50,master,SELDOM,m,,,,,,-0.479532962,-0.287794749,1,0,0,,0,118,118,226,1,
,,,,,,,,,,,,,,,,,,5f2aa0c85cf0cd3026283f76,2020-08-08_10h37.08.424,lexical_decision_task_MP,2020.1.3,Linux armv7l,60,,0,0.490658739,-0.321081882,1,0,0,0.4658,button_right,0.4658,1,,,,,,53,WORD,"ID",33,police,POLICE,m,,,,,,0.490658739,-0.321081882,1,0,0,,0,119,119,52,1,
,,,,,,,,,,,,,,,,,,5f2aa0c85cf0cd3026283f76,2020-08-08_10h37.08.424,lexical_decision_task_MP,2020.1.3,Linux armv7l,60,,0,0.490658739,-0.321081882,1,0,0,0.4809,button_right,0.4809,1,,,,,,193,WORD,UN,50,plague,OBJECT,m,,,,,,0.115906609,-0.371012539,1,0,0,,0,120,120,192,1,break_done_button
,,,,,,,,,,,,,,,,,,5f2aa0c85cf0cd3026283f76,2020-08-08_10h37.08.424,lexical_decision_task_MP,2020.1.3,Linux armv7l,60,,0,-0.504516432,-0.291955651,1,0,0,0.648,button_left,0.648,1,,,,,,422,NW,UN,50,streld,ALCOUD,z,,,,,,-0.504516432,-0.291955651,1,0,0,,0,121,121,421,1,
,,,,,,,,,,,,,,,,,,5f2aa0c85cf0cd3026283f76,2020-08-08_10h37.08.424,lexical_decision_task_MP,2020.1.3,Linux armv7l,60,,0,-0.504516432,-0.29334259,1,0,0,0.6136,button_left,0.6136,1,,,,,,371,NW,UN,33,ramily,GEILOY,z,,,,,,-0.504516432,-0.29334259,1,0,0,,0,122,122,370,1,
,,,,,,,,,,,,,,,,,,5f2aa0c85cf0cd3026283f76,2020-08-08_10h37.08.424,lexical_decision_task_MP,2020.1.3,Linux armv7l,60,,0,-0.504516432,-0.300277371,1,0,0,0.6313,button_left,0.6313,1,,,,,,469,NW,UN,50,crudio,PADIFS,z,,,,,,-0.504516432,-0.300277371,1,0,0,,0,123,123,468,1,
,,,,,,,,,,,,,,,,,,5f2aa0c85cf0cd3026283f76,2020-08-08_10h37.08.424,lexical_decision_task_MP,2020.1.3,Linux armv7l,60,,0,-0.503128433,-0.300277371,1,0,0,0.5889,button_left,0.5889,1,,,,,,279,NW,"ID",33,celond,CELOND,z,,,,,,-0.503128433,-0.300277371,1,0,0,,0,124,124,278,1,
,,,,,,,,,,,,,,,,,,5f2aa0c85cf0cd3026283f76,2020-08-08_10h37.08.424,lexical_decision_task_MP,2020.1.3,Linux armv7l,60,,0,0.554505412,-0.282246908,1,0,0,0.4914,button_right,0.4914,1,,,,,,49,WORD,"ID",33,survey,SURVEY,m,,,,,,0.554505412,-0.282246908,1,0,0,,0,125,125,48,1,
,,,,,,,,,,,,,,,,,,5f2aa0c85cf0cd3026283f76,2020-08-08_10h37.08.424,lexical_decision_task_MP,2020.1.3,Linux armv7l,60,,0,0.543401591,-0.301664395,1,0,0,0.5478,button_right,0.5478,1,,,,,,26,WORD,"ID",33,sprint,SPRINT,m,,,,,,0.543401591,-0.301664395,1,0,0,,0,126,126,25,1,
,,,,,,,,,,,,,,,,,,5f2aa0c85cf0cd3026283f76,2020-08-08_10h37.08.424,lexical_decision_task_MP,2020.1.3,Linux armv7l,60,,0,0.54201355,-0.303051334,1,0,0,0.5538,button_right,0.5538,0,,,,,,303,NW,"ID",50,fiream,FIREAM,z,,,,,,0.54201355,-0.303051334,1,0,0,,0,127,127,302,1,
,,,,,,,,,,,,,,,,,,5f2aa0c85cf0cd3026283f76,2020-08-08_10h37.08.424,lexical_decision_task_MP,2020.1.3,Linux armv7l,60,,0,-0.503128433,-0.309986115,1,0,0,0.8127,button_left,0.8127,1,,,,,,458,NW,UN,50,chaite,BARCET,z,,,,,,-0.503128433,-0.309986115,1,0,0,,0,128,128,457,1,
,,,,,,,,,,,,,,,,,,5f2aa0c85cf0cd3026283f76,2020-08-08_10h37.08.424,lexical_decision_task_MP,2020.1.3,Linux armv7l,60,,0,-0.503128433,-0.308599175,1,0,0,0.5984,button_left,0.5984,1,,,,,,411,NW,UN,33,jiluer,ORCHIN,z,,,,,,-0.503128433,-0.308599175,1,0,0,,0,129,129,410,1,
,,,,,,,,,,,,,,,,,,5f2aa0c85cf0cd3026283f76,2020-08-08_10h37.08.424,lexical_decision_task_MP,2020.1.3,Linux armv7l,60,,0,0.511478339,-0.308599175,1,0,0,0.5652,button_right,0.5652,1,,,,,,154,WORD,UN,33,lizard,AUTHOR,m,,,,,,0.511478339,-0.308599175,1,0,0,,0,130,130,153,1,
,,,,,,,,,,,,,,,,,,5f2aa0c85cf0cd3026283f76,2020-08-08_10h37.08.424,lexical_decision_task_MP,2020.1.3,Linux armv7l,60,,0,-0.504516432,-0.307212236,1,0,0,0.5469,button_left,0.5469,0,,,,,,139,WORD,UN,33,prince,DEBRIS,m,,,,,,-0.504516432,-0.307212236,1,0,0,,0,131,131,138,1,
,,,,,,,,,,,,,,,,,,5f2aa0c85cf0cd3026283f76,2020-08-08_10h37.08.424,lexical_decision_task_MP,2020.1.3,Linux armv7l,60,,0,0.512866211,-0.322468821,1,0,0,0.4638,button_right,0.4638,1,,,,,,84,WORD,"ID",50,mortal,MORTAL,m,,,,,,0.512866211,-0.322468821,1,0,0,,0,132,132,83,1,
,,,,,,,,,,,,,,,,,,5f2aa0c85cf0cd3026283f76,2020-08-08_10h37.08.424,lexical_decision_task_MP,2020.1.3,Linux armv7l,60,,0,0.521194119,-0.309986115,1,0,0,0.4986,button_right,0.4986,1,,,,,,41,WORD,"ID",33,spring,SPRING,m,,,,,,0.521194119,-0.309986115,1,0,0,,0,133,133,40,1,
,,,,,,,,,,,,,,,,,,5f2aa0c85cf0cd3026283f76,2020-08-08_10h37.08.424,lexical_decision_task_MP,2020.1.3,Linux armv7l,60,,0,-0.512844255,-0.290568712,1,0,0,0.5992,button_left,0.5992,1,,,,,,259,NW,"ID",33,soudal,SOUDAL,z,,,,,,-0.512844255,-0.290568712,1,0,0,,0,134,134,258,1,
,,,,,,,,,,,,,,,,,,5f2aa0c85cf0cd3026283f76,2020-08-08_10h37.08.424,lexical_decision_task_MP,2020.1.3,Linux armv7l,60,,0,-0.512844255,-0.291955651,1,0,0,0.8474,button_left,0.8474,1,,,,,,419,NW,UN,33,gushop,SLOUNT,z,,,,,,-0.512844255,-0.291955651,1,0,0,,0,135,135,418,1,
,,,,,,,,,,,,,,,,,,5f2aa0c85cf0cd3026283f76,2020-08-08_10h37.08.424,lexical_decision_task_MP,2020.1.3,Linux armv7l,60,,0,-0.501740477,-0.297503493,1,0,0,0.8076,button_left,0.8076,1,,,,,,310,NW,"ID",50,daniet,DANIET,z,,,,,,-0.501740477,-0.297503493,1,0,0,,0,136,136,309,1,
,,,,,,,,,,,,,,,,,,5f2aa0c85cf0cd3026283f76,2020-08-08_10h37.08.424,lexical_decision_task_MP,2020.1.3,Linux armv7l,60,,0,0.526745945,-0.321081882,1,0,0,0.599,button_right,0.599,1,,,,,,222,WORD,UN,50,casino,HINDER,m,,,,,,0.526745945,-0.321081882,1,0,0,,0,137,137,221,1,
,,,,,,,,,,,,,,,,,,5f2aa0c85cf0cd3026283f76,2020-08-08_10h37.08.424,lexical_decision_task_MP,2020.1.3,Linux armv7l,60,,0,0.517030165,-0.328016663,1,0,0,0.4657,button_right,0.4657,1,,,,,,104,WORD,"ID",50,studio,STUDIO,m,,,,,,0.517030165,-0.328016663,1,0,0,,0,138,138,103,1,
,,,,,,,,,,,,,,,,,,5f2aa0c85cf0cd3026283f76,2020-08-08_10h37.08.424,lexical_decision_task_MP,2020.1.3,Linux armv7l,60,,0,-0.5100683,-0.303051334,1,0,0,0.6816,button_left,0.6816,1,,,,,,363,NW,UN,33,impote,BREALI,z,,,,,,-0.5100683,-0.303051334,1,0,0,,0,139,139,362,1,
,,,,,,,,,,,,,,,,,,5f2aa0c85cf0cd3026283f76,2020-08-08_10h37.08.424,lexical_decision_task_MP,2020.1.3,Linux armv7l,60,,0,0.521194119,-0.312760078,1,0,0,0.5664,button_right,0.5664,0,,,,,,397,NW,UN,33,blunde,CAMBLE,z,,,,,,0.521194119,-0.312760078,1,0,0,,0,140,140,396,1,
,,,,,,,,,,,,,,,,,,5f2aa0c85cf0cd3026283f76,2020-08-08_10h37.08.424,lexical_decision_task_MP,2020.1.3,Linux armv7l,60,,0,0.519806078,-0.312760078,1,0,0,0.5383,button_right,0.5383,1,,,,,,69,WORD,"ID",50,plenty,PLENTY,m,,,,,,0.519806078,-0.312760078,1,0,0,,0,141,141,68,1,
,,,,,,,,,,,,,,,,,,5f2aa0c85cf0cd3026283f76,2020-08-08_10h37.08.424,lexical_decision_task_MP,2020.1.3,Linux armv7l,60,,0,0.519806078,-0.312760078,1,0,0,0.531,button_right,0.531,1,,,,,,105,WORD,"ID",50,number,NUMBER,m,,,,,,0.519806078,-0.312760078,1,0,0,,0,142,142,104,1,
,,,,,,,,,,,,,,,,,,5f2aa0c85cf0cd3026283f76,2020-08-08_10h37.08.424,lexical_decision_task_MP,2020.1.3,Linux armv7l,60,,0,-0.507292345,-0.29334259,1,0,0,0.5991,button_left,0.5991,1,,,,,,312,NW,"ID",50,nerawl,NERAWL,z,,,,,,-0.507292345,-0.29334259,1,0,0,,0,143,143,311,1,
,,,,,,,,,,,,,,,,,,5f2aa0c85cf0cd3026283f76,2020-08-08_10h37.08.424,lexical_decision_task_MP,2020.1.3,Linux armv7l,60,,0,-0.507292345,-0.29334259,1,0,0,0.6365,button_left,0.6365,1,,,,,,393,NW,UN,33,spaqux,GANOUS,z,,,,,,-0.507292345,-0.29334259,1,0,0,,0,144,144,392,1,
,,,,,,,,,,,,,,,,,,5f2aa0c85cf0cd3026283f76,2020-08-08_10h37.08.424,lexical_decision_task_MP,2020.1.3,Linux armv7l,60,,0,-0.507292345,-0.29334259,1,0,0,0.5148,button_left,0.5148,1,,,,,,470,NW,UN,50,nobest,CRUDIO,z,,,,,,-0.507292345,-0.29334259,1,0,0,,0,145,145,469,1,
,,,,,,,,,,,,,,,,,,5f2aa0c85cf0cd3026283f76,2020-08-08_10h37.08.424,lexical_decision_task_MP,2020.1.3,Linux armv7l,60,,0,-0.507292345,-0.294729529,1,0,0,0.6313,button_left,0.6313,1,,,,,,370,NW,UN,33,geiloy,SLEACT,z,,,,,,-0.507292345,-0.294729529,1,0,0,,0,146,146,369,1,
,,,,,,,,,,,,,,,,,,5f2aa0c85cf0cd3026283f76,2020-08-08_10h37.08.424,lexical_decision_task_MP,2020.1.3,Linux armv7l,60,,0,0.496210565,-0.328016663,1,0,0,0.5819,button_right,0.5819,1,,,,,,211,WORD,UN,50,verify,INFECT,m,,,,,,0.496210565,-0.328016663,1,0,0,,0,147,147,210,1,
,,,,,,,,,,,,,,,,,,5f2aa0c85cf0cd3026283f76,2020-08-08_10h37.08.424,lexical_decision_task_MP,2020.1.3,Linux armv7l,60,,0,-0.497576565,-0.298890432,1,0,0,0.5929,button_left,0.5929,1,,,,,,434,NW,UN,50,impurb,PITROM,z,,,,,,-0.497576565,-0.298890432,1,0,0,,0,148,148,433,1,
,,,,,,,,,,,,,,,,,,5f2aa0c85cf0cd3026283f76,2020-08-08_10h37.08.424,lexical_decision_task_MP,2020.1.3,Linux armv7l,60,,0,-0.497576565,-0.298890432,1,0,0,0.6566,button_left,0.6566,1,,,,,,299,NW,"ID",33,sturch,STURCH,z,,,,,,-0.497576565,-0.298890432,1,0,0,,0,149,149,298,1,
,,,,,,,,,,,,,,,,,,5f2aa0c85cf0cd3026283f76,2020-08-08_10h37.08.424,lexical_decision_task_MP,2020.1.3,Linux armv7l,60,,0,0.507314385,-0.307212236,1,0,0,0.5228,button_right,0.5228,1,,,,,,59,WORD,"ID",33,splint,SPLINT,m,,,,,,0.507314385,-0.307212236,1,0,0,,0,150,150,58,1,
,,,,,,,,,,,,,,,,,,5f2aa0c85cf0cd3026283f76,2020-08-08_10h37.08.424,lexical_decision_task_MP,2020.1.3,Linux armv7l,60,,0,-0.497576565,-0.290568712,1,0,0,0.7003,button_left,0.7003,1,,,,,,402,NW,UN,33,bruats,SYNTIC,z,,,,,,-0.497576565,-0.290568712,1,0,0,,0,151,151,401,1,
,,,,,,,,,,,,,,,,,,5f2aa0c85cf0cd3026283f76,2020-08-08_10h37.08.424,lexical_decision_task_MP,2020.1.3,Linux armv7l,60,,0,0.508702257,-0.326629723,1,0,0,0.5324,button_right,0.5324,1,,,,,,117,WORD,"ID",50,branch,BRANCH,m,,,,,,0.508702257,-0.326629723,1,0,0,,0,152,152,116,1,
,,,,,,,,,,,,,,,,,,5f2aa0c85cf0cd3026283f76,2020-08-08_10h37.08.424,lexical_decision_task_MP,2020.1.3,Linux armv7l,60,,0,-0.504516432,-0.301664395,1,0,0,0.6107,button_left,0.6107,1,,,,,,300,NW,"ID",33,yarion,YARION,z,,,,,,-0.504516432,-0.301664395,1,0,0,,0,153,153,299,1,
,,,,,,,,,,,,,,,,,,5f2aa0c85cf0cd3026283f76,2020-08-08_10h37.08.424,lexical_decision_task_MP,2020.1.3,Linux armv7l,60,,0,0.518418206,-0.301664395,1,0,0,0.6317,button_right,0.6317,1,,,,,,217,WORD,UN,50,shrink,LIQUOR,m,,,,,,0.518418206,-0.301664395,1,0,0,,0,154,154,216,1,
,,,,,,,,,,,,,,,,,,5f2aa0c85cf0cd3026283f76,2020-08-08_10h37.08.424,lexical_decision_task_MP,2020.1.3,Linux armv7l,60,,0,0.510090298,-0.319694858,1,0,0,0.589,button_right,0.589,1,,,,,,135,WORD,UN,33,chrome,IMPORT,m,,,,,,0.510090298,-0.319694858,1,0,0,,0,155,155,134,1,
,,,,,,,,,,,,,,,,,,5f2aa0c85cf0cd3026283f76,2020-08-08_10h37.08.424,lexical_decision_task_MP,2020.1.3,Linux armv7l,60,,0,0.508702257,-0.319694858,1,0,0,0.5319,button_right,0.5319,1,,,,,,55,WORD,"ID",33,stroke,STROKE,m,,,,,,0.508702257,-0.319694858,1,0,0,,0,156,156,54,1,
,,,,,,,,,,,,,,,,,,5f2aa0c85cf0cd3026283f76,2020-08-08_10h37.08.424,lexical_decision_task_MP,2020.1.3,Linux armv7l,60,,0,-0.505904388,-0.296116553,1,0,0,0.6147,button_left,0.6147,1,,,,,,245,NW,"ID",33,anougs,ANOUGS,z,,,,,,-0.505904388,-0.296116553,1,0,0,,0,157,157,244,1,
,,,,,,,,,,,,,,,,,,5f2aa0c85cf0cd3026283f76,2020-08-08_10h37.08.424,lexical_decision_task_MP,2020.1.3,Linux armv7l,60,,0,-0.504516432,-0.297503493,1,0,0,0.5985,button_left,0.5985,1,,,,,,356,NW,"ID",50,othnis,OTHNIS,z,,,,,,-0.504516432,-0.297503493,1,0,0,,0,158,158,355,1,
,,,,,,,,,,,,,,,,,,5f2aa0c85cf0cd3026283f76,2020-08-08_10h37.08.424,lexical_decision_task_MP,2020.1.3,Linux armv7l,60,,0,-0.504516432,-0.297503493,1,0,0,0.6487,button_left,0.6487,1,,,,,,315,NW,"ID",50,laston,LASTON,z,,,,,,-0.504516432,-0.297503493,1,0,0,,0,159,159,314,1,
,,,,,,,,,,,,,,,,,,5f2aa0c85cf0cd3026283f76,2020-08-08_10h37.08.424,lexical_decision_task_MP,2020.1.3,Linux armv7l,60,,0,-0.504516432,-0.297503493,1,0,0,0.8316,button_left,0.8316,1,,,,,,435,NW,UN,50,frutan,IMPURB,z,,,,,,-0.504516432,-0.297503493,1,0,0,,0,160,160,434,1,
,,,,,,,,,,,,,,,,,,5f2aa0c85cf0cd3026283f76,2020-08-08_10h37.08.424,lexical_decision_task_MP,2020.1.3,Linux armv7l,60,,0,0.493434652,-0.332177565,1,0,0,0.7314,button_right,0.7314,1,,,,,,66,WORD,"ID",50,gospel,GOSPEL,m,,,,,,0.493434652,-0.332177565,1,0,0,,0,161,161,65,1,
,,,,,,,,,,,,,,,,,,5f2aa0c85cf0cd3026283f76,2020-08-08_10h37.08.424,lexical_decision_task_MP,2020.1.3,Linux armv7l,60,,0,0.493434652,-0.330790626,1,0,0,0.5487,button_right,0.5487,1,,,,,,184,WORD,UN,50,bother,SLEAZY,m,,,,,,0.493434652,-0.330790626,1,0,0,,0,162,162,183,1,
,,,,,,,,,,,,,,,,,,5f2aa0c85cf0cd3026283f76,2020-08-08_10h37.08.424,lexical_decision_task_MP,2020.1.3,Linux armv7l,60,,0,-0.511456256,-0.300277371,1,0,0,0.9827,button_left,0.9827,1,,,,,,398,NW,UN,33,fouret,BLUNDE,z,,,,,,-0.511456256,-0.300277371,1,0,0,,0,163,163,397,1,
,,,,,,,,,,,,,,,,,,5f2aa0c85cf0cd3026283f76,2020-08-08_10h37.08.424,lexical_decision_task_MP,2020.1.3,Linux armv7l,60,,0,0.490658739,-0.321081882,1,0,0,0.6321,button_right,0.6321,1,,,,,,10,WORD,"ID",33,ethnic,ETHNIC,m,,,,,,0.490658739,-0.321081882,1,0,0,,0,164,164,9,1,
,,,,,,,,,,,,,,,,,,5f2aa0c85cf0cd3026283f76,2020-08-08_10h37.08.424,lexical_decision_task_MP,2020.1.3,Linux armv7l,60,,0,-0.5100683,-0.291955651,1,0,0,0.7158,button_left,0.7158,1,,,,,,249,NW,"ID",33,batrol,BATROL,z,,,,,,-0.5100683,-0.291955651,1,0,0,,0,165,165,248,1,
,,,,,,,,,,,,,,,,,,5f2aa0c85cf0cd3026283f76,2020-08-08_10h37.08.424,lexical_decision_task_MP,2020.1.3,Linux armv7l,60,,0,-0.5100683,-0.291955651,1,0,0,0.7325,button_left,0.7325,1,,,,,,449,NW,UN,50,phrect,BRUNGE,z,,,,,,-0.5100683,-0.291955651,1,0,0,,0,166,166,448,1,
,,,,,,,,,,,,,,,,,,5f2aa0c85cf0cd3026283f76,2020-08-08_10h37.08.424,lexical_decision_task_MP,2020.1.3,Linux armv7l,60,,0,-0.508680344,-0.291955651,1,0,0,0.7651,button_left,0.7651,1,,,,,,251,NW,"ID",33,lupict,LUPICT,z,,,,,,-0.508680344,-0.291955651,1,0,0,,0,167,167,250,1,
,,,,,,,,,,,,,,,,,,5f2aa0c85cf0cd3026283f76,2020-08-08_10h37.08.424,lexical_decision_task_MP,2020.1.3,Linux armv7l,60,,0,-0.508680344,-0.291955651,1,0,0,0.7812,button_left,0.7812,1,,,,,,462,NW,UN,50,kispel,ABSULT,z,,,,,,-0.508680344,-0.291955651,1,0,0,,0,168,168,461,1,
,,,,,,,,,,,,,,,,,,5f2aa0c85cf0cd3026283f76,2020-08-08_10h37.08.424,lexical_decision_task_MP,2020.1.3,Linux armv7l,60,,0,0.489270698,-0.336338467,1,0,0,0.5146,button_right,0.5146,1,,,,,,39,WORD,"ID",33,insect,INSECT,m,,,,,,0.489270698,-0.336338467,1,0,0,,0,169,169,38,1,
,,,,,,,,,,,,,,,,,,5f2aa0c85cf0cd3026283f76,2020-08-08_10h37.08.424,lexical_decision_task_MP,2020.1.3,Linux armv7l,60,,0,0.496210565,-0.326629723,1,0,0,0.5372,button_right,0.5372,1,,,,,,235,WORD,UN,50,pirate,GRUMPY,m,,,,,,0.496210565,-0.326629723,1,0,0,,0,170,170,234,1,
,,,,,,,,,,,,,,,,,,5f2aa0c85cf0cd3026283f76,2020-08-08_10h37.08.424,lexical_decision_task_MP,2020.1.3,Linux armv7l,60,,0,-0.512844255,-0.28640781,1,0,0,0.6323,button_left,0.6323,1,,,,,,350,NW,"ID",50,nagurs,NAGURS,z,,,,,,-0.512844255,-0.28640781,1,0,0,,0,171,171,349,1,
,,,,,,,,,,,,,,,,,,5f2aa0c85cf0cd3026283f76,2020-08-08_10h37.08.424,lexical_decision_task_MP,2020.1.3,Linux armv7l,60,,0,-0.512844255,-0.28640781,1,0,0,0.6665,button_left,0.6665,1,,,,,,355,NW,"ID",50,zingly,ZINGLY,z,,,,,,-0.512844255,-0.28640781,1,0,0,,0,172,172,354,1,
,,,,,,,,,,,,,,,,,,5f2aa0c85cf0cd3026283f76,2020-08-08_10h37.08.424,lexical_decision_task_MP,2020.1.3,Linux armv7l,60,,0,0.493434652,-0.332177565,1,0,0,0.6319,button_right,0.6319,1,,,,,,5,WORD,"ID",33,plunge,PLUNGE,m,,,,,,0.493434652,-0.332177565,1,0,0,,0,173,173,4,1,
,,,,,,,,,,,,,,,,,,5f2aa0c85cf0cd3026283f76,2020-08-08_10h37.08.424,lexical_decision_task_MP,2020.1.3,Linux armv7l,60,,0,-0.519784122,-0.291955651,1,0,0,0.6974,button_left,0.6974,1,,,,,,269,NW,"ID",33,orchet,ORCHET,z,,,,,,-0.519784122,-0.291955651,1,0,0,,0,174,174,268,1,
,,,,,,,,,,,,,,,,,,5f2aa0c85cf0cd3026283f76,2020-08-08_10h37.08.424,lexical_decision_task_MP,2020.1.3,Linux armv7l,60,,0,-0.508680344,-0.283633847,1,0,0,0.7979,button_left,0.7979,1,,,,,,416,NW,UN,33,earoud,PATHEL,z,,,,,,-0.508680344,-0.283633847,1,0,0,,0,175,175,415,1,
,,,,,,,,,,,,,,,,,,5f2aa0c85cf0cd3026283f76,2020-08-08_10h37.08.424,lexical_decision_task_MP,2020.1.3,Linux armv7l,60,,0,-0.508680344,-0.285020786,1,0,0,0.6307,button_left,0.6307,1,,,,,,424,NW,UN,50,urivel,PRAILE,z,,,,,,-0.508680344,-0.285020786,1,0,0,,0,176,176,423,1,
,,,,,,,,,,,,,,,,,,5f2aa0c85cf0cd3026283f76,2020-08-08_10h37.08.424,lexical_decision_task_MP,2020.1.3,Linux armv7l,60,,0,-0.508680344,-0.28640781,1,0,0,0.8134,button_left,0.8134,1,,,,,,369,NW,UN,33,sleact,WRONCH,z,,,,,,-0.508680344,-0.28640781,1,0,0,,0,177,177,368,1,
,,,,,,,,,,,,,,,,,,5f2aa0c85cf0cd3026283f76,2020-08-08_10h37.08.424,lexical_decision_task_MP,2020.1.3,Linux armv7l,60,,0,0.507314385,-0.314147017,1,0,0,0.6479,button_right,0.6479,1,,,,,,78,WORD,"ID",50,column,COLUMN,m,,,,,,0.507314385,-0.314147017,1,0,0,,0,178,178,77,1,
,,,,,,,,,,,,,,,,,,5f2aa0c85cf0cd3026283f76,2020-08-08_10h37.08.424,lexical_decision_task_MP,2020.1.3,Linux armv7l,60,,0,0.507314385,-0.314147017,1,0,0,0.5153,button_right,0.5153,1,,,,,,75,WORD,"ID",50,trophy,TROPHY,m,,,,,,0.507314385,-0.314147017,1,0,0,,0,179,179,74,1,
,,,,,,,,,,,,,,,,,,5f2aa0c85cf0cd3026283f76,2020-08-08_10h37.08.424,lexical_decision_task_MP,2020.1.3,Linux armv7l,60,,0,0.486494785,-0.330790626,1,0,0,0.5484,button_right,0.5484,1,,,,,,37,WORD,"ID",33,insult,INSULT,m,,,,,,0.486494785,-0.330790626,1,0,0,,0,180,180,36,1,
,,,,,,,,,,,,,,,,,,5f2aa0c85cf0cd3026283f76,2020-08-08_10h37.08.424,lexical_decision_task_MP,2020.1.3,Linux armv7l,60,,0,-0.518396123,-0.283633847,1,0,0,0.7823,button_left,0.7823,1,,,,,,384,NW,UN,33,veigma,GUESCO,z,,,,,,-0.518396123,-0.283633847,1,0,0,,0,181,181,383,1,
,,,,,,,,,,,,,,,,,,5f2aa0c85cf0cd3026283f76,2020-08-08_10h37.08.424,lexical_decision_task_MP,2020.1.3,Linux armv7l,60,,0,0.496210565,-0.332177565,1,0,0,0.8501,button_right,0.8501,1,,,,,,167,WORD,UN,33,answer,DESIGN,m,,,,,,0.496210565,-0.332177565,1,0,0,,0,182,182,166,1,
,,,,,,,,,,,,,,,,,,5f2aa0c85cf0cd3026283f76,2020-08-08_10h37.08.424,lexical_decision_task_MP,2020.1.3,Linux armv7l,60,,0,0.494822693,-0.332177565,1,0,0,0.8318,button_right,0.8318,1,,,,,,180,WORD,UN,33,thrive,SILENT,m,,,,,,0.494822693,-0.332177565,1,0,0,,0,183,183,179,1,
,,,,,,,,,,,,,,,,,,5f2aa0c85cf0cd3026283f76,2020-08-08_10h37.08.424,lexical_decision_task_MP,2020.1.3,Linux armv7l,60,,0,0.494822693,-0.332177565,1,0,0,0.6157,button_right,0.6157,1,,,,,,29,WORD,"ID",33,sketch,SKETCH,m,,,,,,0.494822693,-0.332177565,1,0,0,,0,184,184,28,1,
,,,,,,,,,,,,,,,,,,5f2aa0c85cf0cd3026283f76,2020-08-08_10h37.08.424,lexical_decision_task_MP,2020.1.3,Linux armv7l,60,,0,0.494822693,-0.332177565,1,0,0,0.6656,button_right,0.6656,1,,,,,,123,WORD,UN,33,enough,STRIKE,m,,,,,,0.494822693,-0.332177565,1,0,0,,0,185,185,122,1,
,,,,,,,,,,,,,,,,,,5f2aa0c85cf0cd3026283f76,2020-08-08_10h37.08.424,lexical_decision_task_MP,2020.1.3,Linux armv7l,60,,0,0.483718872,-0.315534041,1,0,0,0.6657,button_right,0.6657,1,,,,,,7,WORD,"ID",33,anchor,ANCHOR,m,,,,,,0.483718872,-0.315534041,1,0,0,,0,186,186,6,1,
,,,,,,,,,,,,,,,,,,5f2aa0c85cf0cd3026283f76,2020-08-08_10h37.08.424,lexical_decision_task_MP,2020.1.3,Linux armv7l,60,,0,0.467063226,-0.319694858,1,0,0,0.6317,button_right,0.6317,1,,,,,,67,WORD,"ID",50,policy,POLICY,m,,,,,,0.467063226,-0.319694858,1,0,0,,0,187,187,66,1,
,,,,,,,,,,,,,,,,,,5f2aa0c85cf0cd3026283f76,2020-08-08_10h37.08.424,lexical_decision_task_MP,2020.1.3,Linux armv7l,60,,0,0.417096286,-0.318307919,1,0,0,0.533,button_right,0.533,1,,,,,,102,WORD,"ID",50,direct,DIRECT,m,,,,,,0.417096286,-0.318307919,1,0,0,,0,188,188,101,1,
,,,,,,,,,,,,,,,,,,5f2aa0c85cf0cd3026283f76,2020-08-08_10h37.08.424,lexical_decision_task_MP,2020.1.3,Linux armv7l,60,,0,-0.537827725,-0.280859968,1,0,0,0.8642,button_left,0.8642,1,,,,,,396,NW,UN,33,camble,FLENGY,z,,,,,,-0.537827725,-0.280859968,1,0,0,,0,189,189,395,1,
,,,,,,,,,,,,,,,,,,5f2aa0c85cf0cd3026283f76,2020-08-08_10h37.08.424,lexical_decision_task_MP,2020.1.3,Linux armv7l,60,,0,-0.536439768,-0.280859968,1,0,0,0.614,button_left,0.614,1,,,,,,447,NW,UN,50,sadent,GIRCUE,z,,,,,,-0.536439768,-0.280859968,1,0,0,,0,190,190,446,1,
,,,,,,,,,,,,,,,,,,5f2aa0c85cf0cd3026283f76,2020-08-08_10h37.08.424,lexical_decision_task_MP,2020.1.3,Linux armv7l,60,,0,-0.528111945,-0.301664395,1,0,0,0.747,button_left,0.747,1,,,,,,338,NW,"ID",50,wreash,WREASH,z,,,,,,-0.528111945,-0.301664395,1,0,0,,0,191,191,337,1,
,,,,,,,,,,,,,,,,,,5f2aa0c85cf0cd3026283f76,2020-08-08_10h37.08.424,lexical_decision_task_MP,2020.1.3,Linux armv7l,60,,0,0.455959405,-0.311373138,1,0,0,0.6157,button_right,0.6157,1,,,,,,113,WORD,"ID",50,chorus,CHORUS,m,,,,,,0.455959405,-0.311373138,1,0,0,,0,192,192,112,1,
,,,,,,,,,,,,,,,,,,5f2aa0c85cf0cd3026283f76,2020-08-08_10h37.08.424,lexical_decision_task_MP,2020.1.3,Linux armv7l,60,,0,0.455959405,-0.311373138,1,0,0,0.7233,button_right,0.7233,1,,,,,,221,WORD,UN,50,hinder,MASCOT,m,,,,,,0.455959405,-0.311373138,1,0,0,,0,193,193,220,1,
,,,,,,,,,,,,,,,,,,5f2aa0c85cf0cd3026283f76,2020-08-08_10h37.08.424,lexical_decision_task_MP,2020.1.3,Linux armv7l,60,,0,0.457347446,-0.311373138,1,0,0,0.5989,button_right,0.5989,1,,,,,,17,WORD,"ID",33,charge,CHARGE,m,,,,,,0.457347446,-0.311373138,1,0,0,,0,194,194,16,1,
,,,,,,,,,,,,,,,,,,5f2aa0c85cf0cd3026283f76,2020-08-08_10h37.08.424,lexical_decision_task_MP,2020.1.3,Linux armv7l,60,,0,0.469839138,-0.321081882,1,0,0,0.5642,button_right,0.5642,1,,,,,,85,WORD,"ID",50,sprawl,SPRAWL,m,,,,,,0.469839138,-0.321081882,1,0,0,,0,195,195,84,1,
,,,,,,,,,,,,,,,,,,5f2aa0c85cf0cd3026283f76,2020-08-08_10h37.08.424,lexical_decision_task_MP,2020.1.3,Linux armv7l,60,,0,-0.519784122,-0.275312042,1,0,0,0.5816,button_left,0.5816,1,,,,,,339,NW,"ID",50,fachow,FACHOW,z,,,,,,-0.519784122,-0.275312042,1,0,0,,0,196,196,338,1,
,,,,,,,,,,,,,,,,,,5f2aa0c85cf0cd3026283f76,2020-08-08_10h37.08.424,lexical_decision_task_MP,2020.1.3,Linux armv7l,60,,0,-0.519784122,-0.276699066,1,0,0,0.5638,button_left,0.5638,1,,,,,,441,NW,UN,50,aboune,RASTOE,z,,,,,,-0.519784122,-0.276699066,1,0,0,,0,197,197,440,1,
,,,,,,,,,,,,,,,,,,5f2aa0c85cf0cd3026283f76,2020-08-08_10h37.08.424,lexical_decision_task_MP,2020.1.3,Linux armv7l,60,,0,-0.519784122,-0.278086005,1,0,0,0.4823,button_left,0.4823,1,,,,,,288,NW,"ID",33,yaceup,YACEUP,z,,,,,,-0.519784122,-0.278086005,1,0,0,,0,198,198,287,1,
,,,,,,,,,,,,,,,,,,5f2aa0c85cf0cd3026283f76,2020-08-08_10h37.08.424,lexical_decision_task_MP,2020.1.3,Linux armv7l,60,,0,0.460123359,-0.328016663,1,0,0,0.5741,button_right,0.5741,1,,,,,,31,WORD,"ID",33,weapon,WEAPON,m,,,,,,0.460123359,-0.328016663,1,0,0,,0,199,199,30,1,
,,,,,,,,,,,,,,,,,,5f2aa0c85cf0cd3026283f76,2020-08-08_10h37.08.424,lexical_decision_task_MP,2020.1.3,Linux armv7l,60,,0,0.458735318,-0.328016663,1,0,0,0.6148,button_right,0.6148,1,,,,,,177,WORD,UN,33,inform,ADVENT,m,,,,,,0.458735318,-0.328016663,1,0,0,,0,200,200,176,1,
,,,,,,,,,,,,,,,,,,5f2aa0c85cf0cd3026283f76,2020-08-08_10h37.08.424,lexical_decision_task_MP,2020.1.3,Linux armv7l,60,,0,-0.51562021,-0.301664395,1,0,0,0.7632,button_left,0.7632,1,,,,,,274,NW,"ID",33,fumblo,FUMBLO,z,,,,,,-0.51562021,-0.301664395,1,0,0,,0,201,201,273,1,
,,,,,,,,,,,,,,,,,,5f2aa0c85cf0cd3026283f76,2020-08-08_10h37.08.424,lexical_decision_task_MP,2020.1.3,Linux armv7l,60,,0,0.444855754,-0.336338467,1,0,0,0.5642,button_right,0.5642,1,,,,,,174,WORD,UN,33,fabric,TURKEY,m,,,,,,0.444855754,-0.336338467,1,0,0,,0,202,202,173,1,
,,,,,,,,,,,,,,,,,,5f2aa0c85cf0cd3026283f76,2020-08-08_10h37.08.424,lexical_decision_task_MP,2020.1.3,Linux armv7l,60,,0,0.454571533,-0.326629723,1,0,0,0.5319,button_right,0.5319,1,,,,,,175,WORD,UN,33,strife,FABRIC,m,,,,,,0.454571533,-0.326629723,1,0,0,,0,203,203,174,1,
,,,,,,,,,,,,,,,,,,5f2aa0c85cf0cd3026283f76,2020-08-08_10h37.08.424,lexical_decision_task_MP,2020.1.3,Linux armv7l,60,,0,-0.522560035,-0.303051334,1,0,0,0.7657,button_left,0.7657,1,,,,,,277,NW,"ID",33,petain,PETAIN,z,,,,,,-0.522560035,-0.303051334,1,0,0,,0,204,204,276,1,
,,,,,,,,,,,,,,,,,,5f2aa0c85cf0cd3026283f76,2020-08-08_10h37.08.424,lexical_decision_task_MP,2020.1.3,Linux armv7l,60,,0,0.472615051,-0.309986115,1,0,0,0.5818,button_right,0.5818,1,,,,,,172,WORD,UN,33,shower,PATROL,m,,,,,,0.472615051,-0.309986115,1,0,0,,0,205,205,171,1,
,,,,,,,,,,,,,,,,,,5f2aa0c85cf0cd3026283f76,2020-08-08_10h37.08.424,lexical_decision_task_MP,2020.1.3,Linux armv7l,60,,0,-0.517008167,-0.31692098,1,0,0,0.6333,button_left,0.6333,1,,,,,,271,NW,"ID",33,aubrid,AUBRID,z,,,,,,-0.517008167,-0.31692098,1,0,0,,0,206,206,270,1,
,,,,,,,,,,,,,,,,,,5f2aa0c85cf0cd3026283f76,2020-08-08_10h37.08.424,lexical_decision_task_MP,2020.1.3,Linux armv7l,60,,0,0.449019538,-0.318307919,1,0,0,0.6481,button_right,0.6481,1,,,,,,125,WORD,UN,33,blouse,NICKEL,m,,,,,,0.449019538,-0.318307919,1,0,0,,0,207,207,124,1,
,,,,,,,,,,,,,,,,,,5f2aa0c85cf0cd3026283f76,2020-08-08_10h37.08.424,lexical_decision_task_MP,2020.1.3,Linux armv7l,60,,0,0.460123359,-0.326629723,1,0,0,0.5198,button_right,0.5198,1,,,,,,44,WORD,"ID",33,danger,DANGER,m,,,,,,0.460123359,-0.326629723,1,0,0,,0,208,208,43,1,
,,,,,,,,,,,,,,,,,,5f2aa0c85cf0cd3026283f76,2020-08-08_10h37.08.424,lexical_decision_task_MP,2020.1.3,Linux armv7l,60,,0,0.460123359,-0.326629723,1,0,0,0.5473,button_right,0.5473,1,,,,,,94,WORD,"ID",50,travel,TRAVEL,m,,,,,,0.460123359,-0.326629723,1,0,0,,0,209,209,93,1,
,,,,,,,,,,,,,,,,,,5f2aa0c85cf0cd3026283f76,2020-08-08_10h37.08.424,lexical_decision_task_MP,2020.1.3,Linux armv7l,60,,0,0.442079671,-0.318307919,1,0,0,0.5161,button_right,0.5161,1,,,,,,168,WORD,UN,33,genius,ANSWER,m,,,,,,0.442079671,-0.318307919,1,0,0,,0,210,210,167,1,
,,,,,,,,,,,,,,,,,,5f2aa0c85cf0cd3026283f76,2020-08-08_10h37.08.424,lexical_decision_task_MP,2020.1.3,Linux armv7l,60,,0,0.444855754,-0.339112345,1,0,0,0.5479,button_right,0.5479,1,,,,,,11,WORD,"ID",33,cruise,CRUISE,m,,,,,,0.444855754,-0.339112345,1,0,0,,0,211,211,10,1,
,,,,,,,,,,,,,,,,,,5f2aa0c85cf0cd3026283f76,2020-08-08_10h37.08.424,lexical_decision_task_MP,2020.1.3,Linux armv7l,60,,0,-0.518396123,-0.315534041,1,0,0,0.6495,button_left,0.6495,1,,,,,,385,NW,UN,33,ancust,VEIGMA,z,,,,,,-0.518396123,-0.315534041,1,0,0,,0,212,212,384,1,
,,,,,,,,,,,,,,,,,,5f2aa0c85cf0cd3026283f76,2020-08-08_10h37.08.424,lexical_decision_task_MP,2020.1.3,Linux armv7l,60,,0,0.575325012,-0.314147017,1,0,0,0.6974,button_right,0.6974,1,,,,,,194,WORD,UN,50,resign,ABSENT,m,,,,,,0.575325012,-0.314147017,1,0,0,,0,213,213,193,1,
,,,,,,,,,,,,,,,,,,5f2aa0c85cf0cd3026283f76,2020-08-08_10h37.08.424,lexical_decision_task_MP,2020.1.3,Linux armv7l,60,,0,0.537849765,-0.339112345,1,0,0,0.5904,button_right,0.5904,1,,,,,,178,WORD,UN,33,mildew,INFORM,m,,,,,,0.537849765,-0.339112345,1,0,0,,0,214,214,177,1,
,,,,,,,,,,,,,,,,,,5f2aa0c85cf0cd3026283f76,2020-08-08_10h37.08.424,lexical_decision_task_MP,2020.1.3,Linux armv7l,60,,0,-0.417074246,-0.296116553,1,0,0,0.7555,button_left,0.7555,1,,,,,,388,NW,UN,33,witmer,CRAGIN,z,,,,,,-0.417074246,-0.296116553,1,0,0,,0,215,215,387,1,
,,,,,,,,,,,,,,,,,,5f2aa0c85cf0cd3026283f76,2020-08-08_10h37.08.424,lexical_decision_task_MP,2020.1.3,Linux armv7l,60,,0,0.489270698,-0.32385576,1,0,0,1.2218,button_right,1.2218,1,,,,,,30,WORD,"ID",33,orient,ORIENT,m,,,,,,0.489270698,-0.32385576,1,0,0,,0,216,216,29,1,
,,,,,,,,,,,,,,,,,,5f2aa0c85cf0cd3026283f76,2020-08-08_10h37.08.424,lexical_decision_task_MP,2020.1.3,Linux armv7l,60,,0,-0.465653229,-0.312760078,1,0,0,0.7224,button_left,0.7224,1,,,,,,290,NW,"ID",33,splino,SPLINO,z,,,,,,-0.465653229,-0.312760078,1,0,0,,0,217,217,289,1,
,,,,,,,,,,,,,,,,,,5f2aa0c85cf0cd3026283f76,2020-08-08_10h37.08.424,lexical_decision_task_MP,2020.1.3,Linux armv7l,60,,0,-0.453161494,-0.29334259,1,0,0,0.6981,button_left,0.6981,1,,,,,,442,NW,UN,50,dorsex,ABOUNE,z,,,,,,-0.453161494,-0.29334259,1,0,0,,0,218,218,441,1,
,,,,,,,,,,,,,,,,,,5f2aa0c85cf0cd3026283f76,2020-08-08_10h37.08.424,lexical_decision_task_MP,2020.1.3,Linux armv7l,60,,0,0.457347446,-0.248959774,1,0,0,0.6571,button_right,0.6571,1,,,,,,132,WORD,UN,33,bleach,STRONG,m,,,,,,0.457347446,-0.248959774,1,0,0,,0,219,219,131,1,
,,,,,,,,,,,,,,,,,,5f2aa0c85cf0cd3026283f76,2020-08-08_10h37.08.424,lexical_decision_task_MP,2020.1.3,Linux armv7l,60,,0,-0.453161494,-0.311373138,1,0,0,0.6809,button_left,0.6809,1,,,,,,439,NW,UN,50,saride,LIMPOR,z,,,,,,-0.453161494,-0.311373138,1,0,0,,0,220,220,438,1,
,,,,,,,,,,,,,,,,,,5f2aa0c85cf0cd3026283f76,2020-08-08_10h37.08.424,lexical_decision_task_MP,2020.1.3,Linux armv7l,60,,0,-0.473981052,-0.301664395,1,0,0,0.8501,button_left,0.8501,1,,,,,,284,NW,"ID",33,shaple,SHAPLE,z,,,,,,-0.473981052,-0.301664395,1,0,0,,0,221,221,283,1,
,,,,,,,,,,,,,,,,,,5f2aa0c85cf0cd3026283f76,2020-08-08_10h37.08.424,lexical_decision_task_MP,2020.1.3,Linux armv7l,60,,0,-0.475369051,-0.301664395,1,0,0,0.7904,button_left,0.7904,0,,,,,,199,WORD,UN,50,beacon,INVOKE,m,,,,,,-0.475369051,-0.301664395,1,0,0,,0,222,222,198,1,
,,,,,,,,,,,,,,,,,,5f2aa0c85cf0cd3026283f76,2020-08-08_10h37.08.424,lexical_decision_task_MP,2020.1.3,Linux armv7l,60,,0,-0.476757007,-0.301664395,1,0,0,0.7754,button_left,0.7754,1,,,,,,244,NW,"ID",33,eatric,EATRIC,z,,,,,,-0.476757007,-0.301664395,1,0,0,,0,223,223,243,1,
,,,,,,,,,,,,,,,,,,5f2aa0c85cf0cd3026283f76,2020-08-08_10h37.08.424,lexical_decision_task_MP,2020.1.3,Linux armv7l,60,,0,0.458735318,-0.311373138,1,0,0,0.5987,button_right,0.5987,1,,,,,,91,WORD,"ID",50,expand,EXPAND,m,,,,,,0.458735318,-0.311373138,1,0,0,,0,224,224,90,1,
,,,,,,,,,,,,,,,,,,5f2aa0c85cf0cd3026283f76,2020-08-08_10h37.08.424,lexical_decision_task_MP,2020.1.3,Linux armv7l,60,,0,0.479554918,-0.318307919,1,0,0,0.5656,button_right,0.5656,1,,,,,,15,WORD,"ID",33,amount,AMOUNT,m,,,,,,0.479554918,-0.318307919,1,0,0,,0,225,225,14,1,
,,,,,,,,,,,,,,,,,,5f2aa0c85cf0cd3026283f76,2020-08-08_10h37.08.424,lexical_decision_task_MP,2020.1.3,Linux armv7l,60,,0,0.497598606,-0.304438273,1,0,0,0.581,button_right,0.581,1,,,,,,87,WORD,"ID",50,filter,FILTER,m,,,,,,0.497598606,-0.304438273,1,0,0,,0,226,226,86,1,
,,,,,,,,,,,,,,,,,,5f2aa0c85cf0cd3026283f76,2020-08-08_10h37.08.424,lexical_decision_task_MP,2020.1.3,Linux armv7l,60,,0,0.497598606,-0.304438273,1,0,0,0.5816,button_right,0.5816,1,,,,,,18,WORD,"ID",33,humble,HUMBLE,m,,,,,,0.497598606,-0.304438273,1,0,0,,0,227,227,17,1,
,,,,,,,,,,,,,,,,,,5f2aa0c85cf0cd3026283f76,2020-08-08_10h37.08.424,lexical_decision_task_MP,2020.1.3,Linux armv7l,60,,0,0.496210565,-0.304438273,1,0,0,0.547,button_right,0.547,1,,,,,,152,WORD,UN,33,behold,ROCKET,m,,,,,,0.496210565,-0.304438273,1,0,0,,0,228,228,151,1,
,,,,,,,,,,,,,,,,,,5f2aa0c85cf0cd3026283f76,2020-08-08_10h37.08.424,lexical_decision_task_MP,2020.1.3,Linux armv7l,60,,0,-0.48508483,-0.298890432,1,0,0,0.7479,button_left,0.7479,1,,,,,,380,NW,UN,33,huniek,CAVORY,z,,,,,,-0.48508483,-0.298890432,1,0,0,,0,229,229,379,1,
,,,,,,,,,,,,,,,,,,5f2aa0c85cf0cd3026283f76,2020-08-08_10h37.08.424,lexical_decision_task_MP,2020.1.3,Linux armv7l,60,,0,0.480942959,-0.330790626,1,0,0,0.6805,button_right,0.6805,1,,,,,,108,WORD,"ID",50,reckon,RECKON,m,,,,,,0.480942959,-0.330790626,1,0,0,,0,230,230,107,1,
,,,,,,,,,,,,,,,,,,5f2aa0c85cf0cd3026283f76,2020-08-08_10h37.08.424,lexical_decision_task_MP,2020.1.3,Linux armv7l,60,,0,0.474003092,-0.319694858,1,0,0,0.6823,button_right,0.6823,1,,,,,,238,WORD,UN,50,grumpy,FLOWER,m,,,,,,0.474003092,-0.319694858,1,0,0,,0,231,231,237,1,
,,,,,,,,,,,,,,,,,,5f2aa0c85cf0cd3026283f76,2020-08-08_10h37.08.424,lexical_decision_task_MP,2020.1.3,Linux armv7l,60,,0,0.474003092,-0.319694858,1,0,0,0.6472,button_right,0.6472,1,,,,,,190,WORD,UN,50,stable,BACKUP,m,,,,,,0.474003092,-0.319694858,1,0,0,,0,232,232,189,1,
,,,,,,,,,,,,,,,,,,5f2aa0c85cf0cd3026283f76,2020-08-08_10h37.08.424,lexical_decision_task_MP,2020.1.3,Linux armv7l,60,,0,0.474003092,-0.319694858,1,0,0,0.5223,button_right,0.5223,0,,,,,,345,NW,"ID",50,absend,ABSEND,z,,,,,,0.474003092,-0.319694858,1,0,0,,0,233,233,344,1,
,,,,,,,,,,,,,,,,,,5f2aa0c85cf0cd3026283f76,2020-08-08_10h37.08.424,lexical_decision_task_MP,2020.1.3,Linux armv7l,60,,0,0.465675184,-0.330790626,1,0,0,0.6475,button_right,0.6475,1,,,,,,74,WORD,"ID",50,plaque,PLAQUE,m,,,,,,0.465675184,-0.330790626,1,0,0,,0,234,234,73,1,
,,,,,,,,,,,,,,,,,,5f2aa0c85cf0cd3026283f76,2020-08-08_10h37.08.424,lexical_decision_task_MP,2020.1.3,Linux armv7l,60,,0,-0.497576565,-0.300277371,1,0,0,0.5481,button_left,0.5481,1,,,,,,459,NW,UN,50,mingar,BAFENT,z,,,,,,-0.497576565,-0.300277371,1,0,0,,0,235,235,458,1,
,,,,,,,,,,,,,,,,,,5f2aa0c85cf0cd3026283f76,2020-08-08_10h37.08.424,lexical_decision_task_MP,2020.1.3,Linux armv7l,60,,0,0.475390964,-0.32385576,1,0,0,0.6981,button_right,0.6981,1,,,,,,234,WORD,UN,50,lumber,CLUMSY,m,,,,,,0.475390964,-0.32385576,1,0,0,,0,236,236,233,1,
,,,,,,,,,,,,,,,,,,5f2aa0c85cf0cd3026283f76,2020-08-08_10h37.08.424,lexical_decision_task_MP,2020.1.3,Linux armv7l,60,,0,-0.478144964,-0.300277371,1,0,0,0.665,button_left,0.665,1,,,,,,272,NW,"ID",33,damilt,DAMILT,z,,,,,,-0.478144964,-0.300277371,1,0,0,,0,237,237,271,1,
,,,,,,,,,,,,,,,,,,5f2aa0c85cf0cd3026283f76,2020-08-08_10h37.08.424,lexical_decision_task_MP,2020.1.3,Linux armv7l,60,,0,0.462899272,-0.291955651,1,0,0,0.5969,button_right,0.5969,1,,,,,,141,WORD,UN,33,spruce,ORPHAN,m,,,,,,0.462899272,-0.291955651,1,0,0,,0,238,238,140,1,
,,,,,,,,,,,,,,,,,,5f2aa0c85cf0cd3026283f76,2020-08-08_10h37.08.424,lexical_decision_task_MP,2020.1.3,Linux armv7l,60,,0,0.462899272,-0.29334259,1,0,0,0.5145,button_right,0.5145,1,,,,,,97,WORD,"ID",50,client,CLIENT,m,,,,,,0.462899272,-0.29334259,1,0,0,,0,239,239,96,1,
,,,,,,,,,,,,,,,,,,5f2aa0c85cf0cd3026283f76,2020-08-08_10h37.08.424,lexical_decision_task_MP,2020.1.3,Linux armv7l,60,,0,0.464287313,-0.29334259,1,0,0,0.5978,button_right,0.5978,1,,,,,,170,WORD,UN,33,depart,POUNCE,m,,,,,,0.464287313,-0.29334259,1,0,0,,0,240,240,169,1,
,,,,,,,,,,,,,,,,,,5f2aa0c85cf0cd3026283f76,2020-08-08_10h37.08.424,lexical_decision_task_MP,2020.1.3,Linux armv7l,60,,0,-0.487860786,-0.314147017,1,0,0,0.7313,button_left,0.7313,1,,,,,,405,NW,UN,33,nouply,FLUMNI,z,,,,,,0.092311096,-0.390429942,1,0,0,,0,241,241,404,1,break_done_button
,,,,,,,,,,,,,,,,,,5f2aa0c85cf0cd3026283f76,2020-08-08_10h37.08.424,lexical_decision_task_MP,2020.1.3,Linux armv7l,60,,0,-0.483696874,-0.296116553,1,0,0,0.6911,button_left,0.6911,1,,,,,,395,NW,UN,33,flengy,COLURY,z,,,,,,-0.483696874,-0.296116553,1,0,0,,0,242,242,394,1,
,,,,,,,,,,,,,,,,,,5f2aa0c85cf0cd3026283f76,2020-08-08_10h37.08.424,lexical_decision_task_MP,2020.1.3,Linux armv7l,60,,0,0.50176256,-0.312760078,1,0,0,0.6829,button_right,0.6829,1,,,,,,161,WORD,UN,33,candle,PASTOR,m,,,,,,0.50176256,-0.312760078,1,0,0,,0,243,243,160,1,
,,,,,,,,,,,,,,,,,,5f2aa0c85cf0cd3026283f76,2020-08-08_10h37.08.424,lexical_decision_task_MP,2020.1.3,Linux armv7l,60,,0,-0.501740477,-0.3252427,1,0,0,0.6811,button_left,0.6811,1,,,,,,448,NW,UN,50,brunge,SADENT,z,,,,,,-0.501740477,-0.3252427,1,0,0,,0,244,244,447,1,
,,,,,,,,,,,,,,,,,,5f2aa0c85cf0cd3026283f76,2020-08-08_10h37.08.424,lexical_decision_task_MP,2020.1.3,Linux armv7l,60,,0,-0.501740477,-0.3252427,1,0,0,0.5483,button_left,0.5483,1,,,,,,282,NW,"ID",33,porlex,PORLEX,z,,,,,,-0.501740477,-0.3252427,1,0,0,,0,245,245,281,1,
,,,,,,,,,,,,,,,,,,5f2aa0c85cf0cd3026283f76,2020-08-08_10h37.08.424,lexical_decision_task_MP,2020.1.3,Linux armv7l,60,,0,0.565609063,-0.283633847,1,0,0,0.5479,button_right,0.5479,1,,,,,,115,WORD,"ID",50,guitar,GUITAR,m,,,,,,0.565609063,-0.283633847,1,0,0,,0,246,246,114,1,
,,,,,,,,,,,,,,,,,,5f2aa0c85cf0cd3026283f76,2020-08-08_10h37.08.424,lexical_decision_task_MP,2020.1.3,Linux armv7l,60,,0,-0.49480061,-0.328016663,1,0,0,0.7144,button_left,0.7144,1,,,,,,423,NW,UN,50,praile,STRELD,z,,,,,,-0.49480061,-0.328016663,1,0,0,,0,247,247,422,1,
,,,,,,,,,,,,,,,,,,5f2aa0c85cf0cd3026283f76,2020-08-08_10h37.08.424,lexical_decision_task_MP,2020.1.3,Linux armv7l,60,,0,-0.493412654,-0.326629723,1,0,0,0.6323,button_left,0.6323,1,,,,,,443,NW,UN,50,jaunce,DORSEX,z,,,,,,-0.493412654,-0.326629723,1,0,0,,0,248,248,442,1,
,,,,,,,,,,,,,,,,,,5f2aa0c85cf0cd3026283f76,2020-08-08_10h37.08.424,lexical_decision_task_MP,2020.1.3,Linux armv7l,60,,0,-0.476757007,-0.333564504,1,0,0,0.5822,button_left,0.5822,1,,,,,,390,NW,UN,33,theldy,HATRUS,z,,,,,,-0.476757007,-0.333564504,1,0,0,,0,249,249,389,1,
,,,,,,,,,,,,,,,,,,5f2aa0c85cf0cd3026283f76,2020-08-08_10h37.08.424,lexical_decision_task_MP,2020.1.3,Linux armv7l,60,,0,-0.476757007,-0.333564504,1,0,0,0.556,button_left,0.556,1,,,,,,273,NW,"ID",33,sortel,SORTEL,z,,,,,,-0.476757007,-0.333564504,1,0,0,,0,250,250,272,1,
,,,,,,,,,,,,,,,,,,5f2aa0c85cf0cd3026283f76,2020-08-08_10h37.08.424,lexical_decision_task_MP,2020.1.3,Linux armv7l,60,,0,0.566997104,-0.308599175,1,0,0,0.5491,button_right,0.5491,1,,,,,,185,WORD,UN,50,portal,BOTHER,m,,,,,,0.566997104,-0.308599175,1,0,0,,0,251,251,184,1,
,,,,,,,,,,,,,,,,,,5f2aa0c85cf0cd3026283f76,2020-08-08_10h37.08.424,lexical_decision_task_MP,2020.1.3,Linux armv7l,60,,0,0.568385145,-0.307212236,1,0,0,0.6394,button_right,0.6394,1,,,,,,40,WORD,"ID",33,convey,CONVEY,m,,,,,,0.568385145,-0.307212236,1,0,0,,0,252,252,39,1,
,,,,,,,,,,,,,,,,,,5f2aa0c85cf0cd3026283f76,2020-08-08_10h37.08.424,lexical_decision_task_MP,2020.1.3,Linux armv7l,60,,0,0.568385145,-0.307212236,1,0,0,0.4999,button_right,0.4999,1,,,,,,34,WORD,"ID",33,jungle,JUNGLE,m,,,,,,0.568385145,-0.307212236,1,0,0,,0,253,253,33,1,
,,,,,,,,,,,,,,,,,,5f2aa0c85cf0cd3026283f76,2020-08-08_10h37.08.424,lexical_decision_task_MP,2020.1.3,Linux armv7l,60,,0,0.568385145,-0.307212236,1,0,0,0.5992,button_right,0.5992,1,,,,,,146,WORD,UN,33,garlic,COUPLE,m,,,,,,0.568385145,-0.307212236,1,0,0,,0,254,254,145,1,
,,,,,,,,,,,,,,,,,,5f2aa0c85cf0cd3026283f76,2020-08-08_10h37.08.424,lexical_decision_task_MP,2020.1.3,Linux armv7l,60,,0,0.568385145,-0.307212236,1,0,0,0.5476,button_right,0.5476,1,,,,,,192,WORD,UN,50,object,PLAGUE,m,,,,,,0.568385145,-0.307212236,1,0,0,,0,255,255,191,1,
,,,,,,,,,,,,,,,,,,5f2aa0c85cf0cd3026283f76,2020-08-08_10h37.08.424,lexical_decision_task_MP,2020.1.3,Linux armv7l,60,,0,0.548953417,-0.312760078,1,0,0,0.582,button_right,0.582,1,,,,,,198,WORD,UN,50,invoke,WICKED,m,,,,,,0.548953417,-0.312760078,1,0,0,,0,256,256,197,1,
,,,,,,,,,,,,,,,,,,5f2aa0c85cf0cd3026283f76,2020-08-08_10h37.08.424,lexical_decision_task_MP,2020.1.3,Linux armv7l,60,,0,0.550341458,-0.312760078,1,0,0,0.5819,button_right,0.5819,1,,,,,,22,WORD,"ID",33,jockey,JOCKEY,m,,,,,,0.550341458,-0.312760078,1,0,0,,0,257,257,21,1,
,,,,,,,,,,,,,,,,,,5f2aa0c85cf0cd3026283f76,2020-08-08_10h37.08.424,lexical_decision_task_MP,2020.1.3,Linux armv7l,60,,0,0.550341458,-0.315534041,1,0,0,0.5854,button_right,0.5854,1,,,,,,130,WORD,UN,33,quench,STUPID,m,,,,,,0.550341458,-0.315534041,1,0,0,,0,258,258,129,1,
,,,,,,,,,,,,,,,,,,5f2aa0c85cf0cd3026283f76,2020-08-08_10h37.08.424,lexical_decision_task_MP,2020.1.3,Linux armv7l,60,,0,-0.472593096,-0.326629723,1,0,0,0.6414,button_left,0.6414,1,,,,,,264,NW,"ID",33,vackel,VACKEL,z,,,,,,-0.472593096,-0.326629723,1,0,0,,0,259,259,263,1,
,,,,,,,,,,,,,,,,,,5f2aa0c85cf0cd3026283f76,2020-08-08_10h37.08.424,lexical_decision_task_MP,2020.1.3,Linux armv7l,60,,0,-0.489248742,-0.309986115,1,0,0,0.5988,button_left,0.5988,1,,,,,,471,NW,UN,50,cigney,NOBEST,z,,,,,,-0.489248742,-0.309986115,1,0,0,,0,260,260,470,1,
,,,,,,,,,,,,,,,,,,5f2aa0c85cf0cd3026283f76,2020-08-08_10h37.08.424,lexical_decision_task_MP,2020.1.3,Linux armv7l,60,,0,-0.5100683,-0.322468821,1,0,0,0.8665,button_left,0.8665,1,,,,,,285,NW,"ID",33,prudge,PRUDGE,z,,,,,,-0.5100683,-0.322468821,1,0,0,,0,261,261,284,1,
,,,,,,,,,,,,,,,,,,5f2aa0c85cf0cd3026283f76,2020-08-08_10h37.08.424,lexical_decision_task_MP,2020.1.3,Linux armv7l,60,,0,-0.523948034,-0.307212236,1,0,0,0.6659,button_left,0.6659,1,,,,,,361,NW,UN,33,tireau,PAUCHE,z,,,,,,-0.523948034,-0.307212236,1,0,0,,0,262,262,360,1,
,,,,,,,,,,,,,,,,,,5f2aa0c85cf0cd3026283f76,2020-08-08_10h37.08.424,lexical_decision_task_MP,2020.1.3,Linux armv7l,60,,0,0.540625678,-0.307212236,1,0,0,0.5919,button_right,0.5919,1,,,,,,182,WORD,UN,50,basket,WINTER,m,,,,,,0.540625678,-0.307212236,1,0,0,,0,263,263,181,1,
,,,,,,,,,,,,,,,,,,5f2aa0c85cf0cd3026283f76,2020-08-08_10h37.08.424,lexical_decision_task_MP,2020.1.3,Linux armv7l,60,,0,-0.497576565,-0.305825297,1,0,0,0.5726,button_left,0.5726,1,,,,,,472,NW,UN,50,crible,CIGNEY,z,,,,,,-0.497576565,-0.305825297,1,0,0,,0,264,264,471,1,
,,,,,,,,,,,,,,,,,,5f2aa0c85cf0cd3026283f76,2020-08-08_10h37.08.424,lexical_decision_task_MP,2020.1.3,Linux armv7l,60,,0,0.540625678,-0.28640781,1,0,0,0.6387,button_right,0.6387,1,,,,,,229,WORD,UN,50,fringe,MOTHER,m,,,,,,0.540625678,-0.28640781,1,0,0,,0,265,265,228,1,
,,,,,,,,,,,,,,,,,,5f2aa0c85cf0cd3026283f76,2020-08-08_10h37.08.424,lexical_decision_task_MP,2020.1.3,Linux armv7l,60,,0,0.522581991,-0.289181688,1,0,0,0.5558,button_right,0.5558,1,,,,,,151,WORD,UN,33,rocket,MYSTIC,m,,,,,,0.522581991,-0.289181688,1,0,0,,0,266,266,150,1,
,,,,,,,,,,,,,,,,,,5f2aa0c85cf0cd3026283f76,2020-08-08_10h37.08.424,lexical_decision_task_MP,2020.1.3,Linux armv7l,60,,0,-0.493412654,-0.273925103,1,0,0,0.6814,button_left,0.6814,1,,,,,,321,NW,"ID",50,miator,MIATOR,z,,,,,,-0.493412654,-0.273925103,1,0,0,,0,267,267,320,1,
,,,,,,,,,,,,,,,,,,5f2aa0c85cf0cd3026283f76,2020-08-08_10h37.08.424,lexical_decision_task_MP,2020.1.3,Linux armv7l,60,,0,-0.521172078,-0.283633847,1,0,0,0.6317,button_left,0.6317,1,,,,,,456,NW,UN,50,wanigh,BROGET,z,,,,,,-0.521172078,-0.283633847,1,0,0,,0,268,268,455,1,
,,,,,,,,,,,,,,,,,,5f2aa0c85cf0cd3026283f76,2020-08-08_10h37.08.424,lexical_decision_task_MP,2020.1.3,Linux armv7l,60,,0,0.550341458,-0.309986115,1,0,0,0.6574,button_right,0.6574,1,,,,,,203,WORD,UN,50,burden,PHRASE,m,,,,,,0.550341458,-0.309986115,1,0,0,,0,269,269,202,1,
,,,,,,,,,,,,,,,,,,5f2aa0c85cf0cd3026283f76,2020-08-08_10h37.08.424,lexical_decision_task_MP,2020.1.3,Linux armv7l,60,,0,0.548953417,-0.309986115,1,0,0,0.4648,button_right,0.4648,1,,,,,,72,WORD,"ID",50,bright,BRIGHT,m,,,,,,0.548953417,-0.309986115,1,0,0,,0,270,270,71,1,
,,,,,,,,,,,,,,,,,,5f2aa0c85cf0cd3026283f76,2020-08-08_10h37.08.424,lexical_decision_task_MP,2020.1.3,Linux armv7l,60,,0,0.578100925,-0.301664395,1,0,0,0.5997,button_right,0.5997,1,,,,,,100,WORD,"ID",50,carbon,CARBON,m,,,,,,0.578100925,-0.301664395,1,0,0,,0,271,271,99,1,
,,,,,,,,,,,,,,,,,,5f2aa0c85cf0cd3026283f76,2020-08-08_10h37.08.424,lexical_decision_task_MP,2020.1.3,Linux armv7l,60,,0,0.539237637,-0.330790626,1,0,0,0.6811,button_right,0.6811,1,,,,,,134,WORD,UN,33,import,STAPLE,m,,,,,,0.539237637,-0.330790626,1,0,0,,0,272,272,133,1,
,,,,,,,,,,,,,,,,,,5f2aa0c85cf0cd3026283f76,2020-08-08_10h37.08.424,lexical_decision_task_MP,2020.1.3,Linux armv7l,60,,0,0.546177504,-0.312760078,1,0,0,0.5608,button_right,0.5608,1,,,,,,122,WORD,UN,33,strike,LINGER,m,,,,,,0.546177504,-0.312760078,1,0,0,,0,273,273,121,1,
,,,,,,,,,,,,,,,,,,5f2aa0c85cf0cd3026283f76,2020-08-08_10h37.08.424,lexical_decision_task_MP,2020.1.3,Linux armv7l,60,,0,0.508702257,-0.303051334,1,0,0,0.5481,button_right,0.5481,1,,,,,,3,WORD,"ID",33,knight,KNIGHT,m,,,,,,0.508702257,-0.303051334,1,0,0,,0,274,274,2,1,
,,,,,,,,,,,,,,,,,,5f2aa0c85cf0cd3026283f76,2020-08-08_10h37.08.424,lexical_decision_task_MP,2020.1.3,Linux armv7l,60,,0,-0.49480061,-0.264216359,1,0,0,0.6652,button_left,0.6652,1,,,,,,247,NW,"ID",33,blarge,BLARGE,z,,,,,,-0.49480061,-0.264216359,1,0,0,,0,275,275,246,1,
,,,,,,,,,,,,,,,,,,5f2aa0c85cf0cd3026283f76,2020-08-08_10h37.08.424,lexical_decision_task_MP,2020.1.3,Linux armv7l,60,,0,0.553117371,-0.334951443,1,0,0,0.6161,button_right,0.6161,1,,,,,,23,WORD,"ID",33,wealth,WEALTH,m,,,,,,0.553117371,-0.334951443,1,0,0,,0,276,276,22,1,
,,,,,,,,,,,,,,,,,,5f2aa0c85cf0cd3026283f76,2020-08-08_10h37.08.424,lexical_decision_task_MP,2020.1.3,Linux armv7l,60,,0,-0.557259327,-0.285020786,1,0,0,0.7507,button_left,0.7507,1,,,,,,253,NW,"ID",33,resait,RESAIT,z,,,,,,-0.557259327,-0.285020786,1,0,0,,0,277,277,252,1,
,,,,,,,,,,,,,,,,,,5f2aa0c85cf0cd3026283f76,2020-08-08_10h37.08.424,lexical_decision_task_MP,2020.1.3,Linux armv7l,60,,0,-0.511456256,-0.287794749,1,0,0,0.7325,button_left,0.7325,1,,,,,,280,NW,"ID",33,curbol,CURBOL,z,,,,,,-0.511456256,-0.287794749,1,0,0,,0,278,278,279,1,
,,,,,,,,,,,,,,,,,,5f2aa0c85cf0cd3026283f76,2020-08-08_10h37.08.424,lexical_decision_task_MP,2020.1.3,Linux armv7l,60,,0,0.565609063,-0.308599175,1,0,0,0.5985,button_right,0.5985,1,,,,,,224,WORD,UN,50,vulgar,PERIOD,m,,,,,,0.565609063,-0.308599175,1,0,0,,0,279,279,223,1,
,,,,,,,,,,,,,,,,,,5f2aa0c85cf0cd3026283f76,2020-08-08_10h37.08.424,lexical_decision_task_MP,2020.1.3,Linux armv7l,60,,0,-0.522560035,-0.307212236,1,0,0,0.7333,button_left,0.7333,1,,,,,,296,NW,"ID",33,beinch,BEINCH,z,,,,,,-0.522560035,-0.307212236,1,0,0,,0,280,280,295,1,
,,,,,,,,,,,,,,,,,,5f2aa0c85cf0cd3026283f76,2020-08-08_10h37.08.424,lexical_decision_task_MP,2020.1.3,Linux armv7l,60,,0,0.535073853,-0.307212236,1,0,0,0.5652,button_right,0.5652,1,,,,,,127,WORD,UN,33,senior,CASTLE,m,,,,,,0.535073853,-0.307212236,1,0,0,,0,281,281,126,1,
,,,,,,,,,,,,,,,,,,5f2aa0c85cf0cd3026283f76,2020-08-08_10h37.08.424,lexical_decision_task_MP,2020.1.3,Linux armv7l,60,,0,0.535073853,-0.307212236,1,0,0,0.4811,button_right,0.4811,1,,,,,,101,WORD,"ID",50,wrench,WRENCH,m,,,,,,0.535073853,-0.307212236,1,0,0,,0,282,282,100,1,
,,,,,,,,,,,,,,,,,,5f2aa0c85cf0cd3026283f76,2020-08-08_10h37.08.424,lexical_decision_task_MP,2020.1.3,Linux armv7l,60,,0,-0.504516432,-0.297503493,1,0,0,0.6978,button_left,0.6978,1,,,,,,428,NW,UN,50,chrums,TANDLY,z,,,,,,-0.504516432,-0.297503493,1,0,0,,0,283,283,427,1,
,,,,,,,,,,,,,,,,,,5f2aa0c85cf0cd3026283f76,2020-08-08_10h37.08.424,lexical_decision_task_MP,2020.1.3,Linux armv7l,60,,0,-0.48508483,-0.301664395,1,0,0,0.7658,button_left,0.7658,1,,,,,,291,NW,"ID",33,pretch,PRETCH,z,,,,,,-0.48508483,-0.301664395,1,0,0,,0,284,284,290,1,
,,,,,,,,,,,,,,,,,,5f2aa0c85cf0cd3026283f76,2020-08-08_10h37.08.424,lexical_decision_task_MP,2020.1.3,Linux armv7l,60,,0,0.575325012,-0.300277371,1,0,0,0.5143,button_right,0.5143,1,,,,,,109,WORD,"ID",50,wonder,WONDER,m,,,,,,0.575325012,-0.300277371,1,0,0,,0,285,285,108,1,
,,,,,,,,,,,,,,,,,,5f2aa0c85cf0cd3026283f76,2020-08-08_10h37.08.424,lexical_decision_task_MP,2020.1.3,Linux armv7l,60,,0,-0.486472787,-0.282246908,1,0,0,0.681,button_left,0.681,1,,,,,,325,NW,"ID",50,thruse,THRUSE,z,,,,,,-0.486472787,-0.282246908,1,0,0,,0,286,286,324,1,
,,,,,,,,,,,,,,,,,,5f2aa0c85cf0cd3026283f76,2020-08-08_10h37.08.424,lexical_decision_task_MP,2020.1.3,Linux armv7l,60,,0,0.539237637,-0.307212236,1,0,0,0.5795,button_right,0.5795,1,,,,,,223,WORD,UN,50,period,KIDNEY,m,,,,,,0.539237637,-0.307212236,1,0,0,,0,287,287,222,1,
,,,,,,,,,,,,,,,,,,5f2aa0c85cf0cd3026283f76,2020-08-08_10h37.08.424,lexical_decision_task_MP,2020.1.3,Linux armv7l,60,,0,0.539237637,-0.308599175,1,0,0,0.4823,button_right,0.4823,1,,,,,,43,WORD,"ID",33,tongue,TONGUE,m,,,,,,0.539237637,-0.308599175,1,0,0,,0,288,288,42,1,
,,,,,,,,,,,,,,,,,,5f2aa0c85cf0cd3026283f76,2020-08-08_10h37.08.424,lexical_decision_task_MP,2020.1.3,Linux armv7l,60,,0,0.535073853,-0.328016663,1,0,0,0.5321,button_right,0.5321,1,,,,,,140,WORD,UN,33,reason,PRINCE,m,,,,,,0.535073853,-0.328016663,1,0,0,,0,289,289,139,1,
,,,,,,,,,,,,,,,,,,5f2aa0c85cf0cd3026283f76,2020-08-08_10h37.08.424,lexical_decision_task_MP,2020.1.3,Linux armv7l,60,,0,-0.511456256,-0.29334259,1,0,0,0.5665,button_left,0.5665,1,,,,,,466,NW,UN,50,pebric,HOCITE,z,,,,,,-0.511456256,-0.29334259,1,0,0,,0,290,290,465,1,
,,,,,,,,,,,,,,,,,,5f2aa0c85cf0cd3026283f76,2020-08-08_10h37.08.424,lexical_decision_task_MP,2020.1.3,Linux armv7l,60,,0,-0.475369051,-0.311373138,1,0,0,0.6656,button_left,0.6656,1,,,,,,376,NW,UN,33,sliant,IGUARE,z,,,,,,-0.475369051,-0.311373138,1,0,0,,0,291,291,375,1,
,,,,,,,,,,,,,,,,,,5f2aa0c85cf0cd3026283f76,2020-08-08_10h37.08.424,lexical_decision_task_MP,2020.1.3,Linux armv7l,60,,0,0.535073853,-0.290568712,1,0,0,0.5325,button_right,0.5325,1,,,,,,187,WORD,UN,50,social,COURSE,m,,,,,,0.535073853,-0.290568712,1,0,0,,0,292,292,186,1,
,,,,,,,,,,,,,,,,,,5f2aa0c85cf0cd3026283f76,2020-08-08_10h37.08.424,lexical_decision_task_MP,2020.1.3,Linux armv7l,60,,0,-0.512844255,-0.308599175,1,0,0,0.5331,button_left,0.5331,1,,,,,,306,NW,"ID",50,sounge,SOUNGE,z,,,,,,-0.512844255,-0.308599175,1,0,0,,0,293,293,305,1,
,,,,,,,,,,,,,,,,,,5f2aa0c85cf0cd3026283f76,2020-08-08_10h37.08.424,lexical_decision_task_MP,2020.1.3,Linux armv7l,60,,0,0.539237637,-0.298890432,1,0,0,0.7491,button_right,0.7491,1,,,,,,237,WORD,UN,50,seldom,POSTER,m,,,,,,0.539237637,-0.298890432,1,0,0,,0,294,294,236,1,
,,,,,,,,,,,,,,,,,,5f2aa0c85cf0cd3026283f76,2020-08-08_10h37.08.424,lexical_decision_task_MP,2020.1.3,Linux armv7l,60,,0,0.560057237,-0.289181688,1,0,0,0.6496,button_right,0.6496,1,,,,,,183,WORD,UN,50,sleazy,MILDEW,m,,,,,,0.560057237,-0.289181688,1,0,0,,0,295,295,182,1,
,,,,,,,,,,,,,,,,,,5f2aa0c85cf0cd3026283f76,2020-08-08_10h37.08.424,lexical_decision_task_MP,2020.1.3,Linux armv7l,60,,0,0.587816705,-0.28640781,1,0,0,0.5478,button_right,0.5478,1,,,,,,98,WORD,"ID",50,belong,BELONG,m,,,,,,0.587816705,-0.28640781,1,0,0,,0,296,296,97,1,
,,,,,,,,,,,,,,,,,,5f2aa0c85cf0cd3026283f76,2020-08-08_10h37.08.424,lexical_decision_task_MP,2020.1.3,Linux armv7l,60,,0,-0.526723946,-0.357142893,1,0,0,0.6133,button_left,0.6133,1,,,,,,406,NW,UN,33,suiver,NOUPLY,z,,,,,,-0.526723946,-0.357142893,1,0,0,,0,297,297,405,1,
,,,,,,,,,,,,,,,,,,5f2aa0c85cf0cd3026283f76,2020-08-08_10h37.08.424,lexical_decision_task_MP,2020.1.3,Linux armv7l,60,,0,-0.518396123,-0.309986115,1,0,0,0.5989,button_left,0.5989,1,,,,,,410,NW,UN,33,orchin,TUNORY,z,,,,,,-0.518396123,-0.309986115,1,0,0,,0,298,298,409,1,
,,,,,,,,,,,,,,,,,,5f2aa0c85cf0cd3026283f76,2020-08-08_10h37.08.424,lexical_decision_task_MP,2020.1.3,Linux armv7l,60,,0,-0.519784122,-0.309986115,1,0,0,0.6323,button_left,0.6323,1,,,,,,262,NW,"ID",33,quilew,QUILEW,z,,,,,,-0.519784122,-0.309986115,1,0,0,,0,299,299,261,1,
,,,,,,,,,,,,,,,,,,5f2aa0c85cf0cd3026283f76,2020-08-08_10h37.08.424,lexical_decision_task_MP,2020.1.3,Linux armv7l,60,,0,-0.521172078,-0.309986115,1,0,0,0.7805,button_left,0.7805,1,,,,,,320,NW,"ID",50,jockal,JOCKAL,z,,,,,,-0.521172078,-0.309986115,1,0,0,,0,300,300,319,1,
,,,,,,,,,,,,,,,,,,5f2aa0c85cf0cd3026283f76,2020-08-08_10h37.08.424,lexical_decision_task_MP,2020.1.3,Linux armv7l,60,,0,0.550341458,-0.301664395,1,0,0,0.79,button_right,0.79,1,,,,,,121,WORD,UN,33,linger,THRIVE,m,,,,,,0.550341458,-0.301664395,1,0,0,,0,301,301,120,1,
,,,,,,,,,,,,,,,,,,5f2aa0c85cf0cd3026283f76,2020-08-08_10h37.08.424,lexical_decision_task_MP,2020.1.3,Linux armv7l,60,,0,0.568385145,-0.290568712,1,0,0,0.5656,button_right,0.5656,1,,,,,,14,WORD,"ID",33,almost,ALMOST,m,,,,,,0.568385145,-0.290568712,1,0,0,,0,302,302,13,1,
,,,,,,,,,,,,,,,,,,5f2aa0c85cf0cd3026283f76,2020-08-08_10h37.08.424,lexical_decision_task_MP,2020.1.3,Linux armv7l,60,,0,-0.519784122,-0.296116553,1,0,0,0.6158,button_left,0.6158,1,,,,,,478,NW,UN,50,lobush,ACRISE,z,,,,,,-0.519784122,-0.296116553,1,0,0,,0,303,303,477,1,
,,,,,,,,,,,,,,,,,,5f2aa0c85cf0cd3026283f76,2020-08-08_10h37.08.424,lexical_decision_task_MP,2020.1.3,Linux armv7l,60,,0,0.597532484,-0.297503493,1,0,0,0.7834,button_right,0.7834,1,,,,,,88,WORD,"ID",50,hunger,HUNGER,m,,,,,,0.597532484,-0.297503493,1,0,0,,0,304,304,87,1,
,,,,,,,,,,,,,,,,,,5f2aa0c85cf0cd3026283f76,2020-08-08_10h37.08.424,lexical_decision_task_MP,2020.1.3,Linux armv7l,60,,0,-0.521172078,-0.29334259,1,0,0,0.7828,button_left,0.7828,1,,,,,,379,NW,UN,33,cavory,AUTING,z,,,,,,-0.521172078,-0.29334259,1,0,0,,0,305,305,378,1,
,,,,,,,,,,,,,,,,,,5f2aa0c85cf0cd3026283f76,2020-08-08_10h37.08.424,lexical_decision_task_MP,2020.1.3,Linux armv7l,60,,0,-0.537827725,-0.303051334,1,0,0,0.6327,button_left,0.6327,1,,,,,,394,NW,UN,33,colury,SPAQUX,z,,,,,,-0.537827725,-0.303051334,1,0,0,,0,306,306,393,1,
,,,,,,,,,,,,,,,,,,5f2aa0c85cf0cd3026283f76,2020-08-08_10h37.08.424,lexical_decision_task_MP,2020.1.3,Linux armv7l,60,,0,0.575325012,-0.307212236,1,0,0,0.5487,button_right,0.5487,1,,,,,,165,WORD,UN,33,starch,INVEST,m,,,,,,0.575325012,-0.307212236,1,0,0,,0,307,307,164,1,
,,,,,,,,,,,,,,,,,,5f2aa0c85cf0cd3026283f76,2020-08-08_10h37.08.424,lexical_decision_task_MP,2020.1.3,Linux armv7l,60,,0,0.575325012,-0.307212236,1,0,0,0.5078,button_right,0.5078,1,,,,,,47,WORD,"ID",33,income,INCOME,m,,,,,,0.575325012,-0.307212236,1,0,0,,0,308,308,46,1,
,,,,,,,,,,,,,,,,,,5f2aa0c85cf0cd3026283f76,2020-08-08_10h37.08.424,lexical_decision_task_MP,2020.1.3,Linux armv7l,60,,0,0.575325012,-0.307212236,1,0,0,0.473,button_right,0.473,1,,,,,,163,WORD,UN,33,market,STRING,m,,,,,,0.575325012,-0.307212236,1,0,0,,0,309,309,162,1,
,,,,,,,,,,,,,,,,,,5f2aa0c85cf0cd3026283f76,2020-08-08_10h37.08.424,lexical_decision_task_MP,2020.1.3,Linux armv7l,60,,0,0.575325012,-0.307212236,1,0,0,0.5005,button_right,0.5005,1,,,,,,112,WORD,"ID",50,breath,BREATH,m,,,,,,0.575325012,-0.307212236,1,0,0,,0,310,310,111,1,
,,,,,,,,,,,,,,,,,,5f2aa0c85cf0cd3026283f76,2020-08-08_10h37.08.424,lexical_decision_task_MP,2020.1.3,Linux armv7l,60,,0,0.575325012,-0.305825297,1,0,0,0.683,button_right,0.683,1,,,,,,133,WORD,UN,33,debris,CHROME,m,,,,,,0.575325012,-0.305825297,1,0,0,,0,311,311,132,1,
,,,,,,,,,,,,,,,,,,5f2aa0c85cf0cd3026283f76,2020-08-08_10h37.08.424,lexical_decision_task_MP,2020.1.3,Linux armv7l,60,,0,0.575325012,-0.307212236,1,0,0,0.9321,button_right,0.9321,1,,,,,,209,WORD,UN,50,monkey,SEARCH,m,,,,,,0.575325012,-0.307212236,1,0,0,,0,312,312,208,1,
,,,,,,,,,,,,,,,,,,5f2aa0c85cf0cd3026283f76,2020-08-08_10h37.08.424,lexical_decision_task_MP,2020.1.3,Linux armv7l,60,,0,-0.514232212,-0.311373138,1,0,0,0.748,button_left,0.748,1,,,,,,414,NW,UN,33,higsta,SERBOL,z,,,,,,-0.514232212,-0.311373138,1,0,0,,0,313,313,413,1,
,,,,,,,,,,,,,,,,,,5f2aa0c85cf0cd3026283f76,2020-08-08_10h37.08.424,lexical_decision_task_MP,2020.1.3,Linux armv7l,60,,0,-0.480920919,-0.334951443,1,0,0,1.3637,button_left,1.3637,1,,,,,,463,NW,UN,50,bafent,KISPEL,z,,,,,,-0.480920919,-0.334951443,1,0,0,,0,314,314,462,1,
,,,,,,,,,,,,,,,,,,5f2aa0c85cf0cd3026283f76,2020-08-08_10h37.08.424,lexical_decision_task_MP,2020.1.3,Linux armv7l,60,,0,,,,,,,,1.3637,-1,,,,,,309,NW,"ID",50,amiloy,AMILOY,z,,,,,,-0.536439768,-0.340499285,0,0,0,,0,315,315,308,1,
,,,,,,,,,,,,,,,,,,5f2aa0c85cf0cd3026283f76,2020-08-08_10h37.08.424,lexical_decision_task_MP,2020.1.3,Linux armv7l,60,,0,0.518418206,-0.253120677,1,0,0,0.7679,button_right,0.7679,1,,,,,,144,WORD,UN,33,parish,SPONGE,m,,,,,,0.518418206,-0.253120677,1,0,0,,0,316,316,143,1,
,,,,,,,,,,,,,,,,,,5f2aa0c85cf0cd3026283f76,2020-08-08_10h37.08.424,lexical_decision_task_MP,2020.1.3,Linux armv7l,60,,0,0.547565545,-0.330790626,1,0,0,0.5721,button_right,0.5721,1,,,,,,230,WORD,UN,50,export,FRINGE,m,,,,,,0.547565545,-0.330790626,1,0,0,,0,317,317,229,1,
,,,,,,,,,,,,,,,,,,5f2aa0c85cf0cd3026283f76,2020-08-08_10h37.08.424,lexical_decision_task_MP,2020.1.3,Linux armv7l,60,,0,0.557281325,-0.309986115,1,0,0,0.5392,button_right,0.5392,1,,,,,,124,WORD,UN,33,nickel,BLOUSE,m,,,,,,0.557281325,-0.309986115,1,0,0,,0,318,318,123,1,
,,,,,,,,,,,,,,,,,,5f2aa0c85cf0cd3026283f76,2020-08-08_10h37.08.424,lexical_decision_task_MP,2020.1.3,Linux armv7l,60,,0,0.535073853,-0.31692098,1,0,0,0.5346,button_right,0.5346,1,,,,,,195,WORD,UN,50,credit,RESIGN,m,,,,,,0.535073853,-0.31692098,1,0,0,,0,319,319,194,1,
,,,,,,,,,,,,,,,,,,5f2aa0c85cf0cd3026283f76,2020-08-08_10h37.08.424,lexical_decision_task_MP,2020.1.3,Linux armv7l,60,,0,0.555893283,-0.309986115,1,0,0,0.4319,button_right,0.4319,1,,,,,,21,WORD,"ID",33,simple,SIMPLE,m,,,,,,0.555893283,-0.309986115,1,0,0,,0,320,320,20,1,
,,,,,,,,,,,,,,,,,,5f2aa0c85cf0cd3026283f76,2020-08-08_10h37.08.424,lexical_decision_task_MP,2020.1.3,Linux armv7l,60,,0,0.557281325,-0.309986115,1,0,0,0.5318,button_right,0.5318,1,,,,,,68,WORD,"ID",50,fumble,FUMBLE,m,,,,,,0.557281325,-0.309986115,1,0,0,,0,321,321,67,1,
,,,,,,,,,,,,,,,,,,5f2aa0c85cf0cd3026283f76,2020-08-08_10h37.08.424,lexical_decision_task_MP,2020.1.3,Linux armv7l,60,,0,-0.490636698,-0.29334259,1,0,0,0.5816,button_left,0.5816,1,,,,,,427,NW,UN,50,tandly,SCHIND,z,,,,,,-0.490636698,-0.29334259,1,0,0,,0,322,322,426,1,
,,,,,,,,,,,,,,,,,,5f2aa0c85cf0cd3026283f76,2020-08-08_10h37.08.424,lexical_decision_task_MP,2020.1.3,Linux armv7l,60,,0,-0.512844255,-0.260055457,1,0,0,0.7138,button_left,0.7138,1,,,,,,367,NW,UN,33,hornal,SLIQUE,z,,,,,,-0.512844255,-0.260055457,1,0,0,,0,323,323,366,1,
,,,,,,,,,,,,,,,,,,5f2aa0c85cf0cd3026283f76,2020-08-08_10h37.08.424,lexical_decision_task_MP,2020.1.3,Linux armv7l,60,,0,-0.501740477,-0.276699066,1,0,0,0.5909,button_left,0.5909,1,,,,,,289,NW,"ID",33,starby,STARBY,z,,,,,,-0.501740477,-0.276699066,1,0,0,,0,324,324,288,1,
,,,,,,,,,,,,,,,,,,5f2aa0c85cf0cd3026283f76,2020-08-08_10h37.08.424,lexical_decision_task_MP,2020.1.3,Linux armv7l,60,,0,0.555893283,-0.309986115,1,0,0,0.5925,button_right,0.5925,1,,,,,,90,WORD,"ID",50,relish,RELISH,m,,,,,,0.555893283,-0.309986115,1,0,0,,0,325,325,89,1,
,,,,,,,,,,,,,,,,,,5f2aa0c85cf0cd3026283f76,2020-08-08_10h37.08.424,lexical_decision_task_MP,2020.1.3,Linux armv7l,60,,0,-0.507292345,-0.291955651,1,0,0,0.6206,button_left,0.6206,1,,,,,,467,NW,UN,50,wictor,GORBIE,z,,,,,,-0.507292345,-0.291955651,1,0,0,,0,326,326,466,1,
,,,,,,,,,,,,,,,,,,5f2aa0c85cf0cd3026283f76,2020-08-08_10h37.08.424,lexical_decision_task_MP,2020.1.3,Linux armv7l,60,,0,0.529521857,-0.305825297,1,0,0,0.5315,button_right,0.5315,1,,,,,,213,WORD,UN,50,intake,SQUEAL,m,,,,,,0.529521857,-0.305825297,1,0,0,,0,327,327,212,1,
,,,,,,,,,,,,,,,,,,5f2aa0c85cf0cd3026283f76,2020-08-08_10h37.08.424,lexical_decision_task_MP,2020.1.3,Linux armv7l,60,,0,-0.5100683,-0.300277371,1,0,0,0.6,button_left,0.6,1,,,,,,311,NW,"ID",50,sproly,SPROLY,z,,,,,,-0.5100683,-0.300277371,1,0,0,,0,328,328,310,1,
,,,,,,,,,,,,,,,,,,5f2aa0c85cf0cd3026283f76,2020-08-08_10h37.08.424,lexical_decision_task_MP,2020.1.3,Linux armv7l,60,,0,0.536461724,-0.296116553,1,0,0,0.5492,button_right,0.5492,1,,,,,,73,WORD,"ID",50,source,SOURCE,m,,,,,,0.536461724,-0.296116553,1,0,0,,0,329,329,72,1,
,,,,,,,,,,,,,,,,,,5f2aa0c85cf0cd3026283f76,2020-08-08_10h37.08.424,lexical_decision_task_MP,2020.1.3,Linux armv7l,60,,0,0.558669366,-0.294729529,1,0,0,0.7163,button_right,0.7163,1,,,,,,225,WORD,UN,50,kidney,VULGAR,m,,,,,,0.558669366,-0.294729529,1,0,0,,0,330,330,224,1,
,,,,,,,,,,,,,,,,,,5f2aa0c85cf0cd3026283f76,2020-08-08_10h37.08.424,lexical_decision_task_MP,2020.1.3,Linux armv7l,60,,0,0.565609063,-0.285020786,1,0,0,0.6816,button_right,0.6816,1,,,,,,181,WORD,UN,50,winter,GLANCE,m,,,,,,0.565609063,-0.285020786,1,0,0,,0,331,331,180,1,
,,,,,,,,,,,,,,,,,,5f2aa0c85cf0cd3026283f76,2020-08-08_10h37.08.424,lexical_decision_task_MP,2020.1.3,Linux armv7l,60,,0,-0.518396123,-0.309986115,1,0,0,0.5694,button_left,0.5694,1,,,,,,258,NW,"ID",33,poluth,POLUTH,z,,,,,,-0.518396123,-0.309986115,1,0,0,,0,332,332,257,1,
,,,,,,,,,,,,,,,,,,5f2aa0c85cf0cd3026283f76,2020-08-08_10h37.08.424,lexical_decision_task_MP,2020.1.3,Linux armv7l,60,,0,0.575325012,-0.300277371,1,0,0,0.4828,button_right,0.4828,1,,,,,,76,WORD,"ID",50,exotic,EXOTIC,m,,,,,,0.575325012,-0.300277371,1,0,0,,0,333,333,75,1,
,,,,,,,,,,,,,,,,,,5f2aa0c85cf0cd3026283f76,2020-08-08_10h37.08.424,lexical_decision_task_MP,2020.1.3,Linux armv7l,60,,0,-0.514232212,-0.308599175,1,0,0,0.4982,button_left,0.4982,1,,,,,,241,NW,"ID",33,smenco,SMENCO,z,,,,,,-0.514232212,-0.308599175,1,0,0,,0,334,334,240,1,
,,,,,,,,,,,,,,,,,,5f2aa0c85cf0cd3026283f76,2020-08-08_10h37.08.424,lexical_decision_task_MP,2020.1.3,Linux armv7l,60,,0,0.578100925,-0.29334259,1,0,0,0.4823,button_right,0.4823,1,,,,,,137,WORD,UN,33,melody,FINGER,m,,,,,,0.578100925,-0.29334259,1,0,0,,0,335,335,136,1,
,,,,,,,,,,,,,,,,,,5f2aa0c85cf0cd3026283f76,2020-08-08_10h37.08.424,lexical_decision_task_MP,2020.1.3,Linux armv7l,60,,0,0.591980659,-0.28640781,1,0,0,1.036,button_right,1.036,0,,,,,,348,NW,"ID",50,dumple,DUMPLE,z,,,,,,0.591980659,-0.28640781,1,0,0,,0,336,336,347,1,
,,,,,,,,,,,,,,,,,,5f2aa0c85cf0cd3026283f76,2020-08-08_10h37.08.424,lexical_decision_task_MP,2020.1.3,Linux armv7l,60,,0,-0.50035252,-0.318307919,1,0,0,0.6104,button_left,0.6104,1,,,,,,278,NW,"ID",33,unighs,UNIGHS,z,,,,,,-0.50035252,-0.318307919,1,0,0,,0,337,337,277,1,
,,,,,,,,,,,,,,,,,,5f2aa0c85cf0cd3026283f76,2020-08-08_10h37.08.424,lexical_decision_task_MP,2020.1.3,Linux armv7l,60,,0,-0.498964522,-0.318307919,1,0,0,0.6803,button_left,0.6803,1,,,,,,399,NW,UN,33,wearox,FOURET,z,,,,,,-0.498964522,-0.318307919,1,0,0,,0,338,338,398,1,
,,,,,,,,,,,,,,,,,,5f2aa0c85cf0cd3026283f76,2020-08-08_10h37.08.424,lexical_decision_task_MP,2020.1.3,Linux armv7l,60,,0,0.590592617,-0.296116553,1,0,0,0.4676,button_right,0.4676,1,,,,,,57,WORD,"ID",33,change,CHANGE,m,,,,,,0.590592617,-0.296116553,1,0,0,,0,339,339,56,1,
,,,,,,,,,,,,,,,,,,5f2aa0c85cf0cd3026283f76,2020-08-08_10h37.08.424,lexical_decision_task_MP,2020.1.3,Linux armv7l,60,,0,0.590592617,-0.296116553,1,0,0,0.4662,button_right,0.4662,1,,,,,,80,WORD,"ID",50,family,FAMILY,m,,,,,,0.590592617,-0.296116553,1,0,0,,0,340,340,79,1,
,,,,,,,,,,,,,,,,,,5f2aa0c85cf0cd3026283f76,2020-08-08_10h37.08.424,lexical_decision_task_MP,2020.1.3,Linux armv7l,60,,0,-0.496188609,-0.318307919,1,0,0,0.5811,button_left,0.5811,1,,,,,,381,NW,UN,33,sarley,HUNIEK,z,,,,,,-0.496188609,-0.318307919,1,0,0,,0,341,341,380,1,
