counterbalancing_condition,instr_done_keyboard.keys,instr_done_keyboard.rt,instr_done_touch.x,instr_done_touch.y,instr_done_touch.leftButton,instr_done_touch.midButton,instr_done_touch.rightButton,instruction_pages.thisRepN,instruction_pages.thisTrialN,instruction_pages.thisN,instruction_pages.thisIndex,instruction_pages.ran,pageN,phase,instruct_text,has_image,instruct_image,participant,date,expName,psychopyVersion,OS,frameRate,response.keys,response.corr,response.rt,touch_resp.x,touch_resp.y,touch_resp.leftButton,touch_resp.midButton,touch_resp.rightButton,touch_resp.time,touch_resp.clicked_name,rt,corr,practice_trials.thisRepN,practice_trials.thisTrialN,practice_trials.thisN,practice_trials.thisIndex,practice_trials.ran,TrialID,StimulusType,Condition,PrimeDuration,Prime,Target,corrAns,end_of_practice_trials_pages.thisRepN,end_of_practice_trials_pages.thisTrialN,end_of_practice_trials_pages.thisN,end_of_practice_trials_pages.thisIndex,end_of_practice_trials_pages.ran,break_done_touch.x,break_done_touch.y,break_done_touch.leftButton,break_done_touch.midButton,break_done_touch.rightButton,break_done_keyboard.keys,trials.thisRepN,trials.thisTrialN,trials.thisN,trials.thisIndex,trials.ran,break_done_keyboard.rt
3,space,19.12135,-0.863333333,0.082222222,0,0,0,0,0,0,0,1,1,instructions,"INSTRUCTIONS
At the start of each trial, look at the hash marks (######) in the center of the screen. After a moment, a string of letters will appear. Your task is to indicate if the letter string forms a word or not (i.e., if it is a nonword). For example, AUTHOR is a word while AUTHON is a nonword.

Press the space bar or touch the button below to continue.",0,,5f2aeb9e0f60154413ed7f5e,2020-08-10_11h26.48.303,lexical_decision_task_MP,2020.1.3,Win32,60,,,,,,,,,,,,,,,,,,,,,,,,,,,,,,,,,,,,,,,,,
,space,10.51786,-0.863333333,0.082222222,0,0,0,0,1,1,1,1,2,instructions,"If your device has a keyboard, press the 'Z' key for nonwords and the 'M' key for words.





Press the space bar or touch the button below to continue.",1,keyboard-example.gif,5f2aeb9e0f60154413ed7f5e,2020-08-10_11h26.48.303,lexical_decision_task_MP,2020.1.3,Win32,60,,,,,,,,,,,,,,,,,,,,,,,,,,,,,,,,,,,,,,,,,
,space,6.597505,-0.863333333,0.082222222,0,0,0,0,2,2,2,1,3,instructions,"If you are using a touchscreen only device, use the buttons on the screen. Do not use the mouse.





Press the space bar or touch the button below to continue.",1,touchscreen-example.gif,5f2aeb9e0f60154413ed7f5e,2020-08-10_11h26.48.303,lexical_decision_task_MP,2020.1.3,Win32,60,,,,,,,,,,,,,,,,,,,,,,,,,,,,,,,,,,,,,,,,,
,space,3.54078,-0.863333333,0.082222222,0,0,0,0,3,3,3,1,4,instructions,"It is very important that you respond as quickly and accurately as possible, as each letter string will only be on the screen for two seconds. If you do not respond within this time, the message 'Too slow!' will be displayed and the experiment will progress to the next letter string. The first 20 trials will be practice trials and you will receive feedback on your answers. 

Press the space bar or touch the button below to start the practice trials.",0,,5f2aeb9e0f60154413ed7f5e,2020-08-10_11h26.48.303,lexical_decision_task_MP,2020.1.3,Win32,60,,,,,,,,,,,,,,,,,,,,,,,,,,,,,,,,,,,,,,,,,
,,,,,,,,,,,,,,,,,,5f2aeb9e0f60154413ed7f5e,2020-08-10_11h26.48.303,lexical_decision_task_MP,2020.1.3,Win32,60,z,1,1.844635,,,,,,,,1.844635,1,0,0,0,14,1,1015,NW,UN,50,miaber,THRALE,z,,,,,,,,,,,,,,,,,
,,,,,,,,,,,,,,,,,,5f2aeb9e0f60154413ed7f5e,2020-08-10_11h26.48.303,lexical_decision_task_MP,2020.1.3,Win32,60,m,1,0.719225,,,,,,,,0.719225,1,0,1,1,7,1,1008,WORD,UN,50,hurdle,VOLUME,m,,,,,,,,,,,,,,,,,
,,,,,,,,,,,,,,,,,,5f2aeb9e0f60154413ed7f5e,2020-08-10_11h26.48.303,lexical_decision_task_MP,2020.1.3,Win32,60,z,1,0.745175,,,,,,,,0.745175,1,0,2,2,13,1,1014,NW,UN,33,winfer,ROUPET,z,,,,,,,,,,,,,,,,,
,,,,,,,,,,,,,,,,,,5f2aeb9e0f60154413ed7f5e,2020-08-10_11h26.48.303,lexical_decision_task_MP,2020.1.3,Win32,60,m,1,0.624415,,,,,,,,0.624415,1,0,3,3,0,1,1001,WORD,"ID",33,utopia,UTOPIA,m,,,,,,,,,,,,,,,,,
,,,,,,,,,,,,,,,,,,5f2aeb9e0f60154413ed7f5e,2020-08-10_11h26.48.303,lexical_decision_task_MP,2020.1.3,Win32,60,z,1,0.7088,,,,,,,,0.7088,1,0,4,4,9,1,1010,NW,"ID",33,fariny,FARINY,z,,,,,,,,,,,,,,,,,
,,,,,,,,,,,,,,,,,,5f2aeb9e0f60154413ed7f5e,2020-08-10_11h26.48.303,lexical_decision_task_MP,2020.1.3,Win32,60,m,1,0.570065,,,,,,,,0.570065,1,0,5,5,2,1,1003,WORD,"ID",50,almond,ALMOND,m,,,,,,,,,,,,,,,,,
,,,,,,,,,,,,,,,,,,5f2aeb9e0f60154413ed7f5e,2020-08-10_11h26.48.303,lexical_decision_task_MP,2020.1.3,Win32,60,m,1,0.64295,,,,,,,,0.64295,1,0,6,6,6,1,1007,WORD,UN,50,tropic,ZOMBIE,m,,,,,,,,,,,,,,,,,
,,,,,,,,,,,,,,,,,,5f2aeb9e0f60154413ed7f5e,2020-08-10_11h26.48.303,lexical_decision_task_MP,2020.1.3,Win32,60,m,1,0.617705,,,,,,,,0.617705,1,0,7,7,1,1,1002,WORD,"ID",33,adjust,ADJUST,m,,,,,,,,,,,,,,,,,
,,,,,,,,,,,,,,,,,,5f2aeb9e0f60154413ed7f5e,2020-08-10_11h26.48.303,lexical_decision_task_MP,2020.1.3,Win32,60,z,1,0.72834,,,,,,,,0.72834,1,0,8,8,11,1,1012,NW,"ID",50,rashet,RASHET,z,,,,,,,,,,,,,,,,,
,,,,,,,,,,,,,,,,,,5f2aeb9e0f60154413ed7f5e,2020-08-10_11h26.48.303,lexical_decision_task_MP,2020.1.3,Win32,60,m,1,0.605505,,,,,,,,0.605505,1,0,9,9,5,1,1006,WORD,UN,33,frenzy,OBTAIN,m,,,,,,,,,,,,,,,,,
,,,,,,,,,,,,,,,,,,5f2aeb9e0f60154413ed7f5e,2020-08-10_11h26.48.303,lexical_decision_task_MP,2020.1.3,Win32,60,z,1,0.763525,,,,,,,,0.763525,1,0,10,10,12,1,1013,NW,UN,33,adveil,SPRINY,z,,,,,,,,,,,,,,,,,
,,,,,,,,,,,,,,,,,,5f2aeb9e0f60154413ed7f5e,2020-08-10_11h26.48.303,lexical_decision_task_MP,2020.1.3,Win32,60,z,1,0.662645,,,,,,,,0.662645,1,0,11,11,8,1,1009,NW,"ID",33,aslert,ASLERT,z,,,,,,,,,,,,,,,,,
,,,,,,,,,,,,,,,,,,5f2aeb9e0f60154413ed7f5e,2020-08-10_11h26.48.303,lexical_decision_task_MP,2020.1.3,Win32,60,z,1,1.102445,,,,,,,,1.102445,1,0,12,12,10,1,1011,NW,"ID",50,inlade,INLADE,z,,,,,,,,,,,,,,,,,
,,,,,,,,,,,,,,,,,,5f2aeb9e0f60154413ed7f5e,2020-08-10_11h26.48.303,lexical_decision_task_MP,2020.1.3,Win32,60,m,1,0.559395,,,,,,,,0.559395,1,0,13,13,4,1,1005,WORD,UN,33,abound,SQUEAK,m,,,,,,,,,,,,,,,,,
,,,,,,,,,,,,,,,,,,5f2aeb9e0f60154413ed7f5e,2020-08-10_11h26.48.303,lexical_decision_task_MP,2020.1.3,Win32,60,z,1,0.924975,,,,,,,,0.924975,1,0,14,14,15,1,1016,NW,UN,50,mushed,WHAISE,z,,,,,,,,,,,,,,,,,
,,,,,,,,,,,,,,,,,,5f2aeb9e0f60154413ed7f5e,2020-08-10_11h26.48.303,lexical_decision_task_MP,2020.1.3,Win32,60,m,1,0.62847,,,,,,,,0.62847,1,0,15,15,3,1,1004,WORD,"ID",50,matrix,MATRIX,m,,,,,,,,,,,,,,,,,
,space,9.99415,-0.863333333,0.082222222,0,0,0,,,,,,1,end_of_practice,"You have completed the practice trials. During the experimental trials, you will not receive feedback, but it is very important that you respond as quickly and accurately as possible. 
Before you begin, please ensure that you are in a comfortable and quiet location and will not be disturbed for about 15 minutes, as we cannot use your data if you do not complete all the trials. 
There will be opportunities to take breaks at regular intervals during the experiment. When you are ready to start the experimental trials, please press space or touch the button below.",,,5f2aeb9e0f60154413ed7f5e,2020-08-10_11h26.48.303,lexical_decision_task_MP,2020.1.3,Win32,60,,,,,,,,,,,,,,,,,,,,,,,,,0,0,0,0,1,,,,,,,,,,,,
,,,,,,,,,,,,,,,,,,5f2aeb9e0f60154413ed7f5e,2020-08-10_11h26.48.303,lexical_decision_task_MP,2020.1.3,Win32,60,z,1,0.65156,,,,,,,,0.65156,1,,,,,,398,NW,"ID",50,blunde,BLUNDE,z,,,,,,-0.863333333,0.082222222,0,0,0,,0,0,0,337,1,
,,,,,,,,,,,,,,,,,,5f2aeb9e0f60154413ed7f5e,2020-08-10_11h26.48.303,lexical_decision_task_MP,2020.1.3,Win32,60,z,1,1.278845,,,,,,,,1.278845,1,,,,,,424,NW,UN,33,frudge,PRAILE,z,,,,,,-0.863333333,0.082222222,0,0,0,,0,1,1,363,1,
,,,,,,,,,,,,,,,,,,5f2aeb9e0f60154413ed7f5e,2020-08-10_11h26.48.303,lexical_decision_task_MP,2020.1.3,Win32,60,m,1,0.661935,,,,,,,,0.661935,1,,,,,,41,WORD,UN,50,chapel,SPRING,m,,,,,,-0.863333333,0.082222222,0,0,0,,0,2,2,220,1,
,,,,,,,,,,,,,,,,,,5f2aeb9e0f60154413ed7f5e,2020-08-10_11h26.48.303,lexical_decision_task_MP,2020.1.3,Win32,60,m,1,0.765315,,,,,,,,0.765315,1,,,,,,20,WORD,UN,50,simple,BREAST,m,,,,,,-0.863333333,0.082222222,0,0,0,,0,3,3,199,1,
,,,,,,,,,,,,,,,,,,5f2aeb9e0f60154413ed7f5e,2020-08-10_11h26.48.303,lexical_decision_task_MP,2020.1.3,Win32,60,m,1,0.723465,,,,,,,,0.723465,1,,,,,,175,WORD,"ID",50,fabric,FABRIC,m,,,,,,-0.863333333,0.082222222,0,0,0,,0,4,4,114,1,
,,,,,,,,,,,,,,,,,,5f2aeb9e0f60154413ed7f5e,2020-08-10_11h26.48.303,lexical_decision_task_MP,2020.1.3,Win32,60,z,1,0.751265,,,,,,,,0.751265,1,,,,,,275,NW,UN,50,yarmon,SLEIRT,z,,,,,,-0.863333333,0.082222222,0,0,0,,0,5,5,454,1,
,,,,,,,,,,,,,,,,,,5f2aeb9e0f60154413ed7f5e,2020-08-10_11h26.48.303,lexical_decision_task_MP,2020.1.3,Win32,60,m,1,0.721885,,,,,,,,0.721885,1,,,,,,15,WORD,UN,50,faucet,AMOUNT,m,,,,,,-0.863333333,0.082222222,0,0,0,,0,6,6,194,1,
,,,,,,,,,,,,,,,,,,5f2aeb9e0f60154413ed7f5e,2020-08-10_11h26.48.303,lexical_decision_task_MP,2020.1.3,Win32,60,m,1,0.717715,,,,,,,,0.717715,1,,,,,,179,WORD,"ID",50,basket,BASKET,m,,,,,,-0.863333333,0.082222222,0,0,0,,0,7,7,118,1,
,,,,,,,,,,,,,,,,,,5f2aeb9e0f60154413ed7f5e,2020-08-10_11h26.48.303,lexical_decision_task_MP,2020.1.3,Win32,60,m,1,0.760925,,,,,,,,0.760925,1,,,,,,13,WORD,UN,50,almost,STRIVE,m,,,,,,-0.863333333,0.082222222,0,0,0,,0,8,8,192,1,
,,,,,,,,,,,,,,,,,,5f2aeb9e0f60154413ed7f5e,2020-08-10_11h26.48.303,lexical_decision_task_MP,2020.1.3,Win32,60,m,1,0.635735,,,,,,,,0.635735,1,,,,,,220,WORD,UN,33,mascot,VOYAGE,m,,,,,,-0.863333333,0.082222222,0,0,0,,0,9,9,159,1,
,,,,,,,,,,,,,,,,,,5f2aeb9e0f60154413ed7f5e,2020-08-10_11h26.48.303,lexical_decision_task_MP,2020.1.3,Win32,60,z,1,0.754495,,,,,,,,0.754495,1,,,,,,271,NW,UN,50,damilt,AUBRID,z,,,,,,-0.863333333,0.082222222,0,0,0,,0,10,10,450,1,
,,,,,,,,,,,,,,,,,,5f2aeb9e0f60154413ed7f5e,2020-08-10_11h26.48.303,lexical_decision_task_MP,2020.1.3,Win32,60,z,1,0.63045,,,,,,,,0.63045,1,,,,,,381,NW,"ID",50,huniek,HUNIEK,z,,,,,,-0.863333333,0.082222222,0,0,0,,0,11,11,320,1,
,,,,,,,,,,,,,,,,,,5f2aeb9e0f60154413ed7f5e,2020-08-10_11h26.48.303,lexical_decision_task_MP,2020.1.3,Win32,60,m,1,0.72831,,,,,,,,0.72831,1,,,,,,167,WORD,"ID",50,design,DESIGN,m,,,,,,-0.863333333,0.082222222,0,0,0,,0,12,12,106,1,
,,,,,,,,,,,,,,,,,,5f2aeb9e0f60154413ed7f5e,2020-08-10_11h26.48.303,lexical_decision_task_MP,2020.1.3,Win32,60,z,1,0.80077,,,,,,,,0.80077,1,,,,,,319,NW,"ID",33,zomber,ZOMBER,z,,,,,,-0.863333333,0.082222222,0,0,0,,0,13,13,258,1,
,,,,,,,,,,,,,,,,,,5f2aeb9e0f60154413ed7f5e,2020-08-10_11h26.48.303,lexical_decision_task_MP,2020.1.3,Win32,60,m,1,0.75649,,,,,,,,0.75649,1,,,,,,219,WORD,UN,33,voyage,BUCKET,m,,,,,,-0.863333333,0.082222222,0,0,0,,0,14,14,158,1,
,,,,,,,,,,,,,,,,,,5f2aeb9e0f60154413ed7f5e,2020-08-10_11h26.48.303,lexical_decision_task_MP,2020.1.3,Win32,60,z,1,0.772335,,,,,,,,0.772335,1,,,,,,430,NW,UN,33,chrums,CAROEY,z,,,,,,-0.863333333,0.082222222,0,0,0,,0,15,15,369,1,
,,,,,,,,,,,,,,,,,,5f2aeb9e0f60154413ed7f5e,2020-08-10_11h26.48.303,lexical_decision_task_MP,2020.1.3,Win32,60,m,1,0.738385,,,,,,,,0.738385,1,,,,,,29,WORD,UN,50,orient,SKETCH,m,,,,,,-0.863333333,0.082222222,0,0,0,,0,16,16,208,1,
,,,,,,,,,,,,,,,,,,5f2aeb9e0f60154413ed7f5e,2020-08-10_11h26.48.303,lexical_decision_task_MP,2020.1.3,Win32,60,z,1,0.86773,,,,,,,,0.86773,1,,,,,,294,NW,UN,50,gleath,INHORT,z,,,,,,-0.863333333,0.082222222,0,0,0,,0,17,17,473,1,
,,,,,,,,,,,,,,,,,,5f2aeb9e0f60154413ed7f5e,2020-08-10_11h26.48.303,lexical_decision_task_MP,2020.1.3,Win32,60,m,1,0.67356,,,,,,,,0.67356,1,,,,,,209,WORD,UN,33,monkey,SEARCH,m,,,,,,-0.863333333,0.082222222,0,0,0,,0,18,18,148,1,
,,,,,,,,,,,,,,,,,,5f2aeb9e0f60154413ed7f5e,2020-08-10_11h26.48.303,lexical_decision_task_MP,2020.1.3,Win32,60,z,1,0.90536,,,,,,,,0.90536,1,,,,,,395,NW,"ID",50,colury,COLURY,z,,,,,,-0.863333333,0.082222222,0,0,0,,0,19,19,334,1,
,,,,,,,,,,,,,,,,,,5f2aeb9e0f60154413ed7f5e,2020-08-10_11h26.48.303,lexical_decision_task_MP,2020.1.3,Win32,60,m,1,0.715585,,,,,,,,0.715585,1,,,,,,199,WORD,UN,33,plague,INVOKE,m,,,,,,-0.863333333,0.082222222,0,0,0,,0,20,20,138,1,
,,,,,,,,,,,,,,,,,,5f2aeb9e0f60154413ed7f5e,2020-08-10_11h26.48.303,lexical_decision_task_MP,2020.1.3,Win32,60,m,1,0.782105,,,,,,,,0.782105,1,,,,,,63,WORD,"ID",33,launch,LAUNCH,m,,,,,,-0.863333333,0.082222222,0,0,0,,0,21,21,2,1,
,,,,,,,,,,,,,,,,,,5f2aeb9e0f60154413ed7f5e,2020-08-10_11h26.48.303,lexical_decision_task_MP,2020.1.3,Win32,60,z,1,0.685835,,,,,,,,0.685835,1,,,,,,262,NW,UN,50,dolica,QUILEW,z,,,,,,-0.863333333,0.082222222,0,0,0,,0,22,22,441,1,
,,,,,,,,,,,,,,,,,,5f2aeb9e0f60154413ed7f5e,2020-08-10_11h26.48.303,lexical_decision_task_MP,2020.1.3,Win32,60,m,1,0.683975,,,,,,,,0.683975,1,,,,,,236,WORD,UN,33,grumpy,PIRATE,m,,,,,,-0.863333333,0.082222222,0,0,0,,0,23,23,175,1,
,,,,,,,,,,,,,,,,,,5f2aeb9e0f60154413ed7f5e,2020-08-10_11h26.48.303,lexical_decision_task_MP,2020.1.3,Win32,60,z,1,0.80027,,,,,,,,0.80027,1,,,,,,415,NW,"ID",50,higsta,HIGSTA,z,,,,,,-0.863333333,0.082222222,0,0,0,,0,24,24,354,1,
,,,,,,,,,,,,,,,,,,5f2aeb9e0f60154413ed7f5e,2020-08-10_11h26.48.303,lexical_decision_task_MP,2020.1.3,Win32,60,z,1,0.712355,,,,,,,,0.712355,1,,,,,,370,NW,"ID",50,sleact,SLEACT,z,,,,,,-0.863333333,0.082222222,0,0,0,,0,25,25,309,1,
,,,,,,,,,,,,,,,,,,5f2aeb9e0f60154413ed7f5e,2020-08-10_11h26.48.303,lexical_decision_task_MP,2020.1.3,Win32,60,z,1,0.830045,,,,,,,,0.830045,1,,,,,,428,NW,UN,33,funtle,TANDLY,z,,,,,,-0.863333333,0.082222222,0,0,0,,0,26,26,367,1,
,,,,,,,,,,,,,,,,,,5f2aeb9e0f60154413ed7f5e,2020-08-10_11h26.48.303,lexical_decision_task_MP,2020.1.3,Win32,60,z,1,0.949945,,,,,,,,0.949945,1,,,,,,458,NW,UN,33,hocite,BARCET,z,,,,,,-0.863333333,0.082222222,0,0,0,,0,27,27,397,1,
,,,,,,,,,,,,,,,,,,5f2aeb9e0f60154413ed7f5e,2020-08-10_11h26.48.303,lexical_decision_task_MP,2020.1.3,Win32,60,m,1,0.632545,,,,,,,,0.632545,1,,,,,,145,WORD,"ID",50,parish,PARISH,m,,,,,,-0.863333333,0.082222222,0,0,0,,0,28,28,84,1,
,,,,,,,,,,,,,,,,,,5f2aeb9e0f60154413ed7f5e,2020-08-10_11h26.48.303,lexical_decision_task_MP,2020.1.3,Win32,60,z,1,1.035365,,,,,,,,1.035365,1,,,,,,453,NW,UN,33,scouge,BOLVIS,z,,,,,,-0.863333333,0.082222222,0,0,0,,0,29,29,392,1,
,,,,,,,,,,,,,,,,,,5f2aeb9e0f60154413ed7f5e,2020-08-10_11h26.48.303,lexical_decision_task_MP,2020.1.3,Win32,60,m,1,0.623055,,,,,,,,0.623055,1,,,,,,224,WORD,UN,33,vulgar,PERIOD,m,,,,,,-0.863333333,0.082222222,0,0,0,,0,30,30,163,1,
,,,,,,,,,,,,,,,,,,5f2aeb9e0f60154413ed7f5e,2020-08-10_11h26.48.303,lexical_decision_task_MP,2020.1.3,Win32,60,m,1,0.662665,,,,,,,,0.662665,1,,,,,,171,WORD,"ID",50,depart,DEPART,m,,,,,,-0.863333333,0.082222222,0,0,0,,0,31,31,110,1,
,,,,,,,,,,,,,,,,,,5f2aeb9e0f60154413ed7f5e,2020-08-10_11h26.48.303,lexical_decision_task_MP,2020.1.3,Win32,60,m,1,0.92456,,,,,,,,0.92456,1,,,,,,4,WORD,UN,50,plunge,TRENCH,m,,,,,,-0.863333333,0.082222222,0,0,0,,0,32,32,183,1,
,,,,,,,,,,,,,,,,,,5f2aeb9e0f60154413ed7f5e,2020-08-10_11h26.48.303,lexical_decision_task_MP,2020.1.3,Win32,60,z,1,1.173805,,,,,,,,1.173805,1,,,,,,287,NW,UN,50,yaceup,NYMBEL,z,,,,,,-0.863333333,0.082222222,0,0,0,,0,33,33,466,1,
,,,,,,,,,,,,,,,,,,5f2aeb9e0f60154413ed7f5e,2020-08-10_11h26.48.303,lexical_decision_task_MP,2020.1.3,Win32,60,m,1,1.098855,,,,,,,,1.098855,1,,,,,,98,WORD,"ID",33,belong,BELONG,m,,,,,,-0.863333333,0.082222222,0,0,0,,0,34,34,37,1,
,,,,,,,,,,,,,,,,,,5f2aeb9e0f60154413ed7f5e,2020-08-10_11h26.48.303,lexical_decision_task_MP,2020.1.3,Win32,60,m,1,0.736055,,,,,,,,0.736055,1,,,,,,158,WORD,"ID",50,island,ISLAND,m,,,,,,-0.863333333,0.082222222,0,0,0,,0,35,35,97,1,
,,,,,,,,,,,,,,,,,,5f2aeb9e0f60154413ed7f5e,2020-08-10_11h26.48.303,lexical_decision_task_MP,2020.1.3,Win32,60,m,1,0.78096,,,,,,,,0.78096,1,,,,,,229,WORD,UN,33,fringe,MOTHER,m,,,,,,-0.863333333,0.082222222,0,0,0,,0,36,36,168,1,
,,,,,,,,,,,,,,,,,,5f2aeb9e0f60154413ed7f5e,2020-08-10_11h26.48.303,lexical_decision_task_MP,2020.1.3,Win32,60,m,1,0.667645,,,,,,,,0.667645,1,,,,,,130,WORD,"ID",50,stupid,STUPID,m,,,,,,-0.863333333,0.082222222,0,0,0,,0,37,37,69,1,
,,,,,,,,,,,,,,,,,,5f2aeb9e0f60154413ed7f5e,2020-08-10_11h26.48.303,lexical_decision_task_MP,2020.1.3,Win32,60,m,1,0.770705,,,,,,,,0.770705,1,,,,,,185,WORD,UN,33,portal,BOTHER,m,,,,,,-0.863333333,0.082222222,0,0,0,,0,38,38,124,1,
,,,,,,,,,,,,,,,,,,5f2aeb9e0f60154413ed7f5e,2020-08-10_11h26.48.303,lexical_decision_task_MP,2020.1.3,Win32,60,m,1,0.899045,,,,,,,,0.899045,1,,,,,,10,WORD,UN,50,cruise,ETHNIC,m,,,,,,-0.863333333,0.082222222,0,0,0,,0,39,39,189,1,
,,,,,,,,,,,,,,,,,,5f2aeb9e0f60154413ed7f5e,2020-08-10_11h26.48.303,lexical_decision_task_MP,2020.1.3,Win32,60,m,1,0.912435,,,,,,,,0.912435,1,,,,,,213,WORD,UN,33,intake,SQUEAL,m,,,,,,-0.863333333,0.082222222,0,0,0,,0,40,40,152,1,
,,,,,,,,,,,,,,,,,,5f2aeb9e0f60154413ed7f5e,2020-08-10_11h26.48.303,lexical_decision_task_MP,2020.1.3,Win32,60,z,1,0.860775,,,,,,,,0.860775,1,,,,,,464,NW,UN,33,whivex,CHAITE,z,,,,,,-0.863333333,0.082222222,0,0,0,,0,41,41,403,1,
,,,,,,,,,,,,,,,,,,5f2aeb9e0f60154413ed7f5e,2020-08-10_11h26.48.303,lexical_decision_task_MP,2020.1.3,Win32,60,m,1,0.69089,,,,,,,,0.69089,1,,,,,,1,WORD,UN,50,ethnic,FRIGHT,m,,,,,,-0.863333333,0.082222222,0,0,0,,0,42,42,180,1,
,,,,,,,,,,,,,,,,,,5f2aeb9e0f60154413ed7f5e,2020-08-10_11h26.48.303,lexical_decision_task_MP,2020.1.3,Win32,60,m,1,0.823885,,,,,,,,0.823885,1,,,,,,191,WORD,UN,33,beacon,STABLE,m,,,,,,-0.863333333,0.082222222,0,0,0,,0,43,43,130,1,
,,,,,,,,,,,,,,,,,,5f2aeb9e0f60154413ed7f5e,2020-08-10_11h26.48.303,lexical_decision_task_MP,2020.1.3,Win32,60,m,1,0.75081,,,,,,,,0.75081,1,,,,,,23,WORD,UN,50,praise,WEALTH,m,,,,,,-0.863333333,0.082222222,0,0,0,,0,44,44,202,1,
,,,,,,,,,,,,,,,,,,5f2aeb9e0f60154413ed7f5e,2020-08-10_11h26.48.303,lexical_decision_task_MP,2020.1.3,Win32,60,m,1,0.676365,,,,,,,,0.676365,1,,,,,,122,WORD,"ID",50,linger,LINGER,m,,,,,,-0.863333333,0.082222222,0,0,0,,0,45,45,61,1,
,,,,,,,,,,,,,,,,,,5f2aeb9e0f60154413ed7f5e,2020-08-10_11h26.48.303,lexical_decision_task_MP,2020.1.3,Win32,60,z,1,0.69464,,,,,,,,0.69464,1,,,,,,327,NW,"ID",33,plenac,PLENAC,z,,,,,,-0.863333333,0.082222222,0,0,0,,0,46,46,266,1,
,,,,,,,,,,,,,,,,,,5f2aeb9e0f60154413ed7f5e,2020-08-10_11h26.48.303,lexical_decision_task_MP,2020.1.3,Win32,60,m,1,0.781905,,,,,,,,0.781905,1,,,,,,22,WORD,UN,50,wealth,JOCKEY,m,,,,,,-0.863333333,0.082222222,0,0,0,,0,47,47,201,1,
,,,,,,,,,,,,,,,,,,5f2aeb9e0f60154413ed7f5e,2020-08-10_11h26.48.303,lexical_decision_task_MP,2020.1.3,Win32,60,m,1,0.79795,,,,,,,,0.79795,1,,,,,,120,WORD,"ID",33,strain,STRAIN,m,,,,,,-0.863333333,0.082222222,0,0,0,,0,48,48,59,1,
,,,,,,,,,,,,,,,,,,5f2aeb9e0f60154413ed7f5e,2020-08-10_11h26.48.303,lexical_decision_task_MP,2020.1.3,Win32,60,m,1,0.67365,,,,,,,,0.67365,1,,,,,,174,WORD,"ID",50,turkey,TURKEY,m,,,,,,-0.863333333,0.082222222,0,0,0,,0,49,49,113,1,
,,,,,,,,,,,,,,,,,,5f2aeb9e0f60154413ed7f5e,2020-08-10_11h26.48.303,lexical_decision_task_MP,2020.1.3,Win32,60,z,1,0.753775,,,,,,,,0.753775,1,,,,,,433,NW,UN,33,pitrom,DRANCE,z,,,,,,-0.863333333,0.082222222,0,0,0,,0,50,50,372,1,
,,,,,,,,,,,,,,,,,,5f2aeb9e0f60154413ed7f5e,2020-08-10_11h26.48.303,lexical_decision_task_MP,2020.1.3,Win32,60,z,1,0.79502,,,,,,,,0.79502,1,,,,,,241,NW,UN,50,unwert,SMENCO,z,,,,,,-0.863333333,0.082222222,0,0,0,,0,51,51,420,1,
,,,,,,,,,,,,,,,,,,5f2aeb9e0f60154413ed7f5e,2020-08-10_11h26.48.303,lexical_decision_task_MP,2020.1.3,Win32,60,m,1,0.718405,,,,,,,,0.718405,1,,,,,,105,WORD,"ID",33,number,NUMBER,m,,,,,,-0.863333333,0.082222222,0,0,0,,0,52,52,44,1,
,,,,,,,,,,,,,,,,,,5f2aeb9e0f60154413ed7f5e,2020-08-10_11h26.48.303,lexical_decision_task_MP,2020.1.3,Win32,60,z,1,0.958225,,,,,,,,0.958225,1,,,,,,325,NW,"ID",33,thruse,THRUSE,z,,,,,,-0.863333333,0.082222222,0,0,0,,0,53,53,264,1,
,,,,,,,,,,,,,,,,,,5f2aeb9e0f60154413ed7f5e,2020-08-10_11h26.48.303,lexical_decision_task_MP,2020.1.3,Win32,60,m,1,0.68383,,,,,,,,0.68383,1,,,,,,205,WORD,UN,33,tailor,LOUNGE,m,,,,,,-0.863333333,0.082222222,0,0,0,,0,54,54,144,1,
,,,,,,,,,,,,,,,,,,5f2aeb9e0f60154413ed7f5e,2020-08-10_11h26.48.303,lexical_decision_task_MP,2020.1.3,Win32,60,z,1,0.82874,,,,,,,,0.82874,1,,,,,,410,NW,"ID",50,tunory,TUNORY,z,,,,,,-0.863333333,0.082222222,0,0,0,,0,55,55,349,1,
,,,,,,,,,,,,,,,,,,5f2aeb9e0f60154413ed7f5e,2020-08-10_11h26.48.303,lexical_decision_task_MP,2020.1.3,Win32,60,m,1,0.74949,,,,,,,,0.74949,1,,,,,,221,WORD,UN,33,hinder,MASCOT,m,,,,,,-0.863333333,0.082222222,0,0,0,,0,56,56,160,1,
,,,,,,,,,,,,,,,,,,5f2aeb9e0f60154413ed7f5e,2020-08-10_11h26.48.303,lexical_decision_task_MP,2020.1.3,Win32,60,m,1,0.783195,,,,,,,,0.783195,1,,,,,,103,WORD,"ID",33,bounce,BOUNCE,m,,,,,,-0.863333333,0.082222222,0,0,0,,0,57,57,42,1,
,,,,,,,,,,,,,,,,,,5f2aeb9e0f60154413ed7f5e,2020-08-10_11h26.48.303,lexical_decision_task_MP,2020.1.3,Win32,60,m,1,0.768025,,,,,,,,0.768025,1,,,,,,131,WORD,"ID",50,quench,QUENCH,m,,,,,,-0.863333333,0.082222222,0,0,0,,0,58,58,70,1,
,,,,,,,,,,,,,,,,,,5f2aeb9e0f60154413ed7f5e,2020-08-10_11h26.48.303,lexical_decision_task_MP,2020.1.3,Win32,60,m,1,0.68929,,,,,,,,0.68929,1,,,,,,49,WORD,UN,50,snatch,SURVEY,m,,,,,,-0.863333333,0.082222222,0,0,0,,0,59,59,228,1,
,,,,,,,,,,,,,,,,,,5f2aeb9e0f60154413ed7f5e,2020-08-10_11h26.48.303,lexical_decision_task_MP,2020.1.3,Win32,60,z,1,0.686165,,,,,,,,0.686165,1,,,,,,269,NW,UN,50,wrimsy,ORCHET,z,,,,,,-0.863333333,0.082222222,0,0,0,,0,60,60,448,1,
,,,,,,,,,,,,,,,,,,5f2aeb9e0f60154413ed7f5e,2020-08-10_11h26.48.303,lexical_decision_task_MP,2020.1.3,Win32,60,m,1,0.650625,,,,,,,,0.650625,1,,,,,,66,WORD,"ID",33,gospel,GOSPEL,m,,,,,,-0.863333333,0.082222222,0,0,0,,0,61,61,5,1,
,,,,,,,,,,,,,,,,,,5f2aeb9e0f60154413ed7f5e,2020-08-10_11h26.48.303,lexical_decision_task_MP,2020.1.3,Win32,60,m,1,0.714665,,,,,,,,0.714665,1,,,,,,168,WORD,"ID",50,answer,ANSWER,m,,,,,,-0.863333333,0.082222222,0,0,0,,0,62,62,107,1,
,,,,,,,,,,,,,,,,,,5f2aeb9e0f60154413ed7f5e,2020-08-10_11h26.48.303,lexical_decision_task_MP,2020.1.3,Win32,60,m,0,0.95451,,,,,,,,0.95451,0,,,,,,266,NW,UN,50,pasink,VARMIT,z,,,,,,-0.863333333,0.082222222,0,0,0,,0,63,63,445,1,
,,,,,,,,,,,,,,,,,,5f2aeb9e0f60154413ed7f5e,2020-08-10_11h26.48.303,lexical_decision_task_MP,2020.1.3,Win32,60,z,1,1.869105,,,,,,,,1.869105,1,,,,,,270,NW,UN,50,aubrid,WRIMSY,z,,,,,,-0.863333333,0.082222222,0,0,0,,0,64,64,449,1,
,,,,,,,,,,,,,,,,,,5f2aeb9e0f60154413ed7f5e,2020-08-10_11h26.48.303,lexical_decision_task_MP,2020.1.3,Win32,60,z,1,0.96401,,,,,,,,0.96401,1,,,,,,450,NW,UN,33,cainky,PHRECT,z,,,,,,-0.863333333,0.082222222,0,0,0,,0,65,65,389,1,
,,,,,,,,,,,,,,,,,,5f2aeb9e0f60154413ed7f5e,2020-08-10_11h26.48.303,lexical_decision_task_MP,2020.1.3,Win32,60,m,1,0.79072,,,,,,,,0.79072,1,,,,,,94,WORD,"ID",33,travel,TRAVEL,m,,,,,,-0.863333333,0.082222222,0,0,0,,0,66,66,33,1,
,,,,,,,,,,,,,,,,,,5f2aeb9e0f60154413ed7f5e,2020-08-10_11h26.48.303,lexical_decision_task_MP,2020.1.3,Win32,60,m,1,0.68534,,,,,,,,0.68534,1,,,,,,233,WORD,UN,33,clumsy,NATURE,m,,,,,,-0.863333333,0.082222222,0,0,0,,0,67,67,172,1,
,,,,,,,,,,,,,,,,,,5f2aeb9e0f60154413ed7f5e,2020-08-10_11h26.48.303,lexical_decision_task_MP,2020.1.3,Win32,60,z,1,0.74857,,,,,,,,0.74857,1,,,,,,251,NW,UN,50,stapod,LUPICT,z,,,,,,-0.863333333,0.082222222,0,0,0,,0,68,68,430,1,
,,,,,,,,,,,,,,,,,,5f2aeb9e0f60154413ed7f5e,2020-08-10_11h26.48.303,lexical_decision_task_MP,2020.1.3,Win32,60,m,1,0.797635,,,,,,,,0.797635,1,,,,,,87,WORD,"ID",33,filter,FILTER,m,,,,,,-0.863333333,0.082222222,0,0,0,,0,69,69,26,1,
,,,,,,,,,,,,,,,,,,5f2aeb9e0f60154413ed7f5e,2020-08-10_11h26.48.303,lexical_decision_task_MP,2020.1.3,Win32,60,m,0,1.12952,,,,,,,,1.12952,0,,,,,,303,NW,"ID",33,fiream,FIREAM,z,,,,,,-0.863333333,0.082222222,0,0,0,,0,70,70,242,1,
,,,,,,,,,,,,,,,,,,5f2aeb9e0f60154413ed7f5e,2020-08-10_11h26.48.303,lexical_decision_task_MP,2020.1.3,Win32,60,m,1,1.837845,,,,,,,,1.837845,1,,,,,,117,WORD,"ID",33,branch,BRANCH,m,,,,,,-0.863333333,0.082222222,0,0,0,,0,71,71,56,1,
,,,,,,,,,,,,,,,,,,5f2aeb9e0f60154413ed7f5e,2020-08-10_11h26.48.303,lexical_decision_task_MP,2020.1.3,Win32,60,m,1,1.156935,,,,,,,,1.156935,1,,,,,,82,WORD,"ID",33,stigma,STIGMA,m,,,,,,-0.863333333,0.082222222,0,0,0,,0,72,72,21,1,
,,,,,,,,,,,,,,,,,,5f2aeb9e0f60154413ed7f5e,2020-08-10_11h26.48.303,lexical_decision_task_MP,2020.1.3,Win32,60,m,1,1.198575,,,,,,,,1.198575,1,,,,,,160,WORD,"ID",50,violet,VIOLET,m,,,,,,-0.863333333,0.082222222,0,0,0,,0,73,73,99,1,
,,,,,,,,,,,,,,,,,,5f2aeb9e0f60154413ed7f5e,2020-08-10_11h26.48.303,lexical_decision_task_MP,2020.1.3,Win32,60,z,1,0.84913,,,,,,,,0.84913,1,,,,,,306,NW,"ID",33,sounge,SOUNGE,z,,,,,,-0.863333333,0.082222222,0,0,0,,0,74,74,245,1,
,,,,,,,,,,,,,,,,,,5f2aeb9e0f60154413ed7f5e,2020-08-10_11h26.48.303,lexical_decision_task_MP,2020.1.3,Win32,60,z,1,0.846995,,,,,,,,0.846995,1,,,,,,311,NW,"ID",33,sproly,SPROLY,z,,,,,,-0.863333333,0.082222222,0,0,0,,0,75,75,250,1,
,,,,,,,,,,,,,,,,,,5f2aeb9e0f60154413ed7f5e,2020-08-10_11h26.48.303,lexical_decision_task_MP,2020.1.3,Win32,60,z,1,1.14195,,,,,,,,1.14195,1,,,,,,254,NW,UN,50,apight,VAROSH,z,,,,,,-0.863333333,0.082222222,0,0,0,,0,76,76,433,1,
,,,,,,,,,,,,,,,,,,5f2aeb9e0f60154413ed7f5e,2020-08-10_11h26.48.303,lexical_decision_task_MP,2020.1.3,Win32,60,z,1,0.989875,,,,,,,,0.989875,1,,,,,,409,NW,"ID",50,elopia,ELOPIA,z,,,,,,-0.863333333,0.082222222,0,0,0,,0,77,77,348,1,
,,,,,,,,,,,,,,,,,,5f2aeb9e0f60154413ed7f5e,2020-08-10_11h26.48.303,lexical_decision_task_MP,2020.1.3,Win32,60,z,1,1.095465,,,,,,,,1.095465,1,,,,,,301,NW,"ID",33,fainch,FAINCH,z,,,,,,-0.863333333,0.082222222,0,0,0,,0,78,78,240,1,
,,,,,,,,,,,,,,,,,,5f2aeb9e0f60154413ed7f5e,2020-08-10_11h26.48.303,lexical_decision_task_MP,2020.1.3,Win32,60,m,1,0.651355,,,,,,,,0.651355,1,,,,,,239,WORD,UN,33,forest,LUMBER,m,,,,,,-0.863333333,0.082222222,0,0,0,,0,79,79,178,1,
,,,,,,,,,,,,,,,,,,5f2aeb9e0f60154413ed7f5e,2020-08-10_11h26.48.303,lexical_decision_task_MP,2020.1.3,Win32,60,z,1,0.7581,,,,,,,,0.7581,1,,,,,,258,NW,UN,50,soudal,POLUTH,z,,,,,,-0.863333333,0.082222222,0,0,0,,0,80,80,437,1,
,,,,,,,,,,,,,,,,,,5f2aeb9e0f60154413ed7f5e,2020-08-10_11h26.48.303,lexical_decision_task_MP,2020.1.3,Win32,60,m,1,0.81383,,,,,,,,0.81383,1,,,,,,106,WORD,"ID",33,ransom,RANSOM,m,,,,,,-0.863333333,0.082222222,0,0,0,,0,81,81,45,1,
,,,,,,,,,,,,,,,,,,5f2aeb9e0f60154413ed7f5e,2020-08-10_11h26.48.303,lexical_decision_task_MP,2020.1.3,Win32,60,m,1,0.9216,,,,,,,,0.9216,1,,,,,,54,WORD,UN,50,stroke,RAMBLE,m,,,,,,-0.863333333,0.082222222,0,0,0,,0,82,82,233,1,
,,,,,,,,,,,,,,,,,,5f2aeb9e0f60154413ed7f5e,2020-08-10_11h26.48.303,lexical_decision_task_MP,2020.1.3,Win32,60,z,1,0.77732,,,,,,,,0.77732,1,,,,,,291,NW,UN,50,ablint,PRETCH,z,,,,,,-0.863333333,0.082222222,0,0,0,,0,83,83,470,1,
,,,,,,,,,,,,,,,,,,5f2aeb9e0f60154413ed7f5e,2020-08-10_11h26.48.303,lexical_decision_task_MP,2020.1.3,Win32,60,m,1,0.63967,,,,,,,,0.63967,1,,,,,,140,WORD,"ID",50,prince,PRINCE,m,,,,,,-0.863333333,0.082222222,0,0,0,,0,84,84,79,1,
,,,,,,,,,,,,,,,,,,5f2aeb9e0f60154413ed7f5e,2020-08-10_11h26.48.303,lexical_decision_task_MP,2020.1.3,Win32,60,z,1,1.20315,,,,,,,,1.20315,1,,,,,,467,NW,UN,33,wictor,GORBIE,z,,,,,,-0.863333333,0.082222222,0,0,0,,0,85,85,406,1,
,,,,,,,,,,,,,,,,,,5f2aeb9e0f60154413ed7f5e,2020-08-10_11h26.48.303,lexical_decision_task_MP,2020.1.3,Win32,60,m,1,0.63572,,,,,,,,0.63572,1,,,,,,193,WORD,UN,33,mildew,OBJECT,m,,,,,,-0.863333333,0.082222222,0,0,0,,0,86,86,132,1,
,,,,,,,,,,,,,,,,,,5f2aeb9e0f60154413ed7f5e,2020-08-10_11h26.48.303,lexical_decision_task_MP,2020.1.3,Win32,60,m,1,0.8115,,,,,,,,0.8115,1,,,,,,190,WORD,UN,33,stable,BACKUP,m,,,,,,-0.863333333,0.082222222,0,0,0,,0,87,87,129,1,
,,,,,,,,,,,,,,,,,,5f2aeb9e0f60154413ed7f5e,2020-08-10_11h26.48.303,lexical_decision_task_MP,2020.1.3,Win32,60,m,1,0.77242,,,,,,,,0.77242,1,,,,,,210,WORD,UN,33,infect,MONKEY,m,,,,,,-0.863333333,0.082222222,0,0,0,,0,88,88,149,1,
,,,,,,,,,,,,,,,,,,5f2aeb9e0f60154413ed7f5e,2020-08-10_11h26.48.303,lexical_decision_task_MP,2020.1.3,Win32,60,z,1,0.742275,,,,,,,,0.742275,1,,,,,,293,NW,UN,50,inhort,SWANCE,z,,,,,,-0.863333333,0.082222222,0,0,0,,0,89,89,472,1,
,,,,,,,,,,,,,,,,,,5f2aeb9e0f60154413ed7f5e,2020-08-10_11h26.48.303,lexical_decision_task_MP,2020.1.3,Win32,60,z,1,0.70679,,,,,,,,0.70679,1,,,,,,358,NW,"ID",33,fleack,FLEACK,z,,,,,,-0.863333333,0.082222222,0,0,0,,0,90,90,297,1,
,,,,,,,,,,,,,,,,,,5f2aeb9e0f60154413ed7f5e,2020-08-10_11h26.48.303,lexical_decision_task_MP,2020.1.3,Win32,60,z,1,1.29387,,,,,,,,1.29387,1,,,,,,253,NW,UN,50,varosh,RESAIT,z,,,,,,-0.863333333,0.082222222,0,0,0,,0,91,91,432,1,
,,,,,,,,,,,,,,,,,,5f2aeb9e0f60154413ed7f5e,2020-08-10_11h26.48.303,lexical_decision_task_MP,2020.1.3,Win32,60,m,1,0.82812,,,,,,,,0.82812,1,,,,,,114,WORD,"ID",33,placid,PLACID,m,,,,,,-0.863333333,0.082222222,0,0,0,,0,92,92,53,1,
,,,,,,,,,,,,,,,,,,5f2aeb9e0f60154413ed7f5e,2020-08-10_11h26.48.303,lexical_decision_task_MP,2020.1.3,Win32,60,m,1,0.770925,,,,,,,,0.770925,1,,,,,,133,WORD,"ID",50,chrome,CHROME,m,,,,,,-0.863333333,0.082222222,0,0,0,,0,93,93,72,1,
,,,,,,,,,,,,,,,,,,5f2aeb9e0f60154413ed7f5e,2020-08-10_11h26.48.303,lexical_decision_task_MP,2020.1.3,Win32,60,m,1,0.664005,,,,,,,,0.664005,1,,,,,,231,WORD,UN,33,inject,EXPORT,m,,,,,,-0.863333333,0.082222222,0,0,0,,0,94,94,170,1,
,,,,,,,,,,,,,,,,,,5f2aeb9e0f60154413ed7f5e,2020-08-10_11h26.48.303,lexical_decision_task_MP,2020.1.3,Win32,60,z,1,0.574865,,,,,,,,0.574865,1,,,,,,321,NW,"ID",33,miator,MIATOR,z,,,,,,-0.863333333,0.082222222,0,0,0,,0,95,95,260,1,
,,,,,,,,,,,,,,,,,,5f2aeb9e0f60154413ed7f5e,2020-08-10_11h26.48.303,lexical_decision_task_MP,2020.1.3,Win32,60,m,1,0.798445,,,,,,,,0.798445,1,,,,,,123,WORD,"ID",50,strike,STRIKE,m,,,,,,-0.863333333,0.082222222,0,0,0,,0,96,96,62,1,
,,,,,,,,,,,,,,,,,,5f2aeb9e0f60154413ed7f5e,2020-08-10_11h26.48.303,lexical_decision_task_MP,2020.1.3,Win32,60,m,1,0.736395,,,,,,,,0.736395,1,,,,,,57,WORD,UN,50,danger,CHANGE,m,,,,,,-0.863333333,0.082222222,0,0,0,,0,97,97,236,1,
,,,,,,,,,,,,,,,,,,5f2aeb9e0f60154413ed7f5e,2020-08-10_11h26.48.303,lexical_decision_task_MP,2020.1.3,Win32,60,m,1,0.821805,,,,,,,,0.821805,1,,,,,,14,WORD,UN,50,orange,ALMOST,m,,,,,,-0.863333333,0.082222222,0,0,0,,0,98,98,193,1,
,,,,,,,,,,,,,,,,,,5f2aeb9e0f60154413ed7f5e,2020-08-10_11h26.48.303,lexical_decision_task_MP,2020.1.3,Win32,60,z,1,0.683255,,,,,,,,0.683255,1,,,,,,457,NW,UN,33,barcet,WANIGH,z,,,,,,-0.863333333,0.082222222,0,0,0,,0,99,99,396,1,
,,,,,,,,,,,,,,,,,,5f2aeb9e0f60154413ed7f5e,2020-08-10_11h26.48.303,lexical_decision_task_MP,2020.1.3,Win32,60,m,1,0.79491,,,,,,,,0.79491,1,,,,,,25,WORD,UN,50,sprint,DOMAIN,m,,,,,,-0.863333333,0.082222222,0,0,0,,0,100,100,204,1,
,,,,,,,,,,,,,,,,,,5f2aeb9e0f60154413ed7f5e,2020-08-10_11h26.48.303,lexical_decision_task_MP,2020.1.3,Win32,60,m,1,0.795265,,,,,,,,0.795265,1,,,,,,212,WORD,UN,33,squeal,VERIFY,m,,,,,,-0.863333333,0.082222222,0,0,0,,0,101,101,151,1,
,,,,,,,,,,,,,,,,,,5f2aeb9e0f60154413ed7f5e,2020-08-10_11h26.48.303,lexical_decision_task_MP,2020.1.3,Win32,60,m,1,0.75105,,,,,,,,0.75105,1,,,,,,67,WORD,"ID",33,policy,POLICY,m,,,,,,-0.863333333,0.082222222,0,0,0,,0,102,102,6,1,
,,,,,,,,,,,,,,,,,,5f2aeb9e0f60154413ed7f5e,2020-08-10_11h26.48.303,lexical_decision_task_MP,2020.1.3,Win32,60,z,1,0.67404,,,,,,,,0.67404,1,,,,,,400,NW,"ID",50,wearox,WEAROX,z,,,,,,-0.863333333,0.082222222,0,0,0,,0,103,103,339,1,
,,,,,,,,,,,,,,,,,,5f2aeb9e0f60154413ed7f5e,2020-08-10_11h26.48.303,lexical_decision_task_MP,2020.1.3,Win32,60,z,1,0.81667,,,,,,,,0.81667,1,,,,,,354,NW,"ID",33,virlex,VIRLEX,z,,,,,,-0.863333333,0.082222222,0,0,0,,0,104,104,293,1,
,,,,,,,,,,,,,,,,,,5f2aeb9e0f60154413ed7f5e,2020-08-10_11h26.48.303,lexical_decision_task_MP,2020.1.3,Win32,60,z,1,1.0163,,,,,,,,1.0163,1,,,,,,480,NW,UN,33,knisma,ROBULY,z,,,,,,-0.863333333,0.082222222,0,0,0,,0,105,105,419,1,
,,,,,,,,,,,,,,,,,,5f2aeb9e0f60154413ed7f5e,2020-08-10_11h26.48.303,lexical_decision_task_MP,2020.1.3,Win32,60,m,1,0.632395,,,,,,,,0.632395,1,,,,,,48,WORD,UN,50,survey,WALNUT,m,,,,,,-0.863333333,0.082222222,0,0,0,,0,106,106,227,1,
,,,,,,,,,,,,,,,,,,5f2aeb9e0f60154413ed7f5e,2020-08-10_11h26.48.303,lexical_decision_task_MP,2020.1.3,Win32,60,m,1,0.678545,,,,,,,,0.678545,1,,,,,,44,WORD,UN,50,clergy,DANGER,m,,,,,,-0.863333333,0.082222222,0,0,0,,0,107,107,223,1,
,,,,,,,,,,,,,,,,,,5f2aeb9e0f60154413ed7f5e,2020-08-10_11h26.48.303,lexical_decision_task_MP,2020.1.3,Win32,60,m,1,0.75551,,,,,,,,0.75551,1,,,,,,166,WORD,"ID",50,starch,STARCH,m,,,,,,-0.863333333,0.082222222,0,0,0,,0,108,108,105,1,
,,,,,,,,,,,,,,,,,,5f2aeb9e0f60154413ed7f5e,2020-08-10_11h26.48.303,lexical_decision_task_MP,2020.1.3,Win32,60,z,1,1.455855,,,,,,,,1.455855,1,,,,,,268,NW,UN,50,orchet,PACKES,z,,,,,,-0.863333333,0.082222222,0,0,0,,0,109,109,447,1,
,,,,,,,,,,,,,,,,,,5f2aeb9e0f60154413ed7f5e,2020-08-10_11h26.48.303,lexical_decision_task_MP,2020.1.3,Win32,60,m,1,0.82717,,,,,,,,0.82717,1,,,,,,53,WORD,UN,50,ramble,POLICE,m,,,,,,-0.863333333,0.082222222,0,0,0,,0,110,110,232,1,
,,,,,,,,,,,,,,,,,,5f2aeb9e0f60154413ed7f5e,2020-08-10_11h26.48.303,lexical_decision_task_MP,2020.1.3,Win32,60,m,1,0.677625,,,,,,,,0.677625,1,,,,,,183,WORD,UN,33,sleazy,MILDEW,m,,,,,,-0.863333333,0.082222222,0,0,0,,0,111,111,122,1,
,,,,,,,,,,,,,,,,,,5f2aeb9e0f60154413ed7f5e,2020-08-10_11h26.48.303,lexical_decision_task_MP,2020.1.3,Win32,60,m,1,0.804125,,,,,,,,0.804125,1,,,,,,19,WORD,UN,50,breast,PATRON,m,,,,,,-0.863333333,0.082222222,0,0,0,,0,112,112,198,1,
,,,,,,,,,,,,,,,,,,5f2aeb9e0f60154413ed7f5e,2020-08-10_11h26.48.303,lexical_decision_task_MP,2020.1.3,Win32,60,m,1,0.600925,,,,,,,,0.600925,1,,,,,,100,WORD,"ID",33,carbon,CARBON,m,,,,,,-0.863333333,0.082222222,0,0,0,,0,113,113,39,1,
,,,,,,,,,,,,,,,,,,5f2aeb9e0f60154413ed7f5e,2020-08-10_11h26.48.303,lexical_decision_task_MP,2020.1.3,Win32,60,m,1,0.64601,,,,,,,,0.64601,1,,,,,,43,WORD,UN,50,foster,TONGUE,m,,,,,,-0.863333333,0.082222222,0,0,0,,0,114,114,222,1,
,,,,,,,,,,,,,,,,,,5f2aeb9e0f60154413ed7f5e,2020-08-10_11h26.48.303,lexical_decision_task_MP,2020.1.3,Win32,60,m,1,0.65419,,,,,,,,0.65419,1,,,,,,60,WORD,UN,50,fright,PENCIL,m,,,,,,-0.863333333,0.082222222,0,0,0,,0,115,115,239,1,
,,,,,,,,,,,,,,,,,,5f2aeb9e0f60154413ed7f5e,2020-08-10_11h26.48.303,lexical_decision_task_MP,2020.1.3,Win32,60,z,1,0.71464,,,,,,,,0.71464,1,,,,,,401,NW,"ID",50,mustil,MUSTIL,z,,,,,,-0.863333333,0.082222222,0,0,0,,0,116,116,340,1,
,,,,,,,,,,,,,,,,,,5f2aeb9e0f60154413ed7f5e,2020-08-10_11h26.48.303,lexical_decision_task_MP,2020.1.3,Win32,60,z,1,0.80165,,,,,,,,0.80165,1,,,,,,449,NW,UN,33,phrect,BRUNGE,z,,,,,,-0.863333333,0.082222222,0,0,0,,0,117,117,388,1,
,,,,,,,,,,,,,,,,,,5f2aeb9e0f60154413ed7f5e,2020-08-10_11h26.48.303,lexical_decision_task_MP,2020.1.3,Win32,60,z,1,0.733885,,,,,,,,0.733885,1,,,,,,346,NW,"ID",33,saudic,SAUDIC,z,,,,,,-0.863333333,0.082222222,0,0,0,,0,118,118,285,1,
,,,,,,,,,,,,,,,,,,5f2aeb9e0f60154413ed7f5e,2020-08-10_11h26.48.303,lexical_decision_task_MP,2020.1.3,Win32,60,z,1,0.706875,,,,,,,,0.706875,1,,,,,,343,NW,"ID",33,aimosy,AIMOSY,z,,,,,,-0.863333333,0.082222222,0,0,0,,0,119,119,282,1,
,,,,,,,,,,,,,,,,,,5f2aeb9e0f60154413ed7f5e,2020-08-10_11h26.48.303,lexical_decision_task_MP,2020.1.3,Win32,60,m,1,0.877595,,,,,,,,0.877595,1,,,,,,102,WORD,"ID",33,direct,DIRECT,m,,,,,,-0.863333333,0.082222222,0,0,0,space,0,120,120,41,1,16.40796
,,,,,,,,,,,,,,,,,,5f2aeb9e0f60154413ed7f5e,2020-08-10_11h26.48.303,lexical_decision_task_MP,2020.1.3,Win32,60,z,1,0.95604,,,,,,,,0.95604,1,,,,,,320,NW,"ID",33,jockal,JOCKAL,z,,,,,,-0.863333333,0.082222222,0,0,0,,0,121,121,259,1,
,,,,,,,,,,,,,,,,,,5f2aeb9e0f60154413ed7f5e,2020-08-10_11h26.48.303,lexical_decision_task_MP,2020.1.3,Win32,60,m,1,0.885415,,,,,,,,0.885415,1,,,,,,86,WORD,"ID",33,rodent,RODENT,m,,,,,,-0.863333333,0.082222222,0,0,0,,0,122,122,25,1,
,,,,,,,,,,,,,,,,,,5f2aeb9e0f60154413ed7f5e,2020-08-10_11h26.48.303,lexical_decision_task_MP,2020.1.3,Win32,60,z,1,1.278255,,,,,,,,1.278255,1,,,,,,413,NW,"ID",50,equats,EQUATS,z,,,,,,-0.863333333,0.082222222,0,0,0,,0,123,123,352,1,
,,,,,,,,,,,,,,,,,,5f2aeb9e0f60154413ed7f5e,2020-08-10_11h26.48.303,lexical_decision_task_MP,2020.1.3,Win32,60,z,1,0.79474,,,,,,,,0.79474,1,,,,,,279,NW,UN,50,curbol,CELOND,z,,,,,,-0.863333333,0.082222222,0,0,0,,0,124,124,458,1,
,,,,,,,,,,,,,,,,,,5f2aeb9e0f60154413ed7f5e,2020-08-10_11h26.48.303,lexical_decision_task_MP,2020.1.3,Win32,60,m,1,0.643415,,,,,,,,0.643415,1,,,,,,42,WORD,UN,50,tongue,CHAPEL,m,,,,,,-0.863333333,0.082222222,0,0,0,,0,125,125,221,1,
,,,,,,,,,,,,,,,,,,5f2aeb9e0f60154413ed7f5e,2020-08-10_11h26.48.303,lexical_decision_task_MP,2020.1.3,Win32,60,m,1,0.70715,,,,,,,,0.70715,1,,,,,,83,WORD,"ID",33,result,RESULT,m,,,,,,-0.863333333,0.082222222,0,0,0,,0,126,126,22,1,
,,,,,,,,,,,,,,,,,,5f2aeb9e0f60154413ed7f5e,2020-08-10_11h26.48.303,lexical_decision_task_MP,2020.1.3,Win32,60,z,1,1.055835,,,,,,,,1.055835,1,,,,,,364,NW,"ID",50,impote,IMPOTE,z,,,,,,-0.863333333,0.082222222,0,0,0,,0,127,127,303,1,
,,,,,,,,,,,,,,,,,,5f2aeb9e0f60154413ed7f5e,2020-08-10_11h26.48.303,lexical_decision_task_MP,2020.1.3,Win32,60,z,1,0.942365,,,,,,,,0.942365,1,,,,,,444,NW,UN,33,minkel,JAUNCE,z,,,,,,-0.863333333,0.082222222,0,0,0,,0,128,128,383,1,
,,,,,,,,,,,,,,,,,,5f2aeb9e0f60154413ed7f5e,2020-08-10_11h26.48.303,lexical_decision_task_MP,2020.1.3,Win32,60,m,1,0.74284,,,,,,,,0.74284,1,,,,,,112,WORD,"ID",33,breath,BREATH,m,,,,,,-0.863333333,0.082222222,0,0,0,,0,129,129,51,1,
,,,,,,,,,,,,,,,,,,5f2aeb9e0f60154413ed7f5e,2020-08-10_11h26.48.303,lexical_decision_task_MP,2020.1.3,Win32,60,m,0,1.00716,,,,,,,,1.00716,0,,,,,,432,NW,UN,33,drance,LUNKER,z,,,,,,-0.863333333,0.082222222,0,0,0,,0,130,130,371,1,
,,,,,,,,,,,,,,,,,,5f2aeb9e0f60154413ed7f5e,2020-08-10_11h26.48.303,lexical_decision_task_MP,2020.1.3,Win32,60,z,1,1.478955,,,,,,,,1.478955,1,,,,,,341,NW,"ID",33,myrtie,MYRTIE,z,,,,,,-0.863333333,0.082222222,0,0,0,,0,131,131,280,1,
,,,,,,,,,,,,,,,,,,5f2aeb9e0f60154413ed7f5e,2020-08-10_11h26.48.303,lexical_decision_task_MP,2020.1.3,Win32,60,z,1,1.03933,,,,,,,,1.03933,1,,,,,,387,NW,"ID",50,gronce,GRONCE,z,,,,,,-0.863333333,0.082222222,0,0,0,,0,132,132,326,1,
,,,,,,,,,,,,,,,,,,5f2aeb9e0f60154413ed7f5e,2020-08-10_11h26.48.303,lexical_decision_task_MP,2020.1.3,Win32,60,z,1,1.08974,,,,,,,,1.08974,1,,,,,,405,NW,"ID",50,flumni,FLUMNI,z,,,,,,-0.863333333,0.082222222,0,0,0,,0,133,133,344,1,
,,,,,,,,,,,,,,,,,,5f2aeb9e0f60154413ed7f5e,2020-08-10_11h26.48.303,lexical_decision_task_MP,2020.1.3,Win32,60,m,1,0.60153,,,,,,,,0.60153,1,,,,,,148,WORD,"ID",50,custom,CUSTOM,m,,,,,,-0.863333333,0.082222222,0,0,0,,0,134,134,87,1,
,,,,,,,,,,,,,,,,,,5f2aeb9e0f60154413ed7f5e,2020-08-10_11h26.48.303,lexical_decision_task_MP,2020.1.3,Win32,60,m,1,0.79262,,,,,,,,0.79262,1,,,,,,30,WORD,UN,50,weapon,ORIENT,m,,,,,,-0.863333333,0.082222222,0,0,0,,0,135,135,209,1,
,,,,,,,,,,,,,,,,,,5f2aeb9e0f60154413ed7f5e,2020-08-10_11h26.48.303,lexical_decision_task_MP,2020.1.3,Win32,60,m,1,1.12328,,,,,,,,1.12328,1,,,,,,38,WORD,UN,50,insect,POWDER,m,,,,,,-0.863333333,0.082222222,0,0,0,,0,136,136,217,1,
,,,,,,,,,,,,,,,,,,5f2aeb9e0f60154413ed7f5e,2020-08-10_11h26.48.303,lexical_decision_task_MP,2020.1.3,Win32,60,z,1,0.668475,,,,,,,,0.668475,1,,,,,,469,NW,UN,33,crudio,PADIFS,z,,,,,,-0.863333333,0.082222222,0,0,0,,0,137,137,408,1,
,,,,,,,,,,,,,,,,,,5f2aeb9e0f60154413ed7f5e,2020-08-10_11h26.48.303,lexical_decision_task_MP,2020.1.3,Win32,60,m,1,0.688985,,,,,,,,0.688985,1,,,,,,51,WORD,UN,50,impose,HUNGRY,m,,,,,,-0.863333333,0.082222222,0,0,0,,0,138,138,230,1,
,,,,,,,,,,,,,,,,,,5f2aeb9e0f60154413ed7f5e,2020-08-10_11h26.48.303,lexical_decision_task_MP,2020.1.3,Win32,60,z,1,1.016025,,,,,,,,1.016025,1,,,,,,277,NW,UN,50,unighs,PETAIN,z,,,,,,-0.863333333,0.082222222,0,0,0,,0,139,139,456,1,
,,,,,,,,,,,,,,,,,,5f2aeb9e0f60154413ed7f5e,2020-08-10_11h26.48.303,lexical_decision_task_MP,2020.1.3,Win32,60,z,1,0.90125,,,,,,,,0.90125,1,,,,,,265,NW,UN,50,varmit,DISTAR,z,,,,,,-0.863333333,0.082222222,0,0,0,,0,140,140,444,1,
,,,,,,,,,,,,,,,,,,5f2aeb9e0f60154413ed7f5e,2020-08-10_11h26.48.303,lexical_decision_task_MP,2020.1.3,Win32,60,z,1,0.97869,,,,,,,,0.97869,1,,,,,,426,NW,UN,33,schind,URIVEL,z,,,,,,-0.863333333,0.082222222,0,0,0,,0,141,141,365,1,
,,,,,,,,,,,,,,,,,,5f2aeb9e0f60154413ed7f5e,2020-08-10_11h26.48.303,lexical_decision_task_MP,2020.1.3,Win32,60,z,1,0.86912,,,,,,,,0.86912,1,,,,,,479,NW,UN,33,crible,LOBUSH,z,,,,,,-0.863333333,0.082222222,0,0,0,,0,142,142,418,1,
,,,,,,,,,,,,,,,,,,5f2aeb9e0f60154413ed7f5e,2020-08-10_11h26.48.303,lexical_decision_task_MP,2020.1.3,Win32,60,z,1,0.72991,,,,,,,,0.72991,1,,,,,,286,NW,UN,50,nymbel,RELDON,z,,,,,,-0.863333333,0.082222222,0,0,0,,0,143,143,465,1,
,,,,,,,,,,,,,,,,,,5f2aeb9e0f60154413ed7f5e,2020-08-10_11h26.48.303,lexical_decision_task_MP,2020.1.3,Win32,60,m,1,0.702275,,,,,,,,0.702275,1,,,,,,194,WORD,UN,33,resign,ABSENT,m,,,,,,-0.863333333,0.082222222,0,0,0,,0,144,144,133,1,
,,,,,,,,,,,,,,,,,,5f2aeb9e0f60154413ed7f5e,2020-08-10_11h26.48.303,lexical_decision_task_MP,2020.1.3,Win32,60,m,1,0.709345,,,,,,,,0.709345,1,,,,,,75,WORD,"ID",33,trophy,TROPHY,m,,,,,,-0.863333333,0.082222222,0,0,0,,0,145,145,14,1,
,,,,,,,,,,,,,,,,,,5f2aeb9e0f60154413ed7f5e,2020-08-10_11h26.48.303,lexical_decision_task_MP,2020.1.3,Win32,60,z,1,0.75924,,,,,,,,0.75924,1,,,,,,297,NW,UN,50,piergy,FERTIC,z,,,,,,-0.863333333,0.082222222,0,0,0,,0,146,146,476,1,
,,,,,,,,,,,,,,,,,,5f2aeb9e0f60154413ed7f5e,2020-08-10_11h26.48.303,lexical_decision_task_MP,2020.1.3,Win32,60,z,1,0.79494,,,,,,,,0.79494,1,,,,,,431,NW,UN,33,lunker,CHRUMS,z,,,,,,-0.863333333,0.082222222,0,0,0,,0,147,147,370,1,
,,,,,,,,,,,,,,,,,,5f2aeb9e0f60154413ed7f5e,2020-08-10_11h26.48.303,lexical_decision_task_MP,2020.1.3,Win32,60,m,1,0.632075,,,,,,,,0.632075,1,,,,,,150,WORD,"ID",50,random,RANDOM,m,,,,,,-0.863333333,0.082222222,0,0,0,,0,148,148,89,1,
,,,,,,,,,,,,,,,,,,5f2aeb9e0f60154413ed7f5e,2020-08-10_11h26.48.303,lexical_decision_task_MP,2020.1.3,Win32,60,m,1,0.789585,,,,,,,,0.789585,1,,,,,,201,WORD,UN,33,factor,ADMIRE,m,,,,,,-0.863333333,0.082222222,0,0,0,,0,149,149,140,1,
,,,,,,,,,,,,,,,,,,5f2aeb9e0f60154413ed7f5e,2020-08-10_11h26.48.303,lexical_decision_task_MP,2020.1.3,Win32,60,z,1,0.63335,,,,,,,,0.63335,1,,,,,,257,NW,UN,50,poluth,VENIOD,z,,,,,,-0.863333333,0.082222222,0,0,0,,0,150,150,436,1,
,,,,,,,,,,,,,,,,,,5f2aeb9e0f60154413ed7f5e,2020-08-10_11h26.48.303,lexical_decision_task_MP,2020.1.3,Win32,60,m,1,0.947715,,,,,,,,0.947715,1,,,,,,134,WORD,"ID",50,staple,STAPLE,m,,,,,,-0.863333333,0.082222222,0,0,0,,0,151,151,73,1,
,,,,,,,,,,,,,,,,,,5f2aeb9e0f60154413ed7f5e,2020-08-10_11h26.48.303,lexical_decision_task_MP,2020.1.3,Win32,60,z,1,0.79881,,,,,,,,0.79881,1,,,,,,351,NW,"ID",33,tiesch,TIESCH,z,,,,,,-0.863333333,0.082222222,0,0,0,,0,152,152,290,1,
,,,,,,,,,,,,,,,,,,5f2aeb9e0f60154413ed7f5e,2020-08-10_11h26.48.303,lexical_decision_task_MP,2020.1.3,Win32,60,m,1,0.501105,,,,,,,,0.501105,1,,,,,,144,WORD,"ID",50,sponge,SPONGE,m,,,,,,-0.863333333,0.082222222,0,0,0,,0,153,153,83,1,
,,,,,,,,,,,,,,,,,,5f2aeb9e0f60154413ed7f5e,2020-08-10_11h26.48.303,lexical_decision_task_MP,2020.1.3,Win32,60,m,1,0.661235,,,,,,,,0.661235,1,,,,,,55,WORD,UN,50,ambush,STROKE,m,,,,,,-0.863333333,0.082222222,0,0,0,,0,154,154,234,1,
,,,,,,,,,,,,,,,,,,5f2aeb9e0f60154413ed7f5e,2020-08-10_11h26.48.303,lexical_decision_task_MP,2020.1.3,Win32,60,z,1,0.64881,,,,,,,,0.64881,1,,,,,,375,NW,"ID",50,yorque,YORQUE,z,,,,,,-0.863333333,0.082222222,0,0,0,,0,155,155,314,1,
,,,,,,,,,,,,,,,,,,5f2aeb9e0f60154413ed7f5e,2020-08-10_11h26.48.303,lexical_decision_task_MP,2020.1.3,Win32,60,z,1,0.663295,,,,,,,,0.663295,1,,,,,,456,NW,UN,33,wanigh,BROGET,z,,,,,,-0.863333333,0.082222222,0,0,0,,0,156,156,395,1,
,,,,,,,,,,,,,,,,,,5f2aeb9e0f60154413ed7f5e,2020-08-10_11h26.48.303,lexical_decision_task_MP,2020.1.3,Win32,60,z,1,0.97488,,,,,,,,0.97488,1,,,,,,473,NW,UN,33,hablin,CRIBLE,z,,,,,,-0.863333333,0.082222222,0,0,0,,0,157,157,412,1,
,,,,,,,,,,,,,,,,,,5f2aeb9e0f60154413ed7f5e,2020-08-10_11h26.48.303,lexical_decision_task_MP,2020.1.3,Win32,60,m,1,0.67299,,,,,,,,0.67299,1,,,,,,81,WORD,"ID",33,friend,FRIEND,m,,,,,,-0.863333333,0.082222222,0,0,0,,0,158,158,20,1,
,,,,,,,,,,,,,,,,,,5f2aeb9e0f60154413ed7f5e,2020-08-10_11h26.48.303,lexical_decision_task_MP,2020.1.3,Win32,60,m,1,0.660905,,,,,,,,0.660905,1,,,,,,96,WORD,"ID",33,ignore,IGNORE,m,,,,,,-0.863333333,0.082222222,0,0,0,,0,159,159,35,1,
,,,,,,,,,,,,,,,,,,5f2aeb9e0f60154413ed7f5e,2020-08-10_11h26.48.303,lexical_decision_task_MP,2020.1.3,Win32,60,m,1,0.685675,,,,,,,,0.685675,1,,,,,,128,WORD,"ID",50,senior,SENIOR,m,,,,,,-0.863333333,0.082222222,0,0,0,,0,160,160,67,1,
,,,,,,,,,,,,,,,,,,5f2aeb9e0f60154413ed7f5e,2020-08-10_11h26.48.303,lexical_decision_task_MP,2020.1.3,Win32,60,z,1,0.682905,,,,,,,,0.682905,1,,,,,,324,NW,"ID",33,steikh,STEIKH,z,,,,,,-0.863333333,0.082222222,0,0,0,,0,161,161,263,1,
,,,,,,,,,,,,,,,,,,5f2aeb9e0f60154413ed7f5e,2020-08-10_11h26.48.303,lexical_decision_task_MP,2020.1.3,Win32,60,m,1,0.63211,,,,,,,,0.63211,1,,,,,,161,WORD,"ID",50,pastor,PASTOR,m,,,,,,-0.863333333,0.082222222,0,0,0,,0,162,162,100,1,
,,,,,,,,,,,,,,,,,,5f2aeb9e0f60154413ed7f5e,2020-08-10_11h26.48.303,lexical_decision_task_MP,2020.1.3,Win32,60,z,1,0.768615,,,,,,,,0.768615,1,,,,,,397,NW,"ID",50,camble,CAMBLE,z,,,,,,-0.863333333,0.082222222,0,0,0,,0,163,163,336,1,
,,,,,,,,,,,,,,,,,,5f2aeb9e0f60154413ed7f5e,2020-08-10_11h26.48.303,lexical_decision_task_MP,2020.1.3,Win32,60,z,1,1.184945,,,,,,,,1.184945,1,,,,,,284,NW,UN,50,prudge,SHAPLE,z,,,,,,-0.863333333,0.082222222,0,0,0,,0,164,164,463,1,
,,,,,,,,,,,,,,,,,,5f2aeb9e0f60154413ed7f5e,2020-08-10_11h26.48.303,lexical_decision_task_MP,2020.1.3,Win32,60,z,1,1.084105,,,,,,,,1.084105,1,,,,,,298,NW,UN,50,sturch,PIERGY,z,,,,,,-0.863333333,0.082222222,0,0,0,,0,165,165,477,1,
,,,,,,,,,,,,,,,,,,5f2aeb9e0f60154413ed7f5e,2020-08-10_11h26.48.303,lexical_decision_task_MP,2020.1.3,Win32,60,m,1,0.98019,,,,,,,,0.98019,1,,,,,,50,WORD,UN,50,hungry,SNATCH,m,,,,,,-0.863333333,0.082222222,0,0,0,,0,166,166,229,1,
,,,,,,,,,,,,,,,,,,5f2aeb9e0f60154413ed7f5e,2020-08-10_11h26.48.303,lexical_decision_task_MP,2020.1.3,Win32,60,z,1,0.920475,,,,,,,,0.920475,1,,,,,,436,NW,UN,33,snapel,FRUTAN,z,,,,,,-0.863333333,0.082222222,0,0,0,,0,167,167,375,1,
,,,,,,,,,,,,,,,,,,5f2aeb9e0f60154413ed7f5e,2020-08-10_11h26.48.303,lexical_decision_task_MP,2020.1.3,Win32,60,m,1,0.62403,,,,,,,,0.62403,1,,,,,,73,WORD,"ID",33,source,SOURCE,m,,,,,,-0.863333333,0.082222222,0,0,0,,0,168,168,12,1,
,,,,,,,,,,,,,,,,,,5f2aeb9e0f60154413ed7f5e,2020-08-10_11h26.48.303,lexical_decision_task_MP,2020.1.3,Win32,60,z,1,0.746075,,,,,,,,0.746075,1,,,,,,332,NW,"ID",33,vangue,VANGUE,z,,,,,,-0.863333333,0.082222222,0,0,0,,0,169,169,271,1,
,,,,,,,,,,,,,,,,,,5f2aeb9e0f60154413ed7f5e,2020-08-10_11h26.48.303,lexical_decision_task_MP,2020.1.3,Win32,60,z,1,0.763015,,,,,,,,0.763015,1,,,,,,418,NW,"ID",50,suidle,SUIDLE,z,,,,,,-0.863333333,0.082222222,0,0,0,,0,170,170,357,1,
,,,,,,,,,,,,,,,,,,5f2aeb9e0f60154413ed7f5e,2020-08-10_11h26.48.303,lexical_decision_task_MP,2020.1.3,Win32,60,z,1,0.878725,,,,,,,,0.878725,1,,,,,,315,NW,"ID",33,laston,LASTON,z,,,,,,-0.863333333,0.082222222,0,0,0,,0,171,171,254,1,
,,,,,,,,,,,,,,,,,,5f2aeb9e0f60154413ed7f5e,2020-08-10_11h26.48.303,lexical_decision_task_MP,2020.1.3,Win32,60,m,1,0.68625,,,,,,,,0.68625,1,,,,,,104,WORD,"ID",33,studio,STUDIO,m,,,,,,-0.863333333,0.082222222,0,0,0,,0,172,172,43,1,
,,,,,,,,,,,,,,,,,,5f2aeb9e0f60154413ed7f5e,2020-08-10_11h26.48.303,lexical_decision_task_MP,2020.1.3,Win32,60,m,1,0.683685,,,,,,,,0.683685,1,,,,,,138,WORD,"ID",50,melody,MELODY,m,,,,,,-0.863333333,0.082222222,0,0,0,,0,173,173,77,1,
,,,,,,,,,,,,,,,,,,5f2aeb9e0f60154413ed7f5e,2020-08-10_11h26.48.303,lexical_decision_task_MP,2020.1.3,Win32,60,m,1,0.792895,,,,,,,,0.792895,1,,,,,,107,WORD,"ID",33,slogan,SLOGAN,m,,,,,,-0.863333333,0.082222222,0,0,0,,0,174,174,46,1,
,,,,,,,,,,,,,,,,,,5f2aeb9e0f60154413ed7f5e,2020-08-10_11h26.48.303,lexical_decision_task_MP,2020.1.3,Win32,60,z,1,0.84899,,,,,,,,0.84899,1,,,,,,259,NW,UN,50,unject,SOUDAL,z,,,,,,-0.863333333,0.082222222,0,0,0,,0,175,175,438,1,
,,,,,,,,,,,,,,,,,,5f2aeb9e0f60154413ed7f5e,2020-08-10_11h26.48.303,lexical_decision_task_MP,2020.1.3,Win32,60,m,1,0.711695,,,,,,,,0.711695,1,,,,,,77,WORD,"ID",33,racket,RACKET,m,,,,,,-0.863333333,0.082222222,0,0,0,,0,176,176,16,1,
,,,,,,,,,,,,,,,,,,5f2aeb9e0f60154413ed7f5e,2020-08-10_11h26.48.303,lexical_decision_task_MP,2020.1.3,Win32,60,z,1,0.77042,,,,,,,,0.77042,1,,,,,,471,NW,UN,33,cigney,NOBEST,z,,,,,,-0.863333333,0.082222222,0,0,0,,0,177,177,410,1,
,,,,,,,,,,,,,,,,,,5f2aeb9e0f60154413ed7f5e,2020-08-10_11h26.48.303,lexical_decision_task_MP,2020.1.3,Win32,60,m,1,0.567085,,,,,,,,0.567085,1,,,,,,162,WORD,"ID",50,candle,CANDLE,m,,,,,,-0.863333333,0.082222222,0,0,0,,0,178,178,101,1,
,,,,,,,,,,,,,,,,,,5f2aeb9e0f60154413ed7f5e,2020-08-10_11h26.48.303,lexical_decision_task_MP,2020.1.3,Win32,60,z,1,0.66615,,,,,,,,0.66615,1,,,,,,442,NW,UN,33,dorsex,ABOUNE,z,,,,,,-0.863333333,0.082222222,0,0,0,,0,179,179,381,1,
,,,,,,,,,,,,,,,,,,5f2aeb9e0f60154413ed7f5e,2020-08-10_11h26.48.303,lexical_decision_task_MP,2020.1.3,Win32,60,z,1,0.88608,,,,,,,,0.88608,1,,,,,,468,NW,UN,33,padifs,WICTOR,z,,,,,,-0.863333333,0.082222222,0,0,0,,0,180,180,407,1,
,,,,,,,,,,,,,,,,,,5f2aeb9e0f60154413ed7f5e,2020-08-10_11h26.48.303,lexical_decision_task_MP,2020.1.3,Win32,60,z,1,0.798495,,,,,,,,0.798495,1,,,,,,423,NW,UN,33,praile,STRELD,z,,,,,,-0.863333333,0.082222222,0,0,0,,0,181,181,362,1,
,,,,,,,,,,,,,,,,,,5f2aeb9e0f60154413ed7f5e,2020-08-10_11h26.48.303,lexical_decision_task_MP,2020.1.3,Win32,60,m,1,0.61758,,,,,,,,0.61758,1,,,,,,115,WORD,"ID",33,guitar,GUITAR,m,,,,,,-0.863333333,0.082222222,0,0,0,,0,182,182,54,1,
,,,,,,,,,,,,,,,,,,5f2aeb9e0f60154413ed7f5e,2020-08-10_11h26.48.303,lexical_decision_task_MP,2020.1.3,Win32,60,z,1,0.76461,,,,,,,,0.76461,1,,,,,,295,NW,UN,50,beinch,GLEATH,z,,,,,,-0.863333333,0.082222222,0,0,0,,0,183,183,474,1,
,,,,,,,,,,,,,,,,,,5f2aeb9e0f60154413ed7f5e,2020-08-10_11h26.48.303,lexical_decision_task_MP,2020.1.3,Win32,60,m,1,0.599715,,,,,,,,0.599715,1,,,,,,17,WORD,UN,50,humble,CHARGE,m,,,,,,-0.863333333,0.082222222,0,0,0,,0,184,184,196,1,
,,,,,,,,,,,,,,,,,,5f2aeb9e0f60154413ed7f5e,2020-08-10_11h26.48.303,lexical_decision_task_MP,2020.1.3,Win32,60,m,1,0.780365,,,,,,,,0.780365,1,,,,,,180,WORD,"ID",50,silent,SILENT,m,,,,,,-0.863333333,0.082222222,0,0,0,,0,185,185,119,1,
,,,,,,,,,,,,,,,,,,5f2aeb9e0f60154413ed7f5e,2020-08-10_11h26.48.303,lexical_decision_task_MP,2020.1.3,Win32,60,m,1,0.659965,,,,,,,,0.659965,1,,,,,,137,WORD,"ID",50,finger,FINGER,m,,,,,,-0.863333333,0.082222222,0,0,0,,0,186,186,76,1,
,,,,,,,,,,,,,,,,,,5f2aeb9e0f60154413ed7f5e,2020-08-10_11h26.48.303,lexical_decision_task_MP,2020.1.3,Win32,60,m,1,0.64735,,,,,,,,0.64735,1,,,,,,6,WORD,UN,50,anchor,BUNDLE,m,,,,,,-0.863333333,0.082222222,0,0,0,,0,187,187,185,1,
,,,,,,,,,,,,,,,,,,5f2aeb9e0f60154413ed7f5e,2020-08-10_11h26.48.303,lexical_decision_task_MP,2020.1.3,Win32,60,m,1,0.533985,,,,,,,,0.533985,1,,,,,,155,WORD,"ID",50,lizard,LIZARD,m,,,,,,-0.863333333,0.082222222,0,0,0,,0,188,188,94,1,
,,,,,,,,,,,,,,,,,,5f2aeb9e0f60154413ed7f5e,2020-08-10_11h26.48.303,lexical_decision_task_MP,2020.1.3,Win32,60,z,1,0.684275,,,,,,,,0.684275,1,,,,,,434,NW,UN,33,impurb,PITROM,z,,,,,,-0.863333333,0.082222222,0,0,0,,0,189,189,373,1,
,,,,,,,,,,,,,,,,,,5f2aeb9e0f60154413ed7f5e,2020-08-10_11h26.48.303,lexical_decision_task_MP,2020.1.3,Win32,60,z,1,0.5749,,,,,,,,0.5749,1,,,,,,447,NW,UN,33,sadent,GIRCUE,z,,,,,,-0.863333333,0.082222222,0,0,0,,0,190,190,386,1,
,,,,,,,,,,,,,,,,,,5f2aeb9e0f60154413ed7f5e,2020-08-10_11h26.48.303,lexical_decision_task_MP,2020.1.3,Win32,60,z,1,0.63205,,,,,,,,0.63205,1,,,,,,312,NW,"ID",33,nerawl,NERAWL,z,,,,,,-0.863333333,0.082222222,0,0,0,,0,191,191,251,1,
,,,,,,,,,,,,,,,,,,5f2aeb9e0f60154413ed7f5e,2020-08-10_11h26.48.303,lexical_decision_task_MP,2020.1.3,Win32,60,z,1,0.648885,,,,,,,,0.648885,1,,,,,,280,NW,UN,50,melaty,CURBOL,z,,,,,,-0.863333333,0.082222222,0,0,0,,0,192,192,459,1,
,,,,,,,,,,,,,,,,,,5f2aeb9e0f60154413ed7f5e,2020-08-10_11h26.48.303,lexical_decision_task_MP,2020.1.3,Win32,60,z,1,0.594385,,,,,,,,0.594385,1,,,,,,336,NW,"ID",33,ghodus,GHODUS,z,,,,,,-0.863333333,0.082222222,0,0,0,,0,193,193,275,1,
,,,,,,,,,,,,,,,,,,5f2aeb9e0f60154413ed7f5e,2020-08-10_11h26.48.303,lexical_decision_task_MP,2020.1.3,Win32,60,m,1,0.71761,,,,,,,,0.71761,1,,,,,,40,WORD,UN,50,spring,CONVEY,m,,,,,,-0.863333333,0.082222222,0,0,0,,0,194,194,219,1,
,,,,,,,,,,,,,,,,,,5f2aeb9e0f60154413ed7f5e,2020-08-10_11h26.48.303,lexical_decision_task_MP,2020.1.3,Win32,60,m,1,0.56221,,,,,,,,0.56221,1,,,,,,197,WORD,UN,33,wicked,STREAM,m,,,,,,-0.863333333,0.082222222,0,0,0,,0,195,195,136,1,
,,,,,,,,,,,,,,,,,,5f2aeb9e0f60154413ed7f5e,2020-08-10_11h26.48.303,lexical_decision_task_MP,2020.1.3,Win32,60,z,1,0.700235,,,,,,,,0.700235,1,,,,,,355,NW,"ID",33,zingly,ZINGLY,z,,,,,,-0.863333333,0.082222222,0,0,0,,0,196,196,294,1,
,,,,,,,,,,,,,,,,,,5f2aeb9e0f60154413ed7f5e,2020-08-10_11h26.48.303,lexical_decision_task_MP,2020.1.3,Win32,60,z,1,0.948085,,,,,,,,0.948085,1,,,,,,439,NW,UN,33,saride,LIMPOR,z,,,,,,-0.863333333,0.082222222,0,0,0,,0,197,197,378,1,
,,,,,,,,,,,,,,,,,,5f2aeb9e0f60154413ed7f5e,2020-08-10_11h26.48.303,lexical_decision_task_MP,2020.1.3,Win32,60,m,1,0.596405,,,,,,,,0.596405,1,,,,,,91,WORD,"ID",33,expand,EXPAND,m,,,,,,-0.863333333,0.082222222,0,0,0,,0,198,198,30,1,
,,,,,,,,,,,,,,,,,,5f2aeb9e0f60154413ed7f5e,2020-08-10_11h26.48.303,lexical_decision_task_MP,2020.1.3,Win32,60,z,1,0.715,,,,,,,,0.715,1,,,,,,344,NW,"ID",33,scrily,SCRILY,z,,,,,,-0.866666667,0.173333333,0,0,0,,0,199,199,283,1,
,,,,,,,,,,,,,,,,,,5f2aeb9e0f60154413ed7f5e,2020-08-10_11h26.48.303,lexical_decision_task_MP,2020.1.3,Win32,60,m,1,0.58745,,,,,,,,0.58745,1,,,,,,172,WORD,"ID",50,patrol,PATROL,m,,,,,,-0.868888889,0.175555556,0,0,0,,0,200,200,111,1,
,,,,,,,,,,,,,,,,,,5f2aeb9e0f60154413ed7f5e,2020-08-10_11h26.48.303,lexical_decision_task_MP,2020.1.3,Win32,60,m,1,0.529265,,,,,,,,0.529265,1,,,,,,146,WORD,"ID",50,couple,COUPLE,m,,,,,,-0.868888889,0.175555556,0,0,0,,0,201,201,85,1,
,,,,,,,,,,,,,,,,,,5f2aeb9e0f60154413ed7f5e,2020-08-10_11h26.48.303,lexical_decision_task_MP,2020.1.3,Win32,60,m,1,0.522825,,,,,,,,0.522825,1,,,,,,187,WORD,UN,33,social,COURSE,m,,,,,,-0.868888889,0.175555556,0,0,0,,0,202,202,126,1,
,,,,,,,,,,,,,,,,,,5f2aeb9e0f60154413ed7f5e,2020-08-10_11h26.48.303,lexical_decision_task_MP,2020.1.3,Win32,60,m,1,0.56722,,,,,,,,0.56722,1,,,,,,238,WORD,UN,33,behalf,FLOWER,m,,,,,,-0.868888889,0.175555556,0,0,0,,0,203,203,177,1,
,,,,,,,,,,,,,,,,,,5f2aeb9e0f60154413ed7f5e,2020-08-10_11h26.48.303,lexical_decision_task_MP,2020.1.3,Win32,60,z,1,0.61347,,,,,,,,0.61347,1,,,,,,246,NW,UN,50,blarge,PIATON,z,,,,,,-0.868888889,0.175555556,0,0,0,,0,204,204,425,1,
,,,,,,,,,,,,,,,,,,5f2aeb9e0f60154413ed7f5e,2020-08-10_11h26.48.303,lexical_decision_task_MP,2020.1.3,Win32,60,m,1,0.46504,,,,,,,,0.46504,1,,,,,,126,WORD,"ID",50,enough,ENOUGH,m,,,,,,-0.868888889,0.175555556,0,0,0,,0,205,205,65,1,
,,,,,,,,,,,,,,,,,,5f2aeb9e0f60154413ed7f5e,2020-08-10_11h26.48.303,lexical_decision_task_MP,2020.1.3,Win32,60,m,1,0.591815,,,,,,,,0.591815,1,,,,,,163,WORD,"ID",50,string,STRING,m,,,,,,-0.868888889,0.175555556,0,0,0,,0,206,206,102,1,
,,,,,,,,,,,,,,,,,,5f2aeb9e0f60154413ed7f5e,2020-08-10_11h26.48.303,lexical_decision_task_MP,2020.1.3,Win32,60,z,1,0.66391,,,,,,,,0.66391,1,,,,,,470,NW,UN,33,nobest,CRUDIO,z,,,,,,-0.868888889,0.175555556,0,0,0,,0,207,207,409,1,
,,,,,,,,,,,,,,,,,,5f2aeb9e0f60154413ed7f5e,2020-08-10_11h26.48.303,lexical_decision_task_MP,2020.1.3,Win32,60,z,1,0.67459,,,,,,,,0.67459,1,,,,,,363,NW,"ID",50,breali,BREALI,z,,,,,,-0.868888889,0.175555556,0,0,0,,0,208,208,302,1,
,,,,,,,,,,,,,,,,,,5f2aeb9e0f60154413ed7f5e,2020-08-10_11h26.48.303,lexical_decision_task_MP,2020.1.3,Win32,60,m,1,0.58246,,,,,,,,0.58246,1,,,,,,56,WORD,UN,50,change,AMBUSH,m,,,,,,-0.868888889,0.175555556,0,0,0,,0,209,209,235,1,
,,,,,,,,,,,,,,,,,,5f2aeb9e0f60154413ed7f5e,2020-08-10_11h26.48.303,lexical_decision_task_MP,2020.1.3,Win32,60,z,1,0.623215,,,,,,,,0.623215,1,,,,,,369,NW,"ID",50,wronch,WRONCH,z,,,,,,-0.868888889,0.175555556,0,0,0,,0,210,210,308,1,
,,,,,,,,,,,,,,,,,,5f2aeb9e0f60154413ed7f5e,2020-08-10_11h26.48.303,lexical_decision_task_MP,2020.1.3,Win32,60,z,1,0.615095,,,,,,,,0.615095,1,,,,,,347,NW,"ID",33,kerift,KERIFT,z,,,,,,-0.868888889,0.175555556,0,0,0,,0,211,211,286,1,
,,,,,,,,,,,,,,,,,,5f2aeb9e0f60154413ed7f5e,2020-08-10_11h26.48.303,lexical_decision_task_MP,2020.1.3,Win32,60,m,1,0.47149,,,,,,,,0.47149,1,,,,,,132,WORD,"ID",50,strong,STRONG,m,,,,,,-0.868888889,0.175555556,0,0,0,,0,212,212,71,1,
,,,,,,,,,,,,,,,,,,5f2aeb9e0f60154413ed7f5e,2020-08-10_11h26.48.303,lexical_decision_task_MP,2020.1.3,Win32,60,m,1,0.58883,,,,,,,,0.58883,1,,,,,,33,WORD,UN,50,jungle,BUTLER,m,,,,,,-0.868888889,0.175555556,0,0,0,,0,213,213,212,1,
,,,,,,,,,,,,,,,,,,5f2aeb9e0f60154413ed7f5e,2020-08-10_11h26.48.303,lexical_decision_task_MP,2020.1.3,Win32,60,z,1,0.69472,,,,,,,,0.69472,1,,,,,,334,NW,"ID",33,watmeg,WATMEG,z,,,,,,-0.868888889,0.175555556,0,0,0,,0,214,214,273,1,
,,,,,,,,,,,,,,,,,,5f2aeb9e0f60154413ed7f5e,2020-08-10_11h26.48.303,lexical_decision_task_MP,2020.1.3,Win32,60,m,1,0.820105,,,,,,,,0.820105,1,,,,,,62,WORD,"ID",33,region,REGION,m,,,,,,-0.868888889,0.175555556,0,0,0,,0,215,215,1,1,
,,,,,,,,,,,,,,,,,,5f2aeb9e0f60154413ed7f5e,2020-08-10_11h26.48.303,lexical_decision_task_MP,2020.1.3,Win32,60,m,1,0.572165,,,,,,,,0.572165,1,,,,,,136,WORD,"ID",50,bleach,BLEACH,m,,,,,,-0.868888889,0.175555556,0,0,0,,0,216,216,75,1,
,,,,,,,,,,,,,,,,,,5f2aeb9e0f60154413ed7f5e,2020-08-10_11h26.48.303,lexical_decision_task_MP,2020.1.3,Win32,60,z,1,0.53097,,,,,,,,0.53097,1,,,,,,419,NW,"ID",50,slount,SLOUNT,z,,,,,,-0.868888889,0.175555556,0,0,0,,0,217,217,358,1,
,,,,,,,,,,,,,,,,,,5f2aeb9e0f60154413ed7f5e,2020-08-10_11h26.48.303,lexical_decision_task_MP,2020.1.3,Win32,60,z,1,0.972575,,,,,,,,0.972575,1,,,,,,276,NW,UN,50,petain,YARMON,z,,,,,,-0.868888889,0.175555556,0,0,0,,0,218,218,455,1,
,,,,,,,,,,,,,,,,,,5f2aeb9e0f60154413ed7f5e,2020-08-10_11h26.48.303,lexical_decision_task_MP,2020.1.3,Win32,60,z,1,0.57179,,,,,,,,0.57179,1,,,,,,367,NW,"ID",50,slique,SLIQUE,z,,,,,,-0.868888889,0.175555556,0,0,0,,0,219,219,306,1,
,,,,,,,,,,,,,,,,,,5f2aeb9e0f60154413ed7f5e,2020-08-10_11h26.48.303,lexical_decision_task_MP,2020.1.3,Win32,60,m,1,0.61309,,,,,,,,0.61309,1,,,,,,78,WORD,"ID",33,column,COLUMN,m,,,,,,-0.868888889,0.175555556,0,0,0,,0,220,220,17,1,
,,,,,,,,,,,,,,,,,,5f2aeb9e0f60154413ed7f5e,2020-08-10_11h26.48.303,lexical_decision_task_MP,2020.1.3,Win32,60,z,1,0.773705,,,,,,,,0.773705,1,,,,,,342,NW,"ID",33,randow,RANDOW,z,,,,,,-0.868888889,0.175555556,0,0,0,,0,221,221,281,1,
,,,,,,,,,,,,,,,,,,5f2aeb9e0f60154413ed7f5e,2020-08-10_11h26.48.303,lexical_decision_task_MP,2020.1.3,Win32,60,z,1,0.853085,,,,,,,,0.853085,1,,,,,,466,NW,UN,33,robuly,HOCITE,z,,,,,,-0.868888889,0.175555556,0,0,0,,0,222,222,405,1,
,,,,,,,,,,,,,,,,,,5f2aeb9e0f60154413ed7f5e,2020-08-10_11h26.48.303,lexical_decision_task_MP,2020.1.3,Win32,60,z,1,0.58729,,,,,,,,0.58729,1,,,,,,309,NW,"ID",33,amiloy,AMILOY,z,,,,,,-0.868888889,0.175555556,0,0,0,,0,223,223,248,1,
,,,,,,,,,,,,,,,,,,5f2aeb9e0f60154413ed7f5e,2020-08-10_11h26.48.303,lexical_decision_task_MP,2020.1.3,Win32,60,m,1,0.53209,,,,,,,,0.53209,1,,,,,,202,WORD,UN,33,phrase,FACTOR,m,,,,,,-0.868888889,0.175555556,0,0,0,,0,224,224,141,1,
,,,,,,,,,,,,,,,,,,5f2aeb9e0f60154413ed7f5e,2020-08-10_11h26.48.303,lexical_decision_task_MP,2020.1.3,Win32,60,m,1,0.609185,,,,,,,,0.609185,1,,,,,,139,WORD,"ID",50,debris,DEBRIS,m,,,,,,-0.868888889,0.175555556,0,0,0,,0,225,225,78,1,
,,,,,,,,,,,,,,,,,,5f2aeb9e0f60154413ed7f5e,2020-08-10_11h26.48.303,lexical_decision_task_MP,2020.1.3,Win32,60,z,1,0.6029,,,,,,,,0.6029,1,,,,,,459,NW,UN,33,mingar,BAFENT,z,,,,,,-0.868888889,0.175555556,0,0,0,,0,226,226,398,1,
,,,,,,,,,,,,,,,,,,5f2aeb9e0f60154413ed7f5e,2020-08-10_11h26.48.303,lexical_decision_task_MP,2020.1.3,Win32,60,m,1,0.52375,,,,,,,,0.52375,1,,,,,,240,WORD,UN,33,seldom,FOREST,m,,,,,,-0.868888889,0.175555556,0,0,0,,0,227,227,179,1,
,,,,,,,,,,,,,,,,,,5f2aeb9e0f60154413ed7f5e,2020-08-10_11h26.48.303,lexical_decision_task_MP,2020.1.3,Win32,60,z,1,0.816175,,,,,,,,0.816175,1,,,,,,463,NW,UN,33,chaite,KISPEL,z,,,,,,-0.868888889,0.175555556,0,0,0,,0,228,228,402,1,
,,,,,,,,,,,,,,,,,,5f2aeb9e0f60154413ed7f5e,2020-08-10_11h26.48.303,lexical_decision_task_MP,2020.1.3,Win32,60,z,1,0.543615,,,,,,,,0.543615,1,,,,,,451,NW,UN,33,surden,CAINKY,z,,,,,,-0.868888889,0.175555556,0,0,0,,0,229,229,390,1,
,,,,,,,,,,,,,,,,,,5f2aeb9e0f60154413ed7f5e,2020-08-10_11h26.48.303,lexical_decision_task_MP,2020.1.3,Win32,60,m,1,0.59639,,,,,,,,0.59639,1,,,,,,46,WORD,UN,50,income,SINGLE,m,,,,,,-0.868888889,0.175555556,0,0,0,,0,230,230,225,1,
,,,,,,,,,,,,,,,,,,5f2aeb9e0f60154413ed7f5e,2020-08-10_11h26.48.303,lexical_decision_task_MP,2020.1.3,Win32,60,m,1,0.637165,,,,,,,,0.637165,1,,,,,,11,WORD,UN,50,amount,CRUISE,m,,,,,,-0.868888889,0.175555556,0,0,0,,0,231,231,190,1,
,,,,,,,,,,,,,,,,,,5f2aeb9e0f60154413ed7f5e,2020-08-10_11h26.48.303,lexical_decision_task_MP,2020.1.3,Win32,60,z,1,0.54935,,,,,,,,0.54935,1,,,,,,317,NW,"ID",33,worbal,WORBAL,z,,,,,,-0.868888889,0.175555556,0,0,0,,0,232,232,256,1,
,,,,,,,,,,,,,,,,,,5f2aeb9e0f60154413ed7f5e,2020-08-10_11h26.48.303,lexical_decision_task_MP,2020.1.3,Win32,60,z,1,0.758025,,,,,,,,0.758025,1,,,,,,249,NW,UN,50,milted,BATROL,z,,,,,,-0.868888889,0.175555556,0,0,0,,0,233,233,428,1,
,,,,,,,,,,,,,,,,,,5f2aeb9e0f60154413ed7f5e,2020-08-10_11h26.48.303,lexical_decision_task_MP,2020.1.3,Win32,60,z,1,0.67382,,,,,,,,0.67382,1,,,,,,314,NW,"ID",33,sprine,SPRINE,z,,,,,,-0.868888889,0.175555556,0,0,0,,0,234,234,253,1,
,,,,,,,,,,,,,,,,,,5f2aeb9e0f60154413ed7f5e,2020-08-10_11h26.48.303,lexical_decision_task_MP,2020.1.3,Win32,60,m,1,0.616205,,,,,,,,0.616205,1,,,,,,226,WORD,UN,33,flower,CASINO,m,,,,,,-0.868888889,0.175555556,0,0,0,,0,235,235,165,1,
,,,,,,,,,,,,,,,,,,5f2aeb9e0f60154413ed7f5e,2020-08-10_11h26.48.303,lexical_decision_task_MP,2020.1.3,Win32,60,m,1,0.559585,,,,,,,,0.559585,1,,,,,,152,WORD,"ID",50,rocket,ROCKET,m,,,,,,-0.868888889,0.175555556,0,0,0,,0,236,236,91,1,
,,,,,,,,,,,,,,,,,,5f2aeb9e0f60154413ed7f5e,2020-08-10_11h26.48.303,lexical_decision_task_MP,2020.1.3,Win32,60,m,1,0.64936,,,,,,,,0.64936,1,,,,,,52,WORD,UN,50,police,IMPOSE,m,,,,,,-0.868888889,0.175555556,0,0,0,,0,237,237,231,1,
,,,,,,,,,,,,,,,,,,5f2aeb9e0f60154413ed7f5e,2020-08-10_11h26.48.303,lexical_decision_task_MP,2020.1.3,Win32,60,z,1,0.536495,,,,,,,,0.536495,1,,,,,,331,NW,"ID",33,gilfew,GILFEW,z,,,,,,-0.868888889,0.175555556,0,0,0,,0,238,238,270,1,
,,,,,,,,,,,,,,,,,,5f2aeb9e0f60154413ed7f5e,2020-08-10_11h26.48.303,lexical_decision_task_MP,2020.1.3,Win32,60,m,1,0.636075,,,,,,,,0.636075,1,,,,,,9,WORD,UN,50,bridge,HUSTLE,m,,,,,,-0.868888889,0.175555556,0,0,0,,0,239,239,188,1,
,,,,,,,,,,,,,,,,,,5f2aeb9e0f60154413ed7f5e,2020-08-10_11h26.48.303,lexical_decision_task_MP,2020.1.3,Win32,60,m,1,0.516685,,,,,,,,0.516685,1,,,,,,64,WORD,"ID",33,throne,THRONE,m,,,,,,-0.868888889,0.175555556,0,0,0,,0,240,240,3,1,
,,,,,,,,,,,,,,,,,,5f2aeb9e0f60154413ed7f5e,2020-08-10_11h26.48.303,lexical_decision_task_MP,2020.1.3,Win32,60,m,1,0.58345,,,,,,,,0.58345,1,,,,,,69,WORD,"ID",33,plenty,PLENTY,m,,,,,,-0.868888889,0.175555556,0,0,0,space,0,241,241,8,1,18.364175
,,,,,,,,,,,,,,,,,,5f2aeb9e0f60154413ed7f5e,2020-08-10_11h26.48.303,lexical_decision_task_MP,2020.1.3,Win32,60,z,1,0.595435,,,,,,,,0.595435,1,,,,,,365,NW,"ID",50,guairt,GUAIRT,z,,,,,,-0.868888889,0.175555556,0,0,0,,0,242,242,304,1,
,,,,,,,,,,,,,,,,,,5f2aeb9e0f60154413ed7f5e,2020-08-10_11h26.48.303,lexical_decision_task_MP,2020.1.3,Win32,60,z,1,0.700525,,,,,,,,0.700525,1,,,,,,386,NW,"ID",50,ancust,ANCUST,z,,,,,,-0.868888889,0.175555556,0,0,0,,0,243,243,325,1,
,,,,,,,,,,,,,,,,,,5f2aeb9e0f60154413ed7f5e,2020-08-10_11h26.48.303,lexical_decision_task_MP,2020.1.3,Win32,60,z,1,1.13635,,,,,,,,1.13635,1,,,,,,378,NW,"ID",50,shrile,SHRILE,z,,,,,,-0.868888889,0.175555556,0,0,0,,0,244,244,317,1,
,,,,,,,,,,,,,,,,,,5f2aeb9e0f60154413ed7f5e,2020-08-10_11h26.48.303,lexical_decision_task_MP,2020.1.3,Win32,60,m,1,0.531695,,,,,,,,0.531695,1,,,,,,129,WORD,"ID",50,marvel,MARVEL,m,,,,,,-0.868888889,0.175555556,0,0,0,,0,245,245,68,1,
,,,,,,,,,,,,,,,,,,5f2aeb9e0f60154413ed7f5e,2020-08-10_11h26.48.303,lexical_decision_task_MP,2020.1.3,Win32,60,z,1,0.5746,,,,,,,,0.5746,1,,,,,,252,NW,UN,50,resait,STAPOD,z,,,,,,-0.868888889,0.175555556,0,0,0,,0,246,246,431,1,
,,,,,,,,,,,,,,,,,,5f2aeb9e0f60154413ed7f5e,2020-08-10_11h26.48.303,lexical_decision_task_MP,2020.1.3,Win32,60,z,1,0.71241,,,,,,,,0.71241,1,,,,,,416,NW,"ID",50,pathel,PATHEL,z,,,,,,-0.868888889,0.175555556,0,0,0,,0,247,247,355,1,
,,,,,,,,,,,,,,,,,,5f2aeb9e0f60154413ed7f5e,2020-08-10_11h26.48.303,lexical_decision_task_MP,2020.1.3,Win32,60,z,1,0.63554,,,,,,,,0.63554,1,,,,,,372,NW,"ID",50,ramily,RAMILY,z,,,,,,-0.868888889,0.175555556,0,0,0,,0,248,248,311,1,
,,,,,,,,,,,,,,,,,,5f2aeb9e0f60154413ed7f5e,2020-08-10_11h26.48.303,lexical_decision_task_MP,2020.1.3,Win32,60,z,1,0.621805,,,,,,,,0.621805,1,,,,,,373,NW,"ID",50,bigent,BIGENT,z,,,,,,-0.868888889,0.175555556,0,0,0,,0,249,249,312,1,
,,,,,,,,,,,,,,,,,,5f2aeb9e0f60154413ed7f5e,2020-08-10_11h26.48.303,lexical_decision_task_MP,2020.1.3,Win32,60,z,1,0.55345,,,,,,,,0.55345,1,,,,,,422,NW,UN,33,streld,ALCOUD,z,,,,,,-0.868888889,0.175555556,0,0,0,,0,250,250,361,1,
,,,,,,,,,,,,,,,,,,5f2aeb9e0f60154413ed7f5e,2020-08-10_11h26.48.303,lexical_decision_task_MP,2020.1.3,Win32,60,m,1,0.64968,,,,,,,,0.64968,1,,,,,,90,WORD,"ID",33,relish,RELISH,m,,,,,,-0.868888889,0.175555556,0,0,0,,0,251,251,29,1,
,,,,,,,,,,,,,,,,,,5f2aeb9e0f60154413ed7f5e,2020-08-10_11h26.48.303,lexical_decision_task_MP,2020.1.3,Win32,60,m,1,0.640875,,,,,,,,0.640875,1,,,,,,99,WORD,"ID",33,fluent,FLUENT,m,,,,,,-0.868888889,0.175555556,0,0,0,,0,252,252,38,1,
,,,,,,,,,,,,,,,,,,5f2aeb9e0f60154413ed7f5e,2020-08-10_11h26.48.303,lexical_decision_task_MP,2020.1.3,Win32,60,m,1,0.604785,,,,,,,,0.604785,1,,,,,,76,WORD,"ID",33,exotic,EXOTIC,m,,,,,,-0.868888889,0.175555556,0,0,0,,0,253,253,15,1,
,,,,,,,,,,,,,,,,,,5f2aeb9e0f60154413ed7f5e,2020-08-10_11h26.48.303,lexical_decision_task_MP,2020.1.3,Win32,60,m,1,0.49767,,,,,,,,0.49767,1,,,,,,110,WORD,"ID",33,polite,POLITE,m,,,,,,-0.868888889,0.175555556,0,0,0,,0,254,254,49,1,
,,,,,,,,,,,,,,,,,,5f2aeb9e0f60154413ed7f5e,2020-08-10_11h26.48.303,lexical_decision_task_MP,2020.1.3,Win32,60,m,1,0.541725,,,,,,,,0.541725,1,,,,,,108,WORD,"ID",33,reckon,RECKON,m,,,,,,-0.868888889,0.175555556,0,0,0,,0,255,255,47,1,
,,,,,,,,,,,,,,,,,,5f2aeb9e0f60154413ed7f5e,2020-08-10_11h26.48.303,lexical_decision_task_MP,2020.1.3,Win32,60,m,1,0.57406,,,,,,,,0.57406,1,,,,,,101,WORD,"ID",33,wrench,WRENCH,m,,,,,,-0.868888889,0.175555556,0,0,0,,0,256,256,40,1,
,,,,,,,,,,,,,,,,,,5f2aeb9e0f60154413ed7f5e,2020-08-10_11h26.48.303,lexical_decision_task_MP,2020.1.3,Win32,60,m,1,0.550645,,,,,,,,0.550645,1,,,,,,34,WORD,UN,50,socket,JUNGLE,m,,,,,,-0.868888889,0.175555556,0,0,0,,0,257,257,213,1,
,,,,,,,,,,,,,,,,,,5f2aeb9e0f60154413ed7f5e,2020-08-10_11h26.48.303,lexical_decision_task_MP,2020.1.3,Win32,60,z,1,0.522125,,,,,,,,0.522125,1,,,,,,394,NW,"ID",50,spaqux,SPAQUX,z,,,,,,-0.868888889,0.175555556,0,0,0,,0,258,258,333,1,
,,,,,,,,,,,,,,,,,,5f2aeb9e0f60154413ed7f5e,2020-08-10_11h26.48.303,lexical_decision_task_MP,2020.1.3,Win32,60,m,1,0.628685,,,,,,,,0.628685,1,,,,,,59,WORD,UN,50,pencil,SPLINT,m,,,,,,-0.868888889,0.175555556,0,0,0,,0,259,259,238,1,
,,,,,,,,,,,,,,,,,,5f2aeb9e0f60154413ed7f5e,2020-08-10_11h26.48.303,lexical_decision_task_MP,2020.1.3,Win32,60,m,1,0.50826,,,,,,,,0.50826,1,,,,,,27,WORD,UN,50,comedy,SCREAM,m,,,,,,-0.868888889,0.175555556,0,0,0,,0,260,260,206,1,
,,,,,,,,,,,,,,,,,,5f2aeb9e0f60154413ed7f5e,2020-08-10_11h26.48.303,lexical_decision_task_MP,2020.1.3,Win32,60,m,1,0.55256,,,,,,,,0.55256,1,,,,,,178,WORD,"ID",50,inform,INFORM,m,,,,,,-0.868888889,0.175555556,0,0,0,,0,261,261,117,1,
,,,,,,,,,,,,,,,,,,5f2aeb9e0f60154413ed7f5e,2020-08-10_11h26.48.303,lexical_decision_task_MP,2020.1.3,Win32,60,z,1,0.6908,,,,,,,,0.6908,1,,,,,,407,NW,"ID",50,suiver,SUIVER,z,,,,,,-0.868888889,0.175555556,0,0,0,,0,262,262,346,1,
,,,,,,,,,,,,,,,,,,5f2aeb9e0f60154413ed7f5e,2020-08-10_11h26.48.303,lexical_decision_task_MP,2020.1.3,Win32,60,m,1,0.576345,,,,,,,,0.576345,1,,,,,,218,WORD,UN,33,bucket,SHRINK,m,,,,,,-0.868888889,0.175555556,0,0,0,,0,263,263,157,1,
,,,,,,,,,,,,,,,,,,5f2aeb9e0f60154413ed7f5e,2020-08-10_11h26.48.303,lexical_decision_task_MP,2020.1.3,Win32,60,m,1,0.4996,,,,,,,,0.4996,1,,,,,,204,WORD,UN,33,lounge,BURDEN,m,,,,,,-0.868888889,0.175555556,0,0,0,,0,264,264,143,1,
,,,,,,,,,,,,,,,,,,5f2aeb9e0f60154413ed7f5e,2020-08-10_11h26.48.303,lexical_decision_task_MP,2020.1.3,Win32,60,z,1,0.5434,,,,,,,,0.5434,1,,,,,,292,NW,UN,50,swance,ABLINT,z,,,,,,-0.868888889,0.175555556,0,0,0,,0,265,265,471,1,
,,,,,,,,,,,,,,,,,,5f2aeb9e0f60154413ed7f5e,2020-08-10_11h26.48.303,lexical_decision_task_MP,2020.1.3,Win32,60,z,1,0.58593,,,,,,,,0.58593,1,,,,,,296,NW,UN,50,fertic,BEINCH,z,,,,,,-0.868888889,0.175555556,0,0,0,,0,266,266,475,1,
,,,,,,,,,,,,,,,,,,5f2aeb9e0f60154413ed7f5e,2020-08-10_11h26.48.303,lexical_decision_task_MP,2020.1.3,Win32,60,m,1,0.581105,,,,,,,,0.581105,1,,,,,,85,WORD,"ID",33,sprawl,SPRAWL,m,,,,,,-0.868888889,0.175555556,0,0,0,,0,267,267,24,1,
,,,,,,,,,,,,,,,,,,5f2aeb9e0f60154413ed7f5e,2020-08-10_11h26.48.303,lexical_decision_task_MP,2020.1.3,Win32,60,z,1,0.55813,,,,,,,,0.55813,1,,,,,,414,NW,"ID",50,serbol,SERBOL,z,,,,,,-0.868888889,0.175555556,0,0,0,,0,268,268,353,1,
,,,,,,,,,,,,,,,,,,5f2aeb9e0f60154413ed7f5e,2020-08-10_11h26.48.303,lexical_decision_task_MP,2020.1.3,Win32,60,m,0,0.58421,,,,,,,,0.58421,0,,,,,,454,NW,UN,33,tondle,SCOUGE,z,,,,,,-0.868888889,0.175555556,0,0,0,,0,269,269,393,1,
,,,,,,,,,,,,,,,,,,5f2aeb9e0f60154413ed7f5e,2020-08-10_11h26.48.303,lexical_decision_task_MP,2020.1.3,Win32,60,m,1,0.55833,,,,,,,,0.55833,1,,,,,,92,WORD,"ID",33,strand,STRAND,m,,,,,,-0.868888889,0.175555556,0,0,0,,0,270,270,31,1,
,,,,,,,,,,,,,,,,,,5f2aeb9e0f60154413ed7f5e,2020-08-10_11h26.48.303,lexical_decision_task_MP,2020.1.3,Win32,60,z,1,0.613865,,,,,,,,0.613865,1,,,,,,403,NW,"ID",50,bruats,BRUATS,z,,,,,,-0.868888889,0.175555556,0,0,0,,0,271,271,342,1,
,,,,,,,,,,,,,,,,,,5f2aeb9e0f60154413ed7f5e,2020-08-10_11h26.48.303,lexical_decision_task_MP,2020.1.3,Win32,60,m,1,0.59316,,,,,,,,0.59316,1,,,,,,12,WORD,UN,50,strive,ORANGE,m,,,,,,-0.868888889,0.175555556,0,0,0,,0,272,272,191,1,
,,,,,,,,,,,,,,,,,,5f2aeb9e0f60154413ed7f5e,2020-08-10_11h26.48.303,lexical_decision_task_MP,2020.1.3,Win32,60,z,1,0.586025,,,,,,,,0.586025,1,,,,,,256,NW,UN,50,veniod,INLORS,z,,,,,,-0.868888889,0.175555556,0,0,0,,0,273,273,435,1,
,,,,,,,,,,,,,,,,,,5f2aeb9e0f60154413ed7f5e,2020-08-10_11h26.48.303,lexical_decision_task_MP,2020.1.3,Win32,60,m,1,0.675395,,,,,,,,0.675395,1,,,,,,227,WORD,UN,33,master,SELDOM,m,,,,,,-0.868888889,0.175555556,0,0,0,,0,274,274,166,1,
,,,,,,,,,,,,,,,,,,5f2aeb9e0f60154413ed7f5e,2020-08-10_11h26.48.303,lexical_decision_task_MP,2020.1.3,Win32,60,z,1,0.61154,,,,,,,,0.61154,1,,,,,,330,NW,"ID",33,kensom,KENSOM,z,,,,,,-0.868888889,0.175555556,0,0,0,,0,275,275,269,1,
,,,,,,,,,,,,,,,,,,5f2aeb9e0f60154413ed7f5e,2020-08-10_11h26.48.303,lexical_decision_task_MP,2020.1.3,Win32,60,z,1,0.713655,,,,,,,,0.713655,1,,,,,,352,NW,"ID",33,tringe,TRINGE,z,,,,,,-0.868888889,0.175555556,0,0,0,,0,276,276,291,1,
,,,,,,,,,,,,,,,,,,5f2aeb9e0f60154413ed7f5e,2020-08-10_11h26.48.303,lexical_decision_task_MP,2020.1.3,Win32,60,z,1,0.73738,,,,,,,,0.73738,1,,,,,,420,NW,"ID",50,gushop,GUSHOP,z,,,,,,-0.868888889,0.175555556,0,0,0,,0,277,277,359,1,
,,,,,,,,,,,,,,,,,,5f2aeb9e0f60154413ed7f5e,2020-08-10_11h26.48.303,lexical_decision_task_MP,2020.1.3,Win32,60,m,1,0.532755,,,,,,,,0.532755,1,,,,,,88,WORD,"ID",33,hunger,HUNGER,m,,,,,,-0.868888889,0.175555556,0,0,0,,0,278,278,27,1,
,,,,,,,,,,,,,,,,,,5f2aeb9e0f60154413ed7f5e,2020-08-10_11h26.48.303,lexical_decision_task_MP,2020.1.3,Win32,60,z,1,0.69574,,,,,,,,0.69574,1,,,,,,318,NW,"ID",33,reagly,REAGLY,z,,,,,,-0.868888889,0.175555556,0,0,0,,0,279,279,257,1,
,,,,,,,,,,,,,,,,,,5f2aeb9e0f60154413ed7f5e,2020-08-10_11h26.48.303,lexical_decision_task_MP,2020.1.3,Win32,60,m,1,0.756705,,,,,,,,0.756705,1,,,,,,234,WORD,UN,33,poster,CLUMSY,m,,,,,,-0.868888889,0.175555556,0,0,0,,0,280,280,173,1,
,,,,,,,,,,,,,,,,,,5f2aeb9e0f60154413ed7f5e,2020-08-10_11h26.48.303,lexical_decision_task_MP,2020.1.3,Win32,60,z,1,0.855745,,,,,,,,0.855745,1,,,,,,382,NW,"ID",50,sarley,SARLEY,z,,,,,,-0.868888889,0.175555556,0,0,0,,0,281,281,321,1,
,,,,,,,,,,,,,,,,,,5f2aeb9e0f60154413ed7f5e,2020-08-10_11h26.48.303,lexical_decision_task_MP,2020.1.3,Win32,60,m,1,0.56665,,,,,,,,0.56665,1,,,,,,200,WORD,UN,33,admire,BEACON,m,,,,,,-0.868888889,0.175555556,0,0,0,,0,282,282,139,1,
,,,,,,,,,,,,,,,,,,5f2aeb9e0f60154413ed7f5e,2020-08-10_11h26.48.303,lexical_decision_task_MP,2020.1.3,Win32,60,m,1,0.44888,,,,,,,,0.44888,1,,,,,,153,WORD,"ID",50,behold,BEHOLD,m,,,,,,-0.868888889,0.175555556,0,0,0,,0,283,283,92,1,
,,,,,,,,,,,,,,,,,,5f2aeb9e0f60154413ed7f5e,2020-08-10_11h26.48.303,lexical_decision_task_MP,2020.1.3,Win32,60,m,1,0.60668,,,,,,,,0.60668,1,,,,,,111,WORD,"ID",33,induce,INDUCE,m,,,,,,-0.868888889,0.175555556,0,0,0,,0,284,284,50,1,
,,,,,,,,,,,,,,,,,,5f2aeb9e0f60154413ed7f5e,2020-08-10_11h26.48.303,lexical_decision_task_MP,2020.1.3,Win32,60,m,1,0.63629,,,,,,,,0.63629,1,,,,,,181,WORD,UN,33,winter,GLANCE,m,,,,,,-0.868888889,0.175555556,0,0,0,,0,285,285,120,1,
,,,,,,,,,,,,,,,,,,5f2aeb9e0f60154413ed7f5e,2020-08-10_11h26.48.303,lexical_decision_task_MP,2020.1.3,Win32,60,m,1,0.505105,,,,,,,,0.505105,1,,,,,,182,WORD,UN,33,absent,WINTER,m,,,,,,-0.868888889,0.175555556,0,0,0,,0,286,286,121,1,
,,,,,,,,,,,,,,,,,,5f2aeb9e0f60154413ed7f5e,2020-08-10_11h26.48.303,lexical_decision_task_MP,2020.1.3,Win32,60,m,1,0.47377,,,,,,,,0.47377,1,,,,,,80,WORD,"ID",33,family,FAMILY,m,,,,,,-0.868888889,0.175555556,0,0,0,,0,287,287,19,1,
,,,,,,,,,,,,,,,,,,5f2aeb9e0f60154413ed7f5e,2020-08-10_11h26.48.303,lexical_decision_task_MP,2020.1.3,Win32,60,z,1,0.589935,,,,,,,,0.589935,1,,,,,,399,NW,"ID",50,fouret,FOURET,z,,,,,,-0.868888889,0.175555556,0,0,0,,0,288,288,338,1,
,,,,,,,,,,,,,,,,,,5f2aeb9e0f60154413ed7f5e,2020-08-10_11h26.48.303,lexical_decision_task_MP,2020.1.3,Win32,60,z,1,0.60116,,,,,,,,0.60116,1,,,,,,328,NW,"ID",33,broake,BROAKE,z,,,,,,-0.868888889,0.175555556,0,0,0,,0,289,289,267,1,
,,,,,,,,,,,,,,,,,,5f2aeb9e0f60154413ed7f5e,2020-08-10_11h26.48.303,lexical_decision_task_MP,2020.1.3,Win32,60,z,1,0.600685,,,,,,,,0.600685,1,,,,,,374,NW,"ID",50,sliant,SLIANT,z,,,,,,-0.868888889,0.175555556,0,0,0,,0,290,290,313,1,
,,,,,,,,,,,,,,,,,,5f2aeb9e0f60154413ed7f5e,2020-08-10_11h26.48.303,lexical_decision_task_MP,2020.1.3,Win32,60,z,1,0.688705,,,,,,,,0.688705,1,,,,,,282,NW,UN,50,veralf,PORLEX,z,,,,,,-0.868888889,0.175555556,0,0,0,,0,291,291,461,1,
,,,,,,,,,,,,,,,,,,5f2aeb9e0f60154413ed7f5e,2020-08-10_11h26.48.303,lexical_decision_task_MP,2020.1.3,Win32,60,z,1,0.596795,,,,,,,,0.596795,1,,,,,,412,NW,"ID",50,jiluer,JILUER,z,,,,,,-0.868888889,0.175555556,0,0,0,,0,292,292,351,1,
,,,,,,,,,,,,,,,,,,5f2aeb9e0f60154413ed7f5e,2020-08-10_11h26.48.303,lexical_decision_task_MP,2020.1.3,Win32,60,m,1,0.52275,,,,,,,,0.52275,1,,,,,,36,WORD,UN,50,insult,VANISH,m,,,,,,-0.868888889,0.175555556,0,0,0,,0,293,293,215,1,
,,,,,,,,,,,,,,,,,,5f2aeb9e0f60154413ed7f5e,2020-08-10_11h26.48.303,lexical_decision_task_MP,2020.1.3,Win32,60,z,1,0.595425,,,,,,,,0.595425,1,,,,,,272,NW,UN,50,sortel,DAMILT,z,,,,,,-0.868888889,0.175555556,0,0,0,,0,294,294,451,1,
,,,,,,,,,,,,,,,,,,5f2aeb9e0f60154413ed7f5e,2020-08-10_11h26.48.303,lexical_decision_task_MP,2020.1.3,Win32,60,m,1,0.430375,,,,,,,,0.430375,1,,,,,,109,WORD,"ID",33,wonder,WONDER,m,,,,,,-0.868888889,0.175555556,0,0,0,,0,295,295,48,1,
,,,,,,,,,,,,,,,,,,5f2aeb9e0f60154413ed7f5e,2020-08-10_11h26.48.303,lexical_decision_task_MP,2020.1.3,Win32,60,z,1,0.613555,,,,,,,,0.613555,1,,,,,,462,NW,UN,33,kispel,ABSULT,z,,,,,,-0.868888889,0.175555556,0,0,0,,0,296,296,401,1,
,,,,,,,,,,,,,,,,,,5f2aeb9e0f60154413ed7f5e,2020-08-10_11h26.48.303,lexical_decision_task_MP,2020.1.3,Win32,60,m,1,0.49607,,,,,,,,0.49607,1,,,,,,157,WORD,"ID",50,dragon,DRAGON,m,,,,,,-0.868888889,0.175555556,0,0,0,,0,297,297,96,1,
,,,,,,,,,,,,,,,,,,5f2aeb9e0f60154413ed7f5e,2020-08-10_11h26.48.303,lexical_decision_task_MP,2020.1.3,Win32,60,m,1,0.59527,,,,,,,,0.59527,1,,,,,,211,WORD,UN,33,verify,INFECT,m,,,,,,-0.868888889,0.175555556,0,0,0,,0,298,298,150,1,
,,,,,,,,,,,,,,,,,,5f2aeb9e0f60154413ed7f5e,2020-08-10_11h26.48.303,lexical_decision_task_MP,2020.1.3,Win32,60,z,1,0.59505,,,,,,,,0.59505,1,,,,,,379,NW,"ID",50,auting,AUTING,z,,,,,,-0.868888889,0.175555556,0,0,0,,0,299,299,318,1,
,,,,,,,,,,,,,,,,,,5f2aeb9e0f60154413ed7f5e,2020-08-10_11h26.48.303,lexical_decision_task_MP,2020.1.3,Win32,60,m,1,0.599325,,,,,,,,0.599325,1,,,,,,71,WORD,"ID",33,garden,GARDEN,m,,,,,,-0.868888889,0.175555556,0,0,0,,0,300,300,10,1,
,,,,,,,,,,,,,,,,,,5f2aeb9e0f60154413ed7f5e,2020-08-10_11h26.48.303,lexical_decision_task_MP,2020.1.3,Win32,60,z,1,0.653195,,,,,,,,0.653195,1,,,,,,278,NW,UN,50,celond,UNIGHS,z,,,,,,-0.868888889,0.175555556,0,0,0,,0,301,301,457,1,
,,,,,,,,,,,,,,,,,,5f2aeb9e0f60154413ed7f5e,2020-08-10_11h26.48.303,lexical_decision_task_MP,2020.1.3,Win32,60,z,1,0.867775,,,,,,,,0.867775,1,,,,,,260,NW,UN,50,stunch,UNJECT,z,,,,,,-0.868888889,0.175555556,0,0,0,,0,302,302,439,1,
,,,,,,,,,,,,,,,,,,5f2aeb9e0f60154413ed7f5e,2020-08-10_11h26.48.303,lexical_decision_task_MP,2020.1.3,Win32,60,z,1,0.5941,,,,,,,,0.5941,1,,,,,,305,NW,"ID",33,forgle,FORGLE,z,,,,,,-0.868888889,0.175555556,0,0,0,,0,303,303,244,1,
,,,,,,,,,,,,,,,,,,5f2aeb9e0f60154413ed7f5e,2020-08-10_11h26.48.303,lexical_decision_task_MP,2020.1.3,Win32,60,m,1,0.6032,,,,,,,,0.6032,1,,,,,,235,WORD,UN,33,pirate,GRUMPY,m,,,,,,-0.868888889,0.175555556,0,0,0,,0,304,304,174,1,
,,,,,,,,,,,,,,,,,,5f2aeb9e0f60154413ed7f5e,2020-08-10_11h26.48.303,lexical_decision_task_MP,2020.1.3,Win32,60,m,1,0.56578,,,,,,,,0.56578,1,,,,,,119,WORD,"ID",33,spider,SPIDER,m,,,,,,-0.868888889,0.175555556,0,0,0,,0,305,305,58,1,
,,,,,,,,,,,,,,,,,,5f2aeb9e0f60154413ed7f5e,2020-08-10_11h26.48.303,lexical_decision_task_MP,2020.1.3,Win32,60,z,1,0.56423,,,,,,,,0.56423,1,,,,,,461,NW,UN,33,absult,JUSTRE,z,,,,,,-0.868888889,0.175555556,0,0,0,,0,306,306,400,1,
,,,,,,,,,,,,,,,,,,5f2aeb9e0f60154413ed7f5e,2020-08-10_11h26.48.303,lexical_decision_task_MP,2020.1.3,Win32,60,z,1,0.645345,,,,,,,,0.645345,1,,,,,,376,NW,"ID",50,iguare,IGUARE,z,,,,,,-0.868888889,0.175555556,0,0,0,,0,307,307,315,1,
,,,,,,,,,,,,,,,,,,5f2aeb9e0f60154413ed7f5e,2020-08-10_11h26.48.303,lexical_decision_task_MP,2020.1.3,Win32,60,z,1,0.66761,,,,,,,,0.66761,1,,,,,,250,NW,UN,50,lupict,MILTED,z,,,,,,-0.868888889,0.175555556,0,0,0,,0,308,308,429,1,
,,,,,,,,,,,,,,,,,,5f2aeb9e0f60154413ed7f5e,2020-08-10_11h26.48.303,lexical_decision_task_MP,2020.1.3,Win32,60,m,1,0.50687,,,,,,,,0.50687,1,,,,,,164,WORD,"ID",50,market,MARKET,m,,,,,,-0.868888889,0.175555556,0,0,0,,0,309,309,103,1,
,,,,,,,,,,,,,,,,,,5f2aeb9e0f60154413ed7f5e,2020-08-10_11h26.48.303,lexical_decision_task_MP,2020.1.3,Win32,60,m,1,0.679795,,,,,,,,0.679795,1,,,,,,184,WORD,UN,33,bother,SLEAZY,m,,,,,,-0.868888889,0.175555556,0,0,0,,0,310,310,123,1,
,,,,,,,,,,,,,,,,,,5f2aeb9e0f60154413ed7f5e,2020-08-10_11h26.48.303,lexical_decision_task_MP,2020.1.3,Win32,60,z,1,0.60147,,,,,,,,0.60147,1,,,,,,448,NW,UN,33,brunge,SADENT,z,,,,,,-0.868888889,0.175555556,0,0,0,,0,311,311,387,1,
,,,,,,,,,,,,,,,,,,5f2aeb9e0f60154413ed7f5e,2020-08-10_11h26.48.303,lexical_decision_task_MP,2020.1.3,Win32,60,z,1,0.6061,,,,,,,,0.6061,1,,,,,,427,NW,UN,33,tandly,SCHIND,z,,,,,,-0.868888889,0.175555556,0,0,0,,0,312,312,366,1,
,,,,,,,,,,,,,,,,,,5f2aeb9e0f60154413ed7f5e,2020-08-10_11h26.48.303,lexical_decision_task_MP,2020.1.3,Win32,60,z,1,0.554475,,,,,,,,0.554475,1,,,,,,474,NW,UN,33,acrise,HABLIN,z,,,,,,-0.868888889,0.175555556,0,0,0,,0,313,313,413,1,
,,,,,,,,,,,,,,,,,,5f2aeb9e0f60154413ed7f5e,2020-08-10_11h26.48.303,lexical_decision_task_MP,2020.1.3,Win32,60,m,1,0.63238,,,,,,,,0.63238,1,,,,,,188,WORD,UN,33,censor,SOCIAL,m,,,,,,-0.868888889,0.175555556,0,0,0,,0,314,314,127,1,
,,,,,,,,,,,,,,,,,,5f2aeb9e0f60154413ed7f5e,2020-08-10_11h26.48.303,lexical_decision_task_MP,2020.1.3,Win32,60,z,1,0.555185,,,,,,,,0.555185,1,,,,,,404,NW,"ID",50,cluirm,CLUIRM,z,,,,,,-0.868888889,0.175555556,0,0,0,,0,315,315,343,1,
,,,,,,,,,,,,,,,,,,5f2aeb9e0f60154413ed7f5e,2020-08-10_11h26.48.303,lexical_decision_task_MP,2020.1.3,Win32,60,m,1,0.675755,,,,,,,,0.675755,1,,,,,,7,WORD,UN,50,abrupt,ANCHOR,m,,,,,,-0.868888889,0.175555556,0,0,0,,0,316,316,186,1,
,,,,,,,,,,,,,,,,,,5f2aeb9e0f60154413ed7f5e,2020-08-10_11h26.48.303,lexical_decision_task_MP,2020.1.3,Win32,60,z,1,0.79514,,,,,,,,0.79514,1,,,,,,313,NW,"ID",33,paurse,PAURSE,z,,,,,,-0.868888889,0.175555556,0,0,0,,0,317,317,252,1,
,,,,,,,,,,,,,,,,,,5f2aeb9e0f60154413ed7f5e,2020-08-10_11h26.48.303,lexical_decision_task_MP,2020.1.3,Win32,60,m,1,0.508385,,,,,,,,0.508385,1,,,,,,72,WORD,"ID",33,bright,BRIGHT,m,,,,,,-0.868888889,0.175555556,0,0,0,,0,318,318,11,1,
,,,,,,,,,,,,,,,,,,5f2aeb9e0f60154413ed7f5e,2020-08-10_11h26.48.303,lexical_decision_task_MP,2020.1.3,Win32,60,m,1,0.68288,,,,,,,,0.68288,1,,,,,,5,WORD,UN,50,bundle,PLUNGE,m,,,,,,-0.868888889,0.175555556,0,0,0,,0,319,319,184,1,
,,,,,,,,,,,,,,,,,,5f2aeb9e0f60154413ed7f5e,2020-08-10_11h26.48.303,lexical_decision_task_MP,2020.1.3,Win32,60,z,1,0.5747,,,,,,,,0.5747,1,,,,,,435,NW,UN,33,frutan,IMPURB,z,,,,,,-0.868888889,0.175555556,0,0,0,,0,320,320,374,1,
,,,,,,,,,,,,,,,,,,5f2aeb9e0f60154413ed7f5e,2020-08-10_11h26.48.303,lexical_decision_task_MP,2020.1.3,Win32,60,z,1,0.872185,,,,,,,,0.872185,1,,,,,,244,NW,UN,50,anougs,EATRIC,z,,,,,,-0.868888889,0.175555556,0,0,0,,0,321,321,423,1,
,,,,,,,,,,,,,,,,,,5f2aeb9e0f60154413ed7f5e,2020-08-10_11h26.48.303,lexical_decision_task_MP,2020.1.3,Win32,60,z,1,0.77701,,,,,,,,0.77701,1,,,,,,389,NW,"ID",50,witmer,WITMER,z,,,,,,-0.868888889,0.175555556,0,0,0,,0,322,322,328,1,
,,,,,,,,,,,,,,,,,,5f2aeb9e0f60154413ed7f5e,2020-08-10_11h26.48.303,lexical_decision_task_MP,2020.1.3,Win32,60,z,1,0.450055,,,,,,,,0.450055,1,,,,,,307,NW,"ID",33,kirafe,KIRAFE,z,,,,,,-0.868888889,0.175555556,0,0,0,,0,323,323,246,1,
,,,,,,,,,,,,,,,,,,5f2aeb9e0f60154413ed7f5e,2020-08-10_11h26.48.303,lexical_decision_task_MP,2020.1.3,Win32,60,m,1,0.529935,,,,,,,,0.529935,1,,,,,,159,WORD,"ID",50,detail,DETAIL,m,,,,,,-0.868888889,0.175555556,0,0,0,,0,324,324,98,1,
,,,,,,,,,,,,,,,,,,5f2aeb9e0f60154413ed7f5e,2020-08-10_11h26.48.303,lexical_decision_task_MP,2020.1.3,Win32,60,z,1,0.72493,,,,,,,,0.72493,1,,,,,,438,NW,UN,33,limpor,BAITCH,z,,,,,,-0.868888889,0.175555556,0,0,0,,0,325,325,377,1,
,,,,,,,,,,,,,,,,,,5f2aeb9e0f60154413ed7f5e,2020-08-10_11h26.48.303,lexical_decision_task_MP,2020.1.3,Win32,60,m,1,0.53499,,,,,,,,0.53499,1,,,,,,47,WORD,UN,50,walnut,INCOME,m,,,,,,-0.868888889,0.175555556,0,0,0,,0,326,326,226,1,
,,,,,,,,,,,,,,,,,,5f2aeb9e0f60154413ed7f5e,2020-08-10_11h26.48.303,lexical_decision_task_MP,2020.1.3,Win32,60,m,1,0.551305,,,,,,,,0.551305,1,,,,,,217,WORD,UN,33,shrink,LIQUOR,m,,,,,,-0.868888889,0.175555556,0,0,0,,0,327,327,156,1,
,,,,,,,,,,,,,,,,,,5f2aeb9e0f60154413ed7f5e,2020-08-10_11h26.48.303,lexical_decision_task_MP,2020.1.3,Win32,60,z,1,0.557795,,,,,,,,0.557795,1,,,,,,388,NW,"ID",50,cragin,CRAGIN,z,,,,,,-0.868888889,0.175555556,0,0,0,,0,328,328,327,1,
,,,,,,,,,,,,,,,,,,5f2aeb9e0f60154413ed7f5e,2020-08-10_11h26.48.303,lexical_decision_task_MP,2020.1.3,Win32,60,m,1,0.526115,,,,,,,,0.526115,1,,,,,,232,WORD,UN,33,nature,INJECT,m,,,,,,-0.868888889,0.175555556,0,0,0,,0,329,329,171,1,
,,,,,,,,,,,,,,,,,,5f2aeb9e0f60154413ed7f5e,2020-08-10_11h26.48.303,lexical_decision_task_MP,2020.1.3,Win32,60,m,1,0.572915,,,,,,,,0.572915,1,,,,,,223,WORD,UN,33,period,KIDNEY,m,,,,,,-0.868888889,0.175555556,0,0,0,,0,330,330,162,1,
,,,,,,,,,,,,,,,,,,5f2aeb9e0f60154413ed7f5e,2020-08-10_11h26.48.303,lexical_decision_task_MP,2020.1.3,Win32,60,z,1,0.57243,,,,,,,,0.57243,1,,,,,,356,NW,"ID",33,othnis,OTHNIS,z,,,,,,-0.868888889,0.175555556,0,0,0,,0,331,331,295,1,
,,,,,,,,,,,,,,,,,,5f2aeb9e0f60154413ed7f5e,2020-08-10_11h26.48.303,lexical_decision_task_MP,2020.1.3,Win32,60,z,1,0.54768,,,,,,,,0.54768,1,,,,,,300,NW,UN,50,smenco,YARION,z,,,,,,-0.868888889,0.175555556,0,0,0,,0,332,332,479,1,
,,,,,,,,,,,,,,,,,,5f2aeb9e0f60154413ed7f5e,2020-08-10_11h26.48.303,lexical_decision_task_MP,2020.1.3,Win32,60,z,1,0.486445,,,,,,,,0.486445,1,,,,,,446,NW,UN,33,gircue,RUNAMO,z,,,,,,-0.868888889,0.175555556,0,0,0,,0,333,333,385,1,
,,,,,,,,,,,,,,,,,,5f2aeb9e0f60154413ed7f5e,2020-08-10_11h26.48.303,lexical_decision_task_MP,2020.1.3,Win32,60,m,1,0.49861,,,,,,,,0.49861,1,,,,,,35,WORD,UN,50,vanish,SOCKET,m,,,,,,-0.868888889,0.175555556,0,0,0,,0,334,334,214,1,
,,,,,,,,,,,,,,,,,,5f2aeb9e0f60154413ed7f5e,2020-08-10_11h26.48.303,lexical_decision_task_MP,2020.1.3,Win32,60,m,1,0.423055,,,,,,,,0.423055,1,,,,,,169,WORD,"ID",50,genius,GENIUS,m,,,,,,-0.868888889,0.175555556,0,0,0,,0,335,335,108,1,
,,,,,,,,,,,,,,,,,,5f2aeb9e0f60154413ed7f5e,2020-08-10_11h26.48.303,lexical_decision_task_MP,2020.1.3,Win32,60,z,1,0.526385,,,,,,,,0.526385,1,,,,,,411,NW,"ID",50,orchin,ORCHIN,z,,,,,,-0.868888889,0.175555556,0,0,0,,0,336,336,350,1,
,,,,,,,,,,,,,,,,,,5f2aeb9e0f60154413ed7f5e,2020-08-10_11h26.48.303,lexical_decision_task_MP,2020.1.3,Win32,60,m,1,0.658635,,,,,,,,0.658635,1,,,,,,142,WORD,"ID",50,spruce,SPRUCE,m,,,,,,-0.868888889,0.175555556,0,0,0,,0,337,337,81,1,
,,,,,,,,,,,,,,,,,,5f2aeb9e0f60154413ed7f5e,2020-08-10_11h26.48.303,lexical_decision_task_MP,2020.1.3,Win32,60,m,1,0.81709,,,,,,,,0.81709,1,,,,,,206,WORD,UN,33,wreath,TAILOR,m,,,,,,-0.868888889,0.175555556,0,0,0,,0,338,338,145,1,
,,,,,,,,,,,,,,,,,,5f2aeb9e0f60154413ed7f5e,2020-08-10_11h26.48.303,lexical_decision_task_MP,2020.1.3,Win32,60,z,1,1.050295,,,,,,,,1.050295,1,,,,,,476,NW,UN,33,photie,JOSTED,z,,,,,,-0.868888889,0.175555556,0,0,0,,0,339,339,415,1,
,,,,,,,,,,,,,,,,,,5f2aeb9e0f60154413ed7f5e,2020-08-10_11h26.48.303,lexical_decision_task_MP,2020.1.3,Win32,60,m,1,0.632725,,,,,,,,0.632725,1,,,,,,196,WORD,UN,33,stream,CREDIT,m,,,,,,-0.868888889,0.175555556,0,0,0,,0,340,340,135,1,
,,,,,,,,,,,,,,,,,,5f2aeb9e0f60154413ed7f5e,2020-08-10_11h26.48.303,lexical_decision_task_MP,2020.1.3,Win32,60,m,1,0.67989,,,,,,,,0.67989,1,,,,,,135,WORD,"ID",50,import,IMPORT,m,,,,,,-0.868888889,0.175555556,0,0,0,,0,341,341,74,1,
,,,,,,,,,,,,,,,,,,5f2aeb9e0f60154413ed7f5e,2020-08-10_11h26.48.303,lexical_decision_task_MP,2020.1.3,Win32,60,z,1,0.68623,,,,,,,,0.68623,1,,,,,,333,NW,"ID",33,catrie,CATRIE,z,,,,,,-0.868888889,0.175555556,0,0,0,,0,342,342,272,1,
,,,,,,,,,,,,,,,,,,5f2aeb9e0f60154413ed7f5e,2020-08-10_11h26.48.303,lexical_decision_task_MP,2020.1.3,Win32,60,m,1,0.54593,,,,,,,,0.54593,1,,,,,,177,WORD,"ID",50,advent,ADVENT,m,,,,,,-0.868888889,0.175555556,0,0,0,,0,343,343,116,1,
,,,,,,,,,,,,,,,,,,5f2aeb9e0f60154413ed7f5e,2020-08-10_11h26.48.303,lexical_decision_task_MP,2020.1.3,Win32,60,z,1,0.612675,,,,,,,,0.612675,1,,,,,,281,NW,UN,50,porlex,MELATY,z,,,,,,-0.868888889,0.175555556,0,0,0,,0,344,344,460,1,
,,,,,,,,,,,,,,,,,,5f2aeb9e0f60154413ed7f5e,2020-08-10_11h26.48.303,lexical_decision_task_MP,2020.1.3,Win32,60,m,1,0.661455,,,,,,,,0.661455,1,,,,,,24,WORD,UN,50,domain,PRAISE,m,,,,,,-0.868888889,0.175555556,0,0,0,,0,345,345,203,1,
,,,,,,,,,,,,,,,,,,5f2aeb9e0f60154413ed7f5e,2020-08-10_11h26.48.303,lexical_decision_task_MP,2020.1.3,Win32,60,z,1,0.58242,,,,,,,,0.58242,1,,,,,,380,NW,"ID",50,cavory,CAVORY,z,,,,,,-0.868888889,0.175555556,0,0,0,,0,346,346,319,1,
,,,,,,,,,,,,,,,,,,5f2aeb9e0f60154413ed7f5e,2020-08-10_11h26.48.303,lexical_decision_task_MP,2020.1.3,Win32,60,z,1,0.58817,,,,,,,,0.58817,1,,,,,,384,NW,"ID",50,guesco,GUESCO,z,,,,,,-0.868888889,0.175555556,0,0,0,,0,347,347,323,1,
,,,,,,,,,,,,,,,,,,5f2aeb9e0f60154413ed7f5e,2020-08-10_11h26.48.303,lexical_decision_task_MP,2020.1.3,Win32,60,z,1,1.46267,,,,,,,,1.46267,1,,,,,,357,NW,"ID",33,derain,DERAIN,z,,,,,,-0.868888889,0.175555556,0,0,0,,0,348,348,296,1,
,,,,,,,,,,,,,,,,,,5f2aeb9e0f60154413ed7f5e,2020-08-10_11h26.48.303,lexical_decision_task_MP,2020.1.3,Win32,60,m,1,0.869615,,,,,,,,0.869615,1,,,,,,113,WORD,"ID",33,chorus,CHORUS,m,,,,,,-0.868888889,0.175555556,0,0,0,,0,349,349,52,1,
,,,,,,,,,,,,,,,,,,5f2aeb9e0f60154413ed7f5e,2020-08-10_11h26.48.303,lexical_decision_task_MP,2020.1.3,Win32,60,m,1,0.627465,,,,,,,,0.627465,1,,,,,,2,WORD,UN,50,knight,BRIDGE,m,,,,,,-0.868888889,0.175555556,0,0,0,,0,350,350,181,1,
,,,,,,,,,,,,,,,,,,5f2aeb9e0f60154413ed7f5e,2020-08-10_11h26.48.303,lexical_decision_task_MP,2020.1.3,Win32,60,z,1,0.516435,,,,,,,,0.516435,1,,,,,,460,NW,UN,33,justre,MINGAR,z,,,,,,-0.868888889,0.175555556,0,0,0,,0,351,351,399,1,
,,,,,,,,,,,,,,,,,,5f2aeb9e0f60154413ed7f5e,2020-08-10_11h26.48.303,lexical_decision_task_MP,2020.1.3,Win32,60,z,1,0.852105,,,,,,,,0.852105,1,,,,,,402,NW,"ID",50,syntic,SYNTIC,z,,,,,,-0.868888889,0.175555556,0,0,0,,0,352,352,341,1,
,,,,,,,,,,,,,,,,,,5f2aeb9e0f60154413ed7f5e,2020-08-10_11h26.48.303,lexical_decision_task_MP,2020.1.3,Win32,60,m,1,0.50124,,,,,,,,0.50124,1,,,,,,228,WORD,UN,33,kidney,MASTER,m,,,,,,-0.868888889,0.175555556,0,0,0,,0,353,353,167,1,
,,,,,,,,,,,,,,,,,,5f2aeb9e0f60154413ed7f5e,2020-08-10_11h26.48.303,lexical_decision_task_MP,2020.1.3,Win32,60,m,1,0.517935,,,,,,,,0.517935,1,,,,,,186,WORD,UN,33,course,PORTAL,m,,,,,,-0.868888889,0.175555556,0,0,0,,0,354,354,125,1,
,,,,,,,,,,,,,,,,,,5f2aeb9e0f60154413ed7f5e,2020-08-10_11h26.48.303,lexical_decision_task_MP,2020.1.3,Win32,60,z,1,0.63422,,,,,,,,0.63422,1,,,,,,338,NW,"ID",33,wreash,WREASH,z,,,,,,-0.868888889,0.175555556,0,0,0,,0,355,355,277,1,
,,,,,,,,,,,,,,,,,,5f2aeb9e0f60154413ed7f5e,2020-08-10_11h26.48.303,lexical_decision_task_MP,2020.1.3,Win32,60,z,1,0.58445,,,,,,,,0.58445,1,,,,,,361,NW,"ID",50,pauche,PAUCHE,z,,,,,,-0.868888889,0.175555556,0,0,0,,0,356,356,300,1,
,,,,,,,,,,,,,,,,,,5f2aeb9e0f60154413ed7f5e,2020-08-10_11h26.48.303,lexical_decision_task_MP,2020.1.3,Win32,60,z,1,0.667665,,,,,,,,0.667665,1,,,,,,408,NW,"ID",50,hurnia,HURNIA,z,,,,,,-0.868888889,0.175555556,0,0,0,,0,357,357,347,1,
,,,,,,,,,,,,,,,,,,5f2aeb9e0f60154413ed7f5e,2020-08-10_11h26.48.303,lexical_decision_task_MP,2020.1.3,Win32,60,z,1,0.58539,,,,,,,,0.58539,1,,,,,,396,NW,"ID",50,flengy,FLENGY,z,,,,,,-0.868888889,0.175555556,0,0,0,,0,358,358,335,1,
,,,,,,,,,,,,,,,,,,5f2aeb9e0f60154413ed7f5e,2020-08-10_11h26.48.303,lexical_decision_task_MP,2020.1.3,Win32,60,m,1,0.564655,,,,,,,,0.564655,1,,,,,,207,WORD,UN,33,hockey,WREATH,m,,,,,,-0.868888889,0.175555556,0,0,0,,0,359,359,146,1,
,,,,,,,,,,,,,,,,,,5f2aeb9e0f60154413ed7f5e,2020-08-10_11h26.48.303,lexical_decision_task_MP,2020.1.3,Win32,60,z,1,0.543545,,,,,,,,0.543545,1,,,,,,329,NW,"ID",33,yarike,YARIKE,z,,,,,,-0.868888889,0.175555556,0,0,0,,0,360,360,268,1,
,,,,,,,,,,,,,,,,,,5f2aeb9e0f60154413ed7f5e,2020-08-10_11h26.48.303,lexical_decision_task_MP,2020.1.3,Win32,60,z,1,0.52323,,,,,,,,0.52323,1,,,,,,393,NW,"ID",50,ganous,GANOUS,z,,,,,,-0.868888889,0.175555556,0,0,0,,0,361,361,332,1,
,,,,,,,,,,,,,,,,,,5f2aeb9e0f60154413ed7f5e,2020-08-10_11h26.48.303,lexical_decision_task_MP,2020.1.3,Win32,60,m,1,0.510695,,,,,,,,0.510695,1,,,,,,121,WORD,"ID",50,thrive,THRIVE,m,,,,,,-0.868888889,0.175555556,0,0,0,space,0,362,362,60,1,13.09797
,,,,,,,,,,,,,,,,,,5f2aeb9e0f60154413ed7f5e,2020-08-10_11h26.48.303,lexical_decision_task_MP,2020.1.3,Win32,60,z,1,1.168245,,,,,,,,1.168245,1,,,,,,242,NW,UN,50,musied,UNWERT,z,,,,,,-0.868888889,0.175555556,0,0,0,,0,363,363,421,1,
,,,,,,,,,,,,,,,,,,5f2aeb9e0f60154413ed7f5e,2020-08-10_11h26.48.303,lexical_decision_task_MP,2020.1.3,Win32,60,m,0,0.94106,,,,,,,,0.94106,0,,,,,,340,NW,"ID",33,fiatch,FIATCH,z,,,,,,-0.868888889,0.175555556,0,0,0,,0,364,364,279,1,
,,,,,,,,,,,,,,,,,,5f2aeb9e0f60154413ed7f5e,2020-08-10_11h26.48.303,lexical_decision_task_MP,2020.1.3,Win32,60,m,1,0.599855,,,,,,,,0.599855,1,,,,,,32,WORD,UN,50,scream,BUCKLE,m,,,,,,-0.868888889,0.175555556,0,0,0,,0,365,365,211,1,
,,,,,,,,,,,,,,,,,,5f2aeb9e0f60154413ed7f5e,2020-08-10_11h26.48.303,lexical_decision_task_MP,2020.1.3,Win32,60,z,0,0.480285,,,,,,,,0.480285,0,,,,,,28,WORD,UN,50,sketch,COMEDY,m,,,,,,-0.868888889,0.175555556,0,0,0,,0,366,366,207,1,
,,,,,,,,,,,,,,,,,,5f2aeb9e0f60154413ed7f5e,2020-08-10_11h26.48.303,lexical_decision_task_MP,2020.1.3,Win32,60,z,1,1.76576,,,,,,,,1.76576,1,,,,,,248,NW,UN,50,batrol,STROLE,z,,,,,,-0.868888889,0.175555556,0,0,0,,0,367,367,427,1,
,,,,,,,,,,,,,,,,,,5f2aeb9e0f60154413ed7f5e,2020-08-10_11h26.48.303,lexical_decision_task_MP,2020.1.3,Win32,60,z,1,0.670565,,,,,,,,0.670565,1,,,,,,290,NW,UN,50,pretch,SPLINO,z,,,,,,-0.868888889,0.175555556,0,0,0,,0,368,368,469,1,
,,,,,,,,,,,,,,,,,,5f2aeb9e0f60154413ed7f5e,2020-08-10_11h26.48.303,lexical_decision_task_MP,2020.1.3,Win32,60,m,1,0.701705,,,,,,,,0.701705,1,,,,,,214,WORD,UN,33,phobia,INTAKE,m,,,,,,-0.868888889,0.175555556,0,0,0,,0,369,369,153,1,
,,,,,,,,,,,,,,,,,,5f2aeb9e0f60154413ed7f5e,2020-08-10_11h26.48.303,lexical_decision_task_MP,2020.1.3,Win32,60,m,1,0.45797,,,,,,,,0.45797,1,,,,,,143,WORD,"ID",50,reason,REASON,m,,,,,,-0.868888889,0.175555556,0,0,0,,0,370,370,82,1,
,,,,,,,,,,,,,,,,,,5f2aeb9e0f60154413ed7f5e,2020-08-10_11h26.48.303,lexical_decision_task_MP,2020.1.3,Win32,60,m,1,0.599775,,,,,,,,0.599775,1,,,,,,165,WORD,"ID",50,invest,INVEST,m,,,,,,-0.88,0.214444444,0,0,0,,0,371,371,104,1,
,,,,,,,,,,,,,,,,,,5f2aeb9e0f60154413ed7f5e,2020-08-10_11h26.48.303,lexical_decision_task_MP,2020.1.3,Win32,60,z,1,1.032555,,,,,,,,1.032555,1,,,,,,335,NW,"ID",33,desion,DESION,z,,,,,,-0.88,0.214444444,0,0,0,,0,372,372,274,1,
,,,,,,,,,,,,,,,,,,5f2aeb9e0f60154413ed7f5e,2020-08-10_11h26.48.303,lexical_decision_task_MP,2020.1.3,Win32,60,m,1,0.78303,,,,,,,,0.78303,1,,,,,,58,WORD,UN,50,splint,FOSTER,m,,,,,,-0.88,0.214444444,0,0,0,,0,373,373,237,1,
,,,,,,,,,,,,,,,,,,5f2aeb9e0f60154413ed7f5e,2020-08-10_11h26.48.303,lexical_decision_task_MP,2020.1.3,Win32,60,m,1,0.48163,,,,,,,,0.48163,1,,,,,,192,WORD,UN,33,object,PLAGUE,m,,,,,,-0.88,0.214444444,0,0,0,,0,374,374,131,1,
,,,,,,,,,,,,,,,,,,5f2aeb9e0f60154413ed7f5e,2020-08-10_11h26.48.303,lexical_decision_task_MP,2020.1.3,Win32,60,z,1,0.645445,,,,,,,,0.645445,1,,,,,,455,NW,UN,33,broget,TONDLE,z,,,,,,-0.88,0.214444444,0,0,0,,0,375,375,394,1,
,,,,,,,,,,,,,,,,,,5f2aeb9e0f60154413ed7f5e,2020-08-10_11h26.48.303,lexical_decision_task_MP,2020.1.3,Win32,60,z,1,0.667725,,,,,,,,0.667725,1,,,,,,478,NW,UN,33,pebric,ACRISE,z,,,,,,-0.88,0.214444444,0,0,0,,0,376,376,417,1,
,,,,,,,,,,,,,,,,,,5f2aeb9e0f60154413ed7f5e,2020-08-10_11h26.48.303,lexical_decision_task_MP,2020.1.3,Win32,60,z,1,0.567915,,,,,,,,0.567915,1,,,,,,445,NW,UN,33,runamo,MINKEL,z,,,,,,-0.88,0.214444444,0,0,0,,0,377,377,384,1,
,,,,,,,,,,,,,,,,,,5f2aeb9e0f60154413ed7f5e,2020-08-10_11h26.48.303,lexical_decision_task_MP,2020.1.3,Win32,60,m,1,0.59057,,,,,,,,0.59057,1,,,,,,21,WORD,UN,50,jockey,SIMPLE,m,,,,,,-0.88,0.214444444,0,0,0,,0,378,378,200,1,
,,,,,,,,,,,,,,,,,,5f2aeb9e0f60154413ed7f5e,2020-08-10_11h26.48.303,lexical_decision_task_MP,2020.1.3,Win32,60,z,1,0.69526,,,,,,,,0.69526,1,,,,,,267,NW,UN,50,packes,PASINK,z,,,,,,-0.88,0.214444444,0,0,0,,0,379,379,446,1,
,,,,,,,,,,,,,,,,,,5f2aeb9e0f60154413ed7f5e,2020-08-10_11h26.48.303,lexical_decision_task_MP,2020.1.3,Win32,60,z,1,0.6089,,,,,,,,0.6089,1,,,,,,288,NW,UN,50,starby,YACEUP,z,,,,,,-0.88,0.214444444,0,0,0,,0,380,380,467,1,
,,,,,,,,,,,,,,,,,,5f2aeb9e0f60154413ed7f5e,2020-08-10_11h26.48.303,lexical_decision_task_MP,2020.1.3,Win32,60,m,1,0.564515,,,,,,,,0.564515,1,,,,,,215,WORD,UN,33,lumber,PHOBIA,m,,,,,,-0.88,0.214444444,0,0,0,,0,381,381,154,1,
,,,,,,,,,,,,,,,,,,5f2aeb9e0f60154413ed7f5e,2020-08-10_11h26.48.303,lexical_decision_task_MP,2020.1.3,Win32,60,m,1,0.68578,,,,,,,,0.68578,1,,,,,,70,WORD,"ID",33,square,SQUARE,m,,,,,,-0.88,0.214444444,0,0,0,,0,382,382,9,1,
,,,,,,,,,,,,,,,,,,5f2aeb9e0f60154413ed7f5e,2020-08-10_11h26.48.303,lexical_decision_task_MP,2020.1.3,Win32,60,m,1,0.57788,,,,,,,,0.57788,1,,,,,,26,WORD,UN,50,butler,SPRINT,m,,,,,,-0.88,0.214444444,0,0,0,,0,383,383,205,1,
,,,,,,,,,,,,,,,,,,5f2aeb9e0f60154413ed7f5e,2020-08-10_11h26.48.303,lexical_decision_task_MP,2020.1.3,Win32,60,z,1,0.57927,,,,,,,,0.57927,1,,,,,,353,NW,"ID",33,clurey,CLUREY,z,,,,,,-0.88,0.214444444,0,0,0,,0,384,384,292,1,
,,,,,,,,,,,,,,,,,,5f2aeb9e0f60154413ed7f5e,2020-08-10_11h26.48.303,lexical_decision_task_MP,2020.1.3,Win32,60,z,1,0.521045,,,,,,,,0.521045,1,,,,,,383,NW,"ID",50,aungre,AUNGRE,z,,,,,,-0.88,0.214444444,0,0,0,,0,385,385,322,1,
,,,,,,,,,,,,,,,,,,5f2aeb9e0f60154413ed7f5e,2020-08-10_11h26.48.303,lexical_decision_task_MP,2020.1.3,Win32,60,m,1,0.626685,,,,,,,,0.626685,1,,,,,,89,WORD,"ID",33,permit,PERMIT,m,,,,,,-0.88,0.214444444,0,0,0,,0,386,386,28,1,
,,,,,,,,,,,,,,,,,,5f2aeb9e0f60154413ed7f5e,2020-08-10_11h26.48.303,lexical_decision_task_MP,2020.1.3,Win32,60,z,1,0.634745,,,,,,,,0.634745,1,,,,,,285,NW,UN,50,reldon,PRUDGE,z,,,,,,-0.88,0.214444444,0,0,0,,0,387,387,464,1,
,,,,,,,,,,,,,,,,,,5f2aeb9e0f60154413ed7f5e,2020-08-10_11h26.48.303,lexical_decision_task_MP,2020.1.3,Win32,60,m,1,0.618105,,,,,,,,0.618105,1,,,,,,225,WORD,UN,33,casino,VULGAR,m,,,,,,-0.88,0.214444444,0,0,0,,0,388,388,164,1,
,,,,,,,,,,,,,,,,,,5f2aeb9e0f60154413ed7f5e,2020-08-10_11h26.48.303,lexical_decision_task_MP,2020.1.3,Win32,60,m,1,0.633995,,,,,,,,0.633995,1,,,,,,65,WORD,"ID",33,symbol,SYMBOL,m,,,,,,-0.88,0.214444444,0,0,0,,0,389,389,4,1,
,,,,,,,,,,,,,,,,,,5f2aeb9e0f60154413ed7f5e,2020-08-10_11h26.48.303,lexical_decision_task_MP,2020.1.3,Win32,60,z,1,0.61728,,,,,,,,0.61728,1,,,,,,472,NW,UN,33,gorbie,CIGNEY,z,,,,,,-0.88,0.214444444,0,0,0,,0,390,390,411,1,
,,,,,,,,,,,,,,,,,,5f2aeb9e0f60154413ed7f5e,2020-08-10_11h26.48.303,lexical_decision_task_MP,2020.1.3,Win32,60,m,1,0.592275,,,,,,,,0.592275,1,,,,,,37,WORD,UN,50,powder,INSULT,m,,,,,,-0.88,0.214444444,0,0,0,,0,391,391,216,1,
,,,,,,,,,,,,,,,,,,5f2aeb9e0f60154413ed7f5e,2020-08-10_11h26.48.303,lexical_decision_task_MP,2020.1.3,Win32,60,m,1,0.529715,,,,,,,,0.529715,1,,,,,,3,WORD,UN,50,trench,KNIGHT,m,,,,,,-0.88,0.214444444,0,0,0,,0,392,392,182,1,
,,,,,,,,,,,,,,,,,,5f2aeb9e0f60154413ed7f5e,2020-08-10_11h26.48.303,lexical_decision_task_MP,2020.1.3,Win32,60,z,1,0.58235,,,,,,,,0.58235,1,,,,,,443,NW,UN,33,jaunce,DORSEX,z,,,,,,-0.88,0.214444444,0,0,0,,0,393,393,382,1,
,,,,,,,,,,,,,,,,,,5f2aeb9e0f60154413ed7f5e,2020-08-10_11h26.48.303,lexical_decision_task_MP,2020.1.3,Win32,60,z,1,0.71089,,,,,,,,0.71089,1,,,,,,477,NW,UN,33,lobush,PHOTIE,z,,,,,,-0.88,0.214444444,0,0,0,,0,394,394,416,1,
,,,,,,,,,,,,,,,,,,5f2aeb9e0f60154413ed7f5e,2020-08-10_11h26.48.303,lexical_decision_task_MP,2020.1.3,Win32,60,z,1,0.60018,,,,,,,,0.60018,1,,,,,,310,NW,"ID",33,daniet,DANIET,z,,,,,,-0.88,0.214444444,0,0,0,,0,395,395,249,1,
,,,,,,,,,,,,,,,,,,5f2aeb9e0f60154413ed7f5e,2020-08-10_11h26.48.303,lexical_decision_task_MP,2020.1.3,Win32,60,m,1,0.62992,,,,,,,,0.62992,1,,,,,,118,WORD,"ID",33,flight,FLIGHT,m,,,,,,-0.88,0.214444444,0,0,0,,0,396,396,57,1,
,,,,,,,,,,,,,,,,,,5f2aeb9e0f60154413ed7f5e,2020-08-10_11h26.48.303,lexical_decision_task_MP,2020.1.3,Win32,60,z,1,1.100705,,,,,,,,1.100705,1,,,,,,440,NW,UN,33,rastoe,SARIDE,z,,,,,,-0.88,0.214444444,0,0,0,,0,397,397,379,1,
,,,,,,,,,,,,,,,,,,5f2aeb9e0f60154413ed7f5e,2020-08-10_11h26.48.303,lexical_decision_task_MP,2020.1.3,Win32,60,m,1,1.0094,,,,,,,,1.0094,1,,,,,,39,WORD,UN,50,convey,INSECT,m,,,,,,-0.88,0.214444444,0,0,0,,0,398,398,218,1,
,,,,,,,,,,,,,,,,,,5f2aeb9e0f60154413ed7f5e,2020-08-10_11h26.48.303,lexical_decision_task_MP,2020.1.3,Win32,60,z,1,0.71707,,,,,,,,0.71707,1,,,,,,385,NW,"ID",50,veigma,VEIGMA,z,,,,,,-0.88,0.214444444,0,0,0,,0,399,399,324,1,
,,,,,,,,,,,,,,,,,,5f2aeb9e0f60154413ed7f5e,2020-08-10_11h26.48.303,lexical_decision_task_MP,2020.1.3,Win32,60,z,1,0.67322,,,,,,,,0.67322,1,,,,,,371,NW,"ID",50,geiloy,GEILOY,z,,,,,,-0.88,0.214444444,0,0,0,,0,400,400,310,1,
,,,,,,,,,,,,,,,,,,5f2aeb9e0f60154413ed7f5e,2020-08-10_11h26.48.303,lexical_decision_task_MP,2020.1.3,Win32,60,z,1,0.8874,,,,,,,,0.8874,1,,,,,,421,NW,UN,33,alcoud,KNISMA,z,,,,,,-0.88,0.214444444,0,0,0,,0,401,401,360,1,
,,,,,,,,,,,,,,,,,,5f2aeb9e0f60154413ed7f5e,2020-08-10_11h26.48.303,lexical_decision_task_MP,2020.1.3,Win32,60,m,1,0.77493,,,,,,,,0.77493,1,,,,,,95,WORD,"ID",33,thread,THREAD,m,,,,,,-0.88,0.214444444,0,0,0,,0,402,402,34,1,
,,,,,,,,,,,,,,,,,,5f2aeb9e0f60154413ed7f5e,2020-08-10_11h26.48.303,lexical_decision_task_MP,2020.1.3,Win32,60,m,1,0.971035,,,,,,,,0.971035,1,,,,,,230,WORD,UN,33,mother,FRINGE,m,,,,,,-0.88,0.214444444,0,0,0,,0,403,403,169,1,
,,,,,,,,,,,,,,,,,,5f2aeb9e0f60154413ed7f5e,2020-08-10_11h26.48.303,lexical_decision_task_MP,2020.1.3,Win32,60,m,1,0.989065,,,,,,,,0.989065,1,,,,,,116,WORD,"ID",33,tumble,TUMBLE,m,,,,,,-0.88,0.214444444,0,0,0,,0,404,404,55,1,
,,,,,,,,,,,,,,,,,,5f2aeb9e0f60154413ed7f5e,2020-08-10_11h26.48.303,lexical_decision_task_MP,2020.1.3,Win32,60,m,1,0.54818,,,,,,,,0.54818,1,,,,,,93,WORD,"ID",33,public,PUBLIC,m,,,,,,-0.88,0.214444444,0,0,0,,0,405,405,32,1,
