counterbalancing_condition,instr_done_keyboard.keys,instr_done_touch.x,instr_done_touch.y,instr_done_touch.leftButton,instr_done_touch.midButton,instr_done_touch.rightButton,instr_done_touch.clicked_name,instruction_pages.thisRepN,instruction_pages.thisTrialN,instruction_pages.thisN,instruction_pages.thisIndex,instruction_pages.ran,pageN,phase,instruct_text,has_image,instruct_image,participant,date,expName,psychopyVersion,OS,frameRate,instr_done_keyboard.rt,response.keys,response.corr,response.rt,touch_resp.x,touch_resp.y,touch_resp.leftButton,touch_resp.midButton,touch_resp.rightButton,touch_resp.time,touch_resp.clicked_name,rt,corr,practice_trials.thisRepN,practice_trials.thisTrialN,practice_trials.thisN,practice_trials.thisIndex,practice_trials.ran,TrialID,StimulusType,Condition,PrimeDuration,Prime,Target,corrAns,end_of_practice_trials_pages.thisRepN,end_of_practice_trials_pages.thisTrialN,end_of_practice_trials_pages.thisN,end_of_practice_trials_pages.thisIndex,end_of_practice_trials_pages.ran,break_done_touch.x,break_done_touch.y,break_done_touch.leftButton,break_done_touch.midButton,break_done_touch.rightButton,break_done_keyboard.keys,trials.thisRepN,trials.thisTrialN,trials.thisN,trials.thisIndex,trials.ran,break_done_keyboard.rt,break_done_touch.clicked_name
0,,0.053975694,-0.389127604,1,0,0,instr_done_button,0,0,0,0,1,1,instructions,"INSTRUCTIONS
At the start of each trial, look at the hash marks (######) in the center of the screen. After a moment, a string of letters will appear. Your task is to indicate if the letter string forms a word or not (i.e., if it is a nonword). For example, AUTHOR is a word while AUTHON is a nonword.

Press the space bar or touch the button below to continue.",0,,5f2bcbf1eb53d868eed230c8,2020-08-08_10h27.59.886,lexical_decision_task_MP,2020.1.3,MacIntel,60,,,,,,,,,,,,,,,,,,,,,,,,,,,,,,,,,,,,,,,,,,,
,space,0.06468316,-0.402673611,0,0,0,,0,1,1,1,1,2,instructions,"If your device has a keyboard, press the 'Z' key for nonwords and the 'M' key for words.





Press the space bar or touch the button below to continue.",1,keyboard-example.gif,5f2bcbf1eb53d868eed230c8,2020-08-08_10h27.59.886,lexical_decision_task_MP,2020.1.3,MacIntel,60,11.07808,,,,,,,,,,,,,,,,,,,,,,,,,,,,,,,,,,,,,,,,,,
,space,0.06468316,-0.402673611,0,0,0,,0,2,2,2,1,3,instructions,"If you are using a touchscreen only device, use the buttons on the screen. Do not use the mouse.





Press the space bar or touch the button below to continue.",1,touchscreen-example.gif,5f2bcbf1eb53d868eed230c8,2020-08-08_10h27.59.886,lexical_decision_task_MP,2020.1.3,MacIntel,60,4.058665,,,,,,,,,,,,,,,,,,,,,,,,,,,,,,,,,,,,,,,,,,
,space,0.06468316,-0.402673611,0,0,0,,0,3,3,3,1,4,instructions,"It is very important that you respond as quickly and accurately as possible, as each letter string will only be on the screen for two seconds. If you do not respond within this time, the message 'Too slow!' will be displayed and the experiment will progress to the next letter string. The first 20 trials will be practice trials and you will receive feedback on your answers. 

Press the space bar or touch the button below to start the practice trials.",0,,5f2bcbf1eb53d868eed230c8,2020-08-08_10h27.59.886,lexical_decision_task_MP,2020.1.3,MacIntel,60,7.480165,,,,,,,,,,,,,,,,,,,,,,,,,,,,,,,,,,,,,,,,,,
,,,,,,,,,,,,,,,,,,5f2bcbf1eb53d868eed230c8,2020-08-08_10h27.59.886,lexical_decision_task_MP,2020.1.3,MacIntel,60,,z,1,1.259575,,,,,,,,1.259575,1,0,0,0,12,1,1013,NW,UN,33,adveil,SPRINY,z,,,,,,,,,,,,,,,,,,
,,,,,,,,,,,,,,,,,,5f2bcbf1eb53d868eed230c8,2020-08-08_10h27.59.886,lexical_decision_task_MP,2020.1.3,MacIntel,60,,m,1,0.86737,,,,,,,,0.86737,1,0,1,1,6,1,1007,WORD,UN,50,tropic,ZOMBIE,m,,,,,,,,,,,,,,,,,,
,,,,,,,,,,,,,,,,,,5f2bcbf1eb53d868eed230c8,2020-08-08_10h27.59.886,lexical_decision_task_MP,2020.1.3,MacIntel,60,,z,1,1.04884,,,,,,,,1.04884,1,0,2,2,11,1,1012,NW,"ID",50,rashet,RASHET,z,,,,,,,,,,,,,,,,,,
,,,,,,,,,,,,,,,,,,5f2bcbf1eb53d868eed230c8,2020-08-08_10h27.59.886,lexical_decision_task_MP,2020.1.3,MacIntel,60,,z,1,0.734015,,,,,,,,0.734015,1,0,3,3,9,1,1010,NW,"ID",33,fariny,FARINY,z,,,,,,,,,,,,,,,,,,
,,,,,,,,,,,,,,,,,,5f2bcbf1eb53d868eed230c8,2020-08-08_10h27.59.886,lexical_decision_task_MP,2020.1.3,MacIntel,60,,m,1,0.601495,,,,,,,,0.601495,1,0,4,4,7,1,1008,WORD,UN,50,hurdle,VOLUME,m,,,,,,,,,,,,,,,,,,
,,,,,,,,,,,,,,,,,,5f2bcbf1eb53d868eed230c8,2020-08-08_10h27.59.886,lexical_decision_task_MP,2020.1.3,MacIntel,60,,z,1,0.70104,,,,,,,,0.70104,1,0,5,5,14,1,1015,NW,UN,50,miaber,THRALE,z,,,,,,,,,,,,,,,,,,
,,,,,,,,,,,,,,,,,,5f2bcbf1eb53d868eed230c8,2020-08-08_10h27.59.886,lexical_decision_task_MP,2020.1.3,MacIntel,60,,m,1,0.588045,,,,,,,,0.588045,1,0,6,6,4,1,1005,WORD,UN,33,abound,SQUEAK,m,,,,,,,,,,,,,,,,,,
,,,,,,,,,,,,,,,,,,5f2bcbf1eb53d868eed230c8,2020-08-08_10h27.59.886,lexical_decision_task_MP,2020.1.3,MacIntel,60,,z,1,0.861265,,,,,,,,0.861265,1,0,7,7,10,1,1011,NW,"ID",50,inlade,INLADE,z,,,,,,,,,,,,,,,,,,
,,,,,,,,,,,,,,,,,,5f2bcbf1eb53d868eed230c8,2020-08-08_10h27.59.886,lexical_decision_task_MP,2020.1.3,MacIntel,60,,m,1,0.701205,,,,,,,,0.701205,1,0,8,8,1,1,1002,WORD,"ID",33,adjust,ADJUST,m,,,,,,,,,,,,,,,,,,
,,,,,,,,,,,,,,,,,,5f2bcbf1eb53d868eed230c8,2020-08-08_10h27.59.886,lexical_decision_task_MP,2020.1.3,MacIntel,60,,z,1,0.883105,,,,,,,,0.883105,1,0,9,9,13,1,1014,NW,UN,33,winfer,ROUPET,z,,,,,,,,,,,,,,,,,,
,,,,,,,,,,,,,,,,,,5f2bcbf1eb53d868eed230c8,2020-08-08_10h27.59.886,lexical_decision_task_MP,2020.1.3,MacIntel,60,,z,1,0.773455,,,,,,,,0.773455,1,0,10,10,15,1,1016,NW,UN,50,mushed,WHAISE,z,,,,,,,,,,,,,,,,,,
,,,,,,,,,,,,,,,,,,5f2bcbf1eb53d868eed230c8,2020-08-08_10h27.59.886,lexical_decision_task_MP,2020.1.3,MacIntel,60,,m,1,0.875175,,,,,,,,0.875175,1,0,11,11,0,1,1001,WORD,"ID",33,utopia,UTOPIA,m,,,,,,,,,,,,,,,,,,
,,,,,,,,,,,,,,,,,,5f2bcbf1eb53d868eed230c8,2020-08-08_10h27.59.886,lexical_decision_task_MP,2020.1.3,MacIntel,60,,z,1,0.74048,,,,,,,,0.74048,1,0,12,12,8,1,1009,NW,"ID",33,aslert,ASLERT,z,,,,,,,,,,,,,,,,,,
,,,,,,,,,,,,,,,,,,5f2bcbf1eb53d868eed230c8,2020-08-08_10h27.59.886,lexical_decision_task_MP,2020.1.3,MacIntel,60,,m,1,0.634635,,,,,,,,0.634635,1,0,13,13,5,1,1006,WORD,UN,33,frenzy,OBTAIN,m,,,,,,,,,,,,,,,,,,
,,,,,,,,,,,,,,,,,,5f2bcbf1eb53d868eed230c8,2020-08-08_10h27.59.886,lexical_decision_task_MP,2020.1.3,MacIntel,60,,m,1,0.685145,,,,,,,,0.685145,1,0,14,14,2,1,1003,WORD,"ID",50,almond,ALMOND,m,,,,,,,,,,,,,,,,,,
,,,,,,,,,,,,,,,,,,5f2bcbf1eb53d868eed230c8,2020-08-08_10h27.59.886,lexical_decision_task_MP,2020.1.3,MacIntel,60,,m,1,0.73878,,,,,,,,0.73878,1,0,15,15,3,1,1004,WORD,"ID",50,matrix,MATRIX,m,,,,,,,,,,,,,,,,,,
,space,0.06468316,-0.402673611,0,0,0,,,,,,,1,end_of_practice,"You have completed the practice trials. During the experimental trials, you will not receive feedback, but it is very important that you respond as quickly and accurately as possible. 
Before you begin, please ensure that you are in a comfortable and quiet location and will not be disturbed for about 25 minutes, as we cannot use your data if you do not complete all the trials. 
There will be opportunities to take breaks at regular intervals during the experiment. When you are ready to start the experimental trials, please press space or touch the button below.",,,5f2bcbf1eb53d868eed230c8,2020-08-08_10h27.59.886,lexical_decision_task_MP,2020.1.3,MacIntel,60,17.089095,,,,,,,,,,,,,,,,,,,,,,,,,0,0,0,0,1,,,,,,,,,,,,,
,,,,,,,,,,,,,,,,,,5f2bcbf1eb53d868eed230c8,2020-08-08_10h27.59.886,lexical_decision_task_MP,2020.1.3,MacIntel,60,,m,1,0.668515,,,,,,,,0.668515,1,,,,,,154,WORD,UN,50,lizard,AUTHOR,m,,,,,,0.06468316,-0.402673611,0,0,0,,0,0,0,213,1,,
,,,,,,,,,,,,,,,,,,5f2bcbf1eb53d868eed230c8,2020-08-08_10h27.59.886,lexical_decision_task_MP,2020.1.3,MacIntel,60,,z,1,0.74985,,,,,,,,0.74985,1,,,,,,361,NW,UN,50,tireau,PAUCHE,z,,,,,,0.06468316,-0.402673611,0,0,0,,0,1,1,420,1,,
,,,,,,,,,,,,,,,,,,5f2bcbf1eb53d868eed230c8,2020-08-08_10h27.59.886,lexical_decision_task_MP,2020.1.3,MacIntel,60,,m,1,0.89004,,,,,,,,0.89004,1,,,,,,116,WORD,UN,33,branch,TUMBLE,m,,,,,,0.06468316,-0.402673611,0,0,0,,0,2,2,175,1,,
,,,,,,,,,,,,,,,,,,5f2bcbf1eb53d868eed230c8,2020-08-08_10h27.59.886,lexical_decision_task_MP,2020.1.3,MacIntel,60,,m,1,0.684545,,,,,,,,0.684545,1,,,,,,120,WORD,UN,33,ponder,STRAIN,m,,,,,,0.06468316,-0.402673611,0,0,0,,0,3,3,179,1,,
,,,,,,,,,,,,,,,,,,5f2bcbf1eb53d868eed230c8,2020-08-08_10h27.59.886,lexical_decision_task_MP,2020.1.3,MacIntel,60,,z,1,0.88466,,,,,,,,0.88466,1,,,,,,412,NW,UN,50,equats,JILUER,z,,,,,,0.06468316,-0.402673611,0,0,0,,0,4,4,471,1,,
,,,,,,,,,,,,,,,,,,5f2bcbf1eb53d868eed230c8,2020-08-08_10h27.59.886,lexical_decision_task_MP,2020.1.3,MacIntel,60,,z,1,0.717165,,,,,,,,0.717165,1,,,,,,327,NW,UN,33,broake,PLENAC,z,,,,,,0.06468316,-0.402673611,0,0,0,,0,5,5,386,1,,
,,,,,,,,,,,,,,,,,,5f2bcbf1eb53d868eed230c8,2020-08-08_10h27.59.886,lexical_decision_task_MP,2020.1.3,MacIntel,60,,z,1,0.81645,,,,,,,,0.81645,1,,,,,,420,NW,UN,50,pauche,GUSHOP,z,,,,,,0.06468316,-0.402673611,0,0,0,,0,6,6,479,1,,
,,,,,,,,,,,,,,,,,,5f2bcbf1eb53d868eed230c8,2020-08-08_10h27.59.886,lexical_decision_task_MP,2020.1.3,MacIntel,60,,z,1,1.0349,,,,,,,,1.0349,1,,,,,,454,NW,"ID",33,scouge,SCOUGE,z,,,,,,0.06468316,-0.402673611,0,0,0,,0,7,7,273,1,,
,,,,,,,,,,,,,,,,,,5f2bcbf1eb53d868eed230c8,2020-08-08_10h27.59.886,lexical_decision_task_MP,2020.1.3,MacIntel,60,,z,1,0.820605,,,,,,,,0.820605,1,,,,,,407,NW,UN,50,hurnia,SUIVER,z,,,,,,0.06468316,-0.402673611,0,0,0,,0,8,8,466,1,,
,,,,,,,,,,,,,,,,,,5f2bcbf1eb53d868eed230c8,2020-08-08_10h27.59.886,lexical_decision_task_MP,2020.1.3,MacIntel,60,,z,1,1.00152,,,,,,,,1.00152,1,,,,,,453,NW,"ID",33,bolvis,BOLVIS,z,,,,,,0.06468316,-0.402673611,0,0,0,,0,9,9,272,1,,
,,,,,,,,,,,,,,,,,,5f2bcbf1eb53d868eed230c8,2020-08-08_10h27.59.886,lexical_decision_task_MP,2020.1.3,MacIntel,60,,m,1,0.59324,,,,,,,,0.59324,1,,,,,,119,WORD,UN,33,strain,SPIDER,m,,,,,,0.06468316,-0.402673611,0,0,0,,0,10,10,178,1,,
,,,,,,,,,,,,,,,,,,5f2bcbf1eb53d868eed230c8,2020-08-08_10h27.59.886,lexical_decision_task_MP,2020.1.3,MacIntel,60,,m,1,0.634975,,,,,,,,0.634975,1,,,,,,124,WORD,UN,50,nickel,BLOUSE,m,,,,,,0.06468316,-0.402673611,0,0,0,,0,11,11,183,1,,
,,,,,,,,,,,,,,,,,,5f2bcbf1eb53d868eed230c8,2020-08-08_10h27.59.886,lexical_decision_task_MP,2020.1.3,MacIntel,60,,m,1,0.520495,,,,,,,,0.520495,1,,,,,,53,WORD,"ID",50,police,POLICE,m,,,,,,0.06468316,-0.402673611,0,0,0,,0,12,12,112,1,,
,,,,,,,,,,,,,,,,,,5f2bcbf1eb53d868eed230c8,2020-08-08_10h27.59.886,lexical_decision_task_MP,2020.1.3,MacIntel,60,,m,1,0.547865,,,,,,,,0.547865,1,,,,,,46,WORD,"ID",50,single,SINGLE,m,,,,,,0.06468316,-0.402673611,0,0,0,,0,13,13,105,1,,
,,,,,,,,,,,,,,,,,,5f2bcbf1eb53d868eed230c8,2020-08-08_10h27.59.886,lexical_decision_task_MP,2020.1.3,MacIntel,60,,m,1,0.57068,,,,,,,,0.57068,1,,,,,,80,WORD,UN,33,friend,FAMILY,m,,,,,,0.06468316,-0.402673611,0,0,0,,0,14,14,139,1,,
,,,,,,,,,,,,,,,,,,5f2bcbf1eb53d868eed230c8,2020-08-08_10h27.59.886,lexical_decision_task_MP,2020.1.3,MacIntel,60,,m,1,0.601555,,,,,,,,0.601555,1,,,,,,126,WORD,UN,50,castle,ENOUGH,m,,,,,,0.06468316,-0.402673611,0,0,0,,0,15,15,185,1,,
,,,,,,,,,,,,,,,,,,5f2bcbf1eb53d868eed230c8,2020-08-08_10h27.59.886,lexical_decision_task_MP,2020.1.3,MacIntel,60,,m,1,0.608115,,,,,,,,0.608115,1,,,,,,110,WORD,UN,33,induce,POLITE,m,,,,,,0.06468316,-0.402673611,0,0,0,,0,16,16,169,1,,
,,,,,,,,,,,,,,,,,,5f2bcbf1eb53d868eed230c8,2020-08-08_10h27.59.886,lexical_decision_task_MP,2020.1.3,MacIntel,60,,m,1,0.59979,,,,,,,,0.59979,1,,,,,,197,WORD,"ID",33,stream,STREAM,m,,,,,,0.06468316,-0.402673611,0,0,0,,0,17,17,16,1,,
,,,,,,,,,,,,,,,,,,5f2bcbf1eb53d868eed230c8,2020-08-08_10h27.59.886,lexical_decision_task_MP,2020.1.3,MacIntel,60,,m,1,0.6008,,,,,,,,0.6008,1,,,,,,101,WORD,UN,33,direct,WRENCH,m,,,,,,0.06468316,-0.402673611,0,0,0,,0,18,18,160,1,,
,,,,,,,,,,,,,,,,,,5f2bcbf1eb53d868eed230c8,2020-08-08_10h27.59.886,lexical_decision_task_MP,2020.1.3,MacIntel,60,,z,1,0.783755,,,,,,,,0.783755,1,,,,,,288,NW,"ID",50,yaceup,YACEUP,z,,,,,,0.06468316,-0.402673611,0,0,0,,0,19,19,347,1,,
,,,,,,,,,,,,,,,,,,5f2bcbf1eb53d868eed230c8,2020-08-08_10h27.59.886,lexical_decision_task_MP,2020.1.3,MacIntel,60,,m,1,0.566785,,,,,,,,0.566785,1,,,,,,103,WORD,UN,33,studio,BOUNCE,m,,,,,,0.06468316,-0.402673611,0,0,0,,0,20,20,162,1,,
,,,,,,,,,,,,,,,,,,5f2bcbf1eb53d868eed230c8,2020-08-08_10h27.59.886,lexical_decision_task_MP,2020.1.3,MacIntel,60,,z,1,0.767835,,,,,,,,0.767835,1,,,,,,323,NW,UN,33,steikh,ROSAIL,z,,,,,,0.06468316,-0.402673611,0,0,0,,0,21,21,382,1,,
,,,,,,,,,,,,,,,,,,5f2bcbf1eb53d868eed230c8,2020-08-08_10h27.59.886,lexical_decision_task_MP,2020.1.3,MacIntel,60,,m,1,0.67227,,,,,,,,0.67227,1,,,,,,178,WORD,UN,50,basket,INFORM,m,,,,,,0.06468316,-0.402673611,0,0,0,,0,22,22,237,1,,
,,,,,,,,,,,,,,,,,,5f2bcbf1eb53d868eed230c8,2020-08-08_10h27.59.886,lexical_decision_task_MP,2020.1.3,MacIntel,60,,z,1,0.95747,,,,,,,,0.95747,1,,,,,,401,NW,UN,50,syntic,MUSTIL,z,,,,,,0.06468316,-0.402673611,0,0,0,,0,23,23,460,1,,
,,,,,,,,,,,,,,,,,,5f2bcbf1eb53d868eed230c8,2020-08-08_10h27.59.886,lexical_decision_task_MP,2020.1.3,MacIntel,60,,m,1,0.792405,,,,,,,,0.792405,1,,,,,,217,WORD,"ID",33,liquor,LIQUOR,m,,,,,,0.06468316,-0.402673611,0,0,0,,0,24,24,36,1,,
,,,,,,,,,,,,,,,,,,5f2bcbf1eb53d868eed230c8,2020-08-08_10h27.59.886,lexical_decision_task_MP,2020.1.3,MacIntel,60,,z,1,0.934405,,,,,,,,0.934405,1,,,,,,458,NW,"ID",33,barcet,BARCET,z,,,,,,0.06468316,-0.402673611,0,0,0,,0,25,25,277,1,,
,,,,,,,,,,,,,,,,,,5f2bcbf1eb53d868eed230c8,2020-08-08_10h27.59.886,lexical_decision_task_MP,2020.1.3,MacIntel,60,,m,1,0.615425,,,,,,,,0.615425,1,,,,,,59,WORD,"ID",50,splint,SPLINT,m,,,,,,0.06468316,-0.402673611,0,0,0,,0,26,26,118,1,,
,,,,,,,,,,,,,,,,,,5f2bcbf1eb53d868eed230c8,2020-08-08_10h27.59.886,lexical_decision_task_MP,2020.1.3,MacIntel,60,,m,1,0.531805,,,,,,,,0.531805,1,,,,,,198,WORD,"ID",33,wicked,WICKED,m,,,,,,0.06468316,-0.402673611,0,0,0,,0,27,27,17,1,,
,,,,,,,,,,,,,,,,,,5f2bcbf1eb53d868eed230c8,2020-08-08_10h27.59.886,lexical_decision_task_MP,2020.1.3,MacIntel,60,,z,1,0.686145,,,,,,,,0.686145,1,,,,,,293,NW,"ID",50,swance,SWANCE,z,,,,,,0.06468316,-0.402673611,0,0,0,,0,28,28,352,1,,
,,,,,,,,,,,,,,,,,,5f2bcbf1eb53d868eed230c8,2020-08-08_10h27.59.886,lexical_decision_task_MP,2020.1.3,MacIntel,60,,z,1,0.875295,,,,,,,,0.875295,1,,,,,,270,NW,"ID",50,wrimsy,WRIMSY,z,,,,,,0.06468316,-0.402673611,0,0,0,,0,29,29,329,1,,
,,,,,,,,,,,,,,,,,,5f2bcbf1eb53d868eed230c8,2020-08-08_10h27.59.886,lexical_decision_task_MP,2020.1.3,MacIntel,60,,z,1,1.107945,,,,,,,,1.107945,1,,,,,,351,NW,UN,33,tringe,TIESCH,z,,,,,,0.06468316,-0.402673611,0,0,0,,0,30,30,410,1,,
,,,,,,,,,,,,,,,,,,5f2bcbf1eb53d868eed230c8,2020-08-08_10h27.59.886,lexical_decision_task_MP,2020.1.3,MacIntel,60,,z,1,0.703245,,,,,,,,0.703245,1,,,,,,247,NW,"ID",50,blarge,BLARGE,z,,,,,,0.06468316,-0.402673611,0,0,0,,0,31,31,306,1,,
,,,,,,,,,,,,,,,,,,5f2bcbf1eb53d868eed230c8,2020-08-08_10h27.59.886,lexical_decision_task_MP,2020.1.3,MacIntel,60,,m,1,0.54828,,,,,,,,0.54828,1,,,,,,173,WORD,UN,50,turkey,SHOWER,m,,,,,,0.06468316,-0.402673611,0,0,0,,0,32,32,232,1,,
,,,,,,,,,,,,,,,,,,5f2bcbf1eb53d868eed230c8,2020-08-08_10h27.59.886,lexical_decision_task_MP,2020.1.3,MacIntel,60,,m,1,0.533845,,,,,,,,0.533845,1,,,,,,191,WORD,"ID",33,stable,STABLE,m,,,,,,0.06468316,-0.402673611,0,0,0,,0,33,33,10,1,,
,,,,,,,,,,,,,,,,,,5f2bcbf1eb53d868eed230c8,2020-08-08_10h27.59.886,lexical_decision_task_MP,2020.1.3,MacIntel,60,,m,1,0.572325,,,,,,,,0.572325,1,,,,,,131,WORD,UN,50,strong,QUENCH,m,,,,,,0.06468316,-0.402673611,0,0,0,,0,34,34,190,1,,
,,,,,,,,,,,,,,,,,,5f2bcbf1eb53d868eed230c8,2020-08-08_10h27.59.886,lexical_decision_task_MP,2020.1.3,MacIntel,60,,m,1,0.52162,,,,,,,,0.52162,1,,,,,,57,WORD,"ID",50,change,CHANGE,m,,,,,,0.06468316,-0.402673611,0,0,0,,0,35,35,116,1,,
,,,,,,,,,,,,,,,,,,5f2bcbf1eb53d868eed230c8,2020-08-08_10h27.59.886,lexical_decision_task_MP,2020.1.3,MacIntel,60,,z,1,0.657335,,,,,,,,0.657335,1,,,,,,317,NW,UN,33,reagly,WORBAL,z,,,,,,0.06468316,-0.402673611,0,0,0,,0,36,36,376,1,,
,,,,,,,,,,,,,,,,,,5f2bcbf1eb53d868eed230c8,2020-08-08_10h27.59.886,lexical_decision_task_MP,2020.1.3,MacIntel,60,,m,1,0.668185,,,,,,,,0.668185,1,,,,,,42,WORD,"ID",50,chapel,CHAPEL,m,,,,,,0.06468316,-0.402673611,0,0,0,,0,37,37,101,1,,
,,,,,,,,,,,,,,,,,,5f2bcbf1eb53d868eed230c8,2020-08-08_10h27.59.886,lexical_decision_task_MP,2020.1.3,MacIntel,60,,m,1,0.55049,,,,,,,,0.55049,1,,,,,,5,WORD,"ID",50,plunge,PLUNGE,m,,,,,,0.06468316,-0.402673611,0,0,0,,0,38,38,64,1,,
,,,,,,,,,,,,,,,,,,5f2bcbf1eb53d868eed230c8,2020-08-08_10h27.59.886,lexical_decision_task_MP,2020.1.3,MacIntel,60,,z,1,0.835065,,,,,,,,0.835065,1,,,,,,281,NW,"ID",50,melaty,MELATY,z,,,,,,0.06468316,-0.402673611,0,0,0,,0,39,39,340,1,,
,,,,,,,,,,,,,,,,,,5f2bcbf1eb53d868eed230c8,2020-08-08_10h27.59.886,lexical_decision_task_MP,2020.1.3,MacIntel,60,,z,1,0.94101,,,,,,,,0.94101,1,,,,,,354,NW,UN,33,zingly,VIRLEX,z,,,,,,0.06468316,-0.402673611,0,0,0,,0,40,40,413,1,,
,,,,,,,,,,,,,,,,,,5f2bcbf1eb53d868eed230c8,2020-08-08_10h27.59.886,lexical_decision_task_MP,2020.1.3,MacIntel,60,,z,1,0.6894,,,,,,,,0.6894,1,,,,,,267,NW,"ID",50,pasink,PASINK,z,,,,,,0.06468316,-0.402673611,0,0,0,,0,41,41,326,1,,
,,,,,,,,,,,,,,,,,,5f2bcbf1eb53d868eed230c8,2020-08-08_10h27.59.886,lexical_decision_task_MP,2020.1.3,MacIntel,60,,m,1,0.633745,,,,,,,,0.633745,1,,,,,,49,WORD,"ID",50,survey,SURVEY,m,,,,,,0.06468316,-0.402673611,0,0,0,,0,42,42,108,1,,
,,,,,,,,,,,,,,,,,,5f2bcbf1eb53d868eed230c8,2020-08-08_10h27.59.886,lexical_decision_task_MP,2020.1.3,MacIntel,60,,z,1,0.88545,,,,,,,,0.88545,1,,,,,,418,NW,UN,50,slount,SUIDLE,z,,,,,,0.06468316,-0.402673611,0,0,0,,0,43,43,477,1,,
,,,,,,,,,,,,,,,,,,5f2bcbf1eb53d868eed230c8,2020-08-08_10h27.59.886,lexical_decision_task_MP,2020.1.3,MacIntel,60,,m,1,0.770395,,,,,,,,0.770395,1,,,,,,31,WORD,"ID",50,weapon,WEAPON,m,,,,,,0.06468316,-0.402673611,0,0,0,,0,44,44,90,1,,
,,,,,,,,,,,,,,,,,,5f2bcbf1eb53d868eed230c8,2020-08-08_10h27.59.886,lexical_decision_task_MP,2020.1.3,MacIntel,60,,m,1,0.615955,,,,,,,,0.615955,1,,,,,,64,WORD,UN,33,symbol,THRONE,m,,,,,,0.06468316,-0.402673611,0,0,0,,0,45,45,123,1,,
,,,,,,,,,,,,,,,,,,5f2bcbf1eb53d868eed230c8,2020-08-08_10h27.59.886,lexical_decision_task_MP,2020.1.3,MacIntel,60,,z,1,0.631625,,,,,,,,0.631625,1,,,,,,290,NW,"ID",50,splino,SPLINO,z,,,,,,0.06468316,-0.402673611,0,0,0,,0,46,46,349,1,,
,,,,,,,,,,,,,,,,,,5f2bcbf1eb53d868eed230c8,2020-08-08_10h27.59.886,lexical_decision_task_MP,2020.1.3,MacIntel,60,,m,1,1.099705,,,,,,,,1.099705,1,,,,,,237,WORD,"ID",33,poster,POSTER,m,,,,,,0.06468316,-0.402673611,0,0,0,,0,47,47,56,1,,
,,,,,,,,,,,,,,,,,,5f2bcbf1eb53d868eed230c8,2020-08-08_10h27.59.886,lexical_decision_task_MP,2020.1.3,MacIntel,60,,z,1,0.5866,,,,,,,,0.5866,1,,,,,,264,NW,"ID",50,vackel,VACKEL,z,,,,,,0.06468316,-0.402673611,0,0,0,,0,48,48,323,1,,
,,,,,,,,,,,,,,,,,,5f2bcbf1eb53d868eed230c8,2020-08-08_10h27.59.886,lexical_decision_task_MP,2020.1.3,MacIntel,60,,z,1,0.72217,,,,,,,,0.72217,1,,,,,,279,NW,"ID",50,celond,CELOND,z,,,,,,0.06468316,-0.402673611,0,0,0,,0,49,49,338,1,,
,,,,,,,,,,,,,,,,,,5f2bcbf1eb53d868eed230c8,2020-08-08_10h27.59.886,lexical_decision_task_MP,2020.1.3,MacIntel,60,,z,1,0.759305,,,,,,,,0.759305,1,,,,,,398,NW,UN,50,fouret,BLUNDE,z,,,,,,0.06468316,-0.402673611,0,0,0,,0,50,50,457,1,,
,,,,,,,,,,,,,,,,,,5f2bcbf1eb53d868eed230c8,2020-08-08_10h27.59.886,lexical_decision_task_MP,2020.1.3,MacIntel,60,,m,1,0.555195,,,,,,,,0.555195,1,,,,,,81,WORD,UN,33,stigma,FRIEND,m,,,,,,0.06468316,-0.402673611,0,0,0,,0,51,51,140,1,,
,,,,,,,,,,,,,,,,,,5f2bcbf1eb53d868eed230c8,2020-08-08_10h27.59.886,lexical_decision_task_MP,2020.1.3,MacIntel,60,,m,1,0.54219,,,,,,,,0.54219,1,,,,,,219,WORD,"ID",33,bucket,BUCKET,m,,,,,,0.06468316,-0.402673611,0,0,0,,0,52,52,38,1,,
,,,,,,,,,,,,,,,,,,5f2bcbf1eb53d868eed230c8,2020-08-08_10h27.59.886,lexical_decision_task_MP,2020.1.3,MacIntel,60,,z,1,1.00041,,,,,,,,1.00041,1,,,,,,246,NW,"ID",50,piaton,PIATON,z,,,,,,0.06468316,-0.402673611,0,0,0,,0,53,53,305,1,,
,,,,,,,,,,,,,,,,,,5f2bcbf1eb53d868eed230c8,2020-08-08_10h27.59.886,lexical_decision_task_MP,2020.1.3,MacIntel,60,,z,1,0.87461,,,,,,,,0.87461,1,,,,,,377,NW,UN,50,shrile,INJORE,z,,,,,,0.06468316,-0.402673611,0,0,0,,0,54,54,436,1,,
,,,,,,,,,,,,,,,,,,5f2bcbf1eb53d868eed230c8,2020-08-08_10h27.59.886,lexical_decision_task_MP,2020.1.3,MacIntel,60,,z,1,0.75878,,,,,,,,0.75878,1,,,,,,410,NW,UN,50,orchin,TUNORY,z,,,,,,0.06468316,-0.402673611,0,0,0,,0,55,55,469,1,,
,,,,,,,,,,,,,,,,,,5f2bcbf1eb53d868eed230c8,2020-08-08_10h27.59.886,lexical_decision_task_MP,2020.1.3,MacIntel,60,,m,1,0.85662,,,,,,,,0.85662,1,,,,,,209,WORD,"ID",33,search,SEARCH,m,,,,,,0.06468316,-0.402673611,0,0,0,,0,56,56,28,1,,
,,,,,,,,,,,,,,,,,,5f2bcbf1eb53d868eed230c8,2020-08-08_10h27.59.886,lexical_decision_task_MP,2020.1.3,MacIntel,60,,m,1,0.61508,,,,,,,,0.61508,1,,,,,,185,WORD,"ID",33,bother,BOTHER,m,,,,,,0.06468316,-0.402673611,0,0,0,,0,57,57,4,1,,
,,,,,,,,,,,,,,,,,,5f2bcbf1eb53d868eed230c8,2020-08-08_10h27.59.886,lexical_decision_task_MP,2020.1.3,MacIntel,60,,m,1,0.483075,,,,,,,,0.483075,1,,,,,,155,WORD,UN,50,cradle,LIZARD,m,,,,,,0.06468316,-0.402673611,0,0,0,,0,58,58,214,1,,
,,,,,,,,,,,,,,,,,,5f2bcbf1eb53d868eed230c8,2020-08-08_10h27.59.886,lexical_decision_task_MP,2020.1.3,MacIntel,60,,m,1,0.51718,,,,,,,,0.51718,1,,,,,,54,WORD,"ID",50,ramble,RAMBLE,m,,,,,,0.06468316,-0.402673611,0,0,0,,0,59,59,113,1,,
,,,,,,,,,,,,,,,,,,5f2bcbf1eb53d868eed230c8,2020-08-08_10h27.59.886,lexical_decision_task_MP,2020.1.3,MacIntel,60,,z,1,0.86967,,,,,,,,0.86967,1,,,,,,388,NW,UN,50,witmer,CRAGIN,z,,,,,,0.06468316,-0.402673611,0,0,0,,0,60,60,447,1,,
,,,,,,,,,,,,,,,,,,5f2bcbf1eb53d868eed230c8,2020-08-08_10h27.59.886,lexical_decision_task_MP,2020.1.3,MacIntel,60,,m,1,0.91833,,,,,,,,0.91833,1,,,,,,86,WORD,UN,33,filter,RODENT,m,,,,,,0.06468316,-0.402673611,0,0,0,,0,61,61,145,1,,
,,,,,,,,,,,,,,,,,,5f2bcbf1eb53d868eed230c8,2020-08-08_10h27.59.886,lexical_decision_task_MP,2020.1.3,MacIntel,60,,z,1,0.753115,,,,,,,,0.753115,1,,,,,,286,NW,"ID",50,reldon,RELDON,z,,,,,,0.06468316,-0.402673611,0,0,0,,0,62,62,345,1,,
,,,,,,,,,,,,,,,,,,5f2bcbf1eb53d868eed230c8,2020-08-08_10h27.59.886,lexical_decision_task_MP,2020.1.3,MacIntel,60,,m,1,0.899745,,,,,,,,0.899745,1,,,,,,45,WORD,"ID",50,clergy,CLERGY,m,,,,,,0.06468316,-0.402673611,0,0,0,,0,63,63,104,1,,
,,,,,,,,,,,,,,,,,,5f2bcbf1eb53d868eed230c8,2020-08-08_10h27.59.886,lexical_decision_task_MP,2020.1.3,MacIntel,60,,m,1,0.672395,,,,,,,,0.672395,1,,,,,,204,WORD,"ID",33,burden,BURDEN,m,,,,,,0.06468316,-0.402673611,0,0,0,,0,64,64,23,1,,
,,,,,,,,,,,,,,,,,,5f2bcbf1eb53d868eed230c8,2020-08-08_10h27.59.886,lexical_decision_task_MP,2020.1.3,MacIntel,60,,z,1,0.89172,,,,,,,,0.89172,1,,,,,,344,NW,UN,33,absend,SCRILY,z,,,,,,0.06468316,-0.402673611,0,0,0,,0,65,65,403,1,,
,,,,,,,,,,,,,,,,,,5f2bcbf1eb53d868eed230c8,2020-08-08_10h27.59.886,lexical_decision_task_MP,2020.1.3,MacIntel,60,,z,1,0.75911,,,,,,,,0.75911,1,,,,,,316,NW,UN,33,worbal,SCREGM,z,,,,,,0.06468316,-0.402673611,0,0,0,,0,66,66,375,1,,
,,,,,,,,,,,,,,,,,,5f2bcbf1eb53d868eed230c8,2020-08-08_10h27.59.886,lexical_decision_task_MP,2020.1.3,MacIntel,60,,m,1,0.91824,,,,,,,,0.91824,1,,,,,,142,WORD,UN,50,reason,SPRUCE,m,,,,,,0.06468316,-0.402673611,0,0,0,,0,67,67,201,1,,
,,,,,,,,,,,,,,,,,,5f2bcbf1eb53d868eed230c8,2020-08-08_10h27.59.886,lexical_decision_task_MP,2020.1.3,MacIntel,60,,z,1,1.388095,,,,,,,,1.388095,1,,,,,,332,NW,UN,33,catrie,VANGUE,z,,,,,,0.06468316,-0.402673611,0,0,0,,0,68,68,391,1,,
,,,,,,,,,,,,,,,,,,5f2bcbf1eb53d868eed230c8,2020-08-08_10h27.59.886,lexical_decision_task_MP,2020.1.3,MacIntel,60,,z,1,0.940015,,,,,,,,0.940015,1,,,,,,282,NW,"ID",50,porlex,PORLEX,z,,,,,,0.06468316,-0.402673611,0,0,0,,0,69,69,341,1,,
,,,,,,,,,,,,,,,,,,5f2bcbf1eb53d868eed230c8,2020-08-08_10h27.59.886,lexical_decision_task_MP,2020.1.3,MacIntel,60,,m,1,0.650355,,,,,,,,0.650355,1,,,,,,108,WORD,UN,33,wonder,RECKON,m,,,,,,0.06468316,-0.402673611,0,0,0,,0,70,70,167,1,,
,,,,,,,,,,,,,,,,,,5f2bcbf1eb53d868eed230c8,2020-08-08_10h27.59.886,lexical_decision_task_MP,2020.1.3,MacIntel,60,,m,1,0.76963,,,,,,,,0.76963,1,,,,,,207,WORD,"ID",33,wreath,WREATH,m,,,,,,0.06468316,-0.402673611,0,0,0,,0,71,71,26,1,,
,,,,,,,,,,,,,,,,,,5f2bcbf1eb53d868eed230c8,2020-08-08_10h27.59.886,lexical_decision_task_MP,2020.1.3,MacIntel,60,,z,1,0.686385,,,,,,,,0.686385,1,,,,,,285,NW,"ID",50,prudge,PRUDGE,z,,,,,,0.06468316,-0.402673611,0,0,0,,0,72,72,344,1,,
,,,,,,,,,,,,,,,,,,5f2bcbf1eb53d868eed230c8,2020-08-08_10h27.59.886,lexical_decision_task_MP,2020.1.3,MacIntel,60,,z,1,0.93422,,,,,,,,0.93422,1,,,,,,325,NW,UN,33,iguade,THRUSE,z,,,,,,0.06468316,-0.402673611,0,0,0,,0,73,73,384,1,,
,,,,,,,,,,,,,,,,,,5f2bcbf1eb53d868eed230c8,2020-08-08_10h27.59.886,lexical_decision_task_MP,2020.1.3,MacIntel,60,,m,1,0.58495,,,,,,,,0.58495,1,,,,,,24,WORD,"ID",50,praise,PRAISE,m,,,,,,0.06468316,-0.402673611,0,0,0,,0,74,74,83,1,,
,,,,,,,,,,,,,,,,,,5f2bcbf1eb53d868eed230c8,2020-08-08_10h27.59.886,lexical_decision_task_MP,2020.1.3,MacIntel,60,,m,1,0.702985,,,,,,,,0.702985,1,,,,,,123,WORD,UN,50,blouse,STRIKE,m,,,,,,0.06468316,-0.402673611,0,0,0,,0,75,75,182,1,,
,,,,,,,,,,,,,,,,,,5f2bcbf1eb53d868eed230c8,2020-08-08_10h27.59.886,lexical_decision_task_MP,2020.1.3,MacIntel,60,,m,1,0.534445,,,,,,,,0.534445,1,,,,,,238,WORD,"ID",33,flower,FLOWER,m,,,,,,0.06468316,-0.402673611,0,0,0,,0,76,76,57,1,,
,,,,,,,,,,,,,,,,,,5f2bcbf1eb53d868eed230c8,2020-08-08_10h27.59.886,lexical_decision_task_MP,2020.1.3,MacIntel,60,,z,1,1.149285,,,,,,,,1.149285,1,,,,,,472,NW,"ID",33,cigney,CIGNEY,z,,,,,,0.06468316,-0.402673611,0,0,0,,0,77,77,291,1,,
,,,,,,,,,,,,,,,,,,5f2bcbf1eb53d868eed230c8,2020-08-08_10h27.59.886,lexical_decision_task_MP,2020.1.3,MacIntel,60,,z,1,0.719445,,,,,,,,0.719445,1,,,,,,366,NW,UN,50,slique,TOSHEL,z,,,,,,0.06468316,-0.402673611,0,0,0,,0,78,78,425,1,,
,,,,,,,,,,,,,,,,,,5f2bcbf1eb53d868eed230c8,2020-08-08_10h27.59.886,lexical_decision_task_MP,2020.1.3,MacIntel,60,,z,1,1.217895,,,,,,,,1.217895,1,,,,,,437,NW,"ID",33,snapel,SNAPEL,z,,,,,,0.06468316,-0.402673611,0,0,0,,0,79,79,256,1,,
,,,,,,,,,,,,,,,,,,5f2bcbf1eb53d868eed230c8,2020-08-08_10h27.59.886,lexical_decision_task_MP,2020.1.3,MacIntel,60,,z,1,0.82517,,,,,,,,0.82517,1,,,,,,382,NW,UN,50,aungre,SARLEY,z,,,,,,0.06468316,-0.402673611,0,0,0,,0,80,80,441,1,,
,,,,,,,,,,,,,,,,,,5f2bcbf1eb53d868eed230c8,2020-08-08_10h27.59.886,lexical_decision_task_MP,2020.1.3,MacIntel,60,,z,1,0.813915,,,,,,,,0.813915,1,,,,,,369,NW,UN,50,sleact,WRONCH,z,,,,,,0.06468316,-0.402673611,0,0,0,,0,81,81,428,1,,
,,,,,,,,,,,,,,,,,,5f2bcbf1eb53d868eed230c8,2020-08-08_10h27.59.886,lexical_decision_task_MP,2020.1.3,MacIntel,60,,m,1,0.924,,,,,,,,0.924,1,,,,,,25,WORD,"ID",50,domain,DOMAIN,m,,,,,,0.06468316,-0.402673611,0,0,0,,0,82,82,84,1,,
,,,,,,,,,,,,,,,,,,5f2bcbf1eb53d868eed230c8,2020-08-08_10h27.59.886,lexical_decision_task_MP,2020.1.3,MacIntel,60,,z,1,0.89971,,,,,,,,0.89971,1,,,,,,434,NW,"ID",33,pitrom,PITROM,z,,,,,,0.06468316,-0.402673611,0,0,0,,0,83,83,253,1,,
,,,,,,,,,,,,,,,,,,5f2bcbf1eb53d868eed230c8,2020-08-08_10h27.59.886,lexical_decision_task_MP,2020.1.3,MacIntel,60,,z,1,1.034165,,,,,,,,1.034165,1,,,,,,469,NW,"ID",33,padifs,PADIFS,z,,,,,,0.06468316,-0.402673611,0,0,0,,0,84,84,288,1,,
,,,,,,,,,,,,,,,,,,5f2bcbf1eb53d868eed230c8,2020-08-08_10h27.59.886,lexical_decision_task_MP,2020.1.3,MacIntel,60,,m,0,0.98911,,,,,,,,0.98911,0,,,,,,250,NW,"ID",50,milted,MILTED,z,,,,,,0.06468316,-0.402673611,0,0,0,,0,85,85,309,1,,
,,,,,,,,,,,,,,,,,,5f2bcbf1eb53d868eed230c8,2020-08-08_10h27.59.886,lexical_decision_task_MP,2020.1.3,MacIntel,60,,m,1,0.85336,,,,,,,,0.85336,1,,,,,,62,WORD,UN,33,launch,REGION,m,,,,,,0.06468316,-0.402673611,0,0,0,,0,86,86,121,1,,
,,,,,,,,,,,,,,,,,,5f2bcbf1eb53d868eed230c8,2020-08-08_10h27.59.886,lexical_decision_task_MP,2020.1.3,MacIntel,60,,z,1,0.917695,,,,,,,,0.917695,1,,,,,,439,NW,"ID",33,limpor,LIMPOR,z,,,,,,0.06468316,-0.402673611,0,0,0,,0,87,87,258,1,,
,,,,,,,,,,,,,,,,,,5f2bcbf1eb53d868eed230c8,2020-08-08_10h27.59.886,lexical_decision_task_MP,2020.1.3,MacIntel,60,,m,1,0.9922,,,,,,,,0.9922,1,,,,,,134,WORD,UN,50,import,STAPLE,m,,,,,,0.06468316,-0.402673611,0,0,0,,0,88,88,193,1,,
,,,,,,,,,,,,,,,,,,5f2bcbf1eb53d868eed230c8,2020-08-08_10h27.59.886,lexical_decision_task_MP,2020.1.3,MacIntel,60,,z,1,0.61866,,,,,,,,0.61866,1,,,,,,408,NW,UN,50,elopia,HURNIA,z,,,,,,0.06468316,-0.402673611,0,0,0,,0,89,89,467,1,,
,,,,,,,,,,,,,,,,,,5f2bcbf1eb53d868eed230c8,2020-08-08_10h27.59.886,lexical_decision_task_MP,2020.1.3,MacIntel,60,,z,1,1.02142,,,,,,,,1.02142,1,,,,,,394,NW,UN,50,colury,SPAQUX,z,,,,,,0.06468316,-0.402673611,0,0,0,,0,90,90,453,1,,
,,,,,,,,,,,,,,,,,,5f2bcbf1eb53d868eed230c8,2020-08-08_10h27.59.886,lexical_decision_task_MP,2020.1.3,MacIntel,60,,z,1,0.76977,,,,,,,,0.76977,1,,,,,,298,NW,"ID",50,piergy,PIERGY,z,,,,,,0.06468316,-0.402673611,0,0,0,,0,91,91,357,1,,
,,,,,,,,,,,,,,,,,,5f2bcbf1eb53d868eed230c8,2020-08-08_10h27.59.886,lexical_decision_task_MP,2020.1.3,MacIntel,60,,m,1,0.83224,,,,,,,,0.83224,1,,,,,,117,WORD,UN,33,flight,BRANCH,m,,,,,,0.06468316,-0.402673611,0,0,0,,0,92,92,176,1,,
,,,,,,,,,,,,,,,,,,5f2bcbf1eb53d868eed230c8,2020-08-08_10h27.59.886,lexical_decision_task_MP,2020.1.3,MacIntel,60,,,0,,,,,,,,,0.83224,-1,,,,,,367,NW,UN,50,hornal,SLIQUE,z,,,,,,0.06468316,-0.402673611,0,0,0,,0,93,93,426,1,,
,,,,,,,,,,,,,,,,,,5f2bcbf1eb53d868eed230c8,2020-08-08_10h27.59.886,lexical_decision_task_MP,2020.1.3,MacIntel,60,,z,1,0.671735,,,,,,,,0.671735,1,,,,,,450,NW,"ID",33,phrect,PHRECT,z,,,,,,0.06468316,-0.402673611,0,0,0,,0,94,94,269,1,,
,,,,,,,,,,,,,,,,,,5f2bcbf1eb53d868eed230c8,2020-08-08_10h27.59.886,lexical_decision_task_MP,2020.1.3,MacIntel,60,,m,1,0.550445,,,,,,,,0.550445,1,,,,,,205,WORD,"ID",33,lounge,LOUNGE,m,,,,,,0.06468316,-0.402673611,0,0,0,,0,95,95,24,1,,
,,,,,,,,,,,,,,,,,,5f2bcbf1eb53d868eed230c8,2020-08-08_10h27.59.886,lexical_decision_task_MP,2020.1.3,MacIntel,60,,m,1,0.487785,,,,,,,,0.487785,1,,,,,,182,WORD,"ID",33,winter,WINTER,m,,,,,,0.06468316,-0.402673611,0,0,0,,0,96,96,1,1,,
,,,,,,,,,,,,,,,,,,5f2bcbf1eb53d868eed230c8,2020-08-08_10h27.59.886,lexical_decision_task_MP,2020.1.3,MacIntel,60,,m,1,0.65859,,,,,,,,0.65859,1,,,,,,68,WORD,UN,33,plenty,FUMBLE,m,,,,,,0.06468316,-0.402673611,0,0,0,,0,97,97,127,1,,
,,,,,,,,,,,,,,,,,,5f2bcbf1eb53d868eed230c8,2020-08-08_10h27.59.886,lexical_decision_task_MP,2020.1.3,MacIntel,60,,z,1,0.64984,,,,,,,,0.64984,1,,,,,,438,NW,"ID",33,baitch,BAITCH,z,,,,,,0.06468316,-0.402673611,0,0,0,,0,98,98,257,1,,
,,,,,,,,,,,,,,,,,,5f2bcbf1eb53d868eed230c8,2020-08-08_10h27.59.886,lexical_decision_task_MP,2020.1.3,MacIntel,60,,m,1,0.650285,,,,,,,,0.650285,1,,,,,,104,WORD,UN,33,number,STUDIO,m,,,,,,0.06468316,-0.402673611,0,0,0,,0,99,99,163,1,,
,,,,,,,,,,,,,,,,,,5f2bcbf1eb53d868eed230c8,2020-08-08_10h27.59.886,lexical_decision_task_MP,2020.1.3,MacIntel,60,,m,0,0.88428,,,,,,,,0.88428,0,,,,,,444,NW,"ID",33,jaunce,JAUNCE,z,,,,,,0.06468316,-0.402673611,0,0,0,,0,100,100,263,1,,
,,,,,,,,,,,,,,,,,,5f2bcbf1eb53d868eed230c8,2020-08-08_10h27.59.886,lexical_decision_task_MP,2020.1.3,MacIntel,60,,m,1,0.58284,,,,,,,,0.58284,1,,,,,,223,WORD,"ID",33,kidney,KIDNEY,m,,,,,,0.06468316,-0.402673611,0,0,0,,0,101,101,42,1,,
,,,,,,,,,,,,,,,,,,5f2bcbf1eb53d868eed230c8,2020-08-08_10h27.59.886,lexical_decision_task_MP,2020.1.3,MacIntel,60,,m,1,0.549835,,,,,,,,0.549835,1,,,,,,34,WORD,"ID",50,jungle,JUNGLE,m,,,,,,0.06468316,-0.402673611,0,0,0,,0,102,102,93,1,,
,,,,,,,,,,,,,,,,,,5f2bcbf1eb53d868eed230c8,2020-08-08_10h27.59.886,lexical_decision_task_MP,2020.1.3,MacIntel,60,,z,1,0.96446,,,,,,,,0.96446,1,,,,,,274,NW,"ID",50,fumblo,FUMBLO,z,,,,,,0.06468316,-0.402673611,0,0,0,,0,103,103,333,1,,
,,,,,,,,,,,,,,,,,,5f2bcbf1eb53d868eed230c8,2020-08-08_10h27.59.886,lexical_decision_task_MP,2020.1.3,MacIntel,60,,z,1,0.751945,,,,,,,,0.751945,1,,,,,,251,NW,"ID",50,lupict,LUPICT,z,,,,,,0.06468316,-0.402673611,0,0,0,,0,104,104,310,1,,
,,,,,,,,,,,,,,,,,,5f2bcbf1eb53d868eed230c8,2020-08-08_10h27.59.886,lexical_decision_task_MP,2020.1.3,MacIntel,60,,z,1,0.82868,,,,,,,,0.82868,1,,,,,,337,NW,UN,33,wreash,REJOLS,z,,,,,,0.06468316,-0.402673611,0,0,0,,0,105,105,396,1,,
,,,,,,,,,,,,,,,,,,5f2bcbf1eb53d868eed230c8,2020-08-08_10h27.59.886,lexical_decision_task_MP,2020.1.3,MacIntel,60,,m,1,0.57059,,,,,,,,0.57059,1,,,,,,63,WORD,UN,33,throne,LAUNCH,m,,,,,,0.06468316,-0.402673611,0,0,0,,0,106,106,122,1,,
,,,,,,,,,,,,,,,,,,5f2bcbf1eb53d868eed230c8,2020-08-08_10h27.59.886,lexical_decision_task_MP,2020.1.3,MacIntel,60,,m,1,0.5222,,,,,,,,0.5222,1,,,,,,72,WORD,UN,33,source,BRIGHT,m,,,,,,0.06468316,-0.402673611,0,0,0,,0,107,107,131,1,,
,,,,,,,,,,,,,,,,,,5f2bcbf1eb53d868eed230c8,2020-08-08_10h27.59.886,lexical_decision_task_MP,2020.1.3,MacIntel,60,,z,1,0.884355,,,,,,,,0.884355,1,,,,,,335,NW,UN,33,ghodus,DESION,z,,,,,,0.06468316,-0.402673611,0,0,0,,0,108,108,394,1,,
,,,,,,,,,,,,,,,,,,5f2bcbf1eb53d868eed230c8,2020-08-08_10h27.59.886,lexical_decision_task_MP,2020.1.3,MacIntel,60,,z,1,0.64925,,,,,,,,0.64925,1,,,,,,457,NW,"ID",33,wanigh,WANIGH,z,,,,,,0.06468316,-0.402673611,0,0,0,,0,109,109,276,1,,
,,,,,,,,,,,,,,,,,,5f2bcbf1eb53d868eed230c8,2020-08-08_10h27.59.886,lexical_decision_task_MP,2020.1.3,MacIntel,60,,m,1,0.999155,,,,,,,,0.999155,1,,,,,,212,WORD,"ID",33,verify,VERIFY,m,,,,,,0.06468316,-0.402673611,0,0,0,,0,110,110,31,1,,
,,,,,,,,,,,,,,,,,,5f2bcbf1eb53d868eed230c8,2020-08-08_10h27.59.886,lexical_decision_task_MP,2020.1.3,MacIntel,60,,m,1,0.54654,,,,,,,,0.54654,1,,,,,,50,WORD,"ID",50,snatch,SNATCH,m,,,,,,0.06468316,-0.402673611,0,0,0,,0,111,111,109,1,,
,,,,,,,,,,,,,,,,,,5f2bcbf1eb53d868eed230c8,2020-08-08_10h27.59.886,lexical_decision_task_MP,2020.1.3,MacIntel,60,,z,1,0.860885,,,,,,,,0.860885,1,,,,,,403,NW,UN,50,cluirm,BRUATS,z,,,,,,0.06468316,-0.402673611,0,0,0,,0,112,112,462,1,,
,,,,,,,,,,,,,,,,,,5f2bcbf1eb53d868eed230c8,2020-08-08_10h27.59.886,lexical_decision_task_MP,2020.1.3,MacIntel,60,,m,1,0.684115,,,,,,,,0.684115,1,,,,,,181,WORD,"ID",33,glance,GLANCE,m,,,,,,0.06468316,-0.402673611,0,0,0,,0,113,113,0,1,,
,,,,,,,,,,,,,,,,,,5f2bcbf1eb53d868eed230c8,2020-08-08_10h27.59.886,lexical_decision_task_MP,2020.1.3,MacIntel,60,,m,1,0.734075,,,,,,,,0.734075,1,,,,,,215,WORD,"ID",33,phobia,PHOBIA,m,,,,,,0.06468316,-0.402673611,0,0,0,,0,114,114,34,1,,
,,,,,,,,,,,,,,,,,,5f2bcbf1eb53d868eed230c8,2020-08-08_10h27.59.886,lexical_decision_task_MP,2020.1.3,MacIntel,60,,z,1,0.784185,,,,,,,,0.784185,1,,,,,,272,NW,"ID",50,damilt,DAMILT,z,,,,,,0.06468316,-0.402673611,0,0,0,,0,115,115,331,1,,
,,,,,,,,,,,,,,,,,,5f2bcbf1eb53d868eed230c8,2020-08-08_10h27.59.886,lexical_decision_task_MP,2020.1.3,MacIntel,60,,z,1,0.885375,,,,,,,,0.885375,1,,,,,,402,NW,UN,50,bruats,SYNTIC,z,,,,,,0.06468316,-0.402673611,0,0,0,,0,116,116,461,1,,
,,,,,,,,,,,,,,,,,,5f2bcbf1eb53d868eed230c8,2020-08-08_10h27.59.886,lexical_decision_task_MP,2020.1.3,MacIntel,60,,m,1,1.034555,,,,,,,,1.034555,1,,,,,,125,WORD,UN,50,enough,NICKEL,m,,,,,,0.06468316,-0.402673611,0,0,0,,0,117,117,184,1,,
,,,,,,,,,,,,,,,,,,5f2bcbf1eb53d868eed230c8,2020-08-08_10h27.59.886,lexical_decision_task_MP,2020.1.3,MacIntel,60,,m,1,0.485365,,,,,,,,0.485365,1,,,,,,38,WORD,"ID",50,powder,POWDER,m,,,,,,0.06468316,-0.402673611,0,0,0,,0,118,118,97,1,,
,,,,,,,,,,,,,,,,,,5f2bcbf1eb53d868eed230c8,2020-08-08_10h27.59.886,lexical_decision_task_MP,2020.1.3,MacIntel,60,,z,1,0.60374,,,,,,,,0.60374,1,,,,,,479,NW,"ID",33,lobush,LOBUSH,z,,,,,,0.06468316,-0.402673611,0,0,0,,0,119,119,298,1,,
,,,,,,,,,,,,,,,,,,5f2bcbf1eb53d868eed230c8,2020-08-08_10h27.59.886,lexical_decision_task_MP,2020.1.3,MacIntel,60,,m,1,0.50287,,,,,,,,0.50287,1,,,,,,233,WORD,"ID",33,nature,NATURE,m,,,,,,0.06468316,-0.402673611,0,0,0,space,0,120,120,52,1,15.87768,
,,,,,,,,,,,,,,,,,,5f2bcbf1eb53d868eed230c8,2020-08-08_10h27.59.886,lexical_decision_task_MP,2020.1.3,MacIntel,60,,z,1,1.24141,,,,,,,,1.24141,1,,,,,,445,NW,"ID",33,minkel,MINKEL,z,,,,,,0.06468316,-0.402673611,0,0,0,,0,121,121,264,1,,
,,,,,,,,,,,,,,,,,,5f2bcbf1eb53d868eed230c8,2020-08-08_10h27.59.886,lexical_decision_task_MP,2020.1.3,MacIntel,60,,z,1,0.685875,,,,,,,,0.685875,1,,,,,,477,NW,"ID",33,photie,PHOTIE,z,,,,,,0.06468316,-0.402673611,0,0,0,,0,122,122,296,1,,
,,,,,,,,,,,,,,,,,,5f2bcbf1eb53d868eed230c8,2020-08-08_10h27.59.886,lexical_decision_task_MP,2020.1.3,MacIntel,60,,,0,,,,,,,,,0.685875,-1,,,,,,3,WORD,"ID",50,knight,KNIGHT,m,,,,,,0.06468316,-0.402673611,0,0,0,,0,123,123,62,1,,
,,,,,,,,,,,,,,,,,,5f2bcbf1eb53d868eed230c8,2020-08-08_10h27.59.886,lexical_decision_task_MP,2020.1.3,MacIntel,60,,m,1,0.54237,,,,,,,,0.54237,1,,,,,,60,WORD,"ID",50,pencil,PENCIL,m,,,,,,0.06468316,-0.402673611,0,0,0,,0,124,124,119,1,,
,,,,,,,,,,,,,,,,,,5f2bcbf1eb53d868eed230c8,2020-08-08_10h27.59.886,lexical_decision_task_MP,2020.1.3,MacIntel,60,,m,1,1.251395,,,,,,,,1.251395,1,,,,,,141,WORD,UN,50,spruce,ORPHAN,m,,,,,,0.06468316,-0.402673611,0,0,0,,0,125,125,200,1,,
,,,,,,,,,,,,,,,,,,5f2bcbf1eb53d868eed230c8,2020-08-08_10h27.59.886,lexical_decision_task_MP,2020.1.3,MacIntel,60,,z,1,0.74836,,,,,,,,0.74836,1,,,,,,292,NW,"ID",50,ablint,ABLINT,z,,,,,,0.06468316,-0.402673611,0,0,0,,0,126,126,351,1,,
,,,,,,,,,,,,,,,,,,5f2bcbf1eb53d868eed230c8,2020-08-08_10h27.59.886,lexical_decision_task_MP,2020.1.3,MacIntel,60,,z,1,0.59912,,,,,,,,0.59912,1,,,,,,254,NW,"ID",50,varosh,VAROSH,z,,,,,,0.06468316,-0.402673611,0,0,0,,0,127,127,313,1,,
,,,,,,,,,,,,,,,,,,5f2bcbf1eb53d868eed230c8,2020-08-08_10h27.59.886,lexical_decision_task_MP,2020.1.3,MacIntel,60,,m,1,0.572775,,,,,,,,0.572775,1,,,,,,73,WORD,UN,33,plaque,SOURCE,m,,,,,,0.06468316,-0.402673611,0,0,0,,0,128,128,132,1,,
,,,,,,,,,,,,,,,,,,5f2bcbf1eb53d868eed230c8,2020-08-08_10h27.59.886,lexical_decision_task_MP,2020.1.3,MacIntel,60,,z,1,0.69984,,,,,,,,0.69984,1,,,,,,379,NW,UN,50,cavory,AUTING,z,,,,,,0.06468316,-0.402673611,0,0,0,,0,129,129,438,1,,
,,,,,,,,,,,,,,,,,,5f2bcbf1eb53d868eed230c8,2020-08-08_10h27.59.886,lexical_decision_task_MP,2020.1.3,MacIntel,60,,m,1,0.538,,,,,,,,0.538,1,,,,,,52,WORD,"ID",50,impose,IMPOSE,m,,,,,,0.06468316,-0.402673611,0,0,0,,0,130,130,111,1,,
,,,,,,,,,,,,,,,,,,5f2bcbf1eb53d868eed230c8,2020-08-08_10h27.59.886,lexical_decision_task_MP,2020.1.3,MacIntel,60,,z,1,0.61791,,,,,,,,0.61791,1,,,,,,276,NW,"ID",50,yarmon,YARMON,z,,,,,,0.06468316,-0.402673611,0,0,0,,0,131,131,335,1,,
,,,,,,,,,,,,,,,,,,5f2bcbf1eb53d868eed230c8,2020-08-08_10h27.59.886,lexical_decision_task_MP,2020.1.3,MacIntel,60,,m,1,0.581105,,,,,,,,0.581105,1,,,,,,70,WORD,UN,33,garden,SQUARE,m,,,,,,0.06468316,-0.402673611,0,0,0,,0,132,132,129,1,,
,,,,,,,,,,,,,,,,,,5f2bcbf1eb53d868eed230c8,2020-08-08_10h27.59.886,lexical_decision_task_MP,2020.1.3,MacIntel,60,,m,1,0.63306,,,,,,,,0.63306,1,,,,,,180,WORD,UN,50,thrive,SILENT,m,,,,,,0.06468316,-0.402673611,0,0,0,,0,133,133,239,1,,
,,,,,,,,,,,,,,,,,,5f2bcbf1eb53d868eed230c8,2020-08-08_10h27.59.886,lexical_decision_task_MP,2020.1.3,MacIntel,60,,z,1,0.69052,,,,,,,,0.69052,1,,,,,,470,NW,"ID",33,crudio,CRUDIO,z,,,,,,0.06468316,-0.402673611,0,0,0,,0,134,134,289,1,,
,,,,,,,,,,,,,,,,,,5f2bcbf1eb53d868eed230c8,2020-08-08_10h27.59.886,lexical_decision_task_MP,2020.1.3,MacIntel,60,,m,1,0.535975,,,,,,,,0.535975,1,,,,,,55,WORD,"ID",50,stroke,STROKE,m,,,,,,0.06468316,-0.402673611,0,0,0,,0,135,135,114,1,,
,,,,,,,,,,,,,,,,,,5f2bcbf1eb53d868eed230c8,2020-08-08_10h27.59.886,lexical_decision_task_MP,2020.1.3,MacIntel,60,,z,1,0.93288,,,,,,,,0.93288,1,,,,,,243,NW,"ID",50,musied,MUSIED,z,,,,,,0.06468316,-0.402673611,0,0,0,,0,136,136,302,1,,
,,,,,,,,,,,,,,,,,,5f2bcbf1eb53d868eed230c8,2020-08-08_10h27.59.886,lexical_decision_task_MP,2020.1.3,MacIntel,60,,z,1,0.649425,,,,,,,,0.649425,1,,,,,,393,NW,UN,50,spaqux,GANOUS,z,,,,,,0.06468316,-0.402673611,0,0,0,,0,137,137,452,1,,
,,,,,,,,,,,,,,,,,,5f2bcbf1eb53d868eed230c8,2020-08-08_10h27.59.886,lexical_decision_task_MP,2020.1.3,MacIntel,60,,m,1,0.60094,,,,,,,,0.60094,1,,,,,,130,WORD,UN,50,quench,STUPID,m,,,,,,0.06468316,-0.402673611,0,0,0,,0,138,138,189,1,,
,,,,,,,,,,,,,,,,,,5f2bcbf1eb53d868eed230c8,2020-08-08_10h27.59.886,lexical_decision_task_MP,2020.1.3,MacIntel,60,,z,1,0.567205,,,,,,,,0.567205,1,,,,,,283,NW,"ID",50,veralf,VERALF,z,,,,,,0.06468316,-0.402673611,0,0,0,,0,139,139,342,1,,
,,,,,,,,,,,,,,,,,,5f2bcbf1eb53d868eed230c8,2020-08-08_10h27.59.886,lexical_decision_task_MP,2020.1.3,MacIntel,60,,m,0,0.464925,,,,,,,,0.464925,0,,,,,,443,NW,"ID",33,dorsex,DORSEX,z,,,,,,0.06468316,-0.402673611,0,0,0,,0,140,140,262,1,,
,,,,,,,,,,,,,,,,,,5f2bcbf1eb53d868eed230c8,2020-08-08_10h27.59.886,lexical_decision_task_MP,2020.1.3,MacIntel,60,,z,0,0.566795,,,,,,,,0.566795,0,,,,,,225,WORD,"ID",33,vulgar,VULGAR,m,,,,,,0.06468316,-0.402673611,0,0,0,,0,141,141,44,1,,
,,,,,,,,,,,,,,,,,,5f2bcbf1eb53d868eed230c8,2020-08-08_10h27.59.886,lexical_decision_task_MP,2020.1.3,MacIntel,60,,m,1,0.62408,,,,,,,,0.62408,1,,,,,,113,WORD,UN,33,placid,CHORUS,m,,,,,,0.06468316,-0.402673611,0,0,0,,0,142,142,172,1,,
,,,,,,,,,,,,,,,,,,5f2bcbf1eb53d868eed230c8,2020-08-08_10h27.59.886,lexical_decision_task_MP,2020.1.3,MacIntel,60,,z,1,0.65279,,,,,,,,0.65279,1,,,,,,381,NW,UN,50,sarley,HUNIEK,z,,,,,,0.06468316,-0.402673611,0,0,0,,0,143,143,440,1,,
,,,,,,,,,,,,,,,,,,5f2bcbf1eb53d868eed230c8,2020-08-08_10h27.59.886,lexical_decision_task_MP,2020.1.3,MacIntel,60,,z,1,0.57071,,,,,,,,0.57071,1,,,,,,309,NW,UN,33,daniet,AMILOY,z,,,,,,0.06468316,-0.402673611,0,0,0,,0,144,144,368,1,,
,,,,,,,,,,,,,,,,,,5f2bcbf1eb53d868eed230c8,2020-08-08_10h27.59.886,lexical_decision_task_MP,2020.1.3,MacIntel,60,,z,1,0.63347,,,,,,,,0.63347,1,,,,,,294,NW,"ID",50,inhort,INHORT,z,,,,,,0.06468316,-0.402673611,0,0,0,,0,145,145,353,1,,
,,,,,,,,,,,,,,,,,,5f2bcbf1eb53d868eed230c8,2020-08-08_10h27.59.886,lexical_decision_task_MP,2020.1.3,MacIntel,60,,m,1,0.619175,,,,,,,,0.619175,1,,,,,,213,WORD,"ID",33,squeal,SQUEAL,m,,,,,,0.06468316,-0.402673611,0,0,0,,0,146,146,32,1,,
,,,,,,,,,,,,,,,,,,5f2bcbf1eb53d868eed230c8,2020-08-08_10h27.59.886,lexical_decision_task_MP,2020.1.3,MacIntel,60,,z,1,0.751445,,,,,,,,0.751445,1,,,,,,387,NW,UN,50,cragin,GRONCE,z,,,,,,0.06468316,-0.402673611,0,0,0,,0,147,147,446,1,,
,,,,,,,,,,,,,,,,,,5f2bcbf1eb53d868eed230c8,2020-08-08_10h27.59.886,lexical_decision_task_MP,2020.1.3,MacIntel,60,,z,1,0.80208,,,,,,,,0.80208,1,,,,,,338,NW,UN,33,fachow,WREASH,z,,,,,,0.06468316,-0.402673611,0,0,0,,0,148,148,397,1,,
,,,,,,,,,,,,,,,,,,5f2bcbf1eb53d868eed230c8,2020-08-08_10h27.59.886,lexical_decision_task_MP,2020.1.3,MacIntel,60,,z,1,0.707005,,,,,,,,0.707005,1,,,,,,374,NW,UN,50,yorque,SLIANT,z,,,,,,0.06468316,-0.402673611,0,0,0,,0,149,149,433,1,,
,,,,,,,,,,,,,,,,,,5f2bcbf1eb53d868eed230c8,2020-08-08_10h27.59.886,lexical_decision_task_MP,2020.1.3,MacIntel,60,,z,1,0.81279,,,,,,,,0.81279,1,,,,,,345,NW,UN,33,saudic,ABSEND,z,,,,,,0.06468316,-0.402673611,0,0,0,,0,150,150,404,1,,
,,,,,,,,,,,,,,,,,,5f2bcbf1eb53d868eed230c8,2020-08-08_10h27.59.886,lexical_decision_task_MP,2020.1.3,MacIntel,60,,m,1,0.88333,,,,,,,,0.88333,1,,,,,,13,WORD,"ID",50,strive,STRIVE,m,,,,,,0.06468316,-0.402673611,0,0,0,,0,151,151,72,1,,
,,,,,,,,,,,,,,,,,,5f2bcbf1eb53d868eed230c8,2020-08-08_10h27.59.886,lexical_decision_task_MP,2020.1.3,MacIntel,60,,z,1,0.623475,,,,,,,,0.623475,1,,,,,,271,NW,"ID",50,aubrid,AUBRID,z,,,,,,0.06468316,-0.402673611,0,0,0,,0,152,152,330,1,,
,,,,,,,,,,,,,,,,,,5f2bcbf1eb53d868eed230c8,2020-08-08_10h27.59.886,lexical_decision_task_MP,2020.1.3,MacIntel,60,,m,1,0.488195,,,,,,,,0.488195,1,,,,,,51,WORD,"ID",50,hungry,HUNGRY,m,,,,,,0.06468316,-0.402673611,0,0,0,,0,153,153,110,1,,
,,,,,,,,,,,,,,,,,,5f2bcbf1eb53d868eed230c8,2020-08-08_10h27.59.886,lexical_decision_task_MP,2020.1.3,MacIntel,60,,m,1,0.819875,,,,,,,,0.819875,1,,,,,,36,WORD,"ID",50,vanish,VANISH,m,,,,,,0.06468316,-0.402673611,0,0,0,,0,154,154,95,1,,
,,,,,,,,,,,,,,,,,,5f2bcbf1eb53d868eed230c8,2020-08-08_10h27.59.886,lexical_decision_task_MP,2020.1.3,MacIntel,60,,z,1,0.62163,,,,,,,,0.62163,1,,,,,,424,NW,"ID",33,praile,PRAILE,z,,,,,,0.06468316,-0.402673611,0,0,0,,0,155,155,243,1,,
,,,,,,,,,,,,,,,,,,5f2bcbf1eb53d868eed230c8,2020-08-08_10h27.59.886,lexical_decision_task_MP,2020.1.3,MacIntel,60,,m,1,0.56715,,,,,,,,0.56715,1,,,,,,218,WORD,"ID",33,shrink,SHRINK,m,,,,,,0.06468316,-0.402673611,0,0,0,,0,156,156,37,1,,
,,,,,,,,,,,,,,,,,,5f2bcbf1eb53d868eed230c8,2020-08-08_10h27.59.886,lexical_decision_task_MP,2020.1.3,MacIntel,60,,m,1,0.870275,,,,,,,,0.870275,1,,,,,,230,WORD,"ID",33,fringe,FRINGE,m,,,,,,0.06468316,-0.402673611,0,0,0,,0,157,157,49,1,,
,,,,,,,,,,,,,,,,,,5f2bcbf1eb53d868eed230c8,2020-08-08_10h27.59.886,lexical_decision_task_MP,2020.1.3,MacIntel,60,,m,1,0.61726,,,,,,,,0.61726,1,,,,,,14,WORD,"ID",50,almost,ALMOST,m,,,,,,0.06468316,-0.402673611,0,0,0,,0,158,158,73,1,,
,,,,,,,,,,,,,,,,,,5f2bcbf1eb53d868eed230c8,2020-08-08_10h27.59.886,lexical_decision_task_MP,2020.1.3,MacIntel,60,,m,1,0.61675,,,,,,,,0.61675,1,,,,,,187,WORD,"ID",33,course,COURSE,m,,,,,,0.06468316,-0.402673611,0,0,0,,0,159,159,6,1,,
,,,,,,,,,,,,,,,,,,5f2bcbf1eb53d868eed230c8,2020-08-08_10h27.59.886,lexical_decision_task_MP,2020.1.3,MacIntel,60,,z,1,1.03608,,,,,,,,1.03608,1,,,,,,252,NW,"ID",50,stapod,STAPOD,z,,,,,,0.06468316,-0.402673611,0,0,0,,0,160,160,311,1,,
,,,,,,,,,,,,,,,,,,5f2bcbf1eb53d868eed230c8,2020-08-08_10h27.59.886,lexical_decision_task_MP,2020.1.3,MacIntel,60,,m,1,0.58813,,,,,,,,0.58813,1,,,,,,128,WORD,UN,50,marvel,SENIOR,m,,,,,,0.06468316,-0.402673611,0,0,0,,0,161,161,187,1,,
,,,,,,,,,,,,,,,,,,5f2bcbf1eb53d868eed230c8,2020-08-08_10h27.59.886,lexical_decision_task_MP,2020.1.3,MacIntel,60,,z,1,0.99922,,,,,,,,0.99922,1,,,,,,467,NW,"ID",33,gorbie,GORBIE,z,,,,,,0.06468316,-0.402673611,0,0,0,,0,162,162,286,1,,
,,,,,,,,,,,,,,,,,,5f2bcbf1eb53d868eed230c8,2020-08-08_10h27.59.886,lexical_decision_task_MP,2020.1.3,MacIntel,60,,z,0,0.550855,,,,,,,,0.550855,0,,,,,,239,WORD,"ID",33,lumber,LUMBER,m,,,,,,0.06468316,-0.402673611,0,0,0,,0,163,163,58,1,,
,,,,,,,,,,,,,,,,,,5f2bcbf1eb53d868eed230c8,2020-08-08_10h27.59.886,lexical_decision_task_MP,2020.1.3,MacIntel,60,,m,1,0.58461,,,,,,,,0.58461,1,,,,,,192,WORD,"ID",33,plague,PLAGUE,m,,,,,,0.06468316,-0.402673611,0,0,0,,0,164,164,11,1,,
,,,,,,,,,,,,,,,,,,5f2bcbf1eb53d868eed230c8,2020-08-08_10h27.59.886,lexical_decision_task_MP,2020.1.3,MacIntel,60,,m,1,0.6833,,,,,,,,0.6833,1,,,,,,193,WORD,"ID",33,object,OBJECT,m,,,,,,0.06468316,-0.402673611,0,0,0,,0,165,165,12,1,,
,,,,,,,,,,,,,,,,,,5f2bcbf1eb53d868eed230c8,2020-08-08_10h27.59.886,lexical_decision_task_MP,2020.1.3,MacIntel,60,,z,1,0.615825,,,,,,,,0.615825,1,,,,,,375,NW,UN,50,iguare,YORQUE,z,,,,,,0.06468316,-0.402673611,0,0,0,,0,166,166,434,1,,
,,,,,,,,,,,,,,,,,,5f2bcbf1eb53d868eed230c8,2020-08-08_10h27.59.886,lexical_decision_task_MP,2020.1.3,MacIntel,60,,m,1,0.53388,,,,,,,,0.53388,1,,,,,,186,WORD,"ID",33,portal,PORTAL,m,,,,,,0.06468316,-0.402673611,0,0,0,,0,167,167,5,1,,
,,,,,,,,,,,,,,,,,,5f2bcbf1eb53d868eed230c8,2020-08-08_10h27.59.886,lexical_decision_task_MP,2020.1.3,MacIntel,60,,z,1,0.689035,,,,,,,,0.689035,1,,,,,,260,NW,"ID",50,unject,UNJECT,z,,,,,,0.06468316,-0.402673611,0,0,0,,0,168,168,319,1,,
,,,,,,,,,,,,,,,,,,5f2bcbf1eb53d868eed230c8,2020-08-08_10h27.59.886,lexical_decision_task_MP,2020.1.3,MacIntel,60,,m,1,0.715415,,,,,,,,0.715415,1,,,,,,236,WORD,"ID",33,pirate,PIRATE,m,,,,,,0.06468316,-0.402673611,0,0,0,,0,169,169,55,1,,
,,,,,,,,,,,,,,,,,,5f2bcbf1eb53d868eed230c8,2020-08-08_10h27.59.886,lexical_decision_task_MP,2020.1.3,MacIntel,60,,z,1,0.500105,,,,,,,,0.500105,1,,,,,,371,NW,UN,50,ramily,GEILOY,z,,,,,,0.06468316,-0.402673611,0,0,0,,0,170,170,430,1,,
,,,,,,,,,,,,,,,,,,5f2bcbf1eb53d868eed230c8,2020-08-08_10h27.59.886,lexical_decision_task_MP,2020.1.3,MacIntel,60,,z,1,0.768575,,,,,,,,0.768575,1,,,,,,318,NW,UN,33,zomber,REAGLY,z,,,,,,0.06468316,-0.402673611,0,0,0,,0,171,171,377,1,,
,,,,,,,,,,,,,,,,,,5f2bcbf1eb53d868eed230c8,2020-08-08_10h27.59.886,lexical_decision_task_MP,2020.1.3,MacIntel,60,,z,1,0.53335,,,,,,,,0.53335,1,,,,,,359,NW,UN,33,desory,FONVER,z,,,,,,0.06468316,-0.402673611,0,0,0,,0,172,172,418,1,,
,,,,,,,,,,,,,,,,,,5f2bcbf1eb53d868eed230c8,2020-08-08_10h27.59.886,lexical_decision_task_MP,2020.1.3,MacIntel,60,,z,1,0.47369,,,,,,,,0.47369,1,,,,,,339,NW,UN,33,fiatch,FACHOW,z,,,,,,0.06468316,-0.402673611,0,0,0,,0,173,173,398,1,,
,,,,,,,,,,,,,,,,,,5f2bcbf1eb53d868eed230c8,2020-08-08_10h27.59.886,lexical_decision_task_MP,2020.1.3,MacIntel,60,,z,1,0.557435,,,,,,,,0.557435,1,,,,,,478,NW,"ID",33,acrise,ACRISE,z,,,,,,0.06468316,-0.402673611,0,0,0,,0,174,174,297,1,,
,,,,,,,,,,,,,,,,,,5f2bcbf1eb53d868eed230c8,2020-08-08_10h27.59.886,lexical_decision_task_MP,2020.1.3,MacIntel,60,,z,1,0.985835,,,,,,,,0.985835,1,,,,,,468,NW,"ID",33,wictor,WICTOR,z,,,,,,0.06468316,-0.402673611,0,0,0,,0,175,175,287,1,,
,,,,,,,,,,,,,,,,,,5f2bcbf1eb53d868eed230c8,2020-08-08_10h27.59.886,lexical_decision_task_MP,2020.1.3,MacIntel,60,,z,1,0.63694,,,,,,,,0.63694,1,,,,,,440,NW,"ID",33,saride,SARIDE,z,,,,,,0.06468316,-0.402673611,0,0,0,,0,176,176,259,1,,
,,,,,,,,,,,,,,,,,,5f2bcbf1eb53d868eed230c8,2020-08-08_10h27.59.886,lexical_decision_task_MP,2020.1.3,MacIntel,60,,m,1,0.56445,,,,,,,,0.56445,1,,,,,,235,WORD,"ID",33,grumpy,GRUMPY,m,,,,,,0.06468316,-0.402673611,0,0,0,,0,177,177,54,1,,
,,,,,,,,,,,,,,,,,,5f2bcbf1eb53d868eed230c8,2020-08-08_10h27.59.886,lexical_decision_task_MP,2020.1.3,MacIntel,60,,m,0,0.75336,,,,,,,,0.75336,0,,,,,,476,NW,"ID",33,josted,JOSTED,z,,,,,,0.06468316,-0.402673611,0,0,0,,0,178,178,295,1,,
,,,,,,,,,,,,,,,,,,5f2bcbf1eb53d868eed230c8,2020-08-08_10h27.59.886,lexical_decision_task_MP,2020.1.3,MacIntel,60,,m,1,0.57213,,,,,,,,0.57213,1,,,,,,61,WORD,UN,33,region,PONDER,m,,,,,,0.06468316,-0.402673611,0,0,0,,0,179,179,120,1,,
,,,,,,,,,,,,,,,,,,5f2bcbf1eb53d868eed230c8,2020-08-08_10h27.59.886,lexical_decision_task_MP,2020.1.3,MacIntel,60,,m,1,0.73235,,,,,,,,0.73235,1,,,,,,115,WORD,UN,33,tumble,GUITAR,m,,,,,,0.06468316,-0.402673611,0,0,0,,0,180,180,174,1,,
,,,,,,,,,,,,,,,,,,5f2bcbf1eb53d868eed230c8,2020-08-08_10h27.59.886,lexical_decision_task_MP,2020.1.3,MacIntel,60,,m,1,0.649085,,,,,,,,0.649085,1,,,,,,85,WORD,UN,33,rodent,SPRAWL,m,,,,,,0.06468316,-0.402673611,0,0,0,,0,181,181,144,1,,
,,,,,,,,,,,,,,,,,,5f2bcbf1eb53d868eed230c8,2020-08-08_10h27.59.886,lexical_decision_task_MP,2020.1.3,MacIntel,60,,m,1,0.63132,,,,,,,,0.63132,1,,,,,,67,WORD,UN,33,fumble,POLICY,m,,,,,,0.06468316,-0.402673611,0,0,0,,0,182,182,126,1,,
,,,,,,,,,,,,,,,,,,5f2bcbf1eb53d868eed230c8,2020-08-08_10h27.59.886,lexical_decision_task_MP,2020.1.3,MacIntel,60,,z,1,0.64796,,,,,,,,0.64796,1,,,,,,256,NW,"ID",50,inlors,INLORS,z,,,,,,0.06468316,-0.402673611,0,0,0,,0,183,183,315,1,,
,,,,,,,,,,,,,,,,,,5f2bcbf1eb53d868eed230c8,2020-08-08_10h27.59.886,lexical_decision_task_MP,2020.1.3,MacIntel,60,,z,1,1.183555,,,,,,,,1.183555,1,,,,,,314,NW,UN,33,laston,SPRINE,z,,,,,,0.06468316,-0.402673611,0,0,0,,0,184,184,373,1,,
,,,,,,,,,,,,,,,,,,5f2bcbf1eb53d868eed230c8,2020-08-08_10h27.59.886,lexical_decision_task_MP,2020.1.3,MacIntel,60,,z,1,0.92684,,,,,,,,0.92684,1,,,,,,364,NW,UN,50,guairt,IMPOTE,z,,,,,,0.06468316,-0.402673611,0,0,0,,0,185,185,423,1,,
,,,,,,,,,,,,,,,,,,5f2bcbf1eb53d868eed230c8,2020-08-08_10h27.59.886,lexical_decision_task_MP,2020.1.3,MacIntel,60,,z,1,0.63344,,,,,,,,0.63344,1,,,,,,435,NW,"ID",33,impurb,IMPURB,z,,,,,,0.06468316,-0.402673611,0,0,0,,0,186,186,254,1,,
,,,,,,,,,,,,,,,,,,5f2bcbf1eb53d868eed230c8,2020-08-08_10h27.59.886,lexical_decision_task_MP,2020.1.3,MacIntel,60,,z,1,0.77268,,,,,,,,0.77268,1,,,,,,368,NW,UN,50,wronch,HORNAL,z,,,,,,0.06468316,-0.402673611,0,0,0,,0,187,187,427,1,,
,,,,,,,,,,,,,,,,,,5f2bcbf1eb53d868eed230c8,2020-08-08_10h27.59.886,lexical_decision_task_MP,2020.1.3,MacIntel,60,,z,1,0.62114,,,,,,,,0.62114,1,,,,,,409,NW,UN,50,tunory,ELOPIA,z,,,,,,0.06468316,-0.402673611,0,0,0,,0,188,188,468,1,,
,,,,,,,,,,,,,,,,,,5f2bcbf1eb53d868eed230c8,2020-08-08_10h27.59.886,lexical_decision_task_MP,2020.1.3,MacIntel,60,,z,1,0.448405,,,,,,,,0.448405,1,,,,,,330,NW,UN,33,gilfew,KENSOM,z,,,,,,0.06468316,-0.402673611,0,0,0,,0,189,189,389,1,,
,,,,,,,,,,,,,,,,,,5f2bcbf1eb53d868eed230c8,2020-08-08_10h27.59.886,lexical_decision_task_MP,2020.1.3,MacIntel,60,,z,1,0.648275,,,,,,,,0.648275,1,,,,,,328,NW,UN,33,yarike,BROAKE,z,,,,,,0.06468316,-0.402673611,0,0,0,,0,190,190,387,1,,
,,,,,,,,,,,,,,,,,,5f2bcbf1eb53d868eed230c8,2020-08-08_10h27.59.886,lexical_decision_task_MP,2020.1.3,MacIntel,60,,m,1,0.73273,,,,,,,,0.73273,1,,,,,,211,WORD,"ID",33,infect,INFECT,m,,,,,,0.06468316,-0.402673611,0,0,0,,0,191,191,30,1,,
,,,,,,,,,,,,,,,,,,5f2bcbf1eb53d868eed230c8,2020-08-08_10h27.59.886,lexical_decision_task_MP,2020.1.3,MacIntel,60,,m,1,1.32068,,,,,,,,1.32068,1,,,,,,7,WORD,"ID",50,anchor,ANCHOR,m,,,,,,0.06468316,-0.402673611,0,0,0,,0,192,192,66,1,,
,,,,,,,,,,,,,,,,,,5f2bcbf1eb53d868eed230c8,2020-08-08_10h27.59.886,lexical_decision_task_MP,2020.1.3,MacIntel,60,,m,1,1.09982,,,,,,,,1.09982,1,,,,,,109,WORD,UN,33,polite,WONDER,m,,,,,,0.06468316,-0.402673611,0,0,0,,0,193,193,168,1,,
,,,,,,,,,,,,,,,,,,5f2bcbf1eb53d868eed230c8,2020-08-08_10h27.59.886,lexical_decision_task_MP,2020.1.3,MacIntel,60,,m,1,0.519735,,,,,,,,0.519735,1,,,,,,37,WORD,"ID",50,insult,INSULT,m,,,,,,0.06468316,-0.402673611,0,0,0,,0,194,194,96,1,,
,,,,,,,,,,,,,,,,,,5f2bcbf1eb53d868eed230c8,2020-08-08_10h27.59.886,lexical_decision_task_MP,2020.1.3,MacIntel,60,,m,1,0.482665,,,,,,,,0.482665,1,,,,,,174,WORD,UN,50,fabric,TURKEY,m,,,,,,0.06468316,-0.402673611,0,0,0,,0,195,195,233,1,,
,,,,,,,,,,,,,,,,,,5f2bcbf1eb53d868eed230c8,2020-08-08_10h27.59.886,lexical_decision_task_MP,2020.1.3,MacIntel,60,,z,1,0.71698,,,,,,,,0.71698,1,,,,,,441,NW,"ID",33,rastoe,RASTOE,z,,,,,,0.06468316,-0.402673611,0,0,0,,0,196,196,260,1,,
,,,,,,,,,,,,,,,,,,5f2bcbf1eb53d868eed230c8,2020-08-08_10h27.59.886,lexical_decision_task_MP,2020.1.3,MacIntel,60,,z,1,1.016525,,,,,,,,1.016525,1,,,,,,370,NW,UN,50,geiloy,SLEACT,z,,,,,,0.06468316,-0.402673611,0,0,0,,0,197,197,429,1,,
,,,,,,,,,,,,,,,,,,5f2bcbf1eb53d868eed230c8,2020-08-08_10h27.59.886,lexical_decision_task_MP,2020.1.3,MacIntel,60,,z,0,0.396855,,,,,,,,0.396855,0,,,,,,12,WORD,"ID",50,orange,ORANGE,m,,,,,,0.06468316,-0.402673611,0,0,0,,0,198,198,71,1,,
,,,,,,,,,,,,,,,,,,5f2bcbf1eb53d868eed230c8,2020-08-08_10h27.59.886,lexical_decision_task_MP,2020.1.3,MacIntel,60,,z,1,0.55245,,,,,,,,0.55245,1,,,,,,241,NW,"ID",50,smenco,SMENCO,z,,,,,,0.06468316,-0.402673611,0,0,0,,0,199,199,300,1,,
,,,,,,,,,,,,,,,,,,5f2bcbf1eb53d868eed230c8,2020-08-08_10h27.59.886,lexical_decision_task_MP,2020.1.3,MacIntel,60,,m,1,0.534305,,,,,,,,0.534305,1,,,,,,58,WORD,"ID",50,foster,FOSTER,m,,,,,,0.06468316,-0.402673611,0,0,0,,0,200,200,117,1,,
,,,,,,,,,,,,,,,,,,5f2bcbf1eb53d868eed230c8,2020-08-08_10h27.59.886,lexical_decision_task_MP,2020.1.3,MacIntel,60,,m,1,0.482965,,,,,,,,0.482965,1,,,,,,22,WORD,"ID",50,jockey,JOCKEY,m,,,,,,0.06468316,-0.402673611,0,0,0,,0,201,201,81,1,,
,,,,,,,,,,,,,,,,,,5f2bcbf1eb53d868eed230c8,2020-08-08_10h27.59.886,lexical_decision_task_MP,2020.1.3,MacIntel,60,,m,1,0.538745,,,,,,,,0.538745,1,,,,,,143,WORD,UN,50,sponge,REASON,m,,,,,,0.06468316,-0.402673611,0,0,0,,0,202,202,202,1,,
,,,,,,,,,,,,,,,,,,5f2bcbf1eb53d868eed230c8,2020-08-08_10h27.59.886,lexical_decision_task_MP,2020.1.3,MacIntel,60,,m,1,0.689815,,,,,,,,0.689815,1,,,,,,30,WORD,"ID",50,orient,ORIENT,m,,,,,,0.06468316,-0.402673611,0,0,0,,0,203,203,89,1,,
,,,,,,,,,,,,,,,,,,5f2bcbf1eb53d868eed230c8,2020-08-08_10h27.59.886,lexical_decision_task_MP,2020.1.3,MacIntel,60,,m,1,1.088165,,,,,,,,1.088165,1,,,,,,93,WORD,UN,33,travel,PUBLIC,m,,,,,,0.06468316,-0.402673611,0,0,0,,0,204,204,152,1,,
,,,,,,,,,,,,,,,,,,5f2bcbf1eb53d868eed230c8,2020-08-08_10h27.59.886,lexical_decision_task_MP,2020.1.3,MacIntel,60,,z,0,1.08879,,,,,,,,1.08879,0,,,,,,122,WORD,UN,50,strike,LINGER,m,,,,,,0.06468316,-0.402673611,0,0,0,,0,205,205,181,1,,
,,,,,,,,,,,,,,,,,,5f2bcbf1eb53d868eed230c8,2020-08-08_10h27.59.886,lexical_decision_task_MP,2020.1.3,MacIntel,60,,m,1,0.75173,,,,,,,,0.75173,1,,,,,,206,WORD,"ID",33,tailor,TAILOR,m,,,,,,0.06468316,-0.402673611,0,0,0,,0,206,206,25,1,,
,,,,,,,,,,,,,,,,,,5f2bcbf1eb53d868eed230c8,2020-08-08_10h27.59.886,lexical_decision_task_MP,2020.1.3,MacIntel,60,,z,1,0.68995,,,,,,,,0.68995,1,,,,,,350,NW,UN,33,tiesch,NAGURS,z,,,,,,0.06468316,-0.402673611,0,0,0,,0,207,207,409,1,,
,,,,,,,,,,,,,,,,,,5f2bcbf1eb53d868eed230c8,2020-08-08_10h27.59.886,lexical_decision_task_MP,2020.1.3,MacIntel,60,,m,1,0.655485,,,,,,,,0.655485,1,,,,,,148,WORD,UN,50,invade,CUSTOM,m,,,,,,0.06468316,-0.402673611,0,0,0,,0,208,208,207,1,,
,,,,,,,,,,,,,,,,,,5f2bcbf1eb53d868eed230c8,2020-08-08_10h27.59.886,lexical_decision_task_MP,2020.1.3,MacIntel,60,,z,1,0.72258,,,,,,,,0.72258,1,,,,,,480,NW,"ID",33,robuly,ROBULY,z,,,,,,0.06468316,-0.402673611,0,0,0,,0,209,209,299,1,,
,,,,,,,,,,,,,,,,,,5f2bcbf1eb53d868eed230c8,2020-08-08_10h27.59.886,lexical_decision_task_MP,2020.1.3,MacIntel,60,,m,1,1.018715,,,,,,,,1.018715,1,,,,,,56,WORD,"ID",50,ambush,AMBUSH,m,,,,,,0.06468316,-0.402673611,0,0,0,,0,210,210,115,1,,
,,,,,,,,,,,,,,,,,,5f2bcbf1eb53d868eed230c8,2020-08-08_10h27.59.886,lexical_decision_task_MP,2020.1.3,MacIntel,60,,m,1,0.743185,,,,,,,,0.743185,1,,,,,,175,WORD,UN,50,strife,FABRIC,m,,,,,,0.06468316,-0.402673611,0,0,0,,0,211,211,234,1,,
,,,,,,,,,,,,,,,,,,5f2bcbf1eb53d868eed230c8,2020-08-08_10h27.59.886,lexical_decision_task_MP,2020.1.3,MacIntel,60,,z,1,0.92298,,,,,,,,0.92298,1,,,,,,255,NW,"ID",50,apight,APIGHT,z,,,,,,0.06468316,-0.402673611,0,0,0,,0,212,212,314,1,,
,,,,,,,,,,,,,,,,,,5f2bcbf1eb53d868eed230c8,2020-08-08_10h27.59.886,lexical_decision_task_MP,2020.1.3,MacIntel,60,,z,1,0.71784,,,,,,,,0.71784,1,,,,,,310,NW,UN,33,sproly,DANIET,z,,,,,,0.06468316,-0.402673611,0,0,0,,0,213,213,369,1,,
,,,,,,,,,,,,,,,,,,5f2bcbf1eb53d868eed230c8,2020-08-08_10h27.59.886,lexical_decision_task_MP,2020.1.3,MacIntel,60,,z,1,0.601615,,,,,,,,0.601615,1,,,,,,340,NW,UN,33,myrtie,FIATCH,z,,,,,,0.06468316,-0.402673611,0,0,0,,0,214,214,399,1,,
,,,,,,,,,,,,,,,,,,5f2bcbf1eb53d868eed230c8,2020-08-08_10h27.59.886,lexical_decision_task_MP,2020.1.3,MacIntel,60,,z,1,0.61455,,,,,,,,0.61455,1,,,,,,321,NW,UN,33,slanch,MIATOR,z,,,,,,0.06468316,-0.402673611,0,0,0,,0,215,215,380,1,,
,,,,,,,,,,,,,,,,,,5f2bcbf1eb53d868eed230c8,2020-08-08_10h27.59.886,lexical_decision_task_MP,2020.1.3,MacIntel,60,,z,1,0.758945,,,,,,,,0.758945,1,,,,,,404,NW,UN,50,flumni,CLUIRM,z,,,,,,0.06468316,-0.402673611,0,0,0,,0,216,216,463,1,,
,,,,,,,,,,,,,,,,,,5f2bcbf1eb53d868eed230c8,2020-08-08_10h27.59.886,lexical_decision_task_MP,2020.1.3,MacIntel,60,,m,1,0.63145,,,,,,,,0.63145,1,,,,,,35,WORD,"ID",50,socket,SOCKET,m,,,,,,0.06468316,-0.402673611,0,0,0,,0,217,217,94,1,,
,,,,,,,,,,,,,,,,,,5f2bcbf1eb53d868eed230c8,2020-08-08_10h27.59.886,lexical_decision_task_MP,2020.1.3,MacIntel,60,,m,1,0.54564,,,,,,,,0.54564,1,,,,,,167,WORD,UN,50,answer,DESIGN,m,,,,,,0.06468316,-0.402673611,0,0,0,,0,218,218,226,1,,
,,,,,,,,,,,,,,,,,,5f2bcbf1eb53d868eed230c8,2020-08-08_10h27.59.886,lexical_decision_task_MP,2020.1.3,MacIntel,60,,m,1,0.50521,,,,,,,,0.50521,1,,,,,,121,WORD,UN,50,linger,THRIVE,m,,,,,,0.06468316,-0.402673611,0,0,0,,0,219,219,180,1,,
,,,,,,,,,,,,,,,,,,5f2bcbf1eb53d868eed230c8,2020-08-08_10h27.59.886,lexical_decision_task_MP,2020.1.3,MacIntel,60,,m,1,0.650955,,,,,,,,0.650955,1,,,,,,224,WORD,"ID",33,period,PERIOD,m,,,,,,0.06468316,-0.402673611,0,0,0,,0,220,220,43,1,,
,,,,,,,,,,,,,,,,,,5f2bcbf1eb53d868eed230c8,2020-08-08_10h27.59.886,lexical_decision_task_MP,2020.1.3,MacIntel,60,,z,1,0.673015,,,,,,,,0.673015,1,,,,,,311,NW,UN,33,nerawl,SPROLY,z,,,,,,0.06468316,-0.402673611,0,0,0,,0,221,221,370,1,,
,,,,,,,,,,,,,,,,,,5f2bcbf1eb53d868eed230c8,2020-08-08_10h27.59.886,lexical_decision_task_MP,2020.1.3,MacIntel,60,,m,1,0.56858,,,,,,,,0.56858,1,,,,,,160,WORD,UN,50,pastor,VIOLET,m,,,,,,0.06468316,-0.402673611,0,0,0,,0,222,222,219,1,,
,,,,,,,,,,,,,,,,,,5f2bcbf1eb53d868eed230c8,2020-08-08_10h27.59.886,lexical_decision_task_MP,2020.1.3,MacIntel,60,,m,1,0.7358,,,,,,,,0.7358,1,,,,,,163,WORD,UN,50,market,STRING,m,,,,,,0.06468316,-0.402673611,0,0,0,,0,223,223,222,1,,
,,,,,,,,,,,,,,,,,,5f2bcbf1eb53d868eed230c8,2020-08-08_10h27.59.886,lexical_decision_task_MP,2020.1.3,MacIntel,60,,z,1,1.015415,,,,,,,,1.015415,1,,,,,,405,NW,UN,50,nouply,FLUMNI,z,,,,,,0.06468316,-0.402673611,0,0,0,,0,224,224,464,1,,
,,,,,,,,,,,,,,,,,,5f2bcbf1eb53d868eed230c8,2020-08-08_10h27.59.886,lexical_decision_task_MP,2020.1.3,MacIntel,60,,z,1,1.057545,,,,,,,,1.057545,1,,,,,,380,NW,UN,50,huniek,CAVORY,z,,,,,,0.06468316,-0.402673611,0,0,0,,0,225,225,439,1,,
,,,,,,,,,,,,,,,,,,5f2bcbf1eb53d868eed230c8,2020-08-08_10h27.59.886,lexical_decision_task_MP,2020.1.3,MacIntel,60,,m,1,0.6722,,,,,,,,0.6722,1,,,,,,118,WORD,UN,33,spider,FLIGHT,m,,,,,,0.06468316,-0.402673611,0,0,0,,0,226,226,177,1,,
,,,,,,,,,,,,,,,,,,5f2bcbf1eb53d868eed230c8,2020-08-08_10h27.59.886,lexical_decision_task_MP,2020.1.3,MacIntel,60,,m,1,0.734155,,,,,,,,0.734155,1,,,,,,140,WORD,UN,50,chrome,PRINCE,m,,,,,,0.06468316,-0.402673611,0,0,0,,0,227,227,199,1,,
,,,,,,,,,,,,,,,,,,5f2bcbf1eb53d868eed230c8,2020-08-08_10h27.59.886,lexical_decision_task_MP,2020.1.3,MacIntel,60,,m,1,0.4511,,,,,,,,0.4511,1,,,,,,41,WORD,"ID",50,spring,SPRING,m,,,,,,0.06468316,-0.402673611,0,0,0,,0,228,228,100,1,,
,,,,,,,,,,,,,,,,,,5f2bcbf1eb53d868eed230c8,2020-08-08_10h27.59.886,lexical_decision_task_MP,2020.1.3,MacIntel,60,,m,1,0.524635,,,,,,,,0.524635,1,,,,,,100,WORD,UN,33,wrench,CARBON,m,,,,,,0.06468316,-0.402673611,0,0,0,,0,229,229,159,1,,
,,,,,,,,,,,,,,,,,,5f2bcbf1eb53d868eed230c8,2020-08-08_10h27.59.886,lexical_decision_task_MP,2020.1.3,MacIntel,60,,m,1,0.456545,,,,,,,,0.456545,1,,,,,,23,WORD,"ID",50,wealth,WEALTH,m,,,,,,0.06468316,-0.402673611,0,0,0,,0,230,230,82,1,,
,,,,,,,,,,,,,,,,,,5f2bcbf1eb53d868eed230c8,2020-08-08_10h27.59.886,lexical_decision_task_MP,2020.1.3,MacIntel,60,,z,1,0.60488,,,,,,,,0.60488,1,,,,,,455,NW,"ID",33,tondle,TONDLE,z,,,,,,0.06468316,-0.402673611,0,0,0,,0,231,231,274,1,,
,,,,,,,,,,,,,,,,,,5f2bcbf1eb53d868eed230c8,2020-08-08_10h27.59.886,lexical_decision_task_MP,2020.1.3,MacIntel,60,,m,1,1.09227,,,,,,,,1.09227,1,,,,,,8,WORD,"ID",50,abrupt,ABRUPT,m,,,,,,0.06468316,-0.402673611,0,0,0,,0,232,232,67,1,,
,,,,,,,,,,,,,,,,,,5f2bcbf1eb53d868eed230c8,2020-08-08_10h27.59.886,lexical_decision_task_MP,2020.1.3,MacIntel,60,,z,1,0.63725,,,,,,,,0.63725,1,,,,,,263,NW,"ID",50,dolica,DOLICA,z,,,,,,0.06468316,-0.402673611,0,0,0,,0,233,233,322,1,,
,,,,,,,,,,,,,,,,,,5f2bcbf1eb53d868eed230c8,2020-08-08_10h27.59.886,lexical_decision_task_MP,2020.1.3,MacIntel,60,,z,1,0.750945,,,,,,,,0.750945,1,,,,,,416,NW,UN,50,earoud,PATHEL,z,,,,,,0.06468316,-0.402673611,0,0,0,,0,234,234,475,1,,
,,,,,,,,,,,,,,,,,,5f2bcbf1eb53d868eed230c8,2020-08-08_10h27.59.886,lexical_decision_task_MP,2020.1.3,MacIntel,60,,z,1,0.591985,,,,,,,,0.591985,1,,,,,,423,NW,"ID",33,streld,STRELD,z,,,,,,0.06468316,-0.402673611,0,0,0,,0,235,235,242,1,,
,,,,,,,,,,,,,,,,,,5f2bcbf1eb53d868eed230c8,2020-08-08_10h27.59.886,lexical_decision_task_MP,2020.1.3,MacIntel,60,,m,1,0.61838,,,,,,,,0.61838,1,,,,,,137,WORD,UN,50,melody,FINGER,m,,,,,,0.06468316,-0.402673611,0,0,0,,0,236,236,196,1,,
,,,,,,,,,,,,,,,,,,5f2bcbf1eb53d868eed230c8,2020-08-08_10h27.59.886,lexical_decision_task_MP,2020.1.3,MacIntel,60,,m,1,0.568645,,,,,,,,0.568645,1,,,,,,129,WORD,UN,50,stupid,MARVEL,m,,,,,,0.06468316,-0.402673611,0,0,0,,0,237,237,188,1,,
,,,,,,,,,,,,,,,,,,5f2bcbf1eb53d868eed230c8,2020-08-08_10h27.59.886,lexical_decision_task_MP,2020.1.3,MacIntel,60,,m,1,0.56897,,,,,,,,0.56897,1,,,,,,69,WORD,UN,33,square,PLENTY,m,,,,,,0.06468316,-0.402673611,0,0,0,,0,238,238,128,1,,
,,,,,,,,,,,,,,,,,,5f2bcbf1eb53d868eed230c8,2020-08-08_10h27.59.886,lexical_decision_task_MP,2020.1.3,MacIntel,60,,m,1,0.64841,,,,,,,,0.64841,1,,,,,,96,WORD,UN,33,client,IGNORE,m,,,,,,0.06468316,-0.402673611,0,0,0,,0,239,239,155,1,,
,,,,,,,,,,,,,,,,,,5f2bcbf1eb53d868eed230c8,2020-08-08_10h27.59.886,lexical_decision_task_MP,2020.1.3,MacIntel,60,,z,1,0.75969,,,,,,,,0.75969,1,,,,,,273,NW,"ID",50,sortel,SORTEL,z,,,,,,0.06468316,-0.402673611,0,0,0,,0,240,240,332,1,,
,,,,,,,,,,,,,,,,,,5f2bcbf1eb53d868eed230c8,2020-08-08_10h27.59.886,lexical_decision_task_MP,2020.1.3,MacIntel,60,,z,1,0.96622,,,,,,,,0.96622,1,,,,,,396,NW,UN,50,camble,FLENGY,z,,,,,,0.079570313,-0.407322049,1,0,0,,0,241,241,455,1,,break_done_button
,,,,,,,,,,,,,,,,,,5f2bcbf1eb53d868eed230c8,2020-08-08_10h27.59.886,lexical_decision_task_MP,2020.1.3,MacIntel,60,,m,1,1.80309,,,,,,,,1.80309,1,,,,,,74,WORD,UN,33,trophy,PLAQUE,m,,,,,,0.081289062,-0.407604167,0,0,0,,0,242,242,133,1,,
,,,,,,,,,,,,,,,,,,5f2bcbf1eb53d868eed230c8,2020-08-08_10h27.59.886,lexical_decision_task_MP,2020.1.3,MacIntel,60,,m,1,0.605295,,,,,,,,0.605295,1,,,,,,220,WORD,"ID",33,voyage,VOYAGE,m,,,,,,0.081289062,-0.407604167,0,0,0,,0,243,243,39,1,,
,,,,,,,,,,,,,,,,,,5f2bcbf1eb53d868eed230c8,2020-08-08_10h27.59.886,lexical_decision_task_MP,2020.1.3,MacIntel,60,,z,0,0.668245,,,,,,,,0.668245,0,,,,,,16,WORD,"ID",50,faucet,FAUCET,m,,,,,,0.081289062,-0.407604167,0,0,0,,0,244,244,75,1,,
,,,,,,,,,,,,,,,,,,5f2bcbf1eb53d868eed230c8,2020-08-08_10h27.59.886,lexical_decision_task_MP,2020.1.3,MacIntel,60,,z,1,0.735595,,,,,,,,0.735595,1,,,,,,299,NW,"ID",50,sturch,STURCH,z,,,,,,0.081289062,-0.407604167,0,0,0,,0,245,245,358,1,,
,,,,,,,,,,,,,,,,,,5f2bcbf1eb53d868eed230c8,2020-08-08_10h27.59.886,lexical_decision_task_MP,2020.1.3,MacIntel,60,,m,0,0.740055,,,,,,,,0.740055,0,,,,,,413,NW,UN,50,serbol,EQUATS,z,,,,,,0.081289062,-0.407604167,0,0,0,,0,246,246,472,1,,
,,,,,,,,,,,,,,,,,,5f2bcbf1eb53d868eed230c8,2020-08-08_10h27.59.886,lexical_decision_task_MP,2020.1.3,MacIntel,60,,m,1,0.588755,,,,,,,,0.588755,1,,,,,,176,WORD,UN,50,advent,STRIFE,m,,,,,,0.081289062,-0.407604167,0,0,0,,0,247,247,235,1,,
,,,,,,,,,,,,,,,,,,5f2bcbf1eb53d868eed230c8,2020-08-08_10h27.59.886,lexical_decision_task_MP,2020.1.3,MacIntel,60,,m,1,0.464855,,,,,,,,0.464855,1,,,,,,20,WORD,"ID",50,breast,BREAST,m,,,,,,0.081289062,-0.407604167,0,0,0,,0,248,248,79,1,,
,,,,,,,,,,,,,,,,,,5f2bcbf1eb53d868eed230c8,2020-08-08_10h27.59.886,lexical_decision_task_MP,2020.1.3,MacIntel,60,,m,1,0.437665,,,,,,,,0.437665,1,,,,,,168,WORD,UN,50,genius,ANSWER,m,,,,,,0.081289062,-0.407604167,0,0,0,,0,249,249,227,1,,
,,,,,,,,,,,,,,,,,,5f2bcbf1eb53d868eed230c8,2020-08-08_10h27.59.886,lexical_decision_task_MP,2020.1.3,MacIntel,60,,z,1,0.752455,,,,,,,,0.752455,1,,,,,,464,NW,"ID",33,chaite,CHAITE,z,,,,,,0.081289062,-0.407604167,0,0,0,,0,250,250,283,1,,
,,,,,,,,,,,,,,,,,,5f2bcbf1eb53d868eed230c8,2020-08-08_10h27.59.886,lexical_decision_task_MP,2020.1.3,MacIntel,60,,m,1,0.65196,,,,,,,,0.65196,1,,,,,,231,WORD,"ID",33,export,EXPORT,m,,,,,,0.081289062,-0.407604167,0,0,0,,0,251,251,50,1,,
,,,,,,,,,,,,,,,,,,5f2bcbf1eb53d868eed230c8,2020-08-08_10h27.59.886,lexical_decision_task_MP,2020.1.3,MacIntel,60,,m,1,0.752525,,,,,,,,0.752525,1,,,,,,136,WORD,UN,50,finger,BLEACH,m,,,,,,0.081289062,-0.407604167,0,0,0,,0,252,252,195,1,,
,,,,,,,,,,,,,,,,,,5f2bcbf1eb53d868eed230c8,2020-08-08_10h27.59.886,lexical_decision_task_MP,2020.1.3,MacIntel,60,,z,1,0.703835,,,,,,,,0.703835,1,,,,,,244,NW,"ID",50,eatric,EATRIC,z,,,,,,0.081289062,-0.407604167,0,0,0,,0,253,253,303,1,,
,,,,,,,,,,,,,,,,,,5f2bcbf1eb53d868eed230c8,2020-08-08_10h27.59.886,lexical_decision_task_MP,2020.1.3,MacIntel,60,,z,1,0.85558,,,,,,,,0.85558,1,,,,,,262,NW,"ID",50,quilew,QUILEW,z,,,,,,0.081289062,-0.407604167,0,0,0,,0,254,254,321,1,,
,,,,,,,,,,,,,,,,,,5f2bcbf1eb53d868eed230c8,2020-08-08_10h27.59.886,lexical_decision_task_MP,2020.1.3,MacIntel,60,,m,1,0.570605,,,,,,,,0.570605,1,,,,,,169,WORD,UN,50,pounce,GENIUS,m,,,,,,0.081289062,-0.407604167,0,0,0,,0,255,255,228,1,,
,,,,,,,,,,,,,,,,,,5f2bcbf1eb53d868eed230c8,2020-08-08_10h27.59.886,lexical_decision_task_MP,2020.1.3,MacIntel,60,,z,1,0.678675,,,,,,,,0.678675,1,,,,,,306,NW,UN,33,kirafe,SOUNGE,z,,,,,,0.081289062,-0.407604167,0,0,0,,0,256,256,365,1,,
,,,,,,,,,,,,,,,,,,5f2bcbf1eb53d868eed230c8,2020-08-08_10h27.59.886,lexical_decision_task_MP,2020.1.3,MacIntel,60,,m,1,0.620325,,,,,,,,0.620325,1,,,,,,78,WORD,UN,33,theory,COLUMN,m,,,,,,0.081289062,-0.407604167,0,0,0,,0,257,257,137,1,,
,,,,,,,,,,,,,,,,,,5f2bcbf1eb53d868eed230c8,2020-08-08_10h27.59.886,lexical_decision_task_MP,2020.1.3,MacIntel,60,,m,1,0.516615,,,,,,,,0.516615,1,,,,,,21,WORD,"ID",50,simple,SIMPLE,m,,,,,,0.081289062,-0.407604167,0,0,0,,0,258,258,80,1,,
,,,,,,,,,,,,,,,,,,5f2bcbf1eb53d868eed230c8,2020-08-08_10h27.59.886,lexical_decision_task_MP,2020.1.3,MacIntel,60,,m,1,0.50672,,,,,,,,0.50672,1,,,,,,201,WORD,"ID",33,admire,ADMIRE,m,,,,,,0.081289062,-0.407604167,0,0,0,,0,259,259,20,1,,
,,,,,,,,,,,,,,,,,,5f2bcbf1eb53d868eed230c8,2020-08-08_10h27.59.886,lexical_decision_task_MP,2020.1.3,MacIntel,60,,m,1,0.872815,,,,,,,,0.872815,1,,,,,,32,WORD,"ID",50,buckle,BUCKLE,m,,,,,,0.081289062,-0.407604167,0,0,0,,0,260,260,91,1,,
,,,,,,,,,,,,,,,,,,5f2bcbf1eb53d868eed230c8,2020-08-08_10h27.59.886,lexical_decision_task_MP,2020.1.3,MacIntel,60,,m,1,0.68463,,,,,,,,0.68463,1,,,,,,200,WORD,"ID",33,beacon,BEACON,m,,,,,,0.081289062,-0.407604167,0,0,0,,0,261,261,19,1,,
,,,,,,,,,,,,,,,,,,5f2bcbf1eb53d868eed230c8,2020-08-08_10h27.59.886,lexical_decision_task_MP,2020.1.3,MacIntel,60,,m,1,1.09994,,,,,,,,1.09994,1,,,,,,214,WORD,"ID",33,intake,INTAKE,m,,,,,,0.081289062,-0.407604167,0,0,0,,0,262,262,33,1,,
,,,,,,,,,,,,,,,,,,5f2bcbf1eb53d868eed230c8,2020-08-08_10h27.59.886,lexical_decision_task_MP,2020.1.3,MacIntel,60,,m,0,0.551605,,,,,,,,0.551605,0,,,,,,289,NW,"ID",50,starby,STARBY,z,,,,,,0.081289062,-0.407604167,0,0,0,,0,263,263,348,1,,
,,,,,,,,,,,,,,,,,,5f2bcbf1eb53d868eed230c8,2020-08-08_10h27.59.886,lexical_decision_task_MP,2020.1.3,MacIntel,60,,m,1,0.50944,,,,,,,,0.50944,1,,,,,,44,WORD,"ID",50,danger,DANGER,m,,,,,,0.081289062,-0.407604167,0,0,0,,0,264,264,103,1,,
,,,,,,,,,,,,,,,,,,5f2bcbf1eb53d868eed230c8,2020-08-08_10h27.59.886,lexical_decision_task_MP,2020.1.3,MacIntel,60,,m,1,0.5367,,,,,,,,0.5367,1,,,,,,227,WORD,"ID",33,seldom,SELDOM,m,,,,,,0.081289062,-0.407604167,0,0,0,,0,265,265,46,1,,
,,,,,,,,,,,,,,,,,,5f2bcbf1eb53d868eed230c8,2020-08-08_10h27.59.886,lexical_decision_task_MP,2020.1.3,MacIntel,60,,m,1,0.815055,,,,,,,,0.815055,1,,,,,,111,WORD,UN,33,breath,INDUCE,m,,,,,,0.081289062,-0.407604167,0,0,0,,0,266,266,170,1,,
,,,,,,,,,,,,,,,,,,5f2bcbf1eb53d868eed230c8,2020-08-08_10h27.59.886,lexical_decision_task_MP,2020.1.3,MacIntel,60,,z,1,0.924385,,,,,,,,0.924385,1,,,,,,461,NW,"ID",33,justre,JUSTRE,z,,,,,,0.081289062,-0.407604167,0,0,0,,0,267,267,280,1,,
,,,,,,,,,,,,,,,,,,5f2bcbf1eb53d868eed230c8,2020-08-08_10h27.59.886,lexical_decision_task_MP,2020.1.3,MacIntel,60,,z,1,0.65101,,,,,,,,0.65101,1,,,,,,259,NW,"ID",50,soudal,SOUDAL,z,,,,,,0.081289062,-0.407604167,0,0,0,,0,268,268,318,1,,
,,,,,,,,,,,,,,,,,,5f2bcbf1eb53d868eed230c8,2020-08-08_10h27.59.886,lexical_decision_task_MP,2020.1.3,MacIntel,60,,z,1,0.686735,,,,,,,,0.686735,1,,,,,,313,NW,UN,33,sprine,PAURSE,z,,,,,,0.081289062,-0.407604167,0,0,0,,0,269,269,372,1,,
,,,,,,,,,,,,,,,,,,5f2bcbf1eb53d868eed230c8,2020-08-08_10h27.59.886,lexical_decision_task_MP,2020.1.3,MacIntel,60,,m,1,0.611595,,,,,,,,0.611595,1,,,,,,28,WORD,"ID",50,comedy,COMEDY,m,,,,,,0.081289062,-0.407604167,0,0,0,,0,270,270,87,1,,
,,,,,,,,,,,,,,,,,,5f2bcbf1eb53d868eed230c8,2020-08-08_10h27.59.886,lexical_decision_task_MP,2020.1.3,MacIntel,60,,z,1,0.61683,,,,,,,,0.61683,1,,,,,,471,NW,"ID",33,nobest,NOBEST,z,,,,,,0.081289062,-0.407604167,0,0,0,,0,271,271,290,1,,
,,,,,,,,,,,,,,,,,,5f2bcbf1eb53d868eed230c8,2020-08-08_10h27.59.886,lexical_decision_task_MP,2020.1.3,MacIntel,60,,m,1,0.630605,,,,,,,,0.630605,1,,,,,,183,WORD,"ID",33,mildew,MILDEW,m,,,,,,0.081289062,-0.407604167,0,0,0,,0,272,272,2,1,,
,,,,,,,,,,,,,,,,,,5f2bcbf1eb53d868eed230c8,2020-08-08_10h27.59.886,lexical_decision_task_MP,2020.1.3,MacIntel,60,,z,1,0.67131,,,,,,,,0.67131,1,,,,,,446,NW,"ID",33,runamo,RUNAMO,z,,,,,,0.081289062,-0.407604167,0,0,0,,0,273,273,265,1,,
,,,,,,,,,,,,,,,,,,5f2bcbf1eb53d868eed230c8,2020-08-08_10h27.59.886,lexical_decision_task_MP,2020.1.3,MacIntel,60,,m,1,0.748165,,,,,,,,0.748165,1,,,,,,172,WORD,UN,50,shower,PATROL,m,,,,,,0.081289062,-0.407604167,0,0,0,,0,274,274,231,1,,
,,,,,,,,,,,,,,,,,,5f2bcbf1eb53d868eed230c8,2020-08-08_10h27.59.886,lexical_decision_task_MP,2020.1.3,MacIntel,60,,z,1,0.607385,,,,,,,,0.607385,1,,,,,,287,NW,"ID",50,nymbel,NYMBEL,z,,,,,,0.081289062,-0.407604167,0,0,0,,0,275,275,346,1,,
,,,,,,,,,,,,,,,,,,5f2bcbf1eb53d868eed230c8,2020-08-08_10h27.59.886,lexical_decision_task_MP,2020.1.3,MacIntel,60,,m,1,0.88215,,,,,,,,0.88215,1,,,,,,159,WORD,UN,50,violet,DETAIL,m,,,,,,0.081289062,-0.407604167,0,0,0,,0,276,276,218,1,,
,,,,,,,,,,,,,,,,,,5f2bcbf1eb53d868eed230c8,2020-08-08_10h27.59.886,lexical_decision_task_MP,2020.1.3,MacIntel,60,,m,1,0.540995,,,,,,,,0.540995,1,,,,,,91,WORD,UN,33,hunger,EXPAND,m,,,,,,0.081289062,-0.407604167,0,0,0,,0,277,277,150,1,,
,,,,,,,,,,,,,,,,,,5f2bcbf1eb53d868eed230c8,2020-08-08_10h27.59.886,lexical_decision_task_MP,2020.1.3,MacIntel,60,,m,1,0.469105,,,,,,,,0.469105,1,,,,,,15,WORD,"ID",50,amount,AMOUNT,m,,,,,,0.081289062,-0.407604167,0,0,0,,0,278,278,74,1,,
,,,,,,,,,,,,,,,,,,5f2bcbf1eb53d868eed230c8,2020-08-08_10h27.59.886,lexical_decision_task_MP,2020.1.3,MacIntel,60,,z,1,0.655615,,,,,,,,0.655615,1,,,,,,324,NW,UN,33,thruse,STEIKH,z,,,,,,0.081289062,-0.407604167,0,0,0,,0,279,279,383,1,,
,,,,,,,,,,,,,,,,,,5f2bcbf1eb53d868eed230c8,2020-08-08_10h27.59.886,lexical_decision_task_MP,2020.1.3,MacIntel,60,,m,1,0.54322,,,,,,,,0.54322,1,,,,,,79,WORD,UN,33,family,THEORY,m,,,,,,0.081289062,-0.407604167,0,0,0,,0,280,280,138,1,,
,,,,,,,,,,,,,,,,,,5f2bcbf1eb53d868eed230c8,2020-08-08_10h27.59.886,lexical_decision_task_MP,2020.1.3,MacIntel,60,,m,1,0.622095,,,,,,,,0.622095,1,,,,,,29,WORD,"ID",50,sketch,SKETCH,m,,,,,,0.081289062,-0.407604167,0,0,0,,0,281,281,88,1,,
,,,,,,,,,,,,,,,,,,5f2bcbf1eb53d868eed230c8,2020-08-08_10h27.59.886,lexical_decision_task_MP,2020.1.3,MacIntel,60,,z,1,0.738515,,,,,,,,0.738515,1,,,,,,322,NW,UN,33,rosail,SLANCH,z,,,,,,0.081289062,-0.407604167,0,0,0,,0,282,282,381,1,,
,,,,,,,,,,,,,,,,,,5f2bcbf1eb53d868eed230c8,2020-08-08_10h27.59.886,lexical_decision_task_MP,2020.1.3,MacIntel,60,,z,1,0.84871,,,,,,,,0.84871,1,,,,,,365,NW,UN,50,toshel,GUAIRT,z,,,,,,0.081289062,-0.407604167,0,0,0,,0,283,283,424,1,,
,,,,,,,,,,,,,,,,,,5f2bcbf1eb53d868eed230c8,2020-08-08_10h27.59.886,lexical_decision_task_MP,2020.1.3,MacIntel,60,,z,1,0.802515,,,,,,,,0.802515,1,,,,,,415,NW,UN,50,pathel,HIGSTA,z,,,,,,0.081289062,-0.407604167,0,0,0,,0,284,284,474,1,,
,,,,,,,,,,,,,,,,,,5f2bcbf1eb53d868eed230c8,2020-08-08_10h27.59.886,lexical_decision_task_MP,2020.1.3,MacIntel,60,,m,1,0.521425,,,,,,,,0.521425,1,,,,,,229,WORD,"ID",33,mother,MOTHER,m,,,,,,0.081289062,-0.407604167,0,0,0,,0,285,285,48,1,,
,,,,,,,,,,,,,,,,,,5f2bcbf1eb53d868eed230c8,2020-08-08_10h27.59.886,lexical_decision_task_MP,2020.1.3,MacIntel,60,,z,1,0.924565,,,,,,,,0.924565,1,,,,,,389,NW,UN,50,hatrus,WITMER,z,,,,,,0.081289062,-0.407604167,0,0,0,,0,286,286,448,1,,
,,,,,,,,,,,,,,,,,,5f2bcbf1eb53d868eed230c8,2020-08-08_10h27.59.886,lexical_decision_task_MP,2020.1.3,MacIntel,60,,z,1,0.70724,,,,,,,,0.70724,1,,,,,,360,NW,UN,33,fainch,DESORY,z,,,,,,0.081289062,-0.407604167,0,0,0,,0,287,287,419,1,,
,,,,,,,,,,,,,,,,,,5f2bcbf1eb53d868eed230c8,2020-08-08_10h27.59.886,lexical_decision_task_MP,2020.1.3,MacIntel,60,,z,1,0.754325,,,,,,,,0.754325,1,,,,,,257,NW,"ID",50,veniod,VENIOD,z,,,,,,0.081289062,-0.407604167,0,0,0,,0,288,288,316,1,,
,,,,,,,,,,,,,,,,,,5f2bcbf1eb53d868eed230c8,2020-08-08_10h27.59.886,lexical_decision_task_MP,2020.1.3,MacIntel,60,,z,0,1.323645,,,,,,,,1.323645,0,,,,,,171,WORD,UN,50,patrol,DEPART,m,,,,,,0.081289062,-0.407604167,0,0,0,,0,289,289,230,1,,
,,,,,,,,,,,,,,,,,,5f2bcbf1eb53d868eed230c8,2020-08-08_10h27.59.886,lexical_decision_task_MP,2020.1.3,MacIntel,60,,z,1,0.568785,,,,,,,,0.568785,1,,,,,,242,NW,"ID",50,unwert,UNWERT,z,,,,,,0.081289062,-0.407604167,0,0,0,,0,290,290,301,1,,
,,,,,,,,,,,,,,,,,,5f2bcbf1eb53d868eed230c8,2020-08-08_10h27.59.886,lexical_decision_task_MP,2020.1.3,MacIntel,60,,m,1,0.60029,,,,,,,,0.60029,1,,,,,,26,WORD,"ID",50,sprint,SPRINT,m,,,,,,0.081289062,-0.407604167,0,0,0,,0,291,291,85,1,,
,,,,,,,,,,,,,,,,,,5f2bcbf1eb53d868eed230c8,2020-08-08_10h27.59.886,lexical_decision_task_MP,2020.1.3,MacIntel,60,,m,1,0.87581,,,,,,,,0.87581,1,,,,,,88,WORD,UN,33,permit,HUNGER,m,,,,,,0.081289062,-0.407604167,0,0,0,,0,292,292,147,1,,
,,,,,,,,,,,,,,,,,,5f2bcbf1eb53d868eed230c8,2020-08-08_10h27.59.886,lexical_decision_task_MP,2020.1.3,MacIntel,60,,m,1,0.61574,,,,,,,,0.61574,1,,,,,,133,WORD,UN,50,staple,CHROME,m,,,,,,0.081289062,-0.407604167,0,0,0,,0,293,293,192,1,,
,,,,,,,,,,,,,,,,,,5f2bcbf1eb53d868eed230c8,2020-08-08_10h27.59.886,lexical_decision_task_MP,2020.1.3,MacIntel,60,,z,1,0.911665,,,,,,,,0.911665,1,,,,,,431,NW,"ID",33,chrums,CHRUMS,z,,,,,,0.081289062,-0.407604167,0,0,0,,0,294,294,250,1,,
,,,,,,,,,,,,,,,,,,5f2bcbf1eb53d868eed230c8,2020-08-08_10h27.59.886,lexical_decision_task_MP,2020.1.3,MacIntel,60,,z,1,0.816445,,,,,,,,0.816445,1,,,,,,304,NW,UN,33,forgle,CLUDIE,z,,,,,,0.081289062,-0.407604167,0,0,0,,0,295,295,363,1,,
,,,,,,,,,,,,,,,,,,5f2bcbf1eb53d868eed230c8,2020-08-08_10h27.59.886,lexical_decision_task_MP,2020.1.3,MacIntel,60,,z,1,1.018965,,,,,,,,1.018965,1,,,,,,432,NW,"ID",33,lunker,LUNKER,z,,,,,,0.081289062,-0.407604167,0,0,0,,0,296,296,251,1,,
,,,,,,,,,,,,,,,,,,5f2bcbf1eb53d868eed230c8,2020-08-08_10h27.59.886,lexical_decision_task_MP,2020.1.3,MacIntel,60,,z,1,1.37311,,,,,,,,1.37311,1,,,,,,269,NW,"ID",50,orchet,ORCHET,z,,,,,,0.081289062,-0.407604167,0,0,0,,0,297,297,328,1,,
,,,,,,,,,,,,,,,,,,5f2bcbf1eb53d868eed230c8,2020-08-08_10h27.59.886,lexical_decision_task_MP,2020.1.3,MacIntel,60,,m,1,1.339465,,,,,,,,1.339465,1,,,,,,190,WORD,"ID",33,backup,BACKUP,m,,,,,,0.081289062,-0.407604167,0,0,0,,0,298,298,9,1,,
,,,,,,,,,,,,,,,,,,5f2bcbf1eb53d868eed230c8,2020-08-08_10h27.59.886,lexical_decision_task_MP,2020.1.3,MacIntel,60,,z,1,0.86767,,,,,,,,0.86767,1,,,,,,433,NW,"ID",33,drance,DRANCE,z,,,,,,0.081289062,-0.407604167,0,0,0,,0,299,299,252,1,,
,,,,,,,,,,,,,,,,,,5f2bcbf1eb53d868eed230c8,2020-08-08_10h27.59.886,lexical_decision_task_MP,2020.1.3,MacIntel,60,,m,1,0.649755,,,,,,,,0.649755,1,,,,,,90,WORD,UN,33,expand,RELISH,m,,,,,,0.081289062,-0.407604167,0,0,0,,0,300,300,149,1,,
,,,,,,,,,,,,,,,,,,5f2bcbf1eb53d868eed230c8,2020-08-08_10h27.59.886,lexical_decision_task_MP,2020.1.3,MacIntel,60,,m,1,0.636875,,,,,,,,0.636875,1,,,,,,99,WORD,UN,33,carbon,FLUENT,m,,,,,,0.081289062,-0.407604167,0,0,0,,0,301,301,158,1,,
,,,,,,,,,,,,,,,,,,5f2bcbf1eb53d868eed230c8,2020-08-08_10h27.59.886,lexical_decision_task_MP,2020.1.3,MacIntel,60,,m,1,0.54809,,,,,,,,0.54809,1,,,,,,216,WORD,"ID",33,behalf,BEHALF,m,,,,,,0.081289062,-0.407604167,0,0,0,,0,302,302,35,1,,
,,,,,,,,,,,,,,,,,,5f2bcbf1eb53d868eed230c8,2020-08-08_10h27.59.886,lexical_decision_task_MP,2020.1.3,MacIntel,60,,z,1,0.81905,,,,,,,,0.81905,1,,,,,,343,NW,UN,33,scrily,AIMOSY,z,,,,,,0.081289062,-0.407604167,0,0,0,,0,303,303,402,1,,
,,,,,,,,,,,,,,,,,,5f2bcbf1eb53d868eed230c8,2020-08-08_10h27.59.886,lexical_decision_task_MP,2020.1.3,MacIntel,60,,z,1,0.632855,,,,,,,,0.632855,1,,,,,,411,NW,UN,50,jiluer,ORCHIN,z,,,,,,0.081289062,-0.407604167,0,0,0,,0,304,304,470,1,,
,,,,,,,,,,,,,,,,,,5f2bcbf1eb53d868eed230c8,2020-08-08_10h27.59.886,lexical_decision_task_MP,2020.1.3,MacIntel,60,,z,0,0.56647,,,,,,,,0.56647,0,,,,,,184,WORD,"ID",33,sleazy,SLEAZY,m,,,,,,0.081289062,-0.407604167,0,0,0,,0,305,305,3,1,,
,,,,,,,,,,,,,,,,,,5f2bcbf1eb53d868eed230c8,2020-08-08_10h27.59.886,lexical_decision_task_MP,2020.1.3,MacIntel,60,,z,1,0.58289,,,,,,,,0.58289,1,,,,,,249,NW,"ID",50,batrol,BATROL,z,,,,,,0.081289062,-0.407604167,0,0,0,,0,306,306,308,1,,
,,,,,,,,,,,,,,,,,,5f2bcbf1eb53d868eed230c8,2020-08-08_10h27.59.886,lexical_decision_task_MP,2020.1.3,MacIntel,60,,z,1,0.56482,,,,,,,,0.56482,1,,,,,,280,NW,"ID",50,curbol,CURBOL,z,,,,,,0.081289062,-0.407604167,0,0,0,,0,307,307,339,1,,
,,,,,,,,,,,,,,,,,,5f2bcbf1eb53d868eed230c8,2020-08-08_10h27.59.886,lexical_decision_task_MP,2020.1.3,MacIntel,60,,z,1,0.852595,,,,,,,,0.852595,1,,,,,,397,NW,UN,50,blunde,CAMBLE,z,,,,,,0.081289062,-0.407604167,0,0,0,,0,308,308,456,1,,
,,,,,,,,,,,,,,,,,,5f2bcbf1eb53d868eed230c8,2020-08-08_10h27.59.886,lexical_decision_task_MP,2020.1.3,MacIntel,60,,z,1,0.60202,,,,,,,,0.60202,1,,,,,,266,NW,"ID",50,varmit,VARMIT,z,,,,,,0.081289062,-0.407604167,0,0,0,,0,309,309,325,1,,
,,,,,,,,,,,,,,,,,,5f2bcbf1eb53d868eed230c8,2020-08-08_10h27.59.886,lexical_decision_task_MP,2020.1.3,MacIntel,60,,z,1,0.583005,,,,,,,,0.583005,1,,,,,,429,NW,"ID",33,funtle,FUNTLE,z,,,,,,0.081289062,-0.407604167,0,0,0,,0,310,310,248,1,,
,,,,,,,,,,,,,,,,,,5f2bcbf1eb53d868eed230c8,2020-08-08_10h27.59.886,lexical_decision_task_MP,2020.1.3,MacIntel,60,,m,1,0.56611,,,,,,,,0.56611,1,,,,,,84,WORD,UN,33,strand,MORTAL,m,,,,,,0.081289062,-0.407604167,0,0,0,,0,311,311,143,1,,
,,,,,,,,,,,,,,,,,,5f2bcbf1eb53d868eed230c8,2020-08-08_10h27.59.886,lexical_decision_task_MP,2020.1.3,MacIntel,60,,z,1,0.78288,,,,,,,,0.78288,1,,,,,,376,NW,UN,50,veigma,IGUARE,z,,,,,,0.081289062,-0.407604167,0,0,0,,0,312,312,435,1,,
,,,,,,,,,,,,,,,,,,5f2bcbf1eb53d868eed230c8,2020-08-08_10h27.59.886,lexical_decision_task_MP,2020.1.3,MacIntel,60,,z,1,0.52044,,,,,,,,0.52044,1,,,,,,346,NW,UN,33,kerift,SAUDIC,z,,,,,,0.081289062,-0.407604167,0,0,0,,0,313,313,405,1,,
,,,,,,,,,,,,,,,,,,5f2bcbf1eb53d868eed230c8,2020-08-08_10h27.59.886,lexical_decision_task_MP,2020.1.3,MacIntel,60,,z,1,0.58241,,,,,,,,0.58241,1,,,,,,421,NW,"ID",33,knisma,KNISMA,z,,,,,,0.081289062,-0.407604167,0,0,0,,0,314,314,240,1,,
,,,,,,,,,,,,,,,,,,5f2bcbf1eb53d868eed230c8,2020-08-08_10h27.59.886,lexical_decision_task_MP,2020.1.3,MacIntel,60,,z,1,0.66891,,,,,,,,0.66891,1,,,,,,427,NW,"ID",33,schind,SCHIND,z,,,,,,0.081289062,-0.407604167,0,0,0,,0,315,315,246,1,,
,,,,,,,,,,,,,,,,,,5f2bcbf1eb53d868eed230c8,2020-08-08_10h27.59.886,lexical_decision_task_MP,2020.1.3,MacIntel,60,,m,0,0.8184,,,,,,,,0.8184,0,,,,,,348,NW,UN,33,asylen,DUMPLE,z,,,,,,0.081289062,-0.407604167,0,0,0,,0,316,316,407,1,,
,,,,,,,,,,,,,,,,,,5f2bcbf1eb53d868eed230c8,2020-08-08_10h27.59.886,lexical_decision_task_MP,2020.1.3,MacIntel,60,,m,1,0.704255,,,,,,,,0.704255,1,,,,,,161,WORD,UN,50,candle,PASTOR,m,,,,,,0.081289062,-0.407604167,0,0,0,,0,317,317,220,1,,
,,,,,,,,,,,,,,,,,,5f2bcbf1eb53d868eed230c8,2020-08-08_10h27.59.886,lexical_decision_task_MP,2020.1.3,MacIntel,60,,z,1,0.5651,,,,,,,,0.5651,1,,,,,,475,NW,"ID",33,pebric,PEBRIC,z,,,,,,0.081289062,-0.407604167,0,0,0,,0,318,318,294,1,,
,,,,,,,,,,,,,,,,,,5f2bcbf1eb53d868eed230c8,2020-08-08_10h27.59.886,lexical_decision_task_MP,2020.1.3,MacIntel,60,,m,1,0.591215,,,,,,,,0.591215,1,,,,,,208,WORD,"ID",33,hockey,HOCKEY,m,,,,,,0.081289062,-0.407604167,0,0,0,,0,319,319,27,1,,
,,,,,,,,,,,,,,,,,,5f2bcbf1eb53d868eed230c8,2020-08-08_10h27.59.886,lexical_decision_task_MP,2020.1.3,MacIntel,60,,m,1,0.539035,,,,,,,,0.539035,1,,,,,,94,WORD,UN,33,thread,TRAVEL,m,,,,,,0.081289062,-0.407604167,0,0,0,,0,320,320,153,1,,
,,,,,,,,,,,,,,,,,,5f2bcbf1eb53d868eed230c8,2020-08-08_10h27.59.886,lexical_decision_task_MP,2020.1.3,MacIntel,60,,z,1,0.604865,,,,,,,,0.604865,1,,,,,,460,NW,"ID",33,mingar,MINGAR,z,,,,,,0.081289062,-0.407604167,0,0,0,,0,321,321,279,1,,
,,,,,,,,,,,,,,,,,,5f2bcbf1eb53d868eed230c8,2020-08-08_10h27.59.886,lexical_decision_task_MP,2020.1.3,MacIntel,60,,z,1,0.543295,,,,,,,,0.543295,1,,,,,,362,NW,UN,50,breali,TIREAU,z,,,,,,0.081289062,-0.407604167,0,0,0,,0,322,322,421,1,,
,,,,,,,,,,,,,,,,,,5f2bcbf1eb53d868eed230c8,2020-08-08_10h27.59.886,lexical_decision_task_MP,2020.1.3,MacIntel,60,,m,1,0.586585,,,,,,,,0.586585,1,,,,,,89,WORD,UN,33,relish,PERMIT,m,,,,,,0.081289062,-0.407604167,0,0,0,,0,323,323,148,1,,
,,,,,,,,,,,,,,,,,,5f2bcbf1eb53d868eed230c8,2020-08-08_10h27.59.886,lexical_decision_task_MP,2020.1.3,MacIntel,60,,z,1,0.69966,,,,,,,,0.69966,1,,,,,,297,NW,"ID",50,fertic,FERTIC,z,,,,,,0.081289062,-0.407604167,0,0,0,,0,324,324,356,1,,
,,,,,,,,,,,,,,,,,,5f2bcbf1eb53d868eed230c8,2020-08-08_10h27.59.886,lexical_decision_task_MP,2020.1.3,MacIntel,60,,m,1,0.63609,,,,,,,,0.63609,1,,,,,,107,WORD,UN,33,reckon,SLOGAN,m,,,,,,0.081289062,-0.407604167,0,0,0,,0,325,325,166,1,,
,,,,,,,,,,,,,,,,,,5f2bcbf1eb53d868eed230c8,2020-08-08_10h27.59.886,lexical_decision_task_MP,2020.1.3,MacIntel,60,,m,1,0.649045,,,,,,,,0.649045,1,,,,,,170,WORD,UN,50,dragon,POUNCE,m,,,,,,0.081289062,-0.407604167,0,0,0,,0,326,326,229,1,,
,,,,,,,,,,,,,,,,,,5f2bcbf1eb53d868eed230c8,2020-08-08_10h27.59.886,lexical_decision_task_MP,2020.1.3,MacIntel,60,,z,1,0.538425,,,,,,,,0.538425,1,,,,,,406,NW,UN,50,suiver,NOUPLY,z,,,,,,0.081289062,-0.407604167,0,0,0,,0,327,327,465,1,,
,,,,,,,,,,,,,,,,,,5f2bcbf1eb53d868eed230c8,2020-08-08_10h27.59.886,lexical_decision_task_MP,2020.1.3,MacIntel,60,,m,1,0.60323,,,,,,,,0.60323,1,,,,,,240,WORD,"ID",33,forest,FOREST,m,,,,,,0.081289062,-0.407604167,0,0,0,,0,328,328,59,1,,
,,,,,,,,,,,,,,,,,,5f2bcbf1eb53d868eed230c8,2020-08-08_10h27.59.886,lexical_decision_task_MP,2020.1.3,MacIntel,60,,z,1,0.63019,,,,,,,,0.63019,1,,,,,,447,NW,"ID",33,gircue,GIRCUE,z,,,,,,0.081289062,-0.407604167,0,0,0,,0,329,329,266,1,,
,,,,,,,,,,,,,,,,,,5f2bcbf1eb53d868eed230c8,2020-08-08_10h27.59.886,lexical_decision_task_MP,2020.1.3,MacIntel,60,,m,1,0.703995,,,,,,,,0.703995,1,,,,,,18,WORD,"ID",50,humble,HUMBLE,m,,,,,,0.081289062,-0.407604167,0,0,0,,0,330,330,77,1,,
,,,,,,,,,,,,,,,,,,5f2bcbf1eb53d868eed230c8,2020-08-08_10h27.59.886,lexical_decision_task_MP,2020.1.3,MacIntel,60,,m,1,0.55108,,,,,,,,0.55108,1,,,,,,144,WORD,UN,50,parish,SPONGE,m,,,,,,0.081289062,-0.407604167,0,0,0,,0,331,331,203,1,,
,,,,,,,,,,,,,,,,,,5f2bcbf1eb53d868eed230c8,2020-08-08_10h27.59.886,lexical_decision_task_MP,2020.1.3,MacIntel,60,,z,1,0.63231,,,,,,,,0.63231,1,,,,,,261,NW,"ID",50,stunch,STUNCH,z,,,,,,0.081289062,-0.407604167,0,0,0,,0,332,332,320,1,,
,,,,,,,,,,,,,,,,,,5f2bcbf1eb53d868eed230c8,2020-08-08_10h27.59.886,lexical_decision_task_MP,2020.1.3,MacIntel,60,,m,1,0.703145,,,,,,,,0.703145,1,,,,,,221,WORD,"ID",33,mascot,MASCOT,m,,,,,,0.081289062,-0.407604167,0,0,0,,0,333,333,40,1,,
,,,,,,,,,,,,,,,,,,5f2bcbf1eb53d868eed230c8,2020-08-08_10h27.59.886,lexical_decision_task_MP,2020.1.3,MacIntel,60,,z,1,0.5182,,,,,,,,0.5182,1,,,,,,384,NW,UN,50,injore,GUESCO,z,,,,,,0.081289062,-0.407604167,0,0,0,,0,334,334,443,1,,
,,,,,,,,,,,,,,,,,,5f2bcbf1eb53d868eed230c8,2020-08-08_10h27.59.886,lexical_decision_task_MP,2020.1.3,MacIntel,60,,m,1,0.583155,,,,,,,,0.583155,1,,,,,,17,WORD,"ID",50,charge,CHARGE,m,,,,,,0.081289062,-0.407604167,0,0,0,,0,335,335,76,1,,
,,,,,,,,,,,,,,,,,,5f2bcbf1eb53d868eed230c8,2020-08-08_10h27.59.886,lexical_decision_task_MP,2020.1.3,MacIntel,60,,m,1,0.583155,,,,,,,,0.583155,1,,,,,,1,WORD,"ID",50,fright,FRIGHT,m,,,,,,0.081289062,-0.407604167,0,0,0,,0,336,336,60,1,,
,,,,,,,,,,,,,,,,,,5f2bcbf1eb53d868eed230c8,2020-08-08_10h27.59.886,lexical_decision_task_MP,2020.1.3,MacIntel,60,,m,1,1.066105,,,,,,,,1.066105,1,,,,,,4,WORD,"ID",50,trench,TRENCH,m,,,,,,0.081289062,-0.407604167,0,0,0,,0,337,337,63,1,,
,,,,,,,,,,,,,,,,,,5f2bcbf1eb53d868eed230c8,2020-08-08_10h27.59.886,lexical_decision_task_MP,2020.1.3,MacIntel,60,,z,1,0.69895,,,,,,,,0.69895,1,,,,,,378,NW,UN,50,auting,SHRILE,z,,,,,,0.081289062,-0.407604167,0,0,0,,0,338,338,437,1,,
,,,,,,,,,,,,,,,,,,5f2bcbf1eb53d868eed230c8,2020-08-08_10h27.59.886,lexical_decision_task_MP,2020.1.3,MacIntel,60,,z,1,0.86637,,,,,,,,0.86637,1,,,,,,456,NW,"ID",33,broget,BROGET,z,,,,,,0.081289062,-0.407604167,0,0,0,,0,339,339,275,1,,
,,,,,,,,,,,,,,,,,,5f2bcbf1eb53d868eed230c8,2020-08-08_10h27.59.886,lexical_decision_task_MP,2020.1.3,MacIntel,60,,z,1,0.587785,,,,,,,,0.587785,1,,,,,,278,NW,"ID",50,unighs,UNIGHS,z,,,,,,0.081289062,-0.407604167,0,0,0,,0,340,340,337,1,,
,,,,,,,,,,,,,,,,,,5f2bcbf1eb53d868eed230c8,2020-08-08_10h27.59.886,lexical_decision_task_MP,2020.1.3,MacIntel,60,,m,1,0.831715,,,,,,,,0.831715,1,,,,,,189,WORD,"ID",33,censor,CENSOR,m,,,,,,0.081289062,-0.407604167,0,0,0,,0,341,341,8,1,,
,,,,,,,,,,,,,,,,,,5f2bcbf1eb53d868eed230c8,2020-08-08_10h27.59.886,lexical_decision_task_MP,2020.1.3,MacIntel,60,,m,1,0.465265,,,,,,,,0.465265,1,,,,,,196,WORD,"ID",33,credit,CREDIT,m,,,,,,0.081289062,-0.407604167,0,0,0,,0,342,342,15,1,,
,,,,,,,,,,,,,,,,,,5f2bcbf1eb53d868eed230c8,2020-08-08_10h27.59.886,lexical_decision_task_MP,2020.1.3,MacIntel,60,,m,1,0.75892,,,,,,,,0.75892,1,,,,,,92,WORD,UN,33,public,STRAND,m,,,,,,0.081289062,-0.407604167,0,0,0,,0,343,343,151,1,,
,,,,,,,,,,,,,,,,,,5f2bcbf1eb53d868eed230c8,2020-08-08_10h27.59.886,lexical_decision_task_MP,2020.1.3,MacIntel,60,,z,1,0.79946,,,,,,,,0.79946,1,,,,,,462,NW,"ID",33,absult,ABSULT,z,,,,,,0.081289062,-0.407604167,0,0,0,,0,344,344,281,1,,
,,,,,,,,,,,,,,,,,,5f2bcbf1eb53d868eed230c8,2020-08-08_10h27.59.886,lexical_decision_task_MP,2020.1.3,MacIntel,60,,m,1,0.525805,,,,,,,,0.525805,1,,,,,,11,WORD,"ID",50,cruise,CRUISE,m,,,,,,0.081289062,-0.407604167,0,0,0,,0,345,345,70,1,,
,,,,,,,,,,,,,,,,,,5f2bcbf1eb53d868eed230c8,2020-08-08_10h27.59.886,lexical_decision_task_MP,2020.1.3,MacIntel,60,,z,1,0.584805,,,,,,,,0.584805,1,,,,,,357,NW,UN,33,fleack,DERAIN,z,,,,,,0.081289062,-0.407604167,0,0,0,,0,346,346,416,1,,
,,,,,,,,,,,,,,,,,,5f2bcbf1eb53d868eed230c8,2020-08-08_10h27.59.886,lexical_decision_task_MP,2020.1.3,MacIntel,60,,m,1,0.851515,,,,,,,,0.851515,1,,,,,,164,WORD,UN,50,invest,MARKET,m,,,,,,0.081289062,-0.407604167,0,0,0,,0,347,347,223,1,,
,,,,,,,,,,,,,,,,,,5f2bcbf1eb53d868eed230c8,2020-08-08_10h27.59.886,lexical_decision_task_MP,2020.1.3,MacIntel,60,,z,1,0.58387,,,,,,,,0.58387,1,,,,,,356,NW,UN,33,derain,OTHNIS,z,,,,,,0.081289062,-0.407604167,0,0,0,,0,348,348,415,1,,
,,,,,,,,,,,,,,,,,,5f2bcbf1eb53d868eed230c8,2020-08-08_10h27.59.886,lexical_decision_task_MP,2020.1.3,MacIntel,60,,m,1,0.70106,,,,,,,,0.70106,1,,,,,,106,WORD,UN,33,slogan,RANSOM,m,,,,,,0.081289062,-0.407604167,0,0,0,,0,349,349,165,1,,
,,,,,,,,,,,,,,,,,,5f2bcbf1eb53d868eed230c8,2020-08-08_10h27.59.886,lexical_decision_task_MP,2020.1.3,MacIntel,60,,m,1,0.5198,,,,,,,,0.5198,1,,,,,,179,WORD,UN,50,silent,BASKET,m,,,,,,0.081289062,-0.407604167,0,0,0,,0,350,350,238,1,,
,,,,,,,,,,,,,,,,,,5f2bcbf1eb53d868eed230c8,2020-08-08_10h27.59.886,lexical_decision_task_MP,2020.1.3,MacIntel,60,,z,1,0.702235,,,,,,,,0.702235,1,,,,,,275,NW,"ID",50,sleirt,SLEIRT,z,,,,,,0.081289062,-0.407604167,0,0,0,,0,351,351,334,1,,
,,,,,,,,,,,,,,,,,,5f2bcbf1eb53d868eed230c8,2020-08-08_10h27.59.886,lexical_decision_task_MP,2020.1.3,MacIntel,60,,m,1,0.551055,,,,,,,,0.551055,1,,,,,,152,WORD,UN,50,behold,ROCKET,m,,,,,,0.081289062,-0.407604167,0,0,0,,0,352,352,211,1,,
,,,,,,,,,,,,,,,,,,5f2bcbf1eb53d868eed230c8,2020-08-08_10h27.59.886,lexical_decision_task_MP,2020.1.3,MacIntel,60,,m,1,0.467435,,,,,,,,0.467435,1,,,,,,157,WORD,UN,50,island,DRAGON,m,,,,,,0.081289062,-0.407604167,0,0,0,,0,353,353,216,1,,
,,,,,,,,,,,,,,,,,,5f2bcbf1eb53d868eed230c8,2020-08-08_10h27.59.886,lexical_decision_task_MP,2020.1.3,MacIntel,60,,m,1,0.45236,,,,,,,,0.45236,1,,,,,,202,WORD,"ID",33,factor,FACTOR,m,,,,,,0.081289062,-0.407604167,0,0,0,,0,354,354,21,1,,
,,,,,,,,,,,,,,,,,,5f2bcbf1eb53d868eed230c8,2020-08-08_10h27.59.886,lexical_decision_task_MP,2020.1.3,MacIntel,60,,m,0,0.456435,,,,,,,,0.456435,0,,,,,,449,NW,"ID",33,brunge,BRUNGE,z,,,,,,0.081289062,-0.407604167,0,0,0,,0,355,355,268,1,,
,,,,,,,,,,,,,,,,,,5f2bcbf1eb53d868eed230c8,2020-08-08_10h27.59.886,lexical_decision_task_MP,2020.1.3,MacIntel,60,,z,1,0.609295,,,,,,,,0.609295,1,,,,,,307,NW,UN,33,psetch,KIRAFE,z,,,,,,0.081289062,-0.407604167,0,0,0,,0,356,356,366,1,,
,,,,,,,,,,,,,,,,,,5f2bcbf1eb53d868eed230c8,2020-08-08_10h27.59.886,lexical_decision_task_MP,2020.1.3,MacIntel,60,,m,0,0.690895,,,,,,,,0.690895,0,,,,,,295,NW,"ID",50,gleath,GLEATH,z,,,,,,0.081289062,-0.407604167,0,0,0,,0,357,357,354,1,,
,,,,,,,,,,,,,,,,,,5f2bcbf1eb53d868eed230c8,2020-08-08_10h27.59.886,lexical_decision_task_MP,2020.1.3,MacIntel,60,,z,1,0.7896,,,,,,,,0.7896,1,,,,,,301,NW,UN,33,miluer,FAINCH,z,,,,,,0.081289062,-0.407604167,0,0,0,,0,358,358,360,1,,
,,,,,,,,,,,,,,,,,,5f2bcbf1eb53d868eed230c8,2020-08-08_10h27.59.886,lexical_decision_task_MP,2020.1.3,MacIntel,60,,z,1,0.620165,,,,,,,,0.620165,1,,,,,,315,NW,UN,33,scregm,LASTON,z,,,,,,0.081289062,-0.407604167,0,0,0,,0,359,359,374,1,,
,,,,,,,,,,,,,,,,,,5f2bcbf1eb53d868eed230c8,2020-08-08_10h27.59.886,lexical_decision_task_MP,2020.1.3,MacIntel,60,,z,1,1.3708,,,,,,,,1.3708,1,,,,,,426,NW,"ID",33,urivel,URIVEL,z,,,,,,0.081289062,-0.407604167,0,0,0,,0,360,360,245,1,,
,,,,,,,,,,,,,,,,,,5f2bcbf1eb53d868eed230c8,2020-08-08_10h27.59.886,lexical_decision_task_MP,2020.1.3,MacIntel,60,,m,1,0.80154,,,,,,,,0.80154,1,,,,,,75,WORD,UN,33,exotic,TROPHY,m,,,,,,0.081289062,-0.407604167,0,0,0,,0,361,361,134,1,,
,,,,,,,,,,,,,,,,,,5f2bcbf1eb53d868eed230c8,2020-08-08_10h27.59.886,lexical_decision_task_MP,2020.1.3,MacIntel,60,,z,1,0.6517,,,,,,,,0.6517,1,,,,,,373,NW,UN,50,sliant,BIGENT,z,,,,,,0.081289062,-0.407604167,0,0,0,space,0,362,362,432,1,8.69762,
,,,,,,,,,,,,,,,,,,5f2bcbf1eb53d868eed230c8,2020-08-08_10h27.59.886,lexical_decision_task_MP,2020.1.3,MacIntel,60,,z,1,1.08832,,,,,,,,1.08832,1,,,,,,248,NW,"ID",50,strole,STROLE,z,,,,,,0.081289062,-0.407604167,0,0,0,,0,363,363,307,1,,
,,,,,,,,,,,,,,,,,,5f2bcbf1eb53d868eed230c8,2020-08-08_10h27.59.886,lexical_decision_task_MP,2020.1.3,MacIntel,60,,m,1,0.543815,,,,,,,,0.543815,1,,,,,,210,WORD,"ID",33,monkey,MONKEY,m,,,,,,0.081289062,-0.407604167,0,0,0,,0,364,364,29,1,,
,,,,,,,,,,,,,,,,,,5f2bcbf1eb53d868eed230c8,2020-08-08_10h27.59.886,lexical_decision_task_MP,2020.1.3,MacIntel,60,,z,1,0.639635,,,,,,,,0.639635,1,,,,,,436,NW,"ID",33,frutan,FRUTAN,z,,,,,,0.081289062,-0.407604167,0,0,0,,0,365,365,255,1,,
,,,,,,,,,,,,,,,,,,5f2bcbf1eb53d868eed230c8,2020-08-08_10h27.59.886,lexical_decision_task_MP,2020.1.3,MacIntel,60,,m,1,0.517765,,,,,,,,0.517765,1,,,,,,132,WORD,UN,50,orphan,STRONG,m,,,,,,0.081289062,-0.407604167,0,0,0,,0,366,366,191,1,,
,,,,,,,,,,,,,,,,,,5f2bcbf1eb53d868eed230c8,2020-08-08_10h27.59.886,lexical_decision_task_MP,2020.1.3,MacIntel,60,,z,1,0.892065,,,,,,,,0.892065,1,,,,,,342,NW,UN,33,aimosy,RANDOW,z,,,,,,0.081289062,-0.407604167,0,0,0,,0,367,367,401,1,,
,,,,,,,,,,,,,,,,,,5f2bcbf1eb53d868eed230c8,2020-08-08_10h27.59.886,lexical_decision_task_MP,2020.1.3,MacIntel,60,,z,1,0.557295,,,,,,,,0.557295,1,,,,,,253,NW,"ID",50,resait,RESAIT,z,,,,,,0.081289062,-0.407604167,0,0,0,,0,368,368,312,1,,
,,,,,,,,,,,,,,,,,,5f2bcbf1eb53d868eed230c8,2020-08-08_10h27.59.886,lexical_decision_task_MP,2020.1.3,MacIntel,60,,z,1,0.567995,,,,,,,,0.567995,1,,,,,,383,NW,UN,50,guesco,AUNGRE,z,,,,,,0.081289062,-0.407604167,0,0,0,,0,369,369,442,1,,
,,,,,,,,,,,,,,,,,,5f2bcbf1eb53d868eed230c8,2020-08-08_10h27.59.886,lexical_decision_task_MP,2020.1.3,MacIntel,60,,z,1,0.63479,,,,,,,,0.63479,1,,,,,,400,NW,UN,50,mustil,WEAROX,z,,,,,,0.081289062,-0.407604167,0,0,0,,0,370,370,459,1,,
,,,,,,,,,,,,,,,,,,5f2bcbf1eb53d868eed230c8,2020-08-08_10h27.59.886,lexical_decision_task_MP,2020.1.3,MacIntel,60,,m,1,0.584255,,,,,,,,0.584255,1,,,,,,150,WORD,UN,50,mystic,RANDOM,m,,,,,,0.081289062,-0.407604167,0,0,0,,0,371,371,209,1,,
,,,,,,,,,,,,,,,,,,5f2bcbf1eb53d868eed230c8,2020-08-08_10h27.59.886,lexical_decision_task_MP,2020.1.3,MacIntel,60,,m,1,0.568915,,,,,,,,0.568915,1,,,,,,10,WORD,"ID",50,ethnic,ETHNIC,m,,,,,,0.081289062,-0.407604167,0,0,0,,0,372,372,69,1,,
,,,,,,,,,,,,,,,,,,5f2bcbf1eb53d868eed230c8,2020-08-08_10h27.59.886,lexical_decision_task_MP,2020.1.3,MacIntel,60,,z,1,0.591155,,,,,,,,0.591155,1,,,,,,451,NW,"ID",33,cainky,CAINKY,z,,,,,,0.081289062,-0.407604167,0,0,0,,0,373,373,270,1,,
,,,,,,,,,,,,,,,,,,5f2bcbf1eb53d868eed230c8,2020-08-08_10h27.59.886,lexical_decision_task_MP,2020.1.3,MacIntel,60,,z,1,0.538225,,,,,,,,0.538225,1,,,,,,347,NW,UN,33,dumple,KERIFT,z,,,,,,0.081289062,-0.407604167,0,0,0,,0,374,374,406,1,,
,,,,,,,,,,,,,,,,,,5f2bcbf1eb53d868eed230c8,2020-08-08_10h27.59.886,lexical_decision_task_MP,2020.1.3,MacIntel,60,,m,1,0.562885,,,,,,,,0.562885,1,,,,,,40,WORD,"ID",50,convey,CONVEY,m,,,,,,0.081289062,-0.407604167,0,0,0,,0,375,375,99,1,,
,,,,,,,,,,,,,,,,,,5f2bcbf1eb53d868eed230c8,2020-08-08_10h27.59.886,lexical_decision_task_MP,2020.1.3,MacIntel,60,,z,1,0.821655,,,,,,,,0.821655,1,,,,,,425,NW,"ID",33,frudge,FRUDGE,z,,,,,,0.081289062,-0.407604167,0,0,0,,0,376,376,244,1,,
,,,,,,,,,,,,,,,,,,5f2bcbf1eb53d868eed230c8,2020-08-08_10h27.59.886,lexical_decision_task_MP,2020.1.3,MacIntel,60,,m,1,0.732975,,,,,,,,0.732975,1,,,,,,43,WORD,"ID",50,tongue,TONGUE,m,,,,,,0.081289062,-0.407604167,0,0,0,,0,377,377,102,1,,
,,,,,,,,,,,,,,,,,,5f2bcbf1eb53d868eed230c8,2020-08-08_10h27.59.886,lexical_decision_task_MP,2020.1.3,MacIntel,60,,m,1,0.556155,,,,,,,,0.556155,1,,,,,,146,WORD,UN,50,garlic,COUPLE,m,,,,,,0.081289062,-0.407604167,0,0,0,,0,378,378,205,1,,
,,,,,,,,,,,,,,,,,,5f2bcbf1eb53d868eed230c8,2020-08-08_10h27.59.886,lexical_decision_task_MP,2020.1.3,MacIntel,60,,z,1,0.619865,,,,,,,,0.619865,1,,,,,,474,NW,"ID",33,hablin,HABLIN,z,,,,,,0.081289062,-0.407604167,0,0,0,,0,379,379,293,1,,
,,,,,,,,,,,,,,,,,,5f2bcbf1eb53d868eed230c8,2020-08-08_10h27.59.886,lexical_decision_task_MP,2020.1.3,MacIntel,60,,z,1,0.832705,,,,,,,,0.832705,1,,,,,,442,NW,"ID",33,aboune,ABOUNE,z,,,,,,0.081289062,-0.407604167,0,0,0,,0,380,380,261,1,,
,,,,,,,,,,,,,,,,,,5f2bcbf1eb53d868eed230c8,2020-08-08_10h27.59.886,lexical_decision_task_MP,2020.1.3,MacIntel,60,,m,1,1.056005,,,,,,,,1.056005,1,,,,,,83,WORD,UN,33,mortal,RESULT,m,,,,,,0.081289062,-0.407604167,0,0,0,,0,381,381,142,1,,
,,,,,,,,,,,,,,,,,,5f2bcbf1eb53d868eed230c8,2020-08-08_10h27.59.886,lexical_decision_task_MP,2020.1.3,MacIntel,60,,z,1,0.706555,,,,,,,,0.706555,1,,,,,,245,NW,"ID",50,anougs,ANOUGS,z,,,,,,0.081289062,-0.407604167,0,0,0,,0,382,382,304,1,,
,,,,,,,,,,,,,,,,,,5f2bcbf1eb53d868eed230c8,2020-08-08_10h27.59.886,lexical_decision_task_MP,2020.1.3,MacIntel,60,,z,1,0.596805,,,,,,,,0.596805,1,,,,,,391,NW,UN,50,rouncy,THELDY,z,,,,,,0.081289062,-0.407604167,0,0,0,,0,383,383,450,1,,
,,,,,,,,,,,,,,,,,,5f2bcbf1eb53d868eed230c8,2020-08-08_10h27.59.886,lexical_decision_task_MP,2020.1.3,MacIntel,60,,m,1,0.567745,,,,,,,,0.567745,1,,,,,,194,WORD,"ID",33,absent,ABSENT,m,,,,,,0.081289062,-0.407604167,0,0,0,,0,384,384,13,1,,
,,,,,,,,,,,,,,,,,,5f2bcbf1eb53d868eed230c8,2020-08-08_10h27.59.886,lexical_decision_task_MP,2020.1.3,MacIntel,60,,m,1,0.736805,,,,,,,,0.736805,1,,,,,,145,WORD,UN,50,couple,PARISH,m,,,,,,0.081289062,-0.407604167,0,0,0,,0,385,385,204,1,,
,,,,,,,,,,,,,,,,,,5f2bcbf1eb53d868eed230c8,2020-08-08_10h27.59.886,lexical_decision_task_MP,2020.1.3,MacIntel,60,,m,1,0.568605,,,,,,,,0.568605,1,,,,,,65,WORD,UN,33,gospel,SYMBOL,m,,,,,,0.081289062,-0.407604167,0,0,0,,0,386,386,124,1,,
,,,,,,,,,,,,,,,,,,5f2bcbf1eb53d868eed230c8,2020-08-08_10h27.59.886,lexical_decision_task_MP,2020.1.3,MacIntel,60,,m,1,0.53224,,,,,,,,0.53224,1,,,,,,6,WORD,"ID",50,bundle,BUNDLE,m,,,,,,0.081289062,-0.407604167,0,0,0,,0,387,387,65,1,,
,,,,,,,,,,,,,,,,,,5f2bcbf1eb53d868eed230c8,2020-08-08_10h27.59.886,lexical_decision_task_MP,2020.1.3,MacIntel,60,,z,1,0.820645,,,,,,,,0.820645,1,,,,,,291,NW,"ID",50,pretch,PRETCH,z,,,,,,0.081289062,-0.407604167,0,0,0,,0,388,388,350,1,,
,,,,,,,,,,,,,,,,,,5f2bcbf1eb53d868eed230c8,2020-08-08_10h27.59.886,lexical_decision_task_MP,2020.1.3,MacIntel,60,,m,1,0.62097,,,,,,,,0.62097,1,,,,,,147,WORD,UN,50,custom,GARLIC,m,,,,,,0.081289062,-0.407604167,0,0,0,,0,389,389,206,1,,
,,,,,,,,,,,,,,,,,,5f2bcbf1eb53d868eed230c8,2020-08-08_10h27.59.886,lexical_decision_task_MP,2020.1.3,MacIntel,60,,z,1,0.704285,,,,,,,,0.704285,1,,,,,,284,NW,"ID",50,shaple,SHAPLE,z,,,,,,0.081289062,-0.407604167,0,0,0,,0,390,390,343,1,,
,,,,,,,,,,,,,,,,,,5f2bcbf1eb53d868eed230c8,2020-08-08_10h27.59.886,lexical_decision_task_MP,2020.1.3,MacIntel,60,,m,1,0.684785,,,,,,,,0.684785,1,,,,,,156,WORD,UN,50,depart,CRADLE,m,,,,,,0.081289062,-0.407604167,0,0,0,,0,391,391,215,1,,
,,,,,,,,,,,,,,,,,,5f2bcbf1eb53d868eed230c8,2020-08-08_10h27.59.886,lexical_decision_task_MP,2020.1.3,MacIntel,60,,m,1,0.705125,,,,,,,,0.705125,1,,,,,,82,WORD,UN,33,result,STIGMA,m,,,,,,0.081289062,-0.407604167,0,0,0,,0,392,392,141,1,,
,,,,,,,,,,,,,,,,,,5f2bcbf1eb53d868eed230c8,2020-08-08_10h27.59.886,lexical_decision_task_MP,2020.1.3,MacIntel,60,,z,1,0.605785,,,,,,,,0.605785,1,,,,,,296,NW,"ID",50,beinch,BEINCH,z,,,,,,0.081289062,-0.407604167,0,0,0,,0,393,393,355,1,,
,,,,,,,,,,,,,,,,,,5f2bcbf1eb53d868eed230c8,2020-08-08_10h27.59.886,lexical_decision_task_MP,2020.1.3,MacIntel,60,,m,1,0.70591,,,,,,,,0.70591,1,,,,,,71,WORD,UN,33,bright,GARDEN,m,,,,,,0.081289062,-0.407604167,0,0,0,,0,394,394,130,1,,
,,,,,,,,,,,,,,,,,,5f2bcbf1eb53d868eed230c8,2020-08-08_10h27.59.886,lexical_decision_task_MP,2020.1.3,MacIntel,60,,z,1,0.514435,,,,,,,,0.514435,1,,,,,,331,NW,UN,33,vangue,GILFEW,z,,,,,,0.081289062,-0.407604167,0,0,0,,0,395,395,390,1,,
