counterbalancing_condition,instr_done_keyboard.keys,instr_done_keyboard.rt,instr_done_touch.x,instr_done_touch.y,instr_done_touch.leftButton,instr_done_touch.midButton,instr_done_touch.rightButton,instruction_pages.thisRepN,instruction_pages.thisTrialN,instruction_pages.thisN,instruction_pages.thisIndex,instruction_pages.ran,pageN,phase,instruct_text,has_image,instruct_image,participant,date,expName,psychopyVersion,OS,frameRate,response.keys,response.corr,response.rt,touch_resp.x,touch_resp.y,touch_resp.leftButton,touch_resp.midButton,touch_resp.rightButton,touch_resp.time,touch_resp.clicked_name,rt,corr,practice_trials.thisRepN,practice_trials.thisTrialN,practice_trials.thisN,practice_trials.thisIndex,practice_trials.ran,TrialID,StimulusType,Condition,PrimeDuration,Prime,Target,corrAns,end_of_practice_trials_pages.thisRepN,end_of_practice_trials_pages.thisTrialN,end_of_practice_trials_pages.thisN,end_of_practice_trials_pages.thisIndex,end_of_practice_trials_pages.ran,break_done_touch.x,break_done_touch.y,break_done_touch.leftButton,break_done_touch.midButton,break_done_touch.rightButton,break_done_keyboard.keys,trials.thisRepN,trials.thisTrialN,trials.thisN,trials.thisIndex,trials.ran,break_done_keyboard.rt
0,space,24.28557,0.068658854,-0.086592882,0,0,0,0,0,0,0,1,1,instructions,"INSTRUCTIONS
At the start of each trial, look at the hash marks (######) in the center of the screen. After a moment, a string of letters will appear. Your task is to indicate if the letter string forms a word or not (i.e., if it is a nonword). For example, AUTHOR is a word while AUTHON is a nonword.

Press the space bar or touch the button below to continue.",0,,5f2d4939e1b8742bba60a1e4,2020-08-10_17h49.57.497,lexical_decision_task_MP,2020.1.3,MacIntel,60,,,,,,,,,,,,,,,,,,,,,,,,,,,,,,,,,,,,,,,,,
,space,10.071355,0.068658854,-0.086592882,0,0,0,0,1,1,1,1,2,instructions,"If your device has a keyboard, press the 'Z' key for nonwords and the 'M' key for words.





Press the space bar or touch the button below to continue.",1,keyboard-example.gif,5f2d4939e1b8742bba60a1e4,2020-08-10_17h49.57.497,lexical_decision_task_MP,2020.1.3,MacIntel,60,,,,,,,,,,,,,,,,,,,,,,,,,,,,,,,,,,,,,,,,,
,space,1.646485,0.068658854,-0.086592882,0,0,0,0,2,2,2,1,3,instructions,"If you are using a touchscreen only device, use the buttons on the screen. Do not use the mouse.





Press the space bar or touch the button below to continue.",1,touchscreen-example.gif,5f2d4939e1b8742bba60a1e4,2020-08-10_17h49.57.497,lexical_decision_task_MP,2020.1.3,MacIntel,60,,,,,,,,,,,,,,,,,,,,,,,,,,,,,,,,,,,,,,,,,
,space,16.582535,0.068658854,-0.086592882,0,0,0,0,3,3,3,1,4,instructions,"It is very important that you respond as quickly and accurately as possible, as each letter string will only be on the screen for two seconds. If you do not respond within this time, the message 'Too slow!' will be displayed and the experiment will progress to the next letter string. The first 20 trials will be practice trials and you will receive feedback on your answers. 

Press the space bar or touch the button below to start the practice trials.",0,,5f2d4939e1b8742bba60a1e4,2020-08-10_17h49.57.497,lexical_decision_task_MP,2020.1.3,MacIntel,60,,,,,,,,,,,,,,,,,,,,,,,,,,,,,,,,,,,,,,,,,
,,,,,,,,,,,,,,,,,,5f2d4939e1b8742bba60a1e4,2020-08-10_17h49.57.497,lexical_decision_task_MP,2020.1.3,MacIntel,60,m,0,1.23578,,,,,,,,1.23578,0,0,0,0,10,1,1011,NW,"ID",50,inlade,INLADE,z,,,,,,,,,,,,,,,,,
,,,,,,,,,,,,,,,,,,5f2d4939e1b8742bba60a1e4,2020-08-10_17h49.57.497,lexical_decision_task_MP,2020.1.3,MacIntel,60,z,0,0.954425,,,,,,,,0.954425,0,0,1,1,5,1,1006,WORD,UN,33,frenzy,OBTAIN,m,,,,,,,,,,,,,,,,,
,,,,,,,,,,,,,,,,,,5f2d4939e1b8742bba60a1e4,2020-08-10_17h49.57.497,lexical_decision_task_MP,2020.1.3,MacIntel,60,m,0,0.832875,,,,,,,,0.832875,0,0,2,2,8,1,1009,NW,"ID",33,aslert,ASLERT,z,,,,,,,,,,,,,,,,,
,,,,,,,,,,,,,,,,,,5f2d4939e1b8742bba60a1e4,2020-08-10_17h49.57.497,lexical_decision_task_MP,2020.1.3,MacIntel,60,z,1,0.87386,,,,,,,,0.87386,1,0,3,3,12,1,1013,NW,UN,33,adveil,SPRINY,z,,,,,,,,,,,,,,,,,
,,,,,,,,,,,,,,,,,,5f2d4939e1b8742bba60a1e4,2020-08-10_17h49.57.497,lexical_decision_task_MP,2020.1.3,MacIntel,60,z,1,0.782565,,,,,,,,0.782565,1,0,4,4,11,1,1012,NW,"ID",50,rashet,RASHET,z,,,,,,,,,,,,,,,,,
,,,,,,,,,,,,,,,,,,5f2d4939e1b8742bba60a1e4,2020-08-10_17h49.57.497,lexical_decision_task_MP,2020.1.3,MacIntel,60,z,1,0.594645,,,,,,,,0.594645,1,0,5,5,15,1,1016,NW,UN,50,mushed,WHAISE,z,,,,,,,,,,,,,,,,,
,,,,,,,,,,,,,,,,,,5f2d4939e1b8742bba60a1e4,2020-08-10_17h49.57.497,lexical_decision_task_MP,2020.1.3,MacIntel,60,z,1,0.54569,,,,,,,,0.54569,1,0,6,6,13,1,1014,NW,UN,33,winfer,ROUPET,z,,,,,,,,,,,,,,,,,
,,,,,,,,,,,,,,,,,,5f2d4939e1b8742bba60a1e4,2020-08-10_17h49.57.497,lexical_decision_task_MP,2020.1.3,MacIntel,60,m,1,0.58714,,,,,,,,0.58714,1,0,7,7,3,1,1004,WORD,"ID",50,matrix,MATRIX,m,,,,,,,,,,,,,,,,,
,,,,,,,,,,,,,,,,,,5f2d4939e1b8742bba60a1e4,2020-08-10_17h49.57.497,lexical_decision_task_MP,2020.1.3,MacIntel,60,m,1,0.5331,,,,,,,,0.5331,1,0,8,8,2,1,1003,WORD,"ID",50,almond,ALMOND,m,,,,,,,,,,,,,,,,,
,,,,,,,,,,,,,,,,,,5f2d4939e1b8742bba60a1e4,2020-08-10_17h49.57.497,lexical_decision_task_MP,2020.1.3,MacIntel,60,m,1,0.502995,,,,,,,,0.502995,1,0,9,9,7,1,1008,WORD,UN,50,hurdle,VOLUME,m,,,,,,,,,,,,,,,,,
,,,,,,,,,,,,,,,,,,5f2d4939e1b8742bba60a1e4,2020-08-10_17h49.57.497,lexical_decision_task_MP,2020.1.3,MacIntel,60,m,1,0.56281,,,,,,,,0.56281,1,0,10,10,4,1,1005,WORD,UN,33,abound,SQUEAK,m,,,,,,,,,,,,,,,,,
,,,,,,,,,,,,,,,,,,5f2d4939e1b8742bba60a1e4,2020-08-10_17h49.57.497,lexical_decision_task_MP,2020.1.3,MacIntel,60,z,1,0.666835,,,,,,,,0.666835,1,0,11,11,14,1,1015,NW,UN,50,miaber,THRALE,z,,,,,,,,,,,,,,,,,
,,,,,,,,,,,,,,,,,,5f2d4939e1b8742bba60a1e4,2020-08-10_17h49.57.497,lexical_decision_task_MP,2020.1.3,MacIntel,60,m,1,0.541145,,,,,,,,0.541145,1,0,12,12,6,1,1007,WORD,UN,50,tropic,ZOMBIE,m,,,,,,,,,,,,,,,,,
,,,,,,,,,,,,,,,,,,5f2d4939e1b8742bba60a1e4,2020-08-10_17h49.57.497,lexical_decision_task_MP,2020.1.3,MacIntel,60,m,0,0.66938,,,,,,,,0.66938,0,0,13,13,9,1,1010,NW,"ID",33,fariny,FARINY,z,,,,,,,,,,,,,,,,,
,,,,,,,,,,,,,,,,,,5f2d4939e1b8742bba60a1e4,2020-08-10_17h49.57.497,lexical_decision_task_MP,2020.1.3,MacIntel,60,m,1,0.746395,,,,,,,,0.746395,1,0,14,14,1,1,1002,WORD,"ID",33,adjust,ADJUST,m,,,,,,,,,,,,,,,,,
,,,,,,,,,,,,,,,,,,5f2d4939e1b8742bba60a1e4,2020-08-10_17h49.57.497,lexical_decision_task_MP,2020.1.3,MacIntel,60,z,0,0.53362,,,,,,,,0.53362,0,0,15,15,0,1,1001,WORD,"ID",33,utopia,UTOPIA,m,,,,,,,,,,,,,,,,,
,space,25.113075,0.068658854,-0.086592882,0,0,0,,,,,,1,end_of_practice,"You have completed the practice trials. During the experimental trials, you will not receive feedback, but it is very important that you respond as quickly and accurately as possible. 
Before you begin, please ensure that you are in a comfortable and quiet location and will not be disturbed for about 15 minutes, as we cannot use your data if you do not complete all the trials. 
There will be opportunities to take breaks at regular intervals during the experiment. When you are ready to start the experimental trials, please press space or touch the button below.",,,5f2d4939e1b8742bba60a1e4,2020-08-10_17h49.57.497,lexical_decision_task_MP,2020.1.3,MacIntel,60,,,,,,,,,,,,,,,,,,,,,,,,,0,0,0,0,1,,,,,,,,,,,,
,,,,,,,,,,,,,,,,,,5f2d4939e1b8742bba60a1e4,2020-08-10_17h49.57.497,lexical_decision_task_MP,2020.1.3,MacIntel,60,z,0,1.18417,,,,,,,,1.18417,0,,,,,,113,WORD,UN,33,placid,CHORUS,m,,,,,,0.068658854,-0.086592882,0,0,0,,0,0,0,172,1,
,,,,,,,,,,,,,,,,,,5f2d4939e1b8742bba60a1e4,2020-08-10_17h49.57.497,lexical_decision_task_MP,2020.1.3,MacIntel,60,z,1,0.816425,,,,,,,,0.816425,1,,,,,,424,NW,"ID",33,praile,PRAILE,z,,,,,,0.068658854,-0.086592882,0,0,0,,0,1,1,243,1,
,,,,,,,,,,,,,,,,,,5f2d4939e1b8742bba60a1e4,2020-08-10_17h49.57.497,lexical_decision_task_MP,2020.1.3,MacIntel,60,z,1,0.854965,,,,,,,,0.854965,1,,,,,,260,NW,"ID",50,unject,UNJECT,z,,,,,,0.068658854,-0.086592882,0,0,0,,0,2,2,319,1,
,,,,,,,,,,,,,,,,,,5f2d4939e1b8742bba60a1e4,2020-08-10_17h49.57.497,lexical_decision_task_MP,2020.1.3,MacIntel,60,z,1,0.900425,,,,,,,,0.900425,1,,,,,,401,NW,UN,50,syntic,MUSTIL,z,,,,,,0.068658854,-0.086592882,0,0,0,,0,3,3,460,1,
,,,,,,,,,,,,,,,,,,5f2d4939e1b8742bba60a1e4,2020-08-10_17h49.57.497,lexical_decision_task_MP,2020.1.3,MacIntel,60,z,1,0.738545,,,,,,,,0.738545,1,,,,,,409,NW,UN,50,tunory,ELOPIA,z,,,,,,0.068658854,-0.086592882,0,0,0,,0,4,4,468,1,
,,,,,,,,,,,,,,,,,,5f2d4939e1b8742bba60a1e4,2020-08-10_17h49.57.497,lexical_decision_task_MP,2020.1.3,MacIntel,60,z,1,0.632525,,,,,,,,0.632525,1,,,,,,399,NW,UN,50,wearox,FOURET,z,,,,,,0.068658854,-0.086592882,0,0,0,,0,5,5,458,1,
,,,,,,,,,,,,,,,,,,5f2d4939e1b8742bba60a1e4,2020-08-10_17h49.57.497,lexical_decision_task_MP,2020.1.3,MacIntel,60,m,0,0.902645,,,,,,,,0.902645,0,,,,,,414,NW,UN,50,higsta,SERBOL,z,,,,,,0.068658854,-0.086592882,0,0,0,,0,6,6,473,1,
,,,,,,,,,,,,,,,,,,5f2d4939e1b8742bba60a1e4,2020-08-10_17h49.57.497,lexical_decision_task_MP,2020.1.3,MacIntel,60,z,1,0.82889,,,,,,,,0.82889,1,,,,,,352,NW,UN,33,clurey,TRINGE,z,,,,,,0.068658854,-0.086592882,0,0,0,,0,7,7,411,1,
,,,,,,,,,,,,,,,,,,5f2d4939e1b8742bba60a1e4,2020-08-10_17h49.57.497,lexical_decision_task_MP,2020.1.3,MacIntel,60,m,1,0.662015,,,,,,,,0.662015,1,,,,,,59,WORD,"ID",50,splint,SPLINT,m,,,,,,0.068658854,-0.086592882,0,0,0,,0,8,8,118,1,
,,,,,,,,,,,,,,,,,,5f2d4939e1b8742bba60a1e4,2020-08-10_17h49.57.497,lexical_decision_task_MP,2020.1.3,MacIntel,60,m,1,0.735455,,,,,,,,0.735455,1,,,,,,114,WORD,UN,33,guitar,PLACID,m,,,,,,0.068658854,-0.086592882,0,0,0,,0,9,9,173,1,
,,,,,,,,,,,,,,,,,,5f2d4939e1b8742bba60a1e4,2020-08-10_17h49.57.497,lexical_decision_task_MP,2020.1.3,MacIntel,60,z,1,0.686025,,,,,,,,0.686025,1,,,,,,287,NW,"ID",50,nymbel,NYMBEL,z,,,,,,0.068658854,-0.086592882,0,0,0,,0,10,10,346,1,
,,,,,,,,,,,,,,,,,,5f2d4939e1b8742bba60a1e4,2020-08-10_17h49.57.497,lexical_decision_task_MP,2020.1.3,MacIntel,60,m,1,0.76779,,,,,,,,0.76779,1,,,,,,30,WORD,"ID",50,orient,ORIENT,m,,,,,,0.068658854,-0.086592882,0,0,0,,0,11,11,89,1,
,,,,,,,,,,,,,,,,,,5f2d4939e1b8742bba60a1e4,2020-08-10_17h49.57.497,lexical_decision_task_MP,2020.1.3,MacIntel,60,m,1,0.67966,,,,,,,,0.67966,1,,,,,,218,WORD,"ID",33,shrink,SHRINK,m,,,,,,0.068658854,-0.086592882,0,0,0,,0,12,12,37,1,
,,,,,,,,,,,,,,,,,,5f2d4939e1b8742bba60a1e4,2020-08-10_17h49.57.497,lexical_decision_task_MP,2020.1.3,MacIntel,60,z,1,0.71418,,,,,,,,0.71418,1,,,,,,354,NW,UN,33,zingly,VIRLEX,z,,,,,,0.068658854,-0.086592882,0,0,0,,0,13,13,413,1,
,,,,,,,,,,,,,,,,,,5f2d4939e1b8742bba60a1e4,2020-08-10_17h49.57.497,lexical_decision_task_MP,2020.1.3,MacIntel,60,m,1,0.716915,,,,,,,,0.716915,1,,,,,,206,WORD,"ID",33,tailor,TAILOR,m,,,,,,0.068658854,-0.086592882,0,0,0,,0,14,14,25,1,
,,,,,,,,,,,,,,,,,,5f2d4939e1b8742bba60a1e4,2020-08-10_17h49.57.497,lexical_decision_task_MP,2020.1.3,MacIntel,60,m,1,0.72096,,,,,,,,0.72096,1,,,,,,116,WORD,UN,33,branch,TUMBLE,m,,,,,,0.068658854,-0.086592882,0,0,0,,0,15,15,175,1,
,,,,,,,,,,,,,,,,,,5f2d4939e1b8742bba60a1e4,2020-08-10_17h49.57.497,lexical_decision_task_MP,2020.1.3,MacIntel,60,m,1,0.64894,,,,,,,,0.64894,1,,,,,,72,WORD,UN,33,source,BRIGHT,m,,,,,,0.068658854,-0.086592882,0,0,0,,0,16,16,131,1,
,,,,,,,,,,,,,,,,,,5f2d4939e1b8742bba60a1e4,2020-08-10_17h49.57.497,lexical_decision_task_MP,2020.1.3,MacIntel,60,z,1,0.57378,,,,,,,,0.57378,1,,,,,,337,NW,UN,33,wreash,REJOLS,z,,,,,,0.068658854,-0.086592882,0,0,0,,0,17,17,396,1,
,,,,,,,,,,,,,,,,,,5f2d4939e1b8742bba60a1e4,2020-08-10_17h49.57.497,lexical_decision_task_MP,2020.1.3,MacIntel,60,m,1,0.565695,,,,,,,,0.565695,1,,,,,,238,WORD,"ID",33,flower,FLOWER,m,,,,,,0.068658854,-0.086592882,0,0,0,,0,18,18,57,1,
,,,,,,,,,,,,,,,,,,5f2d4939e1b8742bba60a1e4,2020-08-10_17h49.57.497,lexical_decision_task_MP,2020.1.3,MacIntel,60,m,1,0.63777,,,,,,,,0.63777,1,,,,,,54,WORD,"ID",50,ramble,RAMBLE,m,,,,,,0.068658854,-0.086592882,0,0,0,,0,19,19,113,1,
,,,,,,,,,,,,,,,,,,5f2d4939e1b8742bba60a1e4,2020-08-10_17h49.57.497,lexical_decision_task_MP,2020.1.3,MacIntel,60,m,1,0.61321,,,,,,,,0.61321,1,,,,,,67,WORD,UN,33,fumble,POLICY,m,,,,,,0.068658854,-0.086592882,0,0,0,,0,20,20,126,1,
,,,,,,,,,,,,,,,,,,5f2d4939e1b8742bba60a1e4,2020-08-10_17h49.57.497,lexical_decision_task_MP,2020.1.3,MacIntel,60,z,1,0.82038,,,,,,,,0.82038,1,,,,,,267,NW,"ID",50,pasink,PASINK,z,,,,,,0.068658854,-0.086592882,0,0,0,,0,21,21,326,1,
,,,,,,,,,,,,,,,,,,5f2d4939e1b8742bba60a1e4,2020-08-10_17h49.57.497,lexical_decision_task_MP,2020.1.3,MacIntel,60,z,1,0.751665,,,,,,,,0.751665,1,,,,,,465,NW,"ID",33,whivex,WHIVEX,z,,,,,,0.068658854,-0.086592882,0,0,0,,0,22,22,284,1,
,,,,,,,,,,,,,,,,,,5f2d4939e1b8742bba60a1e4,2020-08-10_17h49.57.497,lexical_decision_task_MP,2020.1.3,MacIntel,60,z,1,0.768775,,,,,,,,0.768775,1,,,,,,252,NW,"ID",50,stapod,STAPOD,z,,,,,,0.068658854,-0.086592882,0,0,0,,0,23,23,311,1,
,,,,,,,,,,,,,,,,,,5f2d4939e1b8742bba60a1e4,2020-08-10_17h49.57.497,lexical_decision_task_MP,2020.1.3,MacIntel,60,z,1,0.63346,,,,,,,,0.63346,1,,,,,,296,NW,"ID",50,beinch,BEINCH,z,,,,,,0.068658854,-0.086592882,0,0,0,,0,24,24,355,1,
,,,,,,,,,,,,,,,,,,5f2d4939e1b8742bba60a1e4,2020-08-10_17h49.57.497,lexical_decision_task_MP,2020.1.3,MacIntel,60,m,1,0.633155,,,,,,,,0.633155,1,,,,,,155,WORD,UN,50,cradle,LIZARD,m,,,,,,0.068658854,-0.086592882,0,0,0,,0,25,25,214,1,
,,,,,,,,,,,,,,,,,,5f2d4939e1b8742bba60a1e4,2020-08-10_17h49.57.497,lexical_decision_task_MP,2020.1.3,MacIntel,60,z,1,0.705465,,,,,,,,0.705465,1,,,,,,410,NW,UN,50,orchin,TUNORY,z,,,,,,0.068658854,-0.086592882,0,0,0,,0,26,26,469,1,
,,,,,,,,,,,,,,,,,,5f2d4939e1b8742bba60a1e4,2020-08-10_17h49.57.497,lexical_decision_task_MP,2020.1.3,MacIntel,60,z,1,0.68771,,,,,,,,0.68771,1,,,,,,279,NW,"ID",50,celond,CELOND,z,,,,,,0.068658854,-0.086592882,0,0,0,,0,27,27,338,1,
,,,,,,,,,,,,,,,,,,5f2d4939e1b8742bba60a1e4,2020-08-10_17h49.57.497,lexical_decision_task_MP,2020.1.3,MacIntel,60,m,1,0.634795,,,,,,,,0.634795,1,,,,,,177,WORD,UN,50,inform,ADVENT,m,,,,,,0.068658854,-0.086592882,0,0,0,,0,28,28,236,1,
,,,,,,,,,,,,,,,,,,5f2d4939e1b8742bba60a1e4,2020-08-10_17h49.57.497,lexical_decision_task_MP,2020.1.3,MacIntel,60,z,1,0.633045,,,,,,,,0.633045,1,,,,,,385,NW,UN,50,ancust,VEIGMA,z,,,,,,0.068658854,-0.086592882,0,0,0,,0,29,29,444,1,
,,,,,,,,,,,,,,,,,,5f2d4939e1b8742bba60a1e4,2020-08-10_17h49.57.497,lexical_decision_task_MP,2020.1.3,MacIntel,60,m,1,0.569215,,,,,,,,0.569215,1,,,,,,203,WORD,"ID",33,phrase,PHRASE,m,,,,,,0.068658854,-0.086592882,0,0,0,,0,30,30,22,1,
,,,,,,,,,,,,,,,,,,5f2d4939e1b8742bba60a1e4,2020-08-10_17h49.57.497,lexical_decision_task_MP,2020.1.3,MacIntel,60,m,1,0.644775,,,,,,,,0.644775,1,,,,,,157,WORD,UN,50,island,DRAGON,m,,,,,,0.068658854,-0.086592882,0,0,0,,0,31,31,216,1,
,,,,,,,,,,,,,,,,,,5f2d4939e1b8742bba60a1e4,2020-08-10_17h49.57.497,lexical_decision_task_MP,2020.1.3,MacIntel,60,m,0,0.68464,,,,,,,,0.68464,0,,,,,,449,NW,"ID",33,brunge,BRUNGE,z,,,,,,0.068658854,-0.086592882,0,0,0,,0,32,32,268,1,
,,,,,,,,,,,,,,,,,,5f2d4939e1b8742bba60a1e4,2020-08-10_17h49.57.497,lexical_decision_task_MP,2020.1.3,MacIntel,60,m,1,0.569345,,,,,,,,0.569345,1,,,,,,24,WORD,"ID",50,praise,PRAISE,m,,,,,,0.068658854,-0.086592882,0,0,0,,0,33,33,83,1,
,,,,,,,,,,,,,,,,,,5f2d4939e1b8742bba60a1e4,2020-08-10_17h49.57.497,lexical_decision_task_MP,2020.1.3,MacIntel,60,z,1,0.60096,,,,,,,,0.60096,1,,,,,,478,NW,"ID",33,acrise,ACRISE,z,,,,,,0.068658854,-0.086592882,0,0,0,,0,34,34,297,1,
,,,,,,,,,,,,,,,,,,5f2d4939e1b8742bba60a1e4,2020-08-10_17h49.57.497,lexical_decision_task_MP,2020.1.3,MacIntel,60,m,0,0.71603,,,,,,,,0.71603,0,,,,,,475,NW,"ID",33,pebric,PEBRIC,z,,,,,,0.068658854,-0.086592882,0,0,0,,0,35,35,294,1,
,,,,,,,,,,,,,,,,,,5f2d4939e1b8742bba60a1e4,2020-08-10_17h49.57.497,lexical_decision_task_MP,2020.1.3,MacIntel,60,z,1,1.036245,,,,,,,,1.036245,1,,,,,,346,NW,UN,33,kerift,SAUDIC,z,,,,,,0.068658854,-0.086592882,0,0,0,,0,36,36,405,1,
,,,,,,,,,,,,,,,,,,5f2d4939e1b8742bba60a1e4,2020-08-10_17h49.57.497,lexical_decision_task_MP,2020.1.3,MacIntel,60,m,1,0.620675,,,,,,,,0.620675,1,,,,,,161,WORD,UN,50,candle,PASTOR,m,,,,,,0.068658854,-0.086592882,0,0,0,,0,37,37,220,1,
,,,,,,,,,,,,,,,,,,5f2d4939e1b8742bba60a1e4,2020-08-10_17h49.57.497,lexical_decision_task_MP,2020.1.3,MacIntel,60,m,1,0.58388,,,,,,,,0.58388,1,,,,,,191,WORD,"ID",33,stable,STABLE,m,,,,,,0.068658854,-0.086592882,0,0,0,,0,38,38,10,1,
,,,,,,,,,,,,,,,,,,5f2d4939e1b8742bba60a1e4,2020-08-10_17h49.57.497,lexical_decision_task_MP,2020.1.3,MacIntel,60,z,1,0.55315,,,,,,,,0.55315,1,,,,,,288,NW,"ID",50,yaceup,YACEUP,z,,,,,,0.068658854,-0.086592882,0,0,0,,0,39,39,347,1,
,,,,,,,,,,,,,,,,,,5f2d4939e1b8742bba60a1e4,2020-08-10_17h49.57.497,lexical_decision_task_MP,2020.1.3,MacIntel,60,m,1,0.58757,,,,,,,,0.58757,1,,,,,,76,WORD,UN,33,racket,EXOTIC,m,,,,,,0.068658854,-0.086592882,0,0,0,,0,40,40,135,1,
,,,,,,,,,,,,,,,,,,5f2d4939e1b8742bba60a1e4,2020-08-10_17h49.57.497,lexical_decision_task_MP,2020.1.3,MacIntel,60,m,1,0.65541,,,,,,,,0.65541,1,,,,,,223,WORD,"ID",33,kidney,KIDNEY,m,,,,,,0.068658854,-0.086592882,0,0,0,,0,41,41,42,1,
,,,,,,,,,,,,,,,,,,5f2d4939e1b8742bba60a1e4,2020-08-10_17h49.57.497,lexical_decision_task_MP,2020.1.3,MacIntel,60,m,1,0.566125,,,,,,,,0.566125,1,,,,,,39,WORD,"ID",50,insect,INSECT,m,,,,,,0.068658854,-0.086592882,0,0,0,,0,42,42,98,1,
,,,,,,,,,,,,,,,,,,5f2d4939e1b8742bba60a1e4,2020-08-10_17h49.57.497,lexical_decision_task_MP,2020.1.3,MacIntel,60,m,1,0.581105,,,,,,,,0.581105,1,,,,,,42,WORD,"ID",50,chapel,CHAPEL,m,,,,,,0.068658854,-0.086592882,0,0,0,,0,43,43,101,1,
,,,,,,,,,,,,,,,,,,5f2d4939e1b8742bba60a1e4,2020-08-10_17h49.57.497,lexical_decision_task_MP,2020.1.3,MacIntel,60,m,1,0.59585,,,,,,,,0.59585,1,,,,,,77,WORD,UN,33,column,RACKET,m,,,,,,0.068658854,-0.086592882,0,0,0,,0,44,44,136,1,
,,,,,,,,,,,,,,,,,,5f2d4939e1b8742bba60a1e4,2020-08-10_17h49.57.497,lexical_decision_task_MP,2020.1.3,MacIntel,60,m,1,0.552095,,,,,,,,0.552095,1,,,,,,179,WORD,UN,50,silent,BASKET,m,,,,,,0.068658854,-0.086592882,0,0,0,,0,45,45,238,1,
,,,,,,,,,,,,,,,,,,5f2d4939e1b8742bba60a1e4,2020-08-10_17h49.57.497,lexical_decision_task_MP,2020.1.3,MacIntel,60,z,1,0.58432,,,,,,,,0.58432,1,,,,,,371,NW,UN,50,ramily,GEILOY,z,,,,,,0.068658854,-0.086592882,0,0,0,,0,46,46,430,1,
,,,,,,,,,,,,,,,,,,5f2d4939e1b8742bba60a1e4,2020-08-10_17h49.57.497,lexical_decision_task_MP,2020.1.3,MacIntel,60,m,0,0.81703,,,,,,,,0.81703,0,,,,,,261,NW,"ID",50,stunch,STUNCH,z,,,,,,0.068658854,-0.086592882,0,0,0,,0,47,47,320,1,
,,,,,,,,,,,,,,,,,,5f2d4939e1b8742bba60a1e4,2020-08-10_17h49.57.497,lexical_decision_task_MP,2020.1.3,MacIntel,60,z,1,0.50151,,,,,,,,0.50151,1,,,,,,408,NW,UN,50,elopia,HURNIA,z,,,,,,0.068658854,-0.086592882,0,0,0,,0,48,48,467,1,
,,,,,,,,,,,,,,,,,,5f2d4939e1b8742bba60a1e4,2020-08-10_17h49.57.497,lexical_decision_task_MP,2020.1.3,MacIntel,60,m,1,0.65106,,,,,,,,0.65106,1,,,,,,236,WORD,"ID",33,pirate,PIRATE,m,,,,,,0.068658854,-0.086592882,0,0,0,,0,49,49,55,1,
,,,,,,,,,,,,,,,,,,5f2d4939e1b8742bba60a1e4,2020-08-10_17h49.57.497,lexical_decision_task_MP,2020.1.3,MacIntel,60,z,1,0.53395,,,,,,,,0.53395,1,,,,,,264,NW,"ID",50,vackel,VACKEL,z,,,,,,0.068658854,-0.086592882,0,0,0,,0,50,50,323,1,
,,,,,,,,,,,,,,,,,,5f2d4939e1b8742bba60a1e4,2020-08-10_17h49.57.497,lexical_decision_task_MP,2020.1.3,MacIntel,60,z,0,0.583015,,,,,,,,0.583015,0,,,,,,142,WORD,UN,50,reason,SPRUCE,m,,,,,,0.068658854,-0.086592882,0,0,0,,0,51,51,201,1,
,,,,,,,,,,,,,,,,,,5f2d4939e1b8742bba60a1e4,2020-08-10_17h49.57.497,lexical_decision_task_MP,2020.1.3,MacIntel,60,z,0,0.634045,,,,,,,,0.634045,0,,,,,,149,WORD,UN,50,random,INVADE,m,,,,,,0.068658854,-0.086592882,0,0,0,,0,52,52,208,1,
,,,,,,,,,,,,,,,,,,5f2d4939e1b8742bba60a1e4,2020-08-10_17h49.57.497,lexical_decision_task_MP,2020.1.3,MacIntel,60,m,0,0.707645,,,,,,,,0.707645,0,,,,,,413,NW,UN,50,serbol,EQUATS,z,,,,,,0.068658854,-0.086592882,0,0,0,,0,53,53,472,1,
,,,,,,,,,,,,,,,,,,5f2d4939e1b8742bba60a1e4,2020-08-10_17h49.57.497,lexical_decision_task_MP,2020.1.3,MacIntel,60,m,1,0.68229,,,,,,,,0.68229,1,,,,,,112,WORD,UN,33,chorus,BREATH,m,,,,,,0.068658854,-0.086592882,0,0,0,,0,54,54,171,1,
,,,,,,,,,,,,,,,,,,5f2d4939e1b8742bba60a1e4,2020-08-10_17h49.57.497,lexical_decision_task_MP,2020.1.3,MacIntel,60,m,1,0.61424,,,,,,,,0.61424,1,,,,,,147,WORD,UN,50,custom,GARLIC,m,,,,,,0.068658854,-0.086592882,0,0,0,,0,55,55,206,1,
,,,,,,,,,,,,,,,,,,5f2d4939e1b8742bba60a1e4,2020-08-10_17h49.57.497,lexical_decision_task_MP,2020.1.3,MacIntel,60,m,1,0.552205,,,,,,,,0.552205,1,,,,,,34,WORD,"ID",50,jungle,JUNGLE,m,,,,,,0.068658854,-0.086592882,0,0,0,,0,56,56,93,1,
,,,,,,,,,,,,,,,,,,5f2d4939e1b8742bba60a1e4,2020-08-10_17h49.57.497,lexical_decision_task_MP,2020.1.3,MacIntel,60,z,1,0.820405,,,,,,,,0.820405,1,,,,,,293,NW,"ID",50,swance,SWANCE,z,,,,,,0.068658854,-0.086592882,0,0,0,,0,57,57,352,1,
,,,,,,,,,,,,,,,,,,5f2d4939e1b8742bba60a1e4,2020-08-10_17h49.57.497,lexical_decision_task_MP,2020.1.3,MacIntel,60,z,1,0.679115,,,,,,,,0.679115,1,,,,,,421,NW,"ID",33,knisma,KNISMA,z,,,,,,0.068658854,-0.086592882,0,0,0,,0,58,58,240,1,
,,,,,,,,,,,,,,,,,,5f2d4939e1b8742bba60a1e4,2020-08-10_17h49.57.497,lexical_decision_task_MP,2020.1.3,MacIntel,60,z,1,0.604135,,,,,,,,0.604135,1,,,,,,365,NW,UN,50,toshel,GUAIRT,z,,,,,,0.068658854,-0.086592882,0,0,0,,0,59,59,424,1,
,,,,,,,,,,,,,,,,,,5f2d4939e1b8742bba60a1e4,2020-08-10_17h49.57.497,lexical_decision_task_MP,2020.1.3,MacIntel,60,m,1,0.56769,,,,,,,,0.56769,1,,,,,,28,WORD,"ID",50,comedy,COMEDY,m,,,,,,0.068658854,-0.086592882,0,0,0,,0,60,60,87,1,
,,,,,,,,,,,,,,,,,,5f2d4939e1b8742bba60a1e4,2020-08-10_17h49.57.497,lexical_decision_task_MP,2020.1.3,MacIntel,60,z,1,0.629565,,,,,,,,0.629565,1,,,,,,431,NW,"ID",33,chrums,CHRUMS,z,,,,,,0.068658854,-0.086592882,0,0,0,,0,61,61,250,1,
,,,,,,,,,,,,,,,,,,5f2d4939e1b8742bba60a1e4,2020-08-10_17h49.57.497,lexical_decision_task_MP,2020.1.3,MacIntel,60,m,1,0.63376,,,,,,,,0.63376,1,,,,,,160,WORD,UN,50,pastor,VIOLET,m,,,,,,0.068658854,-0.086592882,0,0,0,,0,62,62,219,1,
,,,,,,,,,,,,,,,,,,5f2d4939e1b8742bba60a1e4,2020-08-10_17h49.57.497,lexical_decision_task_MP,2020.1.3,MacIntel,60,m,1,0.56837,,,,,,,,0.56837,1,,,,,,233,WORD,"ID",33,nature,NATURE,m,,,,,,0.068658854,-0.086592882,0,0,0,,0,63,63,52,1,
,,,,,,,,,,,,,,,,,,5f2d4939e1b8742bba60a1e4,2020-08-10_17h49.57.497,lexical_decision_task_MP,2020.1.3,MacIntel,60,m,1,0.718665,,,,,,,,0.718665,1,,,,,,171,WORD,UN,50,patrol,DEPART,m,,,,,,0.068658854,-0.086592882,0,0,0,,0,64,64,230,1,
,,,,,,,,,,,,,,,,,,5f2d4939e1b8742bba60a1e4,2020-08-10_17h49.57.497,lexical_decision_task_MP,2020.1.3,MacIntel,60,z,1,0.670955,,,,,,,,0.670955,1,,,,,,295,NW,"ID",50,gleath,GLEATH,z,,,,,,0.068658854,-0.086592882,0,0,0,,0,65,65,354,1,
,,,,,,,,,,,,,,,,,,5f2d4939e1b8742bba60a1e4,2020-08-10_17h49.57.497,lexical_decision_task_MP,2020.1.3,MacIntel,60,m,1,0.73125,,,,,,,,0.73125,1,,,,,,99,WORD,UN,33,carbon,FLUENT,m,,,,,,0.068658854,-0.086592882,0,0,0,,0,66,66,158,1,
,,,,,,,,,,,,,,,,,,5f2d4939e1b8742bba60a1e4,2020-08-10_17h49.57.497,lexical_decision_task_MP,2020.1.3,MacIntel,60,z,1,0.687185,,,,,,,,0.687185,1,,,,,,344,NW,UN,33,absend,SCRILY,z,,,,,,0.068658854,-0.086592882,0,0,0,,0,67,67,403,1,
,,,,,,,,,,,,,,,,,,5f2d4939e1b8742bba60a1e4,2020-08-10_17h49.57.497,lexical_decision_task_MP,2020.1.3,MacIntel,60,z,1,0.76631,,,,,,,,0.76631,1,,,,,,309,NW,UN,33,daniet,AMILOY,z,,,,,,0.068658854,-0.086592882,0,0,0,,0,68,68,368,1,
,,,,,,,,,,,,,,,,,,5f2d4939e1b8742bba60a1e4,2020-08-10_17h49.57.497,lexical_decision_task_MP,2020.1.3,MacIntel,60,m,0,0.683405,,,,,,,,0.683405,0,,,,,,305,NW,UN,33,sounge,FORGLE,z,,,,,,0.068658854,-0.086592882,0,0,0,,0,69,69,364,1,
,,,,,,,,,,,,,,,,,,5f2d4939e1b8742bba60a1e4,2020-08-10_17h49.57.497,lexical_decision_task_MP,2020.1.3,MacIntel,60,z,1,0.649585,,,,,,,,0.649585,1,,,,,,377,NW,UN,50,shrile,INJORE,z,,,,,,0.068658854,-0.086592882,0,0,0,,0,70,70,436,1,
,,,,,,,,,,,,,,,,,,5f2d4939e1b8742bba60a1e4,2020-08-10_17h49.57.497,lexical_decision_task_MP,2020.1.3,MacIntel,60,z,1,0.58178,,,,,,,,0.58178,1,,,,,,342,NW,UN,33,aimosy,RANDOW,z,,,,,,0.068658854,-0.086592882,0,0,0,,0,71,71,401,1,
,,,,,,,,,,,,,,,,,,5f2d4939e1b8742bba60a1e4,2020-08-10_17h49.57.497,lexical_decision_task_MP,2020.1.3,MacIntel,60,m,1,0.632325,,,,,,,,0.632325,1,,,,,,164,WORD,UN,50,invest,MARKET,m,,,,,,0.068658854,-0.086592882,0,0,0,,0,72,72,223,1,
,,,,,,,,,,,,,,,,,,5f2d4939e1b8742bba60a1e4,2020-08-10_17h49.57.497,lexical_decision_task_MP,2020.1.3,MacIntel,60,z,0,0.721465,,,,,,,,0.721465,0,,,,,,115,WORD,UN,33,tumble,GUITAR,m,,,,,,0.068658854,-0.086592882,0,0,0,,0,73,73,174,1,
,,,,,,,,,,,,,,,,,,5f2d4939e1b8742bba60a1e4,2020-08-10_17h49.57.497,lexical_decision_task_MP,2020.1.3,MacIntel,60,m,1,0.834835,,,,,,,,0.834835,1,,,,,,183,WORD,"ID",33,mildew,MILDEW,m,,,,,,0.068658854,-0.086592882,0,0,0,,0,74,74,2,1,
,,,,,,,,,,,,,,,,,,5f2d4939e1b8742bba60a1e4,2020-08-10_17h49.57.497,lexical_decision_task_MP,2020.1.3,MacIntel,60,m,1,0.817405,,,,,,,,0.817405,1,,,,,,133,WORD,UN,50,staple,CHROME,m,,,,,,0.068658854,-0.086592882,0,0,0,,0,75,75,192,1,
,,,,,,,,,,,,,,,,,,5f2d4939e1b8742bba60a1e4,2020-08-10_17h49.57.497,lexical_decision_task_MP,2020.1.3,MacIntel,60,z,1,0.717435,,,,,,,,0.717435,1,,,,,,476,NW,"ID",33,josted,JOSTED,z,,,,,,0.068658854,-0.086592882,0,0,0,,0,76,76,295,1,
,,,,,,,,,,,,,,,,,,5f2d4939e1b8742bba60a1e4,2020-08-10_17h49.57.497,lexical_decision_task_MP,2020.1.3,MacIntel,60,m,1,0.652095,,,,,,,,0.652095,1,,,,,,197,WORD,"ID",33,stream,STREAM,m,,,,,,0.068658854,-0.086592882,0,0,0,,0,77,77,16,1,
,,,,,,,,,,,,,,,,,,5f2d4939e1b8742bba60a1e4,2020-08-10_17h49.57.497,lexical_decision_task_MP,2020.1.3,MacIntel,60,z,1,0.76724,,,,,,,,0.76724,1,,,,,,450,NW,"ID",33,phrect,PHRECT,z,,,,,,0.068658854,-0.086592882,0,0,0,,0,78,78,269,1,
,,,,,,,,,,,,,,,,,,5f2d4939e1b8742bba60a1e4,2020-08-10_17h49.57.497,lexical_decision_task_MP,2020.1.3,MacIntel,60,z,1,0.638515,,,,,,,,0.638515,1,,,,,,302,NW,UN,33,fiream,MILUER,z,,,,,,0.068658854,-0.086592882,0,0,0,,0,79,79,361,1,
,,,,,,,,,,,,,,,,,,5f2d4939e1b8742bba60a1e4,2020-08-10_17h49.57.497,lexical_decision_task_MP,2020.1.3,MacIntel,60,m,1,0.8202,,,,,,,,0.8202,1,,,,,,168,WORD,UN,50,genius,ANSWER,m,,,,,,0.068658854,-0.086592882,0,0,0,,0,80,80,227,1,
,,,,,,,,,,,,,,,,,,5f2d4939e1b8742bba60a1e4,2020-08-10_17h49.57.497,lexical_decision_task_MP,2020.1.3,MacIntel,60,z,1,0.68603,,,,,,,,0.68603,1,,,,,,304,NW,UN,33,forgle,CLUDIE,z,,,,,,0.068658854,-0.086592882,0,0,0,,0,81,81,363,1,
,,,,,,,,,,,,,,,,,,5f2d4939e1b8742bba60a1e4,2020-08-10_17h49.57.497,lexical_decision_task_MP,2020.1.3,MacIntel,60,m,1,0.584345,,,,,,,,0.584345,1,,,,,,55,WORD,"ID",50,stroke,STROKE,m,,,,,,0.068658854,-0.086592882,0,0,0,,0,82,82,114,1,
,,,,,,,,,,,,,,,,,,5f2d4939e1b8742bba60a1e4,2020-08-10_17h49.57.497,lexical_decision_task_MP,2020.1.3,MacIntel,60,m,0,0.63383,,,,,,,,0.63383,0,,,,,,386,NW,UN,50,gronce,ANCUST,z,,,,,,0.068658854,-0.086592882,0,0,0,,0,83,83,445,1,
,,,,,,,,,,,,,,,,,,5f2d4939e1b8742bba60a1e4,2020-08-10_17h49.57.497,lexical_decision_task_MP,2020.1.3,MacIntel,60,z,0,0.684755,,,,,,,,0.684755,0,,,,,,81,WORD,UN,33,stigma,FRIEND,m,,,,,,0.068658854,-0.086592882,0,0,0,,0,84,84,140,1,
,,,,,,,,,,,,,,,,,,5f2d4939e1b8742bba60a1e4,2020-08-10_17h49.57.497,lexical_decision_task_MP,2020.1.3,MacIntel,60,m,1,0.64158,,,,,,,,0.64158,1,,,,,,208,WORD,"ID",33,hockey,HOCKEY,m,,,,,,0.068658854,-0.086592882,0,0,0,,0,85,85,27,1,
,,,,,,,,,,,,,,,,,,5f2d4939e1b8742bba60a1e4,2020-08-10_17h49.57.497,lexical_decision_task_MP,2020.1.3,MacIntel,60,m,1,0.80137,,,,,,,,0.80137,1,,,,,,219,WORD,"ID",33,bucket,BUCKET,m,,,,,,0.068658854,-0.086592882,0,0,0,,0,86,86,38,1,
,,,,,,,,,,,,,,,,,,5f2d4939e1b8742bba60a1e4,2020-08-10_17h49.57.497,lexical_decision_task_MP,2020.1.3,MacIntel,60,m,1,0.589305,,,,,,,,0.589305,1,,,,,,165,WORD,UN,50,starch,INVEST,m,,,,,,0.068658854,-0.086592882,0,0,0,,0,87,87,224,1,
,,,,,,,,,,,,,,,,,,5f2d4939e1b8742bba60a1e4,2020-08-10_17h49.57.497,lexical_decision_task_MP,2020.1.3,MacIntel,60,m,1,0.63482,,,,,,,,0.63482,1,,,,,,137,WORD,UN,50,melody,FINGER,m,,,,,,0.068658854,-0.086592882,0,0,0,,0,88,88,196,1,
,,,,,,,,,,,,,,,,,,5f2d4939e1b8742bba60a1e4,2020-08-10_17h49.57.497,lexical_decision_task_MP,2020.1.3,MacIntel,60,z,1,0.6501,,,,,,,,0.6501,1,,,,,,470,NW,"ID",33,crudio,CRUDIO,z,,,,,,0.068658854,-0.086592882,0,0,0,,0,89,89,289,1,
,,,,,,,,,,,,,,,,,,5f2d4939e1b8742bba60a1e4,2020-08-10_17h49.57.497,lexical_decision_task_MP,2020.1.3,MacIntel,60,z,1,0.56389,,,,,,,,0.56389,1,,,,,,420,NW,UN,50,pauche,GUSHOP,z,,,,,,0.068658854,-0.086592882,0,0,0,,0,90,90,479,1,
,,,,,,,,,,,,,,,,,,5f2d4939e1b8742bba60a1e4,2020-08-10_17h49.57.497,lexical_decision_task_MP,2020.1.3,MacIntel,60,z,1,0.73667,,,,,,,,0.73667,1,,,,,,319,NW,UN,33,jockal,ZOMBER,z,,,,,,0.068658854,-0.086592882,0,0,0,,0,91,91,378,1,
,,,,,,,,,,,,,,,,,,5f2d4939e1b8742bba60a1e4,2020-08-10_17h49.57.497,lexical_decision_task_MP,2020.1.3,MacIntel,60,m,1,0.596885,,,,,,,,0.596885,1,,,,,,33,WORD,"ID",50,butler,BUTLER,m,,,,,,0.068658854,-0.086592882,0,0,0,,0,92,92,92,1,
,,,,,,,,,,,,,,,,,,5f2d4939e1b8742bba60a1e4,2020-08-10_17h49.57.497,lexical_decision_task_MP,2020.1.3,MacIntel,60,z,1,0.637155,,,,,,,,0.637155,1,,,,,,300,NW,"ID",50,yarion,YARION,z,,,,,,0.068658854,-0.086592882,0,0,0,,0,93,93,359,1,
,,,,,,,,,,,,,,,,,,5f2d4939e1b8742bba60a1e4,2020-08-10_17h49.57.497,lexical_decision_task_MP,2020.1.3,MacIntel,60,z,1,0.624845,,,,,,,,0.624845,1,,,,,,480,NW,"ID",33,robuly,ROBULY,z,,,,,,0.068658854,-0.086592882,0,0,0,,0,94,94,299,1,
,,,,,,,,,,,,,,,,,,5f2d4939e1b8742bba60a1e4,2020-08-10_17h49.57.497,lexical_decision_task_MP,2020.1.3,MacIntel,60,z,1,0.56438,,,,,,,,0.56438,1,,,,,,323,NW,UN,33,steikh,ROSAIL,z,,,,,,0.068658854,-0.086592882,0,0,0,,0,95,95,382,1,
,,,,,,,,,,,,,,,,,,5f2d4939e1b8742bba60a1e4,2020-08-10_17h49.57.497,lexical_decision_task_MP,2020.1.3,MacIntel,60,m,1,0.620565,,,,,,,,0.620565,1,,,,,,85,WORD,UN,33,rodent,SPRAWL,m,,,,,,0.068658854,-0.086592882,0,0,0,,0,96,96,144,1,
,,,,,,,,,,,,,,,,,,5f2d4939e1b8742bba60a1e4,2020-08-10_17h49.57.497,lexical_decision_task_MP,2020.1.3,MacIntel,60,z,1,0.731365,,,,,,,,0.731365,1,,,,,,262,NW,"ID",50,quilew,QUILEW,z,,,,,,0.068658854,-0.086592882,0,0,0,,0,97,97,321,1,
,,,,,,,,,,,,,,,,,,5f2d4939e1b8742bba60a1e4,2020-08-10_17h49.57.497,lexical_decision_task_MP,2020.1.3,MacIntel,60,m,1,0.515905,,,,,,,,0.515905,1,,,,,,9,WORD,"ID",50,hustle,HUSTLE,m,,,,,,0.068658854,-0.086592882,0,0,0,,0,98,98,68,1,
,,,,,,,,,,,,,,,,,,5f2d4939e1b8742bba60a1e4,2020-08-10_17h49.57.497,lexical_decision_task_MP,2020.1.3,MacIntel,60,m,1,0.567265,,,,,,,,0.567265,1,,,,,,216,WORD,"ID",33,behalf,BEHALF,m,,,,,,0.068658854,-0.086592882,0,0,0,,0,99,99,35,1,
,,,,,,,,,,,,,,,,,,5f2d4939e1b8742bba60a1e4,2020-08-10_17h49.57.497,lexical_decision_task_MP,2020.1.3,MacIntel,60,m,1,0.56452,,,,,,,,0.56452,1,,,,,,170,WORD,UN,50,dragon,POUNCE,m,,,,,,0.068658854,-0.086592882,0,0,0,,0,100,100,229,1,
,,,,,,,,,,,,,,,,,,5f2d4939e1b8742bba60a1e4,2020-08-10_17h49.57.497,lexical_decision_task_MP,2020.1.3,MacIntel,60,z,1,0.583815,,,,,,,,0.583815,1,,,,,,343,NW,UN,33,scrily,AIMOSY,z,,,,,,0.068658854,-0.086592882,0,0,0,,0,101,101,402,1,
,,,,,,,,,,,,,,,,,,5f2d4939e1b8742bba60a1e4,2020-08-10_17h49.57.497,lexical_decision_task_MP,2020.1.3,MacIntel,60,z,0,0.63368,,,,,,,,0.63368,0,,,,,,120,WORD,UN,33,ponder,STRAIN,m,,,,,,0.068658854,-0.086592882,0,0,0,,0,102,102,179,1,
,,,,,,,,,,,,,,,,,,5f2d4939e1b8742bba60a1e4,2020-08-10_17h49.57.497,lexical_decision_task_MP,2020.1.3,MacIntel,60,m,1,0.623395,,,,,,,,0.623395,1,,,,,,4,WORD,"ID",50,trench,TRENCH,m,,,,,,0.068658854,-0.086592882,0,0,0,,0,103,103,63,1,
,,,,,,,,,,,,,,,,,,5f2d4939e1b8742bba60a1e4,2020-08-10_17h49.57.497,lexical_decision_task_MP,2020.1.3,MacIntel,60,m,1,0.671755,,,,,,,,0.671755,1,,,,,,64,WORD,UN,33,symbol,THRONE,m,,,,,,0.068658854,-0.086592882,0,0,0,,0,104,104,123,1,
,,,,,,,,,,,,,,,,,,5f2d4939e1b8742bba60a1e4,2020-08-10_17h49.57.497,lexical_decision_task_MP,2020.1.3,MacIntel,60,m,1,0.61362,,,,,,,,0.61362,1,,,,,,119,WORD,UN,33,strain,SPIDER,m,,,,,,0.068658854,-0.086592882,0,0,0,,0,105,105,178,1,
,,,,,,,,,,,,,,,,,,5f2d4939e1b8742bba60a1e4,2020-08-10_17h49.57.497,lexical_decision_task_MP,2020.1.3,MacIntel,60,z,1,0.75644,,,,,,,,0.75644,1,,,,,,380,NW,UN,50,huniek,CAVORY,z,,,,,,0.068658854,-0.086592882,0,0,0,,0,106,106,439,1,
,,,,,,,,,,,,,,,,,,5f2d4939e1b8742bba60a1e4,2020-08-10_17h49.57.497,lexical_decision_task_MP,2020.1.3,MacIntel,60,z,1,0.83981,,,,,,,,0.83981,1,,,,,,316,NW,UN,33,worbal,SCREGM,z,,,,,,0.068658854,-0.086592882,0,0,0,,0,107,107,375,1,
,,,,,,,,,,,,,,,,,,5f2d4939e1b8742bba60a1e4,2020-08-10_17h49.57.497,lexical_decision_task_MP,2020.1.3,MacIntel,60,m,1,0.555295,,,,,,,,0.555295,1,,,,,,38,WORD,"ID",50,powder,POWDER,m,,,,,,0.068658854,-0.086592882,0,0,0,,0,108,108,97,1,
,,,,,,,,,,,,,,,,,,5f2d4939e1b8742bba60a1e4,2020-08-10_17h49.57.497,lexical_decision_task_MP,2020.1.3,MacIntel,60,z,1,0.582645,,,,,,,,0.582645,1,,,,,,339,NW,UN,33,fiatch,FACHOW,z,,,,,,0.068658854,-0.086592882,0,0,0,,0,109,109,398,1,
,,,,,,,,,,,,,,,,,,5f2d4939e1b8742bba60a1e4,2020-08-10_17h49.57.497,lexical_decision_task_MP,2020.1.3,MacIntel,60,m,1,0.53981,,,,,,,,0.53981,1,,,,,,2,WORD,"ID",50,bridge,BRIDGE,m,,,,,,0.068658854,-0.086592882,0,0,0,,0,110,110,61,1,
,,,,,,,,,,,,,,,,,,5f2d4939e1b8742bba60a1e4,2020-08-10_17h49.57.497,lexical_decision_task_MP,2020.1.3,MacIntel,60,m,1,0.524625,,,,,,,,0.524625,1,,,,,,27,WORD,"ID",50,scream,SCREAM,m,,,,,,0.068658854,-0.086592882,0,0,0,,0,111,111,86,1,
,,,,,,,,,,,,,,,,,,5f2d4939e1b8742bba60a1e4,2020-08-10_17h49.57.497,lexical_decision_task_MP,2020.1.3,MacIntel,60,z,1,0.585605,,,,,,,,0.585605,1,,,,,,471,NW,"ID",33,nobest,NOBEST,z,,,,,,0.068658854,-0.086592882,0,0,0,,0,112,112,290,1,
,,,,,,,,,,,,,,,,,,5f2d4939e1b8742bba60a1e4,2020-08-10_17h49.57.497,lexical_decision_task_MP,2020.1.3,MacIntel,60,z,1,0.579505,,,,,,,,0.579505,1,,,,,,310,NW,UN,33,sproly,DANIET,z,,,,,,0.068658854,-0.086592882,0,0,0,,0,113,113,369,1,
,,,,,,,,,,,,,,,,,,5f2d4939e1b8742bba60a1e4,2020-08-10_17h49.57.497,lexical_decision_task_MP,2020.1.3,MacIntel,60,m,0,0.56556,,,,,,,,0.56556,0,,,,,,348,NW,UN,33,asylen,DUMPLE,z,,,,,,0.068658854,-0.086592882,0,0,0,,0,114,114,407,1,
,,,,,,,,,,,,,,,,,,5f2d4939e1b8742bba60a1e4,2020-08-10_17h49.57.497,lexical_decision_task_MP,2020.1.3,MacIntel,60,m,1,0.72485,,,,,,,,0.72485,1,,,,,,106,WORD,UN,33,slogan,RANSOM,m,,,,,,0.068658854,-0.086592882,0,0,0,,0,115,115,165,1,
,,,,,,,,,,,,,,,,,,5f2d4939e1b8742bba60a1e4,2020-08-10_17h49.57.497,lexical_decision_task_MP,2020.1.3,MacIntel,60,m,1,0.67078,,,,,,,,0.67078,1,,,,,,109,WORD,UN,33,polite,WONDER,m,,,,,,0.068658854,-0.086592882,0,0,0,,0,116,116,168,1,
,,,,,,,,,,,,,,,,,,5f2d4939e1b8742bba60a1e4,2020-08-10_17h49.57.497,lexical_decision_task_MP,2020.1.3,MacIntel,60,z,1,0.73193,,,,,,,,0.73193,1,,,,,,301,NW,UN,33,miluer,FAINCH,z,,,,,,0.068658854,-0.086592882,0,0,0,,0,117,117,360,1,
,,,,,,,,,,,,,,,,,,5f2d4939e1b8742bba60a1e4,2020-08-10_17h49.57.497,lexical_decision_task_MP,2020.1.3,MacIntel,60,z,1,0.59242,,,,,,,,0.59242,1,,,,,,356,NW,UN,33,derain,OTHNIS,z,,,,,,0.068658854,-0.086592882,0,0,0,,0,118,118,415,1,
,,,,,,,,,,,,,,,,,,5f2d4939e1b8742bba60a1e4,2020-08-10_17h49.57.497,lexical_decision_task_MP,2020.1.3,MacIntel,60,m,1,0.58287,,,,,,,,0.58287,1,,,,,,192,WORD,"ID",33,plague,PLAGUE,m,,,,,,0.068658854,-0.086592882,0,0,0,,0,119,119,11,1,
,,,,,,,,,,,,,,,,,,5f2d4939e1b8742bba60a1e4,2020-08-10_17h49.57.497,lexical_decision_task_MP,2020.1.3,MacIntel,60,z,1,0.767565,,,,,,,,0.767565,1,,,,,,303,NW,UN,33,cludie,FIREAM,z,,,,,,0.068658854,-0.086592882,0,0,0,space,0,120,120,362,1,28.527425
,,,,,,,,,,,,,,,,,,5f2d4939e1b8742bba60a1e4,2020-08-10_17h49.57.497,lexical_decision_task_MP,2020.1.3,MacIntel,60,z,1,0.65418,,,,,,,,0.65418,1,,,,,,415,NW,UN,50,pathel,HIGSTA,z,,,,,,0.068658854,-0.086592882,0,0,0,,0,121,121,474,1,
,,,,,,,,,,,,,,,,,,5f2d4939e1b8742bba60a1e4,2020-08-10_17h49.57.497,lexical_decision_task_MP,2020.1.3,MacIntel,60,z,1,0.53263,,,,,,,,0.53263,1,,,,,,291,NW,"ID",50,pretch,PRETCH,z,,,,,,0.068658854,-0.086592882,0,0,0,,0,122,122,350,1,
,,,,,,,,,,,,,,,,,,5f2d4939e1b8742bba60a1e4,2020-08-10_17h49.57.497,lexical_decision_task_MP,2020.1.3,MacIntel,60,m,1,0.55305,,,,,,,,0.55305,1,,,,,,173,WORD,UN,50,turkey,SHOWER,m,,,,,,0.068658854,-0.086592882,0,0,0,,0,123,123,232,1,
,,,,,,,,,,,,,,,,,,5f2d4939e1b8742bba60a1e4,2020-08-10_17h49.57.497,lexical_decision_task_MP,2020.1.3,MacIntel,60,m,1,0.69965,,,,,,,,0.69965,1,,,,,,41,WORD,"ID",50,spring,SPRING,m,,,,,,0.068658854,-0.086592882,0,0,0,,0,124,124,100,1,
,,,,,,,,,,,,,,,,,,5f2d4939e1b8742bba60a1e4,2020-08-10_17h49.57.497,lexical_decision_task_MP,2020.1.3,MacIntel,60,m,1,0.52371,,,,,,,,0.52371,1,,,,,,47,WORD,"ID",50,income,INCOME,m,,,,,,0.068658854,-0.086592882,0,0,0,,0,125,125,106,1,
,,,,,,,,,,,,,,,,,,5f2d4939e1b8742bba60a1e4,2020-08-10_17h49.57.497,lexical_decision_task_MP,2020.1.3,MacIntel,60,m,1,0.46577,,,,,,,,0.46577,1,,,,,,14,WORD,"ID",50,almost,ALMOST,m,,,,,,0.068658854,-0.086592882,0,0,0,,0,126,126,73,1,
,,,,,,,,,,,,,,,,,,5f2d4939e1b8742bba60a1e4,2020-08-10_17h49.57.497,lexical_decision_task_MP,2020.1.3,MacIntel,60,z,1,0.630235,,,,,,,,0.630235,1,,,,,,358,NW,UN,33,fonver,FLEACK,z,,,,,,0.068658854,-0.086592882,0,0,0,,0,127,127,417,1,
,,,,,,,,,,,,,,,,,,5f2d4939e1b8742bba60a1e4,2020-08-10_17h49.57.497,lexical_decision_task_MP,2020.1.3,MacIntel,60,z,1,0.51638,,,,,,,,0.51638,1,,,,,,444,NW,"ID",33,jaunce,JAUNCE,z,,,,,,0.068658854,-0.086592882,0,0,0,,0,128,128,263,1,
,,,,,,,,,,,,,,,,,,5f2d4939e1b8742bba60a1e4,2020-08-10_17h49.57.497,lexical_decision_task_MP,2020.1.3,MacIntel,60,m,1,0.699995,,,,,,,,0.699995,1,,,,,,167,WORD,UN,50,answer,DESIGN,m,,,,,,0.068658854,-0.086592882,0,0,0,,0,129,129,226,1,
,,,,,,,,,,,,,,,,,,5f2d4939e1b8742bba60a1e4,2020-08-10_17h49.57.497,lexical_decision_task_MP,2020.1.3,MacIntel,60,m,1,0.684295,,,,,,,,0.684295,1,,,,,,95,WORD,UN,33,ignore,THREAD,m,,,,,,0.068658854,-0.086592882,0,0,0,,0,130,130,154,1,
,,,,,,,,,,,,,,,,,,5f2d4939e1b8742bba60a1e4,2020-08-10_17h49.57.497,lexical_decision_task_MP,2020.1.3,MacIntel,60,z,1,0.68404,,,,,,,,0.68404,1,,,,,,361,NW,UN,50,tireau,PAUCHE,z,,,,,,0.068658854,-0.086592882,0,0,0,,0,131,131,420,1,
,,,,,,,,,,,,,,,,,,5f2d4939e1b8742bba60a1e4,2020-08-10_17h49.57.497,lexical_decision_task_MP,2020.1.3,MacIntel,60,m,1,0.845775,,,,,,,,0.845775,1,,,,,,43,WORD,"ID",50,tongue,TONGUE,m,,,,,,0.068658854,-0.086592882,0,0,0,,0,132,132,102,1,
,,,,,,,,,,,,,,,,,,5f2d4939e1b8742bba60a1e4,2020-08-10_17h49.57.497,lexical_decision_task_MP,2020.1.3,MacIntel,60,z,1,0.701245,,,,,,,,0.701245,1,,,,,,441,NW,"ID",33,rastoe,RASTOE,z,,,,,,0.068658854,-0.086592882,0,0,0,,0,133,133,260,1,
,,,,,,,,,,,,,,,,,,5f2d4939e1b8742bba60a1e4,2020-08-10_17h49.57.497,lexical_decision_task_MP,2020.1.3,MacIntel,60,z,1,0.65239,,,,,,,,0.65239,1,,,,,,392,NW,UN,50,ganous,ROUNCY,z,,,,,,0.068658854,-0.086592882,0,0,0,,0,134,134,451,1,
,,,,,,,,,,,,,,,,,,5f2d4939e1b8742bba60a1e4,2020-08-10_17h49.57.497,lexical_decision_task_MP,2020.1.3,MacIntel,60,z,1,0.57989,,,,,,,,0.57989,1,,,,,,448,NW,"ID",33,sadent,SADENT,z,,,,,,0.068658854,-0.086592882,0,0,0,,0,135,135,267,1,
,,,,,,,,,,,,,,,,,,5f2d4939e1b8742bba60a1e4,2020-08-10_17h49.57.497,lexical_decision_task_MP,2020.1.3,MacIntel,60,z,1,0.6384,,,,,,,,0.6384,1,,,,,,345,NW,UN,33,saudic,ABSEND,z,,,,,,0.068658854,-0.086592882,0,0,0,,0,136,136,404,1,
,,,,,,,,,,,,,,,,,,5f2d4939e1b8742bba60a1e4,2020-08-10_17h49.57.497,lexical_decision_task_MP,2020.1.3,MacIntel,60,z,1,0.544965,,,,,,,,0.544965,1,,,,,,249,NW,"ID",50,batrol,BATROL,z,,,,,,0.068658854,-0.086592882,0,0,0,,0,137,137,308,1,
,,,,,,,,,,,,,,,,,,5f2d4939e1b8742bba60a1e4,2020-08-10_17h49.57.497,lexical_decision_task_MP,2020.1.3,MacIntel,60,m,1,0.81718,,,,,,,,0.81718,1,,,,,,159,WORD,UN,50,violet,DETAIL,m,,,,,,0.068658854,-0.086592882,0,0,0,,0,138,138,218,1,
,,,,,,,,,,,,,,,,,,5f2d4939e1b8742bba60a1e4,2020-08-10_17h49.57.497,lexical_decision_task_MP,2020.1.3,MacIntel,60,m,0,0.6511,,,,,,,,0.6511,0,,,,,,313,NW,UN,33,sprine,PAURSE,z,,,,,,0.068658854,-0.086592882,0,0,0,,0,139,139,372,1,
,,,,,,,,,,,,,,,,,,5f2d4939e1b8742bba60a1e4,2020-08-10_17h49.57.497,lexical_decision_task_MP,2020.1.3,MacIntel,60,m,1,0.580375,,,,,,,,0.580375,1,,,,,,148,WORD,UN,50,invade,CUSTOM,m,,,,,,0.068658854,-0.086592882,0,0,0,,0,140,140,207,1,
,,,,,,,,,,,,,,,,,,5f2d4939e1b8742bba60a1e4,2020-08-10_17h49.57.497,lexical_decision_task_MP,2020.1.3,MacIntel,60,z,1,0.70019,,,,,,,,0.70019,1,,,,,,248,NW,"ID",50,strole,STROLE,z,,,,,,0.068658854,-0.086592882,0,0,0,,0,141,141,307,1,
,,,,,,,,,,,,,,,,,,5f2d4939e1b8742bba60a1e4,2020-08-10_17h49.57.497,lexical_decision_task_MP,2020.1.3,MacIntel,60,m,1,0.58527,,,,,,,,0.58527,1,,,,,,97,WORD,UN,33,belong,CLIENT,m,,,,,,0.068658854,-0.086592882,0,0,0,,0,142,142,156,1,
,,,,,,,,,,,,,,,,,,5f2d4939e1b8742bba60a1e4,2020-08-10_17h49.57.497,lexical_decision_task_MP,2020.1.3,MacIntel,60,z,1,0.540175,,,,,,,,0.540175,1,,,,,,308,NW,UN,33,amiloy,PSETCH,z,,,,,,0.068658854,-0.086592882,0,0,0,,0,143,143,367,1,
,,,,,,,,,,,,,,,,,,5f2d4939e1b8742bba60a1e4,2020-08-10_17h49.57.497,lexical_decision_task_MP,2020.1.3,MacIntel,60,m,1,0.533055,,,,,,,,0.533055,1,,,,,,205,WORD,"ID",33,lounge,LOUNGE,m,,,,,,0.068658854,-0.086592882,0,0,0,,0,144,144,24,1,
,,,,,,,,,,,,,,,,,,5f2d4939e1b8742bba60a1e4,2020-08-10_17h49.57.497,lexical_decision_task_MP,2020.1.3,MacIntel,60,z,1,0.501845,,,,,,,,0.501845,1,,,,,,253,NW,"ID",50,resait,RESAIT,z,,,,,,0.068658854,-0.086592882,0,0,0,,0,145,145,312,1,
,,,,,,,,,,,,,,,,,,5f2d4939e1b8742bba60a1e4,2020-08-10_17h49.57.497,lexical_decision_task_MP,2020.1.3,MacIntel,60,m,1,0.51564,,,,,,,,0.51564,1,,,,,,188,WORD,"ID",33,social,SOCIAL,m,,,,,,0.068658854,-0.086592882,0,0,0,,0,146,146,7,1,
,,,,,,,,,,,,,,,,,,5f2d4939e1b8742bba60a1e4,2020-08-10_17h49.57.497,lexical_decision_task_MP,2020.1.3,MacIntel,60,z,1,0.96769,,,,,,,,0.96769,1,,,,,,376,NW,UN,50,veigma,IGUARE,z,,,,,,0.068658854,-0.086592882,0,0,0,,0,147,147,435,1,
,,,,,,,,,,,,,,,,,,5f2d4939e1b8742bba60a1e4,2020-08-10_17h49.57.497,lexical_decision_task_MP,2020.1.3,MacIntel,60,m,1,0.584845,,,,,,,,0.584845,1,,,,,,201,WORD,"ID",33,admire,ADMIRE,m,,,,,,0.068658854,-0.086592882,0,0,0,,0,148,148,20,1,
,,,,,,,,,,,,,,,,,,5f2d4939e1b8742bba60a1e4,2020-08-10_17h49.57.497,lexical_decision_task_MP,2020.1.3,MacIntel,60,m,0,0.834835,,,,,,,,0.834835,0,,,,,,322,NW,UN,33,rosail,SLANCH,z,,,,,,0.068658854,-0.086592882,0,0,0,,0,149,149,381,1,
,,,,,,,,,,,,,,,,,,5f2d4939e1b8742bba60a1e4,2020-08-10_17h49.57.497,lexical_decision_task_MP,2020.1.3,MacIntel,60,m,1,0.670315,,,,,,,,0.670315,1,,,,,,214,WORD,"ID",33,intake,INTAKE,m,,,,,,0.068658854,-0.086592882,0,0,0,,0,150,150,33,1,
,,,,,,,,,,,,,,,,,,5f2d4939e1b8742bba60a1e4,2020-08-10_17h49.57.497,lexical_decision_task_MP,2020.1.3,MacIntel,60,m,1,0.80072,,,,,,,,0.80072,1,,,,,,195,WORD,"ID",33,resign,RESIGN,m,,,,,,0.068658854,-0.086592882,0,0,0,,0,151,151,14,1,
,,,,,,,,,,,,,,,,,,5f2d4939e1b8742bba60a1e4,2020-08-10_17h49.57.497,lexical_decision_task_MP,2020.1.3,MacIntel,60,z,1,0.901595,,,,,,,,0.901595,1,,,,,,382,NW,UN,50,aungre,SARLEY,z,,,,,,0.068658854,-0.086592882,0,0,0,,0,152,152,441,1,
,,,,,,,,,,,,,,,,,,5f2d4939e1b8742bba60a1e4,2020-08-10_17h49.57.497,lexical_decision_task_MP,2020.1.3,MacIntel,60,m,1,0.680885,,,,,,,,0.680885,1,,,,,,204,WORD,"ID",33,burden,BURDEN,m,,,,,,0.068658854,-0.086592882,0,0,0,,0,153,153,23,1,
,,,,,,,,,,,,,,,,,,5f2d4939e1b8742bba60a1e4,2020-08-10_17h49.57.497,lexical_decision_task_MP,2020.1.3,MacIntel,60,z,1,0.86875,,,,,,,,0.86875,1,,,,,,456,NW,"ID",33,broget,BROGET,z,,,,,,0.068658854,-0.086592882,0,0,0,,0,154,154,275,1,
,,,,,,,,,,,,,,,,,,5f2d4939e1b8742bba60a1e4,2020-08-10_17h49.57.497,lexical_decision_task_MP,2020.1.3,MacIntel,60,m,1,0.670115,,,,,,,,0.670115,1,,,,,,240,WORD,"ID",33,forest,FOREST,m,,,,,,0.068658854,-0.086592882,0,0,0,,0,155,155,59,1,
,,,,,,,,,,,,,,,,,,5f2d4939e1b8742bba60a1e4,2020-08-10_17h49.57.497,lexical_decision_task_MP,2020.1.3,MacIntel,60,m,1,0.71788,,,,,,,,0.71788,1,,,,,,222,WORD,"ID",33,hinder,HINDER,m,,,,,,0.068658854,-0.086592882,0,0,0,,0,156,156,41,1,
,,,,,,,,,,,,,,,,,,5f2d4939e1b8742bba60a1e4,2020-08-10_17h49.57.497,lexical_decision_task_MP,2020.1.3,MacIntel,60,z,1,0.590865,,,,,,,,0.590865,1,,,,,,254,NW,"ID",50,varosh,VAROSH,z,,,,,,0.068658854,-0.086592882,0,0,0,,0,157,157,313,1,
,,,,,,,,,,,,,,,,,,5f2d4939e1b8742bba60a1e4,2020-08-10_17h49.57.497,lexical_decision_task_MP,2020.1.3,MacIntel,60,m,1,0.56474,,,,,,,,0.56474,1,,,,,,209,WORD,"ID",33,search,SEARCH,m,,,,,,0.068658854,-0.086592882,0,0,0,,0,158,158,28,1,
,,,,,,,,,,,,,,,,,,5f2d4939e1b8742bba60a1e4,2020-08-10_17h49.57.497,lexical_decision_task_MP,2020.1.3,MacIntel,60,m,0,0.736155,,,,,,,,0.736155,0,,,,,,391,NW,UN,50,rouncy,THELDY,z,,,,,,0.068658854,-0.086592882,0,0,0,,0,159,159,450,1,
,,,,,,,,,,,,,,,,,,5f2d4939e1b8742bba60a1e4,2020-08-10_17h49.57.497,lexical_decision_task_MP,2020.1.3,MacIntel,60,m,1,0.920485,,,,,,,,0.920485,1,,,,,,181,WORD,"ID",33,glance,GLANCE,m,,,,,,0.068658854,-0.086592882,0,0,0,,0,160,160,0,1,
,,,,,,,,,,,,,,,,,,5f2d4939e1b8742bba60a1e4,2020-08-10_17h49.57.497,lexical_decision_task_MP,2020.1.3,MacIntel,60,m,1,0.517935,,,,,,,,0.517935,1,,,,,,63,WORD,UN,33,throne,LAUNCH,m,,,,,,0.068658854,-0.086592882,0,0,0,,0,161,161,122,1,
,,,,,,,,,,,,,,,,,,5f2d4939e1b8742bba60a1e4,2020-08-10_17h49.57.497,lexical_decision_task_MP,2020.1.3,MacIntel,60,z,1,0.61754,,,,,,,,0.61754,1,,,,,,312,NW,UN,33,paurse,NERAWL,z,,,,,,0.068658854,-0.086592882,0,0,0,,0,162,162,371,1,
,,,,,,,,,,,,,,,,,,5f2d4939e1b8742bba60a1e4,2020-08-10_17h49.57.497,lexical_decision_task_MP,2020.1.3,MacIntel,60,z,1,0.69956,,,,,,,,0.69956,1,,,,,,360,NW,UN,33,fainch,DESORY,z,,,,,,0.068658854,-0.086592882,0,0,0,,0,163,163,419,1,
,,,,,,,,,,,,,,,,,,5f2d4939e1b8742bba60a1e4,2020-08-10_17h49.57.497,lexical_decision_task_MP,2020.1.3,MacIntel,60,m,1,0.916575,,,,,,,,0.916575,1,,,,,,96,WORD,UN,33,client,IGNORE,m,,,,,,0.068658854,-0.086592882,0,0,0,,0,164,164,155,1,
,,,,,,,,,,,,,,,,,,5f2d4939e1b8742bba60a1e4,2020-08-10_17h49.57.497,lexical_decision_task_MP,2020.1.3,MacIntel,60,z,1,0.833795,,,,,,,,0.833795,1,,,,,,479,NW,"ID",33,lobush,LOBUSH,z,,,,,,0.068658854,-0.086592882,0,0,0,,0,165,165,298,1,
,,,,,,,,,,,,,,,,,,5f2d4939e1b8742bba60a1e4,2020-08-10_17h49.57.497,lexical_decision_task_MP,2020.1.3,MacIntel,60,m,1,0.699795,,,,,,,,0.699795,1,,,,,,129,WORD,UN,50,stupid,MARVEL,m,,,,,,0.068658854,-0.086592882,0,0,0,,0,166,166,188,1,
,,,,,,,,,,,,,,,,,,5f2d4939e1b8742bba60a1e4,2020-08-10_17h49.57.497,lexical_decision_task_MP,2020.1.3,MacIntel,60,z,1,0.85023,,,,,,,,0.85023,1,,,,,,326,NW,UN,33,plenac,IGUADE,z,,,,,,0.068658854,-0.086592882,0,0,0,,0,167,167,385,1,
,,,,,,,,,,,,,,,,,,5f2d4939e1b8742bba60a1e4,2020-08-10_17h49.57.497,lexical_decision_task_MP,2020.1.3,MacIntel,60,z,1,0.7559,,,,,,,,0.7559,1,,,,,,400,NW,UN,50,mustil,WEAROX,z,,,,,,0.068658854,-0.086592882,0,0,0,,0,168,168,459,1,
,,,,,,,,,,,,,,,,,,5f2d4939e1b8742bba60a1e4,2020-08-10_17h49.57.497,lexical_decision_task_MP,2020.1.3,MacIntel,60,m,1,0.503305,,,,,,,,0.503305,1,,,,,,44,WORD,"ID",50,danger,DANGER,m,,,,,,0.068658854,-0.086592882,0,0,0,,0,169,169,103,1,
,,,,,,,,,,,,,,,,,,5f2d4939e1b8742bba60a1e4,2020-08-10_17h49.57.497,lexical_decision_task_MP,2020.1.3,MacIntel,60,m,1,0.63736,,,,,,,,0.63736,1,,,,,,17,WORD,"ID",50,charge,CHARGE,m,,,,,,0.068658854,-0.086592882,0,0,0,,0,170,170,76,1,
,,,,,,,,,,,,,,,,,,5f2d4939e1b8742bba60a1e4,2020-08-10_17h49.57.497,lexical_decision_task_MP,2020.1.3,MacIntel,60,m,1,0.58177,,,,,,,,0.58177,1,,,,,,19,WORD,"ID",50,patron,PATRON,m,,,,,,0.068658854,-0.086592882,0,0,0,,0,171,171,78,1,
,,,,,,,,,,,,,,,,,,5f2d4939e1b8742bba60a1e4,2020-08-10_17h49.57.497,lexical_decision_task_MP,2020.1.3,MacIntel,60,z,0,0.75026,,,,,,,,0.75026,0,,,,,,122,WORD,UN,50,strike,LINGER,m,,,,,,0.068658854,-0.086592882,0,0,0,,0,172,172,181,1,
,,,,,,,,,,,,,,,,,,5f2d4939e1b8742bba60a1e4,2020-08-10_17h49.57.497,lexical_decision_task_MP,2020.1.3,MacIntel,60,m,1,0.874245,,,,,,,,0.874245,1,,,,,,53,WORD,"ID",50,police,POLICE,m,,,,,,0.068658854,-0.086592882,0,0,0,,0,173,173,112,1,
,,,,,,,,,,,,,,,,,,5f2d4939e1b8742bba60a1e4,2020-08-10_17h49.57.497,lexical_decision_task_MP,2020.1.3,MacIntel,60,m,1,0.867815,,,,,,,,0.867815,1,,,,,,211,WORD,"ID",33,infect,INFECT,m,,,,,,0.068658854,-0.086592882,0,0,0,,0,174,174,30,1,
,,,,,,,,,,,,,,,,,,5f2d4939e1b8742bba60a1e4,2020-08-10_17h49.57.497,lexical_decision_task_MP,2020.1.3,MacIntel,60,m,1,0.519015,,,,,,,,0.519015,1,,,,,,232,WORD,"ID",33,inject,INJECT,m,,,,,,0.068658854,-0.086592882,0,0,0,,0,175,175,51,1,
,,,,,,,,,,,,,,,,,,5f2d4939e1b8742bba60a1e4,2020-08-10_17h49.57.497,lexical_decision_task_MP,2020.1.3,MacIntel,60,z,1,0.63442,,,,,,,,0.63442,1,,,,,,426,NW,"ID",33,urivel,URIVEL,z,,,,,,0.068658854,-0.086592882,0,0,0,,0,176,176,245,1,
,,,,,,,,,,,,,,,,,,5f2d4939e1b8742bba60a1e4,2020-08-10_17h49.57.497,lexical_decision_task_MP,2020.1.3,MacIntel,60,z,1,0.732455,,,,,,,,0.732455,1,,,,,,461,NW,"ID",33,justre,JUSTRE,z,,,,,,0.068658854,-0.086592882,0,0,0,,0,177,177,280,1,
,,,,,,,,,,,,,,,,,,5f2d4939e1b8742bba60a1e4,2020-08-10_17h49.57.497,lexical_decision_task_MP,2020.1.3,MacIntel,60,m,1,0.538945,,,,,,,,0.538945,1,,,,,,207,WORD,"ID",33,wreath,WREATH,m,,,,,,0.068658854,-0.086592882,0,0,0,,0,178,178,26,1,
,,,,,,,,,,,,,,,,,,5f2d4939e1b8742bba60a1e4,2020-08-10_17h49.57.497,lexical_decision_task_MP,2020.1.3,MacIntel,60,m,0,0.68471,,,,,,,,0.68471,0,,,,,,265,NW,"ID",50,distar,DISTAR,z,,,,,,0.068658854,-0.086592882,0,0,0,,0,179,179,324,1,
,,,,,,,,,,,,,,,,,,5f2d4939e1b8742bba60a1e4,2020-08-10_17h49.57.497,lexical_decision_task_MP,2020.1.3,MacIntel,60,z,1,0.663575,,,,,,,,0.663575,1,,,,,,430,NW,"ID",33,caroey,CAROEY,z,,,,,,0.068658854,-0.086592882,0,0,0,,0,180,180,249,1,
,,,,,,,,,,,,,,,,,,5f2d4939e1b8742bba60a1e4,2020-08-10_17h49.57.497,lexical_decision_task_MP,2020.1.3,MacIntel,60,z,1,0.63793,,,,,,,,0.63793,1,,,,,,427,NW,"ID",33,schind,SCHIND,z,,,,,,0.068658854,-0.086592882,0,0,0,,0,181,181,246,1,
,,,,,,,,,,,,,,,,,,5f2d4939e1b8742bba60a1e4,2020-08-10_17h49.57.497,lexical_decision_task_MP,2020.1.3,MacIntel,60,m,1,0.71899,,,,,,,,0.71899,1,,,,,,104,WORD,UN,33,number,STUDIO,m,,,,,,0.068658854,-0.086592882,0,0,0,,0,182,182,163,1,
,,,,,,,,,,,,,,,,,,5f2d4939e1b8742bba60a1e4,2020-08-10_17h49.57.497,lexical_decision_task_MP,2020.1.3,MacIntel,60,z,1,0.74848,,,,,,,,0.74848,1,,,,,,246,NW,"ID",50,piaton,PIATON,z,,,,,,0.068658854,-0.086592882,0,0,0,,0,183,183,305,1,
,,,,,,,,,,,,,,,,,,5f2d4939e1b8742bba60a1e4,2020-08-10_17h49.57.497,lexical_decision_task_MP,2020.1.3,MacIntel,60,z,1,0.62144,,,,,,,,0.62144,1,,,,,,274,NW,"ID",50,fumblo,FUMBLO,z,,,,,,0.068658854,-0.086592882,0,0,0,,0,184,184,333,1,
,,,,,,,,,,,,,,,,,,5f2d4939e1b8742bba60a1e4,2020-08-10_17h49.57.497,lexical_decision_task_MP,2020.1.3,MacIntel,60,m,1,0.646895,,,,,,,,0.646895,1,,,,,,196,WORD,"ID",33,credit,CREDIT,m,,,,,,0.068658854,-0.086592882,0,0,0,,0,185,185,15,1,
,,,,,,,,,,,,,,,,,,5f2d4939e1b8742bba60a1e4,2020-08-10_17h49.57.497,lexical_decision_task_MP,2020.1.3,MacIntel,60,m,1,0.50067,,,,,,,,0.50067,1,,,,,,193,WORD,"ID",33,object,OBJECT,m,,,,,,0.068658854,-0.086592882,0,0,0,,0,186,186,12,1,
,,,,,,,,,,,,,,,,,,5f2d4939e1b8742bba60a1e4,2020-08-10_17h49.57.497,lexical_decision_task_MP,2020.1.3,MacIntel,60,m,1,0.549125,,,,,,,,0.549125,1,,,,,,117,WORD,UN,33,flight,BRANCH,m,,,,,,0.068658854,-0.086592882,0,0,0,,0,187,187,176,1,
,,,,,,,,,,,,,,,,,,5f2d4939e1b8742bba60a1e4,2020-08-10_17h49.57.497,lexical_decision_task_MP,2020.1.3,MacIntel,60,m,1,0.54794,,,,,,,,0.54794,1,,,,,,225,WORD,"ID",33,vulgar,VULGAR,m,,,,,,0.068658854,-0.086592882,0,0,0,,0,188,188,44,1,
,,,,,,,,,,,,,,,,,,5f2d4939e1b8742bba60a1e4,2020-08-10_17h49.57.497,lexical_decision_task_MP,2020.1.3,MacIntel,60,m,1,0.57391,,,,,,,,0.57391,1,,,,,,224,WORD,"ID",33,period,PERIOD,m,,,,,,0.068658854,-0.086592882,0,0,0,,0,189,189,43,1,
,,,,,,,,,,,,,,,,,,5f2d4939e1b8742bba60a1e4,2020-08-10_17h49.57.497,lexical_decision_task_MP,2020.1.3,MacIntel,60,z,0,0.65553,,,,,,,,0.65553,0,,,,,,86,WORD,UN,33,filter,RODENT,m,,,,,,0.068658854,-0.086592882,0,0,0,,0,190,190,145,1,
,,,,,,,,,,,,,,,,,,5f2d4939e1b8742bba60a1e4,2020-08-10_17h49.57.497,lexical_decision_task_MP,2020.1.3,MacIntel,60,z,1,0.805515,,,,,,,,0.805515,1,,,,,,472,NW,"ID",33,cigney,CIGNEY,z,,,,,,0.068658854,-0.086592882,0,0,0,,0,191,191,291,1,
,,,,,,,,,,,,,,,,,,5f2d4939e1b8742bba60a1e4,2020-08-10_17h49.57.497,lexical_decision_task_MP,2020.1.3,MacIntel,60,z,1,0.871015,,,,,,,,0.871015,1,,,,,,422,NW,"ID",33,alcoud,ALCOUD,z,,,,,,0.068658854,-0.086592882,0,0,0,,0,192,192,241,1,
,,,,,,,,,,,,,,,,,,5f2d4939e1b8742bba60a1e4,2020-08-10_17h49.57.497,lexical_decision_task_MP,2020.1.3,MacIntel,60,z,1,0.597635,,,,,,,,0.597635,1,,,,,,357,NW,UN,33,fleack,DERAIN,z,,,,,,0.068658854,-0.086592882,0,0,0,,0,193,193,416,1,
,,,,,,,,,,,,,,,,,,5f2d4939e1b8742bba60a1e4,2020-08-10_17h49.57.497,lexical_decision_task_MP,2020.1.3,MacIntel,60,m,1,0.684285,,,,,,,,0.684285,1,,,,,,110,WORD,UN,33,induce,POLITE,m,,,,,,0.068658854,-0.086592882,0,0,0,,0,194,194,169,1,
,,,,,,,,,,,,,,,,,,5f2d4939e1b8742bba60a1e4,2020-08-10_17h49.57.497,lexical_decision_task_MP,2020.1.3,MacIntel,60,z,1,0.66907,,,,,,,,0.66907,1,,,,,,306,NW,UN,33,kirafe,SOUNGE,z,,,,,,0.068658854,-0.086592882,0,0,0,,0,195,195,365,1,
,,,,,,,,,,,,,,,,,,5f2d4939e1b8742bba60a1e4,2020-08-10_17h49.57.497,lexical_decision_task_MP,2020.1.3,MacIntel,60,m,1,0.68868,,,,,,,,0.68868,1,,,,,,111,WORD,UN,33,breath,INDUCE,m,,,,,,0.068658854,-0.086592882,0,0,0,,0,196,196,170,1,
,,,,,,,,,,,,,,,,,,5f2d4939e1b8742bba60a1e4,2020-08-10_17h49.57.497,lexical_decision_task_MP,2020.1.3,MacIntel,60,m,1,0.55285,,,,,,,,0.55285,1,,,,,,184,WORD,"ID",33,sleazy,SLEAZY,m,,,,,,0.068658854,-0.086592882,0,0,0,,0,197,197,3,1,
,,,,,,,,,,,,,,,,,,5f2d4939e1b8742bba60a1e4,2020-08-10_17h49.57.497,lexical_decision_task_MP,2020.1.3,MacIntel,60,z,1,0.67114,,,,,,,,0.67114,1,,,,,,289,NW,"ID",50,starby,STARBY,z,,,,,,0.068658854,-0.086592882,0,0,0,,0,198,198,348,1,
,,,,,,,,,,,,,,,,,,5f2d4939e1b8742bba60a1e4,2020-08-10_17h49.57.497,lexical_decision_task_MP,2020.1.3,MacIntel,60,z,1,0.63392,,,,,,,,0.63392,1,,,,,,398,NW,UN,50,fouret,BLUNDE,z,,,,,,0.068658854,-0.086592882,0,0,0,,0,199,199,457,1,
,,,,,,,,,,,,,,,,,,5f2d4939e1b8742bba60a1e4,2020-08-10_17h49.57.497,lexical_decision_task_MP,2020.1.3,MacIntel,60,z,1,0.614805,,,,,,,,0.614805,1,,,,,,397,NW,UN,50,blunde,CAMBLE,z,,,,,,0.068658854,-0.086592882,0,0,0,,0,200,200,456,1,
,,,,,,,,,,,,,,,,,,5f2d4939e1b8742bba60a1e4,2020-08-10_17h49.57.497,lexical_decision_task_MP,2020.1.3,MacIntel,60,m,1,0.589805,,,,,,,,0.589805,1,,,,,,140,WORD,UN,50,chrome,PRINCE,m,,,,,,0.068658854,-0.086592882,0,0,0,,0,201,201,199,1,
,,,,,,,,,,,,,,,,,,5f2d4939e1b8742bba60a1e4,2020-08-10_17h49.57.497,lexical_decision_task_MP,2020.1.3,MacIntel,60,z,1,0.58339,,,,,,,,0.58339,1,,,,,,259,NW,"ID",50,soudal,SOUDAL,z,,,,,,0.068658854,-0.086592882,0,0,0,,0,202,202,318,1,
,,,,,,,,,,,,,,,,,,5f2d4939e1b8742bba60a1e4,2020-08-10_17h49.57.497,lexical_decision_task_MP,2020.1.3,MacIntel,60,m,1,0.52593,,,,,,,,0.52593,1,,,,,,93,WORD,UN,33,travel,PUBLIC,m,,,,,,0.068658854,-0.086592882,0,0,0,,0,203,203,152,1,
,,,,,,,,,,,,,,,,,,5f2d4939e1b8742bba60a1e4,2020-08-10_17h49.57.497,lexical_decision_task_MP,2020.1.3,MacIntel,60,z,1,0.574305,,,,,,,,0.574305,1,,,,,,283,NW,"ID",50,veralf,VERALF,z,,,,,,0.068658854,-0.086592882,0,0,0,,0,204,204,342,1,
,,,,,,,,,,,,,,,,,,5f2d4939e1b8742bba60a1e4,2020-08-10_17h49.57.497,lexical_decision_task_MP,2020.1.3,MacIntel,60,m,1,0.50433,,,,,,,,0.50433,1,,,,,,84,WORD,UN,33,strand,MORTAL,m,,,,,,0.068658854,-0.086592882,0,0,0,,0,205,205,143,1,
,,,,,,,,,,,,,,,,,,5f2d4939e1b8742bba60a1e4,2020-08-10_17h49.57.497,lexical_decision_task_MP,2020.1.3,MacIntel,60,m,1,0.650795,,,,,,,,0.650795,1,,,,,,172,WORD,UN,50,shower,PATROL,m,,,,,,0.068658854,-0.086592882,0,0,0,,0,206,206,231,1,
,,,,,,,,,,,,,,,,,,5f2d4939e1b8742bba60a1e4,2020-08-10_17h49.57.497,lexical_decision_task_MP,2020.1.3,MacIntel,60,m,1,0.584135,,,,,,,,0.584135,1,,,,,,123,WORD,UN,50,blouse,STRIKE,m,,,,,,0.068658854,-0.086592882,0,0,0,,0,207,207,182,1,
,,,,,,,,,,,,,,,,,,5f2d4939e1b8742bba60a1e4,2020-08-10_17h49.57.497,lexical_decision_task_MP,2020.1.3,MacIntel,60,m,1,0.57447,,,,,,,,0.57447,1,,,,,,163,WORD,UN,50,market,STRING,m,,,,,,0.068658854,-0.086592882,0,0,0,,0,208,208,222,1,
,,,,,,,,,,,,,,,,,,5f2d4939e1b8742bba60a1e4,2020-08-10_17h49.57.497,lexical_decision_task_MP,2020.1.3,MacIntel,60,m,1,0.538785,,,,,,,,0.538785,1,,,,,,145,WORD,UN,50,couple,PARISH,m,,,,,,0.068658854,-0.086592882,0,0,0,,0,209,209,204,1,
,,,,,,,,,,,,,,,,,,5f2d4939e1b8742bba60a1e4,2020-08-10_17h49.57.497,lexical_decision_task_MP,2020.1.3,MacIntel,60,z,1,0.71781,,,,,,,,0.71781,1,,,,,,257,NW,"ID",50,veniod,VENIOD,z,,,,,,0.068658854,-0.086592882,0,0,0,,0,210,210,316,1,
,,,,,,,,,,,,,,,,,,5f2d4939e1b8742bba60a1e4,2020-08-10_17h49.57.497,lexical_decision_task_MP,2020.1.3,MacIntel,60,m,1,0.734395,,,,,,,,0.734395,1,,,,,,169,WORD,UN,50,pounce,GENIUS,m,,,,,,0.068658854,-0.086592882,0,0,0,,0,211,211,228,1,
,,,,,,,,,,,,,,,,,,5f2d4939e1b8742bba60a1e4,2020-08-10_17h49.57.497,lexical_decision_task_MP,2020.1.3,MacIntel,60,z,1,0.78794,,,,,,,,0.78794,1,,,,,,290,NW,"ID",50,splino,SPLINO,z,,,,,,0.068658854,-0.086592882,0,0,0,,0,212,212,349,1,
,,,,,,,,,,,,,,,,,,5f2d4939e1b8742bba60a1e4,2020-08-10_17h49.57.497,lexical_decision_task_MP,2020.1.3,MacIntel,60,z,1,0.73402,,,,,,,,0.73402,1,,,,,,394,NW,UN,50,colury,SPAQUX,z,,,,,,0.068658854,-0.086592882,0,0,0,,0,213,213,453,1,
,,,,,,,,,,,,,,,,,,5f2d4939e1b8742bba60a1e4,2020-08-10_17h49.57.497,lexical_decision_task_MP,2020.1.3,MacIntel,60,z,1,0.929405,,,,,,,,0.929405,1,,,,,,419,NW,UN,50,gushop,SLOUNT,z,,,,,,0.068658854,-0.086592882,0,0,0,,0,214,214,478,1,
,,,,,,,,,,,,,,,,,,5f2d4939e1b8742bba60a1e4,2020-08-10_17h49.57.497,lexical_decision_task_MP,2020.1.3,MacIntel,60,z,1,0.49759,,,,,,,,0.49759,1,,,,,,362,NW,UN,50,breali,TIREAU,z,,,,,,0.068658854,-0.086592882,0,0,0,,0,215,215,421,1,
,,,,,,,,,,,,,,,,,,5f2d4939e1b8742bba60a1e4,2020-08-10_17h49.57.497,lexical_decision_task_MP,2020.1.3,MacIntel,60,z,1,0.45396,,,,,,,,0.45396,1,,,,,,251,NW,"ID",50,lupict,LUPICT,z,,,,,,0.068658854,-0.086592882,0,0,0,,0,216,216,310,1,
,,,,,,,,,,,,,,,,,,5f2d4939e1b8742bba60a1e4,2020-08-10_17h49.57.497,lexical_decision_task_MP,2020.1.3,MacIntel,60,m,1,0.557685,,,,,,,,0.557685,1,,,,,,230,WORD,"ID",33,fringe,FRINGE,m,,,,,,0.068658854,-0.086592882,0,0,0,,0,217,217,49,1,
,,,,,,,,,,,,,,,,,,5f2d4939e1b8742bba60a1e4,2020-08-10_17h49.57.497,lexical_decision_task_MP,2020.1.3,MacIntel,60,z,1,0.800425,,,,,,,,0.800425,1,,,,,,452,NW,"ID",33,surden,SURDEN,z,,,,,,0.068658854,-0.086592882,0,0,0,,0,218,218,271,1,
,,,,,,,,,,,,,,,,,,5f2d4939e1b8742bba60a1e4,2020-08-10_17h49.57.497,lexical_decision_task_MP,2020.1.3,MacIntel,60,m,1,0.588515,,,,,,,,0.588515,1,,,,,,234,WORD,"ID",33,clumsy,CLUMSY,m,,,,,,0.068658854,-0.086592882,0,0,0,,0,219,219,53,1,
,,,,,,,,,,,,,,,,,,5f2d4939e1b8742bba60a1e4,2020-08-10_17h49.57.497,lexical_decision_task_MP,2020.1.3,MacIntel,60,m,1,0.582705,,,,,,,,0.582705,1,,,,,,22,WORD,"ID",50,jockey,JOCKEY,m,,,,,,0.068658854,-0.086592882,0,0,0,,0,220,220,81,1,
,,,,,,,,,,,,,,,,,,5f2d4939e1b8742bba60a1e4,2020-08-10_17h49.57.497,lexical_decision_task_MP,2020.1.3,MacIntel,60,m,1,1.248895,,,,,,,,1.248895,1,,,,,,75,WORD,UN,33,exotic,TROPHY,m,,,,,,0.068658854,-0.086592882,0,0,0,,0,221,221,134,1,
,,,,,,,,,,,,,,,,,,5f2d4939e1b8742bba60a1e4,2020-08-10_17h49.57.497,lexical_decision_task_MP,2020.1.3,MacIntel,60,m,1,0.817625,,,,,,,,0.817625,1,,,,,,6,WORD,"ID",50,bundle,BUNDLE,m,,,,,,0.068658854,-0.086592882,0,0,0,,0,222,222,65,1,
,,,,,,,,,,,,,,,,,,5f2d4939e1b8742bba60a1e4,2020-08-10_17h49.57.497,lexical_decision_task_MP,2020.1.3,MacIntel,60,z,0,0.583435,,,,,,,,0.583435,0,,,,,,8,WORD,"ID",50,abrupt,ABRUPT,m,,,,,,0.068658854,-0.086592882,0,0,0,,0,223,223,67,1,
,,,,,,,,,,,,,,,,,,5f2d4939e1b8742bba60a1e4,2020-08-10_17h49.57.497,lexical_decision_task_MP,2020.1.3,MacIntel,60,m,1,0.73754,,,,,,,,0.73754,1,,,,,,146,WORD,UN,50,garlic,COUPLE,m,,,,,,0.068658854,-0.086592882,0,0,0,,0,224,224,205,1,
,,,,,,,,,,,,,,,,,,5f2d4939e1b8742bba60a1e4,2020-08-10_17h49.57.497,lexical_decision_task_MP,2020.1.3,MacIntel,60,m,0,0.79546,,,,,,,,0.79546,0,,,,,,454,NW,"ID",33,scouge,SCOUGE,z,,,,,,0.068658854,-0.086592882,0,0,0,,0,225,225,273,1,
,,,,,,,,,,,,,,,,,,5f2d4939e1b8742bba60a1e4,2020-08-10_17h49.57.497,lexical_decision_task_MP,2020.1.3,MacIntel,60,z,1,0.6347,,,,,,,,0.6347,1,,,,,,272,NW,"ID",50,damilt,DAMILT,z,,,,,,0.068658854,-0.086592882,0,0,0,,0,226,226,331,1,
,,,,,,,,,,,,,,,,,,5f2d4939e1b8742bba60a1e4,2020-08-10_17h49.57.497,lexical_decision_task_MP,2020.1.3,MacIntel,60,z,1,0.54773,,,,,,,,0.54773,1,,,,,,383,NW,UN,50,guesco,AUNGRE,z,,,,,,0.068658854,-0.086592882,0,0,0,,0,227,227,442,1,
,,,,,,,,,,,,,,,,,,5f2d4939e1b8742bba60a1e4,2020-08-10_17h49.57.497,lexical_decision_task_MP,2020.1.3,MacIntel,60,z,1,0.63431,,,,,,,,0.63431,1,,,,,,321,NW,UN,33,slanch,MIATOR,z,,,,,,0.068658854,-0.086592882,0,0,0,,0,228,228,380,1,
,,,,,,,,,,,,,,,,,,5f2d4939e1b8742bba60a1e4,2020-08-10_17h49.57.497,lexical_decision_task_MP,2020.1.3,MacIntel,60,z,1,0.45458,,,,,,,,0.45458,1,,,,,,324,NW,UN,33,thruse,STEIKH,z,,,,,,0.068658854,-0.086592882,0,0,0,,0,229,229,383,1,
,,,,,,,,,,,,,,,,,,5f2d4939e1b8742bba60a1e4,2020-08-10_17h49.57.497,lexical_decision_task_MP,2020.1.3,MacIntel,60,z,1,0.498855,,,,,,,,0.498855,1,,,,,,446,NW,"ID",33,runamo,RUNAMO,z,,,,,,0.068658854,-0.086592882,0,0,0,,0,230,230,265,1,
,,,,,,,,,,,,,,,,,,5f2d4939e1b8742bba60a1e4,2020-08-10_17h49.57.497,lexical_decision_task_MP,2020.1.3,MacIntel,60,z,1,0.42063,,,,,,,,0.42063,1,,,,,,330,NW,UN,33,gilfew,KENSOM,z,,,,,,0.068658854,-0.086592882,0,0,0,,0,231,231,389,1,
,,,,,,,,,,,,,,,,,,5f2d4939e1b8742bba60a1e4,2020-08-10_17h49.57.497,lexical_decision_task_MP,2020.1.3,MacIntel,60,z,0,0.47389,,,,,,,,0.47389,0,,,,,,153,WORD,UN,50,author,BEHOLD,m,,,,,,0.068658854,-0.086592882,0,0,0,,0,232,232,212,1,
,,,,,,,,,,,,,,,,,,5f2d4939e1b8742bba60a1e4,2020-08-10_17h49.57.497,lexical_decision_task_MP,2020.1.3,MacIntel,60,m,0,0.550345,,,,,,,,0.550345,0,,,,,,425,NW,"ID",33,frudge,FRUDGE,z,,,,,,0.068658854,-0.086592882,0,0,0,,0,233,233,244,1,
,,,,,,,,,,,,,,,,,,5f2d4939e1b8742bba60a1e4,2020-08-10_17h49.57.497,lexical_decision_task_MP,2020.1.3,MacIntel,60,z,1,0.60425,,,,,,,,0.60425,1,,,,,,459,NW,"ID",33,bafent,BAFENT,z,,,,,,0.068658854,-0.086592882,0,0,0,,0,234,234,278,1,
,,,,,,,,,,,,,,,,,,5f2d4939e1b8742bba60a1e4,2020-08-10_17h49.57.497,lexical_decision_task_MP,2020.1.3,MacIntel,60,z,1,0.70042,,,,,,,,0.70042,1,,,,,,299,NW,"ID",50,sturch,STURCH,z,,,,,,0.068658854,-0.086592882,0,0,0,,0,235,235,358,1,
,,,,,,,,,,,,,,,,,,5f2d4939e1b8742bba60a1e4,2020-08-10_17h49.57.497,lexical_decision_task_MP,2020.1.3,MacIntel,60,m,1,0.611995,,,,,,,,0.611995,1,,,,,,178,WORD,UN,50,basket,INFORM,m,,,,,,0.068658854,-0.086592882,0,0,0,,0,236,236,237,1,
,,,,,,,,,,,,,,,,,,5f2d4939e1b8742bba60a1e4,2020-08-10_17h49.57.497,lexical_decision_task_MP,2020.1.3,MacIntel,60,m,1,0.682005,,,,,,,,0.682005,1,,,,,,90,WORD,UN,33,expand,RELISH,m,,,,,,0.068658854,-0.086592882,0,0,0,,0,237,237,149,1,
,,,,,,,,,,,,,,,,,,5f2d4939e1b8742bba60a1e4,2020-08-10_17h49.57.497,lexical_decision_task_MP,2020.1.3,MacIntel,60,z,1,0.72009,,,,,,,,0.72009,1,,,,,,268,NW,"ID",50,packes,PACKES,z,,,,,,0.068658854,-0.086592882,0,0,0,,0,238,238,327,1,
,,,,,,,,,,,,,,,,,,5f2d4939e1b8742bba60a1e4,2020-08-10_17h49.57.497,lexical_decision_task_MP,2020.1.3,MacIntel,60,m,1,0.738745,,,,,,,,0.738745,1,,,,,,82,WORD,UN,33,result,STIGMA,m,,,,,,0.068658854,-0.086592882,0,0,0,,0,239,239,141,1,
,,,,,,,,,,,,,,,,,,5f2d4939e1b8742bba60a1e4,2020-08-10_17h49.57.497,lexical_decision_task_MP,2020.1.3,MacIntel,60,m,1,0.56347,,,,,,,,0.56347,1,,,,,,182,WORD,"ID",33,winter,WINTER,m,,,,,,0.068658854,-0.086592882,0,0,0,,0,240,240,1,1,
,,,,,,,,,,,,,,,,,,5f2d4939e1b8742bba60a1e4,2020-08-10_17h49.57.497,lexical_decision_task_MP,2020.1.3,MacIntel,60,m,0,0.68512,,,,,,,,0.68512,0,,,,,,467,NW,"ID",33,gorbie,GORBIE,z,,,,,,0.068658854,-0.086592882,0,0,0,space,0,241,241,286,1,25.502135
,,,,,,,,,,,,,,,,,,5f2d4939e1b8742bba60a1e4,2020-08-10_17h49.57.497,lexical_decision_task_MP,2020.1.3,MacIntel,60,z,1,0.999245,,,,,,,,0.999245,1,,,,,,432,NW,"ID",33,lunker,LUNKER,z,,,,,,0.068658854,-0.086592882,0,0,0,,0,242,242,251,1,
,,,,,,,,,,,,,,,,,,5f2d4939e1b8742bba60a1e4,2020-08-10_17h49.57.497,lexical_decision_task_MP,2020.1.3,MacIntel,60,z,1,0.524095,,,,,,,,0.524095,1,,,,,,278,NW,"ID",50,unighs,UNIGHS,z,,,,,,0.068658854,-0.086592882,0,0,0,,0,243,243,337,1,
,,,,,,,,,,,,,,,,,,5f2d4939e1b8742bba60a1e4,2020-08-10_17h49.57.497,lexical_decision_task_MP,2020.1.3,MacIntel,60,m,1,0.571435,,,,,,,,0.571435,1,,,,,,186,WORD,"ID",33,portal,PORTAL,m,,,,,,0.068658854,-0.086592882,0,0,0,,0,244,244,5,1,
,,,,,,,,,,,,,,,,,,5f2d4939e1b8742bba60a1e4,2020-08-10_17h49.57.497,lexical_decision_task_MP,2020.1.3,MacIntel,60,m,1,0.485025,,,,,,,,0.485025,1,,,,,,143,WORD,UN,50,sponge,REASON,m,,,,,,0.068658854,-0.086592882,0,0,0,,0,245,245,202,1,
,,,,,,,,,,,,,,,,,,5f2d4939e1b8742bba60a1e4,2020-08-10_17h49.57.497,lexical_decision_task_MP,2020.1.3,MacIntel,60,m,1,0.768115,,,,,,,,0.768115,1,,,,,,156,WORD,UN,50,depart,CRADLE,m,,,,,,0.068658854,-0.086592882,0,0,0,,0,246,246,215,1,
,,,,,,,,,,,,,,,,,,5f2d4939e1b8742bba60a1e4,2020-08-10_17h49.57.497,lexical_decision_task_MP,2020.1.3,MacIntel,60,z,1,0.753445,,,,,,,,0.753445,1,,,,,,439,NW,"ID",33,limpor,LIMPOR,z,,,,,,0.068658854,-0.086592882,0,0,0,,0,247,247,258,1,
,,,,,,,,,,,,,,,,,,5f2d4939e1b8742bba60a1e4,2020-08-10_17h49.57.497,lexical_decision_task_MP,2020.1.3,MacIntel,60,z,0,0.803475,,,,,,,,0.803475,0,,,,,,78,WORD,UN,33,theory,COLUMN,m,,,,,,0.068658854,-0.086592882,0,0,0,,0,248,248,137,1,
,,,,,,,,,,,,,,,,,,5f2d4939e1b8742bba60a1e4,2020-08-10_17h49.57.497,lexical_decision_task_MP,2020.1.3,MacIntel,60,z,1,0.551595,,,,,,,,0.551595,1,,,,,,428,NW,"ID",33,tandly,TANDLY,z,,,,,,0.068658854,-0.086592882,0,0,0,,0,249,249,247,1,
,,,,,,,,,,,,,,,,,,5f2d4939e1b8742bba60a1e4,2020-08-10_17h49.57.497,lexical_decision_task_MP,2020.1.3,MacIntel,60,z,1,0.51672,,,,,,,,0.51672,1,,,,,,440,NW,"ID",33,saride,SARIDE,z,,,,,,0.068658854,-0.086592882,0,0,0,,0,250,250,259,1,
,,,,,,,,,,,,,,,,,,5f2d4939e1b8742bba60a1e4,2020-08-10_17h49.57.497,lexical_decision_task_MP,2020.1.3,MacIntel,60,z,0,0.466825,,,,,,,,0.466825,0,,,,,,58,WORD,"ID",50,foster,FOSTER,m,,,,,,0.068658854,-0.086592882,0,0,0,,0,251,251,117,1,
,,,,,,,,,,,,,,,,,,5f2d4939e1b8742bba60a1e4,2020-08-10_17h49.57.497,lexical_decision_task_MP,2020.1.3,MacIntel,60,m,1,0.46521,,,,,,,,0.46521,1,,,,,,174,WORD,UN,50,fabric,TURKEY,m,,,,,,0.068658854,-0.086592882,0,0,0,,0,252,252,233,1,
,,,,,,,,,,,,,,,,,,5f2d4939e1b8742bba60a1e4,2020-08-10_17h49.57.497,lexical_decision_task_MP,2020.1.3,MacIntel,60,m,1,0.550445,,,,,,,,0.550445,1,,,,,,194,WORD,"ID",33,absent,ABSENT,m,,,,,,0.068658854,-0.086592882,0,0,0,,0,253,253,13,1,
,,,,,,,,,,,,,,,,,,5f2d4939e1b8742bba60a1e4,2020-08-10_17h49.57.497,lexical_decision_task_MP,2020.1.3,MacIntel,60,m,1,0.5525,,,,,,,,0.5525,1,,,,,,130,WORD,UN,50,quench,STUPID,m,,,,,,0.068658854,-0.086592882,0,0,0,,0,254,254,189,1,
,,,,,,,,,,,,,,,,,,5f2d4939e1b8742bba60a1e4,2020-08-10_17h49.57.497,lexical_decision_task_MP,2020.1.3,MacIntel,60,m,1,0.5315,,,,,,,,0.5315,1,,,,,,200,WORD,"ID",33,beacon,BEACON,m,,,,,,0.068658854,-0.086592882,0,0,0,,0,255,255,19,1,
,,,,,,,,,,,,,,,,,,5f2d4939e1b8742bba60a1e4,2020-08-10_17h49.57.497,lexical_decision_task_MP,2020.1.3,MacIntel,60,m,1,0.525015,,,,,,,,0.525015,1,,,,,,65,WORD,UN,33,gospel,SYMBOL,m,,,,,,0.068658854,-0.086592882,0,0,0,,0,256,256,124,1,
,,,,,,,,,,,,,,,,,,5f2d4939e1b8742bba60a1e4,2020-08-10_17h49.57.497,lexical_decision_task_MP,2020.1.3,MacIntel,60,z,1,0.517435,,,,,,,,0.517435,1,,,,,,355,NW,UN,33,othnis,ZINGLY,z,,,,,,0.068658854,-0.086592882,0,0,0,,0,257,257,414,1,
,,,,,,,,,,,,,,,,,,5f2d4939e1b8742bba60a1e4,2020-08-10_17h49.57.497,lexical_decision_task_MP,2020.1.3,MacIntel,60,m,1,0.499785,,,,,,,,0.499785,1,,,,,,139,WORD,UN,50,prince,DEBRIS,m,,,,,,0.068658854,-0.086592882,0,0,0,,0,258,258,198,1,
,,,,,,,,,,,,,,,,,,5f2d4939e1b8742bba60a1e4,2020-08-10_17h49.57.497,lexical_decision_task_MP,2020.1.3,MacIntel,60,m,1,0.56479,,,,,,,,0.56479,1,,,,,,68,WORD,UN,33,plenty,FUMBLE,m,,,,,,0.068658854,-0.086592882,0,0,0,,0,259,259,127,1,
,,,,,,,,,,,,,,,,,,5f2d4939e1b8742bba60a1e4,2020-08-10_17h49.57.497,lexical_decision_task_MP,2020.1.3,MacIntel,60,z,0,0.610175,,,,,,,,0.610175,0,,,,,,199,WORD,"ID",33,invoke,INVOKE,m,,,,,,0.068658854,-0.086592882,0,0,0,,0,260,260,18,1,
,,,,,,,,,,,,,,,,,,5f2d4939e1b8742bba60a1e4,2020-08-10_17h49.57.497,lexical_decision_task_MP,2020.1.3,MacIntel,60,z,1,0.63683,,,,,,,,0.63683,1,,,,,,437,NW,"ID",33,snapel,SNAPEL,z,,,,,,0.068658854,-0.086592882,0,0,0,,0,261,261,256,1,
,,,,,,,,,,,,,,,,,,5f2d4939e1b8742bba60a1e4,2020-08-10_17h49.57.497,lexical_decision_task_MP,2020.1.3,MacIntel,60,z,1,0.55251,,,,,,,,0.55251,1,,,,,,329,NW,UN,33,kensom,YARIKE,z,,,,,,0.068658854,-0.086592882,0,0,0,,0,262,262,388,1,
,,,,,,,,,,,,,,,,,,5f2d4939e1b8742bba60a1e4,2020-08-10_17h49.57.497,lexical_decision_task_MP,2020.1.3,MacIntel,60,m,1,0.54926,,,,,,,,0.54926,1,,,,,,83,WORD,UN,33,mortal,RESULT,m,,,,,,0.068658854,-0.086592882,0,0,0,,0,263,263,142,1,
,,,,,,,,,,,,,,,,,,5f2d4939e1b8742bba60a1e4,2020-08-10_17h49.57.497,lexical_decision_task_MP,2020.1.3,MacIntel,60,m,1,0.562135,,,,,,,,0.562135,1,,,,,,45,WORD,"ID",50,clergy,CLERGY,m,,,,,,0.068658854,-0.086592882,0,0,0,,0,264,264,104,1,
,,,,,,,,,,,,,,,,,,5f2d4939e1b8742bba60a1e4,2020-08-10_17h49.57.497,lexical_decision_task_MP,2020.1.3,MacIntel,60,m,1,0.517695,,,,,,,,0.517695,1,,,,,,180,WORD,UN,50,thrive,SILENT,m,,,,,,0.068658854,-0.086592882,0,0,0,,0,265,265,239,1,
,,,,,,,,,,,,,,,,,,5f2d4939e1b8742bba60a1e4,2020-08-10_17h49.57.497,lexical_decision_task_MP,2020.1.3,MacIntel,60,z,1,0.596555,,,,,,,,0.596555,1,,,,,,244,NW,"ID",50,eatric,EATRIC,z,,,,,,0.068658854,-0.086592882,0,0,0,,0,266,266,303,1,
,,,,,,,,,,,,,,,,,,5f2d4939e1b8742bba60a1e4,2020-08-10_17h49.57.497,lexical_decision_task_MP,2020.1.3,MacIntel,60,m,0,0.830965,,,,,,,,0.830965,0,,,,,,294,NW,"ID",50,inhort,INHORT,z,,,,,,0.068658854,-0.086592882,0,0,0,,0,267,267,353,1,
,,,,,,,,,,,,,,,,,,5f2d4939e1b8742bba60a1e4,2020-08-10_17h49.57.497,lexical_decision_task_MP,2020.1.3,MacIntel,60,z,1,0.70266,,,,,,,,0.70266,1,,,,,,396,NW,UN,50,camble,FLENGY,z,,,,,,0.068658854,-0.086592882,0,0,0,,0,268,268,455,1,
,,,,,,,,,,,,,,,,,,5f2d4939e1b8742bba60a1e4,2020-08-10_17h49.57.497,lexical_decision_task_MP,2020.1.3,MacIntel,60,m,0,0.617915,,,,,,,,0.617915,0,,,,,,258,NW,"ID",50,poluth,POLUTH,z,,,,,,0.068658854,-0.086592882,0,0,0,,0,269,269,317,1,
,,,,,,,,,,,,,,,,,,5f2d4939e1b8742bba60a1e4,2020-08-10_17h49.57.497,lexical_decision_task_MP,2020.1.3,MacIntel,60,m,1,0.69885,,,,,,,,0.69885,1,,,,,,60,WORD,"ID",50,pencil,PENCIL,m,,,,,,0.068658854,-0.086592882,0,0,0,,0,270,270,119,1,
,,,,,,,,,,,,,,,,,,5f2d4939e1b8742bba60a1e4,2020-08-10_17h49.57.497,lexical_decision_task_MP,2020.1.3,MacIntel,60,m,0,0.588435,,,,,,,,0.588435,0,,,,,,325,NW,UN,33,iguade,THRUSE,z,,,,,,0.068658854,-0.086592882,0,0,0,,0,271,271,384,1,
,,,,,,,,,,,,,,,,,,5f2d4939e1b8742bba60a1e4,2020-08-10_17h49.57.497,lexical_decision_task_MP,2020.1.3,MacIntel,60,m,1,0.665925,,,,,,,,0.665925,1,,,,,,132,WORD,UN,50,orphan,STRONG,m,,,,,,0.068658854,-0.086592882,0,0,0,,0,272,272,191,1,
,,,,,,,,,,,,,,,,,,5f2d4939e1b8742bba60a1e4,2020-08-10_17h49.57.497,lexical_decision_task_MP,2020.1.3,MacIntel,60,z,1,0.669475,,,,,,,,0.669475,1,,,,,,474,NW,"ID",33,hablin,HABLIN,z,,,,,,0.068658854,-0.086592882,0,0,0,,0,273,273,293,1,
,,,,,,,,,,,,,,,,,,5f2d4939e1b8742bba60a1e4,2020-08-10_17h49.57.497,lexical_decision_task_MP,2020.1.3,MacIntel,60,m,0,0.651025,,,,,,,,0.651025,0,,,,,,393,NW,UN,50,spaqux,GANOUS,z,,,,,,0.068658854,-0.086592882,0,0,0,,0,274,274,452,1,
,,,,,,,,,,,,,,,,,,5f2d4939e1b8742bba60a1e4,2020-08-10_17h49.57.497,lexical_decision_task_MP,2020.1.3,MacIntel,60,m,1,0.63348,,,,,,,,0.63348,1,,,,,,71,WORD,UN,33,bright,GARDEN,m,,,,,,0.068658854,-0.086592882,0,0,0,,0,275,275,130,1,
,,,,,,,,,,,,,,,,,,5f2d4939e1b8742bba60a1e4,2020-08-10_17h49.57.497,lexical_decision_task_MP,2020.1.3,MacIntel,60,m,1,0.734815,,,,,,,,0.734815,1,,,,,,18,WORD,"ID",50,humble,HUMBLE,m,,,,,,0.068658854,-0.086592882,0,0,0,,0,276,276,77,1,
,,,,,,,,,,,,,,,,,,5f2d4939e1b8742bba60a1e4,2020-08-10_17h49.57.497,lexical_decision_task_MP,2020.1.3,MacIntel,60,z,1,0.750415,,,,,,,,0.750415,1,,,,,,263,NW,"ID",50,dolica,DOLICA,z,,,,,,0.068658854,-0.086592882,0,0,0,,0,277,277,322,1,
,,,,,,,,,,,,,,,,,,5f2d4939e1b8742bba60a1e4,2020-08-10_17h49.57.497,lexical_decision_task_MP,2020.1.3,MacIntel,60,m,1,0.58417,,,,,,,,0.58417,1,,,,,,210,WORD,"ID",33,monkey,MONKEY,m,,,,,,0.068658854,-0.086592882,0,0,0,,0,278,278,29,1,
,,,,,,,,,,,,,,,,,,5f2d4939e1b8742bba60a1e4,2020-08-10_17h49.57.497,lexical_decision_task_MP,2020.1.3,MacIntel,60,m,1,0.516995,,,,,,,,0.516995,1,,,,,,217,WORD,"ID",33,liquor,LIQUOR,m,,,,,,0.068658854,-0.086592882,0,0,0,,0,279,279,36,1,
,,,,,,,,,,,,,,,,,,5f2d4939e1b8742bba60a1e4,2020-08-10_17h49.57.497,lexical_decision_task_MP,2020.1.3,MacIntel,60,z,0,0.706935,,,,,,,,0.706935,0,,,,,,152,WORD,UN,50,behold,ROCKET,m,,,,,,0.068658854,-0.086592882,0,0,0,,0,280,280,211,1,
,,,,,,,,,,,,,,,,,,5f2d4939e1b8742bba60a1e4,2020-08-10_17h49.57.497,lexical_decision_task_MP,2020.1.3,MacIntel,60,m,1,0.54588,,,,,,,,0.54588,1,,,,,,31,WORD,"ID",50,weapon,WEAPON,m,,,,,,0.068658854,-0.086592882,0,0,0,,0,281,281,90,1,
,,,,,,,,,,,,,,,,,,5f2d4939e1b8742bba60a1e4,2020-08-10_17h49.57.497,lexical_decision_task_MP,2020.1.3,MacIntel,60,m,0,0.58825,,,,,,,,0.58825,0,,,,,,314,NW,UN,33,laston,SPRINE,z,,,,,,0.068658854,-0.086592882,0,0,0,,0,282,282,373,1,
,,,,,,,,,,,,,,,,,,5f2d4939e1b8742bba60a1e4,2020-08-10_17h49.57.497,lexical_decision_task_MP,2020.1.3,MacIntel,60,z,1,0.75797,,,,,,,,0.75797,1,,,,,,442,NW,"ID",33,aboune,ABOUNE,z,,,,,,0.068658854,-0.086592882,0,0,0,,0,283,283,261,1,
,,,,,,,,,,,,,,,,,,5f2d4939e1b8742bba60a1e4,2020-08-10_17h49.57.497,lexical_decision_task_MP,2020.1.3,MacIntel,60,z,1,0.832095,,,,,,,,0.832095,1,,,,,,285,NW,"ID",50,prudge,PRUDGE,z,,,,,,0.068658854,-0.086592882,0,0,0,,0,284,284,344,1,
,,,,,,,,,,,,,,,,,,5f2d4939e1b8742bba60a1e4,2020-08-10_17h49.57.497,lexical_decision_task_MP,2020.1.3,MacIntel,60,z,1,0.50214,,,,,,,,0.50214,1,,,,,,395,NW,UN,50,flengy,COLURY,z,,,,,,0.068658854,-0.086592882,0,0,0,,0,285,285,454,1,
,,,,,,,,,,,,,,,,,,5f2d4939e1b8742bba60a1e4,2020-08-10_17h49.57.497,lexical_decision_task_MP,2020.1.3,MacIntel,60,z,1,0.664385,,,,,,,,0.664385,1,,,,,,338,NW,UN,33,fachow,WREASH,z,,,,,,0.068658854,-0.086592882,0,0,0,,0,286,286,397,1,
,,,,,,,,,,,,,,,,,,5f2d4939e1b8742bba60a1e4,2020-08-10_17h49.57.497,lexical_decision_task_MP,2020.1.3,MacIntel,60,m,1,0.648255,,,,,,,,0.648255,1,,,,,,101,WORD,UN,33,direct,WRENCH,m,,,,,,0.068658854,-0.086592882,0,0,0,,0,287,287,160,1,
,,,,,,,,,,,,,,,,,,5f2d4939e1b8742bba60a1e4,2020-08-10_17h49.57.497,lexical_decision_task_MP,2020.1.3,MacIntel,60,m,0,1.084215,,,,,,,,1.084215,0,,,,,,473,NW,"ID",33,crible,CRIBLE,z,,,,,,0.068658854,-0.086592882,0,0,0,,0,288,288,292,1,
,,,,,,,,,,,,,,,,,,5f2d4939e1b8742bba60a1e4,2020-08-10_17h49.57.497,lexical_decision_task_MP,2020.1.3,MacIntel,60,z,1,0.690045,,,,,,,,0.690045,1,,,,,,384,NW,UN,50,injore,GUESCO,z,,,,,,0.068658854,-0.086592882,0,0,0,,0,289,289,443,1,
,,,,,,,,,,,,,,,,,,5f2d4939e1b8742bba60a1e4,2020-08-10_17h49.57.497,lexical_decision_task_MP,2020.1.3,MacIntel,60,z,1,0.84138,,,,,,,,0.84138,1,,,,,,359,NW,UN,33,desory,FONVER,z,,,,,,0.068658854,-0.086592882,0,0,0,,0,290,290,418,1,
,,,,,,,,,,,,,,,,,,5f2d4939e1b8742bba60a1e4,2020-08-10_17h49.57.497,lexical_decision_task_MP,2020.1.3,MacIntel,60,z,1,0.73468,,,,,,,,0.73468,1,,,,,,387,NW,UN,50,cragin,GRONCE,z,,,,,,0.068658854,-0.086592882,0,0,0,,0,291,291,446,1,
,,,,,,,,,,,,,,,,,,5f2d4939e1b8742bba60a1e4,2020-08-10_17h49.57.497,lexical_decision_task_MP,2020.1.3,MacIntel,60,m,1,0.668165,,,,,,,,0.668165,1,,,,,,40,WORD,"ID",50,convey,CONVEY,m,,,,,,0.068658854,-0.086592882,0,0,0,,0,292,292,99,1,
,,,,,,,,,,,,,,,,,,5f2d4939e1b8742bba60a1e4,2020-08-10_17h49.57.497,lexical_decision_task_MP,2020.1.3,MacIntel,60,m,0,0.80055,,,,,,,,0.80055,0,,,,,,364,NW,UN,50,guairt,IMPOTE,z,,,,,,0.068658854,-0.086592882,0,0,0,,0,293,293,423,1,
,,,,,,,,,,,,,,,,,,5f2d4939e1b8742bba60a1e4,2020-08-10_17h49.57.497,lexical_decision_task_MP,2020.1.3,MacIntel,60,m,0,0.948555,,,,,,,,0.948555,0,,,,,,436,NW,"ID",33,frutan,FRUTAN,z,,,,,,0.068658854,-0.086592882,0,0,0,,0,294,294,255,1,
,,,,,,,,,,,,,,,,,,5f2d4939e1b8742bba60a1e4,2020-08-10_17h49.57.497,lexical_decision_task_MP,2020.1.3,MacIntel,60,m,1,0.639885,,,,,,,,0.639885,1,,,,,,50,WORD,"ID",50,snatch,SNATCH,m,,,,,,0.068658854,-0.086592882,0,0,0,,0,295,295,109,1,
,,,,,,,,,,,,,,,,,,5f2d4939e1b8742bba60a1e4,2020-08-10_17h49.57.497,lexical_decision_task_MP,2020.1.3,MacIntel,60,m,0,0.83087,,,,,,,,0.83087,0,,,,,,455,NW,"ID",33,tondle,TONDLE,z,,,,,,0.068658854,-0.086592882,0,0,0,,0,296,296,274,1,
,,,,,,,,,,,,,,,,,,5f2d4939e1b8742bba60a1e4,2020-08-10_17h49.57.497,lexical_decision_task_MP,2020.1.3,MacIntel,60,m,1,0.549135,,,,,,,,0.549135,1,,,,,,12,WORD,"ID",50,orange,ORANGE,m,,,,,,0.068658854,-0.086592882,0,0,0,,0,297,297,71,1,
,,,,,,,,,,,,,,,,,,5f2d4939e1b8742bba60a1e4,2020-08-10_17h49.57.497,lexical_decision_task_MP,2020.1.3,MacIntel,60,z,1,0.91592,,,,,,,,0.91592,1,,,,,,373,NW,UN,50,sliant,BIGENT,z,,,,,,0.068658854,-0.086592882,0,0,0,,0,298,298,432,1,
,,,,,,,,,,,,,,,,,,5f2d4939e1b8742bba60a1e4,2020-08-10_17h49.57.497,lexical_decision_task_MP,2020.1.3,MacIntel,60,m,1,0.533215,,,,,,,,0.533215,1,,,,,,185,WORD,"ID",33,bother,BOTHER,m,,,,,,0.068658854,-0.086592882,0,0,0,,0,299,299,4,1,
,,,,,,,,,,,,,,,,,,5f2d4939e1b8742bba60a1e4,2020-08-10_17h49.57.497,lexical_decision_task_MP,2020.1.3,MacIntel,60,z,1,0.93329,,,,,,,,0.93329,1,,,,,,434,NW,"ID",33,pitrom,PITROM,z,,,,,,0.068658854,-0.086592882,0,0,0,,0,300,300,253,1,
,,,,,,,,,,,,,,,,,,5f2d4939e1b8742bba60a1e4,2020-08-10_17h49.57.497,lexical_decision_task_MP,2020.1.3,MacIntel,60,z,1,0.595335,,,,,,,,0.595335,1,,,,,,315,NW,UN,33,scregm,LASTON,z,,,,,,0.068658854,-0.086592882,0,0,0,,0,301,301,374,1,
,,,,,,,,,,,,,,,,,,5f2d4939e1b8742bba60a1e4,2020-08-10_17h49.57.497,lexical_decision_task_MP,2020.1.3,MacIntel,60,z,1,0.568585,,,,,,,,0.568585,1,,,,,,351,NW,UN,33,tringe,TIESCH,z,,,,,,0.068658854,-0.086592882,0,0,0,,0,302,302,410,1,
,,,,,,,,,,,,,,,,,,5f2d4939e1b8742bba60a1e4,2020-08-10_17h49.57.497,lexical_decision_task_MP,2020.1.3,MacIntel,60,z,1,0.618495,,,,,,,,0.618495,1,,,,,,458,NW,"ID",33,barcet,BARCET,z,,,,,,0.068658854,-0.086592882,0,0,0,,0,303,303,277,1,
,,,,,,,,,,,,,,,,,,5f2d4939e1b8742bba60a1e4,2020-08-10_17h49.57.497,lexical_decision_task_MP,2020.1.3,MacIntel,60,z,0,0.769985,,,,,,,,0.769985,0,,,,,,56,WORD,"ID",50,ambush,AMBUSH,m,,,,,,0.068658854,-0.086592882,0,0,0,,0,304,304,115,1,
,,,,,,,,,,,,,,,,,,5f2d4939e1b8742bba60a1e4,2020-08-10_17h49.57.497,lexical_decision_task_MP,2020.1.3,MacIntel,60,m,1,0.54149,,,,,,,,0.54149,1,,,,,,16,WORD,"ID",50,faucet,FAUCET,m,,,,,,0.068658854,-0.086592882,0,0,0,,0,305,305,75,1,
,,,,,,,,,,,,,,,,,,5f2d4939e1b8742bba60a1e4,2020-08-10_17h49.57.497,lexical_decision_task_MP,2020.1.3,MacIntel,60,z,1,0.581795,,,,,,,,0.581795,1,,,,,,457,NW,"ID",33,wanigh,WANIGH,z,,,,,,0.068658854,-0.086592882,0,0,0,,0,306,306,276,1,
,,,,,,,,,,,,,,,,,,5f2d4939e1b8742bba60a1e4,2020-08-10_17h49.57.497,lexical_decision_task_MP,2020.1.3,MacIntel,60,m,0,0.66821,,,,,,,,0.66821,0,,,,,,332,NW,UN,33,catrie,VANGUE,z,,,,,,0.068658854,-0.086592882,0,0,0,,0,307,307,391,1,
,,,,,,,,,,,,,,,,,,5f2d4939e1b8742bba60a1e4,2020-08-10_17h49.57.497,lexical_decision_task_MP,2020.1.3,MacIntel,60,m,1,0.59882,,,,,,,,0.59882,1,,,,,,102,WORD,UN,33,bounce,DIRECT,m,,,,,,0.068658854,-0.086592882,0,0,0,,0,308,308,161,1,
,,,,,,,,,,,,,,,,,,5f2d4939e1b8742bba60a1e4,2020-08-10_17h49.57.497,lexical_decision_task_MP,2020.1.3,MacIntel,60,z,0,0.706925,,,,,,,,0.706925,0,,,,,,49,WORD,"ID",50,survey,SURVEY,m,,,,,,0.068658854,-0.086592882,0,0,0,,0,309,309,108,1,
,,,,,,,,,,,,,,,,,,5f2d4939e1b8742bba60a1e4,2020-08-10_17h49.57.497,lexical_decision_task_MP,2020.1.3,MacIntel,60,m,1,0.57645,,,,,,,,0.57645,1,,,,,,73,WORD,UN,33,plaque,SOURCE,m,,,,,,0.068658854,-0.086592882,0,0,0,,0,310,310,132,1,
,,,,,,,,,,,,,,,,,,5f2d4939e1b8742bba60a1e4,2020-08-10_17h49.57.497,lexical_decision_task_MP,2020.1.3,MacIntel,60,z,1,0.75689,,,,,,,,0.75689,1,,,,,,340,NW,UN,33,myrtie,FIATCH,z,,,,,,0.068658854,-0.086592882,0,0,0,,0,311,311,399,1,
,,,,,,,,,,,,,,,,,,5f2d4939e1b8742bba60a1e4,2020-08-10_17h49.57.497,lexical_decision_task_MP,2020.1.3,MacIntel,60,m,1,0.583255,,,,,,,,0.583255,1,,,,,,13,WORD,"ID",50,strive,STRIVE,m,,,,,,0.068658854,-0.086592882,0,0,0,,0,312,312,72,1,
,,,,,,,,,,,,,,,,,,5f2d4939e1b8742bba60a1e4,2020-08-10_17h49.57.497,lexical_decision_task_MP,2020.1.3,MacIntel,60,m,1,0.649475,,,,,,,,0.649475,1,,,,,,235,WORD,"ID",33,grumpy,GRUMPY,m,,,,,,0.068658854,-0.086592882,0,0,0,,0,313,313,54,1,
,,,,,,,,,,,,,,,,,,5f2d4939e1b8742bba60a1e4,2020-08-10_17h49.57.497,lexical_decision_task_MP,2020.1.3,MacIntel,60,m,1,0.700665,,,,,,,,0.700665,1,,,,,,239,WORD,"ID",33,lumber,LUMBER,m,,,,,,0.068658854,-0.086592882,0,0,0,,0,314,314,58,1,
,,,,,,,,,,,,,,,,,,5f2d4939e1b8742bba60a1e4,2020-08-10_17h49.57.497,lexical_decision_task_MP,2020.1.3,MacIntel,60,m,1,0.634725,,,,,,,,0.634725,1,,,,,,48,WORD,"ID",50,walnut,WALNUT,m,,,,,,0.068658854,-0.086592882,0,0,0,,0,315,315,107,1,
,,,,,,,,,,,,,,,,,,5f2d4939e1b8742bba60a1e4,2020-08-10_17h49.57.497,lexical_decision_task_MP,2020.1.3,MacIntel,60,z,1,0.61865,,,,,,,,0.61865,1,,,,,,367,NW,UN,50,hornal,SLIQUE,z,,,,,,0.068658854,-0.086592882,0,0,0,,0,316,316,426,1,
,,,,,,,,,,,,,,,,,,5f2d4939e1b8742bba60a1e4,2020-08-10_17h49.57.497,lexical_decision_task_MP,2020.1.3,MacIntel,60,z,1,0.634415,,,,,,,,0.634415,1,,,,,,462,NW,"ID",33,absult,ABSULT,z,,,,,,0.068658854,-0.086592882,0,0,0,,0,317,317,281,1,
,,,,,,,,,,,,,,,,,,5f2d4939e1b8742bba60a1e4,2020-08-10_17h49.57.497,lexical_decision_task_MP,2020.1.3,MacIntel,60,z,0,0.496935,,,,,,,,0.496935,0,,,,,,151,WORD,UN,50,rocket,MYSTIC,m,,,,,,0.068658854,-0.086592882,0,0,0,,0,318,318,210,1,
,,,,,,,,,,,,,,,,,,5f2d4939e1b8742bba60a1e4,2020-08-10_17h49.57.497,lexical_decision_task_MP,2020.1.3,MacIntel,60,m,1,0.523585,,,,,,,,0.523585,1,,,,,,51,WORD,"ID",50,hungry,HUNGRY,m,,,,,,0.068658854,-0.086592882,0,0,0,,0,319,319,110,1,
,,,,,,,,,,,,,,,,,,5f2d4939e1b8742bba60a1e4,2020-08-10_17h49.57.497,lexical_decision_task_MP,2020.1.3,MacIntel,60,m,1,0.68923,,,,,,,,0.68923,1,,,,,,141,WORD,UN,50,spruce,ORPHAN,m,,,,,,0.068658854,-0.086592882,0,0,0,,0,320,320,200,1,
,,,,,,,,,,,,,,,,,,5f2d4939e1b8742bba60a1e4,2020-08-10_17h49.57.497,lexical_decision_task_MP,2020.1.3,MacIntel,60,z,0,0.61768,,,,,,,,0.61768,0,,,,,,227,WORD,"ID",33,seldom,SELDOM,m,,,,,,0.068658854,-0.086592882,0,0,0,,0,321,321,46,1,
,,,,,,,,,,,,,,,,,,5f2d4939e1b8742bba60a1e4,2020-08-10_17h49.57.497,lexical_decision_task_MP,2020.1.3,MacIntel,60,m,1,0.554185,,,,,,,,0.554185,1,,,,,,150,WORD,UN,50,mystic,RANDOM,m,,,,,,0.068658854,-0.086592882,0,0,0,,0,322,322,209,1,
,,,,,,,,,,,,,,,,,,5f2d4939e1b8742bba60a1e4,2020-08-10_17h49.57.497,lexical_decision_task_MP,2020.1.3,MacIntel,60,z,1,0.782495,,,,,,,,0.782495,1,,,,,,327,NW,UN,33,broake,PLENAC,z,,,,,,0.068658854,-0.086592882,0,0,0,,0,323,323,386,1,
,,,,,,,,,,,,,,,,,,5f2d4939e1b8742bba60a1e4,2020-08-10_17h49.57.497,lexical_decision_task_MP,2020.1.3,MacIntel,60,z,1,0.601675,,,,,,,,0.601675,1,,,,,,390,NW,UN,50,theldy,HATRUS,z,,,,,,0.068658854,-0.086592882,0,0,0,,0,324,324,449,1,
,,,,,,,,,,,,,,,,,,5f2d4939e1b8742bba60a1e4,2020-08-10_17h49.57.497,lexical_decision_task_MP,2020.1.3,MacIntel,60,m,1,0.535305,,,,,,,,0.535305,1,,,,,,3,WORD,"ID",50,knight,KNIGHT,m,,,,,,0.068658854,-0.086592882,0,0,0,,0,325,325,62,1,
,,,,,,,,,,,,,,,,,,5f2d4939e1b8742bba60a1e4,2020-08-10_17h49.57.497,lexical_decision_task_MP,2020.1.3,MacIntel,60,z,1,0.60331,,,,,,,,0.60331,1,,,,,,466,NW,"ID",33,hocite,HOCITE,z,,,,,,0.068658854,-0.086592882,0,0,0,,0,326,326,285,1,
,,,,,,,,,,,,,,,,,,5f2d4939e1b8742bba60a1e4,2020-08-10_17h49.57.497,lexical_decision_task_MP,2020.1.3,MacIntel,60,m,1,0.682925,,,,,,,,0.682925,1,,,,,,202,WORD,"ID",33,factor,FACTOR,m,,,,,,0.068658854,-0.086592882,0,0,0,,0,327,327,21,1,
,,,,,,,,,,,,,,,,,,5f2d4939e1b8742bba60a1e4,2020-08-10_17h49.57.497,lexical_decision_task_MP,2020.1.3,MacIntel,60,z,1,0.685115,,,,,,,,0.685115,1,,,,,,369,NW,UN,50,sleact,WRONCH,z,,,,,,0.068658854,-0.086592882,0,0,0,,0,328,328,428,1,
,,,,,,,,,,,,,,,,,,5f2d4939e1b8742bba60a1e4,2020-08-10_17h49.57.497,lexical_decision_task_MP,2020.1.3,MacIntel,60,z,1,0.639185,,,,,,,,0.639185,1,,,,,,411,NW,UN,50,jiluer,ORCHIN,z,,,,,,0.068658854,-0.086592882,0,0,0,,0,329,329,470,1,
,,,,,,,,,,,,,,,,,,5f2d4939e1b8742bba60a1e4,2020-08-10_17h49.57.497,lexical_decision_task_MP,2020.1.3,MacIntel,60,z,0,0.655735,,,,,,,,0.655735,0,,,,,,212,WORD,"ID",33,verify,VERIFY,m,,,,,,0.068658854,-0.086592882,0,0,0,,0,330,330,31,1,
,,,,,,,,,,,,,,,,,,5f2d4939e1b8742bba60a1e4,2020-08-10_17h49.57.497,lexical_decision_task_MP,2020.1.3,MacIntel,60,z,1,1.013195,,,,,,,,1.013195,1,,,,,,416,NW,UN,50,earoud,PATHEL,z,,,,,,0.068658854,-0.086592882,0,0,0,,0,331,331,475,1,
,,,,,,,,,,,,,,,,,,5f2d4939e1b8742bba60a1e4,2020-08-10_17h49.57.497,lexical_decision_task_MP,2020.1.3,MacIntel,60,z,1,0.75244,,,,,,,,0.75244,1,,,,,,389,NW,UN,50,hatrus,WITMER,z,,,,,,0.068658854,-0.086592882,0,0,0,,0,332,332,448,1,
,,,,,,,,,,,,,,,,,,5f2d4939e1b8742bba60a1e4,2020-08-10_17h49.57.497,lexical_decision_task_MP,2020.1.3,MacIntel,60,m,1,0.683225,,,,,,,,0.683225,1,,,,,,98,WORD,UN,33,fluent,BELONG,m,,,,,,0.068658854,-0.086592882,0,0,0,,0,333,333,157,1,
,,,,,,,,,,,,,,,,,,5f2d4939e1b8742bba60a1e4,2020-08-10_17h49.57.497,lexical_decision_task_MP,2020.1.3,MacIntel,60,m,0,0.669765,,,,,,,,0.669765,0,,,,,,378,NW,UN,50,auting,SHRILE,z,,,,,,0.068658854,-0.086592882,0,0,0,,0,334,334,437,1,
,,,,,,,,,,,,,,,,,,5f2d4939e1b8742bba60a1e4,2020-08-10_17h49.57.497,lexical_decision_task_MP,2020.1.3,MacIntel,60,z,1,0.733985,,,,,,,,0.733985,1,,,,,,298,NW,"ID",50,piergy,PIERGY,z,,,,,,0.068658854,-0.086592882,0,0,0,,0,335,335,357,1,
,,,,,,,,,,,,,,,,,,5f2d4939e1b8742bba60a1e4,2020-08-10_17h49.57.497,lexical_decision_task_MP,2020.1.3,MacIntel,60,m,1,0.737785,,,,,,,,0.737785,1,,,,,,125,WORD,UN,50,enough,NICKEL,m,,,,,,0.068658854,-0.086592882,0,0,0,,0,336,336,184,1,
,,,,,,,,,,,,,,,,,,5f2d4939e1b8742bba60a1e4,2020-08-10_17h49.57.497,lexical_decision_task_MP,2020.1.3,MacIntel,60,z,1,0.718675,,,,,,,,0.718675,1,,,,,,335,NW,UN,33,ghodus,DESION,z,,,,,,0.068658854,-0.086592882,0,0,0,,0,337,337,394,1,
,,,,,,,,,,,,,,,,,,5f2d4939e1b8742bba60a1e4,2020-08-10_17h49.57.497,lexical_decision_task_MP,2020.1.3,MacIntel,60,m,0,0.930535,,,,,,,,0.930535,0,,,,,,418,NW,UN,50,slount,SUIDLE,z,,,,,,0.068658854,-0.086592882,0,0,0,,0,338,338,477,1,
,,,,,,,,,,,,,,,,,,5f2d4939e1b8742bba60a1e4,2020-08-10_17h49.57.497,lexical_decision_task_MP,2020.1.3,MacIntel,60,z,1,0.634485,,,,,,,,0.634485,1,,,,,,349,NW,UN,33,nagurs,ASYLEN,z,,,,,,0.068658854,-0.086592882,0,0,0,,0,339,339,408,1,
,,,,,,,,,,,,,,,,,,5f2d4939e1b8742bba60a1e4,2020-08-10_17h49.57.497,lexical_decision_task_MP,2020.1.3,MacIntel,60,m,1,0.567925,,,,,,,,0.567925,1,,,,,,23,WORD,"ID",50,wealth,WEALTH,m,,,,,,0.068658854,-0.086592882,0,0,0,,0,340,340,82,1,
,,,,,,,,,,,,,,,,,,5f2d4939e1b8742bba60a1e4,2020-08-10_17h49.57.497,lexical_decision_task_MP,2020.1.3,MacIntel,60,m,1,0.5444,,,,,,,,0.5444,1,,,,,,57,WORD,"ID",50,change,CHANGE,m,,,,,,0.068658854,-0.086592882,0,0,0,,0,341,341,116,1,
,,,,,,,,,,,,,,,,,,5f2d4939e1b8742bba60a1e4,2020-08-10_17h49.57.497,lexical_decision_task_MP,2020.1.3,MacIntel,60,z,1,0.593425,,,,,,,,0.593425,1,,,,,,363,NW,UN,50,impote,BREALI,z,,,,,,0.068658854,-0.086592882,0,0,0,,0,342,342,422,1,
,,,,,,,,,,,,,,,,,,5f2d4939e1b8742bba60a1e4,2020-08-10_17h49.57.497,lexical_decision_task_MP,2020.1.3,MacIntel,60,z,1,0.62028,,,,,,,,0.62028,1,,,,,,374,NW,UN,50,yorque,SLIANT,z,,,,,,0.068658854,-0.086592882,0,0,0,,0,343,343,433,1,
,,,,,,,,,,,,,,,,,,5f2d4939e1b8742bba60a1e4,2020-08-10_17h49.57.497,lexical_decision_task_MP,2020.1.3,MacIntel,60,m,1,0.76694,,,,,,,,0.76694,1,,,,,,215,WORD,"ID",33,phobia,PHOBIA,m,,,,,,0.068658854,-0.086592882,0,0,0,,0,344,344,34,1,
,,,,,,,,,,,,,,,,,,5f2d4939e1b8742bba60a1e4,2020-08-10_17h49.57.497,lexical_decision_task_MP,2020.1.3,MacIntel,60,m,1,0.55655,,,,,,,,0.55655,1,,,,,,52,WORD,"ID",50,impose,IMPOSE,m,,,,,,0.068658854,-0.086592882,0,0,0,,0,345,345,111,1,
,,,,,,,,,,,,,,,,,,5f2d4939e1b8742bba60a1e4,2020-08-10_17h49.57.497,lexical_decision_task_MP,2020.1.3,MacIntel,60,m,1,0.470495,,,,,,,,0.470495,1,,,,,,15,WORD,"ID",50,amount,AMOUNT,m,,,,,,0.068658854,-0.086592882,0,0,0,,0,346,346,74,1,
,,,,,,,,,,,,,,,,,,5f2d4939e1b8742bba60a1e4,2020-08-10_17h49.57.497,lexical_decision_task_MP,2020.1.3,MacIntel,60,z,1,0.686435,,,,,,,,0.686435,1,,,,,,333,NW,UN,33,watmeg,CATRIE,z,,,,,,0.068658854,-0.086592882,0,0,0,,0,347,347,392,1,
,,,,,,,,,,,,,,,,,,5f2d4939e1b8742bba60a1e4,2020-08-10_17h49.57.497,lexical_decision_task_MP,2020.1.3,MacIntel,60,m,1,0.549065,,,,,,,,0.549065,1,,,,,,231,WORD,"ID",33,export,EXPORT,m,,,,,,0.068658854,-0.086592882,0,0,0,,0,348,348,50,1,
,,,,,,,,,,,,,,,,,,5f2d4939e1b8742bba60a1e4,2020-08-10_17h49.57.497,lexical_decision_task_MP,2020.1.3,MacIntel,60,m,1,0.63474,,,,,,,,0.63474,1,,,,,,26,WORD,"ID",50,sprint,SPRINT,m,,,,,,0.068658854,-0.086592882,0,0,0,,0,349,349,85,1,
,,,,,,,,,,,,,,,,,,5f2d4939e1b8742bba60a1e4,2020-08-10_17h49.57.497,lexical_decision_task_MP,2020.1.3,MacIntel,60,z,1,0.6007,,,,,,,,0.6007,1,,,,,,388,NW,UN,50,witmer,CRAGIN,z,,,,,,0.068658854,-0.086592882,0,0,0,,0,350,350,447,1,
,,,,,,,,,,,,,,,,,,5f2d4939e1b8742bba60a1e4,2020-08-10_17h49.57.497,lexical_decision_task_MP,2020.1.3,MacIntel,60,m,1,0.549815,,,,,,,,0.549815,1,,,,,,126,WORD,UN,50,castle,ENOUGH,m,,,,,,0.068658854,-0.086592882,0,0,0,,0,351,351,185,1,
,,,,,,,,,,,,,,,,,,5f2d4939e1b8742bba60a1e4,2020-08-10_17h49.57.497,lexical_decision_task_MP,2020.1.3,MacIntel,60,z,1,0.684445,,,,,,,,0.684445,1,,,,,,318,NW,UN,33,zomber,REAGLY,z,,,,,,0.068658854,-0.086592882,0,0,0,,0,352,352,377,1,
,,,,,,,,,,,,,,,,,,5f2d4939e1b8742bba60a1e4,2020-08-10_17h49.57.497,lexical_decision_task_MP,2020.1.3,MacIntel,60,z,0,0.63341,,,,,,,,0.63341,0,,,,,,62,WORD,UN,33,launch,REGION,m,,,,,,0.068658854,-0.086592882,0,0,0,,0,353,353,121,1,
,,,,,,,,,,,,,,,,,,5f2d4939e1b8742bba60a1e4,2020-08-10_17h49.57.497,lexical_decision_task_MP,2020.1.3,MacIntel,60,m,1,0.483875,,,,,,,,0.483875,1,,,,,,37,WORD,"ID",50,insult,INSULT,m,,,,,,0.068658854,-0.086592882,0,0,0,,0,354,354,96,1,
,,,,,,,,,,,,,,,,,,5f2d4939e1b8742bba60a1e4,2020-08-10_17h49.57.497,lexical_decision_task_MP,2020.1.3,MacIntel,60,z,1,0.668415,,,,,,,,0.668415,1,,,,,,331,NW,UN,33,vangue,GILFEW,z,,,,,,0.068658854,-0.086592882,0,0,0,,0,355,355,390,1,
,,,,,,,,,,,,,,,,,,5f2d4939e1b8742bba60a1e4,2020-08-10_17h49.57.497,lexical_decision_task_MP,2020.1.3,MacIntel,60,z,1,0.60115,,,,,,,,0.60115,1,,,,,,417,NW,UN,50,suidle,EAROUD,z,,,,,,0.068658854,-0.086592882,0,0,0,,0,356,356,476,1,
,,,,,,,,,,,,,,,,,,5f2d4939e1b8742bba60a1e4,2020-08-10_17h49.57.497,lexical_decision_task_MP,2020.1.3,MacIntel,60,m,1,0.53516,,,,,,,,0.53516,1,,,,,,79,WORD,UN,33,family,THEORY,m,,,,,,0.068658854,-0.086592882,0,0,0,,0,357,357,138,1,
,,,,,,,,,,,,,,,,,,5f2d4939e1b8742bba60a1e4,2020-08-10_17h49.57.497,lexical_decision_task_MP,2020.1.3,MacIntel,60,m,1,0.53563,,,,,,,,0.53563,1,,,,,,80,WORD,UN,33,friend,FAMILY,m,,,,,,0.068658854,-0.086592882,0,0,0,,0,358,358,139,1,
,,,,,,,,,,,,,,,,,,5f2d4939e1b8742bba60a1e4,2020-08-10_17h49.57.497,lexical_decision_task_MP,2020.1.3,MacIntel,60,m,0,0.71978,,,,,,,,0.71978,0,,,,,,297,NW,"ID",50,fertic,FERTIC,z,,,,,,0.068658854,-0.086592882,0,0,0,,0,359,359,356,1,
,,,,,,,,,,,,,,,,,,5f2d4939e1b8742bba60a1e4,2020-08-10_17h49.57.497,lexical_decision_task_MP,2020.1.3,MacIntel,60,z,1,0.6128,,,,,,,,0.6128,1,,,,,,407,NW,UN,50,hurnia,SUIVER,z,,,,,,0.068658854,-0.086592882,0,0,0,,0,360,360,466,1,
,,,,,,,,,,,,,,,,,,5f2d4939e1b8742bba60a1e4,2020-08-10_17h49.57.497,lexical_decision_task_MP,2020.1.3,MacIntel,60,m,1,0.555765,,,,,,,,0.555765,1,,,,,,166,WORD,UN,50,design,STARCH,m,,,,,,0.068658854,-0.086592882,0,0,0,,0,361,361,225,1,
,,,,,,,,,,,,,,,,,,5f2d4939e1b8742bba60a1e4,2020-08-10_17h49.57.497,lexical_decision_task_MP,2020.1.3,MacIntel,60,m,1,0.57247,,,,,,,,0.57247,1,,,,,,144,WORD,UN,50,parish,SPONGE,m,,,,,,0.068658854,-0.086592882,0,0,0,space,0,362,362,203,1,56.8071
,,,,,,,,,,,,,,,,,,5f2d4939e1b8742bba60a1e4,2020-08-10_17h49.57.497,lexical_decision_task_MP,2020.1.3,MacIntel,60,m,1,0.65465,,,,,,,,0.65465,1,,,,,,21,WORD,"ID",50,simple,SIMPLE,m,,,,,,0.068658854,-0.086592882,0,0,0,,0,363,363,80,1,
,,,,,,,,,,,,,,,,,,5f2d4939e1b8742bba60a1e4,2020-08-10_17h49.57.497,lexical_decision_task_MP,2020.1.3,MacIntel,60,z,1,0.55302,,,,,,,,0.55302,1,,,,,,276,NW,"ID",50,yarmon,YARMON,z,,,,,,0.068658854,-0.086592882,0,0,0,,0,364,364,335,1,
,,,,,,,,,,,,,,,,,,5f2d4939e1b8742bba60a1e4,2020-08-10_17h49.57.497,lexical_decision_task_MP,2020.1.3,MacIntel,60,m,1,0.569285,,,,,,,,0.569285,1,,,,,,162,WORD,UN,50,string,CANDLE,m,,,,,,0.068658854,-0.086592882,0,0,0,,0,365,365,221,1,
,,,,,,,,,,,,,,,,,,5f2d4939e1b8742bba60a1e4,2020-08-10_17h49.57.497,lexical_decision_task_MP,2020.1.3,MacIntel,60,m,1,0.780965,,,,,,,,0.780965,1,,,,,,89,WORD,UN,33,relish,PERMIT,m,,,,,,0.068658854,-0.086592882,0,0,0,,0,366,366,148,1,
,,,,,,,,,,,,,,,,,,5f2d4939e1b8742bba60a1e4,2020-08-10_17h49.57.497,lexical_decision_task_MP,2020.1.3,MacIntel,60,m,1,0.547705,,,,,,,,0.547705,1,,,,,,46,WORD,"ID",50,single,SINGLE,m,,,,,,0.068658854,-0.086592882,0,0,0,,0,367,367,105,1,
,,,,,,,,,,,,,,,,,,5f2d4939e1b8742bba60a1e4,2020-08-10_17h49.57.497,lexical_decision_task_MP,2020.1.3,MacIntel,60,m,1,0.4888,,,,,,,,0.4888,1,,,,,,20,WORD,"ID",50,breast,BREAST,m,,,,,,0.068658854,-0.086592882,0,0,0,,0,368,368,79,1,
,,,,,,,,,,,,,,,,,,5f2d4939e1b8742bba60a1e4,2020-08-10_17h49.57.497,lexical_decision_task_MP,2020.1.3,MacIntel,60,m,1,0.58302,,,,,,,,0.58302,1,,,,,,198,WORD,"ID",33,wicked,WICKED,m,,,,,,0.068658854,-0.086592882,0,0,0,,0,369,369,17,1,
,,,,,,,,,,,,,,,,,,5f2d4939e1b8742bba60a1e4,2020-08-10_17h49.57.497,lexical_decision_task_MP,2020.1.3,MacIntel,60,m,1,0.50139,,,,,,,,0.50139,1,,,,,,229,WORD,"ID",33,mother,MOTHER,m,,,,,,0.068658854,-0.086592882,0,0,0,,0,370,370,48,1,
,,,,,,,,,,,,,,,,,,5f2d4939e1b8742bba60a1e4,2020-08-10_17h49.57.497,lexical_decision_task_MP,2020.1.3,MacIntel,60,z,1,0.65188,,,,,,,,0.65188,1,,,,,,404,NW,UN,50,flumni,CLUIRM,z,,,,,,0.068658854,-0.086592882,0,0,0,,0,371,371,463,1,
,,,,,,,,,,,,,,,,,,5f2d4939e1b8742bba60a1e4,2020-08-10_17h49.57.497,lexical_decision_task_MP,2020.1.3,MacIntel,60,m,1,0.52057,,,,,,,,0.52057,1,,,,,,88,WORD,UN,33,permit,HUNGER,m,,,,,,0.068658854,-0.086592882,0,0,0,,0,372,372,147,1,
,,,,,,,,,,,,,,,,,,5f2d4939e1b8742bba60a1e4,2020-08-10_17h49.57.497,lexical_decision_task_MP,2020.1.3,MacIntel,60,m,1,0.61772,,,,,,,,0.61772,1,,,,,,220,WORD,"ID",33,voyage,VOYAGE,m,,,,,,0.068658854,-0.086592882,0,0,0,,0,373,373,39,1,
,,,,,,,,,,,,,,,,,,5f2d4939e1b8742bba60a1e4,2020-08-10_17h49.57.497,lexical_decision_task_MP,2020.1.3,MacIntel,60,z,1,0.60095,,,,,,,,0.60095,1,,,,,,281,NW,"ID",50,melaty,MELATY,z,,,,,,0.068658854,-0.086592882,0,0,0,,0,374,374,340,1,
,,,,,,,,,,,,,,,,,,5f2d4939e1b8742bba60a1e4,2020-08-10_17h49.57.497,lexical_decision_task_MP,2020.1.3,MacIntel,60,m,1,0.550955,,,,,,,,0.550955,1,,,,,,91,WORD,UN,33,hunger,EXPAND,m,,,,,,0.068658854,-0.086592882,0,0,0,,0,375,375,150,1,
,,,,,,,,,,,,,,,,,,5f2d4939e1b8742bba60a1e4,2020-08-10_17h49.57.497,lexical_decision_task_MP,2020.1.3,MacIntel,60,m,1,0.62104,,,,,,,,0.62104,1,,,,,,94,WORD,UN,33,thread,TRAVEL,m,,,,,,0.068658854,-0.086592882,0,0,0,,0,376,376,153,1,
,,,,,,,,,,,,,,,,,,5f2d4939e1b8742bba60a1e4,2020-08-10_17h49.57.497,lexical_decision_task_MP,2020.1.3,MacIntel,60,z,1,0.65124,,,,,,,,0.65124,1,,,,,,464,NW,"ID",33,chaite,CHAITE,z,,,,,,0.068658854,-0.086592882,0,0,0,,0,377,377,283,1,
,,,,,,,,,,,,,,,,,,5f2d4939e1b8742bba60a1e4,2020-08-10_17h49.57.497,lexical_decision_task_MP,2020.1.3,MacIntel,60,m,1,0.617445,,,,,,,,0.617445,1,,,,,,66,WORD,UN,33,policy,GOSPEL,m,,,,,,0.068658854,-0.086592882,0,0,0,,0,378,378,125,1,
,,,,,,,,,,,,,,,,,,5f2d4939e1b8742bba60a1e4,2020-08-10_17h49.57.497,lexical_decision_task_MP,2020.1.3,MacIntel,60,z,1,0.735195,,,,,,,,0.735195,1,,,,,,277,NW,"ID",50,petain,PETAIN,z,,,,,,0.068658854,-0.086592882,0,0,0,,0,379,379,336,1,
,,,,,,,,,,,,,,,,,,5f2d4939e1b8742bba60a1e4,2020-08-10_17h49.57.497,lexical_decision_task_MP,2020.1.3,MacIntel,60,m,1,0.56829,,,,,,,,0.56829,1,,,,,,237,WORD,"ID",33,poster,POSTER,m,,,,,,0.068658854,-0.086592882,0,0,0,,0,380,380,56,1,
,,,,,,,,,,,,,,,,,,5f2d4939e1b8742bba60a1e4,2020-08-10_17h49.57.497,lexical_decision_task_MP,2020.1.3,MacIntel,60,m,1,0.48772,,,,,,,,0.48772,1,,,,,,213,WORD,"ID",33,squeal,SQUEAL,m,,,,,,0.068658854,-0.086592882,0,0,0,,0,381,381,32,1,
,,,,,,,,,,,,,,,,,,5f2d4939e1b8742bba60a1e4,2020-08-10_17h49.57.497,lexical_decision_task_MP,2020.1.3,MacIntel,60,m,1,0.48119,,,,,,,,0.48119,1,,,,,,29,WORD,"ID",50,sketch,SKETCH,m,,,,,,0.068658854,-0.086592882,0,0,0,,0,382,382,88,1,
,,,,,,,,,,,,,,,,,,5f2d4939e1b8742bba60a1e4,2020-08-10_17h49.57.497,lexical_decision_task_MP,2020.1.3,MacIntel,60,z,1,0.57308,,,,,,,,0.57308,1,,,,,,372,NW,UN,50,bigent,RAMILY,z,,,,,,0.068658854,-0.086592882,0,0,0,,0,383,383,431,1,
,,,,,,,,,,,,,,,,,,5f2d4939e1b8742bba60a1e4,2020-08-10_17h49.57.497,lexical_decision_task_MP,2020.1.3,MacIntel,60,z,1,0.534525,,,,,,,,0.534525,1,,,,,,447,NW,"ID",33,gircue,GIRCUE,z,,,,,,0.068658854,-0.086592882,0,0,0,,0,384,384,266,1,
,,,,,,,,,,,,,,,,,,5f2d4939e1b8742bba60a1e4,2020-08-10_17h49.57.497,lexical_decision_task_MP,2020.1.3,MacIntel,60,m,0,0.666005,,,,,,,,0.666005,0,,,,,,453,NW,"ID",33,bolvis,BOLVIS,z,,,,,,0.068658854,-0.086592882,0,0,0,,0,385,385,272,1,
,,,,,,,,,,,,,,,,,,5f2d4939e1b8742bba60a1e4,2020-08-10_17h49.57.497,lexical_decision_task_MP,2020.1.3,MacIntel,60,z,1,0.68248,,,,,,,,0.68248,1,,,,,,255,NW,"ID",50,apight,APIGHT,z,,,,,,0.068658854,-0.086592882,0,0,0,,0,386,386,314,1,
,,,,,,,,,,,,,,,,,,5f2d4939e1b8742bba60a1e4,2020-08-10_17h49.57.497,lexical_decision_task_MP,2020.1.3,MacIntel,60,m,1,0.56849,,,,,,,,0.56849,1,,,,,,226,WORD,"ID",33,casino,CASINO,m,,,,,,0.068658854,-0.086592882,0,0,0,,0,387,387,45,1,
,,,,,,,,,,,,,,,,,,5f2d4939e1b8742bba60a1e4,2020-08-10_17h49.57.497,lexical_decision_task_MP,2020.1.3,MacIntel,60,m,1,0.61709,,,,,,,,0.61709,1,,,,,,187,WORD,"ID",33,course,COURSE,m,,,,,,0.068658854,-0.086592882,0,0,0,,0,388,388,6,1,
,,,,,,,,,,,,,,,,,,5f2d4939e1b8742bba60a1e4,2020-08-10_17h49.57.497,lexical_decision_task_MP,2020.1.3,MacIntel,60,m,1,0.66767,,,,,,,,0.66767,1,,,,,,1,WORD,"ID",50,fright,FRIGHT,m,,,,,,0.068658854,-0.086592882,0,0,0,,0,389,389,60,1,
,,,,,,,,,,,,,,,,,,5f2d4939e1b8742bba60a1e4,2020-08-10_17h49.57.497,lexical_decision_task_MP,2020.1.3,MacIntel,60,z,1,0.718775,,,,,,,,0.718775,1,,,,,,435,NW,"ID",33,impurb,IMPURB,z,,,,,,0.068658854,-0.086592882,0,0,0,,0,390,390,254,1,
,,,,,,,,,,,,,,,,,,5f2d4939e1b8742bba60a1e4,2020-08-10_17h49.57.497,lexical_decision_task_MP,2020.1.3,MacIntel,60,z,1,0.65338,,,,,,,,0.65338,1,,,,,,438,NW,"ID",33,baitch,BAITCH,z,,,,,,0.068658854,-0.086592882,0,0,0,,0,391,391,257,1,
,,,,,,,,,,,,,,,,,,5f2d4939e1b8742bba60a1e4,2020-08-10_17h49.57.497,lexical_decision_task_MP,2020.1.3,MacIntel,60,z,1,0.56546,,,,,,,,0.56546,1,,,,,,334,NW,UN,33,desion,WATMEG,z,,,,,,0.068658854,-0.086592882,0,0,0,,0,392,392,393,1,
,,,,,,,,,,,,,,,,,,5f2d4939e1b8742bba60a1e4,2020-08-10_17h49.57.497,lexical_decision_task_MP,2020.1.3,MacIntel,60,z,1,0.73778,,,,,,,,0.73778,1,,,,,,468,NW,"ID",33,wictor,WICTOR,z,,,,,,0.068658854,-0.086592882,0,0,0,,0,393,393,287,1,
,,,,,,,,,,,,,,,,,,5f2d4939e1b8742bba60a1e4,2020-08-10_17h49.57.497,lexical_decision_task_MP,2020.1.3,MacIntel,60,m,1,0.61691,,,,,,,,0.61691,1,,,,,,36,WORD,"ID",50,vanish,VANISH,m,,,,,,0.068658854,-0.086592882,0,0,0,,0,394,394,95,1,
,,,,,,,,,,,,,,,,,,5f2d4939e1b8742bba60a1e4,2020-08-10_17h49.57.497,lexical_decision_task_MP,2020.1.3,MacIntel,60,z,1,0.60585,,,,,,,,0.60585,1,,,,,,366,NW,UN,50,slique,TOSHEL,z,,,,,,0.068658854,-0.086592882,0,0,0,,0,395,395,425,1,
,,,,,,,,,,,,,,,,,,5f2d4939e1b8742bba60a1e4,2020-08-10_17h49.57.497,lexical_decision_task_MP,2020.1.3,MacIntel,60,z,1,0.623875,,,,,,,,0.623875,1,,,,,,451,NW,"ID",33,cainky,CAINKY,z,,,,,,0.068658854,-0.086592882,0,0,0,,0,396,396,270,1,
,,,,,,,,,,,,,,,,,,5f2d4939e1b8742bba60a1e4,2020-08-10_17h49.57.497,lexical_decision_task_MP,2020.1.3,MacIntel,60,m,1,0.58394,,,,,,,,0.58394,1,,,,,,11,WORD,"ID",50,cruise,CRUISE,m,,,,,,0.068658854,-0.086592882,0,0,0,,0,397,397,70,1,
,,,,,,,,,,,,,,,,,,5f2d4939e1b8742bba60a1e4,2020-08-10_17h49.57.497,lexical_decision_task_MP,2020.1.3,MacIntel,60,z,1,0.7642,,,,,,,,0.7642,1,,,,,,477,NW,"ID",33,photie,PHOTIE,z,,,,,,0.068658854,-0.086592882,0,0,0,,0,398,398,296,1,
