counterbalancing_condition,instr_done_keyboard.keys,instr_done_keyboard.rt,instr_done_touch.x,instr_done_touch.y,instr_done_touch.leftButton,instr_done_touch.midButton,instr_done_touch.rightButton,instruction_pages.thisRepN,instruction_pages.thisTrialN,instruction_pages.thisN,instruction_pages.thisIndex,instruction_pages.ran,pageN,phase,instruct_text,has_image,instruct_image,participant,date,expName,psychopyVersion,OS,frameRate,response.keys,response.corr,response.rt,touch_resp.x,touch_resp.y,touch_resp.leftButton,touch_resp.midButton,touch_resp.rightButton,touch_resp.time,touch_resp.clicked_name,rt,corr,practice_trials.thisRepN,practice_trials.thisTrialN,practice_trials.thisN,practice_trials.thisIndex,practice_trials.ran,TrialID,StimulusType,Condition,PrimeDuration,Prime,Target,corrAns,end_of_practice_trials_pages.thisRepN,end_of_practice_trials_pages.thisTrialN,end_of_practice_trials_pages.thisN,end_of_practice_trials_pages.thisIndex,end_of_practice_trials_pages.ran,break_done_touch.x,break_done_touch.y,break_done_touch.leftButton,break_done_touch.midButton,break_done_touch.rightButton,break_done_keyboard.keys,trials.thisRepN,trials.thisTrialN,trials.thisN,trials.thisIndex,trials.ran,break_done_keyboard.rt
0,space,17.71403,0.120370385,-0.180555566,0,0,0,0,0,0,0,1,1,instructions,"INSTRUCTIONS
At the start of each trial, look at the hash marks (######) in the center of the screen. After a moment, a string of letters will appear. Your task is to indicate if the letter string forms a word or not (i.e., if it is a nonword). For example, AUTHOR is a word while AUTHON is a nonword.

Press the space bar or touch the button below to continue.",0,,5f2dcc2ab5f3f20f53df3a4d,2020-08-10_13h22.53.149,lexical_decision_task_MP,2020.1.3,Win32,60,,,,,,,,,,,,,,,,,,,,,,,,,,,,,,,,,,,,,,,,,
,space,25.2825,0.120370385,-0.180555566,0,0,0,0,1,1,1,1,2,instructions,"If your device has a keyboard, press the 'Z' key for nonwords and the 'M' key for words.





Press the space bar or touch the button below to continue.",1,keyboard-example.gif,5f2dcc2ab5f3f20f53df3a4d,2020-08-10_13h22.53.149,lexical_decision_task_MP,2020.1.3,Win32,60,,,,,,,,,,,,,,,,,,,,,,,,,,,,,,,,,,,,,,,,,
,space,13.183015,0.120370385,-0.180555566,0,0,0,0,2,2,2,1,3,instructions,"If you are using a touchscreen only device, use the buttons on the screen. Do not use the mouse.





Press the space bar or touch the button below to continue.",1,touchscreen-example.gif,5f2dcc2ab5f3f20f53df3a4d,2020-08-10_13h22.53.149,lexical_decision_task_MP,2020.1.3,Win32,60,,,,,,,,,,,,,,,,,,,,,,,,,,,,,,,,,,,,,,,,,
,space,36.89126,0.120370385,-0.180555566,0,0,0,0,3,3,3,1,4,instructions,"It is very important that you respond as quickly and accurately as possible, as each letter string will only be on the screen for two seconds. If you do not respond within this time, the message 'Too slow!' will be displayed and the experiment will progress to the next letter string. The first 20 trials will be practice trials and you will receive feedback on your answers. 

Press the space bar or touch the button below to start the practice trials.",0,,5f2dcc2ab5f3f20f53df3a4d,2020-08-10_13h22.53.149,lexical_decision_task_MP,2020.1.3,Win32,60,,,,,,,,,,,,,,,,,,,,,,,,,,,,,,,,,,,,,,,,,
,,,,,,,,,,,,,,,,,,5f2dcc2ab5f3f20f53df3a4d,2020-08-10_13h22.53.149,lexical_decision_task_MP,2020.1.3,Win32,60,m,1,1.59809,,,,,,,,1.59809,1,0,0,0,4,1,1005,WORD,UN,33,abound,SQUEAK,m,,,,,,,,,,,,,,,,,
,,,,,,,,,,,,,,,,,,5f2dcc2ab5f3f20f53df3a4d,2020-08-10_13h22.53.149,lexical_decision_task_MP,2020.1.3,Win32,60,m,1,0.77712,,,,,,,,0.77712,1,0,1,1,3,1,1004,WORD,"ID",50,matrix,MATRIX,m,,,,,,,,,,,,,,,,,
,,,,,,,,,,,,,,,,,,5f2dcc2ab5f3f20f53df3a4d,2020-08-10_13h22.53.149,lexical_decision_task_MP,2020.1.3,Win32,60,z,1,0.902395,,,,,,,,0.902395,1,0,2,2,8,1,1009,NW,"ID",33,aslert,ASLERT,z,,,,,,,,,,,,,,,,,
,,,,,,,,,,,,,,,,,,5f2dcc2ab5f3f20f53df3a4d,2020-08-10_13h22.53.149,lexical_decision_task_MP,2020.1.3,Win32,60,z,1,1.225505,,,,,,,,1.225505,1,0,3,3,12,1,1013,NW,UN,33,adveil,SPRINY,z,,,,,,,,,,,,,,,,,
,,,,,,,,,,,,,,,,,,5f2dcc2ab5f3f20f53df3a4d,2020-08-10_13h22.53.149,lexical_decision_task_MP,2020.1.3,Win32,60,m,1,0.86186,,,,,,,,0.86186,1,0,4,4,6,1,1007,WORD,UN,50,tropic,ZOMBIE,m,,,,,,,,,,,,,,,,,
,,,,,,,,,,,,,,,,,,5f2dcc2ab5f3f20f53df3a4d,2020-08-10_13h22.53.149,lexical_decision_task_MP,2020.1.3,Win32,60,z,1,0.90088,,,,,,,,0.90088,1,0,5,5,14,1,1015,NW,UN,50,miaber,THRALE,z,,,,,,,,,,,,,,,,,
,,,,,,,,,,,,,,,,,,5f2dcc2ab5f3f20f53df3a4d,2020-08-10_13h22.53.149,lexical_decision_task_MP,2020.1.3,Win32,60,z,1,1.123505,,,,,,,,1.123505,1,0,6,6,13,1,1014,NW,UN,33,winfer,ROUPET,z,,,,,,,,,,,,,,,,,
,,,,,,,,,,,,,,,,,,5f2dcc2ab5f3f20f53df3a4d,2020-08-10_13h22.53.149,lexical_decision_task_MP,2020.1.3,Win32,60,z,1,1.084435,,,,,,,,1.084435,1,0,7,7,10,1,1011,NW,"ID",50,inlade,INLADE,z,,,,,,,,,,,,,,,,,
,,,,,,,,,,,,,,,,,,5f2dcc2ab5f3f20f53df3a4d,2020-08-10_13h22.53.149,lexical_decision_task_MP,2020.1.3,Win32,60,m,1,0.78054,,,,,,,,0.78054,1,0,8,8,2,1,1003,WORD,"ID",50,almond,ALMOND,m,,,,,,,,,,,,,,,,,
,,,,,,,,,,,,,,,,,,5f2dcc2ab5f3f20f53df3a4d,2020-08-10_13h22.53.149,lexical_decision_task_MP,2020.1.3,Win32,60,z,1,0.969155,,,,,,,,0.969155,1,0,9,9,11,1,1012,NW,"ID",50,rashet,RASHET,z,,,,,,,,,,,,,,,,,
,,,,,,,,,,,,,,,,,,5f2dcc2ab5f3f20f53df3a4d,2020-08-10_13h22.53.149,lexical_decision_task_MP,2020.1.3,Win32,60,m,1,0.8396,,,,,,,,0.8396,1,0,10,10,5,1,1006,WORD,UN,33,frenzy,OBTAIN,m,,,,,,,,,,,,,,,,,
,,,,,,,,,,,,,,,,,,5f2dcc2ab5f3f20f53df3a4d,2020-08-10_13h22.53.149,lexical_decision_task_MP,2020.1.3,Win32,60,z,1,0.90518,,,,,,,,0.90518,1,0,11,11,15,1,1016,NW,UN,50,mushed,WHAISE,z,,,,,,,,,,,,,,,,,
,,,,,,,,,,,,,,,,,,5f2dcc2ab5f3f20f53df3a4d,2020-08-10_13h22.53.149,lexical_decision_task_MP,2020.1.3,Win32,60,m,1,0.825105,,,,,,,,0.825105,1,0,12,12,0,1,1001,WORD,"ID",33,utopia,UTOPIA,m,,,,,,,,,,,,,,,,,
,,,,,,,,,,,,,,,,,,5f2dcc2ab5f3f20f53df3a4d,2020-08-10_13h22.53.149,lexical_decision_task_MP,2020.1.3,Win32,60,m,1,0.737635,,,,,,,,0.737635,1,0,13,13,1,1,1002,WORD,"ID",33,adjust,ADJUST,m,,,,,,,,,,,,,,,,,
,,,,,,,,,,,,,,,,,,5f2dcc2ab5f3f20f53df3a4d,2020-08-10_13h22.53.149,lexical_decision_task_MP,2020.1.3,Win32,60,m,1,0.61169,,,,,,,,0.61169,1,0,14,14,7,1,1008,WORD,UN,50,hurdle,VOLUME,m,,,,,,,,,,,,,,,,,
,,,,,,,,,,,,,,,,,,5f2dcc2ab5f3f20f53df3a4d,2020-08-10_13h22.53.149,lexical_decision_task_MP,2020.1.3,Win32,60,z,1,0.67274,,,,,,,,0.67274,1,0,15,15,9,1,1010,NW,"ID",33,fariny,FARINY,z,,,,,,,,,,,,,,,,,
,space,25.19351,0.120370385,-0.180555566,0,0,0,,,,,,1,end_of_practice,"You have completed the practice trials. During the experimental trials, you will not receive feedback, but it is very important that you respond as quickly and accurately as possible. 
Before you begin, please ensure that you are in a comfortable and quiet location and will not be disturbed for about 15 minutes, as we cannot use your data if you do not complete all the trials. 
There will be opportunities to take breaks at regular intervals during the experiment. When you are ready to start the experimental trials, please press space or touch the button below.",,,5f2dcc2ab5f3f20f53df3a4d,2020-08-10_13h22.53.149,lexical_decision_task_MP,2020.1.3,Win32,60,,,,,,,,,,,,,,,,,,,,,,,,,0,0,0,0,1,,,,,,,,,,,,
,,,,,,,,,,,,,,,,,,5f2dcc2ab5f3f20f53df3a4d,2020-08-10_13h22.53.149,lexical_decision_task_MP,2020.1.3,Win32,60,m,1,1.064315,,,,,,,,1.064315,1,,,,,,154,WORD,UN,50,lizard,AUTHOR,m,,,,,,0.120370385,-0.180555566,0,0,0,,0,0,0,213,1,
,,,,,,,,,,,,,,,,,,5f2dcc2ab5f3f20f53df3a4d,2020-08-10_13h22.53.149,lexical_decision_task_MP,2020.1.3,Win32,60,m,1,1.000725,,,,,,,,1.000725,1,,,,,,155,WORD,UN,50,cradle,LIZARD,m,,,,,,0.120370385,-0.180555566,0,0,0,,0,1,1,214,1,
,,,,,,,,,,,,,,,,,,5f2dcc2ab5f3f20f53df3a4d,2020-08-10_13h22.53.149,lexical_decision_task_MP,2020.1.3,Win32,60,z,1,0.870335,,,,,,,,0.870335,1,,,,,,466,NW,"ID",33,hocite,HOCITE,z,,,,,,0.120370385,-0.180555566,0,0,0,,0,2,2,285,1,
,,,,,,,,,,,,,,,,,,5f2dcc2ab5f3f20f53df3a4d,2020-08-10_13h22.53.149,lexical_decision_task_MP,2020.1.3,Win32,60,z,1,0.940555,,,,,,,,0.940555,1,,,,,,449,NW,"ID",33,brunge,BRUNGE,z,,,,,,0.120370385,-0.180555566,0,0,0,,0,3,3,268,1,
,,,,,,,,,,,,,,,,,,5f2dcc2ab5f3f20f53df3a4d,2020-08-10_13h22.53.149,lexical_decision_task_MP,2020.1.3,Win32,60,z,1,0.949695,,,,,,,,0.949695,1,,,,,,372,NW,UN,50,bigent,RAMILY,z,,,,,,0.120370385,-0.180555566,0,0,0,,0,4,4,431,1,
,,,,,,,,,,,,,,,,,,5f2dcc2ab5f3f20f53df3a4d,2020-08-10_13h22.53.149,lexical_decision_task_MP,2020.1.3,Win32,60,z,1,0.82033,,,,,,,,0.82033,1,,,,,,412,NW,UN,50,equats,JILUER,z,,,,,,0.120370385,-0.180555566,0,0,0,,0,5,5,471,1,
,,,,,,,,,,,,,,,,,,5f2dcc2ab5f3f20f53df3a4d,2020-08-10_13h22.53.149,lexical_decision_task_MP,2020.1.3,Win32,60,z,1,0.927745,,,,,,,,0.927745,1,,,,,,335,NW,UN,33,ghodus,DESION,z,,,,,,0.120370385,-0.180555566,0,0,0,,0,6,6,394,1,
,,,,,,,,,,,,,,,,,,5f2dcc2ab5f3f20f53df3a4d,2020-08-10_13h22.53.149,lexical_decision_task_MP,2020.1.3,Win32,60,m,1,0.69783,,,,,,,,0.69783,1,,,,,,20,WORD,"ID",50,breast,BREAST,m,,,,,,0.120370385,-0.180555566,0,0,0,,0,7,7,79,1,
,,,,,,,,,,,,,,,,,,5f2dcc2ab5f3f20f53df3a4d,2020-08-10_13h22.53.149,lexical_decision_task_MP,2020.1.3,Win32,60,z,1,0.864515,,,,,,,,0.864515,1,,,,,,422,NW,"ID",33,alcoud,ALCOUD,z,,,,,,0.120370385,-0.180555566,0,0,0,,0,8,8,241,1,
,,,,,,,,,,,,,,,,,,5f2dcc2ab5f3f20f53df3a4d,2020-08-10_13h22.53.149,lexical_decision_task_MP,2020.1.3,Win32,60,z,1,0.83062,,,,,,,,0.83062,1,,,,,,346,NW,UN,33,kerift,SAUDIC,z,,,,,,0.120370385,-0.180555566,0,0,0,,0,9,9,405,1,
,,,,,,,,,,,,,,,,,,5f2dcc2ab5f3f20f53df3a4d,2020-08-10_13h22.53.149,lexical_decision_task_MP,2020.1.3,Win32,60,m,1,0.814605,,,,,,,,0.814605,1,,,,,,73,WORD,UN,33,plaque,SOURCE,m,,,,,,0.120370385,-0.180555566,0,0,0,,0,10,10,132,1,
,,,,,,,,,,,,,,,,,,5f2dcc2ab5f3f20f53df3a4d,2020-08-10_13h22.53.149,lexical_decision_task_MP,2020.1.3,Win32,60,z,1,0.86452,,,,,,,,0.86452,1,,,,,,320,NW,UN,33,miator,JOCKAL,z,,,,,,0.120370385,-0.180555566,0,0,0,,0,11,11,379,1,
,,,,,,,,,,,,,,,,,,5f2dcc2ab5f3f20f53df3a4d,2020-08-10_13h22.53.149,lexical_decision_task_MP,2020.1.3,Win32,60,m,1,0.714855,,,,,,,,0.714855,1,,,,,,11,WORD,"ID",50,cruise,CRUISE,m,,,,,,0.120370385,-0.180555566,0,0,0,,0,12,12,70,1,
,,,,,,,,,,,,,,,,,,5f2dcc2ab5f3f20f53df3a4d,2020-08-10_13h22.53.149,lexical_decision_task_MP,2020.1.3,Win32,60,z,1,0.66925,,,,,,,,0.66925,1,,,,,,414,NW,UN,50,higsta,SERBOL,z,,,,,,0.120370385,-0.180555566,0,0,0,,0,13,13,473,1,
,,,,,,,,,,,,,,,,,,5f2dcc2ab5f3f20f53df3a4d,2020-08-10_13h22.53.149,lexical_decision_task_MP,2020.1.3,Win32,60,z,1,0.611245,,,,,,,,0.611245,1,,,,,,308,NW,UN,33,amiloy,PSETCH,z,,,,,,0.120370385,-0.180555566,0,0,0,,0,14,14,367,1,
,,,,,,,,,,,,,,,,,,5f2dcc2ab5f3f20f53df3a4d,2020-08-10_13h22.53.149,lexical_decision_task_MP,2020.1.3,Win32,60,z,1,0.631935,,,,,,,,0.631935,1,,,,,,446,NW,"ID",33,runamo,RUNAMO,z,,,,,,0.120370385,-0.180555566,0,0,0,,0,15,15,265,1,
,,,,,,,,,,,,,,,,,,5f2dcc2ab5f3f20f53df3a4d,2020-08-10_13h22.53.149,lexical_decision_task_MP,2020.1.3,Win32,60,z,1,0.574685,,,,,,,,0.574685,1,,,,,,336,NW,UN,33,rejols,GHODUS,z,,,,,,0.120370385,-0.180555566,0,0,0,,0,16,16,395,1,
,,,,,,,,,,,,,,,,,,5f2dcc2ab5f3f20f53df3a4d,2020-08-10_13h22.53.149,lexical_decision_task_MP,2020.1.3,Win32,60,z,1,0.785585,,,,,,,,0.785585,1,,,,,,249,NW,"ID",50,batrol,BATROL,z,,,,,,0.120370385,-0.180555566,0,0,0,,0,17,17,308,1,
,,,,,,,,,,,,,,,,,,5f2dcc2ab5f3f20f53df3a4d,2020-08-10_13h22.53.149,lexical_decision_task_MP,2020.1.3,Win32,60,m,1,0.69825,,,,,,,,0.69825,1,,,,,,180,WORD,UN,50,thrive,SILENT,m,,,,,,0.120370385,-0.180555566,0,0,0,,0,18,18,239,1,
,,,,,,,,,,,,,,,,,,5f2dcc2ab5f3f20f53df3a4d,2020-08-10_13h22.53.149,lexical_decision_task_MP,2020.1.3,Win32,60,z,1,0.798805,,,,,,,,0.798805,1,,,,,,451,NW,"ID",33,cainky,CAINKY,z,,,,,,0.120370385,-0.180555566,0,0,0,,0,19,19,270,1,
,,,,,,,,,,,,,,,,,,5f2dcc2ab5f3f20f53df3a4d,2020-08-10_13h22.53.149,lexical_decision_task_MP,2020.1.3,Win32,60,z,1,0.81632,,,,,,,,0.81632,1,,,,,,390,NW,UN,50,theldy,HATRUS,z,,,,,,0.120370385,-0.180555566,0,0,0,,0,20,20,449,1,
,,,,,,,,,,,,,,,,,,5f2dcc2ab5f3f20f53df3a4d,2020-08-10_13h22.53.149,lexical_decision_task_MP,2020.1.3,Win32,60,m,1,0.937275,,,,,,,,0.937275,1,,,,,,176,WORD,UN,50,advent,STRIFE,m,,,,,,0.120370385,-0.180555566,0,0,0,,0,21,21,235,1,
,,,,,,,,,,,,,,,,,,5f2dcc2ab5f3f20f53df3a4d,2020-08-10_13h22.53.149,lexical_decision_task_MP,2020.1.3,Win32,60,m,1,0.74991,,,,,,,,0.74991,1,,,,,,178,WORD,UN,50,basket,INFORM,m,,,,,,0.120370385,-0.180555566,0,0,0,,0,22,22,237,1,
,,,,,,,,,,,,,,,,,,5f2dcc2ab5f3f20f53df3a4d,2020-08-10_13h22.53.149,lexical_decision_task_MP,2020.1.3,Win32,60,m,1,0.940015,,,,,,,,0.940015,1,,,,,,166,WORD,UN,50,design,STARCH,m,,,,,,0.120370385,-0.180555566,0,0,0,,0,23,23,225,1,
,,,,,,,,,,,,,,,,,,5f2dcc2ab5f3f20f53df3a4d,2020-08-10_13h22.53.149,lexical_decision_task_MP,2020.1.3,Win32,60,m,1,0.75505,,,,,,,,0.75505,1,,,,,,142,WORD,UN,50,reason,SPRUCE,m,,,,,,0.120370385,-0.180555566,0,0,0,,0,24,24,201,1,
,,,,,,,,,,,,,,,,,,5f2dcc2ab5f3f20f53df3a4d,2020-08-10_13h22.53.149,lexical_decision_task_MP,2020.1.3,Win32,60,z,1,0.956845,,,,,,,,0.956845,1,,,,,,333,NW,UN,33,watmeg,CATRIE,z,,,,,,0.120370385,-0.180555566,0,0,0,,0,25,25,392,1,
,,,,,,,,,,,,,,,,,,5f2dcc2ab5f3f20f53df3a4d,2020-08-10_13h22.53.149,lexical_decision_task_MP,2020.1.3,Win32,60,m,1,0.70217,,,,,,,,0.70217,1,,,,,,231,WORD,"ID",33,export,EXPORT,m,,,,,,0.120370385,-0.180555566,0,0,0,,0,26,26,50,1,
,,,,,,,,,,,,,,,,,,5f2dcc2ab5f3f20f53df3a4d,2020-08-10_13h22.53.149,lexical_decision_task_MP,2020.1.3,Win32,60,m,1,0.74812,,,,,,,,0.74812,1,,,,,,145,WORD,UN,50,couple,PARISH,m,,,,,,0.120370385,-0.180555566,0,0,0,,0,27,27,204,1,
,,,,,,,,,,,,,,,,,,5f2dcc2ab5f3f20f53df3a4d,2020-08-10_13h22.53.149,lexical_decision_task_MP,2020.1.3,Win32,60,z,1,0.714235,,,,,,,,0.714235,1,,,,,,251,NW,"ID",50,lupict,LUPICT,z,,,,,,0.120370385,-0.180555566,0,0,0,,0,28,28,310,1,
,,,,,,,,,,,,,,,,,,5f2dcc2ab5f3f20f53df3a4d,2020-08-10_13h22.53.149,lexical_decision_task_MP,2020.1.3,Win32,60,m,1,0.6861,,,,,,,,0.6861,1,,,,,,17,WORD,"ID",50,charge,CHARGE,m,,,,,,0.120370385,-0.180555566,0,0,0,,0,29,29,76,1,
,,,,,,,,,,,,,,,,,,5f2dcc2ab5f3f20f53df3a4d,2020-08-10_13h22.53.149,lexical_decision_task_MP,2020.1.3,Win32,60,z,1,0.74798,,,,,,,,0.74798,1,,,,,,310,NW,UN,33,sproly,DANIET,z,,,,,,0.120370385,-0.180555566,0,0,0,,0,30,30,369,1,
,,,,,,,,,,,,,,,,,,5f2dcc2ab5f3f20f53df3a4d,2020-08-10_13h22.53.149,lexical_decision_task_MP,2020.1.3,Win32,60,m,1,0.73602,,,,,,,,0.73602,1,,,,,,30,WORD,"ID",50,orient,ORIENT,m,,,,,,0.120370385,-0.180555566,0,0,0,,0,31,31,89,1,
,,,,,,,,,,,,,,,,,,5f2dcc2ab5f3f20f53df3a4d,2020-08-10_13h22.53.149,lexical_decision_task_MP,2020.1.3,Win32,60,m,1,0.73397,,,,,,,,0.73397,1,,,,,,211,WORD,"ID",33,infect,INFECT,m,,,,,,0.120370385,-0.180555566,0,0,0,,0,32,32,30,1,
,,,,,,,,,,,,,,,,,,5f2dcc2ab5f3f20f53df3a4d,2020-08-10_13h22.53.149,lexical_decision_task_MP,2020.1.3,Win32,60,m,1,0.625695,,,,,,,,0.625695,1,,,,,,126,WORD,UN,50,castle,ENOUGH,m,,,,,,0.120370385,-0.180555566,0,0,0,,0,33,33,185,1,
,,,,,,,,,,,,,,,,,,5f2dcc2ab5f3f20f53df3a4d,2020-08-10_13h22.53.149,lexical_decision_task_MP,2020.1.3,Win32,60,m,1,0.744475,,,,,,,,0.744475,1,,,,,,68,WORD,UN,33,plenty,FUMBLE,m,,,,,,0.120370385,-0.180555566,0,0,0,,0,34,34,127,1,
,,,,,,,,,,,,,,,,,,5f2dcc2ab5f3f20f53df3a4d,2020-08-10_13h22.53.149,lexical_decision_task_MP,2020.1.3,Win32,60,m,1,0.690565,,,,,,,,0.690565,1,,,,,,209,WORD,"ID",33,search,SEARCH,m,,,,,,0.120370385,-0.180555566,0,0,0,,0,35,35,28,1,
,,,,,,,,,,,,,,,,,,5f2dcc2ab5f3f20f53df3a4d,2020-08-10_13h22.53.149,lexical_decision_task_MP,2020.1.3,Win32,60,m,1,0.76444,,,,,,,,0.76444,1,,,,,,203,WORD,"ID",33,phrase,PHRASE,m,,,,,,0.120370385,-0.180555566,0,0,0,,0,36,36,22,1,
,,,,,,,,,,,,,,,,,,5f2dcc2ab5f3f20f53df3a4d,2020-08-10_13h22.53.149,lexical_decision_task_MP,2020.1.3,Win32,60,z,1,1.334905,,,,,,,,1.334905,1,,,,,,256,NW,"ID",50,inlors,INLORS,z,,,,,,0.120370385,-0.180555566,0,0,0,,0,37,37,315,1,
,,,,,,,,,,,,,,,,,,5f2dcc2ab5f3f20f53df3a4d,2020-08-10_13h22.53.149,lexical_decision_task_MP,2020.1.3,Win32,60,m,1,0.81673,,,,,,,,0.81673,1,,,,,,38,WORD,"ID",50,powder,POWDER,m,,,,,,0.120370385,-0.180555566,0,0,0,,0,38,38,97,1,
,,,,,,,,,,,,,,,,,,5f2dcc2ab5f3f20f53df3a4d,2020-08-10_13h22.53.149,lexical_decision_task_MP,2020.1.3,Win32,60,z,1,0.856825,,,,,,,,0.856825,1,,,,,,453,NW,"ID",33,bolvis,BOLVIS,z,,,,,,0.120370385,-0.180555566,0,0,0,,0,39,39,272,1,
,,,,,,,,,,,,,,,,,,5f2dcc2ab5f3f20f53df3a4d,2020-08-10_13h22.53.149,lexical_decision_task_MP,2020.1.3,Win32,60,z,1,0.73844,,,,,,,,0.73844,1,,,,,,242,NW,"ID",50,unwert,UNWERT,z,,,,,,0.120370385,-0.180555566,0,0,0,,0,40,40,301,1,
,,,,,,,,,,,,,,,,,,5f2dcc2ab5f3f20f53df3a4d,2020-08-10_13h22.53.149,lexical_decision_task_MP,2020.1.3,Win32,60,z,1,0.83122,,,,,,,,0.83122,1,,,,,,452,NW,"ID",33,surden,SURDEN,z,,,,,,0.120370385,-0.180555566,0,0,0,,0,41,41,271,1,
,,,,,,,,,,,,,,,,,,5f2dcc2ab5f3f20f53df3a4d,2020-08-10_13h22.53.149,lexical_decision_task_MP,2020.1.3,Win32,60,z,1,0.80334,,,,,,,,0.80334,1,,,,,,436,NW,"ID",33,frutan,FRUTAN,z,,,,,,0.120370385,-0.180555566,0,0,0,,0,42,42,255,1,
,,,,,,,,,,,,,,,,,,5f2dcc2ab5f3f20f53df3a4d,2020-08-10_13h22.53.149,lexical_decision_task_MP,2020.1.3,Win32,60,z,1,0.834725,,,,,,,,0.834725,1,,,,,,435,NW,"ID",33,impurb,IMPURB,z,,,,,,0.120370385,-0.180555566,0,0,0,,0,43,43,254,1,
,,,,,,,,,,,,,,,,,,5f2dcc2ab5f3f20f53df3a4d,2020-08-10_13h22.53.149,lexical_decision_task_MP,2020.1.3,Win32,60,m,1,1.16767,,,,,,,,1.16767,1,,,,,,115,WORD,UN,33,tumble,GUITAR,m,,,,,,0.120370385,-0.180555566,0,0,0,,0,44,44,174,1,
,,,,,,,,,,,,,,,,,,5f2dcc2ab5f3f20f53df3a4d,2020-08-10_13h22.53.149,lexical_decision_task_MP,2020.1.3,Win32,60,z,1,1.15653,,,,,,,,1.15653,1,,,,,,345,NW,UN,33,saudic,ABSEND,z,,,,,,0.120370385,-0.180555566,0,0,0,,0,45,45,404,1,
,,,,,,,,,,,,,,,,,,5f2dcc2ab5f3f20f53df3a4d,2020-08-10_13h22.53.149,lexical_decision_task_MP,2020.1.3,Win32,60,z,0,1.022135,,,,,,,,1.022135,0,,,,,,90,WORD,UN,33,expand,RELISH,m,,,,,,0.120370385,-0.180555566,0,0,0,,0,46,46,149,1,
,,,,,,,,,,,,,,,,,,5f2dcc2ab5f3f20f53df3a4d,2020-08-10_13h22.53.149,lexical_decision_task_MP,2020.1.3,Win32,60,m,1,0.837555,,,,,,,,0.837555,1,,,,,,40,WORD,"ID",50,convey,CONVEY,m,,,,,,0.120370385,-0.180555566,0,0,0,,0,47,47,99,1,
,,,,,,,,,,,,,,,,,,5f2dcc2ab5f3f20f53df3a4d,2020-08-10_13h22.53.149,lexical_decision_task_MP,2020.1.3,Win32,60,m,1,0.85033,,,,,,,,0.85033,1,,,,,,133,WORD,UN,50,staple,CHROME,m,,,,,,0.120370385,-0.180555566,0,0,0,,0,48,48,192,1,
,,,,,,,,,,,,,,,,,,5f2dcc2ab5f3f20f53df3a4d,2020-08-10_13h22.53.149,lexical_decision_task_MP,2020.1.3,Win32,60,z,1,1.105815,,,,,,,,1.105815,1,,,,,,462,NW,"ID",33,absult,ABSULT,z,,,,,,0.120370385,-0.180555566,0,0,0,,0,49,49,281,1,
,,,,,,,,,,,,,,,,,,5f2dcc2ab5f3f20f53df3a4d,2020-08-10_13h22.53.149,lexical_decision_task_MP,2020.1.3,Win32,60,m,1,0.89758,,,,,,,,0.89758,1,,,,,,188,WORD,"ID",33,social,SOCIAL,m,,,,,,0.120370385,-0.180555566,0,0,0,,0,50,50,7,1,
,,,,,,,,,,,,,,,,,,5f2dcc2ab5f3f20f53df3a4d,2020-08-10_13h22.53.149,lexical_decision_task_MP,2020.1.3,Win32,60,z,1,0.87211,,,,,,,,0.87211,1,,,,,,280,NW,"ID",50,curbol,CURBOL,z,,,,,,0.120370385,-0.180555566,0,0,0,,0,51,51,339,1,
,,,,,,,,,,,,,,,,,,5f2dcc2ab5f3f20f53df3a4d,2020-08-10_13h22.53.149,lexical_decision_task_MP,2020.1.3,Win32,60,m,1,0.83564,,,,,,,,0.83564,1,,,,,,14,WORD,"ID",50,almost,ALMOST,m,,,,,,0.120370385,-0.180555566,0,0,0,,0,52,52,73,1,
,,,,,,,,,,,,,,,,,,5f2dcc2ab5f3f20f53df3a4d,2020-08-10_13h22.53.149,lexical_decision_task_MP,2020.1.3,Win32,60,m,1,0.76451,,,,,,,,0.76451,1,,,,,,69,WORD,UN,33,square,PLENTY,m,,,,,,0.120370385,-0.180555566,0,0,0,,0,53,53,128,1,
,,,,,,,,,,,,,,,,,,5f2dcc2ab5f3f20f53df3a4d,2020-08-10_13h22.53.149,lexical_decision_task_MP,2020.1.3,Win32,60,z,1,0.85215,,,,,,,,0.85215,1,,,,,,311,NW,UN,33,nerawl,SPROLY,z,,,,,,0.120370385,-0.180555566,0,0,0,,0,54,54,370,1,
,,,,,,,,,,,,,,,,,,5f2dcc2ab5f3f20f53df3a4d,2020-08-10_13h22.53.149,lexical_decision_task_MP,2020.1.3,Win32,60,z,1,0.855545,,,,,,,,0.855545,1,,,,,,387,NW,UN,50,cragin,GRONCE,z,,,,,,0.120370385,-0.180555566,0,0,0,,0,55,55,446,1,
,,,,,,,,,,,,,,,,,,5f2dcc2ab5f3f20f53df3a4d,2020-08-10_13h22.53.149,lexical_decision_task_MP,2020.1.3,Win32,60,m,1,0.716785,,,,,,,,0.716785,1,,,,,,42,WORD,"ID",50,chapel,CHAPEL,m,,,,,,0.120370385,-0.180555566,0,0,0,,0,56,56,101,1,
,,,,,,,,,,,,,,,,,,5f2dcc2ab5f3f20f53df3a4d,2020-08-10_13h22.53.149,lexical_decision_task_MP,2020.1.3,Win32,60,m,1,0.731115,,,,,,,,0.731115,1,,,,,,235,WORD,"ID",33,grumpy,GRUMPY,m,,,,,,0.120370385,-0.180555566,0,0,0,,0,57,57,54,1,
,,,,,,,,,,,,,,,,,,5f2dcc2ab5f3f20f53df3a4d,2020-08-10_13h22.53.149,lexical_decision_task_MP,2020.1.3,Win32,60,m,1,0.781645,,,,,,,,0.781645,1,,,,,,76,WORD,UN,33,racket,EXOTIC,m,,,,,,0.120370385,-0.180555566,0,0,0,,0,58,58,135,1,
,,,,,,,,,,,,,,,,,,5f2dcc2ab5f3f20f53df3a4d,2020-08-10_13h22.53.149,lexical_decision_task_MP,2020.1.3,Win32,60,z,1,0.98717,,,,,,,,0.98717,1,,,,,,269,NW,"ID",50,orchet,ORCHET,z,,,,,,0.120370385,-0.180555566,0,0,0,,0,59,59,328,1,
,,,,,,,,,,,,,,,,,,5f2dcc2ab5f3f20f53df3a4d,2020-08-10_13h22.53.149,lexical_decision_task_MP,2020.1.3,Win32,60,m,1,0.766915,,,,,,,,0.766915,1,,,,,,48,WORD,"ID",50,walnut,WALNUT,m,,,,,,0.120370385,-0.180555566,0,0,0,,0,60,60,107,1,
,,,,,,,,,,,,,,,,,,5f2dcc2ab5f3f20f53df3a4d,2020-08-10_13h22.53.149,lexical_decision_task_MP,2020.1.3,Win32,60,m,1,0.733395,,,,,,,,0.733395,1,,,,,,35,WORD,"ID",50,socket,SOCKET,m,,,,,,0.120370385,-0.180555566,0,0,0,,0,61,61,94,1,
,,,,,,,,,,,,,,,,,,5f2dcc2ab5f3f20f53df3a4d,2020-08-10_13h22.53.149,lexical_decision_task_MP,2020.1.3,Win32,60,z,1,0.76945,,,,,,,,0.76945,1,,,,,,307,NW,UN,33,psetch,KIRAFE,z,,,,,,0.120370385,-0.180555566,0,0,0,,0,62,62,366,1,
,,,,,,,,,,,,,,,,,,5f2dcc2ab5f3f20f53df3a4d,2020-08-10_13h22.53.149,lexical_decision_task_MP,2020.1.3,Win32,60,m,1,0.780925,,,,,,,,0.780925,1,,,,,,125,WORD,UN,50,enough,NICKEL,m,,,,,,0.120370385,-0.180555566,0,0,0,,0,63,63,184,1,
,,,,,,,,,,,,,,,,,,5f2dcc2ab5f3f20f53df3a4d,2020-08-10_13h22.53.149,lexical_decision_task_MP,2020.1.3,Win32,60,m,1,0.784085,,,,,,,,0.784085,1,,,,,,144,WORD,UN,50,parish,SPONGE,m,,,,,,0.120370385,-0.180555566,0,0,0,,0,64,64,203,1,
,,,,,,,,,,,,,,,,,,5f2dcc2ab5f3f20f53df3a4d,2020-08-10_13h22.53.149,lexical_decision_task_MP,2020.1.3,Win32,60,z,1,0.846555,,,,,,,,0.846555,1,,,,,,321,NW,UN,33,slanch,MIATOR,z,,,,,,0.120370385,-0.180555566,0,0,0,,0,65,65,380,1,
,,,,,,,,,,,,,,,,,,5f2dcc2ab5f3f20f53df3a4d,2020-08-10_13h22.53.149,lexical_decision_task_MP,2020.1.3,Win32,60,z,1,1.14,,,,,,,,1.14,1,,,,,,340,NW,UN,33,myrtie,FIATCH,z,,,,,,0.120370385,-0.180555566,0,0,0,,0,66,66,399,1,
,,,,,,,,,,,,,,,,,,5f2dcc2ab5f3f20f53df3a4d,2020-08-10_13h22.53.149,lexical_decision_task_MP,2020.1.3,Win32,60,m,1,0.708135,,,,,,,,0.708135,1,,,,,,72,WORD,UN,33,source,BRIGHT,m,,,,,,0.120370385,-0.180555566,0,0,0,,0,67,67,131,1,
,,,,,,,,,,,,,,,,,,5f2dcc2ab5f3f20f53df3a4d,2020-08-10_13h22.53.149,lexical_decision_task_MP,2020.1.3,Win32,60,z,1,1.140695,,,,,,,,1.140695,1,,,,,,285,NW,"ID",50,prudge,PRUDGE,z,,,,,,0.120370385,-0.180555566,0,0,0,,0,68,68,344,1,
,,,,,,,,,,,,,,,,,,5f2dcc2ab5f3f20f53df3a4d,2020-08-10_13h22.53.149,lexical_decision_task_MP,2020.1.3,Win32,60,m,1,0.68925,,,,,,,,0.68925,1,,,,,,163,WORD,UN,50,market,STRING,m,,,,,,0.120370385,-0.180555566,0,0,0,,0,69,69,222,1,
,,,,,,,,,,,,,,,,,,5f2dcc2ab5f3f20f53df3a4d,2020-08-10_13h22.53.149,lexical_decision_task_MP,2020.1.3,Win32,60,m,1,0.790275,,,,,,,,0.790275,1,,,,,,19,WORD,"ID",50,patron,PATRON,m,,,,,,0.120370385,-0.180555566,0,0,0,,0,70,70,78,1,
,,,,,,,,,,,,,,,,,,5f2dcc2ab5f3f20f53df3a4d,2020-08-10_13h22.53.149,lexical_decision_task_MP,2020.1.3,Win32,60,z,1,0.785905,,,,,,,,0.785905,1,,,,,,392,NW,UN,50,ganous,ROUNCY,z,,,,,,0.120370385,-0.180555566,0,0,0,,0,71,71,451,1,
,,,,,,,,,,,,,,,,,,5f2dcc2ab5f3f20f53df3a4d,2020-08-10_13h22.53.149,lexical_decision_task_MP,2020.1.3,Win32,60,z,1,0.88735,,,,,,,,0.88735,1,,,,,,281,NW,"ID",50,melaty,MELATY,z,,,,,,0.120370385,-0.180555566,0,0,0,,0,72,72,340,1,
,,,,,,,,,,,,,,,,,,5f2dcc2ab5f3f20f53df3a4d,2020-08-10_13h22.53.149,lexical_decision_task_MP,2020.1.3,Win32,60,m,1,0.717335,,,,,,,,0.717335,1,,,,,,210,WORD,"ID",33,monkey,MONKEY,m,,,,,,0.120370385,-0.180555566,0,0,0,,0,73,73,29,1,
,,,,,,,,,,,,,,,,,,5f2dcc2ab5f3f20f53df3a4d,2020-08-10_13h22.53.149,lexical_decision_task_MP,2020.1.3,Win32,60,m,1,0.86446,,,,,,,,0.86446,1,,,,,,129,WORD,UN,50,stupid,MARVEL,m,,,,,,0.120370385,-0.180555566,0,0,0,,0,74,74,188,1,
,,,,,,,,,,,,,,,,,,5f2dcc2ab5f3f20f53df3a4d,2020-08-10_13h22.53.149,lexical_decision_task_MP,2020.1.3,Win32,60,z,1,0.80753,,,,,,,,0.80753,1,,,,,,246,NW,"ID",50,piaton,PIATON,z,,,,,,0.120370385,-0.180555566,0,0,0,,0,75,75,305,1,
,,,,,,,,,,,,,,,,,,5f2dcc2ab5f3f20f53df3a4d,2020-08-10_13h22.53.149,lexical_decision_task_MP,2020.1.3,Win32,60,m,1,0.780875,,,,,,,,0.780875,1,,,,,,191,WORD,"ID",33,stable,STABLE,m,,,,,,0.120370385,-0.180555566,0,0,0,,0,76,76,10,1,
,,,,,,,,,,,,,,,,,,5f2dcc2ab5f3f20f53df3a4d,2020-08-10_13h22.53.149,lexical_decision_task_MP,2020.1.3,Win32,60,z,1,0.764695,,,,,,,,0.764695,1,,,,,,319,NW,UN,33,jockal,ZOMBER,z,,,,,,0.120370385,-0.180555566,0,0,0,,0,77,77,378,1,
,,,,,,,,,,,,,,,,,,5f2dcc2ab5f3f20f53df3a4d,2020-08-10_13h22.53.149,lexical_decision_task_MP,2020.1.3,Win32,60,m,1,0.659405,,,,,,,,0.659405,1,,,,,,141,WORD,UN,50,spruce,ORPHAN,m,,,,,,0.120370385,-0.180555566,0,0,0,,0,78,78,200,1,
,,,,,,,,,,,,,,,,,,5f2dcc2ab5f3f20f53df3a4d,2020-08-10_13h22.53.149,lexical_decision_task_MP,2020.1.3,Win32,60,z,1,0.77143,,,,,,,,0.77143,1,,,,,,359,NW,UN,33,desory,FONVER,z,,,,,,0.120370385,-0.180555566,0,0,0,,0,79,79,418,1,
,,,,,,,,,,,,,,,,,,5f2dcc2ab5f3f20f53df3a4d,2020-08-10_13h22.53.149,lexical_decision_task_MP,2020.1.3,Win32,60,m,1,0.819925,,,,,,,,0.819925,1,,,,,,161,WORD,UN,50,candle,PASTOR,m,,,,,,0.120370385,-0.180555566,0,0,0,,0,80,80,220,1,
,,,,,,,,,,,,,,,,,,5f2dcc2ab5f3f20f53df3a4d,2020-08-10_13h22.53.149,lexical_decision_task_MP,2020.1.3,Win32,60,m,1,1.05761,,,,,,,,1.05761,1,,,,,,65,WORD,UN,33,gospel,SYMBOL,m,,,,,,0.120370385,-0.180555566,0,0,0,,0,81,81,124,1,
,,,,,,,,,,,,,,,,,,5f2dcc2ab5f3f20f53df3a4d,2020-08-10_13h22.53.149,lexical_decision_task_MP,2020.1.3,Win32,60,z,1,0.674205,,,,,,,,0.674205,1,,,,,,439,NW,"ID",33,limpor,LIMPOR,z,,,,,,0.120370385,-0.180555566,0,0,0,,0,82,82,258,1,
,,,,,,,,,,,,,,,,,,5f2dcc2ab5f3f20f53df3a4d,2020-08-10_13h22.53.149,lexical_decision_task_MP,2020.1.3,Win32,60,m,1,0.60533,,,,,,,,0.60533,1,,,,,,148,WORD,UN,50,invade,CUSTOM,m,,,,,,0.120370385,-0.180555566,0,0,0,,0,83,83,207,1,
,,,,,,,,,,,,,,,,,,5f2dcc2ab5f3f20f53df3a4d,2020-08-10_13h22.53.149,lexical_decision_task_MP,2020.1.3,Win32,60,m,1,0.607585,,,,,,,,0.607585,1,,,,,,220,WORD,"ID",33,voyage,VOYAGE,m,,,,,,0.120370385,-0.180555566,0,0,0,,0,84,84,39,1,
,,,,,,,,,,,,,,,,,,5f2dcc2ab5f3f20f53df3a4d,2020-08-10_13h22.53.149,lexical_decision_task_MP,2020.1.3,Win32,60,m,1,0.615225,,,,,,,,0.615225,1,,,,,,168,WORD,UN,50,genius,ANSWER,m,,,,,,0.120370385,-0.180555566,0,0,0,,0,85,85,227,1,
,,,,,,,,,,,,,,,,,,5f2dcc2ab5f3f20f53df3a4d,2020-08-10_13h22.53.149,lexical_decision_task_MP,2020.1.3,Win32,60,m,1,0.552955,,,,,,,,0.552955,1,,,,,,215,WORD,"ID",33,phobia,PHOBIA,m,,,,,,0.120370385,-0.180555566,0,0,0,,0,86,86,34,1,
,,,,,,,,,,,,,,,,,,5f2dcc2ab5f3f20f53df3a4d,2020-08-10_13h22.53.149,lexical_decision_task_MP,2020.1.3,Win32,60,m,1,0.68306,,,,,,,,0.68306,1,,,,,,13,WORD,"ID",50,strive,STRIVE,m,,,,,,0.120370385,-0.180555566,0,0,0,,0,87,87,72,1,
,,,,,,,,,,,,,,,,,,5f2dcc2ab5f3f20f53df3a4d,2020-08-10_13h22.53.149,lexical_decision_task_MP,2020.1.3,Win32,60,z,1,0.597415,,,,,,,,0.597415,1,,,,,,423,NW,"ID",33,streld,STRELD,z,,,,,,0.120370385,-0.180555566,0,0,0,,0,88,88,242,1,
,,,,,,,,,,,,,,,,,,5f2dcc2ab5f3f20f53df3a4d,2020-08-10_13h22.53.149,lexical_decision_task_MP,2020.1.3,Win32,60,z,1,0.764945,,,,,,,,0.764945,1,,,,,,477,NW,"ID",33,photie,PHOTIE,z,,,,,,0.120370385,-0.180555566,0,0,0,,0,89,89,296,1,
,,,,,,,,,,,,,,,,,,5f2dcc2ab5f3f20f53df3a4d,2020-08-10_13h22.53.149,lexical_decision_task_MP,2020.1.3,Win32,60,m,1,0.616765,,,,,,,,0.616765,1,,,,,,213,WORD,"ID",33,squeal,SQUEAL,m,,,,,,0.120370385,-0.180555566,0,0,0,,0,90,90,32,1,
,,,,,,,,,,,,,,,,,,5f2dcc2ab5f3f20f53df3a4d,2020-08-10_13h22.53.149,lexical_decision_task_MP,2020.1.3,Win32,60,z,1,0.632815,,,,,,,,0.632815,1,,,,,,450,NW,"ID",33,phrect,PHRECT,z,,,,,,0.120370385,-0.180555566,0,0,0,,0,91,91,269,1,
,,,,,,,,,,,,,,,,,,5f2dcc2ab5f3f20f53df3a4d,2020-08-10_13h22.53.149,lexical_decision_task_MP,2020.1.3,Win32,60,z,1,0.701225,,,,,,,,0.701225,1,,,,,,325,NW,UN,33,iguade,THRUSE,z,,,,,,0.120370385,-0.180555566,0,0,0,,0,92,92,384,1,
,,,,,,,,,,,,,,,,,,5f2dcc2ab5f3f20f53df3a4d,2020-08-10_13h22.53.149,lexical_decision_task_MP,2020.1.3,Win32,60,m,1,0.59737,,,,,,,,0.59737,1,,,,,,6,WORD,"ID",50,bundle,BUNDLE,m,,,,,,0.120370385,-0.180555566,0,0,0,,0,93,93,65,1,
,,,,,,,,,,,,,,,,,,5f2dcc2ab5f3f20f53df3a4d,2020-08-10_13h22.53.149,lexical_decision_task_MP,2020.1.3,Win32,60,z,1,0.63929,,,,,,,,0.63929,1,,,,,,418,NW,UN,50,slount,SUIDLE,z,,,,,,0.120370385,-0.180555566,0,0,0,,0,94,94,477,1,
,,,,,,,,,,,,,,,,,,5f2dcc2ab5f3f20f53df3a4d,2020-08-10_13h22.53.149,lexical_decision_task_MP,2020.1.3,Win32,60,m,1,0.652805,,,,,,,,0.652805,1,,,,,,122,WORD,UN,50,strike,LINGER,m,,,,,,0.120370385,-0.180555566,0,0,0,,0,95,95,181,1,
,,,,,,,,,,,,,,,,,,5f2dcc2ab5f3f20f53df3a4d,2020-08-10_13h22.53.149,lexical_decision_task_MP,2020.1.3,Win32,60,m,1,0.576455,,,,,,,,0.576455,1,,,,,,229,WORD,"ID",33,mother,MOTHER,m,,,,,,0.120370385,-0.180555566,0,0,0,,0,96,96,48,1,
,,,,,,,,,,,,,,,,,,5f2dcc2ab5f3f20f53df3a4d,2020-08-10_13h22.53.149,lexical_decision_task_MP,2020.1.3,Win32,60,z,1,0.65058,,,,,,,,0.65058,1,,,,,,391,NW,UN,50,rouncy,THELDY,z,,,,,,0.120370385,-0.180555566,0,0,0,,0,97,97,450,1,
,,,,,,,,,,,,,,,,,,5f2dcc2ab5f3f20f53df3a4d,2020-08-10_13h22.53.149,lexical_decision_task_MP,2020.1.3,Win32,60,m,1,0.59105,,,,,,,,0.59105,1,,,,,,221,WORD,"ID",33,mascot,MASCOT,m,,,,,,0.120370385,-0.180555566,0,0,0,,0,98,98,40,1,
,,,,,,,,,,,,,,,,,,5f2dcc2ab5f3f20f53df3a4d,2020-08-10_13h22.53.149,lexical_decision_task_MP,2020.1.3,Win32,60,m,1,0.561775,,,,,,,,0.561775,1,,,,,,238,WORD,"ID",33,flower,FLOWER,m,,,,,,0.120370385,-0.180555566,0,0,0,,0,99,99,57,1,
,,,,,,,,,,,,,,,,,,5f2dcc2ab5f3f20f53df3a4d,2020-08-10_13h22.53.149,lexical_decision_task_MP,2020.1.3,Win32,60,m,1,0.654375,,,,,,,,0.654375,1,,,,,,151,WORD,UN,50,rocket,MYSTIC,m,,,,,,0.120370385,-0.180555566,0,0,0,,0,100,100,210,1,
,,,,,,,,,,,,,,,,,,5f2dcc2ab5f3f20f53df3a4d,2020-08-10_13h22.53.149,lexical_decision_task_MP,2020.1.3,Win32,60,m,1,0.64167,,,,,,,,0.64167,1,,,,,,118,WORD,UN,33,spider,FLIGHT,m,,,,,,0.120370385,-0.180555566,0,0,0,,0,101,101,177,1,
,,,,,,,,,,,,,,,,,,5f2dcc2ab5f3f20f53df3a4d,2020-08-10_13h22.53.149,lexical_decision_task_MP,2020.1.3,Win32,60,z,1,0.650255,,,,,,,,0.650255,1,,,,,,263,NW,"ID",50,dolica,DOLICA,z,,,,,,0.120370385,-0.180555566,0,0,0,,0,102,102,322,1,
,,,,,,,,,,,,,,,,,,5f2dcc2ab5f3f20f53df3a4d,2020-08-10_13h22.53.149,lexical_decision_task_MP,2020.1.3,Win32,60,m,1,0.630725,,,,,,,,0.630725,1,,,,,,236,WORD,"ID",33,pirate,PIRATE,m,,,,,,0.120370385,-0.180555566,0,0,0,,0,103,103,55,1,
,,,,,,,,,,,,,,,,,,5f2dcc2ab5f3f20f53df3a4d,2020-08-10_13h22.53.149,lexical_decision_task_MP,2020.1.3,Win32,60,z,1,0.63022,,,,,,,,0.63022,1,,,,,,375,NW,UN,50,iguare,YORQUE,z,,,,,,0.120370385,-0.180555566,0,0,0,,0,104,104,434,1,
,,,,,,,,,,,,,,,,,,5f2dcc2ab5f3f20f53df3a4d,2020-08-10_13h22.53.149,lexical_decision_task_MP,2020.1.3,Win32,60,z,1,0.686235,,,,,,,,0.686235,1,,,,,,259,NW,"ID",50,soudal,SOUDAL,z,,,,,,0.120370385,-0.180555566,0,0,0,,0,105,105,318,1,
,,,,,,,,,,,,,,,,,,5f2dcc2ab5f3f20f53df3a4d,2020-08-10_13h22.53.149,lexical_decision_task_MP,2020.1.3,Win32,60,m,1,0.66414,,,,,,,,0.66414,1,,,,,,67,WORD,UN,33,fumble,POLICY,m,,,,,,0.120370385,-0.180555566,0,0,0,,0,106,106,126,1,
,,,,,,,,,,,,,,,,,,5f2dcc2ab5f3f20f53df3a4d,2020-08-10_13h22.53.149,lexical_decision_task_MP,2020.1.3,Win32,60,z,1,0.732005,,,,,,,,0.732005,1,,,,,,400,NW,UN,50,mustil,WEAROX,z,,,,,,0.120370385,-0.180555566,0,0,0,,0,107,107,459,1,
,,,,,,,,,,,,,,,,,,5f2dcc2ab5f3f20f53df3a4d,2020-08-10_13h22.53.149,lexical_decision_task_MP,2020.1.3,Win32,60,m,1,0.75305,,,,,,,,0.75305,1,,,,,,22,WORD,"ID",50,jockey,JOCKEY,m,,,,,,0.120370385,-0.180555566,0,0,0,,0,108,108,81,1,
,,,,,,,,,,,,,,,,,,5f2dcc2ab5f3f20f53df3a4d,2020-08-10_13h22.53.149,lexical_decision_task_MP,2020.1.3,Win32,60,m,1,0.6616,,,,,,,,0.6616,1,,,,,,186,WORD,"ID",33,portal,PORTAL,m,,,,,,0.120370385,-0.180555566,0,0,0,,0,109,109,5,1,
,,,,,,,,,,,,,,,,,,5f2dcc2ab5f3f20f53df3a4d,2020-08-10_13h22.53.149,lexical_decision_task_MP,2020.1.3,Win32,60,m,1,0.70462,,,,,,,,0.70462,1,,,,,,80,WORD,UN,33,friend,FAMILY,m,,,,,,0.120370385,-0.180555566,0,0,0,,0,110,110,139,1,
,,,,,,,,,,,,,,,,,,5f2dcc2ab5f3f20f53df3a4d,2020-08-10_13h22.53.149,lexical_decision_task_MP,2020.1.3,Win32,60,z,1,0.832015,,,,,,,,0.832015,1,,,,,,365,NW,UN,50,toshel,GUAIRT,z,,,,,,0.120370385,-0.180555566,0,0,0,,0,111,111,424,1,
,,,,,,,,,,,,,,,,,,5f2dcc2ab5f3f20f53df3a4d,2020-08-10_13h22.53.149,lexical_decision_task_MP,2020.1.3,Win32,60,z,1,0.822935,,,,,,,,0.822935,1,,,,,,247,NW,"ID",50,blarge,BLARGE,z,,,,,,0.120370385,-0.180555566,0,0,0,,0,112,112,306,1,
,,,,,,,,,,,,,,,,,,5f2dcc2ab5f3f20f53df3a4d,2020-08-10_13h22.53.149,lexical_decision_task_MP,2020.1.3,Win32,60,m,1,0.877045,,,,,,,,0.877045,1,,,,,,74,WORD,UN,33,trophy,PLAQUE,m,,,,,,0.120370385,-0.180555566,0,0,0,,0,113,113,133,1,
,,,,,,,,,,,,,,,,,,5f2dcc2ab5f3f20f53df3a4d,2020-08-10_13h22.53.149,lexical_decision_task_MP,2020.1.3,Win32,60,z,1,1.13162,,,,,,,,1.13162,1,,,,,,374,NW,UN,50,yorque,SLIANT,z,,,,,,0.120370385,-0.180555566,0,0,0,,0,114,114,433,1,
,,,,,,,,,,,,,,,,,,5f2dcc2ab5f3f20f53df3a4d,2020-08-10_13h22.53.149,lexical_decision_task_MP,2020.1.3,Win32,60,m,1,0.59743,,,,,,,,0.59743,1,,,,,,93,WORD,UN,33,travel,PUBLIC,m,,,,,,0.120370385,-0.180555566,0,0,0,,0,115,115,152,1,
,,,,,,,,,,,,,,,,,,5f2dcc2ab5f3f20f53df3a4d,2020-08-10_13h22.53.149,lexical_decision_task_MP,2020.1.3,Win32,60,m,1,0.75713,,,,,,,,0.75713,1,,,,,,82,WORD,UN,33,result,STIGMA,m,,,,,,0.120370385,-0.180555566,0,0,0,,0,116,116,141,1,
,,,,,,,,,,,,,,,,,,5f2dcc2ab5f3f20f53df3a4d,2020-08-10_13h22.53.149,lexical_decision_task_MP,2020.1.3,Win32,60,z,1,0.86981,,,,,,,,0.86981,1,,,,,,407,NW,UN,50,hurnia,SUIVER,z,,,,,,0.120370385,-0.180555566,0,0,0,,0,117,117,466,1,
,,,,,,,,,,,,,,,,,,5f2dcc2ab5f3f20f53df3a4d,2020-08-10_13h22.53.149,lexical_decision_task_MP,2020.1.3,Win32,60,m,1,0.864105,,,,,,,,0.864105,1,,,,,,150,WORD,UN,50,mystic,RANDOM,m,,,,,,0.120370385,-0.180555566,0,0,0,,0,118,118,209,1,
,,,,,,,,,,,,,,,,,,5f2dcc2ab5f3f20f53df3a4d,2020-08-10_13h22.53.149,lexical_decision_task_MP,2020.1.3,Win32,60,m,1,0.720555,,,,,,,,0.720555,1,,,,,,207,WORD,"ID",33,wreath,WREATH,m,,,,,,0.120370385,-0.180555566,0,0,0,,0,119,119,26,1,
,,,,,,,,,,,,,,,,,,5f2dcc2ab5f3f20f53df3a4d,2020-08-10_13h22.53.149,lexical_decision_task_MP,2020.1.3,Win32,60,m,0,1.13109,,,,,,,,1.13109,0,,,,,,303,NW,UN,33,cludie,FIREAM,z,,,,,,0.120370385,-0.180555566,0,0,0,space,0,120,120,362,1,22.68896
,,,,,,,,,,,,,,,,,,5f2dcc2ab5f3f20f53df3a4d,2020-08-10_13h22.53.149,lexical_decision_task_MP,2020.1.3,Win32,60,z,1,0.631845,,,,,,,,0.631845,1,,,,,,366,NW,UN,50,slique,TOSHEL,z,,,,,,0.120370385,-0.180555566,0,0,0,,0,121,121,425,1,
,,,,,,,,,,,,,,,,,,5f2dcc2ab5f3f20f53df3a4d,2020-08-10_13h22.53.149,lexical_decision_task_MP,2020.1.3,Win32,60,z,1,0.66973,,,,,,,,0.66973,1,,,,,,376,NW,UN,50,veigma,IGUARE,z,,,,,,0.120370385,-0.180555566,0,0,0,,0,122,122,435,1,
,,,,,,,,,,,,,,,,,,5f2dcc2ab5f3f20f53df3a4d,2020-08-10_13h22.53.149,lexical_decision_task_MP,2020.1.3,Win32,60,z,1,0.751515,,,,,,,,0.751515,1,,,,,,445,NW,"ID",33,minkel,MINKEL,z,,,,,,0.120370385,-0.180555566,0,0,0,,0,123,123,264,1,
,,,,,,,,,,,,,,,,,,5f2dcc2ab5f3f20f53df3a4d,2020-08-10_13h22.53.149,lexical_decision_task_MP,2020.1.3,Win32,60,m,1,0.59807,,,,,,,,0.59807,1,,,,,,199,WORD,"ID",33,invoke,INVOKE,m,,,,,,0.120370385,-0.180555566,0,0,0,,0,124,124,18,1,
,,,,,,,,,,,,,,,,,,5f2dcc2ab5f3f20f53df3a4d,2020-08-10_13h22.53.149,lexical_decision_task_MP,2020.1.3,Win32,60,z,1,0.61903,,,,,,,,0.61903,1,,,,,,323,NW,UN,33,steikh,ROSAIL,z,,,,,,0.120370385,-0.180555566,0,0,0,,0,125,125,382,1,
,,,,,,,,,,,,,,,,,,5f2dcc2ab5f3f20f53df3a4d,2020-08-10_13h22.53.149,lexical_decision_task_MP,2020.1.3,Win32,60,z,1,0.934145,,,,,,,,0.934145,1,,,,,,433,NW,"ID",33,drance,DRANCE,z,,,,,,0.120370385,-0.180555566,0,0,0,,0,126,126,252,1,
,,,,,,,,,,,,,,,,,,5f2dcc2ab5f3f20f53df3a4d,2020-08-10_13h22.53.149,lexical_decision_task_MP,2020.1.3,Win32,60,m,1,1.075055,,,,,,,,1.075055,1,,,,,,110,WORD,UN,33,induce,POLITE,m,,,,,,0.120370385,-0.180555566,0,0,0,,0,127,127,169,1,
,,,,,,,,,,,,,,,,,,5f2dcc2ab5f3f20f53df3a4d,2020-08-10_13h22.53.149,lexical_decision_task_MP,2020.1.3,Win32,60,m,1,0.61624,,,,,,,,0.61624,1,,,,,,29,WORD,"ID",50,sketch,SKETCH,m,,,,,,0.120370385,-0.180555566,0,0,0,,0,128,128,88,1,
,,,,,,,,,,,,,,,,,,5f2dcc2ab5f3f20f53df3a4d,2020-08-10_13h22.53.149,lexical_decision_task_MP,2020.1.3,Win32,60,z,1,0.6171,,,,,,,,0.6171,1,,,,,,382,NW,UN,50,aungre,SARLEY,z,,,,,,0.120370385,-0.180555566,0,0,0,,0,129,129,441,1,
,,,,,,,,,,,,,,,,,,5f2dcc2ab5f3f20f53df3a4d,2020-08-10_13h22.53.149,lexical_decision_task_MP,2020.1.3,Win32,60,z,1,0.768175,,,,,,,,0.768175,1,,,,,,348,NW,UN,33,asylen,DUMPLE,z,,,,,,0.120370385,-0.180555566,0,0,0,,0,130,130,407,1,
,,,,,,,,,,,,,,,,,,5f2dcc2ab5f3f20f53df3a4d,2020-08-10_13h22.53.149,lexical_decision_task_MP,2020.1.3,Win32,60,m,1,0.64802,,,,,,,,0.64802,1,,,,,,218,WORD,"ID",33,shrink,SHRINK,m,,,,,,0.120370385,-0.180555566,0,0,0,,0,131,131,37,1,
,,,,,,,,,,,,,,,,,,5f2dcc2ab5f3f20f53df3a4d,2020-08-10_13h22.53.149,lexical_decision_task_MP,2020.1.3,Win32,60,m,1,0.503725,,,,,,,,0.503725,1,,,,,,25,WORD,"ID",50,domain,DOMAIN,m,,,,,,0.120370385,-0.180555566,0,0,0,,0,132,132,84,1,
,,,,,,,,,,,,,,,,,,5f2dcc2ab5f3f20f53df3a4d,2020-08-10_13h22.53.149,lexical_decision_task_MP,2020.1.3,Win32,60,z,1,0.71466,,,,,,,,0.71466,1,,,,,,274,NW,"ID",50,fumblo,FUMBLO,z,,,,,,0.120370385,-0.180555566,0,0,0,,0,133,133,333,1,
,,,,,,,,,,,,,,,,,,5f2dcc2ab5f3f20f53df3a4d,2020-08-10_13h22.53.149,lexical_decision_task_MP,2020.1.3,Win32,60,z,1,0.631815,,,,,,,,0.631815,1,,,,,,443,NW,"ID",33,dorsex,DORSEX,z,,,,,,0.120370385,-0.180555566,0,0,0,,0,134,134,262,1,
,,,,,,,,,,,,,,,,,,5f2dcc2ab5f3f20f53df3a4d,2020-08-10_13h22.53.149,lexical_decision_task_MP,2020.1.3,Win32,60,m,1,0.55862,,,,,,,,0.55862,1,,,,,,1,WORD,"ID",50,fright,FRIGHT,m,,,,,,0.120370385,-0.180555566,0,0,0,,0,135,135,60,1,
,,,,,,,,,,,,,,,,,,5f2dcc2ab5f3f20f53df3a4d,2020-08-10_13h22.53.149,lexical_decision_task_MP,2020.1.3,Win32,60,z,1,0.575435,,,,,,,,0.575435,1,,,,,,283,NW,"ID",50,veralf,VERALF,z,,,,,,0.120370385,-0.180555566,0,0,0,,0,136,136,342,1,
,,,,,,,,,,,,,,,,,,5f2dcc2ab5f3f20f53df3a4d,2020-08-10_13h22.53.149,lexical_decision_task_MP,2020.1.3,Win32,60,m,1,0.68801,,,,,,,,0.68801,1,,,,,,98,WORD,UN,33,fluent,BELONG,m,,,,,,0.120370385,-0.180555566,0,0,0,,0,137,137,157,1,
,,,,,,,,,,,,,,,,,,5f2dcc2ab5f3f20f53df3a4d,2020-08-10_13h22.53.149,lexical_decision_task_MP,2020.1.3,Win32,60,z,1,0.59783,,,,,,,,0.59783,1,,,,,,245,NW,"ID",50,anougs,ANOUGS,z,,,,,,0.120370385,-0.180555566,0,0,0,,0,138,138,304,1,
,,,,,,,,,,,,,,,,,,5f2dcc2ab5f3f20f53df3a4d,2020-08-10_13h22.53.149,lexical_decision_task_MP,2020.1.3,Win32,60,m,1,0.59801,,,,,,,,0.59801,1,,,,,,94,WORD,UN,33,thread,TRAVEL,m,,,,,,0.120370385,-0.180555566,0,0,0,,0,139,139,153,1,
,,,,,,,,,,,,,,,,,,5f2dcc2ab5f3f20f53df3a4d,2020-08-10_13h22.53.149,lexical_decision_task_MP,2020.1.3,Win32,60,z,1,0.548955,,,,,,,,0.548955,1,,,,,,327,NW,UN,33,broake,PLENAC,z,,,,,,0.120370385,-0.180555566,0,0,0,,0,140,140,386,1,
,,,,,,,,,,,,,,,,,,5f2dcc2ab5f3f20f53df3a4d,2020-08-10_13h22.53.149,lexical_decision_task_MP,2020.1.3,Win32,60,m,1,0.72959,,,,,,,,0.72959,1,,,,,,183,WORD,"ID",33,mildew,MILDEW,m,,,,,,0.120370385,-0.180555566,0,0,0,,0,141,141,2,1,
,,,,,,,,,,,,,,,,,,5f2dcc2ab5f3f20f53df3a4d,2020-08-10_13h22.53.149,lexical_decision_task_MP,2020.1.3,Win32,60,m,1,0.539685,,,,,,,,0.539685,1,,,,,,54,WORD,"ID",50,ramble,RAMBLE,m,,,,,,0.120370385,-0.180555566,0,0,0,,0,142,142,113,1,
,,,,,,,,,,,,,,,,,,5f2dcc2ab5f3f20f53df3a4d,2020-08-10_13h22.53.149,lexical_decision_task_MP,2020.1.3,Win32,60,z,1,0.938385,,,,,,,,0.938385,1,,,,,,314,NW,UN,33,laston,SPRINE,z,,,,,,0.120370385,-0.180555566,0,0,0,,0,143,143,373,1,
,,,,,,,,,,,,,,,,,,5f2dcc2ab5f3f20f53df3a4d,2020-08-10_13h22.53.149,lexical_decision_task_MP,2020.1.3,Win32,60,z,1,0.916575,,,,,,,,0.916575,1,,,,,,261,NW,"ID",50,stunch,STUNCH,z,,,,,,0.120370385,-0.180555566,0,0,0,,0,144,144,320,1,
,,,,,,,,,,,,,,,,,,5f2dcc2ab5f3f20f53df3a4d,2020-08-10_13h22.53.149,lexical_decision_task_MP,2020.1.3,Win32,60,m,1,0.64744,,,,,,,,0.64744,1,,,,,,79,WORD,UN,33,family,THEORY,m,,,,,,0.120370385,-0.180555566,0,0,0,,0,145,145,138,1,
,,,,,,,,,,,,,,,,,,5f2dcc2ab5f3f20f53df3a4d,2020-08-10_13h22.53.149,lexical_decision_task_MP,2020.1.3,Win32,60,z,1,0.826135,,,,,,,,0.826135,1,,,,,,312,NW,UN,33,paurse,NERAWL,z,,,,,,0.120370385,-0.180555566,0,0,0,,0,146,146,371,1,
,,,,,,,,,,,,,,,,,,5f2dcc2ab5f3f20f53df3a4d,2020-08-10_13h22.53.149,lexical_decision_task_MP,2020.1.3,Win32,60,z,1,0.887025,,,,,,,,0.887025,1,,,,,,458,NW,"ID",33,barcet,BARCET,z,,,,,,0.120370385,-0.180555566,0,0,0,,0,147,147,277,1,
,,,,,,,,,,,,,,,,,,5f2dcc2ab5f3f20f53df3a4d,2020-08-10_13h22.53.149,lexical_decision_task_MP,2020.1.3,Win32,60,z,1,0.60747,,,,,,,,0.60747,1,,,,,,337,NW,UN,33,wreash,REJOLS,z,,,,,,0.120370385,-0.180555566,0,0,0,,0,148,148,396,1,
,,,,,,,,,,,,,,,,,,5f2dcc2ab5f3f20f53df3a4d,2020-08-10_13h22.53.149,lexical_decision_task_MP,2020.1.3,Win32,60,m,1,0.63211,,,,,,,,0.63211,1,,,,,,81,WORD,UN,33,stigma,FRIEND,m,,,,,,0.120370385,-0.180555566,0,0,0,,0,149,149,140,1,
,,,,,,,,,,,,,,,,,,5f2dcc2ab5f3f20f53df3a4d,2020-08-10_13h22.53.149,lexical_decision_task_MP,2020.1.3,Win32,60,z,1,0.70217,,,,,,,,0.70217,1,,,,,,265,NW,"ID",50,distar,DISTAR,z,,,,,,0.120370385,-0.180555566,0,0,0,,0,150,150,324,1,
,,,,,,,,,,,,,,,,,,5f2dcc2ab5f3f20f53df3a4d,2020-08-10_13h22.53.149,lexical_decision_task_MP,2020.1.3,Win32,60,z,1,0.82028,,,,,,,,0.82028,1,,,,,,361,NW,UN,50,tireau,PAUCHE,z,,,,,,0.120370385,-0.180555566,0,0,0,,0,151,151,420,1,
,,,,,,,,,,,,,,,,,,5f2dcc2ab5f3f20f53df3a4d,2020-08-10_13h22.53.149,lexical_decision_task_MP,2020.1.3,Win32,60,z,1,0.738775,,,,,,,,0.738775,1,,,,,,377,NW,UN,50,shrile,INJORE,z,,,,,,0.120370385,-0.180555566,0,0,0,,0,152,152,436,1,
,,,,,,,,,,,,,,,,,,5f2dcc2ab5f3f20f53df3a4d,2020-08-10_13h22.53.149,lexical_decision_task_MP,2020.1.3,Win32,60,m,1,0.614635,,,,,,,,0.614635,1,,,,,,224,WORD,"ID",33,period,PERIOD,m,,,,,,0.120370385,-0.180555566,0,0,0,,0,153,153,43,1,
,,,,,,,,,,,,,,,,,,5f2dcc2ab5f3f20f53df3a4d,2020-08-10_13h22.53.149,lexical_decision_task_MP,2020.1.3,Win32,60,z,1,0.787925,,,,,,,,0.787925,1,,,,,,255,NW,"ID",50,apight,APIGHT,z,,,,,,0.120370385,-0.180555566,0,0,0,,0,154,154,314,1,
,,,,,,,,,,,,,,,,,,5f2dcc2ab5f3f20f53df3a4d,2020-08-10_13h22.53.149,lexical_decision_task_MP,2020.1.3,Win32,60,z,1,0.653375,,,,,,,,0.653375,1,,,,,,401,NW,UN,50,syntic,MUSTIL,z,,,,,,0.120370385,-0.180555566,0,0,0,,0,155,155,460,1,
,,,,,,,,,,,,,,,,,,5f2dcc2ab5f3f20f53df3a4d,2020-08-10_13h22.53.149,lexical_decision_task_MP,2020.1.3,Win32,60,m,1,0.6139,,,,,,,,0.6139,1,,,,,,88,WORD,UN,33,permit,HUNGER,m,,,,,,0.120370385,-0.180555566,0,0,0,,0,156,156,147,1,
,,,,,,,,,,,,,,,,,,5f2dcc2ab5f3f20f53df3a4d,2020-08-10_13h22.53.149,lexical_decision_task_MP,2020.1.3,Win32,60,z,1,0.57302,,,,,,,,0.57302,1,,,,,,413,NW,UN,50,serbol,EQUATS,z,,,,,,0.120370385,-0.180555566,0,0,0,,0,157,157,472,1,
,,,,,,,,,,,,,,,,,,5f2dcc2ab5f3f20f53df3a4d,2020-08-10_13h22.53.149,lexical_decision_task_MP,2020.1.3,Win32,60,z,1,0.614695,,,,,,,,0.614695,1,,,,,,300,NW,"ID",50,yarion,YARION,z,,,,,,0.120370385,-0.180555566,0,0,0,,0,158,158,359,1,
,,,,,,,,,,,,,,,,,,5f2dcc2ab5f3f20f53df3a4d,2020-08-10_13h22.53.149,lexical_decision_task_MP,2020.1.3,Win32,60,z,1,0.5802,,,,,,,,0.5802,1,,,,,,286,NW,"ID",50,reldon,RELDON,z,,,,,,0.120370385,-0.180555566,0,0,0,,0,159,159,345,1,
,,,,,,,,,,,,,,,,,,5f2dcc2ab5f3f20f53df3a4d,2020-08-10_13h22.53.149,lexical_decision_task_MP,2020.1.3,Win32,60,z,1,0.7018,,,,,,,,0.7018,1,,,,,,460,NW,"ID",33,mingar,MINGAR,z,,,,,,0.120370385,-0.180555566,0,0,0,,0,160,160,279,1,
,,,,,,,,,,,,,,,,,,5f2dcc2ab5f3f20f53df3a4d,2020-08-10_13h22.53.149,lexical_decision_task_MP,2020.1.3,Win32,60,m,1,0.543485,,,,,,,,0.543485,1,,,,,,60,WORD,"ID",50,pencil,PENCIL,m,,,,,,0.120370385,-0.180555566,0,0,0,,0,161,161,119,1,
,,,,,,,,,,,,,,,,,,5f2dcc2ab5f3f20f53df3a4d,2020-08-10_13h22.53.149,lexical_decision_task_MP,2020.1.3,Win32,60,m,1,0.681765,,,,,,,,0.681765,1,,,,,,225,WORD,"ID",33,vulgar,VULGAR,m,,,,,,0.120370385,-0.180555566,0,0,0,,0,162,162,44,1,
,,,,,,,,,,,,,,,,,,5f2dcc2ab5f3f20f53df3a4d,2020-08-10_13h22.53.149,lexical_decision_task_MP,2020.1.3,Win32,60,m,1,0.747005,,,,,,,,0.747005,1,,,,,,121,WORD,UN,50,linger,THRIVE,m,,,,,,0.120370385,-0.180555566,0,0,0,,0,163,163,180,1,
,,,,,,,,,,,,,,,,,,5f2dcc2ab5f3f20f53df3a4d,2020-08-10_13h22.53.149,lexical_decision_task_MP,2020.1.3,Win32,60,z,1,0.64834,,,,,,,,0.64834,1,,,,,,264,NW,"ID",50,vackel,VACKEL,z,,,,,,0.120370385,-0.180555566,0,0,0,,0,164,164,323,1,
,,,,,,,,,,,,,,,,,,5f2dcc2ab5f3f20f53df3a4d,2020-08-10_13h22.53.149,lexical_decision_task_MP,2020.1.3,Win32,60,z,1,0.864945,,,,,,,,0.864945,1,,,,,,475,NW,"ID",33,pebric,PEBRIC,z,,,,,,0.120370385,-0.180555566,0,0,0,,0,165,165,294,1,
,,,,,,,,,,,,,,,,,,5f2dcc2ab5f3f20f53df3a4d,2020-08-10_13h22.53.149,lexical_decision_task_MP,2020.1.3,Win32,60,m,1,0.569555,,,,,,,,0.569555,1,,,,,,228,WORD,"ID",33,master,MASTER,m,,,,,,0.120370385,-0.180555566,0,0,0,,0,166,166,47,1,
,,,,,,,,,,,,,,,,,,5f2dcc2ab5f3f20f53df3a4d,2020-08-10_13h22.53.149,lexical_decision_task_MP,2020.1.3,Win32,60,z,1,0.54814,,,,,,,,0.54814,1,,,,,,334,NW,UN,33,desion,WATMEG,z,,,,,,0.120370385,-0.180555566,0,0,0,,0,167,167,393,1,
,,,,,,,,,,,,,,,,,,5f2dcc2ab5f3f20f53df3a4d,2020-08-10_13h22.53.149,lexical_decision_task_MP,2020.1.3,Win32,60,m,1,0.519635,,,,,,,,0.519635,1,,,,,,200,WORD,"ID",33,beacon,BEACON,m,,,,,,0.120370385,-0.180555566,0,0,0,,0,168,168,19,1,
,,,,,,,,,,,,,,,,,,5f2dcc2ab5f3f20f53df3a4d,2020-08-10_13h22.53.149,lexical_decision_task_MP,2020.1.3,Win32,60,z,1,0.56504,,,,,,,,0.56504,1,,,,,,306,NW,UN,33,kirafe,SOUNGE,z,,,,,,0.120370385,-0.180555566,0,0,0,,0,169,169,365,1,
,,,,,,,,,,,,,,,,,,5f2dcc2ab5f3f20f53df3a4d,2020-08-10_13h22.53.149,lexical_decision_task_MP,2020.1.3,Win32,60,m,1,0.524075,,,,,,,,0.524075,1,,,,,,217,WORD,"ID",33,liquor,LIQUOR,m,,,,,,0.120370385,-0.180555566,0,0,0,,0,170,170,36,1,
,,,,,,,,,,,,,,,,,,5f2dcc2ab5f3f20f53df3a4d,2020-08-10_13h22.53.149,lexical_decision_task_MP,2020.1.3,Win32,60,z,1,0.56377,,,,,,,,0.56377,1,,,,,,403,NW,UN,50,cluirm,BRUATS,z,,,,,,0.120370385,-0.180555566,0,0,0,,0,171,171,462,1,
,,,,,,,,,,,,,,,,,,5f2dcc2ab5f3f20f53df3a4d,2020-08-10_13h22.53.149,lexical_decision_task_MP,2020.1.3,Win32,60,m,1,0.66615,,,,,,,,0.66615,1,,,,,,134,WORD,UN,50,import,STAPLE,m,,,,,,0.120370385,-0.180555566,0,0,0,,0,172,172,193,1,
,,,,,,,,,,,,,,,,,,5f2dcc2ab5f3f20f53df3a4d,2020-08-10_13h22.53.149,lexical_decision_task_MP,2020.1.3,Win32,60,z,1,0.58502,,,,,,,,0.58502,1,,,,,,270,NW,"ID",50,wrimsy,WRIMSY,z,,,,,,0.120370385,-0.180555566,0,0,0,,0,173,173,329,1,
,,,,,,,,,,,,,,,,,,5f2dcc2ab5f3f20f53df3a4d,2020-08-10_13h22.53.149,lexical_decision_task_MP,2020.1.3,Win32,60,z,1,0.5686,,,,,,,,0.5686,1,,,,,,396,NW,UN,50,camble,FLENGY,z,,,,,,0.120370385,-0.180555566,0,0,0,,0,174,174,455,1,
,,,,,,,,,,,,,,,,,,5f2dcc2ab5f3f20f53df3a4d,2020-08-10_13h22.53.149,lexical_decision_task_MP,2020.1.3,Win32,60,z,1,0.63821,,,,,,,,0.63821,1,,,,,,378,NW,UN,50,auting,SHRILE,z,,,,,,0.120370385,-0.180555566,0,0,0,,0,175,175,437,1,
,,,,,,,,,,,,,,,,,,5f2dcc2ab5f3f20f53df3a4d,2020-08-10_13h22.53.149,lexical_decision_task_MP,2020.1.3,Win32,60,m,1,0.584665,,,,,,,,0.584665,1,,,,,,61,WORD,UN,33,region,PONDER,m,,,,,,0.120370385,-0.180555566,0,0,0,,0,176,176,120,1,
,,,,,,,,,,,,,,,,,,5f2dcc2ab5f3f20f53df3a4d,2020-08-10_13h22.53.149,lexical_decision_task_MP,2020.1.3,Win32,60,z,1,0.673905,,,,,,,,0.673905,1,,,,,,419,NW,UN,50,gushop,SLOUNT,z,,,,,,0.120370385,-0.180555566,0,0,0,,0,177,177,478,1,
,,,,,,,,,,,,,,,,,,5f2dcc2ab5f3f20f53df3a4d,2020-08-10_13h22.53.149,lexical_decision_task_MP,2020.1.3,Win32,60,m,1,0.67527,,,,,,,,0.67527,1,,,,,,184,WORD,"ID",33,sleazy,SLEAZY,m,,,,,,0.120370385,-0.180555566,0,0,0,,0,178,178,3,1,
,,,,,,,,,,,,,,,,,,5f2dcc2ab5f3f20f53df3a4d,2020-08-10_13h22.53.149,lexical_decision_task_MP,2020.1.3,Win32,60,z,1,0.5153,,,,,,,,0.5153,1,,,,,,469,NW,"ID",33,padifs,PADIFS,z,,,,,,0.120370385,-0.180555566,0,0,0,,0,179,179,288,1,
,,,,,,,,,,,,,,,,,,5f2dcc2ab5f3f20f53df3a4d,2020-08-10_13h22.53.149,lexical_decision_task_MP,2020.1.3,Win32,60,z,0,0.54774,,,,,,,,0.54774,0,,,,,,175,WORD,UN,50,strife,FABRIC,m,,,,,,0.120370385,-0.180555566,0,0,0,,0,180,180,234,1,
,,,,,,,,,,,,,,,,,,5f2dcc2ab5f3f20f53df3a4d,2020-08-10_13h22.53.149,lexical_decision_task_MP,2020.1.3,Win32,60,z,1,0.646365,,,,,,,,0.646365,1,,,,,,262,NW,"ID",50,quilew,QUILEW,z,,,,,,0.120370385,-0.180555566,0,0,0,,0,181,181,321,1,
,,,,,,,,,,,,,,,,,,5f2dcc2ab5f3f20f53df3a4d,2020-08-10_13h22.53.149,lexical_decision_task_MP,2020.1.3,Win32,60,m,1,0.66771,,,,,,,,0.66771,1,,,,,,92,WORD,UN,33,public,STRAND,m,,,,,,0.120370385,-0.180555566,0,0,0,,0,182,182,151,1,
,,,,,,,,,,,,,,,,,,5f2dcc2ab5f3f20f53df3a4d,2020-08-10_13h22.53.149,lexical_decision_task_MP,2020.1.3,Win32,60,z,1,0.56678,,,,,,,,0.56678,1,,,,,,431,NW,"ID",33,chrums,CHRUMS,z,,,,,,0.120370385,-0.180555566,0,0,0,,0,183,183,250,1,
,,,,,,,,,,,,,,,,,,5f2dcc2ab5f3f20f53df3a4d,2020-08-10_13h22.53.149,lexical_decision_task_MP,2020.1.3,Win32,60,m,1,0.61889,,,,,,,,0.61889,1,,,,,,189,WORD,"ID",33,censor,CENSOR,m,,,,,,0.120370385,-0.180555566,0,0,0,,0,184,184,8,1,
,,,,,,,,,,,,,,,,,,5f2dcc2ab5f3f20f53df3a4d,2020-08-10_13h22.53.149,lexical_decision_task_MP,2020.1.3,Win32,60,z,1,0.6313,,,,,,,,0.6313,1,,,,,,275,NW,"ID",50,sleirt,SLEIRT,z,,,,,,0.120370385,-0.180555566,0,0,0,,0,185,185,334,1,
,,,,,,,,,,,,,,,,,,5f2dcc2ab5f3f20f53df3a4d,2020-08-10_13h22.53.149,lexical_decision_task_MP,2020.1.3,Win32,60,z,1,0.9339,,,,,,,,0.9339,1,,,,,,292,NW,"ID",50,ablint,ABLINT,z,,,,,,0.120370385,-0.180555566,0,0,0,,0,186,186,351,1,
,,,,,,,,,,,,,,,,,,5f2dcc2ab5f3f20f53df3a4d,2020-08-10_13h22.53.149,lexical_decision_task_MP,2020.1.3,Win32,60,z,1,0.63262,,,,,,,,0.63262,1,,,,,,295,NW,"ID",50,gleath,GLEATH,z,,,,,,0.120370385,-0.180555566,0,0,0,,0,187,187,354,1,
,,,,,,,,,,,,,,,,,,5f2dcc2ab5f3f20f53df3a4d,2020-08-10_13h22.53.149,lexical_decision_task_MP,2020.1.3,Win32,60,z,1,0.4642,,,,,,,,0.4642,1,,,,,,463,NW,"ID",33,kispel,KISPEL,z,,,,,,0.120370385,-0.180555566,0,0,0,,0,188,188,282,1,
,,,,,,,,,,,,,,,,,,5f2dcc2ab5f3f20f53df3a4d,2020-08-10_13h22.53.149,lexical_decision_task_MP,2020.1.3,Win32,60,z,1,0.53077,,,,,,,,0.53077,1,,,,,,399,NW,UN,50,wearox,FOURET,z,,,,,,0.120370385,-0.180555566,0,0,0,,0,189,189,458,1,
,,,,,,,,,,,,,,,,,,5f2dcc2ab5f3f20f53df3a4d,2020-08-10_13h22.53.149,lexical_decision_task_MP,2020.1.3,Win32,60,m,1,0.4982,,,,,,,,0.4982,1,,,,,,198,WORD,"ID",33,wicked,WICKED,m,,,,,,0.120370385,-0.180555566,0,0,0,,0,190,190,17,1,
,,,,,,,,,,,,,,,,,,5f2dcc2ab5f3f20f53df3a4d,2020-08-10_13h22.53.149,lexical_decision_task_MP,2020.1.3,Win32,60,z,1,0.59345,,,,,,,,0.59345,1,,,,,,258,NW,"ID",50,poluth,POLUTH,z,,,,,,0.120370385,-0.180555566,0,0,0,,0,191,191,317,1,
,,,,,,,,,,,,,,,,,,5f2dcc2ab5f3f20f53df3a4d,2020-08-10_13h22.53.149,lexical_decision_task_MP,2020.1.3,Win32,60,m,1,0.55177,,,,,,,,0.55177,1,,,,,,162,WORD,UN,50,string,CANDLE,m,,,,,,0.120370385,-0.180555566,0,0,0,,0,192,192,221,1,
,,,,,,,,,,,,,,,,,,5f2dcc2ab5f3f20f53df3a4d,2020-08-10_13h22.53.149,lexical_decision_task_MP,2020.1.3,Win32,60,z,1,0.655175,,,,,,,,0.655175,1,,,,,,424,NW,"ID",33,praile,PRAILE,z,,,,,,0.120370385,-0.180555566,0,0,0,,0,193,193,243,1,
,,,,,,,,,,,,,,,,,,5f2dcc2ab5f3f20f53df3a4d,2020-08-10_13h22.53.149,lexical_decision_task_MP,2020.1.3,Win32,60,z,1,0.64244,,,,,,,,0.64244,1,,,,,,429,NW,"ID",33,funtle,FUNTLE,z,,,,,,0.120370385,-0.180555566,0,0,0,,0,194,194,248,1,
,,,,,,,,,,,,,,,,,,5f2dcc2ab5f3f20f53df3a4d,2020-08-10_13h22.53.149,lexical_decision_task_MP,2020.1.3,Win32,60,m,1,0.513985,,,,,,,,0.513985,1,,,,,,9,WORD,"ID",50,hustle,HUSTLE,m,,,,,,0.120370385,-0.180555566,0,0,0,,0,195,195,68,1,
,,,,,,,,,,,,,,,,,,5f2dcc2ab5f3f20f53df3a4d,2020-08-10_13h22.53.149,lexical_decision_task_MP,2020.1.3,Win32,60,z,1,0.54818,,,,,,,,0.54818,1,,,,,,480,NW,"ID",33,robuly,ROBULY,z,,,,,,0.120370385,-0.180555566,0,0,0,,0,196,196,299,1,
,,,,,,,,,,,,,,,,,,5f2dcc2ab5f3f20f53df3a4d,2020-08-10_13h22.53.149,lexical_decision_task_MP,2020.1.3,Win32,60,m,1,0.54813,,,,,,,,0.54813,1,,,,,,96,WORD,UN,33,client,IGNORE,m,,,,,,0.120370385,-0.180555566,0,0,0,,0,197,197,155,1,
,,,,,,,,,,,,,,,,,,5f2dcc2ab5f3f20f53df3a4d,2020-08-10_13h22.53.149,lexical_decision_task_MP,2020.1.3,Win32,60,z,1,0.770715,,,,,,,,0.770715,1,,,,,,293,NW,"ID",50,swance,SWANCE,z,,,,,,0.120370385,-0.180555566,0,0,0,,0,198,198,352,1,
,,,,,,,,,,,,,,,,,,5f2dcc2ab5f3f20f53df3a4d,2020-08-10_13h22.53.149,lexical_decision_task_MP,2020.1.3,Win32,60,m,1,0.764475,,,,,,,,0.764475,1,,,,,,84,WORD,UN,33,strand,MORTAL,m,,,,,,0.120370385,-0.180555566,0,0,0,,0,199,199,143,1,
,,,,,,,,,,,,,,,,,,5f2dcc2ab5f3f20f53df3a4d,2020-08-10_13h22.53.149,lexical_decision_task_MP,2020.1.3,Win32,60,m,1,0.62181,,,,,,,,0.62181,1,,,,,,201,WORD,"ID",33,admire,ADMIRE,m,,,,,,0.120370385,-0.180555566,0,0,0,,0,200,200,20,1,
,,,,,,,,,,,,,,,,,,5f2dcc2ab5f3f20f53df3a4d,2020-08-10_13h22.53.149,lexical_decision_task_MP,2020.1.3,Win32,60,z,1,0.642585,,,,,,,,0.642585,1,,,,,,287,NW,"ID",50,nymbel,NYMBEL,z,,,,,,0.120370385,-0.180555566,0,0,0,,0,201,201,346,1,
,,,,,,,,,,,,,,,,,,5f2dcc2ab5f3f20f53df3a4d,2020-08-10_13h22.53.149,lexical_decision_task_MP,2020.1.3,Win32,60,z,1,0.668065,,,,,,,,0.668065,1,,,,,,368,NW,UN,50,wronch,HORNAL,z,,,,,,0.120370385,-0.180555566,0,0,0,,0,202,202,427,1,
,,,,,,,,,,,,,,,,,,5f2dcc2ab5f3f20f53df3a4d,2020-08-10_13h22.53.149,lexical_decision_task_MP,2020.1.3,Win32,60,m,1,0.62165,,,,,,,,0.62165,1,,,,,,170,WORD,UN,50,dragon,POUNCE,m,,,,,,0.120370385,-0.180555566,0,0,0,,0,203,203,229,1,
,,,,,,,,,,,,,,,,,,5f2dcc2ab5f3f20f53df3a4d,2020-08-10_13h22.53.149,lexical_decision_task_MP,2020.1.3,Win32,60,z,1,0.47401,,,,,,,,0.47401,1,,,,,,468,NW,"ID",33,wictor,WICTOR,z,,,,,,0.120370385,-0.180555566,0,0,0,,0,204,204,287,1,
,,,,,,,,,,,,,,,,,,5f2dcc2ab5f3f20f53df3a4d,2020-08-10_13h22.53.149,lexical_decision_task_MP,2020.1.3,Win32,60,z,1,0.71663,,,,,,,,0.71663,1,,,,,,250,NW,"ID",50,milted,MILTED,z,,,,,,0.120370385,-0.180555566,0,0,0,,0,205,205,309,1,
,,,,,,,,,,,,,,,,,,5f2dcc2ab5f3f20f53df3a4d,2020-08-10_13h22.53.149,lexical_decision_task_MP,2020.1.3,Win32,60,m,1,0.55214,,,,,,,,0.55214,1,,,,,,140,WORD,UN,50,chrome,PRINCE,m,,,,,,0.120370385,-0.180555566,0,0,0,,0,206,206,199,1,
,,,,,,,,,,,,,,,,,,5f2dcc2ab5f3f20f53df3a4d,2020-08-10_13h22.53.149,lexical_decision_task_MP,2020.1.3,Win32,60,z,1,0.4527,,,,,,,,0.4527,1,,,,,,465,NW,"ID",33,whivex,WHIVEX,z,,,,,,0.120370385,-0.180555566,0,0,0,,0,207,207,284,1,
,,,,,,,,,,,,,,,,,,5f2dcc2ab5f3f20f53df3a4d,2020-08-10_13h22.53.149,lexical_decision_task_MP,2020.1.3,Win32,60,m,1,0.49785,,,,,,,,0.49785,1,,,,,,190,WORD,"ID",33,backup,BACKUP,m,,,,,,0.120370385,-0.180555566,0,0,0,,0,208,208,9,1,
,,,,,,,,,,,,,,,,,,5f2dcc2ab5f3f20f53df3a4d,2020-08-10_13h22.53.149,lexical_decision_task_MP,2020.1.3,Win32,60,m,1,0.55763,,,,,,,,0.55763,1,,,,,,16,WORD,"ID",50,faucet,FAUCET,m,,,,,,0.120370385,-0.180555566,0,0,0,,0,209,209,75,1,
,,,,,,,,,,,,,,,,,,5f2dcc2ab5f3f20f53df3a4d,2020-08-10_13h22.53.149,lexical_decision_task_MP,2020.1.3,Win32,60,z,1,0.511115,,,,,,,,0.511115,1,,,,,,426,NW,"ID",33,urivel,URIVEL,z,,,,,,0.120370385,-0.180555566,0,0,0,,0,210,210,245,1,
,,,,,,,,,,,,,,,,,,5f2dcc2ab5f3f20f53df3a4d,2020-08-10_13h22.53.149,lexical_decision_task_MP,2020.1.3,Win32,60,z,1,0.54807,,,,,,,,0.54807,1,,,,,,421,NW,"ID",33,knisma,KNISMA,z,,,,,,0.120370385,-0.180555566,0,0,0,,0,211,211,240,1,
,,,,,,,,,,,,,,,,,,5f2dcc2ab5f3f20f53df3a4d,2020-08-10_13h22.53.149,lexical_decision_task_MP,2020.1.3,Win32,60,z,1,0.692785,,,,,,,,0.692785,1,,,,,,342,NW,UN,33,aimosy,RANDOW,z,,,,,,0.120370385,-0.180555566,0,0,0,,0,212,212,401,1,
,,,,,,,,,,,,,,,,,,5f2dcc2ab5f3f20f53df3a4d,2020-08-10_13h22.53.149,lexical_decision_task_MP,2020.1.3,Win32,60,z,1,0.503345,,,,,,,,0.503345,1,,,,,,476,NW,"ID",33,josted,JOSTED,z,,,,,,0.120370385,-0.180555566,0,0,0,,0,213,213,295,1,
,,,,,,,,,,,,,,,,,,5f2dcc2ab5f3f20f53df3a4d,2020-08-10_13h22.53.149,lexical_decision_task_MP,2020.1.3,Win32,60,m,1,0.59851,,,,,,,,0.59851,1,,,,,,104,WORD,UN,33,number,STUDIO,m,,,,,,0.120370385,-0.180555566,0,0,0,,0,214,214,163,1,
,,,,,,,,,,,,,,,,,,5f2dcc2ab5f3f20f53df3a4d,2020-08-10_13h22.53.149,lexical_decision_task_MP,2020.1.3,Win32,60,z,1,0.472525,,,,,,,,0.472525,1,,,,,,302,NW,UN,33,fiream,MILUER,z,,,,,,0.120370385,-0.180555566,0,0,0,,0,215,215,361,1,
,,,,,,,,,,,,,,,,,,5f2dcc2ab5f3f20f53df3a4d,2020-08-10_13h22.53.149,lexical_decision_task_MP,2020.1.3,Win32,60,m,1,0.58303,,,,,,,,0.58303,1,,,,,,128,WORD,UN,50,marvel,SENIOR,m,,,,,,0.120370385,-0.180555566,0,0,0,,0,216,216,187,1,
,,,,,,,,,,,,,,,,,,5f2dcc2ab5f3f20f53df3a4d,2020-08-10_13h22.53.149,lexical_decision_task_MP,2020.1.3,Win32,60,z,1,0.50244,,,,,,,,0.50244,1,,,,,,404,NW,UN,50,flumni,CLUIRM,z,,,,,,0.120370385,-0.180555566,0,0,0,,0,217,217,463,1,
,,,,,,,,,,,,,,,,,,5f2dcc2ab5f3f20f53df3a4d,2020-08-10_13h22.53.149,lexical_decision_task_MP,2020.1.3,Win32,60,z,1,1.105715,,,,,,,,1.105715,1,,,,,,373,NW,UN,50,sliant,BIGENT,z,,,,,,0.120370385,-0.180555566,0,0,0,,0,218,218,432,1,
,,,,,,,,,,,,,,,,,,5f2dcc2ab5f3f20f53df3a4d,2020-08-10_13h22.53.149,lexical_decision_task_MP,2020.1.3,Win32,60,m,1,0.53027,,,,,,,,0.53027,1,,,,,,173,WORD,UN,50,turkey,SHOWER,m,,,,,,0.120370385,-0.180555566,0,0,0,,0,219,219,232,1,
,,,,,,,,,,,,,,,,,,5f2dcc2ab5f3f20f53df3a4d,2020-08-10_13h22.53.149,lexical_decision_task_MP,2020.1.3,Win32,60,m,1,0.634085,,,,,,,,0.634085,1,,,,,,59,WORD,"ID",50,splint,SPLINT,m,,,,,,0.120370385,-0.180555566,0,0,0,,0,220,220,118,1,
,,,,,,,,,,,,,,,,,,5f2dcc2ab5f3f20f53df3a4d,2020-08-10_13h22.53.149,lexical_decision_task_MP,2020.1.3,Win32,60,z,1,0.82154,,,,,,,,0.82154,1,,,,,,349,NW,UN,33,nagurs,ASYLEN,z,,,,,,0.120370385,-0.180555566,0,0,0,,0,221,221,408,1,
,,,,,,,,,,,,,,,,,,5f2dcc2ab5f3f20f53df3a4d,2020-08-10_13h22.53.149,lexical_decision_task_MP,2020.1.3,Win32,60,z,1,0.721195,,,,,,,,0.721195,1,,,,,,394,NW,UN,50,colury,SPAQUX,z,,,,,,0.120370385,-0.180555566,0,0,0,,0,222,222,453,1,
,,,,,,,,,,,,,,,,,,5f2dcc2ab5f3f20f53df3a4d,2020-08-10_13h22.53.149,lexical_decision_task_MP,2020.1.3,Win32,60,m,1,0.58223,,,,,,,,0.58223,1,,,,,,78,WORD,UN,33,theory,COLUMN,m,,,,,,0.120370385,-0.180555566,0,0,0,,0,223,223,137,1,
,,,,,,,,,,,,,,,,,,5f2dcc2ab5f3f20f53df3a4d,2020-08-10_13h22.53.149,lexical_decision_task_MP,2020.1.3,Win32,60,z,1,0.48661,,,,,,,,0.48661,1,,,,,,318,NW,UN,33,zomber,REAGLY,z,,,,,,0.120370385,-0.180555566,0,0,0,,0,224,224,377,1,
,,,,,,,,,,,,,,,,,,5f2dcc2ab5f3f20f53df3a4d,2020-08-10_13h22.53.149,lexical_decision_task_MP,2020.1.3,Win32,60,m,1,0.572095,,,,,,,,0.572095,1,,,,,,165,WORD,UN,50,starch,INVEST,m,,,,,,0.120370385,-0.180555566,0,0,0,,0,225,225,224,1,
,,,,,,,,,,,,,,,,,,5f2dcc2ab5f3f20f53df3a4d,2020-08-10_13h22.53.149,lexical_decision_task_MP,2020.1.3,Win32,60,z,1,0.497935,,,,,,,,0.497935,1,,,,,,367,NW,UN,50,hornal,SLIQUE,z,,,,,,0.120370385,-0.180555566,0,0,0,,0,226,226,426,1,
,,,,,,,,,,,,,,,,,,5f2dcc2ab5f3f20f53df3a4d,2020-08-10_13h22.53.149,lexical_decision_task_MP,2020.1.3,Win32,60,m,1,0.47529,,,,,,,,0.47529,1,,,,,,58,WORD,"ID",50,foster,FOSTER,m,,,,,,0.120370385,-0.180555566,0,0,0,,0,227,227,117,1,
,,,,,,,,,,,,,,,,,,5f2dcc2ab5f3f20f53df3a4d,2020-08-10_13h22.53.149,lexical_decision_task_MP,2020.1.3,Win32,60,m,1,0.647875,,,,,,,,0.647875,1,,,,,,172,WORD,UN,50,shower,PATROL,m,,,,,,0.120370385,-0.180555566,0,0,0,,0,228,228,231,1,
,,,,,,,,,,,,,,,,,,5f2dcc2ab5f3f20f53df3a4d,2020-08-10_13h22.53.149,lexical_decision_task_MP,2020.1.3,Win32,60,m,1,0.499095,,,,,,,,0.499095,1,,,,,,214,WORD,"ID",33,intake,INTAKE,m,,,,,,0.120370385,-0.180555566,0,0,0,,0,229,229,33,1,
,,,,,,,,,,,,,,,,,,5f2dcc2ab5f3f20f53df3a4d,2020-08-10_13h22.53.149,lexical_decision_task_MP,2020.1.3,Win32,60,m,1,0.50895,,,,,,,,0.50895,1,,,,,,31,WORD,"ID",50,weapon,WEAPON,m,,,,,,0.120370385,-0.180555566,0,0,0,,0,230,230,90,1,
,,,,,,,,,,,,,,,,,,5f2dcc2ab5f3f20f53df3a4d,2020-08-10_13h22.53.149,lexical_decision_task_MP,2020.1.3,Win32,60,m,1,0.533025,,,,,,,,0.533025,1,,,,,,135,WORD,UN,50,bleach,IMPORT,m,,,,,,0.120370385,-0.180555566,0,0,0,,0,231,231,194,1,
,,,,,,,,,,,,,,,,,,5f2dcc2ab5f3f20f53df3a4d,2020-08-10_13h22.53.149,lexical_decision_task_MP,2020.1.3,Win32,60,m,1,0.521795,,,,,,,,0.521795,1,,,,,,171,WORD,UN,50,patrol,DEPART,m,,,,,,0.120370385,-0.180555566,0,0,0,,0,232,232,230,1,
,,,,,,,,,,,,,,,,,,5f2dcc2ab5f3f20f53df3a4d,2020-08-10_13h22.53.149,lexical_decision_task_MP,2020.1.3,Win32,60,z,1,0.603115,,,,,,,,0.603115,1,,,,,,457,NW,"ID",33,wanigh,WANIGH,z,,,,,,0.120370385,-0.180555566,0,0,0,,0,233,233,276,1,
,,,,,,,,,,,,,,,,,,5f2dcc2ab5f3f20f53df3a4d,2020-08-10_13h22.53.149,lexical_decision_task_MP,2020.1.3,Win32,60,z,1,0.548775,,,,,,,,0.548775,1,,,,,,455,NW,"ID",33,tondle,TONDLE,z,,,,,,0.120370385,-0.180555566,0,0,0,,0,234,234,274,1,
,,,,,,,,,,,,,,,,,,5f2dcc2ab5f3f20f53df3a4d,2020-08-10_13h22.53.149,lexical_decision_task_MP,2020.1.3,Win32,60,m,1,0.56212,,,,,,,,0.56212,1,,,,,,196,WORD,"ID",33,credit,CREDIT,m,,,,,,0.120370385,-0.180555566,0,0,0,,0,235,235,15,1,
,,,,,,,,,,,,,,,,,,5f2dcc2ab5f3f20f53df3a4d,2020-08-10_13h22.53.149,lexical_decision_task_MP,2020.1.3,Win32,60,z,1,0.531605,,,,,,,,0.531605,1,,,,,,408,NW,UN,50,elopia,HURNIA,z,,,,,,0.120370385,-0.180555566,0,0,0,,0,236,236,467,1,
,,,,,,,,,,,,,,,,,,5f2dcc2ab5f3f20f53df3a4d,2020-08-10_13h22.53.149,lexical_decision_task_MP,2020.1.3,Win32,60,m,1,0.708185,,,,,,,,0.708185,1,,,,,,194,WORD,"ID",33,absent,ABSENT,m,,,,,,0.120370385,-0.180555566,0,0,0,,0,237,237,13,1,
,,,,,,,,,,,,,,,,,,5f2dcc2ab5f3f20f53df3a4d,2020-08-10_13h22.53.149,lexical_decision_task_MP,2020.1.3,Win32,60,m,0,0.883155,,,,,,,,0.883155,0,,,,,,454,NW,"ID",33,scouge,SCOUGE,z,,,,,,0.120370385,-0.180555566,0,0,0,,0,238,238,273,1,
,,,,,,,,,,,,,,,,,,5f2dcc2ab5f3f20f53df3a4d,2020-08-10_13h22.53.149,lexical_decision_task_MP,2020.1.3,Win32,60,m,1,0.66215,,,,,,,,0.66215,1,,,,,,108,WORD,UN,33,wonder,RECKON,m,,,,,,0.120370385,-0.180555566,0,0,0,,0,239,239,167,1,
,,,,,,,,,,,,,,,,,,5f2dcc2ab5f3f20f53df3a4d,2020-08-10_13h22.53.149,lexical_decision_task_MP,2020.1.3,Win32,60,m,1,0.614435,,,,,,,,0.614435,1,,,,,,181,WORD,"ID",33,glance,GLANCE,m,,,,,,0.120370385,-0.180555566,0,0,0,,0,240,240,0,1,
,,,,,,,,,,,,,,,,,,5f2dcc2ab5f3f20f53df3a4d,2020-08-10_13h22.53.149,lexical_decision_task_MP,2020.1.3,Win32,60,z,1,0.629705,,,,,,,,0.629705,1,,,,,,441,NW,"ID",33,rastoe,RASTOE,z,,,,,,0.120370385,-0.180555566,0,0,0,space,0,241,241,260,1,24.999905
,,,,,,,,,,,,,,,,,,5f2dcc2ab5f3f20f53df3a4d,2020-08-10_13h22.53.149,lexical_decision_task_MP,2020.1.3,Win32,60,m,1,0.6921,,,,,,,,0.6921,1,,,,,,152,WORD,UN,50,behold,ROCKET,m,,,,,,0.120370385,-0.180555566,0,0,0,,0,242,242,211,1,
,,,,,,,,,,,,,,,,,,5f2dcc2ab5f3f20f53df3a4d,2020-08-10_13h22.53.149,lexical_decision_task_MP,2020.1.3,Win32,60,m,1,0.574695,,,,,,,,0.574695,1,,,,,,195,WORD,"ID",33,resign,RESIGN,m,,,,,,0.120370385,-0.180555566,0,0,0,,0,243,243,14,1,
,,,,,,,,,,,,,,,,,,5f2dcc2ab5f3f20f53df3a4d,2020-08-10_13h22.53.149,lexical_decision_task_MP,2020.1.3,Win32,60,z,1,0.62955,,,,,,,,0.62955,1,,,,,,352,NW,UN,33,clurey,TRINGE,z,,,,,,0.120370385,-0.180555566,0,0,0,,0,244,244,411,1,
,,,,,,,,,,,,,,,,,,5f2dcc2ab5f3f20f53df3a4d,2020-08-10_13h22.53.149,lexical_decision_task_MP,2020.1.3,Win32,60,z,1,0.58134,,,,,,,,0.58134,1,,,,,,379,NW,UN,50,cavory,AUTING,z,,,,,,0.120370385,-0.180555566,0,0,0,,0,245,245,438,1,
,,,,,,,,,,,,,,,,,,5f2dcc2ab5f3f20f53df3a4d,2020-08-10_13h22.53.149,lexical_decision_task_MP,2020.1.3,Win32,60,z,1,0.51538,,,,,,,,0.51538,1,,,,,,369,NW,UN,50,sleact,WRONCH,z,,,,,,0.120370385,-0.180555566,0,0,0,,0,246,246,428,1,
,,,,,,,,,,,,,,,,,,5f2dcc2ab5f3f20f53df3a4d,2020-08-10_13h22.53.149,lexical_decision_task_MP,2020.1.3,Win32,60,m,1,0.53282,,,,,,,,0.53282,1,,,,,,18,WORD,"ID",50,humble,HUMBLE,m,,,,,,0.120370385,-0.180555566,0,0,0,,0,247,247,77,1,
,,,,,,,,,,,,,,,,,,5f2dcc2ab5f3f20f53df3a4d,2020-08-10_13h22.53.149,lexical_decision_task_MP,2020.1.3,Win32,60,z,1,0.54955,,,,,,,,0.54955,1,,,,,,328,NW,UN,33,yarike,BROAKE,z,,,,,,0.120370385,-0.180555566,0,0,0,,0,248,248,387,1,
,,,,,,,,,,,,,,,,,,5f2dcc2ab5f3f20f53df3a4d,2020-08-10_13h22.53.149,lexical_decision_task_MP,2020.1.3,Win32,60,m,1,0.59016,,,,,,,,0.59016,1,,,,,,102,WORD,UN,33,bounce,DIRECT,m,,,,,,0.120370385,-0.180555566,0,0,0,,0,249,249,161,1,
,,,,,,,,,,,,,,,,,,5f2dcc2ab5f3f20f53df3a4d,2020-08-10_13h22.53.149,lexical_decision_task_MP,2020.1.3,Win32,60,m,1,0.55459,,,,,,,,0.55459,1,,,,,,86,WORD,UN,33,filter,RODENT,m,,,,,,0.120370385,-0.180555566,0,0,0,,0,250,250,145,1,
,,,,,,,,,,,,,,,,,,5f2dcc2ab5f3f20f53df3a4d,2020-08-10_13h22.53.149,lexical_decision_task_MP,2020.1.3,Win32,60,m,1,0.576345,,,,,,,,0.576345,1,,,,,,205,WORD,"ID",33,lounge,LOUNGE,m,,,,,,0.120370385,-0.180555566,0,0,0,,0,251,251,24,1,
,,,,,,,,,,,,,,,,,,5f2dcc2ab5f3f20f53df3a4d,2020-08-10_13h22.53.149,lexical_decision_task_MP,2020.1.3,Win32,60,z,1,0.71488,,,,,,,,0.71488,1,,,,,,313,NW,UN,33,sprine,PAURSE,z,,,,,,0.120370385,-0.180555566,0,0,0,,0,252,252,372,1,
,,,,,,,,,,,,,,,,,,5f2dcc2ab5f3f20f53df3a4d,2020-08-10_13h22.53.149,lexical_decision_task_MP,2020.1.3,Win32,60,m,0,0.549455,,,,,,,,0.549455,0,,,,,,248,NW,"ID",50,strole,STROLE,z,,,,,,0.120370385,-0.180555566,0,0,0,,0,253,253,307,1,
,,,,,,,,,,,,,,,,,,5f2dcc2ab5f3f20f53df3a4d,2020-08-10_13h22.53.149,lexical_decision_task_MP,2020.1.3,Win32,60,z,1,0.727055,,,,,,,,0.727055,1,,,,,,278,NW,"ID",50,unighs,UNIGHS,z,,,,,,0.120370385,-0.180555566,0,0,0,,0,254,254,337,1,
,,,,,,,,,,,,,,,,,,5f2dcc2ab5f3f20f53df3a4d,2020-08-10_13h22.53.149,lexical_decision_task_MP,2020.1.3,Win32,60,z,1,0.74762,,,,,,,,0.74762,1,,,,,,304,NW,UN,33,forgle,CLUDIE,z,,,,,,0.120370385,-0.180555566,0,0,0,,0,255,255,363,1,
,,,,,,,,,,,,,,,,,,5f2dcc2ab5f3f20f53df3a4d,2020-08-10_13h22.53.149,lexical_decision_task_MP,2020.1.3,Win32,60,m,1,0.65302,,,,,,,,0.65302,1,,,,,,120,WORD,UN,33,ponder,STRAIN,m,,,,,,0.120370385,-0.180555566,0,0,0,,0,256,256,179,1,
,,,,,,,,,,,,,,,,,,5f2dcc2ab5f3f20f53df3a4d,2020-08-10_13h22.53.149,lexical_decision_task_MP,2020.1.3,Win32,60,z,1,0.547945,,,,,,,,0.547945,1,,,,,,362,NW,UN,50,breali,TIREAU,z,,,,,,0.120370385,-0.180555566,0,0,0,,0,257,257,421,1,
,,,,,,,,,,,,,,,,,,5f2dcc2ab5f3f20f53df3a4d,2020-08-10_13h22.53.149,lexical_decision_task_MP,2020.1.3,Win32,60,z,1,0.608185,,,,,,,,0.608185,1,,,,,,471,NW,"ID",33,nobest,NOBEST,z,,,,,,0.120370385,-0.180555566,0,0,0,,0,258,258,290,1,
,,,,,,,,,,,,,,,,,,5f2dcc2ab5f3f20f53df3a4d,2020-08-10_13h22.53.149,lexical_decision_task_MP,2020.1.3,Win32,60,z,1,0.540195,,,,,,,,0.540195,1,,,,,,363,NW,UN,50,impote,BREALI,z,,,,,,0.120370385,-0.180555566,0,0,0,,0,259,259,422,1,
,,,,,,,,,,,,,,,,,,5f2dcc2ab5f3f20f53df3a4d,2020-08-10_13h22.53.149,lexical_decision_task_MP,2020.1.3,Win32,60,m,1,0.57043,,,,,,,,0.57043,1,,,,,,53,WORD,"ID",50,police,POLICE,m,,,,,,0.120370385,-0.180555566,0,0,0,,0,260,260,112,1,
,,,,,,,,,,,,,,,,,,5f2dcc2ab5f3f20f53df3a4d,2020-08-10_13h22.53.149,lexical_decision_task_MP,2020.1.3,Win32,60,m,1,0.61494,,,,,,,,0.61494,1,,,,,,139,WORD,UN,50,prince,DEBRIS,m,,,,,,0.120370385,-0.180555566,0,0,0,,0,261,261,198,1,
,,,,,,,,,,,,,,,,,,5f2dcc2ab5f3f20f53df3a4d,2020-08-10_13h22.53.149,lexical_decision_task_MP,2020.1.3,Win32,60,m,1,0.49181,,,,,,,,0.49181,1,,,,,,45,WORD,"ID",50,clergy,CLERGY,m,,,,,,0.120370385,-0.180555566,0,0,0,,0,262,262,104,1,
,,,,,,,,,,,,,,,,,,5f2dcc2ab5f3f20f53df3a4d,2020-08-10_13h22.53.149,lexical_decision_task_MP,2020.1.3,Win32,60,z,1,0.84663,,,,,,,,0.84663,1,,,,,,354,NW,UN,33,zingly,VIRLEX,z,,,,,,0.120370385,-0.180555566,0,0,0,,0,263,263,413,1,
,,,,,,,,,,,,,,,,,,5f2dcc2ab5f3f20f53df3a4d,2020-08-10_13h22.53.149,lexical_decision_task_MP,2020.1.3,Win32,60,z,1,0.69792,,,,,,,,0.69792,1,,,,,,473,NW,"ID",33,crible,CRIBLE,z,,,,,,0.120370385,-0.180555566,0,0,0,,0,264,264,292,1,
,,,,,,,,,,,,,,,,,,5f2dcc2ab5f3f20f53df3a4d,2020-08-10_13h22.53.149,lexical_decision_task_MP,2020.1.3,Win32,60,z,1,0.631635,,,,,,,,0.631635,1,,,,,,260,NW,"ID",50,unject,UNJECT,z,,,,,,0.120370385,-0.180555566,0,0,0,,0,265,265,319,1,
,,,,,,,,,,,,,,,,,,5f2dcc2ab5f3f20f53df3a4d,2020-08-10_13h22.53.149,lexical_decision_task_MP,2020.1.3,Win32,60,m,1,0.68388,,,,,,,,0.68388,1,,,,,,159,WORD,UN,50,violet,DETAIL,m,,,,,,0.120370385,-0.180555566,0,0,0,,0,266,266,218,1,
,,,,,,,,,,,,,,,,,,5f2dcc2ab5f3f20f53df3a4d,2020-08-10_13h22.53.149,lexical_decision_task_MP,2020.1.3,Win32,60,m,1,0.64881,,,,,,,,0.64881,1,,,,,,185,WORD,"ID",33,bother,BOTHER,m,,,,,,0.120370385,-0.180555566,0,0,0,,0,267,267,4,1,
,,,,,,,,,,,,,,,,,,5f2dcc2ab5f3f20f53df3a4d,2020-08-10_13h22.53.149,lexical_decision_task_MP,2020.1.3,Win32,60,m,1,0.51689,,,,,,,,0.51689,1,,,,,,8,WORD,"ID",50,abrupt,ABRUPT,m,,,,,,0.120370385,-0.180555566,0,0,0,,0,268,268,67,1,
,,,,,,,,,,,,,,,,,,5f2dcc2ab5f3f20f53df3a4d,2020-08-10_13h22.53.149,lexical_decision_task_MP,2020.1.3,Win32,60,z,1,0.51448,,,,,,,,0.51448,1,,,,,,276,NW,"ID",50,yarmon,YARMON,z,,,,,,0.120370385,-0.180555566,0,0,0,,0,269,269,335,1,
,,,,,,,,,,,,,,,,,,5f2dcc2ab5f3f20f53df3a4d,2020-08-10_13h22.53.149,lexical_decision_task_MP,2020.1.3,Win32,60,z,1,0.733595,,,,,,,,0.733595,1,,,,,,388,NW,UN,50,witmer,CRAGIN,z,,,,,,0.120370385,-0.180555566,0,0,0,,0,270,270,447,1,
,,,,,,,,,,,,,,,,,,5f2dcc2ab5f3f20f53df3a4d,2020-08-10_13h22.53.149,lexical_decision_task_MP,2020.1.3,Win32,60,m,1,0.68415,,,,,,,,0.68415,1,,,,,,64,WORD,UN,33,symbol,THRONE,m,,,,,,0.120370385,-0.180555566,0,0,0,,0,271,271,123,1,
,,,,,,,,,,,,,,,,,,5f2dcc2ab5f3f20f53df3a4d,2020-08-10_13h22.53.149,lexical_decision_task_MP,2020.1.3,Win32,60,z,1,0.76479,,,,,,,,0.76479,1,,,,,,277,NW,"ID",50,petain,PETAIN,z,,,,,,0.120370385,-0.180555566,0,0,0,,0,272,272,336,1,
,,,,,,,,,,,,,,,,,,5f2dcc2ab5f3f20f53df3a4d,2020-08-10_13h22.53.149,lexical_decision_task_MP,2020.1.3,Win32,60,z,1,0.99864,,,,,,,,0.99864,1,,,,,,291,NW,"ID",50,pretch,PRETCH,z,,,,,,0.120370385,-0.180555566,0,0,0,,0,273,273,350,1,
,,,,,,,,,,,,,,,,,,5f2dcc2ab5f3f20f53df3a4d,2020-08-10_13h22.53.149,lexical_decision_task_MP,2020.1.3,Win32,60,z,1,0.543825,,,,,,,,0.543825,1,,,,,,273,NW,"ID",50,sortel,SORTEL,z,,,,,,0.120370385,-0.180555566,0,0,0,,0,274,274,332,1,
,,,,,,,,,,,,,,,,,,5f2dcc2ab5f3f20f53df3a4d,2020-08-10_13h22.53.149,lexical_decision_task_MP,2020.1.3,Win32,60,z,1,0.45606,,,,,,,,0.45606,1,,,,,,241,NW,"ID",50,smenco,SMENCO,z,,,,,,0.120370385,-0.180555566,0,0,0,,0,275,275,300,1,
,,,,,,,,,,,,,,,,,,5f2dcc2ab5f3f20f53df3a4d,2020-08-10_13h22.53.149,lexical_decision_task_MP,2020.1.3,Win32,60,m,1,0.572765,,,,,,,,0.572765,1,,,,,,143,WORD,UN,50,sponge,REASON,m,,,,,,0.120370385,-0.180555566,0,0,0,,0,276,276,202,1,
,,,,,,,,,,,,,,,,,,5f2dcc2ab5f3f20f53df3a4d,2020-08-10_13h22.53.149,lexical_decision_task_MP,2020.1.3,Win32,60,m,1,0.51315,,,,,,,,0.51315,1,,,,,,182,WORD,"ID",33,winter,WINTER,m,,,,,,0.120370385,-0.180555566,0,0,0,,0,277,277,1,1,
,,,,,,,,,,,,,,,,,,5f2dcc2ab5f3f20f53df3a4d,2020-08-10_13h22.53.149,lexical_decision_task_MP,2020.1.3,Win32,60,z,1,0.80202,,,,,,,,0.80202,1,,,,,,357,NW,UN,33,fleack,DERAIN,z,,,,,,0.120370385,-0.180555566,0,0,0,,0,278,278,416,1,
,,,,,,,,,,,,,,,,,,5f2dcc2ab5f3f20f53df3a4d,2020-08-10_13h22.53.149,lexical_decision_task_MP,2020.1.3,Win32,60,z,1,0.614335,,,,,,,,0.614335,1,,,,,,427,NW,"ID",33,schind,SCHIND,z,,,,,,0.120370385,-0.180555566,0,0,0,,0,279,279,246,1,
,,,,,,,,,,,,,,,,,,5f2dcc2ab5f3f20f53df3a4d,2020-08-10_13h22.53.149,lexical_decision_task_MP,2020.1.3,Win32,60,m,1,0.5815,,,,,,,,0.5815,1,,,,,,41,WORD,"ID",50,spring,SPRING,m,,,,,,0.120370385,-0.180555566,0,0,0,,0,280,280,100,1,
,,,,,,,,,,,,,,,,,,5f2dcc2ab5f3f20f53df3a4d,2020-08-10_13h22.53.149,lexical_decision_task_MP,2020.1.3,Win32,60,z,1,0.506495,,,,,,,,0.506495,1,,,,,,331,NW,UN,33,vangue,GILFEW,z,,,,,,0.120370385,-0.180555566,0,0,0,,0,281,281,390,1,
,,,,,,,,,,,,,,,,,,5f2dcc2ab5f3f20f53df3a4d,2020-08-10_13h22.53.149,lexical_decision_task_MP,2020.1.3,Win32,60,m,1,0.559365,,,,,,,,0.559365,1,,,,,,136,WORD,UN,50,finger,BLEACH,m,,,,,,0.120370385,-0.180555566,0,0,0,,0,282,282,195,1,
,,,,,,,,,,,,,,,,,,5f2dcc2ab5f3f20f53df3a4d,2020-08-10_13h22.53.149,lexical_decision_task_MP,2020.1.3,Win32,60,m,1,0.462925,,,,,,,,0.462925,1,,,,,,28,WORD,"ID",50,comedy,COMEDY,m,,,,,,0.120370385,-0.180555566,0,0,0,,0,283,283,87,1,
,,,,,,,,,,,,,,,,,,5f2dcc2ab5f3f20f53df3a4d,2020-08-10_13h22.53.149,lexical_decision_task_MP,2020.1.3,Win32,60,m,1,0.598305,,,,,,,,0.598305,1,,,,,,116,WORD,UN,33,branch,TUMBLE,m,,,,,,0.120370385,-0.180555566,0,0,0,,0,284,284,175,1,
,,,,,,,,,,,,,,,,,,5f2dcc2ab5f3f20f53df3a4d,2020-08-10_13h22.53.149,lexical_decision_task_MP,2020.1.3,Win32,60,z,1,0.7646,,,,,,,,0.7646,1,,,,,,409,NW,UN,50,tunory,ELOPIA,z,,,,,,0.120370385,-0.180555566,0,0,0,,0,285,285,468,1,
,,,,,,,,,,,,,,,,,,5f2dcc2ab5f3f20f53df3a4d,2020-08-10_13h22.53.149,lexical_decision_task_MP,2020.1.3,Win32,60,z,1,0.793855,,,,,,,,0.793855,1,,,,,,432,NW,"ID",33,lunker,LUNKER,z,,,,,,0.120370385,-0.180555566,0,0,0,,0,286,286,251,1,
,,,,,,,,,,,,,,,,,,5f2dcc2ab5f3f20f53df3a4d,2020-08-10_13h22.53.149,lexical_decision_task_MP,2020.1.3,Win32,60,z,1,0.520825,,,,,,,,0.520825,1,,,,,,350,NW,UN,33,tiesch,NAGURS,z,,,,,,0.120370385,-0.180555566,0,0,0,,0,287,287,409,1,
,,,,,,,,,,,,,,,,,,5f2dcc2ab5f3f20f53df3a4d,2020-08-10_13h22.53.149,lexical_decision_task_MP,2020.1.3,Win32,60,m,1,0.514715,,,,,,,,0.514715,1,,,,,,197,WORD,"ID",33,stream,STREAM,m,,,,,,0.120370385,-0.180555566,0,0,0,,0,288,288,16,1,
,,,,,,,,,,,,,,,,,,5f2dcc2ab5f3f20f53df3a4d,2020-08-10_13h22.53.149,lexical_decision_task_MP,2020.1.3,Win32,60,z,1,0.65654,,,,,,,,0.65654,1,,,,,,467,NW,"ID",33,gorbie,GORBIE,z,,,,,,0.120370385,-0.180555566,0,0,0,,0,289,289,286,1,
,,,,,,,,,,,,,,,,,,5f2dcc2ab5f3f20f53df3a4d,2020-08-10_13h22.53.149,lexical_decision_task_MP,2020.1.3,Win32,60,z,1,0.66405,,,,,,,,0.66405,1,,,,,,353,NW,UN,33,virlex,CLUREY,z,,,,,,0.120370385,-0.180555566,0,0,0,,0,290,290,412,1,
,,,,,,,,,,,,,,,,,,5f2dcc2ab5f3f20f53df3a4d,2020-08-10_13h22.53.149,lexical_decision_task_MP,2020.1.3,Win32,60,z,1,0.703065,,,,,,,,0.703065,1,,,,,,338,NW,UN,33,fachow,WREASH,z,,,,,,0.120370385,-0.180555566,0,0,0,,0,291,291,397,1,
,,,,,,,,,,,,,,,,,,5f2dcc2ab5f3f20f53df3a4d,2020-08-10_13h22.53.149,lexical_decision_task_MP,2020.1.3,Win32,60,z,1,0.669145,,,,,,,,0.669145,1,,,,,,448,NW,"ID",33,sadent,SADENT,z,,,,,,0.120370385,-0.180555566,0,0,0,,0,292,292,267,1,
,,,,,,,,,,,,,,,,,,5f2dcc2ab5f3f20f53df3a4d,2020-08-10_13h22.53.149,lexical_decision_task_MP,2020.1.3,Win32,60,z,1,0.653405,,,,,,,,0.653405,1,,,,,,347,NW,UN,33,dumple,KERIFT,z,,,,,,0.120370385,-0.180555566,0,0,0,,0,293,293,406,1,
,,,,,,,,,,,,,,,,,,5f2dcc2ab5f3f20f53df3a4d,2020-08-10_13h22.53.149,lexical_decision_task_MP,2020.1.3,Win32,60,z,1,0.76812,,,,,,,,0.76812,1,,,,,,430,NW,"ID",33,caroey,CAROEY,z,,,,,,0.120370385,-0.180555566,0,0,0,,0,294,294,249,1,
,,,,,,,,,,,,,,,,,,5f2dcc2ab5f3f20f53df3a4d,2020-08-10_13h22.53.149,lexical_decision_task_MP,2020.1.3,Win32,60,z,1,0.874725,,,,,,,,0.874725,1,,,,,,332,NW,UN,33,catrie,VANGUE,z,,,,,,0.120370385,-0.180555566,0,0,0,,0,295,295,391,1,
,,,,,,,,,,,,,,,,,,5f2dcc2ab5f3f20f53df3a4d,2020-08-10_13h22.53.149,lexical_decision_task_MP,2020.1.3,Win32,60,m,1,0.67433,,,,,,,,0.67433,1,,,,,,169,WORD,UN,50,pounce,GENIUS,m,,,,,,0.120370385,-0.180555566,0,0,0,,0,296,296,228,1,
,,,,,,,,,,,,,,,,,,5f2dcc2ab5f3f20f53df3a4d,2020-08-10_13h22.53.149,lexical_decision_task_MP,2020.1.3,Win32,60,z,1,0.667845,,,,,,,,0.667845,1,,,,,,470,NW,"ID",33,crudio,CRUDIO,z,,,,,,0.120370385,-0.180555566,0,0,0,,0,297,297,289,1,
,,,,,,,,,,,,,,,,,,5f2dcc2ab5f3f20f53df3a4d,2020-08-10_13h22.53.149,lexical_decision_task_MP,2020.1.3,Win32,60,m,1,0.60216,,,,,,,,0.60216,1,,,,,,130,WORD,UN,50,quench,STUPID,m,,,,,,0.120370385,-0.180555566,0,0,0,,0,298,298,189,1,
,,,,,,,,,,,,,,,,,,5f2dcc2ab5f3f20f53df3a4d,2020-08-10_13h22.53.149,lexical_decision_task_MP,2020.1.3,Win32,60,z,1,0.6151,,,,,,,,0.6151,1,,,,,,272,NW,"ID",50,damilt,DAMILT,z,,,,,,0.120370385,-0.180555566,0,0,0,,0,299,299,331,1,
,,,,,,,,,,,,,,,,,,5f2dcc2ab5f3f20f53df3a4d,2020-08-10_13h22.53.149,lexical_decision_task_MP,2020.1.3,Win32,60,z,1,0.78117,,,,,,,,0.78117,1,,,,,,326,NW,UN,33,plenac,IGUADE,z,,,,,,0.120370385,-0.180555566,0,0,0,,0,300,300,385,1,
,,,,,,,,,,,,,,,,,,5f2dcc2ab5f3f20f53df3a4d,2020-08-10_13h22.53.149,lexical_decision_task_MP,2020.1.3,Win32,60,z,0,0.624035,,,,,,,,0.624035,0,,,,,,111,WORD,UN,33,breath,INDUCE,m,,,,,,0.120370385,-0.180555566,0,0,0,,0,301,301,170,1,
,,,,,,,,,,,,,,,,,,5f2dcc2ab5f3f20f53df3a4d,2020-08-10_13h22.53.149,lexical_decision_task_MP,2020.1.3,Win32,60,m,1,0.583625,,,,,,,,0.583625,1,,,,,,44,WORD,"ID",50,danger,DANGER,m,,,,,,0.120370385,-0.180555566,0,0,0,,0,302,302,103,1,
,,,,,,,,,,,,,,,,,,5f2dcc2ab5f3f20f53df3a4d,2020-08-10_13h22.53.149,lexical_decision_task_MP,2020.1.3,Win32,60,z,1,0.80361,,,,,,,,0.80361,1,,,,,,380,NW,UN,50,huniek,CAVORY,z,,,,,,0.120370385,-0.180555566,0,0,0,,0,303,303,439,1,
,,,,,,,,,,,,,,,,,,5f2dcc2ab5f3f20f53df3a4d,2020-08-10_13h22.53.149,lexical_decision_task_MP,2020.1.3,Win32,60,m,1,0.65633,,,,,,,,0.65633,1,,,,,,232,WORD,"ID",33,inject,INJECT,m,,,,,,0.120370385,-0.180555566,0,0,0,,0,304,304,51,1,
,,,,,,,,,,,,,,,,,,5f2dcc2ab5f3f20f53df3a4d,2020-08-10_13h22.53.149,lexical_decision_task_MP,2020.1.3,Win32,60,z,1,0.66538,,,,,,,,0.66538,1,,,,,,405,NW,UN,50,nouply,FLUMNI,z,,,,,,0.120370385,-0.180555566,0,0,0,,0,305,305,464,1,
,,,,,,,,,,,,,,,,,,5f2dcc2ab5f3f20f53df3a4d,2020-08-10_13h22.53.149,lexical_decision_task_MP,2020.1.3,Win32,60,m,1,0.71843,,,,,,,,0.71843,1,,,,,,99,WORD,UN,33,carbon,FLUENT,m,,,,,,0.120370385,-0.180555566,0,0,0,,0,306,306,158,1,
,,,,,,,,,,,,,,,,,,5f2dcc2ab5f3f20f53df3a4d,2020-08-10_13h22.53.149,lexical_decision_task_MP,2020.1.3,Win32,60,m,1,0.54796,,,,,,,,0.54796,1,,,,,,83,WORD,UN,33,mortal,RESULT,m,,,,,,0.120370385,-0.180555566,0,0,0,,0,307,307,142,1,
,,,,,,,,,,,,,,,,,,5f2dcc2ab5f3f20f53df3a4d,2020-08-10_13h22.53.149,lexical_decision_task_MP,2020.1.3,Win32,60,z,1,0.66678,,,,,,,,0.66678,1,,,,,,271,NW,"ID",50,aubrid,AUBRID,z,,,,,,0.120370385,-0.180555566,0,0,0,,0,308,308,330,1,
,,,,,,,,,,,,,,,,,,5f2dcc2ab5f3f20f53df3a4d,2020-08-10_13h22.53.149,lexical_decision_task_MP,2020.1.3,Win32,60,z,1,0.68906,,,,,,,,0.68906,1,,,,,,322,NW,UN,33,rosail,SLANCH,z,,,,,,0.120370385,-0.180555566,0,0,0,,0,309,309,381,1,
,,,,,,,,,,,,,,,,,,5f2dcc2ab5f3f20f53df3a4d,2020-08-10_13h22.53.149,lexical_decision_task_MP,2020.1.3,Win32,60,z,1,0.63146,,,,,,,,0.63146,1,,,,,,296,NW,"ID",50,beinch,BEINCH,z,,,,,,0.120370385,-0.180555566,0,0,0,,0,310,310,355,1,
,,,,,,,,,,,,,,,,,,5f2dcc2ab5f3f20f53df3a4d,2020-08-10_13h22.53.149,lexical_decision_task_MP,2020.1.3,Win32,60,m,1,0.55005,,,,,,,,0.55005,1,,,,,,2,WORD,"ID",50,bridge,BRIDGE,m,,,,,,0.120370385,-0.180555566,0,0,0,,0,311,311,61,1,
,,,,,,,,,,,,,,,,,,5f2dcc2ab5f3f20f53df3a4d,2020-08-10_13h22.53.149,lexical_decision_task_MP,2020.1.3,Win32,60,m,1,0.573835,,,,,,,,0.573835,1,,,,,,95,WORD,UN,33,ignore,THREAD,m,,,,,,0.120370385,-0.180555566,0,0,0,,0,312,312,154,1,
,,,,,,,,,,,,,,,,,,5f2dcc2ab5f3f20f53df3a4d,2020-08-10_13h22.53.149,lexical_decision_task_MP,2020.1.3,Win32,60,m,1,0.598335,,,,,,,,0.598335,1,,,,,,158,WORD,UN,50,detail,ISLAND,m,,,,,,0.120370385,-0.180555566,0,0,0,,0,313,313,217,1,
,,,,,,,,,,,,,,,,,,5f2dcc2ab5f3f20f53df3a4d,2020-08-10_13h22.53.149,lexical_decision_task_MP,2020.1.3,Win32,60,z,1,0.714435,,,,,,,,0.714435,1,,,,,,395,NW,UN,50,flengy,COLURY,z,,,,,,0.120370385,-0.180555566,0,0,0,,0,314,314,454,1,
,,,,,,,,,,,,,,,,,,5f2dcc2ab5f3f20f53df3a4d,2020-08-10_13h22.53.149,lexical_decision_task_MP,2020.1.3,Win32,60,z,1,0.589595,,,,,,,,0.589595,1,,,,,,268,NW,"ID",50,packes,PACKES,z,,,,,,0.120370385,-0.180555566,0,0,0,,0,315,315,327,1,
,,,,,,,,,,,,,,,,,,5f2dcc2ab5f3f20f53df3a4d,2020-08-10_13h22.53.149,lexical_decision_task_MP,2020.1.3,Win32,60,m,1,0.570475,,,,,,,,0.570475,1,,,,,,63,WORD,UN,33,throne,LAUNCH,m,,,,,,0.120370385,-0.180555566,0,0,0,,0,316,316,122,1,
,,,,,,,,,,,,,,,,,,5f2dcc2ab5f3f20f53df3a4d,2020-08-10_13h22.53.149,lexical_decision_task_MP,2020.1.3,Win32,60,z,1,0.566645,,,,,,,,0.566645,1,,,,,,324,NW,UN,33,thruse,STEIKH,z,,,,,,0.120370385,-0.180555566,0,0,0,,0,317,317,383,1,
,,,,,,,,,,,,,,,,,,5f2dcc2ab5f3f20f53df3a4d,2020-08-10_13h22.53.149,lexical_decision_task_MP,2020.1.3,Win32,60,m,1,0.647845,,,,,,,,0.647845,1,,,,,,147,WORD,UN,50,custom,GARLIC,m,,,,,,0.120370385,-0.180555566,0,0,0,,0,318,318,206,1,
,,,,,,,,,,,,,,,,,,5f2dcc2ab5f3f20f53df3a4d,2020-08-10_13h22.53.149,lexical_decision_task_MP,2020.1.3,Win32,60,m,1,0.59799,,,,,,,,0.59799,1,,,,,,71,WORD,UN,33,bright,GARDEN,m,,,,,,0.120370385,-0.180555566,0,0,0,,0,319,319,130,1,
,,,,,,,,,,,,,,,,,,5f2dcc2ab5f3f20f53df3a4d,2020-08-10_13h22.53.149,lexical_decision_task_MP,2020.1.3,Win32,60,m,1,0.59112,,,,,,,,0.59112,1,,,,,,138,WORD,UN,50,debris,MELODY,m,,,,,,0.120370385,-0.180555566,0,0,0,,0,320,320,197,1,
,,,,,,,,,,,,,,,,,,5f2dcc2ab5f3f20f53df3a4d,2020-08-10_13h22.53.149,lexical_decision_task_MP,2020.1.3,Win32,60,m,1,0.612575,,,,,,,,0.612575,1,,,,,,34,WORD,"ID",50,jungle,JUNGLE,m,,,,,,0.120370385,-0.180555566,0,0,0,,0,321,321,93,1,
,,,,,,,,,,,,,,,,,,5f2dcc2ab5f3f20f53df3a4d,2020-08-10_13h22.53.149,lexical_decision_task_MP,2020.1.3,Win32,60,m,1,0.56735,,,,,,,,0.56735,1,,,,,,50,WORD,"ID",50,snatch,SNATCH,m,,,,,,0.120370385,-0.180555566,0,0,0,,0,322,322,109,1,
,,,,,,,,,,,,,,,,,,5f2dcc2ab5f3f20f53df3a4d,2020-08-10_13h22.53.149,lexical_decision_task_MP,2020.1.3,Win32,60,z,1,0.64755,,,,,,,,0.64755,1,,,,,,279,NW,"ID",50,celond,CELOND,z,,,,,,0.120370385,-0.180555566,0,0,0,,0,323,323,338,1,
,,,,,,,,,,,,,,,,,,5f2dcc2ab5f3f20f53df3a4d,2020-08-10_13h22.53.149,lexical_decision_task_MP,2020.1.3,Win32,60,m,1,0.547935,,,,,,,,0.547935,1,,,,,,23,WORD,"ID",50,wealth,WEALTH,m,,,,,,0.120370385,-0.180555566,0,0,0,,0,324,324,82,1,
,,,,,,,,,,,,,,,,,,5f2dcc2ab5f3f20f53df3a4d,2020-08-10_13h22.53.149,lexical_decision_task_MP,2020.1.3,Win32,60,m,1,0.619275,,,,,,,,0.619275,1,,,,,,227,WORD,"ID",33,seldom,SELDOM,m,,,,,,0.120370385,-0.180555566,0,0,0,,0,325,325,46,1,
,,,,,,,,,,,,,,,,,,5f2dcc2ab5f3f20f53df3a4d,2020-08-10_13h22.53.149,lexical_decision_task_MP,2020.1.3,Win32,60,m,1,0.74237,,,,,,,,0.74237,1,,,,,,106,WORD,UN,33,slogan,RANSOM,m,,,,,,0.120370385,-0.180555566,0,0,0,,0,326,326,165,1,
,,,,,,,,,,,,,,,,,,5f2dcc2ab5f3f20f53df3a4d,2020-08-10_13h22.53.149,lexical_decision_task_MP,2020.1.3,Win32,60,m,1,0.552675,,,,,,,,0.552675,1,,,,,,226,WORD,"ID",33,casino,CASINO,m,,,,,,0.120370385,-0.180555566,0,0,0,,0,327,327,45,1,
,,,,,,,,,,,,,,,,,,5f2dcc2ab5f3f20f53df3a4d,2020-08-10_13h22.53.149,lexical_decision_task_MP,2020.1.3,Win32,60,z,1,0.581735,,,,,,,,0.581735,1,,,,,,459,NW,"ID",33,bafent,BAFENT,z,,,,,,0.120370385,-0.180555566,0,0,0,,0,328,328,278,1,
,,,,,,,,,,,,,,,,,,5f2dcc2ab5f3f20f53df3a4d,2020-08-10_13h22.53.149,lexical_decision_task_MP,2020.1.3,Win32,60,m,1,0.572575,,,,,,,,0.572575,1,,,,,,146,WORD,UN,50,garlic,COUPLE,m,,,,,,0.120370385,-0.180555566,0,0,0,,0,329,329,205,1,
,,,,,,,,,,,,,,,,,,5f2dcc2ab5f3f20f53df3a4d,2020-08-10_13h22.53.149,lexical_decision_task_MP,2020.1.3,Win32,60,z,1,0.59229,,,,,,,,0.59229,1,,,,,,434,NW,"ID",33,pitrom,PITROM,z,,,,,,0.120370385,-0.180555566,0,0,0,,0,330,330,253,1,
,,,,,,,,,,,,,,,,,,5f2dcc2ab5f3f20f53df3a4d,2020-08-10_13h22.53.149,lexical_decision_task_MP,2020.1.3,Win32,60,z,1,0.840485,,,,,,,,0.840485,1,,,,,,298,NW,"ID",50,piergy,PIERGY,z,,,,,,0.120370385,-0.180555566,0,0,0,,0,331,331,357,1,
,,,,,,,,,,,,,,,,,,5f2dcc2ab5f3f20f53df3a4d,2020-08-10_13h22.53.149,lexical_decision_task_MP,2020.1.3,Win32,60,z,1,0.69215,,,,,,,,0.69215,1,,,,,,411,NW,UN,50,jiluer,ORCHIN,z,,,,,,0.120370385,-0.180555566,0,0,0,,0,332,332,470,1,
,,,,,,,,,,,,,,,,,,5f2dcc2ab5f3f20f53df3a4d,2020-08-10_13h22.53.149,lexical_decision_task_MP,2020.1.3,Win32,60,m,1,0.684015,,,,,,,,0.684015,1,,,,,,137,WORD,UN,50,melody,FINGER,m,,,,,,0.120370385,-0.180555566,0,0,0,,0,333,333,196,1,
,,,,,,,,,,,,,,,,,,5f2dcc2ab5f3f20f53df3a4d,2020-08-10_13h22.53.149,lexical_decision_task_MP,2020.1.3,Win32,60,m,1,0.588345,,,,,,,,0.588345,1,,,,,,27,WORD,"ID",50,scream,SCREAM,m,,,,,,0.120370385,-0.180555566,0,0,0,,0,334,334,86,1,
,,,,,,,,,,,,,,,,,,5f2dcc2ab5f3f20f53df3a4d,2020-08-10_13h22.53.149,lexical_decision_task_MP,2020.1.3,Win32,60,z,1,0.629095,,,,,,,,0.629095,1,,,,,,290,NW,"ID",50,splino,SPLINO,z,,,,,,0.120370385,-0.180555566,0,0,0,,0,335,335,349,1,
,,,,,,,,,,,,,,,,,,5f2dcc2ab5f3f20f53df3a4d,2020-08-10_13h22.53.149,lexical_decision_task_MP,2020.1.3,Win32,60,z,1,0.71675,,,,,,,,0.71675,1,,,,,,478,NW,"ID",33,acrise,ACRISE,z,,,,,,0.120370385,-0.180555566,0,0,0,,0,336,336,297,1,
,,,,,,,,,,,,,,,,,,5f2dcc2ab5f3f20f53df3a4d,2020-08-10_13h22.53.149,lexical_decision_task_MP,2020.1.3,Win32,60,m,1,0.624565,,,,,,,,0.624565,1,,,,,,192,WORD,"ID",33,plague,PLAGUE,m,,,,,,0.120370385,-0.180555566,0,0,0,,0,337,337,11,1,
,,,,,,,,,,,,,,,,,,5f2dcc2ab5f3f20f53df3a4d,2020-08-10_13h22.53.149,lexical_decision_task_MP,2020.1.3,Win32,60,m,0,0.838005,,,,,,,,0.838005,0,,,,,,309,NW,UN,33,daniet,AMILOY,z,,,,,,0.120370385,-0.180555566,0,0,0,,0,338,338,368,1,
,,,,,,,,,,,,,,,,,,5f2dcc2ab5f3f20f53df3a4d,2020-08-10_13h22.53.149,lexical_decision_task_MP,2020.1.3,Win32,60,m,1,0.64058,,,,,,,,0.64058,1,,,,,,49,WORD,"ID",50,survey,SURVEY,m,,,,,,0.120370385,-0.180555566,0,0,0,,0,339,339,108,1,
,,,,,,,,,,,,,,,,,,5f2dcc2ab5f3f20f53df3a4d,2020-08-10_13h22.53.149,lexical_decision_task_MP,2020.1.3,Win32,60,z,1,0.770855,,,,,,,,0.770855,1,,,,,,343,NW,UN,33,scrily,AIMOSY,z,,,,,,0.120370385,-0.180555566,0,0,0,,0,340,340,402,1,
,,,,,,,,,,,,,,,,,,5f2dcc2ab5f3f20f53df3a4d,2020-08-10_13h22.53.149,lexical_decision_task_MP,2020.1.3,Win32,60,z,1,1.048645,,,,,,,,1.048645,1,,,,,,398,NW,UN,50,fouret,BLUNDE,z,,,,,,0.120370385,-0.180555566,0,0,0,,0,341,341,457,1,
,,,,,,,,,,,,,,,,,,5f2dcc2ab5f3f20f53df3a4d,2020-08-10_13h22.53.149,lexical_decision_task_MP,2020.1.3,Win32,60,m,1,0.63046,,,,,,,,0.63046,1,,,,,,100,WORD,UN,33,wrench,CARBON,m,,,,,,0.120370385,-0.180555566,0,0,0,,0,342,342,159,1,
,,,,,,,,,,,,,,,,,,5f2dcc2ab5f3f20f53df3a4d,2020-08-10_13h22.53.149,lexical_decision_task_MP,2020.1.3,Win32,60,z,1,0.533065,,,,,,,,0.533065,1,,,,,,254,NW,"ID",50,varosh,VAROSH,z,,,,,,0.120370385,-0.180555566,0,0,0,,0,343,343,313,1,
,,,,,,,,,,,,,,,,,,5f2dcc2ab5f3f20f53df3a4d,2020-08-10_13h22.53.149,lexical_decision_task_MP,2020.1.3,Win32,60,m,1,0.54198,,,,,,,,0.54198,1,,,,,,12,WORD,"ID",50,orange,ORANGE,m,,,,,,0.120370385,-0.180555566,0,0,0,,0,344,344,71,1,
,,,,,,,,,,,,,,,,,,5f2dcc2ab5f3f20f53df3a4d,2020-08-10_13h22.53.149,lexical_decision_task_MP,2020.1.3,Win32,60,m,1,0.509455,,,,,,,,0.509455,1,,,,,,37,WORD,"ID",50,insult,INSULT,m,,,,,,0.120370385,-0.180555566,0,0,0,,0,345,345,96,1,
,,,,,,,,,,,,,,,,,,5f2dcc2ab5f3f20f53df3a4d,2020-08-10_13h22.53.149,lexical_decision_task_MP,2020.1.3,Win32,60,z,0,0.940645,,,,,,,,0.940645,0,,,,,,62,WORD,UN,33,launch,REGION,m,,,,,,0.120370385,-0.180555566,0,0,0,,0,346,346,121,1,
,,,,,,,,,,,,,,,,,,5f2dcc2ab5f3f20f53df3a4d,2020-08-10_13h22.53.149,lexical_decision_task_MP,2020.1.3,Win32,60,m,1,0.69843,,,,,,,,0.69843,1,,,,,,4,WORD,"ID",50,trench,TRENCH,m,,,,,,0.120370385,-0.180555566,0,0,0,,0,347,347,63,1,
,,,,,,,,,,,,,,,,,,5f2dcc2ab5f3f20f53df3a4d,2020-08-10_13h22.53.149,lexical_decision_task_MP,2020.1.3,Win32,60,m,1,0.586235,,,,,,,,0.586235,1,,,,,,187,WORD,"ID",33,course,COURSE,m,,,,,,0.120370385,-0.180555566,0,0,0,,0,348,348,6,1,
,,,,,,,,,,,,,,,,,,5f2dcc2ab5f3f20f53df3a4d,2020-08-10_13h22.53.149,lexical_decision_task_MP,2020.1.3,Win32,60,m,1,1.023535,,,,,,,,1.023535,1,,,,,,87,WORD,UN,33,sprawl,FILTER,m,,,,,,0.120370385,-0.180555566,0,0,0,,0,349,349,146,1,
,,,,,,,,,,,,,,,,,,5f2dcc2ab5f3f20f53df3a4d,2020-08-10_13h22.53.149,lexical_decision_task_MP,2020.1.3,Win32,60,m,1,0.698355,,,,,,,,0.698355,1,,,,,,208,WORD,"ID",33,hockey,HOCKEY,m,,,,,,0.120370385,-0.180555566,0,0,0,,0,350,350,27,1,
,,,,,,,,,,,,,,,,,,5f2dcc2ab5f3f20f53df3a4d,2020-08-10_13h22.53.149,lexical_decision_task_MP,2020.1.3,Win32,60,m,1,0.55262,,,,,,,,0.55262,1,,,,,,15,WORD,"ID",50,amount,AMOUNT,m,,,,,,0.120370385,-0.180555566,0,0,0,,0,351,351,74,1,
,,,,,,,,,,,,,,,,,,5f2dcc2ab5f3f20f53df3a4d,2020-08-10_13h22.53.149,lexical_decision_task_MP,2020.1.3,Win32,60,m,1,0.73766,,,,,,,,0.73766,1,,,,,,85,WORD,UN,33,rodent,SPRAWL,m,,,,,,0.120370385,-0.180555566,0,0,0,,0,352,352,144,1,
,,,,,,,,,,,,,,,,,,5f2dcc2ab5f3f20f53df3a4d,2020-08-10_13h22.53.149,lexical_decision_task_MP,2020.1.3,Win32,60,m,1,0.598025,,,,,,,,0.598025,1,,,,,,26,WORD,"ID",50,sprint,SPRINT,m,,,,,,0.120370385,-0.180555566,0,0,0,,0,353,353,85,1,
,,,,,,,,,,,,,,,,,,5f2dcc2ab5f3f20f53df3a4d,2020-08-10_13h22.53.149,lexical_decision_task_MP,2020.1.3,Win32,60,z,1,0.73234,,,,,,,,0.73234,1,,,,,,351,NW,UN,33,tringe,TIESCH,z,,,,,,0.120370385,-0.180555566,0,0,0,,0,354,354,410,1,
,,,,,,,,,,,,,,,,,,5f2dcc2ab5f3f20f53df3a4d,2020-08-10_13h22.53.149,lexical_decision_task_MP,2020.1.3,Win32,60,m,1,0.655425,,,,,,,,0.655425,1,,,,,,47,WORD,"ID",50,income,INCOME,m,,,,,,0.120370385,-0.180555566,0,0,0,,0,355,355,106,1,
,,,,,,,,,,,,,,,,,,5f2dcc2ab5f3f20f53df3a4d,2020-08-10_13h22.53.149,lexical_decision_task_MP,2020.1.3,Win32,60,m,1,0.553955,,,,,,,,0.553955,1,,,,,,216,WORD,"ID",33,behalf,BEHALF,m,,,,,,0.120370385,-0.180555566,0,0,0,,0,356,356,35,1,
,,,,,,,,,,,,,,,,,,5f2dcc2ab5f3f20f53df3a4d,2020-08-10_13h22.53.149,lexical_decision_task_MP,2020.1.3,Win32,60,m,1,0.83094,,,,,,,,0.83094,1,,,,,,156,WORD,UN,50,depart,CRADLE,m,,,,,,0.120370385,-0.180555566,0,0,0,,0,357,357,215,1,
,,,,,,,,,,,,,,,,,,5f2dcc2ab5f3f20f53df3a4d,2020-08-10_13h22.53.149,lexical_decision_task_MP,2020.1.3,Win32,60,m,1,0.6042,,,,,,,,0.6042,1,,,,,,51,WORD,"ID",50,hungry,HUNGRY,m,,,,,,0.120370385,-0.180555566,0,0,0,,0,358,358,110,1,
,,,,,,,,,,,,,,,,,,5f2dcc2ab5f3f20f53df3a4d,2020-08-10_13h22.53.149,lexical_decision_task_MP,2020.1.3,Win32,60,z,1,0.79566,,,,,,,,0.79566,1,,,,,,344,NW,UN,33,absend,SCRILY,z,,,,,,0.120370385,-0.180555566,0,0,0,,0,359,359,403,1,
,,,,,,,,,,,,,,,,,,5f2dcc2ab5f3f20f53df3a4d,2020-08-10_13h22.53.149,lexical_decision_task_MP,2020.1.3,Win32,60,m,1,0.62639,,,,,,,,0.62639,1,,,,,,206,WORD,"ID",33,tailor,TAILOR,m,,,,,,0.120370385,-0.180555566,0,0,0,,0,360,360,25,1,
,,,,,,,,,,,,,,,,,,5f2dcc2ab5f3f20f53df3a4d,2020-08-10_13h22.53.149,lexical_decision_task_MP,2020.1.3,Win32,60,m,1,0.51462,,,,,,,,0.51462,1,,,,,,179,WORD,UN,50,silent,BASKET,m,,,,,,0.120370385,-0.180555566,0,0,0,,0,361,361,238,1,
,,,,,,,,,,,,,,,,,,5f2dcc2ab5f3f20f53df3a4d,2020-08-10_13h22.53.149,lexical_decision_task_MP,2020.1.3,Win32,60,z,1,0.756245,,,,,,,,0.756245,1,,,,,,252,NW,"ID",50,stapod,STAPOD,z,,,,,,0.120370385,-0.180555566,0,0,0,space,0,362,362,311,1,3.51187
,,,,,,,,,,,,,,,,,,5f2dcc2ab5f3f20f53df3a4d,2020-08-10_13h22.53.149,lexical_decision_task_MP,2020.1.3,Win32,60,z,1,0.95539,,,,,,,,0.95539,1,,,,,,316,NW,UN,33,worbal,SCREGM,z,,,,,,0.120370385,-0.180555566,0,0,0,,0,363,363,375,1,
,,,,,,,,,,,,,,,,,,5f2dcc2ab5f3f20f53df3a4d,2020-08-10_13h22.53.149,lexical_decision_task_MP,2020.1.3,Win32,60,m,1,0.88211,,,,,,,,0.88211,1,,,,,,103,WORD,UN,33,studio,BOUNCE,m,,,,,,0.120370385,-0.180555566,0,0,0,,0,364,364,162,1,
,,,,,,,,,,,,,,,,,,5f2dcc2ab5f3f20f53df3a4d,2020-08-10_13h22.53.149,lexical_decision_task_MP,2020.1.3,Win32,60,m,1,0.563835,,,,,,,,0.563835,1,,,,,,105,WORD,UN,33,ransom,NUMBER,m,,,,,,0.120370385,-0.180555566,0,0,0,,0,365,365,164,1,
,,,,,,,,,,,,,,,,,,5f2dcc2ab5f3f20f53df3a4d,2020-08-10_13h22.53.149,lexical_decision_task_MP,2020.1.3,Win32,60,z,1,0.604745,,,,,,,,0.604745,1,,,,,,329,NW,UN,33,kensom,YARIKE,z,,,,,,0.120370385,-0.180555566,0,0,0,,0,366,366,388,1,
,,,,,,,,,,,,,,,,,,5f2dcc2ab5f3f20f53df3a4d,2020-08-10_13h22.53.149,lexical_decision_task_MP,2020.1.3,Win32,60,m,1,1.281775,,,,,,,,1.281775,1,,,,,,149,WORD,UN,50,random,INVADE,m,,,,,,0.120370385,-0.180555566,0,0,0,,0,367,367,208,1,
,,,,,,,,,,,,,,,,,,5f2dcc2ab5f3f20f53df3a4d,2020-08-10_13h22.53.149,lexical_decision_task_MP,2020.1.3,Win32,60,z,1,0.549455,,,,,,,,0.549455,1,,,,,,317,NW,UN,33,reagly,WORBAL,z,,,,,,0.120370385,-0.180555566,0,0,0,,0,368,368,376,1,
,,,,,,,,,,,,,,,,,,5f2dcc2ab5f3f20f53df3a4d,2020-08-10_13h22.53.149,lexical_decision_task_MP,2020.1.3,Win32,60,z,1,0.59092,,,,,,,,0.59092,1,,,,,,299,NW,"ID",50,sturch,STURCH,z,,,,,,0.120370385,-0.180555566,0,0,0,,0,369,369,358,1,
,,,,,,,,,,,,,,,,,,5f2dcc2ab5f3f20f53df3a4d,2020-08-10_13h22.53.149,lexical_decision_task_MP,2020.1.3,Win32,60,z,1,0.47525,,,,,,,,0.47525,1,,,,,,393,NW,UN,50,spaqux,GANOUS,z,,,,,,0.120370385,-0.180555566,0,0,0,,0,370,370,452,1,
,,,,,,,,,,,,,,,,,,5f2dcc2ab5f3f20f53df3a4d,2020-08-10_13h22.53.149,lexical_decision_task_MP,2020.1.3,Win32,60,z,1,0.904335,,,,,,,,0.904335,1,,,,,,284,NW,"ID",50,shaple,SHAPLE,z,,,,,,0.120370385,-0.180555566,0,0,0,,0,371,371,343,1,
,,,,,,,,,,,,,,,,,,5f2dcc2ab5f3f20f53df3a4d,2020-08-10_13h22.53.149,lexical_decision_task_MP,2020.1.3,Win32,60,z,1,0.62875,,,,,,,,0.62875,1,,,,,,301,NW,UN,33,miluer,FAINCH,z,,,,,,0.120370385,-0.180555566,0,0,0,,0,372,372,360,1,
,,,,,,,,,,,,,,,,,,5f2dcc2ab5f3f20f53df3a4d,2020-08-10_13h22.53.149,lexical_decision_task_MP,2020.1.3,Win32,60,m,1,0.549,,,,,,,,0.549,1,,,,,,21,WORD,"ID",50,simple,SIMPLE,m,,,,,,0.120370385,-0.180555566,0,0,0,,0,373,373,80,1,
,,,,,,,,,,,,,,,,,,5f2dcc2ab5f3f20f53df3a4d,2020-08-10_13h22.53.149,lexical_decision_task_MP,2020.1.3,Win32,60,z,1,0.606505,,,,,,,,0.606505,1,,,,,,339,NW,UN,33,fiatch,FACHOW,z,,,,,,0.120370385,-0.180555566,0,0,0,,0,374,374,398,1,
,,,,,,,,,,,,,,,,,,5f2dcc2ab5f3f20f53df3a4d,2020-08-10_13h22.53.149,lexical_decision_task_MP,2020.1.3,Win32,60,m,1,0.501755,,,,,,,,0.501755,1,,,,,,164,WORD,UN,50,invest,MARKET,m,,,,,,0.120370385,-0.180555566,0,0,0,,0,375,375,223,1,
,,,,,,,,,,,,,,,,,,5f2dcc2ab5f3f20f53df3a4d,2020-08-10_13h22.53.149,lexical_decision_task_MP,2020.1.3,Win32,60,z,1,0.5056,,,,,,,,0.5056,1,,,,,,406,NW,UN,50,suiver,NOUPLY,z,,,,,,0.120370385,-0.180555566,0,0,0,,0,376,376,465,1,
,,,,,,,,,,,,,,,,,,5f2dcc2ab5f3f20f53df3a4d,2020-08-10_13h22.53.149,lexical_decision_task_MP,2020.1.3,Win32,60,m,1,0.89202,,,,,,,,0.89202,1,,,,,,113,WORD,UN,33,placid,CHORUS,m,,,,,,0.120370385,-0.180555566,0,0,0,,0,377,377,172,1,
,,,,,,,,,,,,,,,,,,5f2dcc2ab5f3f20f53df3a4d,2020-08-10_13h22.53.149,lexical_decision_task_MP,2020.1.3,Win32,60,z,1,0.606675,,,,,,,,0.606675,1,,,,,,479,NW,"ID",33,lobush,LOBUSH,z,,,,,,0.120370385,-0.180555566,0,0,0,,0,378,378,298,1,
,,,,,,,,,,,,,,,,,,5f2dcc2ab5f3f20f53df3a4d,2020-08-10_13h22.53.149,lexical_decision_task_MP,2020.1.3,Win32,60,z,1,0.738785,,,,,,,,0.738785,1,,,,,,416,NW,UN,50,earoud,PATHEL,z,,,,,,0.120370385,-0.180555566,0,0,0,,0,379,379,475,1,
,,,,,,,,,,,,,,,,,,5f2dcc2ab5f3f20f53df3a4d,2020-08-10_13h22.53.149,lexical_decision_task_MP,2020.1.3,Win32,60,z,1,0.572185,,,,,,,,0.572185,1,,,,,,257,NW,"ID",50,veniod,VENIOD,z,,,,,,0.120370385,-0.180555566,0,0,0,,0,380,380,316,1,
,,,,,,,,,,,,,,,,,,5f2dcc2ab5f3f20f53df3a4d,2020-08-10_13h22.53.149,lexical_decision_task_MP,2020.1.3,Win32,60,m,1,0.632885,,,,,,,,0.632885,1,,,,,,167,WORD,UN,50,answer,DESIGN,m,,,,,,0.120370385,-0.180555566,0,0,0,,0,381,381,226,1,
,,,,,,,,,,,,,,,,,,5f2dcc2ab5f3f20f53df3a4d,2020-08-10_13h22.53.149,lexical_decision_task_MP,2020.1.3,Win32,60,m,1,0.53154,,,,,,,,0.53154,1,,,,,,66,WORD,UN,33,policy,GOSPEL,m,,,,,,0.120370385,-0.180555566,0,0,0,,0,382,382,125,1,
,,,,,,,,,,,,,,,,,,5f2dcc2ab5f3f20f53df3a4d,2020-08-10_13h22.53.149,lexical_decision_task_MP,2020.1.3,Win32,60,m,1,0.704535,,,,,,,,0.704535,1,,,,,,114,WORD,UN,33,guitar,PLACID,m,,,,,,0.120370385,-0.180555566,0,0,0,,0,383,383,173,1,
,,,,,,,,,,,,,,,,,,5f2dcc2ab5f3f20f53df3a4d,2020-08-10_13h22.53.149,lexical_decision_task_MP,2020.1.3,Win32,60,z,1,0.617505,,,,,,,,0.617505,1,,,,,,371,NW,UN,50,ramily,GEILOY,z,,,,,,0.120370385,-0.180555566,0,0,0,,0,384,384,430,1,
,,,,,,,,,,,,,,,,,,5f2dcc2ab5f3f20f53df3a4d,2020-08-10_13h22.53.149,lexical_decision_task_MP,2020.1.3,Win32,60,z,1,0.630865,,,,,,,,0.630865,1,,,,,,384,NW,UN,50,injore,GUESCO,z,,,,,,0.120370385,-0.180555566,0,0,0,,0,385,385,443,1,
,,,,,,,,,,,,,,,,,,5f2dcc2ab5f3f20f53df3a4d,2020-08-10_13h22.53.149,lexical_decision_task_MP,2020.1.3,Win32,60,z,1,0.514205,,,,,,,,0.514205,1,,,,,,315,NW,UN,33,scregm,LASTON,z,,,,,,0.120370385,-0.180555566,0,0,0,,0,386,386,374,1,
,,,,,,,,,,,,,,,,,,5f2dcc2ab5f3f20f53df3a4d,2020-08-10_13h22.53.149,lexical_decision_task_MP,2020.1.3,Win32,60,m,1,0.56461,,,,,,,,0.56461,1,,,,,,234,WORD,"ID",33,clumsy,CLUMSY,m,,,,,,0.120370385,-0.180555566,0,0,0,,0,387,387,53,1,
,,,,,,,,,,,,,,,,,,5f2dcc2ab5f3f20f53df3a4d,2020-08-10_13h22.53.149,lexical_decision_task_MP,2020.1.3,Win32,60,z,1,0.61206,,,,,,,,0.61206,1,,,,,,370,NW,UN,50,geiloy,SLEACT,z,,,,,,0.120370385,-0.180555566,0,0,0,,0,388,388,429,1,
,,,,,,,,,,,,,,,,,,5f2dcc2ab5f3f20f53df3a4d,2020-08-10_13h22.53.149,lexical_decision_task_MP,2020.1.3,Win32,60,z,1,0.8897,,,,,,,,0.8897,1,,,,,,266,NW,"ID",50,varmit,VARMIT,z,,,,,,0.120370385,-0.180555566,0,0,0,,0,389,389,325,1,
,,,,,,,,,,,,,,,,,,5f2dcc2ab5f3f20f53df3a4d,2020-08-10_13h22.53.149,lexical_decision_task_MP,2020.1.3,Win32,60,m,1,0.697795,,,,,,,,0.697795,1,,,,,,36,WORD,"ID",50,vanish,VANISH,m,,,,,,0.120370385,-0.180555566,0,0,0,,0,390,390,95,1,
,,,,,,,,,,,,,,,,,,5f2dcc2ab5f3f20f53df3a4d,2020-08-10_13h22.53.149,lexical_decision_task_MP,2020.1.3,Win32,60,m,1,0.68136,,,,,,,,0.68136,1,,,,,,222,WORD,"ID",33,hinder,HINDER,m,,,,,,0.120370385,-0.180555566,0,0,0,,0,391,391,41,1,
,,,,,,,,,,,,,,,,,,5f2dcc2ab5f3f20f53df3a4d,2020-08-10_13h22.53.149,lexical_decision_task_MP,2020.1.3,Win32,60,m,1,0.51759,,,,,,,,0.51759,1,,,,,,46,WORD,"ID",50,single,SINGLE,m,,,,,,0.120370385,-0.180555566,0,0,0,,0,392,392,105,1,
,,,,,,,,,,,,,,,,,,5f2dcc2ab5f3f20f53df3a4d,2020-08-10_13h22.53.149,lexical_decision_task_MP,2020.1.3,Win32,60,m,1,0.58333,,,,,,,,0.58333,1,,,,,,153,WORD,UN,50,author,BEHOLD,m,,,,,,0.120370385,-0.180555566,0,0,0,,0,393,393,212,1,
,,,,,,,,,,,,,,,,,,5f2dcc2ab5f3f20f53df3a4d,2020-08-10_13h22.53.149,lexical_decision_task_MP,2020.1.3,Win32,60,z,1,0.9563,,,,,,,,0.9563,1,,,,,,420,NW,UN,50,pauche,GUSHOP,z,,,,,,0.120370385,-0.180555566,0,0,0,,0,394,394,479,1,
,,,,,,,,,,,,,,,,,,5f2dcc2ab5f3f20f53df3a4d,2020-08-10_13h22.53.149,lexical_decision_task_MP,2020.1.3,Win32,60,z,1,1.0539,,,,,,,,1.0539,1,,,,,,444,NW,"ID",33,jaunce,JAUNCE,z,,,,,,0.120370385,-0.180555566,0,0,0,,0,395,395,263,1,
,,,,,,,,,,,,,,,,,,5f2dcc2ab5f3f20f53df3a4d,2020-08-10_13h22.53.149,lexical_decision_task_MP,2020.1.3,Win32,60,m,1,0.642885,,,,,,,,0.642885,1,,,,,,97,WORD,UN,33,belong,CLIENT,m,,,,,,0.120370385,-0.180555566,0,0,0,,0,396,396,156,1,
,,,,,,,,,,,,,,,,,,5f2dcc2ab5f3f20f53df3a4d,2020-08-10_13h22.53.149,lexical_decision_task_MP,2020.1.3,Win32,60,m,1,1.20569,,,,,,,,1.20569,1,,,,,,10,WORD,"ID",50,ethnic,ETHNIC,m,,,,,,0.120370385,-0.180555566,0,0,0,,0,397,397,69,1,
,,,,,,,,,,,,,,,,,,5f2dcc2ab5f3f20f53df3a4d,2020-08-10_13h22.53.149,lexical_decision_task_MP,2020.1.3,Win32,60,z,1,0.65544,,,,,,,,0.65544,1,,,,,,447,NW,"ID",33,gircue,GIRCUE,z,,,,,,0.120370385,-0.180555566,0,0,0,,0,398,398,266,1,
,,,,,,,,,,,,,,,,,,5f2dcc2ab5f3f20f53df3a4d,2020-08-10_13h22.53.149,lexical_decision_task_MP,2020.1.3,Win32,60,m,1,0.48421,,,,,,,,0.48421,1,,,,,,237,WORD,"ID",33,poster,POSTER,m,,,,,,0.120370385,-0.180555566,0,0,0,,0,399,399,56,1,
,,,,,,,,,,,,,,,,,,5f2dcc2ab5f3f20f53df3a4d,2020-08-10_13h22.53.149,lexical_decision_task_MP,2020.1.3,Win32,60,m,1,0.64017,,,,,,,,0.64017,1,,,,,,7,WORD,"ID",50,anchor,ANCHOR,m,,,,,,0.120370385,-0.180555566,0,0,0,,0,400,400,66,1,
,,,,,,,,,,,,,,,,,,5f2dcc2ab5f3f20f53df3a4d,2020-08-10_13h22.53.149,lexical_decision_task_MP,2020.1.3,Win32,60,m,1,0.531385,,,,,,,,0.531385,1,,,,,,52,WORD,"ID",50,impose,IMPOSE,m,,,,,,0.120370385,-0.180555566,0,0,0,,0,401,401,111,1,
,,,,,,,,,,,,,,,,,,5f2dcc2ab5f3f20f53df3a4d,2020-08-10_13h22.53.149,lexical_decision_task_MP,2020.1.3,Win32,60,m,1,0.618645,,,,,,,,0.618645,1,,,,,,193,WORD,"ID",33,object,OBJECT,m,,,,,,0.120370385,-0.180555566,0,0,0,,0,402,402,12,1,
,,,,,,,,,,,,,,,,,,5f2dcc2ab5f3f20f53df3a4d,2020-08-10_13h22.53.149,lexical_decision_task_MP,2020.1.3,Win32,60,z,1,0.931015,,,,,,,,0.931015,1,,,,,,289,NW,"ID",50,starby,STARBY,z,,,,,,0.120370385,-0.180555566,0,0,0,,0,403,403,348,1,
,,,,,,,,,,,,,,,,,,5f2dcc2ab5f3f20f53df3a4d,2020-08-10_13h22.53.149,lexical_decision_task_MP,2020.1.3,Win32,60,z,1,0.668615,,,,,,,,0.668615,1,,,,,,356,NW,UN,33,derain,OTHNIS,z,,,,,,0.120370385,-0.180555566,0,0,0,,0,404,404,415,1,
