counterbalancing_condition,instr_done_keyboard.keys,instr_done_keyboard.rt,instr_done_touch.x,instr_done_touch.y,instr_done_touch.leftButton,instr_done_touch.midButton,instr_done_touch.rightButton,instruction_pages.thisRepN,instruction_pages.thisTrialN,instruction_pages.thisN,instruction_pages.thisIndex,instruction_pages.ran,pageN,phase,instruct_text,has_image,instruct_image,participant,date,expName,psychopyVersion,OS,frameRate,response.keys,response.corr,response.rt,touch_resp.x,touch_resp.y,touch_resp.leftButton,touch_resp.midButton,touch_resp.rightButton,touch_resp.time,touch_resp.clicked_name,rt,corr,practice_trials.thisRepN,practice_trials.thisTrialN,practice_trials.thisN,practice_trials.thisIndex,practice_trials.ran,TrialID,StimulusType,Condition,PrimeDuration,Prime,Target,corrAns,end_of_practice_trials_pages.thisRepN,end_of_practice_trials_pages.thisTrialN,end_of_practice_trials_pages.thisN,end_of_practice_trials_pages.thisIndex,end_of_practice_trials_pages.ran,break_done_touch.x,break_done_touch.y,break_done_touch.leftButton,break_done_touch.midButton,break_done_touch.rightButton,break_done_keyboard.keys,trials.thisRepN,trials.thisTrialN,trials.thisN,trials.thisIndex,trials.ran,break_done_keyboard.rt,break_done_touch.clicked_name
3,space,18.415965,0.275925926,-0.230555556,0,0,0,0,0,0,0,1,1,instructions,"INSTRUCTIONS
At the start of each trial, look at the hash marks (######) in the center of the screen. After a moment, a string of letters will appear. Your task is to indicate if the letter string forms a word or not (i.e., if it is a nonword). For example, AUTHOR is a word while AUTHON is a nonword.

Press the space bar or touch the button below to continue.",0,,5f2d9bac4a634e09294684c9,2020-08-10_15h29.13.085,lexical_decision_task_MP,2020.1.3,Win32,60,,,,,,,,,,,,,,,,,,,,,,,,,,,,,,,,,,,,,,,,,,
,space,9.933925,0.275925926,-0.230555556,0,0,0,0,1,1,1,1,2,instructions,"If your device has a keyboard, press the 'Z' key for nonwords and the 'M' key for words.





Press the space bar or touch the button below to continue.",1,keyboard-example.gif,5f2d9bac4a634e09294684c9,2020-08-10_15h29.13.085,lexical_decision_task_MP,2020.1.3,Win32,60,,,,,,,,,,,,,,,,,,,,,,,,,,,,,,,,,,,,,,,,,,
,space,7.699345,0.275925926,-0.230555556,0,0,0,0,2,2,2,1,3,instructions,"If you are using a touchscreen only device, use the buttons on the screen. Do not use the mouse.





Press the space bar or touch the button below to continue.",1,touchscreen-example.gif,5f2d9bac4a634e09294684c9,2020-08-10_15h29.13.085,lexical_decision_task_MP,2020.1.3,Win32,60,,,,,,,,,,,,,,,,,,,,,,,,,,,,,,,,,,,,,,,,,,
,space,14.31452,0.275925926,-0.230555556,0,0,0,0,3,3,3,1,4,instructions,"It is very important that you respond as quickly and accurately as possible, as each letter string will only be on the screen for two seconds. If you do not respond within this time, the message 'Too slow!' will be displayed and the experiment will progress to the next letter string. The first 20 trials will be practice trials and you will receive feedback on your answers. 

Press the space bar or touch the button below to start the practice trials.",0,,5f2d9bac4a634e09294684c9,2020-08-10_15h29.13.085,lexical_decision_task_MP,2020.1.3,Win32,60,,,,,,,,,,,,,,,,,,,,,,,,,,,,,,,,,,,,,,,,,,
,,,,,,,,,,,,,,,,,,5f2d9bac4a634e09294684c9,2020-08-10_15h29.13.085,lexical_decision_task_MP,2020.1.3,Win32,60,m,1,0.96632,,,,,,,,0.96632,1,0,0,0,2,1,1003,WORD,"ID",50,almond,ALMOND,m,,,,,,,,,,,,,,,,,,
,,,,,,,,,,,,,,,,,,5f2d9bac4a634e09294684c9,2020-08-10_15h29.13.085,lexical_decision_task_MP,2020.1.3,Win32,60,z,1,0.81437,,,,,,,,0.81437,1,0,1,1,14,1,1015,NW,UN,50,miaber,THRALE,z,,,,,,,,,,,,,,,,,,
,,,,,,,,,,,,,,,,,,5f2d9bac4a634e09294684c9,2020-08-10_15h29.13.085,lexical_decision_task_MP,2020.1.3,Win32,60,z,1,0.753975,,,,,,,,0.753975,1,0,2,2,8,1,1009,NW,"ID",33,aslert,ASLERT,z,,,,,,,,,,,,,,,,,,
,,,,,,,,,,,,,,,,,,5f2d9bac4a634e09294684c9,2020-08-10_15h29.13.085,lexical_decision_task_MP,2020.1.3,Win32,60,z,0,0.648305,,,,,,,,0.648305,0,0,3,3,0,1,1001,WORD,"ID",33,utopia,UTOPIA,m,,,,,,,,,,,,,,,,,,
,,,,,,,,,,,,,,,,,,5f2d9bac4a634e09294684c9,2020-08-10_15h29.13.085,lexical_decision_task_MP,2020.1.3,Win32,60,m,0,1.137485,,,,,,,,1.137485,0,0,4,4,10,1,1011,NW,"ID",50,inlade,INLADE,z,,,,,,,,,,,,,,,,,,
,,,,,,,,,,,,,,,,,,5f2d9bac4a634e09294684c9,2020-08-10_15h29.13.085,lexical_decision_task_MP,2020.1.3,Win32,60,m,1,0.708635,,,,,,,,0.708635,1,0,5,5,3,1,1004,WORD,"ID",50,matrix,MATRIX,m,,,,,,,,,,,,,,,,,,
,,,,,,,,,,,,,,,,,,5f2d9bac4a634e09294684c9,2020-08-10_15h29.13.085,lexical_decision_task_MP,2020.1.3,Win32,60,m,1,0.70178,,,,,,,,0.70178,1,0,6,6,1,1,1002,WORD,"ID",33,adjust,ADJUST,m,,,,,,,,,,,,,,,,,,
,,,,,,,,,,,,,,,,,,5f2d9bac4a634e09294684c9,2020-08-10_15h29.13.085,lexical_decision_task_MP,2020.1.3,Win32,60,z,1,0.948255,,,,,,,,0.948255,1,0,7,7,9,1,1010,NW,"ID",33,fariny,FARINY,z,,,,,,,,,,,,,,,,,,
,,,,,,,,,,,,,,,,,,5f2d9bac4a634e09294684c9,2020-08-10_15h29.13.085,lexical_decision_task_MP,2020.1.3,Win32,60,m,1,0.87051,,,,,,,,0.87051,1,0,8,8,4,1,1005,WORD,UN,33,abound,SQUEAK,m,,,,,,,,,,,,,,,,,,
,,,,,,,,,,,,,,,,,,5f2d9bac4a634e09294684c9,2020-08-10_15h29.13.085,lexical_decision_task_MP,2020.1.3,Win32,60,m,1,0.614235,,,,,,,,0.614235,1,0,9,9,7,1,1008,WORD,UN,50,hurdle,VOLUME,m,,,,,,,,,,,,,,,,,,
,,,,,,,,,,,,,,,,,,5f2d9bac4a634e09294684c9,2020-08-10_15h29.13.085,lexical_decision_task_MP,2020.1.3,Win32,60,z,1,1.22172,,,,,,,,1.22172,1,0,10,10,11,1,1012,NW,"ID",50,rashet,RASHET,z,,,,,,,,,,,,,,,,,,
,,,,,,,,,,,,,,,,,,5f2d9bac4a634e09294684c9,2020-08-10_15h29.13.085,lexical_decision_task_MP,2020.1.3,Win32,60,z,1,0.95488,,,,,,,,0.95488,1,0,11,11,12,1,1013,NW,UN,33,adveil,SPRINY,z,,,,,,,,,,,,,,,,,,
,,,,,,,,,,,,,,,,,,5f2d9bac4a634e09294684c9,2020-08-10_15h29.13.085,lexical_decision_task_MP,2020.1.3,Win32,60,m,1,0.67773,,,,,,,,0.67773,1,0,12,12,5,1,1006,WORD,UN,33,frenzy,OBTAIN,m,,,,,,,,,,,,,,,,,,
,,,,,,,,,,,,,,,,,,5f2d9bac4a634e09294684c9,2020-08-10_15h29.13.085,lexical_decision_task_MP,2020.1.3,Win32,60,m,1,0.599665,,,,,,,,0.599665,1,0,13,13,6,1,1007,WORD,UN,50,tropic,ZOMBIE,m,,,,,,,,,,,,,,,,,,
,,,,,,,,,,,,,,,,,,5f2d9bac4a634e09294684c9,2020-08-10_15h29.13.085,lexical_decision_task_MP,2020.1.3,Win32,60,m,0,0.76593,,,,,,,,0.76593,0,0,14,14,13,1,1014,NW,UN,33,winfer,ROUPET,z,,,,,,,,,,,,,,,,,,
,,,,,,,,,,,,,,,,,,5f2d9bac4a634e09294684c9,2020-08-10_15h29.13.085,lexical_decision_task_MP,2020.1.3,Win32,60,z,1,0.74376,,,,,,,,0.74376,1,0,15,15,15,1,1016,NW,UN,50,mushed,WHAISE,z,,,,,,,,,,,,,,,,,,
,space,19.731425,0.275925926,-0.230555556,0,0,0,,,,,,1,end_of_practice,"You have completed the practice trials. During the experimental trials, you will not receive feedback, but it is very important that you respond as quickly and accurately as possible. 
Before you begin, please ensure that you are in a comfortable and quiet location and will not be disturbed for about 15 minutes, as we cannot use your data if you do not complete all the trials. 
There will be opportunities to take breaks at regular intervals during the experiment. When you are ready to start the experimental trials, please press space or touch the button below.",,,5f2d9bac4a634e09294684c9,2020-08-10_15h29.13.085,lexical_decision_task_MP,2020.1.3,Win32,60,,,,,,,,,,,,,,,,,,,,,,,,,0,0,0,0,1,,,,,,,,,,,,,
,,,,,,,,,,,,,,,,,,5f2d9bac4a634e09294684c9,2020-08-10_15h29.13.085,lexical_decision_task_MP,2020.1.3,Win32,60,z,1,0.748655,,,,,,,,0.748655,1,,,,,,287,NW,UN,50,yaceup,NYMBEL,z,,,,,,0.275925926,-0.230555556,0,0,0,,0,0,0,466,1,,
,,,,,,,,,,,,,,,,,,5f2d9bac4a634e09294684c9,2020-08-10_15h29.13.085,lexical_decision_task_MP,2020.1.3,Win32,60,z,1,0.695035,,,,,,,,0.695035,1,,,,,,440,NW,UN,33,rastoe,SARIDE,z,,,,,,0.275925926,-0.230555556,0,0,0,,0,1,1,379,1,,
,,,,,,,,,,,,,,,,,,5f2d9bac4a634e09294684c9,2020-08-10_15h29.13.085,lexical_decision_task_MP,2020.1.3,Win32,60,z,1,1.0559,,,,,,,,1.0559,1,,,,,,299,NW,UN,50,yarion,STURCH,z,,,,,,0.275925926,-0.230555556,0,0,0,,0,2,2,478,1,,
,,,,,,,,,,,,,,,,,,5f2d9bac4a634e09294684c9,2020-08-10_15h29.13.085,lexical_decision_task_MP,2020.1.3,Win32,60,m,0,1.139055,,,,,,,,1.139055,0,,,,,,395,NW,"ID",50,colury,COLURY,z,,,,,,0.275925926,-0.230555556,0,0,0,,0,3,3,334,1,,
,,,,,,,,,,,,,,,,,,5f2d9bac4a634e09294684c9,2020-08-10_15h29.13.085,lexical_decision_task_MP,2020.1.3,Win32,60,z,1,1.482645,,,,,,,,1.482645,1,,,,,,399,NW,"ID",50,fouret,FOURET,z,,,,,,0.275925926,-0.230555556,0,0,0,,0,4,4,338,1,,
,,,,,,,,,,,,,,,,,,5f2d9bac4a634e09294684c9,2020-08-10_15h29.13.085,lexical_decision_task_MP,2020.1.3,Win32,60,m,1,0.81115,,,,,,,,0.81115,1,,,,,,166,WORD,"ID",50,starch,STARCH,m,,,,,,0.275925926,-0.230555556,0,0,0,,0,5,5,105,1,,
,,,,,,,,,,,,,,,,,,5f2d9bac4a634e09294684c9,2020-08-10_15h29.13.085,lexical_decision_task_MP,2020.1.3,Win32,60,m,1,0.649035,,,,,,,,0.649035,1,,,,,,20,WORD,UN,50,simple,BREAST,m,,,,,,0.275925926,-0.230555556,0,0,0,,0,6,6,199,1,,
,,,,,,,,,,,,,,,,,,5f2d9bac4a634e09294684c9,2020-08-10_15h29.13.085,lexical_decision_task_MP,2020.1.3,Win32,60,m,1,0.57905,,,,,,,,0.57905,1,,,,,,221,WORD,UN,33,hinder,MASCOT,m,,,,,,0.275925926,-0.230555556,0,0,0,,0,7,7,160,1,,
,,,,,,,,,,,,,,,,,,5f2d9bac4a634e09294684c9,2020-08-10_15h29.13.085,lexical_decision_task_MP,2020.1.3,Win32,60,z,1,1.04646,,,,,,,,1.04646,1,,,,,,431,NW,UN,33,lunker,CHRUMS,z,,,,,,0.275925926,-0.230555556,0,0,0,,0,8,8,370,1,,
,,,,,,,,,,,,,,,,,,5f2d9bac4a634e09294684c9,2020-08-10_15h29.13.085,lexical_decision_task_MP,2020.1.3,Win32,60,m,1,1.06578,,,,,,,,1.06578,1,,,,,,50,WORD,UN,50,hungry,SNATCH,m,,,,,,0.275925926,-0.230555556,0,0,0,,0,9,9,229,1,,
,,,,,,,,,,,,,,,,,,5f2d9bac4a634e09294684c9,2020-08-10_15h29.13.085,lexical_decision_task_MP,2020.1.3,Win32,60,z,1,0.92297,,,,,,,,0.92297,1,,,,,,377,NW,"ID",50,injore,INJORE,z,,,,,,0.275925926,-0.230555556,0,0,0,,0,10,10,316,1,,
,,,,,,,,,,,,,,,,,,5f2d9bac4a634e09294684c9,2020-08-10_15h29.13.085,lexical_decision_task_MP,2020.1.3,Win32,60,z,1,1.303805,,,,,,,,1.303805,1,,,,,,444,NW,UN,33,minkel,JAUNCE,z,,,,,,0.275925926,-0.230555556,0,0,0,,0,11,11,383,1,,
,,,,,,,,,,,,,,,,,,5f2d9bac4a634e09294684c9,2020-08-10_15h29.13.085,lexical_decision_task_MP,2020.1.3,Win32,60,m,0,1.35309,,,,,,,,1.35309,0,,,,,,271,NW,UN,50,damilt,AUBRID,z,,,,,,0.275925926,-0.230555556,0,0,0,,0,12,12,450,1,,
,,,,,,,,,,,,,,,,,,5f2d9bac4a634e09294684c9,2020-08-10_15h29.13.085,lexical_decision_task_MP,2020.1.3,Win32,60,m,1,0.652015,,,,,,,,0.652015,1,,,,,,112,WORD,"ID",33,breath,BREATH,m,,,,,,0.275925926,-0.230555556,0,0,0,,0,13,13,51,1,,
,,,,,,,,,,,,,,,,,,5f2d9bac4a634e09294684c9,2020-08-10_15h29.13.085,lexical_decision_task_MP,2020.1.3,Win32,60,z,1,0.75856,,,,,,,,0.75856,1,,,,,,288,NW,UN,50,starby,YACEUP,z,,,,,,0.275925926,-0.230555556,0,0,0,,0,14,14,467,1,,
,,,,,,,,,,,,,,,,,,5f2d9bac4a634e09294684c9,2020-08-10_15h29.13.085,lexical_decision_task_MP,2020.1.3,Win32,60,m,1,0.70255,,,,,,,,0.70255,1,,,,,,215,WORD,UN,33,lumber,PHOBIA,m,,,,,,0.275925926,-0.230555556,0,0,0,,0,15,15,154,1,,
,,,,,,,,,,,,,,,,,,5f2d9bac4a634e09294684c9,2020-08-10_15h29.13.085,lexical_decision_task_MP,2020.1.3,Win32,60,m,1,0.754625,,,,,,,,0.754625,1,,,,,,55,WORD,UN,50,ambush,STROKE,m,,,,,,0.275925926,-0.230555556,0,0,0,,0,16,16,234,1,,
,,,,,,,,,,,,,,,,,,5f2d9bac4a634e09294684c9,2020-08-10_15h29.13.085,lexical_decision_task_MP,2020.1.3,Win32,60,z,0,1.137765,,,,,,,,1.137765,0,,,,,,227,WORD,UN,33,master,SELDOM,m,,,,,,0.275925926,-0.230555556,0,0,0,,0,17,17,166,1,,
,,,,,,,,,,,,,,,,,,5f2d9bac4a634e09294684c9,2020-08-10_15h29.13.085,lexical_decision_task_MP,2020.1.3,Win32,60,m,1,0.632105,,,,,,,,0.632105,1,,,,,,93,WORD,"ID",33,public,PUBLIC,m,,,,,,0.275925926,-0.230555556,0,0,0,,0,18,18,32,1,,
,,,,,,,,,,,,,,,,,,5f2d9bac4a634e09294684c9,2020-08-10_15h29.13.085,lexical_decision_task_MP,2020.1.3,Win32,60,m,1,0.58986,,,,,,,,0.58986,1,,,,,,199,WORD,UN,33,plague,INVOKE,m,,,,,,0.275925926,-0.230555556,0,0,0,,0,19,19,138,1,,
,,,,,,,,,,,,,,,,,,5f2d9bac4a634e09294684c9,2020-08-10_15h29.13.085,lexical_decision_task_MP,2020.1.3,Win32,60,m,1,0.584485,,,,,,,,0.584485,1,,,,,,15,WORD,UN,50,faucet,AMOUNT,m,,,,,,0.275925926,-0.230555556,0,0,0,,0,20,20,194,1,,
,,,,,,,,,,,,,,,,,,5f2d9bac4a634e09294684c9,2020-08-10_15h29.13.085,lexical_decision_task_MP,2020.1.3,Win32,60,m,1,1.09892,,,,,,,,1.09892,1,,,,,,177,WORD,"ID",50,advent,ADVENT,m,,,,,,0.275925926,-0.230555556,0,0,0,,0,21,21,116,1,,
,,,,,,,,,,,,,,,,,,5f2d9bac4a634e09294684c9,2020-08-10_15h29.13.085,lexical_decision_task_MP,2020.1.3,Win32,60,m,1,0.56233,,,,,,,,0.56233,1,,,,,,41,WORD,UN,50,chapel,SPRING,m,,,,,,0.275925926,-0.230555556,0,0,0,,0,22,22,220,1,,
,,,,,,,,,,,,,,,,,,5f2d9bac4a634e09294684c9,2020-08-10_15h29.13.085,lexical_decision_task_MP,2020.1.3,Win32,60,m,1,0.550455,,,,,,,,0.550455,1,,,,,,189,WORD,UN,33,backup,CENSOR,m,,,,,,0.275925926,-0.230555556,0,0,0,,0,23,23,128,1,,
,,,,,,,,,,,,,,,,,,5f2d9bac4a634e09294684c9,2020-08-10_15h29.13.085,lexical_decision_task_MP,2020.1.3,Win32,60,z,1,0.65806,,,,,,,,0.65806,1,,,,,,331,NW,"ID",33,gilfew,GILFEW,z,,,,,,0.275925926,-0.230555556,0,0,0,,0,24,24,270,1,,
,,,,,,,,,,,,,,,,,,5f2d9bac4a634e09294684c9,2020-08-10_15h29.13.085,lexical_decision_task_MP,2020.1.3,Win32,60,m,1,0.5174,,,,,,,,0.5174,1,,,,,,84,WORD,"ID",33,mortal,MORTAL,m,,,,,,0.275925926,-0.230555556,0,0,0,,0,25,25,23,1,,
,,,,,,,,,,,,,,,,,,5f2d9bac4a634e09294684c9,2020-08-10_15h29.13.085,lexical_decision_task_MP,2020.1.3,Win32,60,m,1,0.610245,,,,,,,,0.610245,1,,,,,,226,WORD,UN,33,flower,CASINO,m,,,,,,0.275925926,-0.230555556,0,0,0,,0,26,26,165,1,,
,,,,,,,,,,,,,,,,,,5f2d9bac4a634e09294684c9,2020-08-10_15h29.13.085,lexical_decision_task_MP,2020.1.3,Win32,60,z,1,0.850835,,,,,,,,0.850835,1,,,,,,246,NW,UN,50,blarge,PIATON,z,,,,,,0.275925926,-0.230555556,0,0,0,,0,27,27,425,1,,
,,,,,,,,,,,,,,,,,,5f2d9bac4a634e09294684c9,2020-08-10_15h29.13.085,lexical_decision_task_MP,2020.1.3,Win32,60,z,1,0.97342,,,,,,,,0.97342,1,,,,,,379,NW,"ID",50,auting,AUTING,z,,,,,,0.275925926,-0.230555556,0,0,0,,0,28,28,318,1,,
,,,,,,,,,,,,,,,,,,5f2d9bac4a634e09294684c9,2020-08-10_15h29.13.085,lexical_decision_task_MP,2020.1.3,Win32,60,m,0,1.22808,,,,,,,,1.22808,0,,,,,,461,NW,UN,33,absult,JUSTRE,z,,,,,,0.275925926,-0.230555556,0,0,0,,0,29,29,400,1,,
,,,,,,,,,,,,,,,,,,5f2d9bac4a634e09294684c9,2020-08-10_15h29.13.085,lexical_decision_task_MP,2020.1.3,Win32,60,m,1,0.60776,,,,,,,,0.60776,1,,,,,,56,WORD,UN,50,change,AMBUSH,m,,,,,,0.275925926,-0.230555556,0,0,0,,0,30,30,235,1,,
,,,,,,,,,,,,,,,,,,5f2d9bac4a634e09294684c9,2020-08-10_15h29.13.085,lexical_decision_task_MP,2020.1.3,Win32,60,m,1,0.528745,,,,,,,,0.528745,1,,,,,,28,WORD,UN,50,sketch,COMEDY,m,,,,,,0.275925926,-0.230555556,0,0,0,,0,31,31,207,1,,
,,,,,,,,,,,,,,,,,,5f2d9bac4a634e09294684c9,2020-08-10_15h29.13.085,lexical_decision_task_MP,2020.1.3,Win32,60,z,1,0.70855,,,,,,,,0.70855,1,,,,,,394,NW,"ID",50,spaqux,SPAQUX,z,,,,,,0.275925926,-0.230555556,0,0,0,,0,32,32,333,1,,
,,,,,,,,,,,,,,,,,,5f2d9bac4a634e09294684c9,2020-08-10_15h29.13.085,lexical_decision_task_MP,2020.1.3,Win32,60,m,0,1.07716,,,,,,,,1.07716,0,,,,,,289,NW,UN,50,splino,STARBY,z,,,,,,0.275925926,-0.230555556,0,0,0,,0,33,33,468,1,,
,,,,,,,,,,,,,,,,,,5f2d9bac4a634e09294684c9,2020-08-10_15h29.13.085,lexical_decision_task_MP,2020.1.3,Win32,60,z,1,1.17123,,,,,,,,1.17123,1,,,,,,388,NW,"ID",50,cragin,CRAGIN,z,,,,,,0.275925926,-0.230555556,0,0,0,,0,34,34,327,1,,
,,,,,,,,,,,,,,,,,,5f2d9bac4a634e09294684c9,2020-08-10_15h29.13.085,lexical_decision_task_MP,2020.1.3,Win32,60,m,1,0.6493,,,,,,,,0.6493,1,,,,,,47,WORD,UN,50,walnut,INCOME,m,,,,,,0.275925926,-0.230555556,0,0,0,,0,35,35,226,1,,
,,,,,,,,,,,,,,,,,,5f2d9bac4a634e09294684c9,2020-08-10_15h29.13.085,lexical_decision_task_MP,2020.1.3,Win32,60,m,1,0.63622,,,,,,,,0.63622,1,,,,,,80,WORD,"ID",33,family,FAMILY,m,,,,,,0.275925926,-0.230555556,0,0,0,,0,36,36,19,1,,
,,,,,,,,,,,,,,,,,,5f2d9bac4a634e09294684c9,2020-08-10_15h29.13.085,lexical_decision_task_MP,2020.1.3,Win32,60,z,1,1.116485,,,,,,,,1.116485,1,,,,,,464,NW,UN,33,whivex,CHAITE,z,,,,,,0.275925926,-0.230555556,0,0,0,,0,37,37,403,1,,
,,,,,,,,,,,,,,,,,,5f2d9bac4a634e09294684c9,2020-08-10_15h29.13.085,lexical_decision_task_MP,2020.1.3,Win32,60,z,1,0.973165,,,,,,,,0.973165,1,,,,,,350,NW,"ID",33,nagurs,NAGURS,z,,,,,,0.275925926,-0.230555556,0,0,0,,0,38,38,289,1,,
,,,,,,,,,,,,,,,,,,5f2d9bac4a634e09294684c9,2020-08-10_15h29.13.085,lexical_decision_task_MP,2020.1.3,Win32,60,m,1,0.66701,,,,,,,,0.66701,1,,,,,,175,WORD,"ID",50,fabric,FABRIC,m,,,,,,0.275925926,-0.230555556,0,0,0,,0,39,39,114,1,,
,,,,,,,,,,,,,,,,,,5f2d9bac4a634e09294684c9,2020-08-10_15h29.13.085,lexical_decision_task_MP,2020.1.3,Win32,60,m,1,0.605595,,,,,,,,0.605595,1,,,,,,95,WORD,"ID",33,thread,THREAD,m,,,,,,0.275925926,-0.230555556,0,0,0,,0,40,40,34,1,,
,,,,,,,,,,,,,,,,,,5f2d9bac4a634e09294684c9,2020-08-10_15h29.13.085,lexical_decision_task_MP,2020.1.3,Win32,60,m,1,0.67833,,,,,,,,0.67833,1,,,,,,179,WORD,"ID",50,basket,BASKET,m,,,,,,0.275925926,-0.230555556,0,0,0,,0,41,41,118,1,,
,,,,,,,,,,,,,,,,,,5f2d9bac4a634e09294684c9,2020-08-10_15h29.13.085,lexical_decision_task_MP,2020.1.3,Win32,60,m,1,0.85302,,,,,,,,0.85302,1,,,,,,222,WORD,UN,33,export,HINDER,m,,,,,,0.275925926,-0.230555556,0,0,0,,0,42,42,161,1,,
,,,,,,,,,,,,,,,,,,5f2d9bac4a634e09294684c9,2020-08-10_15h29.13.085,lexical_decision_task_MP,2020.1.3,Win32,60,z,1,0.73618,,,,,,,,0.73618,1,,,,,,327,NW,"ID",33,plenac,PLENAC,z,,,,,,0.275925926,-0.230555556,0,0,0,,0,43,43,266,1,,
,,,,,,,,,,,,,,,,,,5f2d9bac4a634e09294684c9,2020-08-10_15h29.13.085,lexical_decision_task_MP,2020.1.3,Win32,60,m,1,0.559525,,,,,,,,0.559525,1,,,,,,126,WORD,"ID",50,enough,ENOUGH,m,,,,,,0.275925926,-0.230555556,0,0,0,,0,44,44,65,1,,
,,,,,,,,,,,,,,,,,,5f2d9bac4a634e09294684c9,2020-08-10_15h29.13.085,lexical_decision_task_MP,2020.1.3,Win32,60,z,1,1.51069,,,,,,,,1.51069,1,,,,,,425,NW,UN,33,urivel,FRUDGE,z,,,,,,0.275925926,-0.230555556,0,0,0,,0,45,45,364,1,,
,,,,,,,,,,,,,,,,,,5f2d9bac4a634e09294684c9,2020-08-10_15h29.13.085,lexical_decision_task_MP,2020.1.3,Win32,60,m,1,0.632155,,,,,,,,0.632155,1,,,,,,62,WORD,"ID",33,region,REGION,m,,,,,,0.275925926,-0.230555556,0,0,0,,0,46,46,1,1,,
,,,,,,,,,,,,,,,,,,5f2d9bac4a634e09294684c9,2020-08-10_15h29.13.085,lexical_decision_task_MP,2020.1.3,Win32,60,m,1,0.582355,,,,,,,,0.582355,1,,,,,,66,WORD,"ID",33,gospel,GOSPEL,m,,,,,,0.275925926,-0.230555556,0,0,0,,0,47,47,5,1,,
,,,,,,,,,,,,,,,,,,5f2d9bac4a634e09294684c9,2020-08-10_15h29.13.085,lexical_decision_task_MP,2020.1.3,Win32,60,m,1,0.517525,,,,,,,,0.517525,1,,,,,,127,WORD,"ID",50,castle,CASTLE,m,,,,,,0.275925926,-0.230555556,0,0,0,,0,48,48,66,1,,
,,,,,,,,,,,,,,,,,,5f2d9bac4a634e09294684c9,2020-08-10_15h29.13.085,lexical_decision_task_MP,2020.1.3,Win32,60,z,1,1.10562,,,,,,,,1.10562,1,,,,,,277,NW,UN,50,unighs,PETAIN,z,,,,,,0.275925926,-0.230555556,0,0,0,,0,49,49,456,1,,
,,,,,,,,,,,,,,,,,,5f2d9bac4a634e09294684c9,2020-08-10_15h29.13.085,lexical_decision_task_MP,2020.1.3,Win32,60,m,1,0.56241,,,,,,,,0.56241,1,,,,,,38,WORD,UN,50,insect,POWDER,m,,,,,,0.275925926,-0.230555556,0,0,0,,0,50,50,217,1,,
,,,,,,,,,,,,,,,,,,5f2d9bac4a634e09294684c9,2020-08-10_15h29.13.085,lexical_decision_task_MP,2020.1.3,Win32,60,z,1,1.089635,,,,,,,,1.089635,1,,,,,,466,NW,UN,33,robuly,HOCITE,z,,,,,,0.275925926,-0.230555556,0,0,0,,0,51,51,405,1,,
,,,,,,,,,,,,,,,,,,5f2d9bac4a634e09294684c9,2020-08-10_15h29.13.085,lexical_decision_task_MP,2020.1.3,Win32,60,m,1,0.710585,,,,,,,,0.710585,1,,,,,,224,WORD,UN,33,vulgar,PERIOD,m,,,,,,0.275925926,-0.230555556,0,0,0,,0,52,52,163,1,,
,,,,,,,,,,,,,,,,,,5f2d9bac4a634e09294684c9,2020-08-10_15h29.13.085,lexical_decision_task_MP,2020.1.3,Win32,60,z,1,0.84919,,,,,,,,0.84919,1,,,,,,300,NW,UN,50,smenco,YARION,z,,,,,,0.275925926,-0.230555556,0,0,0,,0,53,53,479,1,,
,,,,,,,,,,,,,,,,,,5f2d9bac4a634e09294684c9,2020-08-10_15h29.13.085,lexical_decision_task_MP,2020.1.3,Win32,60,m,1,0.660045,,,,,,,,0.660045,1,,,,,,74,WORD,"ID",33,plaque,PLAQUE,m,,,,,,0.275925926,-0.230555556,0,0,0,,0,54,54,13,1,,
,,,,,,,,,,,,,,,,,,5f2d9bac4a634e09294684c9,2020-08-10_15h29.13.085,lexical_decision_task_MP,2020.1.3,Win32,60,m,1,0.607645,,,,,,,,0.607645,1,,,,,,102,WORD,"ID",33,direct,DIRECT,m,,,,,,0.275925926,-0.230555556,0,0,0,,0,55,55,41,1,,
,,,,,,,,,,,,,,,,,,5f2d9bac4a634e09294684c9,2020-08-10_15h29.13.085,lexical_decision_task_MP,2020.1.3,Win32,60,m,1,0.64998,,,,,,,,0.64998,1,,,,,,159,WORD,"ID",50,detail,DETAIL,m,,,,,,0.275925926,-0.230555556,0,0,0,,0,56,56,98,1,,
,,,,,,,,,,,,,,,,,,5f2d9bac4a634e09294684c9,2020-08-10_15h29.13.085,lexical_decision_task_MP,2020.1.3,Win32,60,z,1,1.0661,,,,,,,,1.0661,1,,,,,,390,NW,"ID",50,hatrus,HATRUS,z,,,,,,0.275925926,-0.230555556,0,0,0,,0,57,57,329,1,,
,,,,,,,,,,,,,,,,,,5f2d9bac4a634e09294684c9,2020-08-10_15h29.13.085,lexical_decision_task_MP,2020.1.3,Win32,60,z,1,1.003365,,,,,,,,1.003365,1,,,,,,428,NW,UN,33,funtle,TANDLY,z,,,,,,0.275925926,-0.230555556,0,0,0,,0,58,58,367,1,,
,,,,,,,,,,,,,,,,,,5f2d9bac4a634e09294684c9,2020-08-10_15h29.13.085,lexical_decision_task_MP,2020.1.3,Win32,60,z,1,0.87293,,,,,,,,0.87293,1,,,,,,334,NW,"ID",33,watmeg,WATMEG,z,,,,,,0.275925926,-0.230555556,0,0,0,,0,59,59,273,1,,
,,,,,,,,,,,,,,,,,,5f2d9bac4a634e09294684c9,2020-08-10_15h29.13.085,lexical_decision_task_MP,2020.1.3,Win32,60,m,1,0.69943,,,,,,,,0.69943,1,,,,,,217,WORD,UN,33,shrink,LIQUOR,m,,,,,,0.275925926,-0.230555556,0,0,0,,0,60,60,156,1,,
,,,,,,,,,,,,,,,,,,5f2d9bac4a634e09294684c9,2020-08-10_15h29.13.085,lexical_decision_task_MP,2020.1.3,Win32,60,m,1,0.636575,,,,,,,,0.636575,1,,,,,,185,WORD,UN,33,portal,BOTHER,m,,,,,,0.275925926,-0.230555556,0,0,0,,0,61,61,124,1,,
,,,,,,,,,,,,,,,,,,5f2d9bac4a634e09294684c9,2020-08-10_15h29.13.085,lexical_decision_task_MP,2020.1.3,Win32,60,m,1,0.68786,,,,,,,,0.68786,1,,,,,,138,WORD,"ID",50,melody,MELODY,m,,,,,,0.275925926,-0.230555556,0,0,0,,0,62,62,77,1,,
,,,,,,,,,,,,,,,,,,5f2d9bac4a634e09294684c9,2020-08-10_15h29.13.085,lexical_decision_task_MP,2020.1.3,Win32,60,z,1,1.518035,,,,,,,,1.518035,1,,,,,,429,NW,UN,33,caroey,FUNTLE,z,,,,,,0.275925926,-0.230555556,0,0,0,,0,63,63,368,1,,
,,,,,,,,,,,,,,,,,,5f2d9bac4a634e09294684c9,2020-08-10_15h29.13.085,lexical_decision_task_MP,2020.1.3,Win32,60,m,1,0.594405,,,,,,,,0.594405,1,,,,,,229,WORD,UN,33,fringe,MOTHER,m,,,,,,0.275925926,-0.230555556,0,0,0,,0,64,64,168,1,,
,,,,,,,,,,,,,,,,,,5f2d9bac4a634e09294684c9,2020-08-10_15h29.13.085,lexical_decision_task_MP,2020.1.3,Win32,60,z,1,0.824845,,,,,,,,0.824845,1,,,,,,290,NW,UN,50,pretch,SPLINO,z,,,,,,0.275925926,-0.230555556,0,0,0,,0,65,65,469,1,,
,,,,,,,,,,,,,,,,,,5f2d9bac4a634e09294684c9,2020-08-10_15h29.13.085,lexical_decision_task_MP,2020.1.3,Win32,60,z,1,0.920775,,,,,,,,0.920775,1,,,,,,455,NW,UN,33,broget,TONDLE,z,,,,,,0.275925926,-0.230555556,0,0,0,,0,66,66,394,1,,
,,,,,,,,,,,,,,,,,,5f2d9bac4a634e09294684c9,2020-08-10_15h29.13.085,lexical_decision_task_MP,2020.1.3,Win32,60,m,1,0.70876,,,,,,,,0.70876,1,,,,,,58,WORD,UN,50,splint,FOSTER,m,,,,,,0.275925926,-0.230555556,0,0,0,,0,67,67,237,1,,
,,,,,,,,,,,,,,,,,,5f2d9bac4a634e09294684c9,2020-08-10_15h29.13.085,lexical_decision_task_MP,2020.1.3,Win32,60,m,1,0.60116,,,,,,,,0.60116,1,,,,,,130,WORD,"ID",50,stupid,STUPID,m,,,,,,0.275925926,-0.230555556,0,0,0,,0,68,68,69,1,,
,,,,,,,,,,,,,,,,,,5f2d9bac4a634e09294684c9,2020-08-10_15h29.13.085,lexical_decision_task_MP,2020.1.3,Win32,60,z,0,1.74696,,,,,,,,1.74696,0,,,,,,61,WORD,"ID",33,ponder,PONDER,m,,,,,,0.275925926,-0.230555556,0,0,0,,0,69,69,0,1,,
,,,,,,,,,,,,,,,,,,5f2d9bac4a634e09294684c9,2020-08-10_15h29.13.085,lexical_decision_task_MP,2020.1.3,Win32,60,m,1,1.190225,,,,,,,,1.190225,1,,,,,,90,WORD,"ID",33,relish,RELISH,m,,,,,,0.275925926,-0.230555556,0,0,0,,0,70,70,29,1,,
,,,,,,,,,,,,,,,,,,5f2d9bac4a634e09294684c9,2020-08-10_15h29.13.085,lexical_decision_task_MP,2020.1.3,Win32,60,z,1,0.88235,,,,,,,,0.88235,1,,,,,,352,NW,"ID",33,tringe,TRINGE,z,,,,,,0.275925926,-0.230555556,0,0,0,,0,71,71,291,1,,
,,,,,,,,,,,,,,,,,,5f2d9bac4a634e09294684c9,2020-08-10_15h29.13.085,lexical_decision_task_MP,2020.1.3,Win32,60,m,1,0.685615,,,,,,,,0.685615,1,,,,,,36,WORD,UN,50,insult,VANISH,m,,,,,,0.275925926,-0.230555556,0,0,0,,0,72,72,215,1,,
,,,,,,,,,,,,,,,,,,5f2d9bac4a634e09294684c9,2020-08-10_15h29.13.085,lexical_decision_task_MP,2020.1.3,Win32,60,z,1,1.179165,,,,,,,,1.179165,1,,,,,,383,NW,"ID",50,aungre,AUNGRE,z,,,,,,0.275925926,-0.230555556,0,0,0,,0,73,73,322,1,,
,,,,,,,,,,,,,,,,,,5f2d9bac4a634e09294684c9,2020-08-10_15h29.13.085,lexical_decision_task_MP,2020.1.3,Win32,60,m,1,0.610025,,,,,,,,0.610025,1,,,,,,97,WORD,"ID",33,client,CLIENT,m,,,,,,0.275925926,-0.230555556,0,0,0,,0,74,74,36,1,,
,,,,,,,,,,,,,,,,,,5f2d9bac4a634e09294684c9,2020-08-10_15h29.13.085,lexical_decision_task_MP,2020.1.3,Win32,60,z,1,1.48229,,,,,,,,1.48229,1,,,,,,401,NW,"ID",50,mustil,MUSTIL,z,,,,,,0.275925926,-0.230555556,0,0,0,,0,75,75,340,1,,
,,,,,,,,,,,,,,,,,,5f2d9bac4a634e09294684c9,2020-08-10_15h29.13.085,lexical_decision_task_MP,2020.1.3,Win32,60,m,1,0.56041,,,,,,,,0.56041,1,,,,,,209,WORD,UN,33,monkey,SEARCH,m,,,,,,0.275925926,-0.230555556,0,0,0,,0,76,76,148,1,,
,,,,,,,,,,,,,,,,,,5f2d9bac4a634e09294684c9,2020-08-10_15h29.13.085,lexical_decision_task_MP,2020.1.3,Win32,60,m,1,0.618475,,,,,,,,0.618475,1,,,,,,155,WORD,"ID",50,lizard,LIZARD,m,,,,,,0.275925926,-0.230555556,0,0,0,,0,77,77,94,1,,
,,,,,,,,,,,,,,,,,,5f2d9bac4a634e09294684c9,2020-08-10_15h29.13.085,lexical_decision_task_MP,2020.1.3,Win32,60,m,1,0.886985,,,,,,,,0.886985,1,,,,,,16,WORD,UN,50,charge,FAUCET,m,,,,,,0.275925926,-0.230555556,0,0,0,,0,78,78,195,1,,
,,,,,,,,,,,,,,,,,,5f2d9bac4a634e09294684c9,2020-08-10_15h29.13.085,lexical_decision_task_MP,2020.1.3,Win32,60,m,1,0.66119,,,,,,,,0.66119,1,,,,,,211,WORD,UN,33,verify,INFECT,m,,,,,,0.275925926,-0.230555556,0,0,0,,0,79,79,150,1,,
,,,,,,,,,,,,,,,,,,5f2d9bac4a634e09294684c9,2020-08-10_15h29.13.085,lexical_decision_task_MP,2020.1.3,Win32,60,z,1,0.803925,,,,,,,,0.803925,1,,,,,,421,NW,UN,33,alcoud,KNISMA,z,,,,,,0.275925926,-0.230555556,0,0,0,,0,80,80,360,1,,
,,,,,,,,,,,,,,,,,,5f2d9bac4a634e09294684c9,2020-08-10_15h29.13.085,lexical_decision_task_MP,2020.1.3,Win32,60,z,1,1.133315,,,,,,,,1.133315,1,,,,,,338,NW,"ID",33,wreash,WREASH,z,,,,,,0.275925926,-0.230555556,0,0,0,,0,81,81,277,1,,
,,,,,,,,,,,,,,,,,,5f2d9bac4a634e09294684c9,2020-08-10_15h29.13.085,lexical_decision_task_MP,2020.1.3,Win32,60,z,1,0.773145,,,,,,,,0.773145,1,,,,,,309,NW,"ID",33,amiloy,AMILOY,z,,,,,,0.275925926,-0.230555556,0,0,0,,0,82,82,248,1,,
,,,,,,,,,,,,,,,,,,5f2d9bac4a634e09294684c9,2020-08-10_15h29.13.085,lexical_decision_task_MP,2020.1.3,Win32,60,m,0,1.56063,,,,,,,,1.56063,0,,,,,,355,NW,"ID",33,zingly,ZINGLY,z,,,,,,0.275925926,-0.230555556,0,0,0,,0,83,83,294,1,,
,,,,,,,,,,,,,,,,,,5f2d9bac4a634e09294684c9,2020-08-10_15h29.13.085,lexical_decision_task_MP,2020.1.3,Win32,60,z,1,1.28285,,,,,,,,1.28285,1,,,,,,410,NW,"ID",50,tunory,TUNORY,z,,,,,,0.275925926,-0.230555556,0,0,0,,0,84,84,349,1,,
,,,,,,,,,,,,,,,,,,5f2d9bac4a634e09294684c9,2020-08-10_15h29.13.085,lexical_decision_task_MP,2020.1.3,Win32,60,m,1,0.67293,,,,,,,,0.67293,1,,,,,,208,WORD,UN,33,search,HOCKEY,m,,,,,,0.275925926,-0.230555556,0,0,0,,0,85,85,147,1,,
,,,,,,,,,,,,,,,,,,5f2d9bac4a634e09294684c9,2020-08-10_15h29.13.085,lexical_decision_task_MP,2020.1.3,Win32,60,z,1,0.849175,,,,,,,,0.849175,1,,,,,,441,NW,UN,33,aboune,RASTOE,z,,,,,,0.275925926,-0.230555556,0,0,0,,0,86,86,380,1,,
,,,,,,,,,,,,,,,,,,5f2d9bac4a634e09294684c9,2020-08-10_15h29.13.085,lexical_decision_task_MP,2020.1.3,Win32,60,m,1,0.65344,,,,,,,,0.65344,1,,,,,,29,WORD,UN,50,orient,SKETCH,m,,,,,,0.275925926,-0.230555556,0,0,0,,0,87,87,208,1,,
,,,,,,,,,,,,,,,,,,5f2d9bac4a634e09294684c9,2020-08-10_15h29.13.085,lexical_decision_task_MP,2020.1.3,Win32,60,m,1,0.544605,,,,,,,,0.544605,1,,,,,,174,WORD,"ID",50,turkey,TURKEY,m,,,,,,0.275925926,-0.230555556,0,0,0,,0,88,88,113,1,,
,,,,,,,,,,,,,,,,,,5f2d9bac4a634e09294684c9,2020-08-10_15h29.13.085,lexical_decision_task_MP,2020.1.3,Win32,60,m,1,0.52484,,,,,,,,0.52484,1,,,,,,192,WORD,UN,33,object,PLAGUE,m,,,,,,0.275925926,-0.230555556,0,0,0,,0,89,89,131,1,,
,,,,,,,,,,,,,,,,,,5f2d9bac4a634e09294684c9,2020-08-10_15h29.13.085,lexical_decision_task_MP,2020.1.3,Win32,60,z,1,1.0832,,,,,,,,1.0832,1,,,,,,470,NW,UN,33,nobest,CRUDIO,z,,,,,,0.275925926,-0.230555556,0,0,0,,0,90,90,409,1,,
,,,,,,,,,,,,,,,,,,5f2d9bac4a634e09294684c9,2020-08-10_15h29.13.085,lexical_decision_task_MP,2020.1.3,Win32,60,m,1,0.84576,,,,,,,,0.84576,1,,,,,,89,WORD,"ID",33,permit,PERMIT,m,,,,,,0.275925926,-0.230555556,0,0,0,,0,91,91,28,1,,
,,,,,,,,,,,,,,,,,,5f2d9bac4a634e09294684c9,2020-08-10_15h29.13.085,lexical_decision_task_MP,2020.1.3,Win32,60,,0,,,,,,,,,0.84576,-1,,,,,,454,NW,UN,33,tondle,SCOUGE,z,,,,,,0.275925926,-0.230555556,0,0,0,,0,92,92,393,1,,
,,,,,,,,,,,,,,,,,,5f2d9bac4a634e09294684c9,2020-08-10_15h29.13.085,lexical_decision_task_MP,2020.1.3,Win32,60,m,0,0.787965,,,,,,,,0.787965,0,,,,,,354,NW,"ID",33,virlex,VIRLEX,z,,,,,,0.275925926,-0.230555556,0,0,0,,0,93,93,293,1,,
,,,,,,,,,,,,,,,,,,5f2d9bac4a634e09294684c9,2020-08-10_15h29.13.085,lexical_decision_task_MP,2020.1.3,Win32,60,z,1,0.88282,,,,,,,,0.88282,1,,,,,,380,NW,"ID",50,cavory,CAVORY,z,,,,,,0.275925926,-0.230555556,0,0,0,,0,94,94,319,1,,
,,,,,,,,,,,,,,,,,,5f2d9bac4a634e09294684c9,2020-08-10_15h29.13.085,lexical_decision_task_MP,2020.1.3,Win32,60,z,1,0.835375,,,,,,,,0.835375,1,,,,,,478,NW,UN,33,pebric,ACRISE,z,,,,,,0.275925926,-0.230555556,0,0,0,,0,95,95,417,1,,
,,,,,,,,,,,,,,,,,,5f2d9bac4a634e09294684c9,2020-08-10_15h29.13.085,lexical_decision_task_MP,2020.1.3,Win32,60,z,1,0.711395,,,,,,,,0.711395,1,,,,,,450,NW,UN,33,cainky,PHRECT,z,,,,,,0.275925926,-0.230555556,0,0,0,,0,96,96,389,1,,
,,,,,,,,,,,,,,,,,,5f2d9bac4a634e09294684c9,2020-08-10_15h29.13.085,lexical_decision_task_MP,2020.1.3,Win32,60,z,1,0.77912,,,,,,,,0.77912,1,,,,,,267,NW,UN,50,packes,PASINK,z,,,,,,0.275925926,-0.230555556,0,0,0,,0,97,97,446,1,,
,,,,,,,,,,,,,,,,,,5f2d9bac4a634e09294684c9,2020-08-10_15h29.13.085,lexical_decision_task_MP,2020.1.3,Win32,60,m,1,0.69105,,,,,,,,0.69105,1,,,,,,239,WORD,UN,33,forest,LUMBER,m,,,,,,0.275925926,-0.230555556,0,0,0,,0,98,98,178,1,,
,,,,,,,,,,,,,,,,,,5f2d9bac4a634e09294684c9,2020-08-10_15h29.13.085,lexical_decision_task_MP,2020.1.3,Win32,60,z,1,0.983685,,,,,,,,0.983685,1,,,,,,262,NW,UN,50,dolica,QUILEW,z,,,,,,0.275925926,-0.230555556,0,0,0,,0,99,99,441,1,,
,,,,,,,,,,,,,,,,,,5f2d9bac4a634e09294684c9,2020-08-10_15h29.13.085,lexical_decision_task_MP,2020.1.3,Win32,60,m,1,1.277335,,,,,,,,1.277335,1,,,,,,206,WORD,UN,33,wreath,TAILOR,m,,,,,,0.275925926,-0.230555556,0,0,0,,0,100,100,145,1,,
,,,,,,,,,,,,,,,,,,5f2d9bac4a634e09294684c9,2020-08-10_15h29.13.085,lexical_decision_task_MP,2020.1.3,Win32,60,z,1,1.26597,,,,,,,,1.26597,1,,,,,,266,NW,UN,50,pasink,VARMIT,z,,,,,,0.275925926,-0.230555556,0,0,0,,0,101,101,445,1,,
,,,,,,,,,,,,,,,,,,5f2d9bac4a634e09294684c9,2020-08-10_15h29.13.085,lexical_decision_task_MP,2020.1.3,Win32,60,z,1,0.878665,,,,,,,,0.878665,1,,,,,,257,NW,UN,50,poluth,VENIOD,z,,,,,,0.275925926,-0.230555556,0,0,0,,0,102,102,436,1,,
,,,,,,,,,,,,,,,,,,5f2d9bac4a634e09294684c9,2020-08-10_15h29.13.085,lexical_decision_task_MP,2020.1.3,Win32,60,z,1,0.921415,,,,,,,,0.921415,1,,,,,,476,NW,UN,33,photie,JOSTED,z,,,,,,0.275925926,-0.230555556,0,0,0,,0,103,103,415,1,,
,,,,,,,,,,,,,,,,,,5f2d9bac4a634e09294684c9,2020-08-10_15h29.13.085,lexical_decision_task_MP,2020.1.3,Win32,60,z,1,0.76903,,,,,,,,0.76903,1,,,,,,375,NW,"ID",50,yorque,YORQUE,z,,,,,,0.275925926,-0.230555556,0,0,0,,0,104,104,314,1,,
,,,,,,,,,,,,,,,,,,5f2d9bac4a634e09294684c9,2020-08-10_15h29.13.085,lexical_decision_task_MP,2020.1.3,Win32,60,m,1,0.68403,,,,,,,,0.68403,1,,,,,,105,WORD,"ID",33,number,NUMBER,m,,,,,,0.275925926,-0.230555556,0,0,0,,0,105,105,44,1,,
,,,,,,,,,,,,,,,,,,5f2d9bac4a634e09294684c9,2020-08-10_15h29.13.085,lexical_decision_task_MP,2020.1.3,Win32,60,z,1,1.32979,,,,,,,,1.32979,1,,,,,,311,NW,"ID",33,sproly,SPROLY,z,,,,,,0.275925926,-0.230555556,0,0,0,,0,106,106,250,1,,
,,,,,,,,,,,,,,,,,,5f2d9bac4a634e09294684c9,2020-08-10_15h29.13.085,lexical_decision_task_MP,2020.1.3,Win32,60,z,1,0.921825,,,,,,,,0.921825,1,,,,,,242,NW,UN,50,musied,UNWERT,z,,,,,,0.275925926,-0.230555556,0,0,0,,0,107,107,421,1,,
,,,,,,,,,,,,,,,,,,5f2d9bac4a634e09294684c9,2020-08-10_15h29.13.085,lexical_decision_task_MP,2020.1.3,Win32,60,m,1,0.77395,,,,,,,,0.77395,1,,,,,,124,WORD,"ID",50,blouse,BLOUSE,m,,,,,,0.275925926,-0.230555556,0,0,0,,0,108,108,63,1,,
,,,,,,,,,,,,,,,,,,5f2d9bac4a634e09294684c9,2020-08-10_15h29.13.085,lexical_decision_task_MP,2020.1.3,Win32,60,z,1,0.875675,,,,,,,,0.875675,1,,,,,,251,NW,UN,50,stapod,LUPICT,z,,,,,,0.275925926,-0.230555556,0,0,0,,0,109,109,430,1,,
,,,,,,,,,,,,,,,,,,5f2d9bac4a634e09294684c9,2020-08-10_15h29.13.085,lexical_decision_task_MP,2020.1.3,Win32,60,m,0,0.84172,,,,,,,,0.84172,0,,,,,,250,NW,UN,50,lupict,MILTED,z,,,,,,0.275925926,-0.230555556,0,0,0,,0,110,110,429,1,,
,,,,,,,,,,,,,,,,,,5f2d9bac4a634e09294684c9,2020-08-10_15h29.13.085,lexical_decision_task_MP,2020.1.3,Win32,60,z,1,1.59384,,,,,,,,1.59384,1,,,,,,353,NW,"ID",33,clurey,CLUREY,z,,,,,,0.275925926,-0.230555556,0,0,0,,0,111,111,292,1,,
,,,,,,,,,,,,,,,,,,5f2d9bac4a634e09294684c9,2020-08-10_15h29.13.085,lexical_decision_task_MP,2020.1.3,Win32,60,z,1,0.740065,,,,,,,,0.740065,1,,,,,,471,NW,UN,33,cigney,NOBEST,z,,,,,,0.275925926,-0.230555556,0,0,0,,0,112,112,410,1,,
,,,,,,,,,,,,,,,,,,5f2d9bac4a634e09294684c9,2020-08-10_15h29.13.085,lexical_decision_task_MP,2020.1.3,Win32,60,m,1,0.72306,,,,,,,,0.72306,1,,,,,,39,WORD,UN,50,convey,INSECT,m,,,,,,0.275925926,-0.230555556,0,0,0,,0,113,113,218,1,,
,,,,,,,,,,,,,,,,,,5f2d9bac4a634e09294684c9,2020-08-10_15h29.13.085,lexical_decision_task_MP,2020.1.3,Win32,60,z,1,0.823245,,,,,,,,0.823245,1,,,,,,469,NW,UN,33,crudio,PADIFS,z,,,,,,0.275925926,-0.230555556,0,0,0,,0,114,114,408,1,,
,,,,,,,,,,,,,,,,,,5f2d9bac4a634e09294684c9,2020-08-10_15h29.13.085,lexical_decision_task_MP,2020.1.3,Win32,60,z,1,0.920195,,,,,,,,0.920195,1,,,,,,443,NW,UN,33,jaunce,DORSEX,z,,,,,,0.275925926,-0.230555556,0,0,0,,0,115,115,382,1,,
,,,,,,,,,,,,,,,,,,5f2d9bac4a634e09294684c9,2020-08-10_15h29.13.085,lexical_decision_task_MP,2020.1.3,Win32,60,m,1,0.63212,,,,,,,,0.63212,1,,,,,,163,WORD,"ID",50,string,STRING,m,,,,,,0.275925926,-0.230555556,0,0,0,,0,116,116,102,1,,
,,,,,,,,,,,,,,,,,,5f2d9bac4a634e09294684c9,2020-08-10_15h29.13.085,lexical_decision_task_MP,2020.1.3,Win32,60,m,1,0.791855,,,,,,,,0.791855,1,,,,,,30,WORD,UN,50,weapon,ORIENT,m,,,,,,0.275925926,-0.230555556,0,0,0,,0,117,117,209,1,,
,,,,,,,,,,,,,,,,,,5f2d9bac4a634e09294684c9,2020-08-10_15h29.13.085,lexical_decision_task_MP,2020.1.3,Win32,60,z,1,0.78216,,,,,,,,0.78216,1,,,,,,389,NW,"ID",50,witmer,WITMER,z,,,,,,0.275925926,-0.230555556,0,0,0,,0,118,118,328,1,,
,,,,,,,,,,,,,,,,,,5f2d9bac4a634e09294684c9,2020-08-10_15h29.13.085,lexical_decision_task_MP,2020.1.3,Win32,60,z,1,0.74232,,,,,,,,0.74232,1,,,,,,384,NW,"ID",50,guesco,GUESCO,z,,,,,,0.275925926,-0.230555556,0,0,0,,0,119,119,323,1,,
,,,,,,,,,,,,,,,,,,5f2d9bac4a634e09294684c9,2020-08-10_15h29.13.085,lexical_decision_task_MP,2020.1.3,Win32,60,z,1,0.80575,,,,,,,,0.80575,1,,,,,,294,NW,UN,50,gleath,INHORT,z,,,,,,0.275925926,-0.230555556,0,0,0,space,0,120,120,473,1,40.091045,
,,,,,,,,,,,,,,,,,,5f2d9bac4a634e09294684c9,2020-08-10_15h29.13.085,lexical_decision_task_MP,2020.1.3,Win32,60,m,1,0.907145,,,,,,,,0.907145,1,,,,,,160,WORD,"ID",50,violet,VIOLET,m,,,,,,0.275925926,-0.230555556,0,0,0,,0,121,121,99,1,,
,,,,,,,,,,,,,,,,,,5f2d9bac4a634e09294684c9,2020-08-10_15h29.13.085,lexical_decision_task_MP,2020.1.3,Win32,60,m,1,0.65661,,,,,,,,0.65661,1,,,,,,110,WORD,"ID",33,polite,POLITE,m,,,,,,0.275925926,-0.230555556,0,0,0,,0,122,122,49,1,,
,,,,,,,,,,,,,,,,,,5f2d9bac4a634e09294684c9,2020-08-10_15h29.13.085,lexical_decision_task_MP,2020.1.3,Win32,60,m,1,0.84908,,,,,,,,0.84908,1,,,,,,131,WORD,"ID",50,quench,QUENCH,m,,,,,,0.275925926,-0.230555556,0,0,0,,0,123,123,70,1,,
,,,,,,,,,,,,,,,,,,5f2d9bac4a634e09294684c9,2020-08-10_15h29.13.085,lexical_decision_task_MP,2020.1.3,Win32,60,z,1,0.758235,,,,,,,,0.758235,1,,,,,,447,NW,UN,33,sadent,GIRCUE,z,,,,,,0.275925926,-0.230555556,0,0,0,,0,124,124,386,1,,
,,,,,,,,,,,,,,,,,,5f2d9bac4a634e09294684c9,2020-08-10_15h29.13.085,lexical_decision_task_MP,2020.1.3,Win32,60,z,1,0.86596,,,,,,,,0.86596,1,,,,,,302,NW,"ID",33,miluer,MILUER,z,,,,,,0.275925926,-0.230555556,0,0,0,,0,125,125,241,1,,
,,,,,,,,,,,,,,,,,,5f2d9bac4a634e09294684c9,2020-08-10_15h29.13.085,lexical_decision_task_MP,2020.1.3,Win32,60,m,1,0.78219,,,,,,,,0.78219,1,,,,,,86,WORD,"ID",33,rodent,RODENT,m,,,,,,0.275925926,-0.230555556,0,0,0,,0,126,126,25,1,,
,,,,,,,,,,,,,,,,,,5f2d9bac4a634e09294684c9,2020-08-10_15h29.13.085,lexical_decision_task_MP,2020.1.3,Win32,60,z,1,0.737735,,,,,,,,0.737735,1,,,,,,256,NW,UN,50,veniod,INLORS,z,,,,,,0.275925926,-0.230555556,0,0,0,,0,127,127,435,1,,
,,,,,,,,,,,,,,,,,,5f2d9bac4a634e09294684c9,2020-08-10_15h29.13.085,lexical_decision_task_MP,2020.1.3,Win32,60,m,1,0.906035,,,,,,,,0.906035,1,,,,,,69,WORD,"ID",33,plenty,PLENTY,m,,,,,,0.275925926,-0.230555556,0,0,0,,0,128,128,8,1,,
,,,,,,,,,,,,,,,,,,5f2d9bac4a634e09294684c9,2020-08-10_15h29.13.085,lexical_decision_task_MP,2020.1.3,Win32,60,m,1,0.63822,,,,,,,,0.63822,1,,,,,,146,WORD,"ID",50,couple,COUPLE,m,,,,,,0.275925926,-0.230555556,0,0,0,,0,129,129,85,1,,
,,,,,,,,,,,,,,,,,,5f2d9bac4a634e09294684c9,2020-08-10_15h29.13.085,lexical_decision_task_MP,2020.1.3,Win32,60,m,1,0.565615,,,,,,,,0.565615,1,,,,,,18,WORD,UN,50,patron,HUMBLE,m,,,,,,0.275925926,-0.230555556,0,0,0,,0,130,130,197,1,,
,,,,,,,,,,,,,,,,,,5f2d9bac4a634e09294684c9,2020-08-10_15h29.13.085,lexical_decision_task_MP,2020.1.3,Win32,60,m,1,0.96233,,,,,,,,0.96233,1,,,,,,219,WORD,UN,33,voyage,BUCKET,m,,,,,,0.275925926,-0.230555556,0,0,0,,0,131,131,158,1,,
,,,,,,,,,,,,,,,,,,5f2d9bac4a634e09294684c9,2020-08-10_15h29.13.085,lexical_decision_task_MP,2020.1.3,Win32,60,z,1,1.284885,,,,,,,,1.284885,1,,,,,,369,NW,"ID",50,wronch,WRONCH,z,,,,,,0.275925926,-0.230555556,0,0,0,,0,132,132,308,1,,
,,,,,,,,,,,,,,,,,,5f2d9bac4a634e09294684c9,2020-08-10_15h29.13.085,lexical_decision_task_MP,2020.1.3,Win32,60,z,1,0.795035,,,,,,,,0.795035,1,,,,,,314,NW,"ID",33,sprine,SPRINE,z,,,,,,0.275925926,-0.230555556,0,0,0,,0,133,133,253,1,,
,,,,,,,,,,,,,,,,,,5f2d9bac4a634e09294684c9,2020-08-10_15h29.13.085,lexical_decision_task_MP,2020.1.3,Win32,60,z,1,0.67739,,,,,,,,0.67739,1,,,,,,330,NW,"ID",33,kensom,KENSOM,z,,,,,,0.275925926,-0.230555556,0,0,0,,0,134,134,269,1,,
,,,,,,,,,,,,,,,,,,5f2d9bac4a634e09294684c9,2020-08-10_15h29.13.085,lexical_decision_task_MP,2020.1.3,Win32,60,m,0,1.043675,,,,,,,,1.043675,0,,,,,,335,NW,"ID",33,desion,DESION,z,,,,,,0.275925926,-0.230555556,0,0,0,,0,135,135,274,1,,
,,,,,,,,,,,,,,,,,,5f2d9bac4a634e09294684c9,2020-08-10_15h29.13.085,lexical_decision_task_MP,2020.1.3,Win32,60,m,1,0.85966,,,,,,,,0.85966,1,,,,,,216,WORD,UN,33,liquor,BEHALF,m,,,,,,0.275925926,-0.230555556,0,0,0,,0,136,136,155,1,,
,,,,,,,,,,,,,,,,,,5f2d9bac4a634e09294684c9,2020-08-10_15h29.13.085,lexical_decision_task_MP,2020.1.3,Win32,60,z,0,0.8576,,,,,,,,0.8576,0,,,,,,68,WORD,"ID",33,fumble,FUMBLE,m,,,,,,0.275925926,-0.230555556,0,0,0,,0,137,137,7,1,,
,,,,,,,,,,,,,,,,,,5f2d9bac4a634e09294684c9,2020-08-10_15h29.13.085,lexical_decision_task_MP,2020.1.3,Win32,60,m,1,0.661865,,,,,,,,0.661865,1,,,,,,44,WORD,UN,50,clergy,DANGER,m,,,,,,0.275925926,-0.230555556,0,0,0,,0,138,138,223,1,,
,,,,,,,,,,,,,,,,,,5f2d9bac4a634e09294684c9,2020-08-10_15h29.13.085,lexical_decision_task_MP,2020.1.3,Win32,60,z,1,1.503915,,,,,,,,1.503915,1,,,,,,372,NW,"ID",50,ramily,RAMILY,z,,,,,,0.275925926,-0.230555556,0,0,0,,0,139,139,311,1,,
,,,,,,,,,,,,,,,,,,5f2d9bac4a634e09294684c9,2020-08-10_15h29.13.085,lexical_decision_task_MP,2020.1.3,Win32,60,z,1,1.06553,,,,,,,,1.06553,1,,,,,,360,NW,"ID",33,desory,DESORY,z,,,,,,0.275925926,-0.230555556,0,0,0,,0,140,140,299,1,,
,,,,,,,,,,,,,,,,,,5f2d9bac4a634e09294684c9,2020-08-10_15h29.13.085,lexical_decision_task_MP,2020.1.3,Win32,60,m,1,1.04355,,,,,,,,1.04355,1,,,,,,4,WORD,UN,50,plunge,TRENCH,m,,,,,,0.275925926,-0.230555556,0,0,0,,0,141,141,183,1,,
,,,,,,,,,,,,,,,,,,5f2d9bac4a634e09294684c9,2020-08-10_15h29.13.085,lexical_decision_task_MP,2020.1.3,Win32,60,z,1,1.39064,,,,,,,,1.39064,1,,,,,,419,NW,"ID",50,slount,SLOUNT,z,,,,,,0.275925926,-0.230555556,0,0,0,,0,142,142,358,1,,
,,,,,,,,,,,,,,,,,,5f2d9bac4a634e09294684c9,2020-08-10_15h29.13.085,lexical_decision_task_MP,2020.1.3,Win32,60,m,1,0.598845,,,,,,,,0.598845,1,,,,,,238,WORD,UN,33,behalf,FLOWER,m,,,,,,0.275925926,-0.230555556,0,0,0,,0,143,143,177,1,,
,,,,,,,,,,,,,,,,,,5f2d9bac4a634e09294684c9,2020-08-10_15h29.13.085,lexical_decision_task_MP,2020.1.3,Win32,60,m,0,0.67423,,,,,,,,0.67423,0,,,,,,432,NW,UN,33,drance,LUNKER,z,,,,,,0.275925926,-0.230555556,0,0,0,,0,144,144,371,1,,
,,,,,,,,,,,,,,,,,,5f2d9bac4a634e09294684c9,2020-08-10_15h29.13.085,lexical_decision_task_MP,2020.1.3,Win32,60,z,1,0.71247,,,,,,,,0.71247,1,,,,,,439,NW,UN,33,saride,LIMPOR,z,,,,,,0.275925926,-0.230555556,0,0,0,,0,145,145,378,1,,
,,,,,,,,,,,,,,,,,,5f2d9bac4a634e09294684c9,2020-08-10_15h29.13.085,lexical_decision_task_MP,2020.1.3,Win32,60,m,1,0.649355,,,,,,,,0.649355,1,,,,,,32,WORD,UN,50,scream,BUCKLE,m,,,,,,0.275925926,-0.230555556,0,0,0,,0,146,146,211,1,,
,,,,,,,,,,,,,,,,,,5f2d9bac4a634e09294684c9,2020-08-10_15h29.13.085,lexical_decision_task_MP,2020.1.3,Win32,60,z,1,1.123725,,,,,,,,1.123725,1,,,,,,265,NW,UN,50,varmit,DISTAR,z,,,,,,0.275925926,-0.230555556,0,0,0,,0,147,147,444,1,,
,,,,,,,,,,,,,,,,,,5f2d9bac4a634e09294684c9,2020-08-10_15h29.13.085,lexical_decision_task_MP,2020.1.3,Win32,60,m,1,0.67543,,,,,,,,0.67543,1,,,,,,162,WORD,"ID",50,candle,CANDLE,m,,,,,,0.275925926,-0.230555556,0,0,0,,0,148,148,101,1,,
,,,,,,,,,,,,,,,,,,5f2d9bac4a634e09294684c9,2020-08-10_15h29.13.085,lexical_decision_task_MP,2020.1.3,Win32,60,m,1,0.58247,,,,,,,,0.58247,1,,,,,,164,WORD,"ID",50,market,MARKET,m,,,,,,0.275925926,-0.230555556,0,0,0,,0,149,149,103,1,,
,,,,,,,,,,,,,,,,,,5f2d9bac4a634e09294684c9,2020-08-10_15h29.13.085,lexical_decision_task_MP,2020.1.3,Win32,60,z,1,0.77513,,,,,,,,0.77513,1,,,,,,376,NW,"ID",50,iguare,IGUARE,z,,,,,,0.275925926,-0.230555556,0,0,0,,0,150,150,315,1,,
,,,,,,,,,,,,,,,,,,5f2d9bac4a634e09294684c9,2020-08-10_15h29.13.085,lexical_decision_task_MP,2020.1.3,Win32,60,z,1,0.865745,,,,,,,,0.865745,1,,,,,,279,NW,UN,50,curbol,CELOND,z,,,,,,0.275925926,-0.230555556,0,0,0,,0,151,151,458,1,,
,,,,,,,,,,,,,,,,,,5f2d9bac4a634e09294684c9,2020-08-10_15h29.13.085,lexical_decision_task_MP,2020.1.3,Win32,60,z,1,0.983255,,,,,,,,0.983255,1,,,,,,400,NW,"ID",50,wearox,WEAROX,z,,,,,,0.275925926,-0.230555556,0,0,0,,0,152,152,339,1,,
,,,,,,,,,,,,,,,,,,5f2d9bac4a634e09294684c9,2020-08-10_15h29.13.085,lexical_decision_task_MP,2020.1.3,Win32,60,m,0,1.00915,,,,,,,,1.00915,0,,,,,,430,NW,UN,33,chrums,CAROEY,z,,,,,,0.275925926,-0.230555556,0,0,0,,0,153,153,369,1,,
,,,,,,,,,,,,,,,,,,5f2d9bac4a634e09294684c9,2020-08-10_15h29.13.085,lexical_decision_task_MP,2020.1.3,Win32,60,z,1,0.75442,,,,,,,,0.75442,1,,,,,,323,NW,"ID",33,rosail,ROSAIL,z,,,,,,0.275925926,-0.230555556,0,0,0,,0,154,154,262,1,,
,,,,,,,,,,,,,,,,,,5f2d9bac4a634e09294684c9,2020-08-10_15h29.13.085,lexical_decision_task_MP,2020.1.3,Win32,60,m,1,0.669585,,,,,,,,0.669585,1,,,,,,65,WORD,"ID",33,symbol,SYMBOL,m,,,,,,0.275925926,-0.230555556,0,0,0,,0,155,155,4,1,,
,,,,,,,,,,,,,,,,,,5f2d9bac4a634e09294684c9,2020-08-10_15h29.13.085,lexical_decision_task_MP,2020.1.3,Win32,60,z,1,0.74859,,,,,,,,0.74859,1,,,,,,308,NW,"ID",33,psetch,PSETCH,z,,,,,,0.275925926,-0.230555556,0,0,0,,0,156,156,247,1,,
,,,,,,,,,,,,,,,,,,5f2d9bac4a634e09294684c9,2020-08-10_15h29.13.085,lexical_decision_task_MP,2020.1.3,Win32,60,m,1,1.37122,,,,,,,,1.37122,1,,,,,,142,WORD,"ID",50,spruce,SPRUCE,m,,,,,,0.275925926,-0.230555556,0,0,0,,0,157,157,81,1,,
,,,,,,,,,,,,,,,,,,5f2d9bac4a634e09294684c9,2020-08-10_15h29.13.085,lexical_decision_task_MP,2020.1.3,Win32,60,z,1,0.64973,,,,,,,,0.64973,1,,,,,,405,NW,"ID",50,flumni,FLUMNI,z,,,,,,0.275925926,-0.230555556,0,0,0,,0,158,158,344,1,,
,,,,,,,,,,,,,,,,,,5f2d9bac4a634e09294684c9,2020-08-10_15h29.13.085,lexical_decision_task_MP,2020.1.3,Win32,60,z,1,0.6279,,,,,,,,0.6279,1,,,,,,296,NW,UN,50,fertic,BEINCH,z,,,,,,0.275925926,-0.230555556,0,0,0,,0,159,159,475,1,,
,,,,,,,,,,,,,,,,,,5f2d9bac4a634e09294684c9,2020-08-10_15h29.13.085,lexical_decision_task_MP,2020.1.3,Win32,60,m,1,0.55116,,,,,,,,0.55116,1,,,,,,154,WORD,"ID",50,author,AUTHOR,m,,,,,,0.275925926,-0.230555556,0,0,0,,0,160,160,93,1,,
,,,,,,,,,,,,,,,,,,5f2d9bac4a634e09294684c9,2020-08-10_15h29.13.085,lexical_decision_task_MP,2020.1.3,Win32,60,m,1,0.76566,,,,,,,,0.76566,1,,,,,,234,WORD,UN,33,poster,CLUMSY,m,,,,,,0.275925926,-0.230555556,0,0,0,,0,161,161,173,1,,
,,,,,,,,,,,,,,,,,,5f2d9bac4a634e09294684c9,2020-08-10_15h29.13.085,lexical_decision_task_MP,2020.1.3,Win32,60,z,1,1.53707,,,,,,,,1.53707,1,,,,,,364,NW,"ID",50,impote,IMPOTE,z,,,,,,0.275925926,-0.230555556,0,0,0,,0,162,162,303,1,,
,,,,,,,,,,,,,,,,,,5f2d9bac4a634e09294684c9,2020-08-10_15h29.13.085,lexical_decision_task_MP,2020.1.3,Win32,60,z,1,0.809175,,,,,,,,0.809175,1,,,,,,325,NW,"ID",33,thruse,THRUSE,z,,,,,,0.275925926,-0.230555556,0,0,0,,0,163,163,264,1,,
,,,,,,,,,,,,,,,,,,5f2d9bac4a634e09294684c9,2020-08-10_15h29.13.085,lexical_decision_task_MP,2020.1.3,Win32,60,m,1,0.57646,,,,,,,,0.57646,1,,,,,,182,WORD,UN,33,absent,WINTER,m,,,,,,0.275925926,-0.230555556,0,0,0,,0,164,164,121,1,,
,,,,,,,,,,,,,,,,,,5f2d9bac4a634e09294684c9,2020-08-10_15h29.13.085,lexical_decision_task_MP,2020.1.3,Win32,60,m,1,0.666335,,,,,,,,0.666335,1,,,,,,172,WORD,"ID",50,patrol,PATROL,m,,,,,,0.275925926,-0.230555556,0,0,0,,0,165,165,111,1,,
,,,,,,,,,,,,,,,,,,5f2d9bac4a634e09294684c9,2020-08-10_15h29.13.085,lexical_decision_task_MP,2020.1.3,Win32,60,m,1,0.87334,,,,,,,,0.87334,1,,,,,,25,WORD,UN,50,sprint,DOMAIN,m,,,,,,0.275925926,-0.230555556,0,0,0,,0,166,166,204,1,,
,,,,,,,,,,,,,,,,,,5f2d9bac4a634e09294684c9,2020-08-10_15h29.13.085,lexical_decision_task_MP,2020.1.3,Win32,60,,0,,,,,,,,,0.87334,-1,,,,,,438,NW,UN,33,limpor,BAITCH,z,,,,,,0.275925926,-0.230555556,0,0,0,,0,167,167,377,1,,
,,,,,,,,,,,,,,,,,,5f2d9bac4a634e09294684c9,2020-08-10_15h29.13.085,lexical_decision_task_MP,2020.1.3,Win32,60,z,1,0.83857,,,,,,,,0.83857,1,,,,,,462,NW,UN,33,kispel,ABSULT,z,,,,,,0.275925926,-0.230555556,0,0,0,,0,168,168,401,1,,
,,,,,,,,,,,,,,,,,,5f2d9bac4a634e09294684c9,2020-08-10_15h29.13.085,lexical_decision_task_MP,2020.1.3,Win32,60,m,1,0.557535,,,,,,,,0.557535,1,,,,,,23,WORD,UN,50,praise,WEALTH,m,,,,,,0.275925926,-0.230555556,0,0,0,,0,169,169,202,1,,
,,,,,,,,,,,,,,,,,,5f2d9bac4a634e09294684c9,2020-08-10_15h29.13.085,lexical_decision_task_MP,2020.1.3,Win32,60,m,1,0.615635,,,,,,,,0.615635,1,,,,,,3,WORD,UN,50,trench,KNIGHT,m,,,,,,0.275925926,-0.230555556,0,0,0,,0,170,170,182,1,,
,,,,,,,,,,,,,,,,,,5f2d9bac4a634e09294684c9,2020-08-10_15h29.13.085,lexical_decision_task_MP,2020.1.3,Win32,60,m,0,0.966555,,,,,,,,0.966555,0,,,,,,333,NW,"ID",33,catrie,CATRIE,z,,,,,,0.275925926,-0.230555556,0,0,0,,0,171,171,272,1,,
,,,,,,,,,,,,,,,,,,5f2d9bac4a634e09294684c9,2020-08-10_15h29.13.085,lexical_decision_task_MP,2020.1.3,Win32,60,z,1,0.834875,,,,,,,,0.834875,1,,,,,,268,NW,UN,50,orchet,PACKES,z,,,,,,0.275925926,-0.230555556,0,0,0,,0,172,172,447,1,,
,,,,,,,,,,,,,,,,,,5f2d9bac4a634e09294684c9,2020-08-10_15h29.13.085,lexical_decision_task_MP,2020.1.3,Win32,60,m,1,0.62701,,,,,,,,0.62701,1,,,,,,81,WORD,"ID",33,friend,FRIEND,m,,,,,,0.275925926,-0.230555556,0,0,0,,0,173,173,20,1,,
,,,,,,,,,,,,,,,,,,5f2d9bac4a634e09294684c9,2020-08-10_15h29.13.085,lexical_decision_task_MP,2020.1.3,Win32,60,m,1,0.50666,,,,,,,,0.50666,1,,,,,,153,WORD,"ID",50,behold,BEHOLD,m,,,,,,0.275925926,-0.230555556,0,0,0,,0,174,174,92,1,,
,,,,,,,,,,,,,,,,,,5f2d9bac4a634e09294684c9,2020-08-10_15h29.13.085,lexical_decision_task_MP,2020.1.3,Win32,60,m,1,0.503475,,,,,,,,0.503475,1,,,,,,178,WORD,"ID",50,inform,INFORM,m,,,,,,0.275925926,-0.230555556,0,0,0,,0,175,175,117,1,,
,,,,,,,,,,,,,,,,,,5f2d9bac4a634e09294684c9,2020-08-10_15h29.13.085,lexical_decision_task_MP,2020.1.3,Win32,60,z,1,0.584685,,,,,,,,0.584685,1,,,,,,356,NW,"ID",33,othnis,OTHNIS,z,,,,,,0.275925926,-0.230555556,0,0,0,,0,176,176,295,1,,
,,,,,,,,,,,,,,,,,,5f2d9bac4a634e09294684c9,2020-08-10_15h29.13.085,lexical_decision_task_MP,2020.1.3,Win32,60,z,1,0.652175,,,,,,,,0.652175,1,,,,,,337,NW,"ID",33,rejols,REJOLS,z,,,,,,0.275925926,-0.230555556,0,0,0,,0,177,177,276,1,,
,,,,,,,,,,,,,,,,,,5f2d9bac4a634e09294684c9,2020-08-10_15h29.13.085,lexical_decision_task_MP,2020.1.3,Win32,60,z,1,1.24662,,,,,,,,1.24662,1,,,,,,417,NW,"ID",50,earoud,EAROUD,z,,,,,,0.275925926,-0.230555556,0,0,0,,0,178,178,356,1,,
,,,,,,,,,,,,,,,,,,5f2d9bac4a634e09294684c9,2020-08-10_15h29.13.085,lexical_decision_task_MP,2020.1.3,Win32,60,z,1,0.65257,,,,,,,,0.65257,1,,,,,,406,NW,"ID",50,nouply,NOUPLY,z,,,,,,0.275925926,-0.230555556,0,0,0,,0,179,179,345,1,,
,,,,,,,,,,,,,,,,,,5f2d9bac4a634e09294684c9,2020-08-10_15h29.13.085,lexical_decision_task_MP,2020.1.3,Win32,60,z,1,0.723985,,,,,,,,0.723985,1,,,,,,409,NW,"ID",50,elopia,ELOPIA,z,,,,,,0.275925926,-0.230555556,0,0,0,,0,180,180,348,1,,
,,,,,,,,,,,,,,,,,,5f2d9bac4a634e09294684c9,2020-08-10_15h29.13.085,lexical_decision_task_MP,2020.1.3,Win32,60,z,1,0.7436,,,,,,,,0.7436,1,,,,,,292,NW,UN,50,swance,ABLINT,z,,,,,,0.275925926,-0.230555556,0,0,0,,0,181,181,471,1,,
,,,,,,,,,,,,,,,,,,5f2d9bac4a634e09294684c9,2020-08-10_15h29.13.085,lexical_decision_task_MP,2020.1.3,Win32,60,m,1,0.770355,,,,,,,,0.770355,1,,,,,,121,WORD,"ID",50,thrive,THRIVE,m,,,,,,0.275925926,-0.230555556,0,0,0,,0,182,182,60,1,,
,,,,,,,,,,,,,,,,,,5f2d9bac4a634e09294684c9,2020-08-10_15h29.13.085,lexical_decision_task_MP,2020.1.3,Win32,60,z,0,0.944905,,,,,,,,0.944905,0,,,,,,114,WORD,"ID",33,placid,PLACID,m,,,,,,0.275925926,-0.230555556,0,0,0,,0,183,183,53,1,,
,,,,,,,,,,,,,,,,,,5f2d9bac4a634e09294684c9,2020-08-10_15h29.13.085,lexical_decision_task_MP,2020.1.3,Win32,60,m,1,0.577455,,,,,,,,0.577455,1,,,,,,91,WORD,"ID",33,expand,EXPAND,m,,,,,,0.275925926,-0.230555556,0,0,0,,0,184,184,30,1,,
,,,,,,,,,,,,,,,,,,5f2d9bac4a634e09294684c9,2020-08-10_15h29.13.085,lexical_decision_task_MP,2020.1.3,Win32,60,z,1,0.619205,,,,,,,,0.619205,1,,,,,,346,NW,"ID",33,saudic,SAUDIC,z,,,,,,0.275925926,-0.230555556,0,0,0,,0,185,185,285,1,,
,,,,,,,,,,,,,,,,,,5f2d9bac4a634e09294684c9,2020-08-10_15h29.13.085,lexical_decision_task_MP,2020.1.3,Win32,60,m,1,0.416055,,,,,,,,0.416055,1,,,,,,26,WORD,UN,50,butler,SPRINT,m,,,,,,0.275925926,-0.230555556,0,0,0,,0,186,186,205,1,,
,,,,,,,,,,,,,,,,,,5f2d9bac4a634e09294684c9,2020-08-10_15h29.13.085,lexical_decision_task_MP,2020.1.3,Win32,60,m,1,0.552365,,,,,,,,0.552365,1,,,,,,212,WORD,UN,33,squeal,VERIFY,m,,,,,,0.275925926,-0.230555556,0,0,0,,0,187,187,151,1,,
,,,,,,,,,,,,,,,,,,5f2d9bac4a634e09294684c9,2020-08-10_15h29.13.085,lexical_decision_task_MP,2020.1.3,Win32,60,m,1,0.612645,,,,,,,,0.612645,1,,,,,,100,WORD,"ID",33,carbon,CARBON,m,,,,,,0.275925926,-0.230555556,0,0,0,,0,188,188,39,1,,
,,,,,,,,,,,,,,,,,,5f2d9bac4a634e09294684c9,2020-08-10_15h29.13.085,lexical_decision_task_MP,2020.1.3,Win32,60,z,0,0.549215,,,,,,,,0.549215,0,,,,,,184,WORD,UN,33,bother,SLEAZY,m,,,,,,0.275925926,-0.230555556,0,0,0,,0,189,189,123,1,,
,,,,,,,,,,,,,,,,,,5f2d9bac4a634e09294684c9,2020-08-10_15h29.13.085,lexical_decision_task_MP,2020.1.3,Win32,60,m,0,1.024335,,,,,,,,1.024335,0,,,,,,411,NW,"ID",50,orchin,ORCHIN,z,,,,,,0.275925926,-0.230555556,0,0,0,,0,190,190,350,1,,
,,,,,,,,,,,,,,,,,,5f2d9bac4a634e09294684c9,2020-08-10_15h29.13.085,lexical_decision_task_MP,2020.1.3,Win32,60,m,1,0.59259,,,,,,,,0.59259,1,,,,,,76,WORD,"ID",33,exotic,EXOTIC,m,,,,,,0.275925926,-0.230555556,0,0,0,,0,191,191,15,1,,
,,,,,,,,,,,,,,,,,,5f2d9bac4a634e09294684c9,2020-08-10_15h29.13.085,lexical_decision_task_MP,2020.1.3,Win32,60,m,1,0.661785,,,,,,,,0.661785,1,,,,,,17,WORD,UN,50,humble,CHARGE,m,,,,,,0.275925926,-0.230555556,0,0,0,,0,192,192,196,1,,
,,,,,,,,,,,,,,,,,,5f2d9bac4a634e09294684c9,2020-08-10_15h29.13.085,lexical_decision_task_MP,2020.1.3,Win32,60,m,1,0.50096,,,,,,,,0.50096,1,,,,,,200,WORD,UN,33,admire,BEACON,m,,,,,,0.275925926,-0.230555556,0,0,0,,0,193,193,139,1,,
,,,,,,,,,,,,,,,,,,5f2d9bac4a634e09294684c9,2020-08-10_15h29.13.085,lexical_decision_task_MP,2020.1.3,Win32,60,z,1,0.853645,,,,,,,,0.853645,1,,,,,,264,NW,UN,50,distar,VACKEL,z,,,,,,0.275925926,-0.230555556,0,0,0,,0,194,194,443,1,,
,,,,,,,,,,,,,,,,,,5f2d9bac4a634e09294684c9,2020-08-10_15h29.13.085,lexical_decision_task_MP,2020.1.3,Win32,60,z,1,0.62574,,,,,,,,0.62574,1,,,,,,459,NW,UN,33,mingar,BAFENT,z,,,,,,0.275925926,-0.230555556,0,0,0,,0,195,195,398,1,,
,,,,,,,,,,,,,,,,,,5f2d9bac4a634e09294684c9,2020-08-10_15h29.13.085,lexical_decision_task_MP,2020.1.3,Win32,60,z,1,0.9415,,,,,,,,0.9415,1,,,,,,320,NW,"ID",33,jockal,JOCKAL,z,,,,,,0.275925926,-0.230555556,0,0,0,,0,196,196,259,1,,
,,,,,,,,,,,,,,,,,,5f2d9bac4a634e09294684c9,2020-08-10_15h29.13.085,lexical_decision_task_MP,2020.1.3,Win32,60,m,1,0.58899,,,,,,,,0.58899,1,,,,,,1,WORD,UN,50,ethnic,FRIGHT,m,,,,,,0.275925926,-0.230555556,0,0,0,,0,197,197,180,1,,
,,,,,,,,,,,,,,,,,,5f2d9bac4a634e09294684c9,2020-08-10_15h29.13.085,lexical_decision_task_MP,2020.1.3,Win32,60,z,1,0.89123,,,,,,,,0.89123,1,,,,,,301,NW,"ID",33,fainch,FAINCH,z,,,,,,0.275925926,-0.230555556,0,0,0,,0,198,198,240,1,,
,,,,,,,,,,,,,,,,,,5f2d9bac4a634e09294684c9,2020-08-10_15h29.13.085,lexical_decision_task_MP,2020.1.3,Win32,60,m,1,0.560315,,,,,,,,0.560315,1,,,,,,43,WORD,UN,50,foster,TONGUE,m,,,,,,0.275925926,-0.230555556,0,0,0,,0,199,199,222,1,,
,,,,,,,,,,,,,,,,,,5f2d9bac4a634e09294684c9,2020-08-10_15h29.13.085,lexical_decision_task_MP,2020.1.3,Win32,60,m,0,0.602825,,,,,,,,0.602825,0,,,,,,258,NW,UN,50,soudal,POLUTH,z,,,,,,0.275925926,-0.230555556,0,0,0,,0,200,200,437,1,,
,,,,,,,,,,,,,,,,,,5f2d9bac4a634e09294684c9,2020-08-10_15h29.13.085,lexical_decision_task_MP,2020.1.3,Win32,60,z,0,0.80933,,,,,,,,0.80933,0,,,,,,45,WORD,UN,50,single,CLERGY,m,,,,,,0.275925926,-0.230555556,0,0,0,,0,201,201,224,1,,
,,,,,,,,,,,,,,,,,,5f2d9bac4a634e09294684c9,2020-08-10_15h29.13.085,lexical_decision_task_MP,2020.1.3,Win32,60,m,1,0.528475,,,,,,,,0.528475,1,,,,,,2,WORD,UN,50,knight,BRIDGE,m,,,,,,0.275925926,-0.230555556,0,0,0,,0,202,202,181,1,,
,,,,,,,,,,,,,,,,,,5f2d9bac4a634e09294684c9,2020-08-10_15h29.13.085,lexical_decision_task_MP,2020.1.3,Win32,60,m,1,0.545915,,,,,,,,0.545915,1,,,,,,125,WORD,"ID",50,nickel,NICKEL,m,,,,,,0.275925926,-0.230555556,0,0,0,,0,203,203,64,1,,
,,,,,,,,,,,,,,,,,,5f2d9bac4a634e09294684c9,2020-08-10_15h29.13.085,lexical_decision_task_MP,2020.1.3,Win32,60,z,1,0.865715,,,,,,,,0.865715,1,,,,,,408,NW,"ID",50,hurnia,HURNIA,z,,,,,,0.275925926,-0.230555556,0,0,0,,0,204,204,347,1,,
,,,,,,,,,,,,,,,,,,5f2d9bac4a634e09294684c9,2020-08-10_15h29.13.085,lexical_decision_task_MP,2020.1.3,Win32,60,m,1,0.508715,,,,,,,,0.508715,1,,,,,,104,WORD,"ID",33,studio,STUDIO,m,,,,,,0.275925926,-0.230555556,0,0,0,,0,205,205,43,1,,
,,,,,,,,,,,,,,,,,,5f2d9bac4a634e09294684c9,2020-08-10_15h29.13.085,lexical_decision_task_MP,2020.1.3,Win32,60,m,1,1.1415,,,,,,,,1.1415,1,,,,,,92,WORD,"ID",33,strand,STRAND,m,,,,,,0.275925926,-0.230555556,0,0,0,,0,206,206,31,1,,
,,,,,,,,,,,,,,,,,,5f2d9bac4a634e09294684c9,2020-08-10_15h29.13.085,lexical_decision_task_MP,2020.1.3,Win32,60,z,1,0.64204,,,,,,,,0.64204,1,,,,,,479,NW,UN,33,crible,LOBUSH,z,,,,,,0.275925926,-0.230555556,0,0,0,,0,207,207,418,1,,
,,,,,,,,,,,,,,,,,,5f2d9bac4a634e09294684c9,2020-08-10_15h29.13.085,lexical_decision_task_MP,2020.1.3,Win32,60,m,1,0.498775,,,,,,,,0.498775,1,,,,,,77,WORD,"ID",33,racket,RACKET,m,,,,,,0.275925926,-0.230555556,0,0,0,,0,208,208,16,1,,
,,,,,,,,,,,,,,,,,,5f2d9bac4a634e09294684c9,2020-08-10_15h29.13.085,lexical_decision_task_MP,2020.1.3,Win32,60,m,1,0.418715,,,,,,,,0.418715,1,,,,,,70,WORD,"ID",33,square,SQUARE,m,,,,,,0.275925926,-0.230555556,0,0,0,,0,209,209,9,1,,
,,,,,,,,,,,,,,,,,,5f2d9bac4a634e09294684c9,2020-08-10_15h29.13.085,lexical_decision_task_MP,2020.1.3,Win32,60,m,1,0.47056,,,,,,,,0.47056,1,,,,,,14,WORD,UN,50,orange,ALMOST,m,,,,,,0.275925926,-0.230555556,0,0,0,,0,210,210,193,1,,
,,,,,,,,,,,,,,,,,,5f2d9bac4a634e09294684c9,2020-08-10_15h29.13.085,lexical_decision_task_MP,2020.1.3,Win32,60,m,1,0.64556,,,,,,,,0.64556,1,,,,,,10,WORD,UN,50,cruise,ETHNIC,m,,,,,,0.275925926,-0.230555556,0,0,0,,0,211,211,189,1,,
,,,,,,,,,,,,,,,,,,5f2d9bac4a634e09294684c9,2020-08-10_15h29.13.085,lexical_decision_task_MP,2020.1.3,Win32,60,m,1,0.512605,,,,,,,,0.512605,1,,,,,,49,WORD,UN,50,snatch,SURVEY,m,,,,,,0.275925926,-0.230555556,0,0,0,,0,212,212,228,1,,
,,,,,,,,,,,,,,,,,,5f2d9bac4a634e09294684c9,2020-08-10_15h29.13.085,lexical_decision_task_MP,2020.1.3,Win32,60,z,1,0.59872,,,,,,,,0.59872,1,,,,,,371,NW,"ID",50,geiloy,GEILOY,z,,,,,,0.275925926,-0.230555556,0,0,0,,0,213,213,310,1,,
,,,,,,,,,,,,,,,,,,5f2d9bac4a634e09294684c9,2020-08-10_15h29.13.085,lexical_decision_task_MP,2020.1.3,Win32,60,z,1,0.906545,,,,,,,,0.906545,1,,,,,,326,NW,"ID",33,iguade,IGUADE,z,,,,,,0.275925926,-0.230555556,0,0,0,,0,214,214,265,1,,
,,,,,,,,,,,,,,,,,,5f2d9bac4a634e09294684c9,2020-08-10_15h29.13.085,lexical_decision_task_MP,2020.1.3,Win32,60,z,1,0.949065,,,,,,,,0.949065,1,,,,,,247,NW,UN,50,strole,BLARGE,z,,,,,,0.275925926,-0.230555556,0,0,0,,0,215,215,426,1,,
,,,,,,,,,,,,,,,,,,5f2d9bac4a634e09294684c9,2020-08-10_15h29.13.085,lexical_decision_task_MP,2020.1.3,Win32,60,z,1,0.729705,,,,,,,,0.729705,1,,,,,,295,NW,UN,50,beinch,GLEATH,z,,,,,,0.275925926,-0.230555556,0,0,0,,0,216,216,474,1,,
,,,,,,,,,,,,,,,,,,5f2d9bac4a634e09294684c9,2020-08-10_15h29.13.085,lexical_decision_task_MP,2020.1.3,Win32,60,m,1,0.94577,,,,,,,,0.94577,1,,,,,,21,WORD,UN,50,jockey,SIMPLE,m,,,,,,0.275925926,-0.230555556,0,0,0,,0,217,217,200,1,,
,,,,,,,,,,,,,,,,,,5f2d9bac4a634e09294684c9,2020-08-10_15h29.13.085,lexical_decision_task_MP,2020.1.3,Win32,60,z,1,0.700365,,,,,,,,0.700365,1,,,,,,297,NW,UN,50,piergy,FERTIC,z,,,,,,0.275925926,-0.230555556,0,0,0,,0,218,218,476,1,,
,,,,,,,,,,,,,,,,,,5f2d9bac4a634e09294684c9,2020-08-10_15h29.13.085,lexical_decision_task_MP,2020.1.3,Win32,60,m,1,0.550195,,,,,,,,0.550195,1,,,,,,106,WORD,"ID",33,ransom,RANSOM,m,,,,,,0.275925926,-0.230555556,0,0,0,,0,219,219,45,1,,
,,,,,,,,,,,,,,,,,,5f2d9bac4a634e09294684c9,2020-08-10_15h29.13.085,lexical_decision_task_MP,2020.1.3,Win32,60,m,1,1.16917,,,,,,,,1.16917,1,,,,,,139,WORD,"ID",50,debris,DEBRIS,m,,,,,,0.275925926,-0.230555556,0,0,0,,0,220,220,78,1,,
,,,,,,,,,,,,,,,,,,5f2d9bac4a634e09294684c9,2020-08-10_15h29.13.085,lexical_decision_task_MP,2020.1.3,Win32,60,m,1,0.53228,,,,,,,,0.53228,1,,,,,,149,WORD,"ID",50,invade,INVADE,m,,,,,,0.275925926,-0.230555556,0,0,0,,0,221,221,88,1,,
,,,,,,,,,,,,,,,,,,5f2d9bac4a634e09294684c9,2020-08-10_15h29.13.085,lexical_decision_task_MP,2020.1.3,Win32,60,m,1,0.81861,,,,,,,,0.81861,1,,,,,,85,WORD,"ID",33,sprawl,SPRAWL,m,,,,,,0.275925926,-0.230555556,0,0,0,,0,222,222,24,1,,
,,,,,,,,,,,,,,,,,,5f2d9bac4a634e09294684c9,2020-08-10_15h29.13.085,lexical_decision_task_MP,2020.1.3,Win32,60,m,1,0.487545,,,,,,,,0.487545,1,,,,,,198,WORD,UN,33,invoke,WICKED,m,,,,,,0.275925926,-0.230555556,0,0,0,,0,223,223,137,1,,
,,,,,,,,,,,,,,,,,,5f2d9bac4a634e09294684c9,2020-08-10_15h29.13.085,lexical_decision_task_MP,2020.1.3,Win32,60,z,1,1.062085,,,,,,,,1.062085,1,,,,,,305,NW,"ID",33,forgle,FORGLE,z,,,,,,0.275925926,-0.230555556,0,0,0,,0,224,224,244,1,,
,,,,,,,,,,,,,,,,,,5f2d9bac4a634e09294684c9,2020-08-10_15h29.13.085,lexical_decision_task_MP,2020.1.3,Win32,60,m,1,0.51625,,,,,,,,0.51625,1,,,,,,87,WORD,"ID",33,filter,FILTER,m,,,,,,0.275925926,-0.230555556,0,0,0,,0,225,225,26,1,,
,,,,,,,,,,,,,,,,,,5f2d9bac4a634e09294684c9,2020-08-10_15h29.13.085,lexical_decision_task_MP,2020.1.3,Win32,60,z,1,0.736815,,,,,,,,0.736815,1,,,,,,474,NW,UN,33,acrise,HABLIN,z,,,,,,0.275925926,-0.230555556,0,0,0,,0,226,226,413,1,,
,,,,,,,,,,,,,,,,,,5f2d9bac4a634e09294684c9,2020-08-10_15h29.13.085,lexical_decision_task_MP,2020.1.3,Win32,60,z,1,0.63653,,,,,,,,0.63653,1,,,,,,453,NW,UN,33,scouge,BOLVIS,z,,,,,,0.275925926,-0.230555556,0,0,0,,0,227,227,392,1,,
,,,,,,,,,,,,,,,,,,5f2d9bac4a634e09294684c9,2020-08-10_15h29.13.085,lexical_decision_task_MP,2020.1.3,Win32,60,m,1,0.78957,,,,,,,,0.78957,1,,,,,,240,WORD,UN,33,seldom,FOREST,m,,,,,,0.275925926,-0.230555556,0,0,0,,0,228,228,179,1,,
,,,,,,,,,,,,,,,,,,5f2d9bac4a634e09294684c9,2020-08-10_15h29.13.085,lexical_decision_task_MP,2020.1.3,Win32,60,z,1,0.754625,,,,,,,,0.754625,1,,,,,,252,NW,UN,50,resait,STAPOD,z,,,,,,0.275925926,-0.230555556,0,0,0,,0,229,229,431,1,,
,,,,,,,,,,,,,,,,,,5f2d9bac4a634e09294684c9,2020-08-10_15h29.13.085,lexical_decision_task_MP,2020.1.3,Win32,60,z,1,0.782385,,,,,,,,0.782385,1,,,,,,272,NW,UN,50,sortel,DAMILT,z,,,,,,0.275925926,-0.230555556,0,0,0,,0,230,230,451,1,,
,,,,,,,,,,,,,,,,,,5f2d9bac4a634e09294684c9,2020-08-10_15h29.13.085,lexical_decision_task_MP,2020.1.3,Win32,60,z,1,1.418745,,,,,,,,1.418745,1,,,,,,374,NW,"ID",50,sliant,SLIANT,z,,,,,,0.275925926,-0.230555556,0,0,0,,0,231,231,313,1,,
,,,,,,,,,,,,,,,,,,5f2d9bac4a634e09294684c9,2020-08-10_15h29.13.085,lexical_decision_task_MP,2020.1.3,Win32,60,z,1,0.905965,,,,,,,,0.905965,1,,,,,,248,NW,UN,50,batrol,STROLE,z,,,,,,0.275925926,-0.230555556,0,0,0,,0,232,232,427,1,,
,,,,,,,,,,,,,,,,,,5f2d9bac4a634e09294684c9,2020-08-10_15h29.13.085,lexical_decision_task_MP,2020.1.3,Win32,60,m,1,0.54408,,,,,,,,0.54408,1,,,,,,232,WORD,UN,33,nature,INJECT,m,,,,,,0.275925926,-0.230555556,0,0,0,,0,233,233,171,1,,
,,,,,,,,,,,,,,,,,,5f2d9bac4a634e09294684c9,2020-08-10_15h29.13.085,lexical_decision_task_MP,2020.1.3,Win32,60,m,0,0.58796,,,,,,,,0.58796,0,,,,,,304,NW,"ID",33,cludie,CLUDIE,z,,,,,,0.275925926,-0.230555556,0,0,0,,0,234,234,243,1,,
,,,,,,,,,,,,,,,,,,5f2d9bac4a634e09294684c9,2020-08-10_15h29.13.085,lexical_decision_task_MP,2020.1.3,Win32,60,z,1,1.12114,,,,,,,,1.12114,1,,,,,,284,NW,UN,50,prudge,SHAPLE,z,,,,,,0.275925926,-0.230555556,0,0,0,,0,235,235,463,1,,
,,,,,,,,,,,,,,,,,,5f2d9bac4a634e09294684c9,2020-08-10_15h29.13.085,lexical_decision_task_MP,2020.1.3,Win32,60,m,1,0.649675,,,,,,,,0.649675,1,,,,,,237,WORD,UN,33,glance,POSTER,m,,,,,,0.275925926,-0.230555556,0,0,0,,0,236,236,176,1,,
,,,,,,,,,,,,,,,,,,5f2d9bac4a634e09294684c9,2020-08-10_15h29.13.085,lexical_decision_task_MP,2020.1.3,Win32,60,z,1,0.765555,,,,,,,,0.765555,1,,,,,,336,NW,"ID",33,ghodus,GHODUS,z,,,,,,0.275925926,-0.230555556,0,0,0,,0,237,237,275,1,,
,,,,,,,,,,,,,,,,,,5f2d9bac4a634e09294684c9,2020-08-10_15h29.13.085,lexical_decision_task_MP,2020.1.3,Win32,60,z,1,0.899175,,,,,,,,0.899175,1,,,,,,367,NW,"ID",50,slique,SLIQUE,z,,,,,,0.275925926,-0.230555556,0,0,0,,0,238,238,306,1,,
,,,,,,,,,,,,,,,,,,5f2d9bac4a634e09294684c9,2020-08-10_15h29.13.085,lexical_decision_task_MP,2020.1.3,Win32,60,z,1,0.70715,,,,,,,,0.70715,1,,,,,,446,NW,UN,33,gircue,RUNAMO,z,,,,,,0.275925926,-0.230555556,0,0,0,,0,239,239,385,1,,
,,,,,,,,,,,,,,,,,,5f2d9bac4a634e09294684c9,2020-08-10_15h29.13.085,lexical_decision_task_MP,2020.1.3,Win32,60,m,1,0.61962,,,,,,,,0.61962,1,,,,,,71,WORD,"ID",33,garden,GARDEN,m,,,,,,0.275925926,-0.230555556,0,0,0,,0,240,240,10,1,,
,,,,,,,,,,,,,,,,,,5f2d9bac4a634e09294684c9,2020-08-10_15h29.13.085,lexical_decision_task_MP,2020.1.3,Win32,60,z,1,0.760435,,,,,,,,0.760435,1,,,,,,343,NW,"ID",33,aimosy,AIMOSY,z,,,,,,0.115740741,-0.363888889,1,0,0,,0,241,241,282,1,,break_done_button
,,,,,,,,,,,,,,,,,,5f2d9bac4a634e09294684c9,2020-08-10_15h29.13.085,lexical_decision_task_MP,2020.1.3,Win32,60,z,1,1.116915,,,,,,,,1.116915,1,,,,,,312,NW,"ID",33,nerawl,NERAWL,z,,,,,,0.312962963,-0.119444444,0,0,0,,0,242,242,251,1,,
,,,,,,,,,,,,,,,,,,5f2d9bac4a634e09294684c9,2020-08-10_15h29.13.085,lexical_decision_task_MP,2020.1.3,Win32,60,z,1,0.737345,,,,,,,,0.737345,1,,,,,,282,NW,UN,50,veralf,PORLEX,z,,,,,,0.312962963,-0.119444444,0,0,0,,0,243,243,461,1,,
,,,,,,,,,,,,,,,,,,5f2d9bac4a634e09294684c9,2020-08-10_15h29.13.085,lexical_decision_task_MP,2020.1.3,Win32,60,m,1,1.128645,,,,,,,,1.128645,1,,,,,,195,WORD,UN,33,credit,RESIGN,m,,,,,,0.312962963,-0.119444444,0,0,0,,0,244,244,134,1,,
,,,,,,,,,,,,,,,,,,5f2d9bac4a634e09294684c9,2020-08-10_15h29.13.085,lexical_decision_task_MP,2020.1.3,Win32,60,z,1,0.67339,,,,,,,,0.67339,1,,,,,,391,NW,"ID",50,theldy,THELDY,z,,,,,,0.312962963,-0.119444444,0,0,0,,0,245,245,330,1,,
,,,,,,,,,,,,,,,,,,5f2d9bac4a634e09294684c9,2020-08-10_15h29.13.085,lexical_decision_task_MP,2020.1.3,Win32,60,m,1,0.78657,,,,,,,,0.78657,1,,,,,,48,WORD,UN,50,survey,WALNUT,m,,,,,,0.312962963,-0.119444444,0,0,0,,0,246,246,227,1,,
,,,,,,,,,,,,,,,,,,5f2d9bac4a634e09294684c9,2020-08-10_15h29.13.085,lexical_decision_task_MP,2020.1.3,Win32,60,m,1,0.816405,,,,,,,,0.816405,1,,,,,,46,WORD,UN,50,income,SINGLE,m,,,,,,0.312962963,-0.119444444,0,0,0,,0,247,247,225,1,,
,,,,,,,,,,,,,,,,,,5f2d9bac4a634e09294684c9,2020-08-10_15h29.13.085,lexical_decision_task_MP,2020.1.3,Win32,60,m,1,0.50004,,,,,,,,0.50004,1,,,,,,6,WORD,UN,50,anchor,BUNDLE,m,,,,,,0.312962963,-0.119444444,0,0,0,,0,248,248,185,1,,
,,,,,,,,,,,,,,,,,,5f2d9bac4a634e09294684c9,2020-08-10_15h29.13.085,lexical_decision_task_MP,2020.1.3,Win32,60,m,1,0.88901,,,,,,,,0.88901,1,,,,,,134,WORD,"ID",50,staple,STAPLE,m,,,,,,0.312962963,-0.119444444,0,0,0,,0,249,249,73,1,,
,,,,,,,,,,,,,,,,,,5f2d9bac4a634e09294684c9,2020-08-10_15h29.13.085,lexical_decision_task_MP,2020.1.3,Win32,60,m,1,0.91806,,,,,,,,0.91806,1,,,,,,122,WORD,"ID",50,linger,LINGER,m,,,,,,0.312962963,-0.119444444,0,0,0,,0,250,250,61,1,,
,,,,,,,,,,,,,,,,,,5f2d9bac4a634e09294684c9,2020-08-10_15h29.13.085,lexical_decision_task_MP,2020.1.3,Win32,60,m,1,0.815875,,,,,,,,0.815875,1,,,,,,231,WORD,UN,33,inject,EXPORT,m,,,,,,0.312962963,-0.119444444,0,0,0,,0,251,251,170,1,,
,,,,,,,,,,,,,,,,,,5f2d9bac4a634e09294684c9,2020-08-10_15h29.13.085,lexical_decision_task_MP,2020.1.3,Win32,60,m,0,0.77137,,,,,,,,0.77137,0,,,,,,332,NW,"ID",33,vangue,VANGUE,z,,,,,,0.312962963,-0.119444444,0,0,0,,0,252,252,271,1,,
,,,,,,,,,,,,,,,,,,5f2d9bac4a634e09294684c9,2020-08-10_15h29.13.085,lexical_decision_task_MP,2020.1.3,Win32,60,m,1,0.609895,,,,,,,,0.609895,1,,,,,,152,WORD,"ID",50,rocket,ROCKET,m,,,,,,0.312962963,-0.119444444,0,0,0,,0,253,253,91,1,,
,,,,,,,,,,,,,,,,,,5f2d9bac4a634e09294684c9,2020-08-10_15h29.13.085,lexical_decision_task_MP,2020.1.3,Win32,60,z,1,0.88573,,,,,,,,0.88573,1,,,,,,293,NW,UN,50,inhort,SWANCE,z,,,,,,0.312962963,-0.119444444,0,0,0,,0,254,254,472,1,,
,,,,,,,,,,,,,,,,,,5f2d9bac4a634e09294684c9,2020-08-10_15h29.13.085,lexical_decision_task_MP,2020.1.3,Win32,60,z,1,0.63204,,,,,,,,0.63204,1,,,,,,412,NW,"ID",50,jiluer,JILUER,z,,,,,,0.312962963,-0.119444444,0,0,0,,0,255,255,351,1,,
,,,,,,,,,,,,,,,,,,5f2d9bac4a634e09294684c9,2020-08-10_15h29.13.085,lexical_decision_task_MP,2020.1.3,Win32,60,m,1,0.6714,,,,,,,,0.6714,1,,,,,,117,WORD,"ID",33,branch,BRANCH,m,,,,,,0.312962963,-0.119444444,0,0,0,,0,256,256,56,1,,
,,,,,,,,,,,,,,,,,,5f2d9bac4a634e09294684c9,2020-08-10_15h29.13.085,lexical_decision_task_MP,2020.1.3,Win32,60,z,1,1.065395,,,,,,,,1.065395,1,,,,,,269,NW,UN,50,wrimsy,ORCHET,z,,,,,,0.312962963,-0.119444444,0,0,0,,0,257,257,448,1,,
,,,,,,,,,,,,,,,,,,5f2d9bac4a634e09294684c9,2020-08-10_15h29.13.085,lexical_decision_task_MP,2020.1.3,Win32,60,z,1,0.860045,,,,,,,,0.860045,1,,,,,,274,NW,UN,50,sleirt,FUMBLO,z,,,,,,0.312962963,-0.119444444,0,0,0,,0,258,258,453,1,,
,,,,,,,,,,,,,,,,,,5f2d9bac4a634e09294684c9,2020-08-10_15h29.13.085,lexical_decision_task_MP,2020.1.3,Win32,60,z,1,0.87482,,,,,,,,0.87482,1,,,,,,316,NW,"ID",33,scregm,SCREGM,z,,,,,,0.312962963,-0.119444444,0,0,0,,0,259,259,255,1,,
,,,,,,,,,,,,,,,,,,5f2d9bac4a634e09294684c9,2020-08-10_15h29.13.085,lexical_decision_task_MP,2020.1.3,Win32,60,z,1,0.715725,,,,,,,,0.715725,1,,,,,,307,NW,"ID",33,kirafe,KIRAFE,z,,,,,,0.312962963,-0.119444444,0,0,0,,0,260,260,246,1,,
,,,,,,,,,,,,,,,,,,5f2d9bac4a634e09294684c9,2020-08-10_15h29.13.085,lexical_decision_task_MP,2020.1.3,Win32,60,m,1,0.55774,,,,,,,,0.55774,1,,,,,,173,WORD,"ID",50,shower,SHOWER,m,,,,,,0.312962963,-0.119444444,0,0,0,,0,261,261,112,1,,
,,,,,,,,,,,,,,,,,,5f2d9bac4a634e09294684c9,2020-08-10_15h29.13.085,lexical_decision_task_MP,2020.1.3,Win32,60,m,1,0.71509,,,,,,,,0.71509,1,,,,,,33,WORD,UN,50,jungle,BUTLER,m,,,,,,0.312962963,-0.119444444,0,0,0,,0,262,262,212,1,,
,,,,,,,,,,,,,,,,,,5f2d9bac4a634e09294684c9,2020-08-10_15h29.13.085,lexical_decision_task_MP,2020.1.3,Win32,60,z,1,0.784005,,,,,,,,0.784005,1,,,,,,273,NW,UN,50,fumblo,SORTEL,z,,,,,,0.312962963,-0.119444444,0,0,0,,0,263,263,452,1,,
,,,,,,,,,,,,,,,,,,5f2d9bac4a634e09294684c9,2020-08-10_15h29.13.085,lexical_decision_task_MP,2020.1.3,Win32,60,m,1,0.56146,,,,,,,,0.56146,1,,,,,,51,WORD,UN,50,impose,HUNGRY,m,,,,,,0.312962963,-0.119444444,0,0,0,,0,264,264,230,1,,
,,,,,,,,,,,,,,,,,,5f2d9bac4a634e09294684c9,2020-08-10_15h29.13.085,lexical_decision_task_MP,2020.1.3,Win32,60,m,1,0.82025,,,,,,,,0.82025,1,,,,,,52,WORD,UN,50,police,IMPOSE,m,,,,,,0.312962963,-0.119444444,0,0,0,,0,265,265,231,1,,
,,,,,,,,,,,,,,,,,,5f2d9bac4a634e09294684c9,2020-08-10_15h29.13.085,lexical_decision_task_MP,2020.1.3,Win32,60,m,1,0.672335,,,,,,,,0.672335,1,,,,,,230,WORD,UN,33,mother,FRINGE,m,,,,,,0.312962963,-0.119444444,0,0,0,,0,266,266,169,1,,
,,,,,,,,,,,,,,,,,,5f2d9bac4a634e09294684c9,2020-08-10_15h29.13.085,lexical_decision_task_MP,2020.1.3,Win32,60,z,1,0.81842,,,,,,,,0.81842,1,,,,,,278,NW,UN,50,celond,UNIGHS,z,,,,,,0.312962963,-0.119444444,0,0,0,,0,267,267,457,1,,
,,,,,,,,,,,,,,,,,,5f2d9bac4a634e09294684c9,2020-08-10_15h29.13.085,lexical_decision_task_MP,2020.1.3,Win32,60,z,1,0.7329,,,,,,,,0.7329,1,,,,,,351,NW,"ID",33,tiesch,TIESCH,z,,,,,,0.312962963,-0.119444444,0,0,0,,0,268,268,290,1,,
,,,,,,,,,,,,,,,,,,5f2d9bac4a634e09294684c9,2020-08-10_15h29.13.085,lexical_decision_task_MP,2020.1.3,Win32,60,z,1,1.09144,,,,,,,,1.09144,1,,,,,,445,NW,UN,33,runamo,MINKEL,z,,,,,,0.312962963,-0.119444444,0,0,0,,0,269,269,384,1,,
,,,,,,,,,,,,,,,,,,5f2d9bac4a634e09294684c9,2020-08-10_15h29.13.085,lexical_decision_task_MP,2020.1.3,Win32,60,m,1,0.645405,,,,,,,,0.645405,1,,,,,,188,WORD,UN,33,censor,SOCIAL,m,,,,,,0.312962963,-0.119444444,0,0,0,,0,270,270,127,1,,
,,,,,,,,,,,,,,,,,,5f2d9bac4a634e09294684c9,2020-08-10_15h29.13.085,lexical_decision_task_MP,2020.1.3,Win32,60,m,1,0.544915,,,,,,,,0.544915,1,,,,,,67,WORD,"ID",33,policy,POLICY,m,,,,,,0.312962963,-0.119444444,0,0,0,,0,271,271,6,1,,
,,,,,,,,,,,,,,,,,,5f2d9bac4a634e09294684c9,2020-08-10_15h29.13.085,lexical_decision_task_MP,2020.1.3,Win32,60,m,1,0.52148,,,,,,,,0.52148,1,,,,,,223,WORD,UN,33,period,KIDNEY,m,,,,,,0.312962963,-0.119444444,0,0,0,,0,272,272,162,1,,
,,,,,,,,,,,,,,,,,,5f2d9bac4a634e09294684c9,2020-08-10_15h29.13.085,lexical_decision_task_MP,2020.1.3,Win32,60,z,1,0.805275,,,,,,,,0.805275,1,,,,,,286,NW,UN,50,nymbel,RELDON,z,,,,,,0.312962963,-0.119444444,0,0,0,,0,273,273,465,1,,
,,,,,,,,,,,,,,,,,,5f2d9bac4a634e09294684c9,2020-08-10_15h29.13.085,lexical_decision_task_MP,2020.1.3,Win32,60,z,0,0.624445,,,,,,,,0.624445,0,,,,,,63,WORD,"ID",33,launch,LAUNCH,m,,,,,,0.312962963,-0.119444444,0,0,0,,0,274,274,2,1,,
,,,,,,,,,,,,,,,,,,5f2d9bac4a634e09294684c9,2020-08-10_15h29.13.085,lexical_decision_task_MP,2020.1.3,Win32,60,m,0,0.97708,,,,,,,,0.97708,0,,,,,,322,NW,"ID",33,slanch,SLANCH,z,,,,,,0.312962963,-0.119444444,0,0,0,,0,275,275,261,1,,
,,,,,,,,,,,,,,,,,,5f2d9bac4a634e09294684c9,2020-08-10_15h29.13.085,lexical_decision_task_MP,2020.1.3,Win32,60,m,1,0.54441,,,,,,,,0.54441,1,,,,,,233,WORD,UN,33,clumsy,NATURE,m,,,,,,0.312962963,-0.119444444,0,0,0,,0,276,276,172,1,,
,,,,,,,,,,,,,,,,,,5f2d9bac4a634e09294684c9,2020-08-10_15h29.13.085,lexical_decision_task_MP,2020.1.3,Win32,60,m,0,0.88224,,,,,,,,0.88224,0,,,,,,348,NW,"ID",33,dumple,DUMPLE,z,,,,,,0.312962963,-0.119444444,0,0,0,,0,277,277,287,1,,
,,,,,,,,,,,,,,,,,,5f2d9bac4a634e09294684c9,2020-08-10_15h29.13.085,lexical_decision_task_MP,2020.1.3,Win32,60,m,1,0.669655,,,,,,,,0.669655,1,,,,,,235,WORD,UN,33,pirate,GRUMPY,m,,,,,,0.312962963,-0.119444444,0,0,0,,0,278,278,174,1,,
,,,,,,,,,,,,,,,,,,5f2d9bac4a634e09294684c9,2020-08-10_15h29.13.085,lexical_decision_task_MP,2020.1.3,Win32,60,m,1,0.48779,,,,,,,,0.48779,1,,,,,,136,WORD,"ID",50,bleach,BLEACH,m,,,,,,0.312962963,-0.119444444,0,0,0,,0,279,279,75,1,,
,,,,,,,,,,,,,,,,,,5f2d9bac4a634e09294684c9,2020-08-10_15h29.13.085,lexical_decision_task_MP,2020.1.3,Win32,60,m,1,0.6291,,,,,,,,0.6291,1,,,,,,143,WORD,"ID",50,reason,REASON,m,,,,,,0.312962963,-0.119444444,0,0,0,,0,280,280,82,1,,
,,,,,,,,,,,,,,,,,,5f2d9bac4a634e09294684c9,2020-08-10_15h29.13.085,lexical_decision_task_MP,2020.1.3,Win32,60,m,0,0.692535,,,,,,,,0.692535,0,,,,,,402,NW,"ID",50,syntic,SYNTIC,z,,,,,,0.312962963,-0.119444444,0,0,0,,0,281,281,341,1,,
,,,,,,,,,,,,,,,,,,5f2d9bac4a634e09294684c9,2020-08-10_15h29.13.085,lexical_decision_task_MP,2020.1.3,Win32,60,m,1,0.57846,,,,,,,,0.57846,1,,,,,,171,WORD,"ID",50,depart,DEPART,m,,,,,,0.312962963,-0.119444444,0,0,0,,0,282,282,110,1,,
,,,,,,,,,,,,,,,,,,5f2d9bac4a634e09294684c9,2020-08-10_15h29.13.085,lexical_decision_task_MP,2020.1.3,Win32,60,z,1,1.0977,,,,,,,,1.0977,1,,,,,,434,NW,UN,33,impurb,PITROM,z,,,,,,0.312962963,-0.119444444,0,0,0,,0,283,283,373,1,,
,,,,,,,,,,,,,,,,,,5f2d9bac4a634e09294684c9,2020-08-10_15h29.13.085,lexical_decision_task_MP,2020.1.3,Win32,60,m,1,0.55319,,,,,,,,0.55319,1,,,,,,150,WORD,"ID",50,random,RANDOM,m,,,,,,0.312962963,-0.119444444,0,0,0,,0,284,284,89,1,,
,,,,,,,,,,,,,,,,,,5f2d9bac4a634e09294684c9,2020-08-10_15h29.13.085,lexical_decision_task_MP,2020.1.3,Win32,60,z,1,0.81644,,,,,,,,0.81644,1,,,,,,260,NW,UN,50,stunch,UNJECT,z,,,,,,0.312962963,-0.119444444,0,0,0,,0,285,285,439,1,,
,,,,,,,,,,,,,,,,,,5f2d9bac4a634e09294684c9,2020-08-10_15h29.13.085,lexical_decision_task_MP,2020.1.3,Win32,60,z,1,0.784015,,,,,,,,0.784015,1,,,,,,280,NW,UN,50,melaty,CURBOL,z,,,,,,0.312962963,-0.119444444,0,0,0,,0,286,286,459,1,,
,,,,,,,,,,,,,,,,,,5f2d9bac4a634e09294684c9,2020-08-10_15h29.13.085,lexical_decision_task_MP,2020.1.3,Win32,60,z,1,0.83414,,,,,,,,0.83414,1,,,,,,457,NW,UN,33,barcet,WANIGH,z,,,,,,0.312962963,-0.119444444,0,0,0,,0,287,287,396,1,,
,,,,,,,,,,,,,,,,,,5f2d9bac4a634e09294684c9,2020-08-10_15h29.13.085,lexical_decision_task_MP,2020.1.3,Win32,60,z,1,0.949205,,,,,,,,0.949205,1,,,,,,368,NW,"ID",50,hornal,HORNAL,z,,,,,,0.312962963,-0.119444444,0,0,0,,0,288,288,307,1,,
,,,,,,,,,,,,,,,,,,5f2d9bac4a634e09294684c9,2020-08-10_15h29.13.085,lexical_decision_task_MP,2020.1.3,Win32,60,z,1,0.79252,,,,,,,,0.79252,1,,,,,,253,NW,UN,50,varosh,RESAIT,z,,,,,,0.312962963,-0.119444444,0,0,0,,0,289,289,432,1,,
,,,,,,,,,,,,,,,,,,5f2d9bac4a634e09294684c9,2020-08-10_15h29.13.085,lexical_decision_task_MP,2020.1.3,Win32,60,m,1,0.689505,,,,,,,,0.689505,1,,,,,,170,WORD,"ID",50,pounce,POUNCE,m,,,,,,0.312962963,-0.119444444,0,0,0,,0,290,290,109,1,,
,,,,,,,,,,,,,,,,,,5f2d9bac4a634e09294684c9,2020-08-10_15h29.13.085,lexical_decision_task_MP,2020.1.3,Win32,60,z,1,0.649095,,,,,,,,0.649095,1,,,,,,313,NW,"ID",33,paurse,PAURSE,z,,,,,,0.312962963,-0.119444444,0,0,0,,0,291,291,252,1,,
,,,,,,,,,,,,,,,,,,5f2d9bac4a634e09294684c9,2020-08-10_15h29.13.085,lexical_decision_task_MP,2020.1.3,Win32,60,m,1,0.837945,,,,,,,,0.837945,1,,,,,,59,WORD,UN,50,pencil,SPLINT,m,,,,,,0.312962963,-0.119444444,0,0,0,,0,292,292,238,1,,
,,,,,,,,,,,,,,,,,,5f2d9bac4a634e09294684c9,2020-08-10_15h29.13.085,lexical_decision_task_MP,2020.1.3,Win32,60,m,1,0.515835,,,,,,,,0.515835,1,,,,,,205,WORD,UN,33,tailor,LOUNGE,m,,,,,,0.312962963,-0.119444444,0,0,0,,0,293,293,144,1,,
,,,,,,,,,,,,,,,,,,5f2d9bac4a634e09294684c9,2020-08-10_15h29.13.085,lexical_decision_task_MP,2020.1.3,Win32,60,z,1,0.69414,,,,,,,,0.69414,1,,,,,,365,NW,"ID",50,guairt,GUAIRT,z,,,,,,0.312962963,-0.119444444,0,0,0,,0,294,294,304,1,,
,,,,,,,,,,,,,,,,,,5f2d9bac4a634e09294684c9,2020-08-10_15h29.13.085,lexical_decision_task_MP,2020.1.3,Win32,60,m,1,0.50376,,,,,,,,0.50376,1,,,,,,148,WORD,"ID",50,custom,CUSTOM,m,,,,,,0.312962963,-0.119444444,0,0,0,,0,295,295,87,1,,
,,,,,,,,,,,,,,,,,,5f2d9bac4a634e09294684c9,2020-08-10_15h29.13.085,lexical_decision_task_MP,2020.1.3,Win32,60,m,1,0.532455,,,,,,,,0.532455,1,,,,,,135,WORD,"ID",50,import,IMPORT,m,,,,,,0.312962963,-0.119444444,0,0,0,,0,296,296,74,1,,
,,,,,,,,,,,,,,,,,,5f2d9bac4a634e09294684c9,2020-08-10_15h29.13.085,lexical_decision_task_MP,2020.1.3,Win32,60,z,1,0.578735,,,,,,,,0.578735,1,,,,,,298,NW,UN,50,sturch,PIERGY,z,,,,,,0.312962963,-0.119444444,0,0,0,,0,297,297,477,1,,
,,,,,,,,,,,,,,,,,,5f2d9bac4a634e09294684c9,2020-08-10_15h29.13.085,lexical_decision_task_MP,2020.1.3,Win32,60,z,0,0.615515,,,,,,,,0.615515,0,,,,,,183,WORD,UN,33,sleazy,MILDEW,m,,,,,,0.312962963,-0.119444444,0,0,0,,0,298,298,122,1,,
,,,,,,,,,,,,,,,,,,5f2d9bac4a634e09294684c9,2020-08-10_15h29.13.085,lexical_decision_task_MP,2020.1.3,Win32,60,z,1,0.61824,,,,,,,,0.61824,1,,,,,,378,NW,"ID",50,shrile,SHRILE,z,,,,,,0.312962963,-0.119444444,0,0,0,,0,299,299,317,1,,
,,,,,,,,,,,,,,,,,,5f2d9bac4a634e09294684c9,2020-08-10_15h29.13.085,lexical_decision_task_MP,2020.1.3,Win32,60,z,1,0.746075,,,,,,,,0.746075,1,,,,,,396,NW,"ID",50,flengy,FLENGY,z,,,,,,0.312962963,-0.119444444,0,0,0,,0,300,300,335,1,,
,,,,,,,,,,,,,,,,,,5f2d9bac4a634e09294684c9,2020-08-10_15h29.13.085,lexical_decision_task_MP,2020.1.3,Win32,60,z,1,0.529585,,,,,,,,0.529585,1,,,,,,366,NW,"ID",50,toshel,TOSHEL,z,,,,,,0.312962963,-0.119444444,0,0,0,,0,301,301,305,1,,
,,,,,,,,,,,,,,,,,,5f2d9bac4a634e09294684c9,2020-08-10_15h29.13.085,lexical_decision_task_MP,2020.1.3,Win32,60,m,1,0.56184,,,,,,,,0.56184,1,,,,,,144,WORD,"ID",50,sponge,SPONGE,m,,,,,,0.312962963,-0.119444444,0,0,0,,0,302,302,83,1,,
,,,,,,,,,,,,,,,,,,5f2d9bac4a634e09294684c9,2020-08-10_15h29.13.085,lexical_decision_task_MP,2020.1.3,Win32,60,m,1,0.609035,,,,,,,,0.609035,1,,,,,,186,WORD,UN,33,course,PORTAL,m,,,,,,0.312962963,-0.119444444,0,0,0,,0,303,303,125,1,,
,,,,,,,,,,,,,,,,,,5f2d9bac4a634e09294684c9,2020-08-10_15h29.13.085,lexical_decision_task_MP,2020.1.3,Win32,60,m,1,0.501995,,,,,,,,0.501995,1,,,,,,109,WORD,"ID",33,wonder,WONDER,m,,,,,,0.312962963,-0.119444444,0,0,0,,0,304,304,48,1,,
,,,,,,,,,,,,,,,,,,5f2d9bac4a634e09294684c9,2020-08-10_15h29.13.085,lexical_decision_task_MP,2020.1.3,Win32,60,m,1,0.47019,,,,,,,,0.47019,1,,,,,,12,WORD,UN,50,strive,ORANGE,m,,,,,,0.312962963,-0.119444444,0,0,0,,0,305,305,191,1,,
,,,,,,,,,,,,,,,,,,5f2d9bac4a634e09294684c9,2020-08-10_15h29.13.085,lexical_decision_task_MP,2020.1.3,Win32,60,z,1,0.582205,,,,,,,,0.582205,1,,,,,,427,NW,UN,33,tandly,SCHIND,z,,,,,,0.312962963,-0.119444444,0,0,0,,0,306,306,366,1,,
,,,,,,,,,,,,,,,,,,5f2d9bac4a634e09294684c9,2020-08-10_15h29.13.085,lexical_decision_task_MP,2020.1.3,Win32,60,m,1,0.6663,,,,,,,,0.6663,1,,,,,,60,WORD,UN,50,fright,PENCIL,m,,,,,,0.312962963,-0.119444444,0,0,0,,0,307,307,239,1,,
,,,,,,,,,,,,,,,,,,5f2d9bac4a634e09294684c9,2020-08-10_15h29.13.085,lexical_decision_task_MP,2020.1.3,Win32,60,m,1,1.14491,,,,,,,,1.14491,1,,,,,,37,WORD,UN,50,powder,INSULT,m,,,,,,0.312962963,-0.119444444,0,0,0,,0,308,308,216,1,,
,,,,,,,,,,,,,,,,,,5f2d9bac4a634e09294684c9,2020-08-10_15h29.13.085,lexical_decision_task_MP,2020.1.3,Win32,60,z,1,0.672835,,,,,,,,0.672835,1,,,,,,422,NW,UN,33,streld,ALCOUD,z,,,,,,0.312962963,-0.119444444,0,0,0,,0,309,309,361,1,,
,,,,,,,,,,,,,,,,,,5f2d9bac4a634e09294684c9,2020-08-10_15h29.13.085,lexical_decision_task_MP,2020.1.3,Win32,60,z,1,0.582585,,,,,,,,0.582585,1,,,,,,361,NW,"ID",50,pauche,PAUCHE,z,,,,,,0.312962963,-0.119444444,0,0,0,,0,310,310,300,1,,
,,,,,,,,,,,,,,,,,,5f2d9bac4a634e09294684c9,2020-08-10_15h29.13.085,lexical_decision_task_MP,2020.1.3,Win32,60,z,1,0.82485,,,,,,,,0.82485,1,,,,,,458,NW,UN,33,hocite,BARCET,z,,,,,,0.312962963,-0.119444444,0,0,0,,0,311,311,397,1,,
,,,,,,,,,,,,,,,,,,5f2d9bac4a634e09294684c9,2020-08-10_15h29.13.085,lexical_decision_task_MP,2020.1.3,Win32,60,m,1,0.65684,,,,,,,,0.65684,1,,,,,,169,WORD,"ID",50,genius,GENIUS,m,,,,,,0.312962963,-0.119444444,0,0,0,,0,312,312,108,1,,
,,,,,,,,,,,,,,,,,,5f2d9bac4a634e09294684c9,2020-08-10_15h29.13.085,lexical_decision_task_MP,2020.1.3,Win32,60,,0,,,,,,,,,0.65684,-1,,,,,,357,NW,"ID",33,derain,DERAIN,z,,,,,,0.312962963,-0.119444444,0,0,0,,0,313,313,296,1,,
,,,,,,,,,,,,,,,,,,5f2d9bac4a634e09294684c9,2020-08-10_15h29.13.085,lexical_decision_task_MP,2020.1.3,Win32,60,m,1,0.60812,,,,,,,,0.60812,1,,,,,,157,WORD,"ID",50,dragon,DRAGON,m,,,,,,0.312962963,-0.119444444,0,0,0,,0,314,314,96,1,,
,,,,,,,,,,,,,,,,,,5f2d9bac4a634e09294684c9,2020-08-10_15h29.13.085,lexical_decision_task_MP,2020.1.3,Win32,60,z,1,0.95675,,,,,,,,0.95675,1,,,,,,420,NW,"ID",50,gushop,GUSHOP,z,,,,,,0.312962963,-0.119444444,0,0,0,,0,315,315,359,1,,
,,,,,,,,,,,,,,,,,,5f2d9bac4a634e09294684c9,2020-08-10_15h29.13.085,lexical_decision_task_MP,2020.1.3,Win32,60,m,1,0.699235,,,,,,,,0.699235,1,,,,,,24,WORD,UN,50,domain,PRAISE,m,,,,,,0.312962963,-0.119444444,0,0,0,,0,316,316,203,1,,
,,,,,,,,,,,,,,,,,,5f2d9bac4a634e09294684c9,2020-08-10_15h29.13.085,lexical_decision_task_MP,2020.1.3,Win32,60,z,1,0.63258,,,,,,,,0.63258,1,,,,,,329,NW,"ID",33,yarike,YARIKE,z,,,,,,0.312962963,-0.119444444,0,0,0,,0,317,317,268,1,,
,,,,,,,,,,,,,,,,,,5f2d9bac4a634e09294684c9,2020-08-10_15h29.13.085,lexical_decision_task_MP,2020.1.3,Win32,60,z,1,0.8758,,,,,,,,0.8758,1,,,,,,249,NW,UN,50,milted,BATROL,z,,,,,,0.312962963,-0.119444444,0,0,0,,0,318,318,428,1,,
,,,,,,,,,,,,,,,,,,5f2d9bac4a634e09294684c9,2020-08-10_15h29.13.085,lexical_decision_task_MP,2020.1.3,Win32,60,m,1,1.08949,,,,,,,,1.08949,1,,,,,,11,WORD,UN,50,amount,CRUISE,m,,,,,,0.312962963,-0.119444444,0,0,0,,0,319,319,190,1,,
,,,,,,,,,,,,,,,,,,5f2d9bac4a634e09294684c9,2020-08-10_15h29.13.085,lexical_decision_task_MP,2020.1.3,Win32,60,z,1,0.743585,,,,,,,,0.743585,1,,,,,,321,NW,"ID",33,miator,MIATOR,z,,,,,,0.312962963,-0.119444444,0,0,0,,0,320,320,260,1,,
,,,,,,,,,,,,,,,,,,5f2d9bac4a634e09294684c9,2020-08-10_15h29.13.085,lexical_decision_task_MP,2020.1.3,Win32,60,m,1,0.550905,,,,,,,,0.550905,1,,,,,,141,WORD,"ID",50,orphan,ORPHAN,m,,,,,,0.312962963,-0.119444444,0,0,0,,0,321,321,80,1,,
,,,,,,,,,,,,,,,,,,5f2d9bac4a634e09294684c9,2020-08-10_15h29.13.085,lexical_decision_task_MP,2020.1.3,Win32,60,z,1,0.75765,,,,,,,,0.75765,1,,,,,,386,NW,"ID",50,ancust,ANCUST,z,,,,,,0.312962963,-0.119444444,0,0,0,,0,322,322,325,1,,
,,,,,,,,,,,,,,,,,,5f2d9bac4a634e09294684c9,2020-08-10_15h29.13.085,lexical_decision_task_MP,2020.1.3,Win32,60,m,1,0.468315,,,,,,,,0.468315,1,,,,,,129,WORD,"ID",50,marvel,MARVEL,m,,,,,,0.312962963,-0.119444444,0,0,0,,0,323,323,68,1,,
,,,,,,,,,,,,,,,,,,5f2d9bac4a634e09294684c9,2020-08-10_15h29.13.085,lexical_decision_task_MP,2020.1.3,Win32,60,z,1,0.94371,,,,,,,,0.94371,1,,,,,,303,NW,"ID",33,fiream,FIREAM,z,,,,,,0.312962963,-0.119444444,0,0,0,,0,324,324,242,1,,
,,,,,,,,,,,,,,,,,,5f2d9bac4a634e09294684c9,2020-08-10_15h29.13.085,lexical_decision_task_MP,2020.1.3,Win32,60,z,1,0.6697,,,,,,,,0.6697,1,,,,,,387,NW,"ID",50,gronce,GRONCE,z,,,,,,0.312962963,-0.119444444,0,0,0,,0,325,325,326,1,,
,,,,,,,,,,,,,,,,,,5f2d9bac4a634e09294684c9,2020-08-10_15h29.13.085,lexical_decision_task_MP,2020.1.3,Win32,60,z,1,0.668525,,,,,,,,0.668525,1,,,,,,270,NW,UN,50,aubrid,WRIMSY,z,,,,,,0.312962963,-0.119444444,0,0,0,,0,326,326,449,1,,
,,,,,,,,,,,,,,,,,,5f2d9bac4a634e09294684c9,2020-08-10_15h29.13.085,lexical_decision_task_MP,2020.1.3,Win32,60,z,0,0.707045,,,,,,,,0.707045,0,,,,,,228,WORD,UN,33,kidney,MASTER,m,,,,,,0.312962963,-0.119444444,0,0,0,,0,327,327,167,1,,
,,,,,,,,,,,,,,,,,,5f2d9bac4a634e09294684c9,2020-08-10_15h29.13.085,lexical_decision_task_MP,2020.1.3,Win32,60,m,1,0.5961,,,,,,,,0.5961,1,,,,,,78,WORD,"ID",33,column,COLUMN,m,,,,,,0.312962963,-0.119444444,0,0,0,,0,328,328,17,1,,
,,,,,,,,,,,,,,,,,,5f2d9bac4a634e09294684c9,2020-08-10_15h29.13.085,lexical_decision_task_MP,2020.1.3,Win32,60,m,1,0.63341,,,,,,,,0.63341,1,,,,,,145,WORD,"ID",50,parish,PARISH,m,,,,,,0.312962963,-0.119444444,0,0,0,,0,329,329,84,1,,
,,,,,,,,,,,,,,,,,,5f2d9bac4a634e09294684c9,2020-08-10_15h29.13.085,lexical_decision_task_MP,2020.1.3,Win32,60,m,1,0.57894,,,,,,,,0.57894,1,,,,,,181,WORD,UN,33,winter,GLANCE,m,,,,,,0.312962963,-0.119444444,0,0,0,,0,330,330,120,1,,
,,,,,,,,,,,,,,,,,,5f2d9bac4a634e09294684c9,2020-08-10_15h29.13.085,lexical_decision_task_MP,2020.1.3,Win32,60,z,1,0.66,,,,,,,,0.66,1,,,,,,467,NW,UN,33,wictor,GORBIE,z,,,,,,0.312962963,-0.119444444,0,0,0,,0,331,331,406,1,,
,,,,,,,,,,,,,,,,,,5f2d9bac4a634e09294684c9,2020-08-10_15h29.13.085,lexical_decision_task_MP,2020.1.3,Win32,60,z,1,0.6234,,,,,,,,0.6234,1,,,,,,433,NW,UN,33,pitrom,DRANCE,z,,,,,,0.312962963,-0.119444444,0,0,0,,0,332,332,372,1,,
,,,,,,,,,,,,,,,,,,5f2d9bac4a634e09294684c9,2020-08-10_15h29.13.085,lexical_decision_task_MP,2020.1.3,Win32,60,z,1,0.67778,,,,,,,,0.67778,1,,,,,,328,NW,"ID",33,broake,BROAKE,z,,,,,,0.312962963,-0.119444444,0,0,0,,0,333,333,267,1,,
,,,,,,,,,,,,,,,,,,5f2d9bac4a634e09294684c9,2020-08-10_15h29.13.085,lexical_decision_task_MP,2020.1.3,Win32,60,z,1,0.54648,,,,,,,,0.54648,1,,,,,,283,NW,UN,50,shaple,VERALF,z,,,,,,0.312962963,-0.119444444,0,0,0,,0,334,334,462,1,,
,,,,,,,,,,,,,,,,,,5f2d9bac4a634e09294684c9,2020-08-10_15h29.13.085,lexical_decision_task_MP,2020.1.3,Win32,60,z,1,0.59006,,,,,,,,0.59006,1,,,,,,460,NW,UN,33,justre,MINGAR,z,,,,,,0.312962963,-0.119444444,0,0,0,,0,335,335,399,1,,
,,,,,,,,,,,,,,,,,,5f2d9bac4a634e09294684c9,2020-08-10_15h29.13.085,lexical_decision_task_MP,2020.1.3,Win32,60,m,1,0.772325,,,,,,,,0.772325,1,,,,,,196,WORD,UN,33,stream,CREDIT,m,,,,,,0.312962963,-0.119444444,0,0,0,,0,336,336,135,1,,
,,,,,,,,,,,,,,,,,,5f2d9bac4a634e09294684c9,2020-08-10_15h29.13.085,lexical_decision_task_MP,2020.1.3,Win32,60,m,0,0.87801,,,,,,,,0.87801,0,,,,,,281,NW,UN,50,porlex,MELATY,z,,,,,,0.312962963,-0.119444444,0,0,0,,0,337,337,460,1,,
,,,,,,,,,,,,,,,,,,5f2d9bac4a634e09294684c9,2020-08-10_15h29.13.085,lexical_decision_task_MP,2020.1.3,Win32,60,m,1,0.58258,,,,,,,,0.58258,1,,,,,,194,WORD,UN,33,resign,ABSENT,m,,,,,,0.312962963,-0.119444444,0,0,0,,0,338,338,133,1,,
,,,,,,,,,,,,,,,,,,5f2d9bac4a634e09294684c9,2020-08-10_15h29.13.085,lexical_decision_task_MP,2020.1.3,Win32,60,z,1,0.79097,,,,,,,,0.79097,1,,,,,,347,NW,"ID",33,kerift,KERIFT,z,,,,,,0.312962963,-0.119444444,0,0,0,,0,339,339,286,1,,
,,,,,,,,,,,,,,,,,,5f2d9bac4a634e09294684c9,2020-08-10_15h29.13.085,lexical_decision_task_MP,2020.1.3,Win32,60,m,1,0.645065,,,,,,,,0.645065,1,,,,,,83,WORD,"ID",33,result,RESULT,m,,,,,,0.312962963,-0.119444444,0,0,0,,0,340,340,22,1,,
,,,,,,,,,,,,,,,,,,5f2d9bac4a634e09294684c9,2020-08-10_15h29.13.085,lexical_decision_task_MP,2020.1.3,Win32,60,m,1,0.58821,,,,,,,,0.58821,1,,,,,,168,WORD,"ID",50,answer,ANSWER,m,,,,,,0.312962963,-0.119444444,0,0,0,,0,341,341,107,1,,
,,,,,,,,,,,,,,,,,,5f2d9bac4a634e09294684c9,2020-08-10_15h29.13.085,lexical_decision_task_MP,2020.1.3,Win32,60,m,1,0.573855,,,,,,,,0.573855,1,,,,,,191,WORD,UN,33,beacon,STABLE,m,,,,,,0.312962963,-0.119444444,0,0,0,,0,342,342,130,1,,
,,,,,,,,,,,,,,,,,,5f2d9bac4a634e09294684c9,2020-08-10_15h29.13.085,lexical_decision_task_MP,2020.1.3,Win32,60,z,1,0.61994,,,,,,,,0.61994,1,,,,,,275,NW,UN,50,yarmon,SLEIRT,z,,,,,,0.312962963,-0.119444444,0,0,0,,0,343,343,454,1,,
,,,,,,,,,,,,,,,,,,5f2d9bac4a634e09294684c9,2020-08-10_15h29.13.085,lexical_decision_task_MP,2020.1.3,Win32,60,z,1,0.60431,,,,,,,,0.60431,1,,,,,,370,NW,"ID",50,sleact,SLEACT,z,,,,,,0.312962963,-0.119444444,0,0,0,,0,344,344,309,1,,
,,,,,,,,,,,,,,,,,,5f2d9bac4a634e09294684c9,2020-08-10_15h29.13.085,lexical_decision_task_MP,2020.1.3,Win32,60,z,1,0.553445,,,,,,,,0.553445,1,,,,,,472,NW,UN,33,gorbie,CIGNEY,z,,,,,,0.312962963,-0.119444444,0,0,0,,0,345,345,411,1,,
,,,,,,,,,,,,,,,,,,5f2d9bac4a634e09294684c9,2020-08-10_15h29.13.085,lexical_decision_task_MP,2020.1.3,Win32,60,z,1,0.665125,,,,,,,,0.665125,1,,,,,,403,NW,"ID",50,bruats,BRUATS,z,,,,,,0.312962963,-0.119444444,0,0,0,,0,346,346,342,1,,
,,,,,,,,,,,,,,,,,,5f2d9bac4a634e09294684c9,2020-08-10_15h29.13.085,lexical_decision_task_MP,2020.1.3,Win32,60,m,1,0.63893,,,,,,,,0.63893,1,,,,,,111,WORD,"ID",33,induce,INDUCE,m,,,,,,0.312962963,-0.119444444,0,0,0,,0,347,347,50,1,,
,,,,,,,,,,,,,,,,,,5f2d9bac4a634e09294684c9,2020-08-10_15h29.13.085,lexical_decision_task_MP,2020.1.3,Win32,60,z,1,0.762065,,,,,,,,0.762065,1,,,,,,291,NW,UN,50,ablint,PRETCH,z,,,,,,0.312962963,-0.119444444,0,0,0,,0,348,348,470,1,,
,,,,,,,,,,,,,,,,,,5f2d9bac4a634e09294684c9,2020-08-10_15h29.13.085,lexical_decision_task_MP,2020.1.3,Win32,60,m,1,0.50893,,,,,,,,0.50893,1,,,,,,64,WORD,"ID",33,throne,THRONE,m,,,,,,0.312962963,-0.119444444,0,0,0,,0,349,349,3,1,,
,,,,,,,,,,,,,,,,,,5f2d9bac4a634e09294684c9,2020-08-10_15h29.13.085,lexical_decision_task_MP,2020.1.3,Win32,60,z,1,0.69468,,,,,,,,0.69468,1,,,,,,435,NW,UN,33,frutan,IMPURB,z,,,,,,0.312962963,-0.119444444,0,0,0,,0,350,350,374,1,,
,,,,,,,,,,,,,,,,,,5f2d9bac4a634e09294684c9,2020-08-10_15h29.13.085,lexical_decision_task_MP,2020.1.3,Win32,60,z,1,0.64302,,,,,,,,0.64302,1,,,,,,463,NW,UN,33,chaite,KISPEL,z,,,,,,0.312962963,-0.119444444,0,0,0,,0,351,351,402,1,,
,,,,,,,,,,,,,,,,,,5f2d9bac4a634e09294684c9,2020-08-10_15h29.13.085,lexical_decision_task_MP,2020.1.3,Win32,60,m,1,0.62652,,,,,,,,0.62652,1,,,,,,120,WORD,"ID",33,strain,STRAIN,m,,,,,,0.312962963,-0.119444444,0,0,0,,0,352,352,59,1,,
,,,,,,,,,,,,,,,,,,5f2d9bac4a634e09294684c9,2020-08-10_15h29.13.085,lexical_decision_task_MP,2020.1.3,Win32,60,z,0,0.742825,,,,,,,,0.742825,0,,,,,,176,WORD,"ID",50,strife,STRIFE,m,,,,,,0.312962963,-0.119444444,0,0,0,,0,353,353,115,1,,
,,,,,,,,,,,,,,,,,,5f2d9bac4a634e09294684c9,2020-08-10_15h29.13.085,lexical_decision_task_MP,2020.1.3,Win32,60,m,1,0.68575,,,,,,,,0.68575,1,,,,,,42,WORD,UN,50,tongue,CHAPEL,m,,,,,,0.312962963,-0.119444444,0,0,0,,0,354,354,221,1,,
,,,,,,,,,,,,,,,,,,5f2d9bac4a634e09294684c9,2020-08-10_15h29.13.085,lexical_decision_task_MP,2020.1.3,Win32,60,m,0,0.63213,,,,,,,,0.63213,0,,,,,,413,NW,"ID",50,equats,EQUATS,z,,,,,,0.312962963,-0.119444444,0,0,0,,0,355,355,352,1,,
,,,,,,,,,,,,,,,,,,5f2d9bac4a634e09294684c9,2020-08-10_15h29.13.085,lexical_decision_task_MP,2020.1.3,Win32,60,m,1,0.57154,,,,,,,,0.57154,1,,,,,,201,WORD,UN,33,factor,ADMIRE,m,,,,,,0.312962963,-0.119444444,0,0,0,,0,356,356,140,1,,
,,,,,,,,,,,,,,,,,,5f2d9bac4a634e09294684c9,2020-08-10_15h29.13.085,lexical_decision_task_MP,2020.1.3,Win32,60,z,1,0.54946,,,,,,,,0.54946,1,,,,,,241,NW,UN,50,unwert,SMENCO,z,,,,,,0.312962963,-0.118518519,0,0,0,,0,357,357,420,1,,
,,,,,,,,,,,,,,,,,,5f2d9bac4a634e09294684c9,2020-08-10_15h29.13.085,lexical_decision_task_MP,2020.1.3,Win32,60,z,1,0.54032,,,,,,,,0.54032,1,,,,,,344,NW,"ID",33,scrily,SCRILY,z,,,,,,0.312962963,-0.118518519,0,0,0,,0,358,358,283,1,,
,,,,,,,,,,,,,,,,,,5f2d9bac4a634e09294684c9,2020-08-10_15h29.13.085,lexical_decision_task_MP,2020.1.3,Win32,60,m,1,0.539925,,,,,,,,0.539925,1,,,,,,151,WORD,"ID",50,mystic,MYSTIC,m,,,,,,0.312962963,-0.118518519,0,0,0,,0,359,359,90,1,,
,,,,,,,,,,,,,,,,,,5f2d9bac4a634e09294684c9,2020-08-10_15h29.13.085,lexical_decision_task_MP,2020.1.3,Win32,60,z,1,0.732685,,,,,,,,0.732685,1,,,,,,317,NW,"ID",33,worbal,WORBAL,z,,,,,,0.312962963,-0.118518519,0,0,0,,0,360,360,256,1,,
,,,,,,,,,,,,,,,,,,5f2d9bac4a634e09294684c9,2020-08-10_15h29.13.085,lexical_decision_task_MP,2020.1.3,Win32,60,z,1,0.635005,,,,,,,,0.635005,1,,,,,,244,NW,UN,50,anougs,EATRIC,z,,,,,,0.312962963,-0.118518519,0,0,0,,0,361,361,423,1,,
,,,,,,,,,,,,,,,,,,5f2d9bac4a634e09294684c9,2020-08-10_15h29.13.085,lexical_decision_task_MP,2020.1.3,Win32,60,m,1,0.64325,,,,,,,,0.64325,1,,,,,,98,WORD,"ID",33,belong,BELONG,m,,,,,,0.312962963,-0.118518519,0,0,0,space,0,362,362,37,1,2.217285,
,,,,,,,,,,,,,,,,,,5f2d9bac4a634e09294684c9,2020-08-10_15h29.13.085,lexical_decision_task_MP,2020.1.3,Win32,60,m,0,0.833395,,,,,,,,0.833395,0,,,,,,342,NW,"ID",33,randow,RANDOW,z,,,,,,0.312962963,-0.118518519,0,0,0,,0,363,363,281,1,,
,,,,,,,,,,,,,,,,,,5f2d9bac4a634e09294684c9,2020-08-10_15h29.13.085,lexical_decision_task_MP,2020.1.3,Win32,60,m,0,0.621985,,,,,,,,0.621985,0,,,,,,359,NW,"ID",33,fonver,FONVER,z,,,,,,0.312962963,-0.118518519,0,0,0,,0,364,364,298,1,,
,,,,,,,,,,,,,,,,,,5f2d9bac4a634e09294684c9,2020-08-10_15h29.13.085,lexical_decision_task_MP,2020.1.3,Win32,60,m,1,0.745075,,,,,,,,0.745075,1,,,,,,132,WORD,"ID",50,strong,STRONG,m,,,,,,0.312962963,-0.118518519,0,0,0,,0,365,365,71,1,,
,,,,,,,,,,,,,,,,,,5f2d9bac4a634e09294684c9,2020-08-10_15h29.13.085,lexical_decision_task_MP,2020.1.3,Win32,60,z,1,0.61759,,,,,,,,0.61759,1,,,,,,349,NW,"ID",33,asylen,ASYLEN,z,,,,,,0.312962963,-0.118518519,0,0,0,,0,366,366,288,1,,
,,,,,,,,,,,,,,,,,,5f2d9bac4a634e09294684c9,2020-08-10_15h29.13.085,lexical_decision_task_MP,2020.1.3,Win32,60,m,1,0.56162,,,,,,,,0.56162,1,,,,,,31,WORD,UN,50,buckle,WEAPON,m,,,,,,0.312962963,-0.118518519,0,0,0,,0,367,367,210,1,,
,,,,,,,,,,,,,,,,,,5f2d9bac4a634e09294684c9,2020-08-10_15h29.13.085,lexical_decision_task_MP,2020.1.3,Win32,60,m,1,0.7126,,,,,,,,0.7126,1,,,,,,140,WORD,"ID",50,prince,PRINCE,m,,,,,,0.312962963,-0.118518519,0,0,0,,0,368,368,79,1,,
,,,,,,,,,,,,,,,,,,5f2d9bac4a634e09294684c9,2020-08-10_15h29.13.085,lexical_decision_task_MP,2020.1.3,Win32,60,z,1,0.71536,,,,,,,,0.71536,1,,,,,,358,NW,"ID",33,fleack,FLEACK,z,,,,,,0.312962963,-0.118518519,0,0,0,,0,369,369,297,1,,
,,,,,,,,,,,,,,,,,,5f2d9bac4a634e09294684c9,2020-08-10_15h29.13.085,lexical_decision_task_MP,2020.1.3,Win32,60,z,1,0.61786,,,,,,,,0.61786,1,,,,,,404,NW,"ID",50,cluirm,CLUIRM,z,,,,,,0.312962963,-0.118518519,0,0,0,,0,370,370,343,1,,
,,,,,,,,,,,,,,,,,,5f2d9bac4a634e09294684c9,2020-08-10_15h29.13.085,lexical_decision_task_MP,2020.1.3,Win32,60,m,1,0.758515,,,,,,,,0.758515,1,,,,,,101,WORD,"ID",33,wrench,WRENCH,m,,,,,,0.312962963,-0.118518519,0,0,0,,0,371,371,40,1,,
,,,,,,,,,,,,,,,,,,5f2d9bac4a634e09294684c9,2020-08-10_15h29.13.085,lexical_decision_task_MP,2020.1.3,Win32,60,z,1,1.172835,,,,,,,,1.172835,1,,,,,,452,NW,UN,33,bolvis,SURDEN,z,,,,,,0.312962963,-0.118518519,0,0,0,,0,372,372,391,1,,
,,,,,,,,,,,,,,,,,,5f2d9bac4a634e09294684c9,2020-08-10_15h29.13.085,lexical_decision_task_MP,2020.1.3,Win32,60,z,1,1.656355,,,,,,,,1.656355,1,,,,,,449,NW,UN,33,phrect,BRUNGE,z,,,,,,0.312962963,-0.118518519,0,0,0,,0,373,373,388,1,,
,,,,,,,,,,,,,,,,,,5f2d9bac4a634e09294684c9,2020-08-10_15h29.13.085,lexical_decision_task_MP,2020.1.3,Win32,60,z,1,0.57534,,,,,,,,0.57534,1,,,,,,465,NW,UN,33,bafent,WHIVEX,z,,,,,,0.312962963,-0.118518519,0,0,0,,0,374,374,404,1,,
,,,,,,,,,,,,,,,,,,5f2d9bac4a634e09294684c9,2020-08-10_15h29.13.085,lexical_decision_task_MP,2020.1.3,Win32,60,m,1,0.54997,,,,,,,,0.54997,1,,,,,,118,WORD,"ID",33,flight,FLIGHT,m,,,,,,0.312962963,-0.118518519,0,0,0,,0,375,375,57,1,,
,,,,,,,,,,,,,,,,,,5f2d9bac4a634e09294684c9,2020-08-10_15h29.13.085,lexical_decision_task_MP,2020.1.3,Win32,60,z,1,0.68175,,,,,,,,0.68175,1,,,,,,416,NW,"ID",50,pathel,PATHEL,z,,,,,,0.312962963,-0.118518519,0,0,0,,0,376,376,355,1,,
,,,,,,,,,,,,,,,,,,5f2d9bac4a634e09294684c9,2020-08-10_15h29.13.085,lexical_decision_task_MP,2020.1.3,Win32,60,z,1,0.832555,,,,,,,,0.832555,1,,,,,,475,NW,UN,33,josted,PEBRIC,z,,,,,,0.312962963,-0.118518519,0,0,0,,0,377,377,414,1,,
,,,,,,,,,,,,,,,,,,5f2d9bac4a634e09294684c9,2020-08-10_15h29.13.085,lexical_decision_task_MP,2020.1.3,Win32,60,m,1,0.61055,,,,,,,,0.61055,1,,,,,,210,WORD,UN,33,infect,MONKEY,m,,,,,,0.312962963,-0.118518519,0,0,0,,0,378,378,149,1,,
,,,,,,,,,,,,,,,,,,5f2d9bac4a634e09294684c9,2020-08-10_15h29.13.085,lexical_decision_task_MP,2020.1.3,Win32,60,z,1,0.679615,,,,,,,,0.679615,1,,,,,,385,NW,"ID",50,veigma,VEIGMA,z,,,,,,0.312962963,-0.118518519,0,0,0,,0,379,379,324,1,,
,,,,,,,,,,,,,,,,,,5f2d9bac4a634e09294684c9,2020-08-10_15h29.13.085,lexical_decision_task_MP,2020.1.3,Win32,60,m,1,0.56253,,,,,,,,0.56253,1,,,,,,96,WORD,"ID",33,ignore,IGNORE,m,,,,,,0.312962963,-0.118518519,0,0,0,,0,380,380,35,1,,
,,,,,,,,,,,,,,,,,,5f2d9bac4a634e09294684c9,2020-08-10_15h29.13.085,lexical_decision_task_MP,2020.1.3,Win32,60,m,1,0.57289,,,,,,,,0.57289,1,,,,,,34,WORD,UN,50,socket,JUNGLE,m,,,,,,0.312962963,-0.118518519,0,0,0,,0,381,381,213,1,,
,,,,,,,,,,,,,,,,,,5f2d9bac4a634e09294684c9,2020-08-10_15h29.13.085,lexical_decision_task_MP,2020.1.3,Win32,60,m,1,0.548935,,,,,,,,0.548935,1,,,,,,9,WORD,UN,50,bridge,HUSTLE,m,,,,,,0.312962963,-0.118518519,0,0,0,,0,382,382,188,1,,
,,,,,,,,,,,,,,,,,,5f2d9bac4a634e09294684c9,2020-08-10_15h29.13.085,lexical_decision_task_MP,2020.1.3,Win32,60,m,1,0.46159,,,,,,,,0.46159,1,,,,,,187,WORD,UN,33,social,COURSE,m,,,,,,0.312962963,-0.118518519,0,0,0,,0,383,383,126,1,,
,,,,,,,,,,,,,,,,,,5f2d9bac4a634e09294684c9,2020-08-10_15h29.13.085,lexical_decision_task_MP,2020.1.3,Win32,60,z,1,0.582155,,,,,,,,0.582155,1,,,,,,468,NW,UN,33,padifs,WICTOR,z,,,,,,0.312962963,-0.118518519,0,0,0,,0,384,384,407,1,,
,,,,,,,,,,,,,,,,,,5f2d9bac4a634e09294684c9,2020-08-10_15h29.13.085,lexical_decision_task_MP,2020.1.3,Win32,60,m,1,0.49117,,,,,,,,0.49117,1,,,,,,128,WORD,"ID",50,senior,SENIOR,m,,,,,,0.312962963,-0.118518519,0,0,0,,0,385,385,67,1,,
,,,,,,,,,,,,,,,,,,5f2d9bac4a634e09294684c9,2020-08-10_15h29.13.085,lexical_decision_task_MP,2020.1.3,Win32,60,m,1,0.52862,,,,,,,,0.52862,1,,,,,,180,WORD,"ID",50,silent,SILENT,m,,,,,,0.312962963,-0.118518519,0,0,0,,0,386,386,119,1,,
,,,,,,,,,,,,,,,,,,5f2d9bac4a634e09294684c9,2020-08-10_15h29.13.085,lexical_decision_task_MP,2020.1.3,Win32,60,z,0,0.724845,,,,,,,,0.724845,0,,,,,,197,WORD,UN,33,wicked,STREAM,m,,,,,,0.312962963,-0.118518519,0,0,0,,0,387,387,136,1,,
,,,,,,,,,,,,,,,,,,5f2d9bac4a634e09294684c9,2020-08-10_15h29.13.085,lexical_decision_task_MP,2020.1.3,Win32,60,z,1,0.673355,,,,,,,,0.673355,1,,,,,,442,NW,UN,33,dorsex,ABOUNE,z,,,,,,0.312962963,-0.118518519,0,0,0,,0,388,388,381,1,,
,,,,,,,,,,,,,,,,,,5f2d9bac4a634e09294684c9,2020-08-10_15h29.13.085,lexical_decision_task_MP,2020.1.3,Win32,60,m,1,0.54928,,,,,,,,0.54928,1,,,,,,158,WORD,"ID",50,island,ISLAND,m,,,,,,0.312962963,-0.118518519,0,0,0,,0,389,389,97,1,,
,,,,,,,,,,,,,,,,,,5f2d9bac4a634e09294684c9,2020-08-10_15h29.13.085,lexical_decision_task_MP,2020.1.3,Win32,60,z,1,0.5824,,,,,,,,0.5824,1,,,,,,423,NW,UN,33,praile,STRELD,z,,,,,,0.312962963,-0.118518519,0,0,0,,0,390,390,362,1,,
,,,,,,,,,,,,,,,,,,5f2d9bac4a634e09294684c9,2020-08-10_15h29.13.085,lexical_decision_task_MP,2020.1.3,Win32,60,z,1,0.565755,,,,,,,,0.565755,1,,,,,,414,NW,"ID",50,serbol,SERBOL,z,,,,,,0.312962963,-0.118518519,0,0,0,,0,391,391,353,1,,
,,,,,,,,,,,,,,,,,,5f2d9bac4a634e09294684c9,2020-08-10_15h29.13.085,lexical_decision_task_MP,2020.1.3,Win32,60,z,1,0.58842,,,,,,,,0.58842,1,,,,,,456,NW,UN,33,wanigh,BROGET,z,,,,,,0.312962963,-0.118518519,0,0,0,,0,392,392,395,1,,
,,,,,,,,,,,,,,,,,,5f2d9bac4a634e09294684c9,2020-08-10_15h29.13.085,lexical_decision_task_MP,2020.1.3,Win32,60,m,1,0.838765,,,,,,,,0.838765,1,,,,,,207,WORD,UN,33,hockey,WREATH,m,,,,,,0.312962963,-0.118518519,0,0,0,,0,393,393,146,1,,
,,,,,,,,,,,,,,,,,,5f2d9bac4a634e09294684c9,2020-08-10_15h29.13.085,lexical_decision_task_MP,2020.1.3,Win32,60,z,1,0.702685,,,,,,,,0.702685,1,,,,,,426,NW,UN,33,schind,URIVEL,z,,,,,,0.312962963,-0.118518519,0,0,0,,0,394,394,365,1,,
,,,,,,,,,,,,,,,,,,5f2d9bac4a634e09294684c9,2020-08-10_15h29.13.085,lexical_decision_task_MP,2020.1.3,Win32,60,m,1,0.78425,,,,,,,,0.78425,1,,,,,,82,WORD,"ID",33,stigma,STIGMA,m,,,,,,0.312962963,-0.118518519,0,0,0,,0,395,395,21,1,,
,,,,,,,,,,,,,,,,,,5f2d9bac4a634e09294684c9,2020-08-10_15h29.13.085,lexical_decision_task_MP,2020.1.3,Win32,60,m,1,0.5843,,,,,,,,0.5843,1,,,,,,147,WORD,"ID",50,garlic,GARLIC,m,,,,,,0.312962963,-0.118518519,0,0,0,,0,396,396,86,1,,
,,,,,,,,,,,,,,,,,,5f2d9bac4a634e09294684c9,2020-08-10_15h29.13.085,lexical_decision_task_MP,2020.1.3,Win32,60,z,1,0.633895,,,,,,,,0.633895,1,,,,,,363,NW,"ID",50,breali,BREALI,z,,,,,,0.312962963,-0.118518519,0,0,0,,0,397,397,302,1,,
,,,,,,,,,,,,,,,,,,5f2d9bac4a634e09294684c9,2020-08-10_15h29.13.085,lexical_decision_task_MP,2020.1.3,Win32,60,z,1,0.566195,,,,,,,,0.566195,1,,,,,,436,NW,UN,33,snapel,FRUTAN,z,,,,,,0.312962963,-0.118518519,0,0,0,,0,398,398,375,1,,
,,,,,,,,,,,,,,,,,,5f2d9bac4a634e09294684c9,2020-08-10_15h29.13.085,lexical_decision_task_MP,2020.1.3,Win32,60,z,1,0.612365,,,,,,,,0.612365,1,,,,,,397,NW,"ID",50,camble,CAMBLE,z,,,,,,0.312962963,-0.118518519,0,0,0,,0,399,399,336,1,,
,,,,,,,,,,,,,,,,,,5f2d9bac4a634e09294684c9,2020-08-10_15h29.13.085,lexical_decision_task_MP,2020.1.3,Win32,60,m,1,0.54929,,,,,,,,0.54929,1,,,,,,167,WORD,"ID",50,design,DESIGN,m,,,,,,0.312962963,-0.118518519,0,0,0,,0,400,400,106,1,,
,,,,,,,,,,,,,,,,,,5f2d9bac4a634e09294684c9,2020-08-10_15h29.13.085,lexical_decision_task_MP,2020.1.3,Win32,60,m,1,0.504055,,,,,,,,0.504055,1,,,,,,165,WORD,"ID",50,invest,INVEST,m,,,,,,0.312962963,-0.118518519,0,0,0,,0,401,401,104,1,,
,,,,,,,,,,,,,,,,,,5f2d9bac4a634e09294684c9,2020-08-10_15h29.13.085,lexical_decision_task_MP,2020.1.3,Win32,60,m,1,0.44867,,,,,,,,0.44867,1,,,,,,202,WORD,UN,33,phrase,FACTOR,m,,,,,,0.312962963,-0.118518519,0,0,0,,0,402,402,141,1,,
