counterbalancing_condition,instr_done_keyboard.keys,instr_done_keyboard.rt,instr_done_touch.x,instr_done_touch.y,instr_done_touch.leftButton,instr_done_touch.midButton,instr_done_touch.rightButton,instruction_pages.thisRepN,instruction_pages.thisTrialN,instruction_pages.thisN,instruction_pages.thisIndex,instruction_pages.ran,pageN,phase,instruct_text,has_image,instruct_image,participant,date,expName,psychopyVersion,OS,frameRate,response.keys,response.corr,response.rt,touch_resp.x,touch_resp.y,touch_resp.leftButton,touch_resp.midButton,touch_resp.rightButton,touch_resp.time,touch_resp.clicked_name,rt,corr,practice_trials.thisRepN,practice_trials.thisTrialN,practice_trials.thisN,practice_trials.thisIndex,practice_trials.ran,TrialID,StimulusType,Condition,PrimeDuration,Prime,Target,corrAns,end_of_practice_trials_pages.thisRepN,end_of_practice_trials_pages.thisTrialN,end_of_practice_trials_pages.thisN,end_of_practice_trials_pages.thisIndex,end_of_practice_trials_pages.ran,break_done_touch.x,break_done_touch.y,break_done_touch.leftButton,break_done_touch.midButton,break_done_touch.rightButton,break_done_keyboard.keys,trials.thisRepN,trials.thisTrialN,trials.thisN,trials.thisIndex,trials.ran,break_done_keyboard.rt,break_done_touch.clicked_name
3,space,12.629,0.265625,-0.209635417,0,0,0,0,0,0,0,1,1,instructions,"INSTRUCTIONS
At the start of each trial, look at the hash marks (######) in the center of the screen. After a moment, a string of letters will appear. Your task is to indicate if the letter string forms a word or not (i.e., if it is a nonword). For example, AUTHOR is a word while AUTHON is a nonword.

Press the space bar or touch the button below to continue.",0,,5f2dbe52314d560ef2ce0adb,2020-08-10_12h24.39.637,lexical_decision_task_MP,2020.1.3,Win32,60,,,,,,,,,,,,,,,,,,,,,,,,,,,,,,,,,,,,,,,,,,
,space,10.547,0.265625,-0.209635417,0,0,0,0,1,1,1,1,2,instructions,"If your device has a keyboard, press the 'Z' key for nonwords and the 'M' key for words.





Press the space bar or touch the button below to continue.",1,keyboard-example.gif,5f2dbe52314d560ef2ce0adb,2020-08-10_12h24.39.637,lexical_decision_task_MP,2020.1.3,Win32,60,,,,,,,,,,,,,,,,,,,,,,,,,,,,,,,,,,,,,,,,,,
,space,4.05,0.265625,-0.209635417,0,0,0,0,2,2,2,1,3,instructions,"If you are using a touchscreen only device, use the buttons on the screen. Do not use the mouse.





Press the space bar or touch the button below to continue.",1,touchscreen-example.gif,5f2dbe52314d560ef2ce0adb,2020-08-10_12h24.39.637,lexical_decision_task_MP,2020.1.3,Win32,60,,,,,,,,,,,,,,,,,,,,,,,,,,,,,,,,,,,,,,,,,,
,space,11.263,0.265625,-0.209635417,0,0,0,0,3,3,3,1,4,instructions,"It is very important that you respond as quickly and accurately as possible, as each letter string will only be on the screen for two seconds. If you do not respond within this time, the message 'Too slow!' will be displayed and the experiment will progress to the next letter string. The first 20 trials will be practice trials and you will receive feedback on your answers. 

Press the space bar or touch the button below to start the practice trials.",0,,5f2dbe52314d560ef2ce0adb,2020-08-10_12h24.39.637,lexical_decision_task_MP,2020.1.3,Win32,60,,,,,,,,,,,,,,,,,,,,,,,,,,,,,,,,,,,,,,,,,,
,,,,,,,,,,,,,,,,,,5f2dbe52314d560ef2ce0adb,2020-08-10_12h24.39.637,lexical_decision_task_MP,2020.1.3,Win32,60,z,1,1.304,,,,,,,,1.304,1,0,0,0,14,1,1015,NW,UN,50,miaber,THRALE,z,,,,,,,,,,,,,,,,,,
,,,,,,,,,,,,,,,,,,5f2dbe52314d560ef2ce0adb,2020-08-10_12h24.39.637,lexical_decision_task_MP,2020.1.3,Win32,60,z,1,0.797,,,,,,,,0.797,1,0,1,1,8,1,1009,NW,"ID",33,aslert,ASLERT,z,,,,,,,,,,,,,,,,,,
,,,,,,,,,,,,,,,,,,5f2dbe52314d560ef2ce0adb,2020-08-10_12h24.39.637,lexical_decision_task_MP,2020.1.3,Win32,60,z,1,0.821,,,,,,,,0.821,1,0,2,2,9,1,1010,NW,"ID",33,fariny,FARINY,z,,,,,,,,,,,,,,,,,,
,,,,,,,,,,,,,,,,,,5f2dbe52314d560ef2ce0adb,2020-08-10_12h24.39.637,lexical_decision_task_MP,2020.1.3,Win32,60,m,1,1.01,,,,,,,,1.01,1,0,3,3,7,1,1008,WORD,UN,50,hurdle,VOLUME,m,,,,,,,,,,,,,,,,,,
,,,,,,,,,,,,,,,,,,5f2dbe52314d560ef2ce0adb,2020-08-10_12h24.39.637,lexical_decision_task_MP,2020.1.3,Win32,60,z,1,0.805,,,,,,,,0.805,1,0,4,4,11,1,1012,NW,"ID",50,rashet,RASHET,z,,,,,,,,,,,,,,,,,,
,,,,,,,,,,,,,,,,,,5f2dbe52314d560ef2ce0adb,2020-08-10_12h24.39.637,lexical_decision_task_MP,2020.1.3,Win32,60,m,1,0.709,,,,,,,,0.709,1,0,5,5,5,1,1006,WORD,UN,33,frenzy,OBTAIN,m,,,,,,,,,,,,,,,,,,
,,,,,,,,,,,,,,,,,,5f2dbe52314d560ef2ce0adb,2020-08-10_12h24.39.637,lexical_decision_task_MP,2020.1.3,Win32,60,m,1,0.918,,,,,,,,0.918,1,0,6,6,1,1,1002,WORD,"ID",33,adjust,ADJUST,m,,,,,,,,,,,,,,,,,,
,,,,,,,,,,,,,,,,,,5f2dbe52314d560ef2ce0adb,2020-08-10_12h24.39.637,lexical_decision_task_MP,2020.1.3,Win32,60,z,1,0.771,,,,,,,,0.771,1,0,7,7,10,1,1011,NW,"ID",50,inlade,INLADE,z,,,,,,,,,,,,,,,,,,
,,,,,,,,,,,,,,,,,,5f2dbe52314d560ef2ce0adb,2020-08-10_12h24.39.637,lexical_decision_task_MP,2020.1.3,Win32,60,z,1,0.721,,,,,,,,0.721,1,0,8,8,13,1,1014,NW,UN,33,winfer,ROUPET,z,,,,,,,,,,,,,,,,,,
,,,,,,,,,,,,,,,,,,5f2dbe52314d560ef2ce0adb,2020-08-10_12h24.39.637,lexical_decision_task_MP,2020.1.3,Win32,60,z,1,0.844,,,,,,,,0.844,1,0,9,9,15,1,1016,NW,UN,50,mushed,WHAISE,z,,,,,,,,,,,,,,,,,,
,,,,,,,,,,,,,,,,,,5f2dbe52314d560ef2ce0adb,2020-08-10_12h24.39.637,lexical_decision_task_MP,2020.1.3,Win32,60,m,1,0.762,,,,,,,,0.762,1,0,10,10,3,1,1004,WORD,"ID",50,matrix,MATRIX,m,,,,,,,,,,,,,,,,,,
,,,,,,,,,,,,,,,,,,5f2dbe52314d560ef2ce0adb,2020-08-10_12h24.39.637,lexical_decision_task_MP,2020.1.3,Win32,60,m,1,0.628,,,,,,,,0.628,1,0,11,11,0,1,1001,WORD,"ID",33,utopia,UTOPIA,m,,,,,,,,,,,,,,,,,,
,,,,,,,,,,,,,,,,,,5f2dbe52314d560ef2ce0adb,2020-08-10_12h24.39.637,lexical_decision_task_MP,2020.1.3,Win32,60,m,1,0.666,,,,,,,,0.666,1,0,12,12,4,1,1005,WORD,UN,33,abound,SQUEAK,m,,,,,,,,,,,,,,,,,,
,,,,,,,,,,,,,,,,,,5f2dbe52314d560ef2ce0adb,2020-08-10_12h24.39.637,lexical_decision_task_MP,2020.1.3,Win32,60,m,1,0.559,,,,,,,,0.559,1,0,13,13,2,1,1003,WORD,"ID",50,almond,ALMOND,m,,,,,,,,,,,,,,,,,,
,,,,,,,,,,,,,,,,,,5f2dbe52314d560ef2ce0adb,2020-08-10_12h24.39.637,lexical_decision_task_MP,2020.1.3,Win32,60,m,1,0.522,,,,,,,,0.522,1,0,14,14,6,1,1007,WORD,UN,50,tropic,ZOMBIE,m,,,,,,,,,,,,,,,,,,
,,,,,,,,,,,,,,,,,,5f2dbe52314d560ef2ce0adb,2020-08-10_12h24.39.637,lexical_decision_task_MP,2020.1.3,Win32,60,m,0,0.826,,,,,,,,0.826,0,0,15,15,12,1,1013,NW,UN,33,adveil,SPRINY,z,,,,,,,,,,,,,,,,,,
,space,13.141,0.579427083,-0.046875,0,0,0,,,,,,1,end_of_practice,"You have completed the practice trials. During the experimental trials, you will not receive feedback, but it is very important that you respond as quickly and accurately as possible. 
Before you begin, please ensure that you are in a comfortable and quiet location and will not be disturbed for about 15 minutes, as we cannot use your data if you do not complete all the trials. 
There will be opportunities to take breaks at regular intervals during the experiment. When you are ready to start the experimental trials, please press space or touch the button below.",,,5f2dbe52314d560ef2ce0adb,2020-08-10_12h24.39.637,lexical_decision_task_MP,2020.1.3,Win32,60,,,,,,,,,,,,,,,,,,,,,,,,,0,0,0,0,1,,,,,,,,,,,,,
,,,,,,,,,,,,,,,,,,5f2dbe52314d560ef2ce0adb,2020-08-10_12h24.39.637,lexical_decision_task_MP,2020.1.3,Win32,60,m,1,0.587,,,,,,,,0.587,1,,,,,,175,WORD,"ID",50,fabric,FABRIC,m,,,,,,0.509114583,0.029947917,0,0,0,,0,0,0,114,1,,
,,,,,,,,,,,,,,,,,,5f2dbe52314d560ef2ce0adb,2020-08-10_12h24.39.637,lexical_decision_task_MP,2020.1.3,Win32,60,m,1,0.547,,,,,,,,0.547,1,,,,,,90,WORD,"ID",33,relish,RELISH,m,,,,,,0.509114583,0.029947917,0,0,0,,0,1,1,29,1,,
,,,,,,,,,,,,,,,,,,5f2dbe52314d560ef2ce0adb,2020-08-10_12h24.39.637,lexical_decision_task_MP,2020.1.3,Win32,60,m,1,0.585,,,,,,,,0.585,1,,,,,,88,WORD,"ID",33,hunger,HUNGER,m,,,,,,0.509114583,0.029947917,0,0,0,,0,2,2,27,1,,
,,,,,,,,,,,,,,,,,,5f2dbe52314d560ef2ce0adb,2020-08-10_12h24.39.637,lexical_decision_task_MP,2020.1.3,Win32,60,z,1,0.6,,,,,,,,0.6,1,,,,,,272,NW,UN,50,sortel,DAMILT,z,,,,,,0.509114583,0.029947917,0,0,0,,0,3,3,451,1,,
,,,,,,,,,,,,,,,,,,5f2dbe52314d560ef2ce0adb,2020-08-10_12h24.39.637,lexical_decision_task_MP,2020.1.3,Win32,60,z,1,0.663,,,,,,,,0.663,1,,,,,,294,NW,UN,50,gleath,INHORT,z,,,,,,0.509114583,0.029947917,0,0,0,,0,4,4,473,1,,
,,,,,,,,,,,,,,,,,,5f2dbe52314d560ef2ce0adb,2020-08-10_12h24.39.637,lexical_decision_task_MP,2020.1.3,Win32,60,z,1,0.623,,,,,,,,0.623,1,,,,,,254,NW,UN,50,apight,VAROSH,z,,,,,,0.509114583,0.029947917,0,0,0,,0,5,5,433,1,,
,,,,,,,,,,,,,,,,,,5f2dbe52314d560ef2ce0adb,2020-08-10_12h24.39.637,lexical_decision_task_MP,2020.1.3,Win32,60,z,1,0.679,,,,,,,,0.679,1,,,,,,420,NW,"ID",50,gushop,GUSHOP,z,,,,,,0.509114583,0.029947917,0,0,0,,0,6,6,359,1,,
,,,,,,,,,,,,,,,,,,5f2dbe52314d560ef2ce0adb,2020-08-10_12h24.39.637,lexical_decision_task_MP,2020.1.3,Win32,60,z,1,0.642,,,,,,,,0.642,1,,,,,,267,NW,UN,50,packes,PASINK,z,,,,,,0.509114583,0.029947917,0,0,0,,0,7,7,446,1,,
,,,,,,,,,,,,,,,,,,5f2dbe52314d560ef2ce0adb,2020-08-10_12h24.39.637,lexical_decision_task_MP,2020.1.3,Win32,60,m,1,0.554,,,,,,,,0.554,1,,,,,,68,WORD,"ID",33,fumble,FUMBLE,m,,,,,,0.509114583,0.029947917,0,0,0,,0,8,8,7,1,,
,,,,,,,,,,,,,,,,,,5f2dbe52314d560ef2ce0adb,2020-08-10_12h24.39.637,lexical_decision_task_MP,2020.1.3,Win32,60,z,1,0.593,,,,,,,,0.593,1,,,,,,474,NW,UN,33,acrise,HABLIN,z,,,,,,0.509114583,0.029947917,0,0,0,,0,9,9,413,1,,
,,,,,,,,,,,,,,,,,,5f2dbe52314d560ef2ce0adb,2020-08-10_12h24.39.637,lexical_decision_task_MP,2020.1.3,Win32,60,m,0,0.618,,,,,,,,0.618,0,,,,,,455,NW,UN,33,broget,TONDLE,z,,,,,,0.509114583,0.029947917,0,0,0,,0,10,10,394,1,,
,,,,,,,,,,,,,,,,,,5f2dbe52314d560ef2ce0adb,2020-08-10_12h24.39.637,lexical_decision_task_MP,2020.1.3,Win32,60,m,1,0.545,,,,,,,,0.545,1,,,,,,110,WORD,"ID",33,polite,POLITE,m,,,,,,0.509114583,0.029947917,0,0,0,,0,11,11,49,1,,
,,,,,,,,,,,,,,,,,,5f2dbe52314d560ef2ce0adb,2020-08-10_12h24.39.637,lexical_decision_task_MP,2020.1.3,Win32,60,m,1,0.603,,,,,,,,0.603,1,,,,,,203,WORD,UN,33,burden,PHRASE,m,,,,,,0.509114583,0.029947917,0,0,0,,0,12,12,142,1,,
,,,,,,,,,,,,,,,,,,5f2dbe52314d560ef2ce0adb,2020-08-10_12h24.39.637,lexical_decision_task_MP,2020.1.3,Win32,60,z,1,0.477,,,,,,,,0.477,1,,,,,,411,NW,"ID",50,orchin,ORCHIN,z,,,,,,0.509114583,0.029947917,0,0,0,,0,13,13,350,1,,
,,,,,,,,,,,,,,,,,,5f2dbe52314d560ef2ce0adb,2020-08-10_12h24.39.637,lexical_decision_task_MP,2020.1.3,Win32,60,m,1,0.571,,,,,,,,0.571,1,,,,,,201,WORD,UN,33,factor,ADMIRE,m,,,,,,0.509114583,0.029947917,0,0,0,,0,14,14,140,1,,
,,,,,,,,,,,,,,,,,,5f2dbe52314d560ef2ce0adb,2020-08-10_12h24.39.637,lexical_decision_task_MP,2020.1.3,Win32,60,m,1,0.574,,,,,,,,0.574,1,,,,,,56,WORD,UN,50,change,AMBUSH,m,,,,,,0.509114583,0.029947917,0,0,0,,0,15,15,235,1,,
,,,,,,,,,,,,,,,,,,5f2dbe52314d560ef2ce0adb,2020-08-10_12h24.39.637,lexical_decision_task_MP,2020.1.3,Win32,60,m,1,0.569,,,,,,,,0.569,1,,,,,,185,WORD,UN,33,portal,BOTHER,m,,,,,,0.509114583,0.029947917,0,0,0,,0,16,16,124,1,,
,,,,,,,,,,,,,,,,,,5f2dbe52314d560ef2ce0adb,2020-08-10_12h24.39.637,lexical_decision_task_MP,2020.1.3,Win32,60,m,1,0.555,,,,,,,,0.555,1,,,,,,65,WORD,"ID",33,symbol,SYMBOL,m,,,,,,0.509114583,0.029947917,0,0,0,,0,17,17,4,1,,
,,,,,,,,,,,,,,,,,,5f2dbe52314d560ef2ce0adb,2020-08-10_12h24.39.637,lexical_decision_task_MP,2020.1.3,Win32,60,m,1,0.541,,,,,,,,0.541,1,,,,,,134,WORD,"ID",50,staple,STAPLE,m,,,,,,0.509114583,0.029947917,0,0,0,,0,18,18,73,1,,
,,,,,,,,,,,,,,,,,,5f2dbe52314d560ef2ce0adb,2020-08-10_12h24.39.637,lexical_decision_task_MP,2020.1.3,Win32,60,m,1,0.475,,,,,,,,0.475,1,,,,,,229,WORD,UN,33,fringe,MOTHER,m,,,,,,0.509114583,0.029947917,0,0,0,,0,19,19,168,1,,
,,,,,,,,,,,,,,,,,,5f2dbe52314d560ef2ce0adb,2020-08-10_12h24.39.637,lexical_decision_task_MP,2020.1.3,Win32,60,z,1,0.604,,,,,,,,0.604,1,,,,,,258,NW,UN,50,soudal,POLUTH,z,,,,,,0.509114583,0.029947917,0,0,0,,0,20,20,437,1,,
,,,,,,,,,,,,,,,,,,5f2dbe52314d560ef2ce0adb,2020-08-10_12h24.39.637,lexical_decision_task_MP,2020.1.3,Win32,60,m,1,0.572,,,,,,,,0.572,1,,,,,,100,WORD,"ID",33,carbon,CARBON,m,,,,,,0.509114583,0.029947917,0,0,0,,0,21,21,39,1,,
,,,,,,,,,,,,,,,,,,5f2dbe52314d560ef2ce0adb,2020-08-10_12h24.39.637,lexical_decision_task_MP,2020.1.3,Win32,60,z,1,0.57,,,,,,,,0.57,1,,,,,,371,NW,"ID",50,geiloy,GEILOY,z,,,,,,0.509114583,0.029947917,0,0,0,,0,22,22,310,1,,
,,,,,,,,,,,,,,,,,,5f2dbe52314d560ef2ce0adb,2020-08-10_12h24.39.637,lexical_decision_task_MP,2020.1.3,Win32,60,m,1,0.574,,,,,,,,0.574,1,,,,,,120,WORD,"ID",33,strain,STRAIN,m,,,,,,0.509114583,0.029947917,0,0,0,,0,23,23,59,1,,
,,,,,,,,,,,,,,,,,,5f2dbe52314d560ef2ce0adb,2020-08-10_12h24.39.637,lexical_decision_task_MP,2020.1.3,Win32,60,m,1,0.513,,,,,,,,0.513,1,,,,,,226,WORD,UN,33,flower,CASINO,m,,,,,,0.509114583,0.029947917,0,0,0,,0,24,24,165,1,,
,,,,,,,,,,,,,,,,,,5f2dbe52314d560ef2ce0adb,2020-08-10_12h24.39.637,lexical_decision_task_MP,2020.1.3,Win32,60,m,1,0.564,,,,,,,,0.564,1,,,,,,22,WORD,UN,50,wealth,JOCKEY,m,,,,,,0.509114583,0.029947917,0,0,0,,0,25,25,201,1,,
,,,,,,,,,,,,,,,,,,5f2dbe52314d560ef2ce0adb,2020-08-10_12h24.39.637,lexical_decision_task_MP,2020.1.3,Win32,60,z,1,0.582,,,,,,,,0.582,1,,,,,,428,NW,UN,33,funtle,TANDLY,z,,,,,,0.509114583,0.029947917,0,0,0,,0,26,26,367,1,,
,,,,,,,,,,,,,,,,,,5f2dbe52314d560ef2ce0adb,2020-08-10_12h24.39.637,lexical_decision_task_MP,2020.1.3,Win32,60,m,1,0.506,,,,,,,,0.506,1,,,,,,132,WORD,"ID",50,strong,STRONG,m,,,,,,0.509114583,0.029947917,0,0,0,,0,27,27,71,1,,
,,,,,,,,,,,,,,,,,,5f2dbe52314d560ef2ce0adb,2020-08-10_12h24.39.637,lexical_decision_task_MP,2020.1.3,Win32,60,m,1,0.36,,,,,,,,0.36,1,,,,,,178,WORD,"ID",50,inform,INFORM,m,,,,,,0.509114583,0.029947917,0,0,0,,0,28,28,117,1,,
,,,,,,,,,,,,,,,,,,5f2dbe52314d560ef2ce0adb,2020-08-10_12h24.39.637,lexical_decision_task_MP,2020.1.3,Win32,60,m,1,0.456,,,,,,,,0.456,1,,,,,,46,WORD,UN,50,income,SINGLE,m,,,,,,0.509114583,0.029947917,0,0,0,,0,29,29,225,1,,
,,,,,,,,,,,,,,,,,,5f2dbe52314d560ef2ce0adb,2020-08-10_12h24.39.637,lexical_decision_task_MP,2020.1.3,Win32,60,m,1,0.427,,,,,,,,0.427,1,,,,,,164,WORD,"ID",50,market,MARKET,m,,,,,,0.509114583,0.029947917,0,0,0,,0,30,30,103,1,,
,,,,,,,,,,,,,,,,,,5f2dbe52314d560ef2ce0adb,2020-08-10_12h24.39.637,lexical_decision_task_MP,2020.1.3,Win32,60,m,1,0.408,,,,,,,,0.408,1,,,,,,63,WORD,"ID",33,launch,LAUNCH,m,,,,,,0.509114583,0.029947917,0,0,0,,0,31,31,2,1,,
,,,,,,,,,,,,,,,,,,5f2dbe52314d560ef2ce0adb,2020-08-10_12h24.39.637,lexical_decision_task_MP,2020.1.3,Win32,60,z,1,0.476,,,,,,,,0.476,1,,,,,,425,NW,UN,33,urivel,FRUDGE,z,,,,,,0.509114583,0.029947917,0,0,0,,0,32,32,364,1,,
,,,,,,,,,,,,,,,,,,5f2dbe52314d560ef2ce0adb,2020-08-10_12h24.39.637,lexical_decision_task_MP,2020.1.3,Win32,60,z,1,0.667,,,,,,,,0.667,1,,,,,,423,NW,UN,33,praile,STRELD,z,,,,,,0.509114583,0.029947917,0,0,0,,0,33,33,362,1,,
,,,,,,,,,,,,,,,,,,5f2dbe52314d560ef2ce0adb,2020-08-10_12h24.39.637,lexical_decision_task_MP,2020.1.3,Win32,60,z,1,0.486,,,,,,,,0.486,1,,,,,,351,NW,"ID",33,tiesch,TIESCH,z,,,,,,0.509114583,0.029947917,0,0,0,,0,34,34,290,1,,
,,,,,,,,,,,,,,,,,,5f2dbe52314d560ef2ce0adb,2020-08-10_12h24.39.637,lexical_decision_task_MP,2020.1.3,Win32,60,m,1,0.433,,,,,,,,0.433,1,,,,,,204,WORD,UN,33,lounge,BURDEN,m,,,,,,0.509114583,0.029947917,0,0,0,,0,35,35,143,1,,
,,,,,,,,,,,,,,,,,,5f2dbe52314d560ef2ce0adb,2020-08-10_12h24.39.637,lexical_decision_task_MP,2020.1.3,Win32,60,m,1,0.483,,,,,,,,0.483,1,,,,,,150,WORD,"ID",50,random,RANDOM,m,,,,,,0.509114583,0.029947917,0,0,0,,0,36,36,89,1,,
,,,,,,,,,,,,,,,,,,5f2dbe52314d560ef2ce0adb,2020-08-10_12h24.39.637,lexical_decision_task_MP,2020.1.3,Win32,60,z,1,0.672,,,,,,,,0.672,1,,,,,,340,NW,"ID",33,fiatch,FIATCH,z,,,,,,0.509114583,0.029947917,0,0,0,,0,37,37,279,1,,
,,,,,,,,,,,,,,,,,,5f2dbe52314d560ef2ce0adb,2020-08-10_12h24.39.637,lexical_decision_task_MP,2020.1.3,Win32,60,m,0,0.423,,,,,,,,0.423,0,,,,,,456,NW,UN,33,wanigh,BROGET,z,,,,,,0.509114583,0.029947917,0,0,0,,0,38,38,395,1,,
,,,,,,,,,,,,,,,,,,5f2dbe52314d560ef2ce0adb,2020-08-10_12h24.39.637,lexical_decision_task_MP,2020.1.3,Win32,60,m,0,1.035,,,,,,,,1.035,0,,,,,,346,NW,"ID",33,saudic,SAUDIC,z,,,,,,0.509114583,0.029947917,0,0,0,,0,39,39,285,1,,
,,,,,,,,,,,,,,,,,,5f2dbe52314d560ef2ce0adb,2020-08-10_12h24.39.637,lexical_decision_task_MP,2020.1.3,Win32,60,z,1,1.087,,,,,,,,1.087,1,,,,,,426,NW,UN,33,schind,URIVEL,z,,,,,,0.509114583,0.029947917,0,0,0,,0,40,40,365,1,,
,,,,,,,,,,,,,,,,,,5f2dbe52314d560ef2ce0adb,2020-08-10_12h24.39.637,lexical_decision_task_MP,2020.1.3,Win32,60,z,1,0.606,,,,,,,,0.606,1,,,,,,413,NW,"ID",50,equats,EQUATS,z,,,,,,0.509114583,0.029947917,0,0,0,,0,41,41,352,1,,
,,,,,,,,,,,,,,,,,,5f2dbe52314d560ef2ce0adb,2020-08-10_12h24.39.637,lexical_decision_task_MP,2020.1.3,Win32,60,m,1,0.731,,,,,,,,0.731,1,,,,,,143,WORD,"ID",50,reason,REASON,m,,,,,,0.509114583,0.029947917,0,0,0,,0,42,42,82,1,,
,,,,,,,,,,,,,,,,,,5f2dbe52314d560ef2ce0adb,2020-08-10_12h24.39.637,lexical_decision_task_MP,2020.1.3,Win32,60,m,1,0.431,,,,,,,,0.431,1,,,,,,230,WORD,UN,33,mother,FRINGE,m,,,,,,0.509114583,0.029947917,0,0,0,,0,43,43,169,1,,
,,,,,,,,,,,,,,,,,,5f2dbe52314d560ef2ce0adb,2020-08-10_12h24.39.637,lexical_decision_task_MP,2020.1.3,Win32,60,m,1,0.533,,,,,,,,0.533,1,,,,,,155,WORD,"ID",50,lizard,LIZARD,m,,,,,,0.509114583,0.029947917,0,0,0,,0,44,44,94,1,,
,,,,,,,,,,,,,,,,,,5f2dbe52314d560ef2ce0adb,2020-08-10_12h24.39.637,lexical_decision_task_MP,2020.1.3,Win32,60,m,1,0.641,,,,,,,,0.641,1,,,,,,184,WORD,UN,33,bother,SLEAZY,m,,,,,,0.509114583,0.029947917,0,0,0,,0,45,45,123,1,,
,,,,,,,,,,,,,,,,,,5f2dbe52314d560ef2ce0adb,2020-08-10_12h24.39.637,lexical_decision_task_MP,2020.1.3,Win32,60,z,1,0.622,,,,,,,,0.622,1,,,,,,353,NW,"ID",33,clurey,CLUREY,z,,,,,,0.509114583,0.029947917,0,0,0,,0,46,46,292,1,,
,,,,,,,,,,,,,,,,,,5f2dbe52314d560ef2ce0adb,2020-08-10_12h24.39.637,lexical_decision_task_MP,2020.1.3,Win32,60,m,1,0.472,,,,,,,,0.472,1,,,,,,115,WORD,"ID",33,guitar,GUITAR,m,,,,,,0.509114583,0.029947917,0,0,0,,0,47,47,54,1,,
,,,,,,,,,,,,,,,,,,5f2dbe52314d560ef2ce0adb,2020-08-10_12h24.39.637,lexical_decision_task_MP,2020.1.3,Win32,60,m,1,0.496,,,,,,,,0.496,1,,,,,,182,WORD,UN,33,absent,WINTER,m,,,,,,0.509114583,0.029947917,0,0,0,,0,48,48,121,1,,
,,,,,,,,,,,,,,,,,,5f2dbe52314d560ef2ce0adb,2020-08-10_12h24.39.637,lexical_decision_task_MP,2020.1.3,Win32,60,m,1,0.532,,,,,,,,0.532,1,,,,,,47,WORD,UN,50,walnut,INCOME,m,,,,,,0.509114583,0.029947917,0,0,0,,0,49,49,226,1,,
,,,,,,,,,,,,,,,,,,5f2dbe52314d560ef2ce0adb,2020-08-10_12h24.39.637,lexical_decision_task_MP,2020.1.3,Win32,60,m,1,0.425,,,,,,,,0.425,1,,,,,,191,WORD,UN,33,beacon,STABLE,m,,,,,,0.509114583,0.029947917,0,0,0,,0,50,50,130,1,,
,,,,,,,,,,,,,,,,,,5f2dbe52314d560ef2ce0adb,2020-08-10_12h24.39.637,lexical_decision_task_MP,2020.1.3,Win32,60,m,1,0.758,,,,,,,,0.758,1,,,,,,160,WORD,"ID",50,violet,VIOLET,m,,,,,,0.509114583,0.029947917,0,0,0,,0,51,51,99,1,,
,,,,,,,,,,,,,,,,,,5f2dbe52314d560ef2ce0adb,2020-08-10_12h24.39.637,lexical_decision_task_MP,2020.1.3,Win32,60,m,1,0.816,,,,,,,,0.816,1,,,,,,199,WORD,UN,33,plague,INVOKE,m,,,,,,0.509114583,0.029947917,0,0,0,,0,52,52,138,1,,
,,,,,,,,,,,,,,,,,,5f2dbe52314d560ef2ce0adb,2020-08-10_12h24.39.637,lexical_decision_task_MP,2020.1.3,Win32,60,m,1,0.548,,,,,,,,0.548,1,,,,,,169,WORD,"ID",50,genius,GENIUS,m,,,,,,0.509114583,0.029947917,0,0,0,,0,53,53,108,1,,
,,,,,,,,,,,,,,,,,,5f2dbe52314d560ef2ce0adb,2020-08-10_12h24.39.637,lexical_decision_task_MP,2020.1.3,Win32,60,z,1,0.595,,,,,,,,0.595,1,,,,,,247,NW,UN,50,strole,BLARGE,z,,,,,,0.509114583,0.029947917,0,0,0,,0,54,54,426,1,,
,,,,,,,,,,,,,,,,,,5f2dbe52314d560ef2ce0adb,2020-08-10_12h24.39.637,lexical_decision_task_MP,2020.1.3,Win32,60,z,0,0.524,,,,,,,,0.524,0,,,,,,82,WORD,"ID",33,stigma,STIGMA,m,,,,,,0.509114583,0.029947917,0,0,0,,0,55,55,21,1,,
,,,,,,,,,,,,,,,,,,5f2dbe52314d560ef2ce0adb,2020-08-10_12h24.39.637,lexical_decision_task_MP,2020.1.3,Win32,60,m,1,0.464,,,,,,,,0.464,1,,,,,,174,WORD,"ID",50,turkey,TURKEY,m,,,,,,0.509114583,0.029947917,0,0,0,,0,56,56,113,1,,
,,,,,,,,,,,,,,,,,,5f2dbe52314d560ef2ce0adb,2020-08-10_12h24.39.637,lexical_decision_task_MP,2020.1.3,Win32,60,z,1,0.503,,,,,,,,0.503,1,,,,,,318,NW,"ID",33,reagly,REAGLY,z,,,,,,0.509114583,0.029947917,0,0,0,,0,57,57,257,1,,
,,,,,,,,,,,,,,,,,,5f2dbe52314d560ef2ce0adb,2020-08-10_12h24.39.637,lexical_decision_task_MP,2020.1.3,Win32,60,m,1,0.527,,,,,,,,0.527,1,,,,,,97,WORD,"ID",33,client,CLIENT,m,,,,,,0.509114583,0.029947917,0,0,0,,0,58,58,36,1,,
,,,,,,,,,,,,,,,,,,5f2dbe52314d560ef2ce0adb,2020-08-10_12h24.39.637,lexical_decision_task_MP,2020.1.3,Win32,60,z,1,0.634,,,,,,,,0.634,1,,,,,,447,NW,UN,33,sadent,GIRCUE,z,,,,,,0.509114583,0.029947917,0,0,0,,0,59,59,386,1,,
,,,,,,,,,,,,,,,,,,5f2dbe52314d560ef2ce0adb,2020-08-10_12h24.39.637,lexical_decision_task_MP,2020.1.3,Win32,60,m,1,0.56,,,,,,,,0.56,1,,,,,,131,WORD,"ID",50,quench,QUENCH,m,,,,,,0.509114583,0.029947917,0,0,0,,0,60,60,70,1,,
,,,,,,,,,,,,,,,,,,5f2dbe52314d560ef2ce0adb,2020-08-10_12h24.39.637,lexical_decision_task_MP,2020.1.3,Win32,60,m,1,0.396,,,,,,,,0.396,1,,,,,,196,WORD,UN,33,stream,CREDIT,m,,,,,,0.509114583,0.029947917,0,0,0,,0,61,61,135,1,,
,,,,,,,,,,,,,,,,,,5f2dbe52314d560ef2ce0adb,2020-08-10_12h24.39.637,lexical_decision_task_MP,2020.1.3,Win32,60,z,1,0.644,,,,,,,,0.644,1,,,,,,440,NW,UN,33,rastoe,SARIDE,z,,,,,,0.509114583,0.029947917,0,0,0,,0,62,62,379,1,,
,,,,,,,,,,,,,,,,,,5f2dbe52314d560ef2ce0adb,2020-08-10_12h24.39.637,lexical_decision_task_MP,2020.1.3,Win32,60,m,1,0.507,,,,,,,,0.507,1,,,,,,23,WORD,UN,50,praise,WEALTH,m,,,,,,0.509114583,0.029947917,0,0,0,,0,63,63,202,1,,
,,,,,,,,,,,,,,,,,,5f2dbe52314d560ef2ce0adb,2020-08-10_12h24.39.637,lexical_decision_task_MP,2020.1.3,Win32,60,z,1,0.631,,,,,,,,0.631,1,,,,,,429,NW,UN,33,caroey,FUNTLE,z,,,,,,0.509114583,0.029947917,0,0,0,,0,64,64,368,1,,
,,,,,,,,,,,,,,,,,,5f2dbe52314d560ef2ce0adb,2020-08-10_12h24.39.637,lexical_decision_task_MP,2020.1.3,Win32,60,m,0,0.353,,,,,,,,0.353,0,,,,,,331,NW,"ID",33,gilfew,GILFEW,z,,,,,,0.509114583,0.029947917,0,0,0,,0,65,65,270,1,,
,,,,,,,,,,,,,,,,,,5f2dbe52314d560ef2ce0adb,2020-08-10_12h24.39.637,lexical_decision_task_MP,2020.1.3,Win32,60,m,1,0.421,,,,,,,,0.421,1,,,,,,181,WORD,UN,33,winter,GLANCE,m,,,,,,0.509114583,0.029947917,0,0,0,,0,66,66,120,1,,
,,,,,,,,,,,,,,,,,,5f2dbe52314d560ef2ce0adb,2020-08-10_12h24.39.637,lexical_decision_task_MP,2020.1.3,Win32,60,z,1,1.041,,,,,,,,1.041,1,,,,,,445,NW,UN,33,runamo,MINKEL,z,,,,,,0.509114583,0.029947917,0,0,0,,0,67,67,384,1,,
,,,,,,,,,,,,,,,,,,5f2dbe52314d560ef2ce0adb,2020-08-10_12h24.39.637,lexical_decision_task_MP,2020.1.3,Win32,60,m,0,0.666,,,,,,,,0.666,0,,,,,,357,NW,"ID",33,derain,DERAIN,z,,,,,,0.509114583,0.029947917,0,0,0,,0,68,68,296,1,,
,,,,,,,,,,,,,,,,,,5f2dbe52314d560ef2ce0adb,2020-08-10_12h24.39.637,lexical_decision_task_MP,2020.1.3,Win32,60,m,1,0.577,,,,,,,,0.577,1,,,,,,76,WORD,"ID",33,exotic,EXOTIC,m,,,,,,0.509114583,0.029947917,0,0,0,,0,69,69,15,1,,
,,,,,,,,,,,,,,,,,,5f2dbe52314d560ef2ce0adb,2020-08-10_12h24.39.637,lexical_decision_task_MP,2020.1.3,Win32,60,z,1,0.589,,,,,,,,0.589,1,,,,,,263,NW,UN,50,vackel,DOLICA,z,,,,,,0.509114583,0.029947917,0,0,0,,0,70,70,442,1,,
,,,,,,,,,,,,,,,,,,5f2dbe52314d560ef2ce0adb,2020-08-10_12h24.39.637,lexical_decision_task_MP,2020.1.3,Win32,60,z,1,0.763,,,,,,,,0.763,1,,,,,,296,NW,UN,50,fertic,BEINCH,z,,,,,,0.509114583,0.029947917,0,0,0,,0,71,71,475,1,,
,,,,,,,,,,,,,,,,,,5f2dbe52314d560ef2ce0adb,2020-08-10_12h24.39.637,lexical_decision_task_MP,2020.1.3,Win32,60,z,1,0.603,,,,,,,,0.603,1,,,,,,427,NW,UN,33,tandly,SCHIND,z,,,,,,0.509114583,0.029947917,0,0,0,,0,72,72,366,1,,
,,,,,,,,,,,,,,,,,,5f2dbe52314d560ef2ce0adb,2020-08-10_12h24.39.637,lexical_decision_task_MP,2020.1.3,Win32,60,m,1,0.548,,,,,,,,0.548,1,,,,,,170,WORD,"ID",50,pounce,POUNCE,m,,,,,,0.509114583,0.029947917,0,0,0,,0,73,73,109,1,,
,,,,,,,,,,,,,,,,,,5f2dbe52314d560ef2ce0adb,2020-08-10_12h24.39.637,lexical_decision_task_MP,2020.1.3,Win32,60,m,1,0.404,,,,,,,,0.404,1,,,,,,99,WORD,"ID",33,fluent,FLUENT,m,,,,,,0.509114583,0.029947917,0,0,0,,0,74,74,38,1,,
,,,,,,,,,,,,,,,,,,5f2dbe52314d560ef2ce0adb,2020-08-10_12h24.39.637,lexical_decision_task_MP,2020.1.3,Win32,60,z,1,0.598,,,,,,,,0.598,1,,,,,,370,NW,"ID",50,sleact,SLEACT,z,,,,,,0.509114583,0.029947917,0,0,0,,0,75,75,309,1,,
,,,,,,,,,,,,,,,,,,5f2dbe52314d560ef2ce0adb,2020-08-10_12h24.39.637,lexical_decision_task_MP,2020.1.3,Win32,60,m,1,0.465,,,,,,,,0.465,1,,,,,,118,WORD,"ID",33,flight,FLIGHT,m,,,,,,0.509114583,0.029947917,0,0,0,,0,76,76,57,1,,
,,,,,,,,,,,,,,,,,,5f2dbe52314d560ef2ce0adb,2020-08-10_12h24.39.637,lexical_decision_task_MP,2020.1.3,Win32,60,m,1,0.399,,,,,,,,0.399,1,,,,,,73,WORD,"ID",33,source,SOURCE,m,,,,,,0.509114583,0.029947917,0,0,0,,0,77,77,12,1,,
,,,,,,,,,,,,,,,,,,5f2dbe52314d560ef2ce0adb,2020-08-10_12h24.39.637,lexical_decision_task_MP,2020.1.3,Win32,60,m,1,0.447,,,,,,,,0.447,1,,,,,,117,WORD,"ID",33,branch,BRANCH,m,,,,,,0.509114583,0.029947917,0,0,0,,0,78,78,56,1,,
,,,,,,,,,,,,,,,,,,5f2dbe52314d560ef2ce0adb,2020-08-10_12h24.39.637,lexical_decision_task_MP,2020.1.3,Win32,60,z,1,0.689,,,,,,,,0.689,1,,,,,,442,NW,UN,33,dorsex,ABOUNE,z,,,,,,0.509114583,0.029947917,0,0,0,,0,79,79,381,1,,
,,,,,,,,,,,,,,,,,,5f2dbe52314d560ef2ce0adb,2020-08-10_12h24.39.637,lexical_decision_task_MP,2020.1.3,Win32,60,z,1,0.497,,,,,,,,0.497,1,,,,,,434,NW,UN,33,impurb,PITROM,z,,,,,,0.509114583,0.029947917,0,0,0,,0,80,80,373,1,,
,,,,,,,,,,,,,,,,,,5f2dbe52314d560ef2ce0adb,2020-08-10_12h24.39.637,lexical_decision_task_MP,2020.1.3,Win32,60,m,1,0.537,,,,,,,,0.537,1,,,,,,213,WORD,UN,33,intake,SQUEAL,m,,,,,,0.509114583,0.029947917,0,0,0,,0,81,81,152,1,,
,,,,,,,,,,,,,,,,,,5f2dbe52314d560ef2ce0adb,2020-08-10_12h24.39.637,lexical_decision_task_MP,2020.1.3,Win32,60,m,1,0.662,,,,,,,,0.662,1,,,,,,42,WORD,UN,50,tongue,CHAPEL,m,,,,,,0.509114583,0.029947917,0,0,0,,0,82,82,221,1,,
,,,,,,,,,,,,,,,,,,5f2dbe52314d560ef2ce0adb,2020-08-10_12h24.39.637,lexical_decision_task_MP,2020.1.3,Win32,60,m,1,0.486,,,,,,,,0.486,1,,,,,,152,WORD,"ID",50,rocket,ROCKET,m,,,,,,0.509114583,0.029947917,0,0,0,,0,83,83,91,1,,
,,,,,,,,,,,,,,,,,,5f2dbe52314d560ef2ce0adb,2020-08-10_12h24.39.637,lexical_decision_task_MP,2020.1.3,Win32,60,m,1,0.484,,,,,,,,0.484,1,,,,,,85,WORD,"ID",33,sprawl,SPRAWL,m,,,,,,0.509114583,0.029947917,0,0,0,,0,84,84,24,1,,
,,,,,,,,,,,,,,,,,,5f2dbe52314d560ef2ce0adb,2020-08-10_12h24.39.637,lexical_decision_task_MP,2020.1.3,Win32,60,m,0,0.796,,,,,,,,0.796,0,,,,,,284,NW,UN,50,prudge,SHAPLE,z,,,,,,0.509114583,0.029947917,0,0,0,,0,85,85,463,1,,
,,,,,,,,,,,,,,,,,,5f2dbe52314d560ef2ce0adb,2020-08-10_12h24.39.637,lexical_decision_task_MP,2020.1.3,Win32,60,m,1,0.391,,,,,,,,0.391,1,,,,,,162,WORD,"ID",50,candle,CANDLE,m,,,,,,0.509114583,0.029947917,0,0,0,,0,86,86,101,1,,
,,,,,,,,,,,,,,,,,,5f2dbe52314d560ef2ce0adb,2020-08-10_12h24.39.637,lexical_decision_task_MP,2020.1.3,Win32,60,z,1,0.58,,,,,,,,0.58,1,,,,,,268,NW,UN,50,orchet,PACKES,z,,,,,,0.509114583,0.029947917,0,0,0,,0,87,87,447,1,,
,,,,,,,,,,,,,,,,,,5f2dbe52314d560ef2ce0adb,2020-08-10_12h24.39.637,lexical_decision_task_MP,2020.1.3,Win32,60,z,1,0.707,,,,,,,,0.707,1,,,,,,339,NW,"ID",33,fachow,FACHOW,z,,,,,,0.509114583,0.029947917,0,0,0,,0,88,88,278,1,,
,,,,,,,,,,,,,,,,,,5f2dbe52314d560ef2ce0adb,2020-08-10_12h24.39.637,lexical_decision_task_MP,2020.1.3,Win32,60,z,1,0.896,,,,,,,,0.896,1,,,,,,451,NW,UN,33,surden,CAINKY,z,,,,,,0.509114583,0.029947917,0,0,0,,0,89,89,390,1,,
,,,,,,,,,,,,,,,,,,5f2dbe52314d560ef2ce0adb,2020-08-10_12h24.39.637,lexical_decision_task_MP,2020.1.3,Win32,60,m,1,0.441,,,,,,,,0.441,1,,,,,,130,WORD,"ID",50,stupid,STUPID,m,,,,,,0.509114583,0.029947917,0,0,0,,0,90,90,69,1,,
,,,,,,,,,,,,,,,,,,5f2dbe52314d560ef2ce0adb,2020-08-10_12h24.39.637,lexical_decision_task_MP,2020.1.3,Win32,60,z,1,0.598,,,,,,,,0.598,1,,,,,,397,NW,"ID",50,camble,CAMBLE,z,,,,,,0.509114583,0.029947917,0,0,0,,0,91,91,336,1,,
,,,,,,,,,,,,,,,,,,5f2dbe52314d560ef2ce0adb,2020-08-10_12h24.39.637,lexical_decision_task_MP,2020.1.3,Win32,60,m,1,0.597,,,,,,,,0.597,1,,,,,,86,WORD,"ID",33,rodent,RODENT,m,,,,,,0.509114583,0.029947917,0,0,0,,0,92,92,25,1,,
,,,,,,,,,,,,,,,,,,5f2dbe52314d560ef2ce0adb,2020-08-10_12h24.39.637,lexical_decision_task_MP,2020.1.3,Win32,60,z,1,0.821,,,,,,,,0.821,1,,,,,,453,NW,UN,33,scouge,BOLVIS,z,,,,,,0.509114583,0.029947917,0,0,0,,0,93,93,392,1,,
,,,,,,,,,,,,,,,,,,5f2dbe52314d560ef2ce0adb,2020-08-10_12h24.39.637,lexical_decision_task_MP,2020.1.3,Win32,60,m,0,0.359,,,,,,,,0.359,0,,,,,,463,NW,UN,33,chaite,KISPEL,z,,,,,,0.509114583,0.029947917,0,0,0,,0,94,94,402,1,,
,,,,,,,,,,,,,,,,,,5f2dbe52314d560ef2ce0adb,2020-08-10_12h24.39.637,lexical_decision_task_MP,2020.1.3,Win32,60,m,1,0.362,,,,,,,,0.362,1,,,,,,168,WORD,"ID",50,answer,ANSWER,m,,,,,,0.509114583,0.029947917,0,0,0,,0,95,95,107,1,,
,,,,,,,,,,,,,,,,,,5f2dbe52314d560ef2ce0adb,2020-08-10_12h24.39.637,lexical_decision_task_MP,2020.1.3,Win32,60,z,1,0.616,,,,,,,,0.616,1,,,,,,381,NW,"ID",50,huniek,HUNIEK,z,,,,,,0.509114583,0.029947917,0,0,0,,0,96,96,320,1,,
,,,,,,,,,,,,,,,,,,5f2dbe52314d560ef2ce0adb,2020-08-10_12h24.39.637,lexical_decision_task_MP,2020.1.3,Win32,60,z,1,0.64,,,,,,,,0.64,1,,,,,,392,NW,"ID",50,rouncy,ROUNCY,z,,,,,,0.509114583,0.029947917,0,0,0,,0,97,97,331,1,,
,,,,,,,,,,,,,,,,,,5f2dbe52314d560ef2ce0adb,2020-08-10_12h24.39.637,lexical_decision_task_MP,2020.1.3,Win32,60,m,0,1.176,,,,,,,,1.176,0,,,,,,361,NW,"ID",50,pauche,PAUCHE,z,,,,,,0.509114583,0.029947917,0,0,0,,0,98,98,300,1,,
,,,,,,,,,,,,,,,,,,5f2dbe52314d560ef2ce0adb,2020-08-10_12h24.39.637,lexical_decision_task_MP,2020.1.3,Win32,60,z,1,0.877,,,,,,,,0.877,1,,,,,,252,NW,UN,50,resait,STAPOD,z,,,,,,0.509114583,0.029947917,0,0,0,,0,99,99,431,1,,
,,,,,,,,,,,,,,,,,,5f2dbe52314d560ef2ce0adb,2020-08-10_12h24.39.637,lexical_decision_task_MP,2020.1.3,Win32,60,z,1,0.715,,,,,,,,0.715,1,,,,,,382,NW,"ID",50,sarley,SARLEY,z,,,,,,0.509114583,0.029947917,0,0,0,,0,100,100,321,1,,
,,,,,,,,,,,,,,,,,,5f2dbe52314d560ef2ce0adb,2020-08-10_12h24.39.637,lexical_decision_task_MP,2020.1.3,Win32,60,m,1,0.511,,,,,,,,0.511,1,,,,,,24,WORD,UN,50,domain,PRAISE,m,,,,,,0.509114583,0.029947917,0,0,0,,0,101,101,203,1,,
,,,,,,,,,,,,,,,,,,5f2dbe52314d560ef2ce0adb,2020-08-10_12h24.39.637,lexical_decision_task_MP,2020.1.3,Win32,60,z,1,0.753,,,,,,,,0.753,1,,,,,,292,NW,UN,50,swance,ABLINT,z,,,,,,0.509114583,0.029947917,0,0,0,,0,102,102,471,1,,
,,,,,,,,,,,,,,,,,,5f2dbe52314d560ef2ce0adb,2020-08-10_12h24.39.637,lexical_decision_task_MP,2020.1.3,Win32,60,z,1,0.667,,,,,,,,0.667,1,,,,,,479,NW,UN,33,crible,LOBUSH,z,,,,,,0.509114583,0.029947917,0,0,0,,0,103,103,418,1,,
,,,,,,,,,,,,,,,,,,5f2dbe52314d560ef2ce0adb,2020-08-10_12h24.39.637,lexical_decision_task_MP,2020.1.3,Win32,60,m,1,0.521,,,,,,,,0.521,1,,,,,,240,WORD,UN,33,seldom,FOREST,m,,,,,,0.509114583,0.029947917,0,0,0,,0,104,104,179,1,,
,,,,,,,,,,,,,,,,,,5f2dbe52314d560ef2ce0adb,2020-08-10_12h24.39.637,lexical_decision_task_MP,2020.1.3,Win32,60,m,1,0.729,,,,,,,,0.729,1,,,,,,4,WORD,UN,50,plunge,TRENCH,m,,,,,,0.509114583,0.029947917,0,0,0,,0,105,105,183,1,,
,,,,,,,,,,,,,,,,,,5f2dbe52314d560ef2ce0adb,2020-08-10_12h24.39.637,lexical_decision_task_MP,2020.1.3,Win32,60,z,1,0.638,,,,,,,,0.638,1,,,,,,408,NW,"ID",50,hurnia,HURNIA,z,,,,,,0.509114583,0.029947917,0,0,0,,0,106,106,347,1,,
,,,,,,,,,,,,,,,,,,5f2dbe52314d560ef2ce0adb,2020-08-10_12h24.39.637,lexical_decision_task_MP,2020.1.3,Win32,60,m,1,0.875,,,,,,,,0.875,1,,,,,,101,WORD,"ID",33,wrench,WRENCH,m,,,,,,0.509114583,0.029947917,0,0,0,,0,107,107,40,1,,
,,,,,,,,,,,,,,,,,,5f2dbe52314d560ef2ce0adb,2020-08-10_12h24.39.637,lexical_decision_task_MP,2020.1.3,Win32,60,z,1,0.768,,,,,,,,0.768,1,,,,,,369,NW,"ID",50,wronch,WRONCH,z,,,,,,0.509114583,0.029947917,0,0,0,,0,108,108,308,1,,
,,,,,,,,,,,,,,,,,,5f2dbe52314d560ef2ce0adb,2020-08-10_12h24.39.637,lexical_decision_task_MP,2020.1.3,Win32,60,m,1,0.455,,,,,,,,0.455,1,,,,,,166,WORD,"ID",50,starch,STARCH,m,,,,,,0.509114583,0.029947917,0,0,0,,0,109,109,105,1,,
,,,,,,,,,,,,,,,,,,5f2dbe52314d560ef2ce0adb,2020-08-10_12h24.39.637,lexical_decision_task_MP,2020.1.3,Win32,60,z,1,0.549,,,,,,,,0.549,1,,,,,,350,NW,"ID",33,nagurs,NAGURS,z,,,,,,0.509114583,0.029947917,0,0,0,,0,110,110,289,1,,
,,,,,,,,,,,,,,,,,,5f2dbe52314d560ef2ce0adb,2020-08-10_12h24.39.637,lexical_decision_task_MP,2020.1.3,Win32,60,m,1,0.433,,,,,,,,0.433,1,,,,,,165,WORD,"ID",50,invest,INVEST,m,,,,,,0.509114583,0.029947917,0,0,0,,0,111,111,104,1,,
,,,,,,,,,,,,,,,,,,5f2dbe52314d560ef2ce0adb,2020-08-10_12h24.39.637,lexical_decision_task_MP,2020.1.3,Win32,60,m,1,0.392,,,,,,,,0.392,1,,,,,,57,WORD,UN,50,danger,CHANGE,m,,,,,,0.509114583,0.029947917,0,0,0,,0,112,112,236,1,,
,,,,,,,,,,,,,,,,,,5f2dbe52314d560ef2ce0adb,2020-08-10_12h24.39.637,lexical_decision_task_MP,2020.1.3,Win32,60,m,1,0.564,,,,,,,,0.564,1,,,,,,172,WORD,"ID",50,patrol,PATROL,m,,,,,,0.509114583,0.029947917,0,0,0,,0,113,113,111,1,,
,,,,,,,,,,,,,,,,,,5f2dbe52314d560ef2ce0adb,2020-08-10_12h24.39.637,lexical_decision_task_MP,2020.1.3,Win32,60,z,1,0.604,,,,,,,,0.604,1,,,,,,435,NW,UN,33,frutan,IMPURB,z,,,,,,0.509114583,0.029947917,0,0,0,,0,114,114,374,1,,
,,,,,,,,,,,,,,,,,,5f2dbe52314d560ef2ce0adb,2020-08-10_12h24.39.637,lexical_decision_task_MP,2020.1.3,Win32,60,z,1,1.081,,,,,,,,1.081,1,,,,,,393,NW,"ID",50,ganous,GANOUS,z,,,,,,0.509114583,0.029947917,0,0,0,,0,115,115,332,1,,
,,,,,,,,,,,,,,,,,,5f2dbe52314d560ef2ce0adb,2020-08-10_12h24.39.637,lexical_decision_task_MP,2020.1.3,Win32,60,m,1,0.463,,,,,,,,0.463,1,,,,,,9,WORD,UN,50,bridge,HUSTLE,m,,,,,,0.509114583,0.029947917,0,0,0,,0,116,116,188,1,,
,,,,,,,,,,,,,,,,,,5f2dbe52314d560ef2ce0adb,2020-08-10_12h24.39.637,lexical_decision_task_MP,2020.1.3,Win32,60,z,1,0.534,,,,,,,,0.534,1,,,,,,245,NW,UN,50,piaton,ANOUGS,z,,,,,,0.509114583,0.029947917,0,0,0,,0,117,117,424,1,,
,,,,,,,,,,,,,,,,,,5f2dbe52314d560ef2ce0adb,2020-08-10_12h24.39.637,lexical_decision_task_MP,2020.1.3,Win32,60,m,1,0.751,,,,,,,,0.751,1,,,,,,212,WORD,UN,33,squeal,VERIFY,m,,,,,,0.509114583,0.029947917,0,0,0,,0,118,118,151,1,,
,,,,,,,,,,,,,,,,,,5f2dbe52314d560ef2ce0adb,2020-08-10_12h24.39.637,lexical_decision_task_MP,2020.1.3,Win32,60,m,1,0.265,,,,,,,,0.265,1,,,,,,176,WORD,"ID",50,strife,STRIFE,m,,,,,,0.509114583,0.029947917,0,0,0,,0,119,119,115,1,,
,,,,,,,,,,,,,,,,,,5f2dbe52314d560ef2ce0adb,2020-08-10_12h24.39.637,lexical_decision_task_MP,2020.1.3,Win32,60,m,1,0.461,,,,,,,,0.461,1,,,,,,133,WORD,"ID",50,chrome,CHROME,m,,,,,,0.509114583,0.029947917,0,0,0,space,0,120,120,72,1,28.742,
,,,,,,,,,,,,,,,,,,5f2dbe52314d560ef2ce0adb,2020-08-10_12h24.39.637,lexical_decision_task_MP,2020.1.3,Win32,60,z,1,0.864,,,,,,,,0.864,1,,,,,,368,NW,"ID",50,hornal,HORNAL,z,,,,,,0.509114583,0.029947917,0,0,0,,0,121,121,307,1,,
,,,,,,,,,,,,,,,,,,5f2dbe52314d560ef2ce0adb,2020-08-10_12h24.39.637,lexical_decision_task_MP,2020.1.3,Win32,60,m,1,0.928,,,,,,,,0.928,1,,,,,,197,WORD,UN,33,wicked,STREAM,m,,,,,,0.509114583,0.029947917,0,0,0,,0,122,122,136,1,,
,,,,,,,,,,,,,,,,,,5f2dbe52314d560ef2ce0adb,2020-08-10_12h24.39.637,lexical_decision_task_MP,2020.1.3,Win32,60,m,1,0.576,,,,,,,,0.576,1,,,,,,233,WORD,UN,33,clumsy,NATURE,m,,,,,,0.509114583,0.029947917,0,0,0,,0,123,123,172,1,,
,,,,,,,,,,,,,,,,,,5f2dbe52314d560ef2ce0adb,2020-08-10_12h24.39.637,lexical_decision_task_MP,2020.1.3,Win32,60,m,1,0.831,,,,,,,,0.831,1,,,,,,45,WORD,UN,50,single,CLERGY,m,,,,,,0.509114583,0.029947917,0,0,0,,0,124,124,224,1,,
,,,,,,,,,,,,,,,,,,5f2dbe52314d560ef2ce0adb,2020-08-10_12h24.39.637,lexical_decision_task_MP,2020.1.3,Win32,60,m,1,0.402,,,,,,,,0.402,1,,,,,,207,WORD,UN,33,hockey,WREATH,m,,,,,,0.509114583,0.029947917,0,0,0,,0,125,125,146,1,,
,,,,,,,,,,,,,,,,,,5f2dbe52314d560ef2ce0adb,2020-08-10_12h24.39.637,lexical_decision_task_MP,2020.1.3,Win32,60,z,1,0.568,,,,,,,,0.568,1,,,,,,279,NW,UN,50,curbol,CELOND,z,,,,,,0.509114583,0.029947917,0,0,0,,0,126,126,458,1,,
,,,,,,,,,,,,,,,,,,5f2dbe52314d560ef2ce0adb,2020-08-10_12h24.39.637,lexical_decision_task_MP,2020.1.3,Win32,60,z,1,1.065,,,,,,,,1.065,1,,,,,,325,NW,"ID",33,thruse,THRUSE,z,,,,,,0.509114583,0.029947917,0,0,0,,0,127,127,264,1,,
,,,,,,,,,,,,,,,,,,5f2dbe52314d560ef2ce0adb,2020-08-10_12h24.39.637,lexical_decision_task_MP,2020.1.3,Win32,60,z,1,1.249,,,,,,,,1.249,1,,,,,,313,NW,"ID",33,paurse,PAURSE,z,,,,,,0.509114583,0.029947917,0,0,0,,0,128,128,252,1,,
,,,,,,,,,,,,,,,,,,5f2dbe52314d560ef2ce0adb,2020-08-10_12h24.39.637,lexical_decision_task_MP,2020.1.3,Win32,60,z,1,0.873,,,,,,,,0.873,1,,,,,,461,NW,UN,33,absult,JUSTRE,z,,,,,,0.509114583,0.029947917,0,0,0,,0,129,129,400,1,,
,,,,,,,,,,,,,,,,,,5f2dbe52314d560ef2ce0adb,2020-08-10_12h24.39.637,lexical_decision_task_MP,2020.1.3,Win32,60,m,1,0.53,,,,,,,,0.53,1,,,,,,220,WORD,UN,33,mascot,VOYAGE,m,,,,,,0.509114583,0.029947917,0,0,0,,0,130,130,159,1,,
,,,,,,,,,,,,,,,,,,5f2dbe52314d560ef2ce0adb,2020-08-10_12h24.39.637,lexical_decision_task_MP,2020.1.3,Win32,60,z,1,0.921,,,,,,,,0.921,1,,,,,,395,NW,"ID",50,colury,COLURY,z,,,,,,0.509114583,0.029947917,0,0,0,,0,131,131,334,1,,
,,,,,,,,,,,,,,,,,,5f2dbe52314d560ef2ce0adb,2020-08-10_12h24.39.637,lexical_decision_task_MP,2020.1.3,Win32,60,m,1,0.579,,,,,,,,0.579,1,,,,,,91,WORD,"ID",33,expand,EXPAND,m,,,,,,0.509114583,0.029947917,0,0,0,,0,132,132,30,1,,
,,,,,,,,,,,,,,,,,,5f2dbe52314d560ef2ce0adb,2020-08-10_12h24.39.637,lexical_decision_task_MP,2020.1.3,Win32,60,z,1,0.551,,,,,,,,0.551,1,,,,,,356,NW,"ID",33,othnis,OTHNIS,z,,,,,,0.509114583,0.029947917,0,0,0,,0,133,133,295,1,,
,,,,,,,,,,,,,,,,,,5f2dbe52314d560ef2ce0adb,2020-08-10_12h24.39.637,lexical_decision_task_MP,2020.1.3,Win32,60,m,1,0.483,,,,,,,,0.483,1,,,,,,167,WORD,"ID",50,design,DESIGN,m,,,,,,0.509114583,0.029947917,0,0,0,,0,134,134,106,1,,
,,,,,,,,,,,,,,,,,,5f2dbe52314d560ef2ce0adb,2020-08-10_12h24.39.637,lexical_decision_task_MP,2020.1.3,Win32,60,m,1,0.602,,,,,,,,0.602,1,,,,,,55,WORD,UN,50,ambush,STROKE,m,,,,,,0.509114583,0.029947917,0,0,0,,0,135,135,234,1,,
,,,,,,,,,,,,,,,,,,5f2dbe52314d560ef2ce0adb,2020-08-10_12h24.39.637,lexical_decision_task_MP,2020.1.3,Win32,60,m,1,0.663,,,,,,,,0.663,1,,,,,,195,WORD,UN,33,credit,RESIGN,m,,,,,,0.509114583,0.029947917,0,0,0,,0,136,136,134,1,,
,,,,,,,,,,,,,,,,,,5f2dbe52314d560ef2ce0adb,2020-08-10_12h24.39.637,lexical_decision_task_MP,2020.1.3,Win32,60,m,1,0.43,,,,,,,,0.43,1,,,,,,148,WORD,"ID",50,custom,CUSTOM,m,,,,,,0.509114583,0.029947917,0,0,0,,0,137,137,87,1,,
,,,,,,,,,,,,,,,,,,5f2dbe52314d560ef2ce0adb,2020-08-10_12h24.39.637,lexical_decision_task_MP,2020.1.3,Win32,60,m,1,0.444,,,,,,,,0.444,1,,,,,,105,WORD,"ID",33,number,NUMBER,m,,,,,,0.509114583,0.029947917,0,0,0,,0,138,138,44,1,,
,,,,,,,,,,,,,,,,,,5f2dbe52314d560ef2ce0adb,2020-08-10_12h24.39.637,lexical_decision_task_MP,2020.1.3,Win32,60,z,1,0.47,,,,,,,,0.47,1,,,,,,308,NW,"ID",33,psetch,PSETCH,z,,,,,,0.509114583,0.029947917,0,0,0,,0,139,139,247,1,,
,,,,,,,,,,,,,,,,,,5f2dbe52314d560ef2ce0adb,2020-08-10_12h24.39.637,lexical_decision_task_MP,2020.1.3,Win32,60,m,1,0.606,,,,,,,,0.606,1,,,,,,104,WORD,"ID",33,studio,STUDIO,m,,,,,,0.509114583,0.029947917,0,0,0,,0,140,140,43,1,,
,,,,,,,,,,,,,,,,,,5f2dbe52314d560ef2ce0adb,2020-08-10_12h24.39.637,lexical_decision_task_MP,2020.1.3,Win32,60,m,1,0.401,,,,,,,,0.401,1,,,,,,79,WORD,"ID",33,theory,THEORY,m,,,,,,0.509114583,0.029947917,0,0,0,,0,141,141,18,1,,
,,,,,,,,,,,,,,,,,,5f2dbe52314d560ef2ce0adb,2020-08-10_12h24.39.637,lexical_decision_task_MP,2020.1.3,Win32,60,z,1,0.695,,,,,,,,0.695,1,,,,,,360,NW,"ID",33,desory,DESORY,z,,,,,,0.509114583,0.029947917,0,0,0,,0,142,142,299,1,,
,,,,,,,,,,,,,,,,,,5f2dbe52314d560ef2ce0adb,2020-08-10_12h24.39.637,lexical_decision_task_MP,2020.1.3,Win32,60,m,1,0.486,,,,,,,,0.486,1,,,,,,127,WORD,"ID",50,castle,CASTLE,m,,,,,,0.509114583,0.029947917,0,0,0,,0,143,143,66,1,,
,,,,,,,,,,,,,,,,,,5f2dbe52314d560ef2ce0adb,2020-08-10_12h24.39.637,lexical_decision_task_MP,2020.1.3,Win32,60,z,1,0.519,,,,,,,,0.519,1,,,,,,327,NW,"ID",33,plenac,PLENAC,z,,,,,,0.509114583,0.029947917,0,0,0,,0,144,144,266,1,,
,,,,,,,,,,,,,,,,,,5f2dbe52314d560ef2ce0adb,2020-08-10_12h24.39.637,lexical_decision_task_MP,2020.1.3,Win32,60,m,1,0.464,,,,,,,,0.464,1,,,,,,208,WORD,UN,33,search,HOCKEY,m,,,,,,0.509114583,0.029947917,0,0,0,,0,145,145,147,1,,
,,,,,,,,,,,,,,,,,,5f2dbe52314d560ef2ce0adb,2020-08-10_12h24.39.637,lexical_decision_task_MP,2020.1.3,Win32,60,m,1,0.49,,,,,,,,0.49,1,,,,,,7,WORD,UN,50,abrupt,ANCHOR,m,,,,,,0.509114583,0.029947917,0,0,0,,0,146,146,186,1,,
,,,,,,,,,,,,,,,,,,5f2dbe52314d560ef2ce0adb,2020-08-10_12h24.39.637,lexical_decision_task_MP,2020.1.3,Win32,60,z,1,0.492,,,,,,,,0.492,1,,,,,,241,NW,UN,50,unwert,SMENCO,z,,,,,,0.509114583,0.029947917,0,0,0,,0,147,147,420,1,,
,,,,,,,,,,,,,,,,,,5f2dbe52314d560ef2ce0adb,2020-08-10_12h24.39.637,lexical_decision_task_MP,2020.1.3,Win32,60,m,1,0.48,,,,,,,,0.48,1,,,,,,92,WORD,"ID",33,strand,STRAND,m,,,,,,0.509114583,0.029947917,0,0,0,,0,148,148,31,1,,
,,,,,,,,,,,,,,,,,,5f2dbe52314d560ef2ce0adb,2020-08-10_12h24.39.637,lexical_decision_task_MP,2020.1.3,Win32,60,m,1,0.254,,,,,,,,0.254,1,,,,,,225,WORD,UN,33,casino,VULGAR,m,,,,,,0.509114583,0.029947917,0,0,0,,0,149,149,164,1,,
,,,,,,,,,,,,,,,,,,5f2dbe52314d560ef2ce0adb,2020-08-10_12h24.39.637,lexical_decision_task_MP,2020.1.3,Win32,60,z,1,0.406,,,,,,,,0.406,1,,,,,,293,NW,UN,50,inhort,SWANCE,z,,,,,,0.509114583,0.029947917,0,0,0,,0,150,150,472,1,,
,,,,,,,,,,,,,,,,,,5f2dbe52314d560ef2ce0adb,2020-08-10_12h24.39.637,lexical_decision_task_MP,2020.1.3,Win32,60,m,0,0.437,,,,,,,,0.437,0,,,,,,377,NW,"ID",50,injore,INJORE,z,,,,,,0.509114583,0.029947917,0,0,0,,0,151,151,316,1,,
,,,,,,,,,,,,,,,,,,5f2dbe52314d560ef2ce0adb,2020-08-10_12h24.39.637,lexical_decision_task_MP,2020.1.3,Win32,60,m,0,0.467,,,,,,,,0.467,0,,,,,,437,NW,UN,33,baitch,SNAPEL,z,,,,,,0.509114583,0.029947917,0,0,0,,0,152,152,376,1,,
,,,,,,,,,,,,,,,,,,5f2dbe52314d560ef2ce0adb,2020-08-10_12h24.39.637,lexical_decision_task_MP,2020.1.3,Win32,60,z,1,0.679,,,,,,,,0.679,1,,,,,,301,NW,"ID",33,fainch,FAINCH,z,,,,,,0.509114583,0.029947917,0,0,0,,0,153,153,240,1,,
,,,,,,,,,,,,,,,,,,5f2dbe52314d560ef2ce0adb,2020-08-10_12h24.39.637,lexical_decision_task_MP,2020.1.3,Win32,60,m,1,0.414,,,,,,,,0.414,1,,,,,,129,WORD,"ID",50,marvel,MARVEL,m,,,,,,0.509114583,0.029947917,0,0,0,,0,154,154,68,1,,
,,,,,,,,,,,,,,,,,,5f2dbe52314d560ef2ce0adb,2020-08-10_12h24.39.637,lexical_decision_task_MP,2020.1.3,Win32,60,m,1,0.386,,,,,,,,0.386,1,,,,,,12,WORD,UN,50,strive,ORANGE,m,,,,,,0.509114583,0.029947917,0,0,0,,0,155,155,191,1,,
,,,,,,,,,,,,,,,,,,5f2dbe52314d560ef2ce0adb,2020-08-10_12h24.39.637,lexical_decision_task_MP,2020.1.3,Win32,60,m,1,0.572,,,,,,,,0.572,1,,,,,,8,WORD,UN,50,hustle,ABRUPT,m,,,,,,0.509114583,0.029947917,0,0,0,,0,156,156,187,1,,
,,,,,,,,,,,,,,,,,,5f2dbe52314d560ef2ce0adb,2020-08-10_12h24.39.637,lexical_decision_task_MP,2020.1.3,Win32,60,m,1,0.879,,,,,,,,0.879,1,,,,,,209,WORD,UN,33,monkey,SEARCH,m,,,,,,0.509114583,0.029947917,0,0,0,,0,157,157,148,1,,
,,,,,,,,,,,,,,,,,,5f2dbe52314d560ef2ce0adb,2020-08-10_12h24.39.637,lexical_decision_task_MP,2020.1.3,Win32,60,m,0,0.461,,,,,,,,0.461,0,,,,,,399,NW,"ID",50,fouret,FOURET,z,,,,,,0.509114583,0.029947917,0,0,0,,0,158,158,338,1,,
,,,,,,,,,,,,,,,,,,5f2dbe52314d560ef2ce0adb,2020-08-10_12h24.39.637,lexical_decision_task_MP,2020.1.3,Win32,60,z,1,0.68,,,,,,,,0.68,1,,,,,,383,NW,"ID",50,aungre,AUNGRE,z,,,,,,0.509114583,0.029947917,0,0,0,,0,159,159,322,1,,
,,,,,,,,,,,,,,,,,,5f2dbe52314d560ef2ce0adb,2020-08-10_12h24.39.637,lexical_decision_task_MP,2020.1.3,Win32,60,z,1,0.582,,,,,,,,0.582,1,,,,,,246,NW,UN,50,blarge,PIATON,z,,,,,,0.509114583,0.029947917,0,0,0,,0,160,160,425,1,,
,,,,,,,,,,,,,,,,,,5f2dbe52314d560ef2ce0adb,2020-08-10_12h24.39.637,lexical_decision_task_MP,2020.1.3,Win32,60,z,1,0.851,,,,,,,,0.851,1,,,,,,244,NW,UN,50,anougs,EATRIC,z,,,,,,0.509114583,0.029947917,0,0,0,,0,161,161,423,1,,
,,,,,,,,,,,,,,,,,,5f2dbe52314d560ef2ce0adb,2020-08-10_12h24.39.637,lexical_decision_task_MP,2020.1.3,Win32,60,m,1,0.643,,,,,,,,0.643,1,,,,,,121,WORD,"ID",50,thrive,THRIVE,m,,,,,,0.509114583,0.029947917,0,0,0,,0,162,162,60,1,,
,,,,,,,,,,,,,,,,,,5f2dbe52314d560ef2ce0adb,2020-08-10_12h24.39.637,lexical_decision_task_MP,2020.1.3,Win32,60,z,1,0.477,,,,,,,,0.477,1,,,,,,417,NW,"ID",50,earoud,EAROUD,z,,,,,,0.509114583,0.029947917,0,0,0,,0,163,163,356,1,,
,,,,,,,,,,,,,,,,,,5f2dbe52314d560ef2ce0adb,2020-08-10_12h24.39.637,lexical_decision_task_MP,2020.1.3,Win32,60,m,0,0.408,,,,,,,,0.408,0,,,,,,347,NW,"ID",33,kerift,KERIFT,z,,,,,,0.509114583,0.029947917,0,0,0,,0,164,164,286,1,,
,,,,,,,,,,,,,,,,,,5f2dbe52314d560ef2ce0adb,2020-08-10_12h24.39.637,lexical_decision_task_MP,2020.1.3,Win32,60,z,1,0.518,,,,,,,,0.518,1,,,,,,302,NW,"ID",33,miluer,MILUER,z,,,,,,0.509114583,0.029947917,0,0,0,,0,165,165,241,1,,
,,,,,,,,,,,,,,,,,,5f2dbe52314d560ef2ce0adb,2020-08-10_12h24.39.637,lexical_decision_task_MP,2020.1.3,Win32,60,z,1,0.436,,,,,,,,0.436,1,,,,,,405,NW,"ID",50,flumni,FLUMNI,z,,,,,,0.509114583,0.029947917,0,0,0,,0,166,166,344,1,,
,,,,,,,,,,,,,,,,,,5f2dbe52314d560ef2ce0adb,2020-08-10_12h24.39.637,lexical_decision_task_MP,2020.1.3,Win32,60,m,1,0.508,,,,,,,,0.508,1,,,,,,31,WORD,UN,50,buckle,WEAPON,m,,,,,,0.509114583,0.029947917,0,0,0,,0,167,167,210,1,,
,,,,,,,,,,,,,,,,,,5f2dbe52314d560ef2ce0adb,2020-08-10_12h24.39.637,lexical_decision_task_MP,2020.1.3,Win32,60,z,1,0.605,,,,,,,,0.605,1,,,,,,478,NW,UN,33,pebric,ACRISE,z,,,,,,0.509114583,0.029947917,0,0,0,,0,168,168,417,1,,
,,,,,,,,,,,,,,,,,,5f2dbe52314d560ef2ce0adb,2020-08-10_12h24.39.637,lexical_decision_task_MP,2020.1.3,Win32,60,m,0,0.78,,,,,,,,0.78,0,,,,,,338,NW,"ID",33,wreash,WREASH,z,,,,,,0.509114583,0.029947917,0,0,0,,0,169,169,277,1,,
,,,,,,,,,,,,,,,,,,5f2dbe52314d560ef2ce0adb,2020-08-10_12h24.39.637,lexical_decision_task_MP,2020.1.3,Win32,60,z,0,0.578,,,,,,,,0.578,0,,,,,,58,WORD,UN,50,splint,FOSTER,m,,,,,,0.509114583,0.029947917,0,0,0,,0,170,170,237,1,,
,,,,,,,,,,,,,,,,,,5f2dbe52314d560ef2ce0adb,2020-08-10_12h24.39.637,lexical_decision_task_MP,2020.1.3,Win32,60,m,0,0.836,,,,,,,,0.836,0,,,,,,416,NW,"ID",50,pathel,PATHEL,z,,,,,,0.509114583,0.029947917,0,0,0,,0,171,171,355,1,,
,,,,,,,,,,,,,,,,,,5f2dbe52314d560ef2ce0adb,2020-08-10_12h24.39.637,lexical_decision_task_MP,2020.1.3,Win32,60,z,1,0.637,,,,,,,,0.637,1,,,,,,400,NW,"ID",50,wearox,WEAROX,z,,,,,,0.509114583,0.029947917,0,0,0,,0,172,172,339,1,,
,,,,,,,,,,,,,,,,,,5f2dbe52314d560ef2ce0adb,2020-08-10_12h24.39.637,lexical_decision_task_MP,2020.1.3,Win32,60,m,1,0.51,,,,,,,,0.51,1,,,,,,163,WORD,"ID",50,string,STRING,m,,,,,,0.509114583,0.029947917,0,0,0,,0,173,173,102,1,,
,,,,,,,,,,,,,,,,,,5f2dbe52314d560ef2ce0adb,2020-08-10_12h24.39.637,lexical_decision_task_MP,2020.1.3,Win32,60,z,1,0.59,,,,,,,,0.59,1,,,,,,283,NW,UN,50,shaple,VERALF,z,,,,,,0.509114583,0.029947917,0,0,0,,0,174,174,462,1,,
,,,,,,,,,,,,,,,,,,5f2dbe52314d560ef2ce0adb,2020-08-10_12h24.39.637,lexical_decision_task_MP,2020.1.3,Win32,60,m,1,0.43,,,,,,,,0.43,1,,,,,,188,WORD,UN,33,censor,SOCIAL,m,,,,,,0.509114583,0.029947917,0,0,0,,0,175,175,127,1,,
,,,,,,,,,,,,,,,,,,5f2dbe52314d560ef2ce0adb,2020-08-10_12h24.39.637,lexical_decision_task_MP,2020.1.3,Win32,60,m,1,0.529,,,,,,,,0.529,1,,,,,,136,WORD,"ID",50,bleach,BLEACH,m,,,,,,0.509114583,0.029947917,0,0,0,,0,176,176,75,1,,
,,,,,,,,,,,,,,,,,,5f2dbe52314d560ef2ce0adb,2020-08-10_12h24.39.637,lexical_decision_task_MP,2020.1.3,Win32,60,z,1,0.499,,,,,,,,0.499,1,,,,,,348,NW,"ID",33,dumple,DUMPLE,z,,,,,,0.509114583,0.029947917,0,0,0,,0,177,177,287,1,,
,,,,,,,,,,,,,,,,,,5f2dbe52314d560ef2ce0adb,2020-08-10_12h24.39.637,lexical_decision_task_MP,2020.1.3,Win32,60,z,1,0.595,,,,,,,,0.595,1,,,,,,459,NW,UN,33,mingar,BAFENT,z,,,,,,0.509114583,0.029947917,0,0,0,,0,178,178,398,1,,
,,,,,,,,,,,,,,,,,,5f2dbe52314d560ef2ce0adb,2020-08-10_12h24.39.637,lexical_decision_task_MP,2020.1.3,Win32,60,z,1,0.692,,,,,,,,0.692,1,,,,,,250,NW,UN,50,lupict,MILTED,z,,,,,,0.509114583,0.029947917,0,0,0,,0,179,179,429,1,,
,,,,,,,,,,,,,,,,,,5f2dbe52314d560ef2ce0adb,2020-08-10_12h24.39.637,lexical_decision_task_MP,2020.1.3,Win32,60,m,1,0.396,,,,,,,,0.396,1,,,,,,80,WORD,"ID",33,family,FAMILY,m,,,,,,0.509114583,0.029947917,0,0,0,,0,180,180,19,1,,
,,,,,,,,,,,,,,,,,,5f2dbe52314d560ef2ce0adb,2020-08-10_12h24.39.637,lexical_decision_task_MP,2020.1.3,Win32,60,z,1,0.797,,,,,,,,0.797,1,,,,,,432,NW,UN,33,drance,LUNKER,z,,,,,,0.509114583,0.029947917,0,0,0,,0,181,181,371,1,,
,,,,,,,,,,,,,,,,,,5f2dbe52314d560ef2ce0adb,2020-08-10_12h24.39.637,lexical_decision_task_MP,2020.1.3,Win32,60,m,1,0.438,,,,,,,,0.438,1,,,,,,61,WORD,"ID",33,ponder,PONDER,m,,,,,,0.509114583,0.029947917,0,0,0,,0,182,182,0,1,,
,,,,,,,,,,,,,,,,,,5f2dbe52314d560ef2ce0adb,2020-08-10_12h24.39.637,lexical_decision_task_MP,2020.1.3,Win32,60,m,1,0.32,,,,,,,,0.32,1,,,,,,161,WORD,"ID",50,pastor,PASTOR,m,,,,,,0.509114583,0.029947917,0,0,0,,0,183,183,100,1,,
,,,,,,,,,,,,,,,,,,5f2dbe52314d560ef2ce0adb,2020-08-10_12h24.39.637,lexical_decision_task_MP,2020.1.3,Win32,60,z,1,0.473,,,,,,,,0.473,1,,,,,,376,NW,"ID",50,iguare,IGUARE,z,,,,,,0.509114583,0.029947917,0,0,0,,0,184,184,315,1,,
,,,,,,,,,,,,,,,,,,5f2dbe52314d560ef2ce0adb,2020-08-10_12h24.39.637,lexical_decision_task_MP,2020.1.3,Win32,60,z,1,0.591,,,,,,,,0.591,1,,,,,,457,NW,UN,33,barcet,WANIGH,z,,,,,,0.509114583,0.029947917,0,0,0,,0,185,185,396,1,,
,,,,,,,,,,,,,,,,,,5f2dbe52314d560ef2ce0adb,2020-08-10_12h24.39.637,lexical_decision_task_MP,2020.1.3,Win32,60,z,0,0.419,,,,,,,,0.419,0,,,,,,147,WORD,"ID",50,garlic,GARLIC,m,,,,,,0.509114583,0.029947917,0,0,0,,0,186,186,86,1,,
,,,,,,,,,,,,,,,,,,5f2dbe52314d560ef2ce0adb,2020-08-10_12h24.39.637,lexical_decision_task_MP,2020.1.3,Win32,60,m,1,0.645,,,,,,,,0.645,1,,,,,,29,WORD,UN,50,orient,SKETCH,m,,,,,,0.509114583,0.029947917,0,0,0,,0,187,187,208,1,,
,,,,,,,,,,,,,,,,,,5f2dbe52314d560ef2ce0adb,2020-08-10_12h24.39.637,lexical_decision_task_MP,2020.1.3,Win32,60,m,1,0.62,,,,,,,,0.62,1,,,,,,48,WORD,UN,50,survey,WALNUT,m,,,,,,0.509114583,0.029947917,0,0,0,,0,188,188,227,1,,
,,,,,,,,,,,,,,,,,,5f2dbe52314d560ef2ce0adb,2020-08-10_12h24.39.637,lexical_decision_task_MP,2020.1.3,Win32,60,m,1,0.584,,,,,,,,0.584,1,,,,,,215,WORD,UN,33,lumber,PHOBIA,m,,,,,,0.509114583,0.029947917,0,0,0,,0,189,189,154,1,,
,,,,,,,,,,,,,,,,,,5f2dbe52314d560ef2ce0adb,2020-08-10_12h24.39.637,lexical_decision_task_MP,2020.1.3,Win32,60,z,1,0.581,,,,,,,,0.581,1,,,,,,465,NW,UN,33,bafent,WHIVEX,z,,,,,,0.509114583,0.029947917,0,0,0,,0,190,190,404,1,,
,,,,,,,,,,,,,,,,,,5f2dbe52314d560ef2ce0adb,2020-08-10_12h24.39.637,lexical_decision_task_MP,2020.1.3,Win32,60,m,1,0.377,,,,,,,,0.377,1,,,,,,70,WORD,"ID",33,square,SQUARE,m,,,,,,0.509114583,0.029947917,0,0,0,,0,191,191,9,1,,
,,,,,,,,,,,,,,,,,,5f2dbe52314d560ef2ce0adb,2020-08-10_12h24.39.637,lexical_decision_task_MP,2020.1.3,Win32,60,m,1,0.753,,,,,,,,0.753,1,,,,,,124,WORD,"ID",50,blouse,BLOUSE,m,,,,,,0.509114583,0.029947917,0,0,0,,0,192,192,63,1,,
,,,,,,,,,,,,,,,,,,5f2dbe52314d560ef2ce0adb,2020-08-10_12h24.39.637,lexical_decision_task_MP,2020.1.3,Win32,60,z,1,0.523,,,,,,,,0.523,1,,,,,,446,NW,UN,33,gircue,RUNAMO,z,,,,,,0.509114583,0.029947917,0,0,0,,0,193,193,385,1,,
,,,,,,,,,,,,,,,,,,5f2dbe52314d560ef2ce0adb,2020-08-10_12h24.39.637,lexical_decision_task_MP,2020.1.3,Win32,60,z,1,0.632,,,,,,,,0.632,1,,,,,,266,NW,UN,50,pasink,VARMIT,z,,,,,,0.509114583,0.029947917,0,0,0,,0,194,194,445,1,,
,,,,,,,,,,,,,,,,,,5f2dbe52314d560ef2ce0adb,2020-08-10_12h24.39.637,lexical_decision_task_MP,2020.1.3,Win32,60,m,1,0.565,,,,,,,,0.565,1,,,,,,144,WORD,"ID",50,sponge,SPONGE,m,,,,,,0.509114583,0.029947917,0,0,0,,0,195,195,83,1,,
,,,,,,,,,,,,,,,,,,5f2dbe52314d560ef2ce0adb,2020-08-10_12h24.39.637,lexical_decision_task_MP,2020.1.3,Win32,60,m,0,0.375,,,,,,,,0.375,0,,,,,,398,NW,"ID",50,blunde,BLUNDE,z,,,,,,0.509114583,0.029947917,0,0,0,,0,196,196,337,1,,
,,,,,,,,,,,,,,,,,,5f2dbe52314d560ef2ce0adb,2020-08-10_12h24.39.637,lexical_decision_task_MP,2020.1.3,Win32,60,m,1,0.404,,,,,,,,0.404,1,,,,,,108,WORD,"ID",33,reckon,RECKON,m,,,,,,0.509114583,0.029947917,0,0,0,,0,197,197,47,1,,
,,,,,,,,,,,,,,,,,,5f2dbe52314d560ef2ce0adb,2020-08-10_12h24.39.637,lexical_decision_task_MP,2020.1.3,Win32,60,z,1,0.896,,,,,,,,0.896,1,,,,,,477,NW,UN,33,lobush,PHOTIE,z,,,,,,0.509114583,0.029947917,0,0,0,,0,198,198,416,1,,
,,,,,,,,,,,,,,,,,,5f2dbe52314d560ef2ce0adb,2020-08-10_12h24.39.637,lexical_decision_task_MP,2020.1.3,Win32,60,m,0,0.435,,,,,,,,0.435,0,,,,,,306,NW,"ID",33,sounge,SOUNGE,z,,,,,,0.509114583,0.029947917,0,0,0,,0,199,199,245,1,,
,,,,,,,,,,,,,,,,,,5f2dbe52314d560ef2ce0adb,2020-08-10_12h24.39.637,lexical_decision_task_MP,2020.1.3,Win32,60,m,1,0.508,,,,,,,,0.508,1,,,,,,142,WORD,"ID",50,spruce,SPRUCE,m,,,,,,0.509114583,0.029947917,0,0,0,,0,200,200,81,1,,
,,,,,,,,,,,,,,,,,,5f2dbe52314d560ef2ce0adb,2020-08-10_12h24.39.637,lexical_decision_task_MP,2020.1.3,Win32,60,m,1,0.636,,,,,,,,0.636,1,,,,,,52,WORD,UN,50,police,IMPOSE,m,,,,,,0.509114583,0.029947917,0,0,0,,0,201,201,231,1,,
,,,,,,,,,,,,,,,,,,5f2dbe52314d560ef2ce0adb,2020-08-10_12h24.39.637,lexical_decision_task_MP,2020.1.3,Win32,60,z,1,0.627,,,,,,,,0.627,1,,,,,,450,NW,UN,33,cainky,PHRECT,z,,,,,,0.509114583,0.029947917,0,0,0,,0,202,202,389,1,,
,,,,,,,,,,,,,,,,,,5f2dbe52314d560ef2ce0adb,2020-08-10_12h24.39.637,lexical_decision_task_MP,2020.1.3,Win32,60,m,0,0.61,,,,,,,,0.61,0,,,,,,359,NW,"ID",33,fonver,FONVER,z,,,,,,0.509114583,0.029947917,0,0,0,,0,203,203,298,1,,
,,,,,,,,,,,,,,,,,,5f2dbe52314d560ef2ce0adb,2020-08-10_12h24.39.637,lexical_decision_task_MP,2020.1.3,Win32,60,z,1,1.092,,,,,,,,1.092,1,,,,,,422,NW,UN,33,streld,ALCOUD,z,,,,,,0.509114583,0.029947917,0,0,0,,0,204,204,361,1,,
,,,,,,,,,,,,,,,,,,5f2dbe52314d560ef2ce0adb,2020-08-10_12h24.39.637,lexical_decision_task_MP,2020.1.3,Win32,60,m,1,0.622,,,,,,,,0.622,1,,,,,,189,WORD,UN,33,backup,CENSOR,m,,,,,,0.509114583,0.029947917,0,0,0,,0,205,205,128,1,,
,,,,,,,,,,,,,,,,,,5f2dbe52314d560ef2ce0adb,2020-08-10_12h24.39.637,lexical_decision_task_MP,2020.1.3,Win32,60,m,0,0.536,,,,,,,,0.536,0,,,,,,320,NW,"ID",33,jockal,JOCKAL,z,,,,,,0.509114583,0.029947917,0,0,0,,0,206,206,259,1,,
,,,,,,,,,,,,,,,,,,5f2dbe52314d560ef2ce0adb,2020-08-10_12h24.39.637,lexical_decision_task_MP,2020.1.3,Win32,60,z,1,0.685,,,,,,,,0.685,1,,,,,,271,NW,UN,50,damilt,AUBRID,z,,,,,,0.509114583,0.029947917,0,0,0,,0,207,207,450,1,,
,,,,,,,,,,,,,,,,,,5f2dbe52314d560ef2ce0adb,2020-08-10_12h24.39.637,lexical_decision_task_MP,2020.1.3,Win32,60,m,0,0.634,,,,,,,,0.634,0,,,,,,303,NW,"ID",33,fiream,FIREAM,z,,,,,,0.509114583,0.029947917,0,0,0,,0,208,208,242,1,,
,,,,,,,,,,,,,,,,,,5f2dbe52314d560ef2ce0adb,2020-08-10_12h24.39.637,lexical_decision_task_MP,2020.1.3,Win32,60,z,1,1.321,,,,,,,,1.321,1,,,,,,394,NW,"ID",50,spaqux,SPAQUX,z,,,,,,0.509114583,0.029947917,0,0,0,,0,209,209,333,1,,
,,,,,,,,,,,,,,,,,,5f2dbe52314d560ef2ce0adb,2020-08-10_12h24.39.637,lexical_decision_task_MP,2020.1.3,Win32,60,z,1,0.621,,,,,,,,0.621,1,,,,,,273,NW,UN,50,fumblo,SORTEL,z,,,,,,0.509114583,0.029947917,0,0,0,,0,210,210,452,1,,
,,,,,,,,,,,,,,,,,,5f2dbe52314d560ef2ce0adb,2020-08-10_12h24.39.637,lexical_decision_task_MP,2020.1.3,Win32,60,m,1,0.522,,,,,,,,0.522,1,,,,,,205,WORD,UN,33,tailor,LOUNGE,m,,,,,,0.509114583,0.029947917,0,0,0,,0,211,211,144,1,,
,,,,,,,,,,,,,,,,,,5f2dbe52314d560ef2ce0adb,2020-08-10_12h24.39.637,lexical_decision_task_MP,2020.1.3,Win32,60,z,1,0.488,,,,,,,,0.488,1,,,,,,261,NW,UN,50,quilew,STUNCH,z,,,,,,0.509114583,0.029947917,0,0,0,,0,212,212,440,1,,
,,,,,,,,,,,,,,,,,,5f2dbe52314d560ef2ce0adb,2020-08-10_12h24.39.637,lexical_decision_task_MP,2020.1.3,Win32,60,z,1,0.686,,,,,,,,0.686,1,,,,,,363,NW,"ID",50,breali,BREALI,z,,,,,,0.509114583,0.029947917,0,0,0,,0,213,213,302,1,,
,,,,,,,,,,,,,,,,,,5f2dbe52314d560ef2ce0adb,2020-08-10_12h24.39.637,lexical_decision_task_MP,2020.1.3,Win32,60,m,1,0.418,,,,,,,,0.418,1,,,,,,75,WORD,"ID",33,trophy,TROPHY,m,,,,,,0.509114583,0.029947917,0,0,0,,0,214,214,14,1,,
,,,,,,,,,,,,,,,,,,5f2dbe52314d560ef2ce0adb,2020-08-10_12h24.39.637,lexical_decision_task_MP,2020.1.3,Win32,60,m,1,0.46,,,,,,,,0.46,1,,,,,,109,WORD,"ID",33,wonder,WONDER,m,,,,,,0.509114583,0.029947917,0,0,0,,0,215,215,48,1,,
,,,,,,,,,,,,,,,,,,5f2dbe52314d560ef2ce0adb,2020-08-10_12h24.39.637,lexical_decision_task_MP,2020.1.3,Win32,60,z,1,0.736,,,,,,,,0.736,1,,,,,,384,NW,"ID",50,guesco,GUESCO,z,,,,,,0.509114583,0.029947917,0,0,0,,0,216,216,323,1,,
,,,,,,,,,,,,,,,,,,5f2dbe52314d560ef2ce0adb,2020-08-10_12h24.39.637,lexical_decision_task_MP,2020.1.3,Win32,60,m,1,0.463,,,,,,,,0.463,1,,,,,,103,WORD,"ID",33,bounce,BOUNCE,m,,,,,,0.509114583,0.029947917,0,0,0,,0,217,217,42,1,,
,,,,,,,,,,,,,,,,,,5f2dbe52314d560ef2ce0adb,2020-08-10_12h24.39.637,lexical_decision_task_MP,2020.1.3,Win32,60,z,1,0.515,,,,,,,,0.515,1,,,,,,321,NW,"ID",33,miator,MIATOR,z,,,,,,0.509114583,0.029947917,0,0,0,,0,218,218,260,1,,
,,,,,,,,,,,,,,,,,,5f2dbe52314d560ef2ce0adb,2020-08-10_12h24.39.637,lexical_decision_task_MP,2020.1.3,Win32,60,m,1,0.48,,,,,,,,0.48,1,,,,,,95,WORD,"ID",33,thread,THREAD,m,,,,,,0.509114583,0.029947917,0,0,0,,0,219,219,34,1,,
,,,,,,,,,,,,,,,,,,5f2dbe52314d560ef2ce0adb,2020-08-10_12h24.39.637,lexical_decision_task_MP,2020.1.3,Win32,60,z,1,0.571,,,,,,,,0.571,1,,,,,,249,NW,UN,50,milted,BATROL,z,,,,,,0.509114583,0.029947917,0,0,0,,0,220,220,428,1,,
,,,,,,,,,,,,,,,,,,5f2dbe52314d560ef2ce0adb,2020-08-10_12h24.39.637,lexical_decision_task_MP,2020.1.3,Win32,60,m,0,0.563,,,,,,,,0.563,0,,,,,,314,NW,"ID",33,sprine,SPRINE,z,,,,,,0.509114583,0.029947917,0,0,0,,0,221,221,253,1,,
,,,,,,,,,,,,,,,,,,5f2dbe52314d560ef2ce0adb,2020-08-10_12h24.39.637,lexical_decision_task_MP,2020.1.3,Win32,60,m,1,0.548,,,,,,,,0.548,1,,,,,,18,WORD,UN,50,patron,HUMBLE,m,,,,,,0.509114583,0.029947917,0,0,0,,0,222,222,197,1,,
,,,,,,,,,,,,,,,,,,5f2dbe52314d560ef2ce0adb,2020-08-10_12h24.39.637,lexical_decision_task_MP,2020.1.3,Win32,60,m,0,0.61,,,,,,,,0.61,0,,,,,,299,NW,UN,50,yarion,STURCH,z,,,,,,0.509114583,0.029947917,0,0,0,,0,223,223,478,1,,
,,,,,,,,,,,,,,,,,,5f2dbe52314d560ef2ce0adb,2020-08-10_12h24.39.637,lexical_decision_task_MP,2020.1.3,Win32,60,m,1,0.463,,,,,,,,0.463,1,,,,,,40,WORD,UN,50,spring,CONVEY,m,,,,,,0.509114583,0.029947917,0,0,0,,0,224,224,219,1,,
,,,,,,,,,,,,,,,,,,5f2dbe52314d560ef2ce0adb,2020-08-10_12h24.39.637,lexical_decision_task_MP,2020.1.3,Win32,60,z,0,0.564,,,,,,,,0.564,0,,,,,,222,WORD,UN,33,export,HINDER,m,,,,,,0.509114583,0.029947917,0,0,0,,0,225,225,161,1,,
,,,,,,,,,,,,,,,,,,5f2dbe52314d560ef2ce0adb,2020-08-10_12h24.39.637,lexical_decision_task_MP,2020.1.3,Win32,60,m,1,0.493,,,,,,,,0.493,1,,,,,,200,WORD,UN,33,admire,BEACON,m,,,,,,0.509114583,0.029947917,0,0,0,,0,226,226,139,1,,
,,,,,,,,,,,,,,,,,,5f2dbe52314d560ef2ce0adb,2020-08-10_12h24.39.637,lexical_decision_task_MP,2020.1.3,Win32,60,z,1,0.572,,,,,,,,0.572,1,,,,,,242,NW,UN,50,musied,UNWERT,z,,,,,,0.509114583,0.029947917,0,0,0,,0,227,227,421,1,,
,,,,,,,,,,,,,,,,,,5f2dbe52314d560ef2ce0adb,2020-08-10_12h24.39.637,lexical_decision_task_MP,2020.1.3,Win32,60,z,1,0.524,,,,,,,,0.524,1,,,,,,262,NW,UN,50,dolica,QUILEW,z,,,,,,0.509114583,0.029947917,0,0,0,,0,228,228,441,1,,
,,,,,,,,,,,,,,,,,,5f2dbe52314d560ef2ce0adb,2020-08-10_12h24.39.637,lexical_decision_task_MP,2020.1.3,Win32,60,z,1,0.637,,,,,,,,0.637,1,,,,,,386,NW,"ID",50,ancust,ANCUST,z,,,,,,0.509114583,0.029947917,0,0,0,,0,229,229,325,1,,
,,,,,,,,,,,,,,,,,,5f2dbe52314d560ef2ce0adb,2020-08-10_12h24.39.637,lexical_decision_task_MP,2020.1.3,Win32,60,m,1,0.518,,,,,,,,0.518,1,,,,,,53,WORD,UN,50,ramble,POLICE,m,,,,,,0.509114583,0.029947917,0,0,0,,0,230,230,232,1,,
,,,,,,,,,,,,,,,,,,5f2dbe52314d560ef2ce0adb,2020-08-10_12h24.39.637,lexical_decision_task_MP,2020.1.3,Win32,60,m,1,0.386,,,,,,,,0.386,1,,,,,,179,WORD,"ID",50,basket,BASKET,m,,,,,,0.509114583,0.029947917,0,0,0,,0,231,231,118,1,,
,,,,,,,,,,,,,,,,,,5f2dbe52314d560ef2ce0adb,2020-08-10_12h24.39.637,lexical_decision_task_MP,2020.1.3,Win32,60,m,0,0.534,,,,,,,,0.534,0,,,,,,380,NW,"ID",50,cavory,CAVORY,z,,,,,,0.509114583,0.029947917,0,0,0,,0,232,232,319,1,,
,,,,,,,,,,,,,,,,,,5f2dbe52314d560ef2ce0adb,2020-08-10_12h24.39.637,lexical_decision_task_MP,2020.1.3,Win32,60,z,1,0.588,,,,,,,,0.588,1,,,,,,433,NW,UN,33,pitrom,DRANCE,z,,,,,,0.509114583,0.029947917,0,0,0,,0,233,233,372,1,,
,,,,,,,,,,,,,,,,,,5f2dbe52314d560ef2ce0adb,2020-08-10_12h24.39.637,lexical_decision_task_MP,2020.1.3,Win32,60,m,0,0.42,,,,,,,,0.42,0,,,,,,467,NW,UN,33,wictor,GORBIE,z,,,,,,0.509114583,0.029947917,0,0,0,,0,234,234,406,1,,
,,,,,,,,,,,,,,,,,,5f2dbe52314d560ef2ce0adb,2020-08-10_12h24.39.637,lexical_decision_task_MP,2020.1.3,Win32,60,m,0,0.501,,,,,,,,0.501,0,,,,,,439,NW,UN,33,saride,LIMPOR,z,,,,,,0.509114583,0.029947917,0,0,0,,0,235,235,378,1,,
,,,,,,,,,,,,,,,,,,5f2dbe52314d560ef2ce0adb,2020-08-10_12h24.39.637,lexical_decision_task_MP,2020.1.3,Win32,60,z,1,1.182,,,,,,,,1.182,1,,,,,,277,NW,UN,50,unighs,PETAIN,z,,,,,,0.509114583,0.029947917,0,0,0,,0,236,236,456,1,,
,,,,,,,,,,,,,,,,,,5f2dbe52314d560ef2ce0adb,2020-08-10_12h24.39.637,lexical_decision_task_MP,2020.1.3,Win32,60,m,1,0.447,,,,,,,,0.447,1,,,,,,71,WORD,"ID",33,garden,GARDEN,m,,,,,,0.509114583,0.029947917,0,0,0,,0,237,237,10,1,,
,,,,,,,,,,,,,,,,,,5f2dbe52314d560ef2ce0adb,2020-08-10_12h24.39.637,lexical_decision_task_MP,2020.1.3,Win32,60,m,1,0.511,,,,,,,,0.511,1,,,,,,123,WORD,"ID",50,strike,STRIKE,m,,,,,,0.509114583,0.029947917,0,0,0,,0,238,238,62,1,,
,,,,,,,,,,,,,,,,,,5f2dbe52314d560ef2ce0adb,2020-08-10_12h24.39.637,lexical_decision_task_MP,2020.1.3,Win32,60,z,1,0.489,,,,,,,,0.489,1,,,,,,415,NW,"ID",50,higsta,HIGSTA,z,,,,,,0.509114583,0.029947917,0,0,0,,0,239,239,354,1,,
,,,,,,,,,,,,,,,,,,5f2dbe52314d560ef2ce0adb,2020-08-10_12h24.39.637,lexical_decision_task_MP,2020.1.3,Win32,60,m,1,0.501,,,,,,,,0.501,1,,,,,,125,WORD,"ID",50,nickel,NICKEL,m,,,,,,0.509114583,0.029947917,0,0,0,,0,240,240,64,1,,
,,,,,,,,,,,,,,,,,,5f2dbe52314d560ef2ce0adb,2020-08-10_12h24.39.637,lexical_decision_task_MP,2020.1.3,Win32,60,m,1,0.419,,,,,,,,0.419,1,,,,,,135,WORD,"ID",50,import,IMPORT,m,,,,,,0.08203125,-0.352864583,1,0,0,,0,241,241,74,1,,break_done_button
,,,,,,,,,,,,,,,,,,5f2dbe52314d560ef2ce0adb,2020-08-10_12h24.39.637,lexical_decision_task_MP,2020.1.3,Win32,60,z,1,1.149,,,,,,,,1.149,1,,,,,,309,NW,"ID",33,amiloy,AMILOY,z,,,,,,0.08203125,-0.352864583,0,0,0,,0,242,242,248,1,,
,,,,,,,,,,,,,,,,,,5f2dbe52314d560ef2ce0adb,2020-08-10_12h24.39.637,lexical_decision_task_MP,2020.1.3,Win32,60,z,1,0.681,,,,,,,,0.681,1,,,,,,329,NW,"ID",33,yarike,YARIKE,z,,,,,,0.08203125,-0.352864583,0,0,0,,0,243,243,268,1,,
,,,,,,,,,,,,,,,,,,5f2dbe52314d560ef2ce0adb,2020-08-10_12h24.39.637,lexical_decision_task_MP,2020.1.3,Win32,60,z,1,0.459,,,,,,,,0.459,1,,,,,,282,NW,UN,50,veralf,PORLEX,z,,,,,,0.08203125,-0.352864583,0,0,0,,0,244,244,461,1,,
,,,,,,,,,,,,,,,,,,5f2dbe52314d560ef2ce0adb,2020-08-10_12h24.39.637,lexical_decision_task_MP,2020.1.3,Win32,60,m,1,0.461,,,,,,,,0.461,1,,,,,,228,WORD,UN,33,kidney,MASTER,m,,,,,,0.08203125,-0.352864583,0,0,0,,0,245,245,167,1,,
,,,,,,,,,,,,,,,,,,5f2dbe52314d560ef2ce0adb,2020-08-10_12h24.39.637,lexical_decision_task_MP,2020.1.3,Win32,60,z,1,0.457,,,,,,,,0.457,1,,,,,,330,NW,"ID",33,kensom,KENSOM,z,,,,,,0.08203125,-0.352864583,0,0,0,,0,246,246,269,1,,
,,,,,,,,,,,,,,,,,,5f2dbe52314d560ef2ce0adb,2020-08-10_12h24.39.637,lexical_decision_task_MP,2020.1.3,Win32,60,m,1,0.431,,,,,,,,0.431,1,,,,,,154,WORD,"ID",50,author,AUTHOR,m,,,,,,0.08203125,-0.352864583,0,0,0,,0,247,247,93,1,,
,,,,,,,,,,,,,,,,,,5f2dbe52314d560ef2ce0adb,2020-08-10_12h24.39.637,lexical_decision_task_MP,2020.1.3,Win32,60,m,1,0.41,,,,,,,,0.41,1,,,,,,81,WORD,"ID",33,friend,FRIEND,m,,,,,,0.08203125,-0.352864583,0,0,0,,0,248,248,20,1,,
,,,,,,,,,,,,,,,,,,5f2dbe52314d560ef2ce0adb,2020-08-10_12h24.39.637,lexical_decision_task_MP,2020.1.3,Win32,60,z,1,0.372,,,,,,,,0.372,1,,,,,,264,NW,UN,50,distar,VACKEL,z,,,,,,0.08203125,-0.352864583,0,0,0,,0,249,249,443,1,,
,,,,,,,,,,,,,,,,,,5f2dbe52314d560ef2ce0adb,2020-08-10_12h24.39.637,lexical_decision_task_MP,2020.1.3,Win32,60,z,1,0.41,,,,,,,,0.41,1,,,,,,256,NW,UN,50,veniod,INLORS,z,,,,,,0.08203125,-0.352864583,0,0,0,,0,250,250,435,1,,
,,,,,,,,,,,,,,,,,,5f2dbe52314d560ef2ce0adb,2020-08-10_12h24.39.637,lexical_decision_task_MP,2020.1.3,Win32,60,z,1,0.436,,,,,,,,0.436,1,,,,,,412,NW,"ID",50,jiluer,JILUER,z,,,,,,0.08203125,-0.352864583,0,0,0,,0,251,251,351,1,,
,,,,,,,,,,,,,,,,,,5f2dbe52314d560ef2ce0adb,2020-08-10_12h24.39.637,lexical_decision_task_MP,2020.1.3,Win32,60,m,1,0.539,,,,,,,,0.539,1,,,,,,54,WORD,UN,50,stroke,RAMBLE,m,,,,,,0.08203125,-0.352864583,0,0,0,,0,252,252,233,1,,
,,,,,,,,,,,,,,,,,,5f2dbe52314d560ef2ce0adb,2020-08-10_12h24.39.637,lexical_decision_task_MP,2020.1.3,Win32,60,m,0,0.521,,,,,,,,0.521,0,,,,,,255,NW,UN,50,inlors,APIGHT,z,,,,,,0.08203125,-0.352864583,0,0,0,,0,253,253,434,1,,
,,,,,,,,,,,,,,,,,,5f2dbe52314d560ef2ce0adb,2020-08-10_12h24.39.637,lexical_decision_task_MP,2020.1.3,Win32,60,m,0,0.555,,,,,,,,0.555,0,,,,,,391,NW,"ID",50,theldy,THELDY,z,,,,,,0.08203125,-0.352864583,0,0,0,,0,254,254,330,1,,
,,,,,,,,,,,,,,,,,,5f2dbe52314d560ef2ce0adb,2020-08-10_12h24.39.637,lexical_decision_task_MP,2020.1.3,Win32,60,m,1,0.536,,,,,,,,0.536,1,,,,,,138,WORD,"ID",50,melody,MELODY,m,,,,,,0.08203125,-0.352864583,0,0,0,,0,255,255,77,1,,
,,,,,,,,,,,,,,,,,,5f2dbe52314d560ef2ce0adb,2020-08-10_12h24.39.637,lexical_decision_task_MP,2020.1.3,Win32,60,m,1,0.636,,,,,,,,0.636,1,,,,,,39,WORD,UN,50,convey,INSECT,m,,,,,,0.08203125,-0.352864583,0,0,0,,0,256,256,218,1,,
,,,,,,,,,,,,,,,,,,5f2dbe52314d560ef2ce0adb,2020-08-10_12h24.39.637,lexical_decision_task_MP,2020.1.3,Win32,60,z,1,0.519,,,,,,,,0.519,1,,,,,,312,NW,"ID",33,nerawl,NERAWL,z,,,,,,0.08203125,-0.352864583,0,0,0,,0,257,257,251,1,,
,,,,,,,,,,,,,,,,,,5f2dbe52314d560ef2ce0adb,2020-08-10_12h24.39.637,lexical_decision_task_MP,2020.1.3,Win32,60,m,1,0.503,,,,,,,,0.503,1,,,,,,14,WORD,UN,50,orange,ALMOST,m,,,,,,0.08203125,-0.352864583,0,0,0,,0,258,258,193,1,,
,,,,,,,,,,,,,,,,,,5f2dbe52314d560ef2ce0adb,2020-08-10_12h24.39.637,lexical_decision_task_MP,2020.1.3,Win32,60,m,1,0.55,,,,,,,,0.55,1,,,,,,223,WORD,UN,33,period,KIDNEY,m,,,,,,0.08203125,-0.352864583,0,0,0,,0,259,259,162,1,,
,,,,,,,,,,,,,,,,,,5f2dbe52314d560ef2ce0adb,2020-08-10_12h24.39.637,lexical_decision_task_MP,2020.1.3,Win32,60,m,1,0.55,,,,,,,,0.55,1,,,,,,3,WORD,UN,50,trench,KNIGHT,m,,,,,,0.08203125,-0.352864583,0,0,0,,0,260,260,182,1,,
,,,,,,,,,,,,,,,,,,5f2dbe52314d560ef2ce0adb,2020-08-10_12h24.39.637,lexical_decision_task_MP,2020.1.3,Win32,60,z,1,0.479,,,,,,,,0.479,1,,,,,,378,NW,"ID",50,shrile,SHRILE,z,,,,,,0.08203125,-0.352864583,0,0,0,,0,261,261,317,1,,
,,,,,,,,,,,,,,,,,,5f2dbe52314d560ef2ce0adb,2020-08-10_12h24.39.637,lexical_decision_task_MP,2020.1.3,Win32,60,m,1,0.509,,,,,,,,0.509,1,,,,,,190,WORD,UN,33,stable,BACKUP,m,,,,,,0.08203125,-0.352864583,0,0,0,,0,262,262,129,1,,
,,,,,,,,,,,,,,,,,,5f2dbe52314d560ef2ce0adb,2020-08-10_12h24.39.637,lexical_decision_task_MP,2020.1.3,Win32,60,m,1,0.597,,,,,,,,0.597,1,,,,,,232,WORD,UN,33,nature,INJECT,m,,,,,,0.08203125,-0.352864583,0,0,0,,0,263,263,171,1,,
,,,,,,,,,,,,,,,,,,5f2dbe52314d560ef2ce0adb,2020-08-10_12h24.39.637,lexical_decision_task_MP,2020.1.3,Win32,60,z,1,0.68,,,,,,,,0.68,1,,,,,,414,NW,"ID",50,serbol,SERBOL,z,,,,,,0.08203125,-0.352864583,0,0,0,,0,264,264,353,1,,
,,,,,,,,,,,,,,,,,,5f2dbe52314d560ef2ce0adb,2020-08-10_12h24.39.637,lexical_decision_task_MP,2020.1.3,Win32,60,z,1,0.477,,,,,,,,0.477,1,,,,,,311,NW,"ID",33,sproly,SPROLY,z,,,,,,0.08203125,-0.352864583,0,0,0,,0,265,265,250,1,,
,,,,,,,,,,,,,,,,,,5f2dbe52314d560ef2ce0adb,2020-08-10_12h24.39.637,lexical_decision_task_MP,2020.1.3,Win32,60,z,1,0.639,,,,,,,,0.639,1,,,,,,424,NW,UN,33,frudge,PRAILE,z,,,,,,0.08203125,-0.352864583,0,0,0,,0,266,266,363,1,,
,,,,,,,,,,,,,,,,,,5f2dbe52314d560ef2ce0adb,2020-08-10_12h24.39.637,lexical_decision_task_MP,2020.1.3,Win32,60,m,0,0.468,,,,,,,,0.468,0,,,,,,343,NW,"ID",33,aimosy,AIMOSY,z,,,,,,0.08203125,-0.352864583,0,0,0,,0,267,267,282,1,,
,,,,,,,,,,,,,,,,,,5f2dbe52314d560ef2ce0adb,2020-08-10_12h24.39.637,lexical_decision_task_MP,2020.1.3,Win32,60,m,0,0.461,,,,,,,,0.461,0,,,,,,352,NW,"ID",33,tringe,TRINGE,z,,,,,,0.08203125,-0.352864583,0,0,0,,0,268,268,291,1,,
,,,,,,,,,,,,,,,,,,5f2dbe52314d560ef2ce0adb,2020-08-10_12h24.39.637,lexical_decision_task_MP,2020.1.3,Win32,60,m,1,0.436,,,,,,,,0.436,1,,,,,,26,WORD,UN,50,butler,SPRINT,m,,,,,,0.08203125,-0.352864583,0,0,0,,0,269,269,205,1,,
,,,,,,,,,,,,,,,,,,5f2dbe52314d560ef2ce0adb,2020-08-10_12h24.39.637,lexical_decision_task_MP,2020.1.3,Win32,60,m,1,1.032,,,,,,,,1.032,1,,,,,,10,WORD,UN,50,cruise,ETHNIC,m,,,,,,0.08203125,-0.352864583,0,0,0,,0,270,270,189,1,,
,,,,,,,,,,,,,,,,,,5f2dbe52314d560ef2ce0adb,2020-08-10_12h24.39.637,lexical_decision_task_MP,2020.1.3,Win32,60,z,1,1.072,,,,,,,,1.072,1,,,,,,452,NW,UN,33,bolvis,SURDEN,z,,,,,,0.08203125,-0.352864583,0,0,0,,0,271,271,391,1,,
,,,,,,,,,,,,,,,,,,5f2dbe52314d560ef2ce0adb,2020-08-10_12h24.39.637,lexical_decision_task_MP,2020.1.3,Win32,60,m,1,0.535,,,,,,,,0.535,1,,,,,,186,WORD,UN,33,course,PORTAL,m,,,,,,0.08203125,-0.352864583,0,0,0,,0,272,272,125,1,,
,,,,,,,,,,,,,,,,,,5f2dbe52314d560ef2ce0adb,2020-08-10_12h24.39.637,lexical_decision_task_MP,2020.1.3,Win32,60,z,0,0.608,,,,,,,,0.608,0,,,,,,114,WORD,"ID",33,placid,PLACID,m,,,,,,0.08203125,-0.352864583,0,0,0,,0,273,273,53,1,,
,,,,,,,,,,,,,,,,,,5f2dbe52314d560ef2ce0adb,2020-08-10_12h24.39.637,lexical_decision_task_MP,2020.1.3,Win32,60,z,1,0.71,,,,,,,,0.71,1,,,,,,443,NW,UN,33,jaunce,DORSEX,z,,,,,,0.08203125,-0.352864583,0,0,0,,0,274,274,382,1,,
,,,,,,,,,,,,,,,,,,5f2dbe52314d560ef2ce0adb,2020-08-10_12h24.39.637,lexical_decision_task_MP,2020.1.3,Win32,60,z,1,0.762,,,,,,,,0.762,1,,,,,,390,NW,"ID",50,hatrus,HATRUS,z,,,,,,0.08203125,-0.352864583,0,0,0,,0,275,275,329,1,,
,,,,,,,,,,,,,,,,,,5f2dbe52314d560ef2ce0adb,2020-08-10_12h24.39.637,lexical_decision_task_MP,2020.1.3,Win32,60,z,1,0.572,,,,,,,,0.572,1,,,,,,304,NW,"ID",33,cludie,CLUDIE,z,,,,,,0.08203125,-0.352864583,0,0,0,,0,276,276,243,1,,
,,,,,,,,,,,,,,,,,,5f2dbe52314d560ef2ce0adb,2020-08-10_12h24.39.637,lexical_decision_task_MP,2020.1.3,Win32,60,z,1,0.537,,,,,,,,0.537,1,,,,,,310,NW,"ID",33,daniet,DANIET,z,,,,,,0.08203125,-0.352864583,0,0,0,,0,277,277,249,1,,
,,,,,,,,,,,,,,,,,,5f2dbe52314d560ef2ce0adb,2020-08-10_12h24.39.637,lexical_decision_task_MP,2020.1.3,Win32,60,m,1,0.467,,,,,,,,0.467,1,,,,,,149,WORD,"ID",50,invade,INVADE,m,,,,,,0.08203125,-0.352864583,0,0,0,,0,278,278,88,1,,
,,,,,,,,,,,,,,,,,,5f2dbe52314d560ef2ce0adb,2020-08-10_12h24.39.637,lexical_decision_task_MP,2020.1.3,Win32,60,m,0,0.929,,,,,,,,0.929,0,,,,,,396,NW,"ID",50,flengy,FLENGY,z,,,,,,0.08203125,-0.352864583,0,0,0,,0,279,279,335,1,,
,,,,,,,,,,,,,,,,,,5f2dbe52314d560ef2ce0adb,2020-08-10_12h24.39.637,lexical_decision_task_MP,2020.1.3,Win32,60,z,1,0.587,,,,,,,,0.587,1,,,,,,326,NW,"ID",33,iguade,IGUADE,z,,,,,,0.08203125,-0.352864583,0,0,0,,0,280,280,265,1,,
,,,,,,,,,,,,,,,,,,5f2dbe52314d560ef2ce0adb,2020-08-10_12h24.39.637,lexical_decision_task_MP,2020.1.3,Win32,60,z,1,0.505,,,,,,,,0.505,1,,,,,,444,NW,UN,33,minkel,JAUNCE,z,,,,,,0.08203125,-0.352864583,0,0,0,,0,281,281,383,1,,
,,,,,,,,,,,,,,,,,,5f2dbe52314d560ef2ce0adb,2020-08-10_12h24.39.637,lexical_decision_task_MP,2020.1.3,Win32,60,z,1,0.442,,,,,,,,0.442,1,,,,,,355,NW,"ID",33,zingly,ZINGLY,z,,,,,,0.08203125,-0.352864583,0,0,0,,0,282,282,294,1,,
,,,,,,,,,,,,,,,,,,5f2dbe52314d560ef2ce0adb,2020-08-10_12h24.39.637,lexical_decision_task_MP,2020.1.3,Win32,60,m,1,0.421,,,,,,,,0.421,1,,,,,,158,WORD,"ID",50,island,ISLAND,m,,,,,,0.08203125,-0.352864583,0,0,0,,0,283,283,97,1,,
,,,,,,,,,,,,,,,,,,5f2dbe52314d560ef2ce0adb,2020-08-10_12h24.39.637,lexical_decision_task_MP,2020.1.3,Win32,60,m,1,0.569,,,,,,,,0.569,1,,,,,,74,WORD,"ID",33,plaque,PLAQUE,m,,,,,,0.08203125,-0.352864583,0,0,0,,0,284,284,13,1,,
,,,,,,,,,,,,,,,,,,5f2dbe52314d560ef2ce0adb,2020-08-10_12h24.39.637,lexical_decision_task_MP,2020.1.3,Win32,60,m,1,0.472,,,,,,,,0.472,1,,,,,,41,WORD,UN,50,chapel,SPRING,m,,,,,,0.08203125,-0.352864583,0,0,0,,0,285,285,220,1,,
,,,,,,,,,,,,,,,,,,5f2dbe52314d560ef2ce0adb,2020-08-10_12h24.39.637,lexical_decision_task_MP,2020.1.3,Win32,60,m,1,0.688,,,,,,,,0.688,1,,,,,,157,WORD,"ID",50,dragon,DRAGON,m,,,,,,0.08203125,-0.352864583,0,0,0,,0,286,286,96,1,,
,,,,,,,,,,,,,,,,,,5f2dbe52314d560ef2ce0adb,2020-08-10_12h24.39.637,lexical_decision_task_MP,2020.1.3,Win32,60,m,1,0.487,,,,,,,,0.487,1,,,,,,193,WORD,UN,33,mildew,OBJECT,m,,,,,,0.08203125,-0.352864583,0,0,0,,0,287,287,132,1,,
,,,,,,,,,,,,,,,,,,5f2dbe52314d560ef2ce0adb,2020-08-10_12h24.39.637,lexical_decision_task_MP,2020.1.3,Win32,60,m,1,0.45,,,,,,,,0.45,1,,,,,,128,WORD,"ID",50,senior,SENIOR,m,,,,,,0.08203125,-0.352864583,0,0,0,,0,288,288,67,1,,
,,,,,,,,,,,,,,,,,,5f2dbe52314d560ef2ce0adb,2020-08-10_12h24.39.637,lexical_decision_task_MP,2020.1.3,Win32,60,m,1,0.384,,,,,,,,0.384,1,,,,,,62,WORD,"ID",33,region,REGION,m,,,,,,0.08203125,-0.352864583,0,0,0,,0,289,289,1,1,,
,,,,,,,,,,,,,,,,,,5f2dbe52314d560ef2ce0adb,2020-08-10_12h24.39.637,lexical_decision_task_MP,2020.1.3,Win32,60,z,1,0.538,,,,,,,,0.538,1,,,,,,349,NW,"ID",33,asylen,ASYLEN,z,,,,,,0.08203125,-0.352864583,0,0,0,,0,290,290,288,1,,
,,,,,,,,,,,,,,,,,,5f2dbe52314d560ef2ce0adb,2020-08-10_12h24.39.637,lexical_decision_task_MP,2020.1.3,Win32,60,m,1,0.535,,,,,,,,0.535,1,,,,,,159,WORD,"ID",50,detail,DETAIL,m,,,,,,0.08203125,-0.352864583,0,0,0,,0,291,291,98,1,,
,,,,,,,,,,,,,,,,,,5f2dbe52314d560ef2ce0adb,2020-08-10_12h24.39.637,lexical_decision_task_MP,2020.1.3,Win32,60,m,1,0.405,,,,,,,,0.405,1,,,,,,126,WORD,"ID",50,enough,ENOUGH,m,,,,,,0.08203125,-0.352864583,0,0,0,,0,292,292,65,1,,
,,,,,,,,,,,,,,,,,,5f2dbe52314d560ef2ce0adb,2020-08-10_12h24.39.637,lexical_decision_task_MP,2020.1.3,Win32,60,m,1,0.53,,,,,,,,0.53,1,,,,,,239,WORD,UN,33,forest,LUMBER,m,,,,,,0.08203125,-0.352864583,0,0,0,,0,293,293,178,1,,
,,,,,,,,,,,,,,,,,,5f2dbe52314d560ef2ce0adb,2020-08-10_12h24.39.637,lexical_decision_task_MP,2020.1.3,Win32,60,m,1,0.459,,,,,,,,0.459,1,,,,,,11,WORD,UN,50,amount,CRUISE,m,,,,,,0.08203125,-0.352864583,0,0,0,,0,294,294,190,1,,
,,,,,,,,,,,,,,,,,,5f2dbe52314d560ef2ce0adb,2020-08-10_12h24.39.637,lexical_decision_task_MP,2020.1.3,Win32,60,m,0,0.483,,,,,,,,0.483,0,,,,,,472,NW,UN,33,gorbie,CIGNEY,z,,,,,,0.08203125,-0.352864583,0,0,0,,0,295,295,411,1,,
,,,,,,,,,,,,,,,,,,5f2dbe52314d560ef2ce0adb,2020-08-10_12h24.39.637,lexical_decision_task_MP,2020.1.3,Win32,60,m,1,0.594,,,,,,,,0.594,1,,,,,,30,WORD,UN,50,weapon,ORIENT,m,,,,,,0.08203125,-0.352864583,0,0,0,,0,296,296,209,1,,
,,,,,,,,,,,,,,,,,,5f2dbe52314d560ef2ce0adb,2020-08-10_12h24.39.637,lexical_decision_task_MP,2020.1.3,Win32,60,z,1,0.569,,,,,,,,0.569,1,,,,,,290,NW,UN,50,pretch,SPLINO,z,,,,,,0.08203125,-0.352864583,0,0,0,,0,297,297,469,1,,
,,,,,,,,,,,,,,,,,,5f2dbe52314d560ef2ce0adb,2020-08-10_12h24.39.637,lexical_decision_task_MP,2020.1.3,Win32,60,m,1,0.447,,,,,,,,0.447,1,,,,,,141,WORD,"ID",50,orphan,ORPHAN,m,,,,,,0.08203125,-0.352864583,0,0,0,,0,298,298,80,1,,
,,,,,,,,,,,,,,,,,,5f2dbe52314d560ef2ce0adb,2020-08-10_12h24.39.637,lexical_decision_task_MP,2020.1.3,Win32,60,m,1,0.509,,,,,,,,0.509,1,,,,,,116,WORD,"ID",33,tumble,TUMBLE,m,,,,,,0.08203125,-0.352864583,0,0,0,,0,299,299,55,1,,
,,,,,,,,,,,,,,,,,,5f2dbe52314d560ef2ce0adb,2020-08-10_12h24.39.637,lexical_decision_task_MP,2020.1.3,Win32,60,z,1,0.49,,,,,,,,0.49,1,,,,,,421,NW,UN,33,alcoud,KNISMA,z,,,,,,0.08203125,-0.352864583,0,0,0,,0,300,300,360,1,,
,,,,,,,,,,,,,,,,,,5f2dbe52314d560ef2ce0adb,2020-08-10_12h24.39.637,lexical_decision_task_MP,2020.1.3,Win32,60,m,1,0.493,,,,,,,,0.493,1,,,,,,96,WORD,"ID",33,ignore,IGNORE,m,,,,,,0.08203125,-0.352864583,0,0,0,,0,301,301,35,1,,
,,,,,,,,,,,,,,,,,,5f2dbe52314d560ef2ce0adb,2020-08-10_12h24.39.637,lexical_decision_task_MP,2020.1.3,Win32,60,m,1,0.528,,,,,,,,0.528,1,,,,,,28,WORD,UN,50,sketch,COMEDY,m,,,,,,0.08203125,-0.352864583,0,0,0,,0,302,302,207,1,,
,,,,,,,,,,,,,,,,,,5f2dbe52314d560ef2ce0adb,2020-08-10_12h24.39.637,lexical_decision_task_MP,2020.1.3,Win32,60,z,1,0.608,,,,,,,,0.608,1,,,,,,295,NW,UN,50,beinch,GLEATH,z,,,,,,0.08203125,-0.352864583,0,0,0,,0,303,303,474,1,,
,,,,,,,,,,,,,,,,,,5f2dbe52314d560ef2ce0adb,2020-08-10_12h24.39.637,lexical_decision_task_MP,2020.1.3,Win32,60,m,1,0.495,,,,,,,,0.495,1,,,,,,27,WORD,UN,50,comedy,SCREAM,m,,,,,,0.08203125,-0.352864583,0,0,0,,0,304,304,206,1,,
,,,,,,,,,,,,,,,,,,5f2dbe52314d560ef2ce0adb,2020-08-10_12h24.39.637,lexical_decision_task_MP,2020.1.3,Win32,60,m,1,0.581,,,,,,,,0.581,1,,,,,,217,WORD,UN,33,shrink,LIQUOR,m,,,,,,0.08203125,-0.352864583,0,0,0,,0,305,305,156,1,,
,,,,,,,,,,,,,,,,,,5f2dbe52314d560ef2ce0adb,2020-08-10_12h24.39.637,lexical_decision_task_MP,2020.1.3,Win32,60,z,1,0.571,,,,,,,,0.571,1,,,,,,375,NW,"ID",50,yorque,YORQUE,z,,,,,,0.08203125,-0.352864583,0,0,0,,0,306,306,314,1,,
,,,,,,,,,,,,,,,,,,5f2dbe52314d560ef2ce0adb,2020-08-10_12h24.39.637,lexical_decision_task_MP,2020.1.3,Win32,60,m,1,0.436,,,,,,,,0.436,1,,,,,,173,WORD,"ID",50,shower,SHOWER,m,,,,,,0.08203125,-0.352864583,0,0,0,,0,307,307,112,1,,
,,,,,,,,,,,,,,,,,,5f2dbe52314d560ef2ce0adb,2020-08-10_12h24.39.637,lexical_decision_task_MP,2020.1.3,Win32,60,z,1,0.535,,,,,,,,0.535,1,,,,,,410,NW,"ID",50,tunory,TUNORY,z,,,,,,0.08203125,-0.352864583,0,0,0,,0,308,308,349,1,,
,,,,,,,,,,,,,,,,,,5f2dbe52314d560ef2ce0adb,2020-08-10_12h24.39.637,lexical_decision_task_MP,2020.1.3,Win32,60,m,0,0.496,,,,,,,,0.496,0,,,,,,253,NW,UN,50,varosh,RESAIT,z,,,,,,0.08203125,-0.352864583,0,0,0,,0,309,309,432,1,,
,,,,,,,,,,,,,,,,,,5f2dbe52314d560ef2ce0adb,2020-08-10_12h24.39.637,lexical_decision_task_MP,2020.1.3,Win32,60,m,1,0.606,,,,,,,,0.606,1,,,,,,221,WORD,UN,33,hinder,MASCOT,m,,,,,,0.08203125,-0.352864583,0,0,0,,0,310,310,160,1,,
,,,,,,,,,,,,,,,,,,5f2dbe52314d560ef2ce0adb,2020-08-10_12h24.39.637,lexical_decision_task_MP,2020.1.3,Win32,60,z,1,0.467,,,,,,,,0.467,1,,,,,,333,NW,"ID",33,catrie,CATRIE,z,,,,,,0.08203125,-0.352864583,0,0,0,,0,311,311,272,1,,
,,,,,,,,,,,,,,,,,,5f2dbe52314d560ef2ce0adb,2020-08-10_12h24.39.637,lexical_decision_task_MP,2020.1.3,Win32,60,m,1,0.438,,,,,,,,0.438,1,,,,,,137,WORD,"ID",50,finger,FINGER,m,,,,,,0.08203125,-0.352864583,0,0,0,,0,312,312,76,1,,
,,,,,,,,,,,,,,,,,,5f2dbe52314d560ef2ce0adb,2020-08-10_12h24.39.637,lexical_decision_task_MP,2020.1.3,Win32,60,m,1,0.617,,,,,,,,0.617,1,,,,,,218,WORD,UN,33,bucket,SHRINK,m,,,,,,0.08203125,-0.352864583,0,0,0,,0,313,313,157,1,,
,,,,,,,,,,,,,,,,,,5f2dbe52314d560ef2ce0adb,2020-08-10_12h24.39.637,lexical_decision_task_MP,2020.1.3,Win32,60,z,0,0.489,,,,,,,,0.489,0,,,,,,219,WORD,UN,33,voyage,BUCKET,m,,,,,,0.08203125,-0.352864583,0,0,0,,0,314,314,158,1,,
,,,,,,,,,,,,,,,,,,5f2dbe52314d560ef2ce0adb,2020-08-10_12h24.39.637,lexical_decision_task_MP,2020.1.3,Win32,60,m,1,0.676,,,,,,,,0.676,1,,,,,,153,WORD,"ID",50,behold,BEHOLD,m,,,,,,0.08203125,-0.352864583,0,0,0,,0,315,315,92,1,,
,,,,,,,,,,,,,,,,,,5f2dbe52314d560ef2ce0adb,2020-08-10_12h24.39.637,lexical_decision_task_MP,2020.1.3,Win32,60,z,1,0.655,,,,,,,,0.655,1,,,,,,466,NW,UN,33,robuly,HOCITE,z,,,,,,0.08203125,-0.352864583,0,0,0,,0,316,316,405,1,,
,,,,,,,,,,,,,,,,,,5f2dbe52314d560ef2ce0adb,2020-08-10_12h24.39.637,lexical_decision_task_MP,2020.1.3,Win32,60,z,1,0.511,,,,,,,,0.511,1,,,,,,275,NW,UN,50,yarmon,SLEIRT,z,,,,,,0.08203125,-0.352864583,0,0,0,,0,317,317,454,1,,
,,,,,,,,,,,,,,,,,,5f2dbe52314d560ef2ce0adb,2020-08-10_12h24.39.637,lexical_decision_task_MP,2020.1.3,Win32,60,z,1,0.484,,,,,,,,0.484,1,,,,,,323,NW,"ID",33,rosail,ROSAIL,z,,,,,,0.08203125,-0.352864583,0,0,0,,0,318,318,262,1,,
,,,,,,,,,,,,,,,,,,5f2dbe52314d560ef2ce0adb,2020-08-10_12h24.39.637,lexical_decision_task_MP,2020.1.3,Win32,60,m,1,0.453,,,,,,,,0.453,1,,,,,,146,WORD,"ID",50,couple,COUPLE,m,,,,,,0.08203125,-0.352864583,0,0,0,,0,319,319,85,1,,
,,,,,,,,,,,,,,,,,,5f2dbe52314d560ef2ce0adb,2020-08-10_12h24.39.637,lexical_decision_task_MP,2020.1.3,Win32,60,z,1,0.443,,,,,,,,0.443,1,,,,,,388,NW,"ID",50,cragin,CRAGIN,z,,,,,,0.08203125,-0.352864583,0,0,0,,0,320,320,327,1,,
,,,,,,,,,,,,,,,,,,5f2dbe52314d560ef2ce0adb,2020-08-10_12h24.39.637,lexical_decision_task_MP,2020.1.3,Win32,60,m,1,0.398,,,,,,,,0.398,1,,,,,,67,WORD,"ID",33,policy,POLICY,m,,,,,,0.08203125,-0.352864583,0,0,0,,0,321,321,6,1,,
,,,,,,,,,,,,,,,,,,5f2dbe52314d560ef2ce0adb,2020-08-10_12h24.39.637,lexical_decision_task_MP,2020.1.3,Win32,60,m,1,0.568,,,,,,,,0.568,1,,,,,,1,WORD,UN,50,ethnic,FRIGHT,m,,,,,,0.08203125,-0.352864583,0,0,0,,0,322,322,180,1,,
,,,,,,,,,,,,,,,,,,5f2dbe52314d560ef2ce0adb,2020-08-10_12h24.39.637,lexical_decision_task_MP,2020.1.3,Win32,60,z,1,0.479,,,,,,,,0.479,1,,,,,,334,NW,"ID",33,watmeg,WATMEG,z,,,,,,0.08203125,-0.352864583,0,0,0,,0,323,323,273,1,,
,,,,,,,,,,,,,,,,,,5f2dbe52314d560ef2ce0adb,2020-08-10_12h24.39.637,lexical_decision_task_MP,2020.1.3,Win32,60,z,1,0.529,,,,,,,,0.529,1,,,,,,315,NW,"ID",33,laston,LASTON,z,,,,,,0.08203125,-0.352864583,0,0,0,,0,324,324,254,1,,
,,,,,,,,,,,,,,,,,,5f2dbe52314d560ef2ce0adb,2020-08-10_12h24.39.637,lexical_decision_task_MP,2020.1.3,Win32,60,z,1,0.503,,,,,,,,0.503,1,,,,,,470,NW,UN,33,nobest,CRUDIO,z,,,,,,0.08203125,-0.352864583,0,0,0,,0,325,325,409,1,,
,,,,,,,,,,,,,,,,,,5f2dbe52314d560ef2ce0adb,2020-08-10_12h24.39.637,lexical_decision_task_MP,2020.1.3,Win32,60,z,1,0.409,,,,,,,,0.409,1,,,,,,419,NW,"ID",50,slount,SLOUNT,z,,,,,,0.08203125,-0.352864583,0,0,0,,0,326,326,358,1,,
,,,,,,,,,,,,,,,,,,5f2dbe52314d560ef2ce0adb,2020-08-10_12h24.39.637,lexical_decision_task_MP,2020.1.3,Win32,60,z,1,0.444,,,,,,,,0.444,1,,,,,,332,NW,"ID",33,vangue,VANGUE,z,,,,,,0.08203125,-0.352864583,0,0,0,,0,327,327,271,1,,
,,,,,,,,,,,,,,,,,,5f2dbe52314d560ef2ce0adb,2020-08-10_12h24.39.637,lexical_decision_task_MP,2020.1.3,Win32,60,z,1,0.485,,,,,,,,0.485,1,,,,,,448,NW,UN,33,brunge,SADENT,z,,,,,,0.08203125,-0.352864583,0,0,0,,0,328,328,387,1,,
,,,,,,,,,,,,,,,,,,5f2dbe52314d560ef2ce0adb,2020-08-10_12h24.39.637,lexical_decision_task_MP,2020.1.3,Win32,60,z,1,0.427,,,,,,,,0.427,1,,,,,,406,NW,"ID",50,nouply,NOUPLY,z,,,,,,0.08203125,-0.352864583,0,0,0,,0,329,329,345,1,,
,,,,,,,,,,,,,,,,,,5f2dbe52314d560ef2ce0adb,2020-08-10_12h24.39.637,lexical_decision_task_MP,2020.1.3,Win32,60,m,1,0.524,,,,,,,,0.524,1,,,,,,198,WORD,UN,33,invoke,WICKED,m,,,,,,0.08203125,-0.352864583,0,0,0,,0,330,330,137,1,,
,,,,,,,,,,,,,,,,,,5f2dbe52314d560ef2ce0adb,2020-08-10_12h24.39.637,lexical_decision_task_MP,2020.1.3,Win32,60,m,0,0.484,,,,,,,,0.484,0,,,,,,473,NW,UN,33,hablin,CRIBLE,z,,,,,,0.08203125,-0.352864583,0,0,0,,0,331,331,412,1,,
,,,,,,,,,,,,,,,,,,5f2dbe52314d560ef2ce0adb,2020-08-10_12h24.39.637,lexical_decision_task_MP,2020.1.3,Win32,60,z,1,0.532,,,,,,,,0.532,1,,,,,,430,NW,UN,33,chrums,CAROEY,z,,,,,,0.08203125,-0.352864583,0,0,0,,0,332,332,369,1,,
,,,,,,,,,,,,,,,,,,5f2dbe52314d560ef2ce0adb,2020-08-10_12h24.39.637,lexical_decision_task_MP,2020.1.3,Win32,60,m,1,0.535,,,,,,,,0.535,1,,,,,,60,WORD,UN,50,fright,PENCIL,m,,,,,,0.08203125,-0.352864583,0,0,0,,0,333,333,239,1,,
,,,,,,,,,,,,,,,,,,5f2dbe52314d560ef2ce0adb,2020-08-10_12h24.39.637,lexical_decision_task_MP,2020.1.3,Win32,60,m,1,0.523,,,,,,,,0.523,1,,,,,,151,WORD,"ID",50,mystic,MYSTIC,m,,,,,,0.08203125,-0.352864583,0,0,0,,0,334,334,90,1,,
,,,,,,,,,,,,,,,,,,5f2dbe52314d560ef2ce0adb,2020-08-10_12h24.39.637,lexical_decision_task_MP,2020.1.3,Win32,60,m,1,0.524,,,,,,,,0.524,1,,,,,,119,WORD,"ID",33,spider,SPIDER,m,,,,,,0.08203125,-0.352864583,0,0,0,,0,335,335,58,1,,
,,,,,,,,,,,,,,,,,,5f2dbe52314d560ef2ce0adb,2020-08-10_12h24.39.637,lexical_decision_task_MP,2020.1.3,Win32,60,z,1,0.654,,,,,,,,0.654,1,,,,,,468,NW,UN,33,padifs,WICTOR,z,,,,,,0.08203125,-0.352864583,0,0,0,,0,336,336,407,1,,
,,,,,,,,,,,,,,,,,,5f2dbe52314d560ef2ce0adb,2020-08-10_12h24.39.637,lexical_decision_task_MP,2020.1.3,Win32,60,m,1,0.453,,,,,,,,0.453,1,,,,,,122,WORD,"ID",50,linger,LINGER,m,,,,,,0.08203125,-0.352864583,0,0,0,,0,337,337,61,1,,
,,,,,,,,,,,,,,,,,,5f2dbe52314d560ef2ce0adb,2020-08-10_12h24.39.637,lexical_decision_task_MP,2020.1.3,Win32,60,z,1,0.561,,,,,,,,0.561,1,,,,,,366,NW,"ID",50,toshel,TOSHEL,z,,,,,,0.08203125,-0.352864583,0,0,0,,0,338,338,305,1,,
,,,,,,,,,,,,,,,,,,5f2dbe52314d560ef2ce0adb,2020-08-10_12h24.39.637,lexical_decision_task_MP,2020.1.3,Win32,60,m,1,0.429,,,,,,,,0.429,1,,,,,,51,WORD,UN,50,impose,HUNGRY,m,,,,,,0.08203125,-0.352864583,0,0,0,,0,339,339,230,1,,
,,,,,,,,,,,,,,,,,,5f2dbe52314d560ef2ce0adb,2020-08-10_12h24.39.637,lexical_decision_task_MP,2020.1.3,Win32,60,m,0,0.5,,,,,,,,0.5,0,,,,,,342,NW,"ID",33,randow,RANDOW,z,,,,,,0.08203125,-0.352864583,0,0,0,,0,340,340,281,1,,
,,,,,,,,,,,,,,,,,,5f2dbe52314d560ef2ce0adb,2020-08-10_12h24.39.637,lexical_decision_task_MP,2020.1.3,Win32,60,z,1,0.667,,,,,,,,0.667,1,,,,,,257,NW,UN,50,poluth,VENIOD,z,,,,,,0.08203125,-0.352864583,0,0,0,,0,341,341,436,1,,
,,,,,,,,,,,,,,,,,,5f2dbe52314d560ef2ce0adb,2020-08-10_12h24.39.637,lexical_decision_task_MP,2020.1.3,Win32,60,m,0,0.647,,,,,,,,0.647,0,,,,,,402,NW,"ID",50,syntic,SYNTIC,z,,,,,,0.08203125,-0.352864583,0,0,0,,0,342,342,341,1,,
,,,,,,,,,,,,,,,,,,5f2dbe52314d560ef2ce0adb,2020-08-10_12h24.39.637,lexical_decision_task_MP,2020.1.3,Win32,60,z,1,0.84,,,,,,,,0.84,1,,,,,,436,NW,UN,33,snapel,FRUTAN,z,,,,,,0.08203125,-0.352864583,0,0,0,,0,343,343,375,1,,
,,,,,,,,,,,,,,,,,,5f2dbe52314d560ef2ce0adb,2020-08-10_12h24.39.637,lexical_decision_task_MP,2020.1.3,Win32,60,m,1,0.481,,,,,,,,0.481,1,,,,,,69,WORD,"ID",33,plenty,PLENTY,m,,,,,,0.08203125,-0.352864583,0,0,0,,0,344,344,8,1,,
,,,,,,,,,,,,,,,,,,5f2dbe52314d560ef2ce0adb,2020-08-10_12h24.39.637,lexical_decision_task_MP,2020.1.3,Win32,60,z,0,0.454,,,,,,,,0.454,0,,,,,,214,WORD,UN,33,phobia,INTAKE,m,,,,,,0.08203125,-0.352864583,0,0,0,,0,345,345,153,1,,
,,,,,,,,,,,,,,,,,,5f2dbe52314d560ef2ce0adb,2020-08-10_12h24.39.637,lexical_decision_task_MP,2020.1.3,Win32,60,z,1,0.572,,,,,,,,0.572,1,,,,,,362,NW,"ID",50,tireau,TIREAU,z,,,,,,0.08203125,-0.352864583,0,0,0,,0,346,346,301,1,,
,,,,,,,,,,,,,,,,,,5f2dbe52314d560ef2ce0adb,2020-08-10_12h24.39.637,lexical_decision_task_MP,2020.1.3,Win32,60,z,1,0.609,,,,,,,,0.609,1,,,,,,458,NW,UN,33,hocite,BARCET,z,,,,,,0.08203125,-0.352864583,0,0,0,,0,347,347,397,1,,
,,,,,,,,,,,,,,,,,,5f2dbe52314d560ef2ce0adb,2020-08-10_12h24.39.637,lexical_decision_task_MP,2020.1.3,Win32,60,z,1,0.518,,,,,,,,0.518,1,,,,,,358,NW,"ID",33,fleack,FLEACK,z,,,,,,0.08203125,-0.352864583,0,0,0,,0,348,348,297,1,,
,,,,,,,,,,,,,,,,,,5f2dbe52314d560ef2ce0adb,2020-08-10_12h24.39.637,lexical_decision_task_MP,2020.1.3,Win32,60,z,1,0.45,,,,,,,,0.45,1,,,,,,288,NW,UN,50,starby,YACEUP,z,,,,,,0.08203125,-0.352864583,0,0,0,,0,349,349,467,1,,
,,,,,,,,,,,,,,,,,,5f2dbe52314d560ef2ce0adb,2020-08-10_12h24.39.637,lexical_decision_task_MP,2020.1.3,Win32,60,z,0,0.392,,,,,,,,0.392,0,,,,,,102,WORD,"ID",33,direct,DIRECT,m,,,,,,0.08203125,-0.352864583,0,0,0,,0,350,350,41,1,,
,,,,,,,,,,,,,,,,,,5f2dbe52314d560ef2ce0adb,2020-08-10_12h24.39.637,lexical_decision_task_MP,2020.1.3,Win32,60,z,1,0.48,,,,,,,,0.48,1,,,,,,328,NW,"ID",33,broake,BROAKE,z,,,,,,0.08203125,-0.352864583,0,0,0,,0,351,351,267,1,,
,,,,,,,,,,,,,,,,,,5f2dbe52314d560ef2ce0adb,2020-08-10_12h24.39.637,lexical_decision_task_MP,2020.1.3,Win32,60,z,1,0.446,,,,,,,,0.446,1,,,,,,337,NW,"ID",33,rejols,REJOLS,z,,,,,,0.08203125,-0.352864583,0,0,0,,0,352,352,276,1,,
,,,,,,,,,,,,,,,,,,5f2dbe52314d560ef2ce0adb,2020-08-10_12h24.39.637,lexical_decision_task_MP,2020.1.3,Win32,60,m,1,0.726,,,,,,,,0.726,1,,,,,,106,WORD,"ID",33,ransom,RANSOM,m,,,,,,0.08203125,-0.352864583,0,0,0,,0,353,353,45,1,,
,,,,,,,,,,,,,,,,,,5f2dbe52314d560ef2ce0adb,2020-08-10_12h24.39.637,lexical_decision_task_MP,2020.1.3,Win32,60,z,0,0.422,,,,,,,,0.422,0,,,,,,194,WORD,UN,33,resign,ABSENT,m,,,,,,0.08203125,-0.352864583,0,0,0,,0,354,354,133,1,,
,,,,,,,,,,,,,,,,,,5f2dbe52314d560ef2ce0adb,2020-08-10_12h24.39.637,lexical_decision_task_MP,2020.1.3,Win32,60,z,1,0.528,,,,,,,,0.528,1,,,,,,385,NW,"ID",50,veigma,VEIGMA,z,,,,,,0.08203125,-0.352864583,0,0,0,,0,355,355,324,1,,
,,,,,,,,,,,,,,,,,,5f2dbe52314d560ef2ce0adb,2020-08-10_12h24.39.637,lexical_decision_task_MP,2020.1.3,Win32,60,z,1,0.601,,,,,,,,0.601,1,,,,,,476,NW,UN,33,photie,JOSTED,z,,,,,,0.08203125,-0.352864583,0,0,0,,0,356,356,415,1,,
,,,,,,,,,,,,,,,,,,5f2dbe52314d560ef2ce0adb,2020-08-10_12h24.39.637,lexical_decision_task_MP,2020.1.3,Win32,60,z,1,0.387,,,,,,,,0.387,1,,,,,,260,NW,UN,50,stunch,UNJECT,z,,,,,,0.08203125,-0.352864583,0,0,0,,0,357,357,439,1,,
,,,,,,,,,,,,,,,,,,5f2dbe52314d560ef2ce0adb,2020-08-10_12h24.39.637,lexical_decision_task_MP,2020.1.3,Win32,60,m,1,0.48,,,,,,,,0.48,1,,,,,,236,WORD,UN,33,grumpy,PIRATE,m,,,,,,0.08203125,-0.352864583,0,0,0,,0,358,358,175,1,,
,,,,,,,,,,,,,,,,,,5f2dbe52314d560ef2ce0adb,2020-08-10_12h24.39.637,lexical_decision_task_MP,2020.1.3,Win32,60,m,1,0.478,,,,,,,,0.478,1,,,,,,5,WORD,UN,50,bundle,PLUNGE,m,,,,,,0.08203125,-0.352864583,0,0,0,,0,359,359,184,1,,
,,,,,,,,,,,,,,,,,,5f2dbe52314d560ef2ce0adb,2020-08-10_12h24.39.637,lexical_decision_task_MP,2020.1.3,Win32,60,m,1,0.515,,,,,,,,0.515,1,,,,,,37,WORD,UN,50,powder,INSULT,m,,,,,,0.08203125,-0.352864583,0,0,0,,0,360,360,216,1,,
,,,,,,,,,,,,,,,,,,5f2dbe52314d560ef2ce0adb,2020-08-10_12h24.39.637,lexical_decision_task_MP,2020.1.3,Win32,60,m,1,0.688,,,,,,,,0.688,1,,,,,,13,WORD,UN,50,almost,STRIVE,m,,,,,,0.08203125,-0.352864583,0,0,0,,0,361,361,192,1,,
,,,,,,,,,,,,,,,,,,5f2dbe52314d560ef2ce0adb,2020-08-10_12h24.39.637,lexical_decision_task_MP,2020.1.3,Win32,60,z,1,0.616,,,,,,,,0.616,1,,,,,,265,NW,UN,50,varmit,DISTAR,z,,,,,,0.079427083,-0.346354167,0,0,0,space,0,362,362,444,1,1.377,
,,,,,,,,,,,,,,,,,,5f2dbe52314d560ef2ce0adb,2020-08-10_12h24.39.637,lexical_decision_task_MP,2020.1.3,Win32,60,z,1,0.669,,,,,,,,0.669,1,,,,,,280,NW,UN,50,melaty,CURBOL,z,,,,,,0.079427083,-0.346354167,0,0,0,,0,363,363,459,1,,
,,,,,,,,,,,,,,,,,,5f2dbe52314d560ef2ce0adb,2020-08-10_12h24.39.637,lexical_decision_task_MP,2020.1.3,Win32,60,m,1,0.458,,,,,,,,0.458,1,,,,,,112,WORD,"ID",33,breath,BREATH,m,,,,,,0.079427083,-0.346354167,0,0,0,,0,364,364,51,1,,
,,,,,,,,,,,,,,,,,,5f2dbe52314d560ef2ce0adb,2020-08-10_12h24.39.637,lexical_decision_task_MP,2020.1.3,Win32,60,m,1,0.486,,,,,,,,0.486,1,,,,,,19,WORD,UN,50,breast,PATRON,m,,,,,,0.079427083,-0.346354167,0,0,0,,0,365,365,198,1,,
,,,,,,,,,,,,,,,,,,5f2dbe52314d560ef2ce0adb,2020-08-10_12h24.39.637,lexical_decision_task_MP,2020.1.3,Win32,60,z,1,0.661,,,,,,,,0.661,1,,,,,,441,NW,UN,33,aboune,RASTOE,z,,,,,,0.079427083,-0.346354167,0,0,0,,0,366,366,380,1,,
,,,,,,,,,,,,,,,,,,5f2dbe52314d560ef2ce0adb,2020-08-10_12h24.39.637,lexical_decision_task_MP,2020.1.3,Win32,60,z,1,0.615,,,,,,,,0.615,1,,,,,,335,NW,"ID",33,desion,DESION,z,,,,,,0.079427083,-0.346354167,0,0,0,,0,367,367,274,1,,
,,,,,,,,,,,,,,,,,,5f2dbe52314d560ef2ce0adb,2020-08-10_12h24.39.637,lexical_decision_task_MP,2020.1.3,Win32,60,z,1,0.581,,,,,,,,0.581,1,,,,,,409,NW,"ID",50,elopia,ELOPIA,z,,,,,,0.079427083,-0.346354167,0,0,0,,0,368,368,348,1,,
,,,,,,,,,,,,,,,,,,5f2dbe52314d560ef2ce0adb,2020-08-10_12h24.39.637,lexical_decision_task_MP,2020.1.3,Win32,60,m,1,0.466,,,,,,,,0.466,1,,,,,,216,WORD,UN,33,liquor,BEHALF,m,,,,,,0.079427083,-0.346354167,0,0,0,,0,369,369,155,1,,
,,,,,,,,,,,,,,,,,,5f2dbe52314d560ef2ce0adb,2020-08-10_12h24.39.637,lexical_decision_task_MP,2020.1.3,Win32,60,m,1,0.454,,,,,,,,0.454,1,,,,,,94,WORD,"ID",33,travel,TRAVEL,m,,,,,,0.079427083,-0.346354167,0,0,0,,0,370,370,33,1,,
,,,,,,,,,,,,,,,,,,5f2dbe52314d560ef2ce0adb,2020-08-10_12h24.39.637,lexical_decision_task_MP,2020.1.3,Win32,60,z,0,0.469,,,,,,,,0.469,0,,,,,,139,WORD,"ID",50,debris,DEBRIS,m,,,,,,0.079427083,-0.346354167,0,0,0,,0,371,371,78,1,,
,,,,,,,,,,,,,,,,,,5f2dbe52314d560ef2ce0adb,2020-08-10_12h24.39.637,lexical_decision_task_MP,2020.1.3,Win32,60,m,1,0.6,,,,,,,,0.6,1,,,,,,35,WORD,UN,50,vanish,SOCKET,m,,,,,,0.079427083,-0.346354167,0,0,0,,0,372,372,214,1,,
,,,,,,,,,,,,,,,,,,5f2dbe52314d560ef2ce0adb,2020-08-10_12h24.39.637,lexical_decision_task_MP,2020.1.3,Win32,60,m,0,0.474,,,,,,,,0.474,0,,,,,,248,NW,UN,50,batrol,STROLE,z,,,,,,0.079427083,-0.346354167,0,0,0,,0,373,373,427,1,,
,,,,,,,,,,,,,,,,,,5f2dbe52314d560ef2ce0adb,2020-08-10_12h24.39.637,lexical_decision_task_MP,2020.1.3,Win32,60,z,1,0.808,,,,,,,,0.808,1,,,,,,372,NW,"ID",50,ramily,RAMILY,z,,,,,,0.079427083,-0.346354167,0,0,0,,0,374,374,311,1,,
,,,,,,,,,,,,,,,,,,5f2dbe52314d560ef2ce0adb,2020-08-10_12h24.39.637,lexical_decision_task_MP,2020.1.3,Win32,60,m,1,0.471,,,,,,,,0.471,1,,,,,,83,WORD,"ID",33,result,RESULT,m,,,,,,0.079427083,-0.346354167,0,0,0,,0,375,375,22,1,,
,,,,,,,,,,,,,,,,,,5f2dbe52314d560ef2ce0adb,2020-08-10_12h24.39.637,lexical_decision_task_MP,2020.1.3,Win32,60,m,1,0.454,,,,,,,,0.454,1,,,,,,187,WORD,UN,33,social,COURSE,m,,,,,,0.079427083,-0.346354167,0,0,0,,0,376,376,126,1,,
,,,,,,,,,,,,,,,,,,5f2dbe52314d560ef2ce0adb,2020-08-10_12h24.39.637,lexical_decision_task_MP,2020.1.3,Win32,60,m,1,0.475,,,,,,,,0.475,1,,,,,,49,WORD,UN,50,snatch,SURVEY,m,,,,,,0.079427083,-0.346354167,0,0,0,,0,377,377,228,1,,
,,,,,,,,,,,,,,,,,,5f2dbe52314d560ef2ce0adb,2020-08-10_12h24.39.637,lexical_decision_task_MP,2020.1.3,Win32,60,z,1,0.546,,,,,,,,0.546,1,,,,,,281,NW,UN,50,porlex,MELATY,z,,,,,,0.079427083,-0.346354167,0,0,0,,0,378,378,460,1,,
,,,,,,,,,,,,,,,,,,5f2dbe52314d560ef2ce0adb,2020-08-10_12h24.39.637,lexical_decision_task_MP,2020.1.3,Win32,60,m,0,0.582,,,,,,,,0.582,0,,,,,,285,NW,UN,50,reldon,PRUDGE,z,,,,,,0.079427083,-0.346354167,0,0,0,,0,379,379,464,1,,
,,,,,,,,,,,,,,,,,,5f2dbe52314d560ef2ce0adb,2020-08-10_12h24.39.637,lexical_decision_task_MP,2020.1.3,Win32,60,z,1,0.802,,,,,,,,0.802,1,,,,,,307,NW,"ID",33,kirafe,KIRAFE,z,,,,,,0.079427083,-0.346354167,0,0,0,,0,380,380,246,1,,
,,,,,,,,,,,,,,,,,,5f2dbe52314d560ef2ce0adb,2020-08-10_12h24.39.637,lexical_decision_task_MP,2020.1.3,Win32,60,m,1,0.487,,,,,,,,0.487,1,,,,,,38,WORD,UN,50,insect,POWDER,m,,,,,,0.079427083,-0.346354167,0,0,0,,0,381,381,217,1,,
,,,,,,,,,,,,,,,,,,5f2dbe52314d560ef2ce0adb,2020-08-10_12h24.39.637,lexical_decision_task_MP,2020.1.3,Win32,60,m,1,0.439,,,,,,,,0.439,1,,,,,,77,WORD,"ID",33,racket,RACKET,m,,,,,,0.079427083,-0.346354167,0,0,0,,0,382,382,16,1,,
,,,,,,,,,,,,,,,,,,5f2dbe52314d560ef2ce0adb,2020-08-10_12h24.39.637,lexical_decision_task_MP,2020.1.3,Win32,60,z,1,0.796,,,,,,,,0.796,1,,,,,,404,NW,"ID",50,cluirm,CLUIRM,z,,,,,,0.079427083,-0.346354167,0,0,0,,0,383,383,343,1,,
,,,,,,,,,,,,,,,,,,5f2dbe52314d560ef2ce0adb,2020-08-10_12h24.39.637,lexical_decision_task_MP,2020.1.3,Win32,60,z,1,0.707,,,,,,,,0.707,1,,,,,,287,NW,UN,50,yaceup,NYMBEL,z,,,,,,0.079427083,-0.346354167,0,0,0,,0,384,384,466,1,,
,,,,,,,,,,,,,,,,,,5f2dbe52314d560ef2ce0adb,2020-08-10_12h24.39.637,lexical_decision_task_MP,2020.1.3,Win32,60,m,0,0.624,,,,,,,,0.624,0,,,,,,316,NW,"ID",33,scregm,SCREGM,z,,,,,,0.079427083,-0.346354167,0,0,0,,0,385,385,255,1,,
,,,,,,,,,,,,,,,,,,5f2dbe52314d560ef2ce0adb,2020-08-10_12h24.39.637,lexical_decision_task_MP,2020.1.3,Win32,60,z,1,0.606,,,,,,,,0.606,1,,,,,,276,NW,UN,50,petain,YARMON,z,,,,,,0.079427083,-0.346354167,0,0,0,,0,386,386,455,1,,
,,,,,,,,,,,,,,,,,,5f2dbe52314d560ef2ce0adb,2020-08-10_12h24.39.637,lexical_decision_task_MP,2020.1.3,Win32,60,z,1,0.558,,,,,,,,0.558,1,,,,,,379,NW,"ID",50,auting,AUTING,z,,,,,,0.079427083,-0.346354167,0,0,0,,0,387,387,318,1,,
,,,,,,,,,,,,,,,,,,5f2dbe52314d560ef2ce0adb,2020-08-10_12h24.39.637,lexical_decision_task_MP,2020.1.3,Win32,60,m,1,0.444,,,,,,,,0.444,1,,,,,,36,WORD,UN,50,insult,VANISH,m,,,,,,0.079427083,-0.346354167,0,0,0,,0,388,388,215,1,,
,,,,,,,,,,,,,,,,,,5f2dbe52314d560ef2ce0adb,2020-08-10_12h24.39.637,lexical_decision_task_MP,2020.1.3,Win32,60,z,1,0.56,,,,,,,,0.56,1,,,,,,297,NW,UN,50,piergy,FERTIC,z,,,,,,0.079427083,-0.346354167,0,0,0,,0,389,389,476,1,,
,,,,,,,,,,,,,,,,,,5f2dbe52314d560ef2ce0adb,2020-08-10_12h24.39.637,lexical_decision_task_MP,2020.1.3,Win32,60,m,1,0.363,,,,,,,,0.363,1,,,,,,227,WORD,UN,33,master,SELDOM,m,,,,,,0.079427083,-0.346354167,0,0,0,,0,390,390,166,1,,
,,,,,,,,,,,,,,,,,,5f2dbe52314d560ef2ce0adb,2020-08-10_12h24.39.637,lexical_decision_task_MP,2020.1.3,Win32,60,m,1,0.595,,,,,,,,0.595,1,,,,,,98,WORD,"ID",33,belong,BELONG,m,,,,,,0.079427083,-0.346354167,0,0,0,,0,391,391,37,1,,
,,,,,,,,,,,,,,,,,,5f2dbe52314d560ef2ce0adb,2020-08-10_12h24.39.637,lexical_decision_task_MP,2020.1.3,Win32,60,z,1,0.699,,,,,,,,0.699,1,,,,,,298,NW,UN,50,sturch,PIERGY,z,,,,,,0.079427083,-0.346354167,0,0,0,,0,392,392,477,1,,
,,,,,,,,,,,,,,,,,,5f2dbe52314d560ef2ce0adb,2020-08-10_12h24.39.637,lexical_decision_task_MP,2020.1.3,Win32,60,z,0,0.563,,,,,,,,0.563,0,,,,,,192,WORD,UN,33,object,PLAGUE,m,,,,,,0.079427083,-0.346354167,0,0,0,,0,393,393,131,1,,
,,,,,,,,,,,,,,,,,,5f2dbe52314d560ef2ce0adb,2020-08-10_12h24.39.637,lexical_decision_task_MP,2020.1.3,Win32,60,z,1,0.606,,,,,,,,0.606,1,,,,,,418,NW,"ID",50,suidle,SUIDLE,z,,,,,,0.079427083,-0.346354167,0,0,0,,0,394,394,357,1,,
,,,,,,,,,,,,,,,,,,5f2dbe52314d560ef2ce0adb,2020-08-10_12h24.39.637,lexical_decision_task_MP,2020.1.3,Win32,60,z,1,1.052,,,,,,,,1.052,1,,,,,,286,NW,UN,50,nymbel,RELDON,z,,,,,,0.079427083,-0.346354167,0,0,0,,0,395,395,465,1,,
,,,,,,,,,,,,,,,,,,5f2dbe52314d560ef2ce0adb,2020-08-10_12h24.39.637,lexical_decision_task_MP,2020.1.3,Win32,60,m,1,0.439,,,,,,,,0.439,1,,,,,,21,WORD,UN,50,jockey,SIMPLE,m,,,,,,0.079427083,-0.346354167,0,0,0,,0,396,396,200,1,,
,,,,,,,,,,,,,,,,,,5f2dbe52314d560ef2ce0adb,2020-08-10_12h24.39.637,lexical_decision_task_MP,2020.1.3,Win32,60,m,1,0.508,,,,,,,,0.508,1,,,,,,87,WORD,"ID",33,filter,FILTER,m,,,,,,0.079427083,-0.346354167,0,0,0,,0,397,397,26,1,,
,,,,,,,,,,,,,,,,,,5f2dbe52314d560ef2ce0adb,2020-08-10_12h24.39.637,lexical_decision_task_MP,2020.1.3,Win32,60,m,1,0.484,,,,,,,,0.484,1,,,,,,107,WORD,"ID",33,slogan,SLOGAN,m,,,,,,0.079427083,-0.346354167,0,0,0,,0,398,398,46,1,,
,,,,,,,,,,,,,,,,,,5f2dbe52314d560ef2ce0adb,2020-08-10_12h24.39.637,lexical_decision_task_MP,2020.1.3,Win32,60,z,1,0.537,,,,,,,,0.537,1,,,,,,403,NW,"ID",50,bruats,BRUATS,z,,,,,,0.079427083,-0.346354167,0,0,0,,0,399,399,342,1,,
,,,,,,,,,,,,,,,,,,5f2dbe52314d560ef2ce0adb,2020-08-10_12h24.39.637,lexical_decision_task_MP,2020.1.3,Win32,60,z,1,0.714,,,,,,,,0.714,1,,,,,,373,NW,"ID",50,bigent,BIGENT,z,,,,,,0.079427083,-0.346354167,0,0,0,,0,400,400,312,1,,
,,,,,,,,,,,,,,,,,,5f2dbe52314d560ef2ce0adb,2020-08-10_12h24.39.637,lexical_decision_task_MP,2020.1.3,Win32,60,z,1,0.762,,,,,,,,0.762,1,,,,,,259,NW,UN,50,unject,SOUDAL,z,,,,,,0.079427083,-0.346354167,0,0,0,,0,401,401,438,1,,
,,,,,,,,,,,,,,,,,,5f2dbe52314d560ef2ce0adb,2020-08-10_12h24.39.637,lexical_decision_task_MP,2020.1.3,Win32,60,m,1,0.418,,,,,,,,0.418,1,,,,,,50,WORD,UN,50,hungry,SNATCH,m,,,,,,0.079427083,-0.346354167,0,0,0,,0,402,402,229,1,,
,,,,,,,,,,,,,,,,,,5f2dbe52314d560ef2ce0adb,2020-08-10_12h24.39.637,lexical_decision_task_MP,2020.1.3,Win32,60,m,1,0.411,,,,,,,,0.411,1,,,,,,33,WORD,UN,50,jungle,BUTLER,m,,,,,,0.079427083,-0.346354167,0,0,0,,0,403,403,212,1,,
,,,,,,,,,,,,,,,,,,5f2dbe52314d560ef2ce0adb,2020-08-10_12h24.39.637,lexical_decision_task_MP,2020.1.3,Win32,60,z,1,0.468,,,,,,,,0.468,1,,,,,,462,NW,UN,33,kispel,ABSULT,z,,,,,,0.079427083,-0.346354167,0,0,0,,0,404,404,401,1,,
,,,,,,,,,,,,,,,,,,5f2dbe52314d560ef2ce0adb,2020-08-10_12h24.39.637,lexical_decision_task_MP,2020.1.3,Win32,60,m,1,0.387,,,,,,,,0.387,1,,,,,,180,WORD,"ID",50,silent,SILENT,m,,,,,,0.079427083,-0.346354167,0,0,0,,0,405,405,119,1,,
,,,,,,,,,,,,,,,,,,5f2dbe52314d560ef2ce0adb,2020-08-10_12h24.39.637,lexical_decision_task_MP,2020.1.3,Win32,60,m,1,0.572,,,,,,,,0.572,1,,,,,,32,WORD,UN,50,scream,BUCKLE,m,,,,,,0.079427083,-0.346354167,0,0,0,,0,406,406,211,1,,
,,,,,,,,,,,,,,,,,,5f2dbe52314d560ef2ce0adb,2020-08-10_12h24.39.637,lexical_decision_task_MP,2020.1.3,Win32,60,z,1,0.575,,,,,,,,0.575,1,,,,,,475,NW,UN,33,josted,PEBRIC,z,,,,,,0.079427083,-0.346354167,0,0,0,,0,407,407,414,1,,
,,,,,,,,,,,,,,,,,,5f2dbe52314d560ef2ce0adb,2020-08-10_12h24.39.637,lexical_decision_task_MP,2020.1.3,Win32,60,m,1,0.358,,,,,,,,0.358,1,,,,,,44,WORD,UN,50,clergy,DANGER,m,,,,,,0.079427083,-0.346354167,0,0,0,,0,408,408,223,1,,
,,,,,,,,,,,,,,,,,,5f2dbe52314d560ef2ce0adb,2020-08-10_12h24.39.637,lexical_decision_task_MP,2020.1.3,Win32,60,z,1,0.61,,,,,,,,0.61,1,,,,,,464,NW,UN,33,whivex,CHAITE,z,,,,,,0.079427083,-0.346354167,0,0,0,,0,409,409,403,1,,
,,,,,,,,,,,,,,,,,,5f2dbe52314d560ef2ce0adb,2020-08-10_12h24.39.637,lexical_decision_task_MP,2020.1.3,Win32,60,m,1,0.382,,,,,,,,0.382,1,,,,,,34,WORD,UN,50,socket,JUNGLE,m,,,,,,0.079427083,-0.346354167,0,0,0,,0,410,410,213,1,,
,,,,,,,,,,,,,,,,,,5f2dbe52314d560ef2ce0adb,2020-08-10_12h24.39.637,lexical_decision_task_MP,2020.1.3,Win32,60,m,0,0.446,,,,,,,,0.446,0,,,,,,319,NW,"ID",33,zomber,ZOMBER,z,,,,,,0.079427083,-0.346354167,0,0,0,,0,411,411,258,1,,
,,,,,,,,,,,,,,,,,,5f2dbe52314d560ef2ce0adb,2020-08-10_12h24.39.637,lexical_decision_task_MP,2020.1.3,Win32,60,m,0,0.699,,,,,,,,0.699,0,,,,,,289,NW,UN,50,splino,STARBY,z,,,,,,0.079427083,-0.346354167,0,0,0,,0,412,412,468,1,,
,,,,,,,,,,,,,,,,,,5f2dbe52314d560ef2ce0adb,2020-08-10_12h24.39.637,lexical_decision_task_MP,2020.1.3,Win32,60,m,1,0.516,,,,,,,,0.516,1,,,,,,140,WORD,"ID",50,prince,PRINCE,m,,,,,,0.079427083,-0.346354167,0,0,0,,0,413,413,79,1,,
