counterbalancing_condition,instr_done_keyboard.keys,instr_done_touch.x,instr_done_touch.y,instr_done_touch.leftButton,instr_done_touch.midButton,instr_done_touch.rightButton,instr_done_touch.clicked_name,instruction_pages.thisRepN,instruction_pages.thisTrialN,instruction_pages.thisN,instruction_pages.thisIndex,instruction_pages.ran,pageN,phase,instruct_text,has_image,instruct_image,participant,date,expName,psychopyVersion,OS,frameRate,instr_done_keyboard.rt,response.keys,response.corr,response.rt,touch_resp.x,touch_resp.y,touch_resp.leftButton,touch_resp.midButton,touch_resp.rightButton,touch_resp.time,touch_resp.clicked_name,rt,corr,practice_trials.thisRepN,practice_trials.thisTrialN,practice_trials.thisN,practice_trials.thisIndex,practice_trials.ran,TrialID,StimulusType,Condition,PrimeDuration,Prime,Target,corrAns,end_of_practice_trials_pages.thisRepN,end_of_practice_trials_pages.thisTrialN,end_of_practice_trials_pages.thisN,end_of_practice_trials_pages.thisIndex,end_of_practice_trials_pages.ran,break_done_touch.x,break_done_touch.y,break_done_touch.leftButton,break_done_touch.midButton,break_done_touch.rightButton,break_done_keyboard.keys,experiment_trials.thisRepN,experiment_trials.thisTrialN,experiment_trials.thisN,experiment_trials.thisIndex,experiment_trials.ran,break_done_keyboard.rt
1,,0.005208333,-0.40625,1,0,0,instr_done_button,0,0,0,0,1,1,instructions,"INSTRUCTIONS
At the start of each trial, look at the hash marks (######) in the center of the screen. After a moment, a string of letters will appear. Your task is to indicate if the letter string forms a word or not (i.e., if it is a nonword). For example, AUTHOR is a word while AUTHON is a nonword.

Press the space bar or touch the button below to continue.",0,,569298838d93fe000dfa033c,2020-11-27_10h07.40.884,lexical_decision_task_MP_exp2,2020.2.5,Win32,60,,,,,,,,,,,,,,,,,,,,,,,,,,,,,,,,,,,,,,,,,,
,,-0.05859375,-0.391927083,1,0,0,instr_done_button,0,1,1,1,1,2,instructions,"If your device has a keyboard, press the 'Z' key for nonwords and the 'M' key for words.





Press the space bar or touch the button below to continue.",1,keyboard-example.gif,569298838d93fe000dfa033c,2020-11-27_10h07.40.884,lexical_decision_task_MP_exp2,2020.2.5,Win32,60,,,,,,,,,,,,,,,,,,,,,,,,,,,,,,,,,,,,,,,,,,
,space,0.04296875,-0.41015625,0,0,0,,0,2,2,2,1,3,instructions,"If you are using a touchscreen only device, use the buttons on the screen. Do not use the mouse.





Press the space bar or touch the button below to continue.",1,touchscreen-example.gif,569298838d93fe000dfa033c,2020-11-27_10h07.40.884,lexical_decision_task_MP_exp2,2020.2.5,Win32,60,8.483725,,,,,,,,,,,,,,,,,,,,,,,,,,,,,,,,,,,,,,,,,
,space,0.04296875,-0.41015625,0,0,0,,0,3,3,3,1,4,instructions,"It is very important that you respond as quickly and accurately as possible, as each letter string will only be on the screen for two seconds. If you do not respond within this time, the message 'Too slow!' will be displayed and the experiment will progress to the next letter string. The first 20 trials will be practice trials and you will receive feedback on your answers. 

Press the space bar or touch the button below to start the practice trials.",0,,569298838d93fe000dfa033c,2020-11-27_10h07.40.884,lexical_decision_task_MP_exp2,2020.2.5,Win32,60,4.895495,,,,,,,,,,,,,,,,,,,,,,,,,,,,,,,,,,,,,,,,,
,,,,,,,,,,,,,,,,,,569298838d93fe000dfa033c,2020-11-27_10h07.40.884,lexical_decision_task_MP_exp2,2020.2.5,Win32,60,,m,1,0.66796,,,,,,,,0.66796,1,0,0,0,3,1,1004,WORD,"ID",16,matrix,MATRIX,m,,,,,,,,,,,,,,,,,
,,,,,,,,,,,,,,,,,,569298838d93fe000dfa033c,2020-11-27_10h07.40.884,lexical_decision_task_MP_exp2,2020.2.5,Win32,60,,m,1,0.573645,,,,,,,,0.573645,1,0,1,1,1,1,1002,WORD,"ID",33,adjust,ADJUST,m,,,,,,,,,,,,,,,,,
,,,,,,,,,,,,,,,,,,569298838d93fe000dfa033c,2020-11-27_10h07.40.884,lexical_decision_task_MP_exp2,2020.2.5,Win32,60,,z,1,0.62106,,,,,,,,0.62106,1,0,2,2,14,1,1015,NW,UN,16,miaber,THRALE,z,,,,,,,,,,,,,,,,,
,,,,,,,,,,,,,,,,,,569298838d93fe000dfa033c,2020-11-27_10h07.40.884,lexical_decision_task_MP_exp2,2020.2.5,Win32,60,,z,1,0.711525,,,,,,,,0.711525,1,0,3,3,11,1,1012,NW,"ID",16,rashet,RASHET,z,,,,,,,,,,,,,,,,,
,,,,,,,,,,,,,,,,,,569298838d93fe000dfa033c,2020-11-27_10h07.40.884,lexical_decision_task_MP_exp2,2020.2.5,Win32,60,,m,1,0.613685,,,,,,,,0.613685,1,0,4,4,7,1,1008,WORD,UN,16,hurdle,VOLUME,m,,,,,,,,,,,,,,,,,
,,,,,,,,,,,,,,,,,,569298838d93fe000dfa033c,2020-11-27_10h07.40.884,lexical_decision_task_MP_exp2,2020.2.5,Win32,60,,z,1,0.74785,,,,,,,,0.74785,1,0,5,5,12,1,1013,NW,UN,33,adveil,SPRINY,z,,,,,,,,,,,,,,,,,
,,,,,,,,,,,,,,,,,,569298838d93fe000dfa033c,2020-11-27_10h07.40.884,lexical_decision_task_MP_exp2,2020.2.5,Win32,60,,z,1,0.695855,,,,,,,,0.695855,1,0,6,6,10,1,1011,NW,"ID",16,inlade,INLADE,z,,,,,,,,,,,,,,,,,
,,,,,,,,,,,,,,,,,,569298838d93fe000dfa033c,2020-11-27_10h07.40.884,lexical_decision_task_MP_exp2,2020.2.5,Win32,60,,m,1,0.549775,,,,,,,,0.549775,1,0,7,7,5,1,1006,WORD,UN,33,frenzy,OBTAIN,m,,,,,,,,,,,,,,,,,
,,,,,,,,,,,,,,,,,,569298838d93fe000dfa033c,2020-11-27_10h07.40.884,lexical_decision_task_MP_exp2,2020.2.5,Win32,60,,m,1,0.628525,,,,,,,,0.628525,1,0,8,8,2,1,1003,WORD,"ID",16,almond,ALMOND,m,,,,,,,,,,,,,,,,,
,,,,,,,,,,,,,,,,,,569298838d93fe000dfa033c,2020-11-27_10h07.40.884,lexical_decision_task_MP_exp2,2020.2.5,Win32,60,,z,1,0.613155,,,,,,,,0.613155,1,0,9,9,9,1,1010,NW,"ID",33,fariny,FARINY,z,,,,,,,,,,,,,,,,,
,,,,,,,,,,,,,,,,,,569298838d93fe000dfa033c,2020-11-27_10h07.40.884,lexical_decision_task_MP_exp2,2020.2.5,Win32,60,,z,1,0.613855,,,,,,,,0.613855,1,0,10,10,13,1,1014,NW,UN,33,winfer,ROUPET,z,,,,,,,,,,,,,,,,,
,,,,,,,,,,,,,,,,,,569298838d93fe000dfa033c,2020-11-27_10h07.40.884,lexical_decision_task_MP_exp2,2020.2.5,Win32,60,,z,1,0.746435,,,,,,,,0.746435,1,0,11,11,8,1,1009,NW,"ID",33,aslert,ASLERT,z,,,,,,,,,,,,,,,,,
,,,,,,,,,,,,,,,,,,569298838d93fe000dfa033c,2020-11-27_10h07.40.884,lexical_decision_task_MP_exp2,2020.2.5,Win32,60,,z,1,0.729925,,,,,,,,0.729925,1,0,12,12,15,1,1016,NW,UN,16,mushed,WHAISE,z,,,,,,,,,,,,,,,,,
,,,,,,,,,,,,,,,,,,569298838d93fe000dfa033c,2020-11-27_10h07.40.884,lexical_decision_task_MP_exp2,2020.2.5,Win32,60,,m,1,0.79515,,,,,,,,0.79515,1,0,13,13,6,1,1007,WORD,UN,16,tropic,ZOMBIE,m,,,,,,,,,,,,,,,,,
,,,,,,,,,,,,,,,,,,569298838d93fe000dfa033c,2020-11-27_10h07.40.884,lexical_decision_task_MP_exp2,2020.2.5,Win32,60,,m,1,0.595915,,,,,,,,0.595915,1,0,14,14,4,1,1005,WORD,UN,33,abound,SQUEAK,m,,,,,,,,,,,,,,,,,
,,,,,,,,,,,,,,,,,,569298838d93fe000dfa033c,2020-11-27_10h07.40.884,lexical_decision_task_MP_exp2,2020.2.5,Win32,60,,z,0,0.86982,,,,,,,,0.86982,0,0,15,15,0,1,1001,WORD,"ID",33,utopia,UTOPIA,m,,,,,,,,,,,,,,,,,
,space,0.04296875,-0.41015625,0,0,0,,,,,,,1,end_of_practice,"You have completed the practice trials. During the experimental trials, you will not receive feedback, but it is very important that you respond as quickly and accurately as possible. 
Before you begin, please ensure that you are in a comfortable and quiet location and will not be disturbed for about 15 minutes, as we cannot use your data if you do not complete all the trials. 
There will be opportunities to take breaks at regular intervals during the experiment. When you are ready to start the experimental trials, please press space or touch the button below.",,,569298838d93fe000dfa033c,2020-11-27_10h07.40.884,lexical_decision_task_MP_exp2,2020.2.5,Win32,60,4.131825,,,,,,,,,,,,,,,,,,,,,,,,,0,0,0,0,1,,,,,,,,,,,,
,,,,,,,,,,,,,,,,,,569298838d93fe000dfa033c,2020-11-27_10h07.40.884,lexical_decision_task_MP_exp2,2020.2.5,Win32,60,,z,1,0.569205,,,,,,,,0.569205,1,,,,,,347,NW,"ID",16,kerift,KERIFT,z,,,,,,0.04296875,-0.41015625,0,0,0,,0,0,0,346,1,
,,,,,,,,,,,,,,,,,,569298838d93fe000dfa033c,2020-11-27_10h07.40.884,lexical_decision_task_MP_exp2,2020.2.5,Win32,60,,z,1,0.690215,,,,,,,,0.690215,1,,,,,,314,NW,"ID",16,sprine,SPRINE,z,,,,,,0.04296875,-0.41015625,0,0,0,,0,1,1,313,1,
,,,,,,,,,,,,,,,,,,569298838d93fe000dfa033c,2020-11-27_10h07.40.884,lexical_decision_task_MP_exp2,2020.2.5,Win32,60,,m,1,0.58002,,,,,,,,0.58002,1,,,,,,21,WORD,"ID",33,simple,SIMPLE,m,,,,,,0.04296875,-0.41015625,0,0,0,,0,2,2,20,1,
,,,,,,,,,,,,,,,,,,569298838d93fe000dfa033c,2020-11-27_10h07.40.884,lexical_decision_task_MP_exp2,2020.2.5,Win32,60,,m,1,0.604125,,,,,,,,0.604125,1,,,,,,30,WORD,"ID",33,orient,ORIENT,m,,,,,,0.04296875,-0.41015625,0,0,0,,0,3,3,29,1,
,,,,,,,,,,,,,,,,,,569298838d93fe000dfa033c,2020-11-27_10h07.40.884,lexical_decision_task_MP_exp2,2020.2.5,Win32,60,,m,1,0.604545,,,,,,,,0.604545,1,,,,,,168,WORD,UN,33,genius,ANSWER,m,,,,,,0.04296875,-0.41015625,0,0,0,,0,4,4,167,1,
,,,,,,,,,,,,,,,,,,569298838d93fe000dfa033c,2020-11-27_10h07.40.884,lexical_decision_task_MP_exp2,2020.2.5,Win32,60,,z,1,0.56278,,,,,,,,0.56278,1,,,,,,262,NW,"ID",33,quilew,QUILEW,z,,,,,,0.04296875,-0.41015625,0,0,0,,0,5,5,261,1,
,,,,,,,,,,,,,,,,,,569298838d93fe000dfa033c,2020-11-27_10h07.40.884,lexical_decision_task_MP_exp2,2020.2.5,Win32,60,,m,1,0.52387,,,,,,,,0.52387,1,,,,,,112,WORD,"ID",16,breath,BREATH,m,,,,,,0.04296875,-0.41015625,0,0,0,,0,6,6,111,1,
,,,,,,,,,,,,,,,,,,569298838d93fe000dfa033c,2020-11-27_10h07.40.884,lexical_decision_task_MP_exp2,2020.2.5,Win32,60,,m,1,0.51363,,,,,,,,0.51363,1,,,,,,47,WORD,"ID",33,income,INCOME,m,,,,,,0.04296875,-0.41015625,0,0,0,,0,7,7,46,1,
,,,,,,,,,,,,,,,,,,569298838d93fe000dfa033c,2020-11-27_10h07.40.884,lexical_decision_task_MP_exp2,2020.2.5,Win32,60,,z,1,0.564015,,,,,,,,0.564015,1,,,,,,451,NW,UN,16,surden,CAINKY,z,,,,,,0.04296875,-0.41015625,0,0,0,,0,8,8,450,1,
,,,,,,,,,,,,,,,,,,569298838d93fe000dfa033c,2020-11-27_10h07.40.884,lexical_decision_task_MP_exp2,2020.2.5,Win32,60,,m,1,0.55584,,,,,,,,0.55584,1,,,,,,150,WORD,UN,33,mystic,RANDOM,m,,,,,,0.04296875,-0.41015625,0,0,0,,0,9,9,149,1,
,,,,,,,,,,,,,,,,,,569298838d93fe000dfa033c,2020-11-27_10h07.40.884,lexical_decision_task_MP_exp2,2020.2.5,Win32,60,,z,1,0.601645,,,,,,,,0.601645,1,,,,,,405,NW,UN,33,nouply,FLUMNI,z,,,,,,0.04296875,-0.41015625,0,0,0,,0,10,10,404,1,
,,,,,,,,,,,,,,,,,,569298838d93fe000dfa033c,2020-11-27_10h07.40.884,lexical_decision_task_MP_exp2,2020.2.5,Win32,60,,z,1,0.65394,,,,,,,,0.65394,1,,,,,,385,NW,UN,33,ancust,VEIGMA,z,,,,,,0.04296875,-0.41015625,0,0,0,,0,11,11,384,1,
,,,,,,,,,,,,,,,,,,569298838d93fe000dfa033c,2020-11-27_10h07.40.884,lexical_decision_task_MP_exp2,2020.2.5,Win32,60,,z,1,0.58168,,,,,,,,0.58168,1,,,,,,446,NW,UN,16,gircue,RUNAMO,z,,,,,,0.04296875,-0.41015625,0,0,0,,0,12,12,445,1,
,,,,,,,,,,,,,,,,,,569298838d93fe000dfa033c,2020-11-27_10h07.40.884,lexical_decision_task_MP_exp2,2020.2.5,Win32,60,,m,1,0.553125,,,,,,,,0.553125,1,,,,,,15,WORD,"ID",33,amount,AMOUNT,m,,,,,,0.04296875,-0.41015625,0,0,0,,0,13,13,14,1,
,,,,,,,,,,,,,,,,,,569298838d93fe000dfa033c,2020-11-27_10h07.40.884,lexical_decision_task_MP_exp2,2020.2.5,Win32,60,,z,1,0.59825,,,,,,,,0.59825,1,,,,,,416,NW,UN,33,earoud,PATHEL,z,,,,,,0.04296875,-0.41015625,0,0,0,,0,14,14,415,1,
,,,,,,,,,,,,,,,,,,569298838d93fe000dfa033c,2020-11-27_10h07.40.884,lexical_decision_task_MP_exp2,2020.2.5,Win32,60,,z,1,0.63995,,,,,,,,0.63995,1,,,,,,340,NW,"ID",16,fiatch,FIATCH,z,,,,,,0.04296875,-0.41015625,0,0,0,,0,15,15,339,1,
,,,,,,,,,,,,,,,,,,569298838d93fe000dfa033c,2020-11-27_10h07.40.884,lexical_decision_task_MP_exp2,2020.2.5,Win32,60,,m,1,0.554185,,,,,,,,0.554185,1,,,,,,197,WORD,UN,16,wicked,STREAM,m,,,,,,0.04296875,-0.41015625,0,0,0,,0,16,16,196,1,
,,,,,,,,,,,,,,,,,,569298838d93fe000dfa033c,2020-11-27_10h07.40.884,lexical_decision_task_MP_exp2,2020.2.5,Win32,60,,m,1,0.64806,,,,,,,,0.64806,1,,,,,,13,WORD,"ID",33,strive,STRIVE,m,,,,,,0.04296875,-0.41015625,0,0,0,,0,17,17,12,1,
,,,,,,,,,,,,,,,,,,569298838d93fe000dfa033c,2020-11-27_10h07.40.884,lexical_decision_task_MP_exp2,2020.2.5,Win32,60,,z,1,0.66974,,,,,,,,0.66974,1,,,,,,291,NW,"ID",33,pretch,PRETCH,z,,,,,,0.04296875,-0.41015625,0,0,0,,0,18,18,290,1,
,,,,,,,,,,,,,,,,,,569298838d93fe000dfa033c,2020-11-27_10h07.40.884,lexical_decision_task_MP_exp2,2020.2.5,Win32,60,,m,1,0.486065,,,,,,,,0.486065,1,,,,,,135,WORD,UN,33,chrome,IMPORT,m,,,,,,0.04296875,-0.41015625,0,0,0,,0,19,19,134,1,
,,,,,,,,,,,,,,,,,,569298838d93fe000dfa033c,2020-11-27_10h07.40.884,lexical_decision_task_MP_exp2,2020.2.5,Win32,60,,m,1,0.53889,,,,,,,,0.53889,1,,,,,,60,WORD,"ID",33,pencil,PENCIL,m,,,,,,0.04296875,-0.41015625,0,0,0,,0,20,20,59,1,
,,,,,,,,,,,,,,,,,,569298838d93fe000dfa033c,2020-11-27_10h07.40.884,lexical_decision_task_MP_exp2,2020.2.5,Win32,60,,z,1,0.613855,,,,,,,,0.613855,1,,,,,,272,NW,"ID",33,damilt,DAMILT,z,,,,,,0.04296875,-0.41015625,0,0,0,,0,21,21,271,1,
,,,,,,,,,,,,,,,,,,569298838d93fe000dfa033c,2020-11-27_10h07.40.884,lexical_decision_task_MP_exp2,2020.2.5,Win32,60,,m,1,0.663435,,,,,,,,0.663435,1,,,,,,206,WORD,UN,16,wreath,TAILOR,m,,,,,,0.04296875,-0.41015625,0,0,0,,0,22,22,205,1,
,,,,,,,,,,,,,,,,,,569298838d93fe000dfa033c,2020-11-27_10h07.40.884,lexical_decision_task_MP_exp2,2020.2.5,Win32,60,,z,1,0.60465,,,,,,,,0.60465,1,,,,,,456,NW,UN,16,wanigh,BROGET,z,,,,,,0.04296875,-0.41015625,0,0,0,,0,23,23,455,1,
,,,,,,,,,,,,,,,,,,569298838d93fe000dfa033c,2020-11-27_10h07.40.884,lexical_decision_task_MP_exp2,2020.2.5,Win32,60,,m,1,0.513615,,,,,,,,0.513615,1,,,,,,231,WORD,UN,16,mother,EXPORT,m,,,,,,0.04296875,-0.41015625,0,0,0,,0,24,24,230,1,
,,,,,,,,,,,,,,,,,,569298838d93fe000dfa033c,2020-11-27_10h07.40.884,lexical_decision_task_MP_exp2,2020.2.5,Win32,60,,z,1,0.60197,,,,,,,,0.60197,1,,,,,,366,NW,UN,33,slique,TOSHEL,z,,,,,,0.04296875,-0.41015625,0,0,0,,0,25,25,365,1,
,,,,,,,,,,,,,,,,,,569298838d93fe000dfa033c,2020-11-27_10h07.40.884,lexical_decision_task_MP_exp2,2020.2.5,Win32,60,,m,1,0.578865,,,,,,,,0.578865,1,,,,,,6,WORD,"ID",33,bundle,BUNDLE,m,,,,,,0.04296875,-0.41015625,0,0,0,,0,26,26,5,1,
,,,,,,,,,,,,,,,,,,569298838d93fe000dfa033c,2020-11-27_10h07.40.884,lexical_decision_task_MP_exp2,2020.2.5,Win32,60,,z,1,0.699035,,,,,,,,0.699035,1,,,,,,260,NW,"ID",33,unject,UNJECT,z,,,,,,0.04296875,-0.41015625,0,0,0,,0,27,27,259,1,
,,,,,,,,,,,,,,,,,,569298838d93fe000dfa033c,2020-11-27_10h07.40.884,lexical_decision_task_MP_exp2,2020.2.5,Win32,60,,z,1,0.569095,,,,,,,,0.569095,1,,,,,,343,NW,"ID",16,aimosy,AIMOSY,z,,,,,,0.04296875,-0.41015625,0,0,0,,0,28,28,342,1,
,,,,,,,,,,,,,,,,,,569298838d93fe000dfa033c,2020-11-27_10h07.40.884,lexical_decision_task_MP_exp2,2020.2.5,Win32,60,,m,1,0.51676,,,,,,,,0.51676,1,,,,,,181,WORD,UN,16,winter,GLANCE,m,,,,,,0.04296875,-0.41015625,0,0,0,,0,29,29,180,1,
,,,,,,,,,,,,,,,,,,569298838d93fe000dfa033c,2020-11-27_10h07.40.884,lexical_decision_task_MP_exp2,2020.2.5,Win32,60,,z,1,0.552615,,,,,,,,0.552615,1,,,,,,415,NW,UN,33,pathel,HIGSTA,z,,,,,,0.04296875,-0.41015625,0,0,0,,0,30,30,414,1,
,,,,,,,,,,,,,,,,,,569298838d93fe000dfa033c,2020-11-27_10h07.40.884,lexical_decision_task_MP_exp2,2020.2.5,Win32,60,,z,1,0.60394,,,,,,,,0.60394,1,,,,,,440,NW,UN,16,cainky,SARIDE,z,,,,,,0.04296875,-0.41015625,0,0,0,,0,31,31,439,1,
,,,,,,,,,,,,,,,,,,569298838d93fe000dfa033c,2020-11-27_10h07.40.884,lexical_decision_task_MP_exp2,2020.2.5,Win32,60,,z,1,0.623805,,,,,,,,0.623805,1,,,,,,458,NW,UN,16,chaite,BARCET,z,,,,,,0.04296875,-0.41015625,0,0,0,,0,32,32,457,1,
,,,,,,,,,,,,,,,,,,569298838d93fe000dfa033c,2020-11-27_10h07.40.884,lexical_decision_task_MP_exp2,2020.2.5,Win32,60,,z,1,0.600755,,,,,,,,0.600755,1,,,,,,384,NW,UN,33,veigma,GUESCO,z,,,,,,0.04296875,-0.41015625,0,0,0,,0,33,33,383,1,
,,,,,,,,,,,,,,,,,,569298838d93fe000dfa033c,2020-11-27_10h07.40.884,lexical_decision_task_MP_exp2,2020.2.5,Win32,60,,z,1,0.625525,,,,,,,,0.625525,1,,,,,,302,NW,"ID",16,miluer,MILUER,z,,,,,,0.04296875,-0.41015625,0,0,0,,0,34,34,301,1,
,,,,,,,,,,,,,,,,,,569298838d93fe000dfa033c,2020-11-27_10h07.40.884,lexical_decision_task_MP_exp2,2020.2.5,Win32,60,,m,1,0.497855,,,,,,,,0.497855,1,,,,,,12,WORD,"ID",33,orange,ORANGE,m,,,,,,0.04296875,-0.41015625,0,0,0,,0,35,35,11,1,
,,,,,,,,,,,,,,,,,,569298838d93fe000dfa033c,2020-11-27_10h07.40.884,lexical_decision_task_MP_exp2,2020.2.5,Win32,60,,m,1,0.60199,,,,,,,,0.60199,1,,,,,,75,WORD,"ID",16,trophy,TROPHY,m,,,,,,0.04296875,-0.41015625,0,0,0,,0,36,36,74,1,
,,,,,,,,,,,,,,,,,,569298838d93fe000dfa033c,2020-11-27_10h07.40.884,lexical_decision_task_MP_exp2,2020.2.5,Win32,60,,z,1,0.636185,,,,,,,,0.636185,1,,,,,,320,NW,"ID",16,jockal,JOCKAL,z,,,,,,0.04296875,-0.41015625,0,0,0,,0,37,37,319,1,
,,,,,,,,,,,,,,,,,,569298838d93fe000dfa033c,2020-11-27_10h07.40.884,lexical_decision_task_MP_exp2,2020.2.5,Win32,60,,m,1,0.5141,,,,,,,,0.5141,1,,,,,,174,WORD,UN,33,fabric,TURKEY,m,,,,,,0.04296875,-0.41015625,0,0,0,,0,38,38,173,1,
,,,,,,,,,,,,,,,,,,569298838d93fe000dfa033c,2020-11-27_10h07.40.884,lexical_decision_task_MP_exp2,2020.2.5,Win32,60,,m,1,0.53703,,,,,,,,0.53703,1,,,,,,27,WORD,"ID",33,scream,SCREAM,m,,,,,,0.04296875,-0.41015625,0,0,0,,0,39,39,26,1,
,,,,,,,,,,,,,,,,,,569298838d93fe000dfa033c,2020-11-27_10h07.40.884,lexical_decision_task_MP_exp2,2020.2.5,Win32,60,,z,0,0.637175,,,,,,,,0.637175,0,,,,,,156,WORD,UN,33,pastor,CRADLE,m,,,,,,0.04296875,-0.41015625,0,0,0,,0,40,40,155,1,
,,,,,,,,,,,,,,,,,,569298838d93fe000dfa033c,2020-11-27_10h07.40.884,lexical_decision_task_MP_exp2,2020.2.5,Win32,60,,m,0,0.580315,,,,,,,,0.580315,0,,,,,,345,NW,"ID",16,absend,ABSEND,z,,,,,,0.04296875,-0.41015625,0,0,0,,0,41,41,344,1,
,,,,,,,,,,,,,,,,,,569298838d93fe000dfa033c,2020-11-27_10h07.40.884,lexical_decision_task_MP_exp2,2020.2.5,Win32,60,,m,1,0.55061,,,,,,,,0.55061,1,,,,,,121,WORD,UN,33,linger,THRIVE,m,,,,,,0.04296875,-0.41015625,0,0,0,,0,42,42,120,1,
,,,,,,,,,,,,,,,,,,569298838d93fe000dfa033c,2020-11-27_10h07.40.884,lexical_decision_task_MP_exp2,2020.2.5,Win32,60,,z,1,0.547095,,,,,,,,0.547095,1,,,,,,339,NW,"ID",16,fachow,FACHOW,z,,,,,,0.04296875,-0.41015625,0,0,0,,0,43,43,338,1,
,,,,,,,,,,,,,,,,,,569298838d93fe000dfa033c,2020-11-27_10h07.40.884,lexical_decision_task_MP_exp2,2020.2.5,Win32,60,,m,1,0.53471,,,,,,,,0.53471,1,,,,,,113,WORD,"ID",16,chorus,CHORUS,m,,,,,,0.04296875,-0.41015625,0,0,0,,0,44,44,112,1,
,,,,,,,,,,,,,,,,,,569298838d93fe000dfa033c,2020-11-27_10h07.40.884,lexical_decision_task_MP_exp2,2020.2.5,Win32,60,,z,1,0.566785,,,,,,,,0.566785,1,,,,,,326,NW,"ID",16,iguade,IGUADE,z,,,,,,0.04296875,-0.41015625,0,0,0,,0,45,45,325,1,
,,,,,,,,,,,,,,,,,,569298838d93fe000dfa033c,2020-11-27_10h07.40.884,lexical_decision_task_MP_exp2,2020.2.5,Win32,60,,z,1,0.59748,,,,,,,,0.59748,1,,,,,,264,NW,"ID",33,vackel,VACKEL,z,,,,,,0.04296875,-0.41015625,0,0,0,,0,46,46,263,1,
,,,,,,,,,,,,,,,,,,569298838d93fe000dfa033c,2020-11-27_10h07.40.884,lexical_decision_task_MP_exp2,2020.2.5,Win32,60,,z,1,0.71388,,,,,,,,0.71388,1,,,,,,397,NW,UN,33,blunde,CAMBLE,z,,,,,,0.04296875,-0.41015625,0,0,0,,0,47,47,396,1,
,,,,,,,,,,,,,,,,,,569298838d93fe000dfa033c,2020-11-27_10h07.40.884,lexical_decision_task_MP_exp2,2020.2.5,Win32,60,,m,1,0.578915,,,,,,,,0.578915,1,,,,,,201,WORD,UN,16,factor,ADMIRE,m,,,,,,0.04296875,-0.41015625,0,0,0,,0,48,48,200,1,
,,,,,,,,,,,,,,,,,,569298838d93fe000dfa033c,2020-11-27_10h07.40.884,lexical_decision_task_MP_exp2,2020.2.5,Win32,60,,m,1,0.614265,,,,,,,,0.614265,1,,,,,,225,WORD,UN,16,kidney,VULGAR,m,,,,,,0.04296875,-0.41015625,0,0,0,,0,49,49,224,1,
,,,,,,,,,,,,,,,,,,569298838d93fe000dfa033c,2020-11-27_10h07.40.884,lexical_decision_task_MP_exp2,2020.2.5,Win32,60,,m,1,0.54,,,,,,,,0.54,1,,,,,,77,WORD,"ID",16,racket,RACKET,m,,,,,,0.04296875,-0.41015625,0,0,0,,0,50,50,76,1,
,,,,,,,,,,,,,,,,,,569298838d93fe000dfa033c,2020-11-27_10h07.40.884,lexical_decision_task_MP_exp2,2020.2.5,Win32,60,,m,1,0.6321,,,,,,,,0.6321,1,,,,,,102,WORD,"ID",16,direct,DIRECT,m,,,,,,0.04296875,-0.41015625,0,0,0,,0,51,51,101,1,
,,,,,,,,,,,,,,,,,,569298838d93fe000dfa033c,2020-11-27_10h07.40.884,lexical_decision_task_MP_exp2,2020.2.5,Win32,60,,m,1,0.547735,,,,,,,,0.547735,1,,,,,,109,WORD,"ID",16,wonder,WONDER,m,,,,,,0.04296875,-0.41015625,0,0,0,,0,52,52,108,1,
,,,,,,,,,,,,,,,,,,569298838d93fe000dfa033c,2020-11-27_10h07.40.884,lexical_decision_task_MP_exp2,2020.2.5,Win32,60,,m,1,0.53631,,,,,,,,0.53631,1,,,,,,34,WORD,"ID",33,jungle,JUNGLE,m,,,,,,0.04296875,-0.41015625,0,0,0,,0,53,53,33,1,
,,,,,,,,,,,,,,,,,,569298838d93fe000dfa033c,2020-11-27_10h07.40.884,lexical_decision_task_MP_exp2,2020.2.5,Win32,60,,z,1,0.663835,,,,,,,,0.663835,1,,,,,,431,NW,UN,16,lunker,CHRUMS,z,,,,,,0.04296875,-0.41015625,0,0,0,,0,54,54,430,1,
,,,,,,,,,,,,,,,,,,569298838d93fe000dfa033c,2020-11-27_10h07.40.884,lexical_decision_task_MP_exp2,2020.2.5,Win32,60,,m,1,0.68515,,,,,,,,0.68515,1,,,,,,89,WORD,"ID",16,permit,PERMIT,m,,,,,,0.04296875,-0.41015625,0,0,0,,0,55,55,88,1,
,,,,,,,,,,,,,,,,,,569298838d93fe000dfa033c,2020-11-27_10h07.40.884,lexical_decision_task_MP_exp2,2020.2.5,Win32,60,,z,1,0.639355,,,,,,,,0.639355,1,,,,,,301,NW,"ID",16,fainch,FAINCH,z,,,,,,0.04296875,-0.41015625,0,0,0,,0,56,56,300,1,
,,,,,,,,,,,,,,,,,,569298838d93fe000dfa033c,2020-11-27_10h07.40.884,lexical_decision_task_MP_exp2,2020.2.5,Win32,60,,m,1,0.54073,,,,,,,,0.54073,1,,,,,,31,WORD,"ID",33,weapon,WEAPON,m,,,,,,0.04296875,-0.41015625,0,0,0,,0,57,57,30,1,
,,,,,,,,,,,,,,,,,,569298838d93fe000dfa033c,2020-11-27_10h07.40.884,lexical_decision_task_MP_exp2,2020.2.5,Win32,60,,z,1,0.66403,,,,,,,,0.66403,1,,,,,,422,NW,UN,16,streld,ALCOUD,z,,,,,,0.04296875,-0.41015625,0,0,0,,0,58,58,421,1,
,,,,,,,,,,,,,,,,,,569298838d93fe000dfa033c,2020-11-27_10h07.40.884,lexical_decision_task_MP_exp2,2020.2.5,Win32,60,,z,1,0.67007,,,,,,,,0.67007,1,,,,,,390,NW,UN,33,theldy,HATRUS,z,,,,,,0.04296875,-0.41015625,0,0,0,,0,59,59,389,1,
,,,,,,,,,,,,,,,,,,569298838d93fe000dfa033c,2020-11-27_10h07.40.884,lexical_decision_task_MP_exp2,2020.2.5,Win32,60,,m,1,0.55414,,,,,,,,0.55414,1,,,,,,37,WORD,"ID",33,insult,INSULT,m,,,,,,0.04296875,-0.41015625,0,0,0,,0,60,60,36,1,
,,,,,,,,,,,,,,,,,,569298838d93fe000dfa033c,2020-11-27_10h07.40.884,lexical_decision_task_MP_exp2,2020.2.5,Win32,60,,z,1,0.646945,,,,,,,,0.646945,1,,,,,,294,NW,"ID",33,inhort,INHORT,z,,,,,,0.04296875,-0.41015625,0,0,0,,0,61,61,293,1,
,,,,,,,,,,,,,,,,,,569298838d93fe000dfa033c,2020-11-27_10h07.40.884,lexical_decision_task_MP_exp2,2020.2.5,Win32,60,,z,1,0.61114,,,,,,,,0.61114,1,,,,,,460,NW,UN,16,justre,MINGAR,z,,,,,,0.04296875,-0.41015625,0,0,0,,0,62,62,459,1,
,,,,,,,,,,,,,,,,,,569298838d93fe000dfa033c,2020-11-27_10h07.40.884,lexical_decision_task_MP_exp2,2020.2.5,Win32,60,,z,1,0.62989,,,,,,,,0.62989,1,,,,,,464,NW,UN,16,whivex,CHAITE,z,,,,,,0.04296875,-0.41015625,0,0,0,,0,63,63,463,1,
,,,,,,,,,,,,,,,,,,569298838d93fe000dfa033c,2020-11-27_10h07.40.884,lexical_decision_task_MP_exp2,2020.2.5,Win32,60,,z,1,0.61331,,,,,,,,0.61331,1,,,,,,275,NW,"ID",33,sleirt,SLEIRT,z,,,,,,0.04296875,-0.41015625,0,0,0,,0,64,64,274,1,
,,,,,,,,,,,,,,,,,,569298838d93fe000dfa033c,2020-11-27_10h07.40.884,lexical_decision_task_MP_exp2,2020.2.5,Win32,60,,m,0,0.688615,,,,,,,,0.688615,0,,,,,,341,NW,"ID",16,myrtie,MYRTIE,z,,,,,,0.04296875,-0.41015625,0,0,0,,0,65,65,340,1,
,,,,,,,,,,,,,,,,,,569298838d93fe000dfa033c,2020-11-27_10h07.40.884,lexical_decision_task_MP_exp2,2020.2.5,Win32,60,,m,1,0.5688,,,,,,,,0.5688,1,,,,,,228,WORD,UN,16,inject,MASTER,m,,,,,,0.04296875,-0.41015625,0,0,0,,0,66,66,227,1,
,,,,,,,,,,,,,,,,,,569298838d93fe000dfa033c,2020-11-27_10h07.40.884,lexical_decision_task_MP_exp2,2020.2.5,Win32,60,,m,1,0.57053,,,,,,,,0.57053,1,,,,,,54,WORD,"ID",33,ramble,RAMBLE,m,,,,,,0.04296875,-0.41015625,0,0,0,,0,67,67,53,1,
,,,,,,,,,,,,,,,,,,569298838d93fe000dfa033c,2020-11-27_10h07.40.884,lexical_decision_task_MP_exp2,2020.2.5,Win32,60,,z,1,0.6542,,,,,,,,0.6542,1,,,,,,244,NW,"ID",33,eatric,EATRIC,z,,,,,,0.04296875,-0.41015625,0,0,0,,0,68,68,243,1,
,,,,,,,,,,,,,,,,,,569298838d93fe000dfa033c,2020-11-27_10h07.40.884,lexical_decision_task_MP_exp2,2020.2.5,Win32,60,,m,0,0.7304,,,,,,,,0.7304,0,,,,,,252,NW,"ID",33,stapod,STAPOD,z,,,,,,0.04296875,-0.41015625,0,0,0,,0,69,69,251,1,
,,,,,,,,,,,,,,,,,,569298838d93fe000dfa033c,2020-11-27_10h07.40.884,lexical_decision_task_MP_exp2,2020.2.5,Win32,60,,m,1,0.51648,,,,,,,,0.51648,1,,,,,,155,WORD,UN,33,cradle,LIZARD,m,,,,,,0.04296875,-0.41015625,0,0,0,,0,70,70,154,1,
,,,,,,,,,,,,,,,,,,569298838d93fe000dfa033c,2020-11-27_10h07.40.884,lexical_decision_task_MP_exp2,2020.2.5,Win32,60,,z,1,0.701105,,,,,,,,0.701105,1,,,,,,389,NW,UN,33,hatrus,WITMER,z,,,,,,0.04296875,-0.41015625,0,0,0,,0,71,71,388,1,
,,,,,,,,,,,,,,,,,,569298838d93fe000dfa033c,2020-11-27_10h07.40.884,lexical_decision_task_MP_exp2,2020.2.5,Win32,60,,z,1,0.530575,,,,,,,,0.530575,1,,,,,,371,NW,UN,33,ramily,GEILOY,z,,,,,,0.04296875,-0.41015625,0,0,0,,0,72,72,370,1,
,,,,,,,,,,,,,,,,,,569298838d93fe000dfa033c,2020-11-27_10h07.40.884,lexical_decision_task_MP_exp2,2020.2.5,Win32,60,,m,1,0.49039,,,,,,,,0.49039,1,,,,,,52,WORD,"ID",33,impose,IMPOSE,m,,,,,,0.04296875,-0.41015625,0,0,0,,0,73,73,51,1,
,,,,,,,,,,,,,,,,,,569298838d93fe000dfa033c,2020-11-27_10h07.40.884,lexical_decision_task_MP_exp2,2020.2.5,Win32,60,,z,1,0.529735,,,,,,,,0.529735,1,,,,,,315,NW,"ID",16,laston,LASTON,z,,,,,,0.04296875,-0.41015625,0,0,0,,0,74,74,314,1,
,,,,,,,,,,,,,,,,,,569298838d93fe000dfa033c,2020-11-27_10h07.40.884,lexical_decision_task_MP_exp2,2020.2.5,Win32,60,,z,1,0.592025,,,,,,,,0.592025,1,,,,,,362,NW,UN,33,breali,TIREAU,z,,,,,,0.04296875,-0.41015625,0,0,0,,0,75,75,361,1,
,,,,,,,,,,,,,,,,,,569298838d93fe000dfa033c,2020-11-27_10h07.40.884,lexical_decision_task_MP_exp2,2020.2.5,Win32,60,,m,1,0.523245,,,,,,,,0.523245,1,,,,,,194,WORD,UN,16,resign,ABSENT,m,,,,,,0.04296875,-0.41015625,0,0,0,,0,76,76,193,1,
,,,,,,,,,,,,,,,,,,569298838d93fe000dfa033c,2020-11-27_10h07.40.884,lexical_decision_task_MP_exp2,2020.2.5,Win32,60,,m,1,0.730715,,,,,,,,0.730715,1,,,,,,1,WORD,"ID",33,fright,FRIGHT,m,,,,,,0.04296875,-0.41015625,0,0,0,,0,77,77,0,1,
,,,,,,,,,,,,,,,,,,569298838d93fe000dfa033c,2020-11-27_10h07.40.884,lexical_decision_task_MP_exp2,2020.2.5,Win32,60,,z,1,0.536325,,,,,,,,0.536325,1,,,,,,375,NW,UN,33,iguare,YORQUE,z,,,,,,0.04296875,-0.41015625,0,0,0,,0,78,78,374,1,
,,,,,,,,,,,,,,,,,,569298838d93fe000dfa033c,2020-11-27_10h07.40.884,lexical_decision_task_MP_exp2,2020.2.5,Win32,60,,z,1,0.61328,,,,,,,,0.61328,1,,,,,,476,NW,UN,16,photie,JOSTED,z,,,,,,0.04296875,-0.41015625,0,0,0,,0,79,79,475,1,
,,,,,,,,,,,,,,,,,,569298838d93fe000dfa033c,2020-11-27_10h07.40.884,lexical_decision_task_MP_exp2,2020.2.5,Win32,60,,m,1,0.49844,,,,,,,,0.49844,1,,,,,,196,WORD,UN,16,stream,CREDIT,m,,,,,,0.04296875,-0.41015625,0,0,0,,0,80,80,195,1,
,,,,,,,,,,,,,,,,,,569298838d93fe000dfa033c,2020-11-27_10h07.40.884,lexical_decision_task_MP_exp2,2020.2.5,Win32,60,,z,0,0.51328,,,,,,,,0.51328,0,,,,,,86,WORD,"ID",16,rodent,RODENT,m,,,,,,0.04296875,-0.41015625,0,0,0,,0,81,81,85,1,
,,,,,,,,,,,,,,,,,,569298838d93fe000dfa033c,2020-11-27_10h07.40.884,lexical_decision_task_MP_exp2,2020.2.5,Win32,60,,z,1,0.64127,,,,,,,,0.64127,1,,,,,,337,NW,"ID",16,rejols,REJOLS,z,,,,,,0.04296875,-0.41015625,0,0,0,,0,82,82,336,1,
,,,,,,,,,,,,,,,,,,569298838d93fe000dfa033c,2020-11-27_10h07.40.884,lexical_decision_task_MP_exp2,2020.2.5,Win32,60,,m,1,0.607335,,,,,,,,0.607335,1,,,,,,163,WORD,UN,33,market,STRING,m,,,,,,0.04296875,-0.41015625,0,0,0,,0,83,83,162,1,
,,,,,,,,,,,,,,,,,,569298838d93fe000dfa033c,2020-11-27_10h07.40.884,lexical_decision_task_MP_exp2,2020.2.5,Win32,60,,z,1,0.56437,,,,,,,,0.56437,1,,,,,,475,NW,UN,16,robuly,PEBRIC,z,,,,,,0.04296875,-0.41015625,0,0,0,,0,84,84,474,1,
,,,,,,,,,,,,,,,,,,569298838d93fe000dfa033c,2020-11-27_10h07.40.884,lexical_decision_task_MP_exp2,2020.2.5,Win32,60,,z,1,0.605245,,,,,,,,0.605245,1,,,,,,336,NW,"ID",16,ghodus,GHODUS,z,,,,,,0.04296875,-0.41015625,0,0,0,,0,85,85,335,1,
,,,,,,,,,,,,,,,,,,569298838d93fe000dfa033c,2020-11-27_10h07.40.884,lexical_decision_task_MP_exp2,2020.2.5,Win32,60,,m,1,0.50327,,,,,,,,0.50327,1,,,,,,9,WORD,"ID",33,hustle,HUSTLE,m,,,,,,0.04296875,-0.41015625,0,0,0,,0,86,86,8,1,
,,,,,,,,,,,,,,,,,,569298838d93fe000dfa033c,2020-11-27_10h07.40.884,lexical_decision_task_MP_exp2,2020.2.5,Win32,60,,z,1,0.664655,,,,,,,,0.664655,1,,,,,,411,NW,UN,33,jiluer,ORCHIN,z,,,,,,0.04296875,-0.41015625,0,0,0,,0,87,87,410,1,
,,,,,,,,,,,,,,,,,,569298838d93fe000dfa033c,2020-11-27_10h07.40.884,lexical_decision_task_MP_exp2,2020.2.5,Win32,60,,m,1,0.633695,,,,,,,,0.633695,1,,,,,,186,WORD,UN,16,course,PORTAL,m,,,,,,0.04296875,-0.41015625,0,0,0,,0,88,88,185,1,
,,,,,,,,,,,,,,,,,,569298838d93fe000dfa033c,2020-11-27_10h07.40.884,lexical_decision_task_MP_exp2,2020.2.5,Win32,60,,m,1,0.538035,,,,,,,,0.538035,1,,,,,,207,WORD,UN,16,hockey,WREATH,m,,,,,,0.04296875,-0.41015625,0,0,0,,0,89,89,206,1,
,,,,,,,,,,,,,,,,,,569298838d93fe000dfa033c,2020-11-27_10h07.40.884,lexical_decision_task_MP_exp2,2020.2.5,Win32,60,,z,1,0.57826,,,,,,,,0.57826,1,,,,,,465,NW,UN,16,hocite,WHIVEX,z,,,,,,0.04296875,-0.41015625,0,0,0,,0,90,90,464,1,
,,,,,,,,,,,,,,,,,,569298838d93fe000dfa033c,2020-11-27_10h07.40.884,lexical_decision_task_MP_exp2,2020.2.5,Win32,60,,m,1,0.515555,,,,,,,,0.515555,1,,,,,,38,WORD,"ID",33,powder,POWDER,m,,,,,,0.04296875,-0.41015625,0,0,0,,0,91,91,37,1,
,,,,,,,,,,,,,,,,,,569298838d93fe000dfa033c,2020-11-27_10h07.40.884,lexical_decision_task_MP_exp2,2020.2.5,Win32,60,,m,1,0.50363,,,,,,,,0.50363,1,,,,,,62,WORD,"ID",16,region,REGION,m,,,,,,0.04296875,-0.41015625,0,0,0,,0,92,92,61,1,
,,,,,,,,,,,,,,,,,,569298838d93fe000dfa033c,2020-11-27_10h07.40.884,lexical_decision_task_MP_exp2,2020.2.5,Win32,60,,m,1,0.51112,,,,,,,,0.51112,1,,,,,,49,WORD,"ID",33,survey,SURVEY,m,,,,,,0.04296875,-0.41015625,0,0,0,,0,93,93,48,1,
,,,,,,,,,,,,,,,,,,569298838d93fe000dfa033c,2020-11-27_10h07.40.884,lexical_decision_task_MP_exp2,2020.2.5,Win32,60,,z,0,0.586195,,,,,,,,0.586195,0,,,,,,114,WORD,"ID",16,placid,PLACID,m,,,,,,0.04296875,-0.41015625,0,0,0,,0,94,94,113,1,
,,,,,,,,,,,,,,,,,,569298838d93fe000dfa033c,2020-11-27_10h07.40.884,lexical_decision_task_MP_exp2,2020.2.5,Win32,60,,m,1,0.65107,,,,,,,,0.65107,1,,,,,,221,WORD,UN,16,hinder,MASCOT,m,,,,,,0.04296875,-0.41015625,0,0,0,,0,95,95,220,1,
,,,,,,,,,,,,,,,,,,569298838d93fe000dfa033c,2020-11-27_10h07.40.884,lexical_decision_task_MP_exp2,2020.2.5,Win32,60,,m,1,0.519025,,,,,,,,0.519025,1,,,,,,3,WORD,"ID",33,knight,KNIGHT,m,,,,,,0.04296875,-0.41015625,0,0,0,,0,96,96,2,1,
,,,,,,,,,,,,,,,,,,569298838d93fe000dfa033c,2020-11-27_10h07.40.884,lexical_decision_task_MP_exp2,2020.2.5,Win32,60,,z,0,0.58762,,,,,,,,0.58762,0,,,,,,82,WORD,"ID",16,stigma,STIGMA,m,,,,,,0.04296875,-0.41015625,0,0,0,,0,97,97,81,1,
,,,,,,,,,,,,,,,,,,569298838d93fe000dfa033c,2020-11-27_10h07.40.884,lexical_decision_task_MP_exp2,2020.2.5,Win32,60,,m,1,0.503405,,,,,,,,0.503405,1,,,,,,70,WORD,"ID",16,square,SQUARE,m,,,,,,0.04296875,-0.41015625,0,0,0,,0,98,98,69,1,
,,,,,,,,,,,,,,,,,,569298838d93fe000dfa033c,2020-11-27_10h07.40.884,lexical_decision_task_MP_exp2,2020.2.5,Win32,60,,m,1,0.488845,,,,,,,,0.488845,1,,,,,,39,WORD,"ID",33,insect,INSECT,m,,,,,,0.04296875,-0.41015625,0,0,0,,0,99,99,38,1,
,,,,,,,,,,,,,,,,,,569298838d93fe000dfa033c,2020-11-27_10h07.40.884,lexical_decision_task_MP_exp2,2020.2.5,Win32,60,,z,1,0.57503,,,,,,,,0.57503,1,,,,,,274,NW,"ID",33,fumblo,FUMBLO,z,,,,,,0.04296875,-0.41015625,0,0,0,,0,100,100,273,1,
,,,,,,,,,,,,,,,,,,569298838d93fe000dfa033c,2020-11-27_10h07.40.884,lexical_decision_task_MP_exp2,2020.2.5,Win32,60,,m,1,0.46369,,,,,,,,0.46369,1,,,,,,53,WORD,"ID",33,police,POLICE,m,,,,,,0.04296875,-0.41015625,0,0,0,,0,101,101,52,1,
,,,,,,,,,,,,,,,,,,569298838d93fe000dfa033c,2020-11-27_10h07.40.884,lexical_decision_task_MP_exp2,2020.2.5,Win32,60,,z,1,0.566,,,,,,,,0.566,1,,,,,,321,NW,"ID",16,miator,MIATOR,z,,,,,,0.04296875,-0.41015625,0,0,0,,0,102,102,320,1,
,,,,,,,,,,,,,,,,,,569298838d93fe000dfa033c,2020-11-27_10h07.40.884,lexical_decision_task_MP_exp2,2020.2.5,Win32,60,,m,1,0.497225,,,,,,,,0.497225,1,,,,,,211,WORD,UN,16,verify,INFECT,m,,,,,,0.04296875,-0.41015625,0,0,0,,0,103,103,210,1,
,,,,,,,,,,,,,,,,,,569298838d93fe000dfa033c,2020-11-27_10h07.40.884,lexical_decision_task_MP_exp2,2020.2.5,Win32,60,,m,1,0.534845,,,,,,,,0.534845,1,,,,,,83,WORD,"ID",16,result,RESULT,m,,,,,,0.04296875,-0.41015625,0,0,0,,0,104,104,82,1,
,,,,,,,,,,,,,,,,,,569298838d93fe000dfa033c,2020-11-27_10h07.40.884,lexical_decision_task_MP_exp2,2020.2.5,Win32,60,,z,1,0.65072,,,,,,,,0.65072,1,,,,,,355,NW,"ID",16,zingly,ZINGLY,z,,,,,,0.04296875,-0.41015625,0,0,0,,0,105,105,354,1,
,,,,,,,,,,,,,,,,,,569298838d93fe000dfa033c,2020-11-27_10h07.40.884,lexical_decision_task_MP_exp2,2020.2.5,Win32,60,,z,1,0.63513,,,,,,,,0.63513,1,,,,,,327,NW,"ID",16,plenac,PLENAC,z,,,,,,0.04296875,-0.41015625,0,0,0,,0,106,106,326,1,
,,,,,,,,,,,,,,,,,,569298838d93fe000dfa033c,2020-11-27_10h07.40.884,lexical_decision_task_MP_exp2,2020.2.5,Win32,60,,m,1,0.511995,,,,,,,,0.511995,1,,,,,,11,WORD,"ID",33,cruise,CRUISE,m,,,,,,0.04296875,-0.41015625,0,0,0,,0,107,107,10,1,
,,,,,,,,,,,,,,,,,,569298838d93fe000dfa033c,2020-11-27_10h07.40.884,lexical_decision_task_MP_exp2,2020.2.5,Win32,60,,z,1,0.64669,,,,,,,,0.64669,1,,,,,,289,NW,"ID",33,starby,STARBY,z,,,,,,0.04296875,-0.41015625,0,0,0,,0,108,108,288,1,
,,,,,,,,,,,,,,,,,,569298838d93fe000dfa033c,2020-11-27_10h07.40.884,lexical_decision_task_MP_exp2,2020.2.5,Win32,60,,m,1,0.54076,,,,,,,,0.54076,1,,,,,,79,WORD,"ID",16,theory,THEORY,m,,,,,,0.04296875,-0.41015625,0,0,0,,0,109,109,78,1,
,,,,,,,,,,,,,,,,,,569298838d93fe000dfa033c,2020-11-27_10h07.40.884,lexical_decision_task_MP_exp2,2020.2.5,Win32,60,,z,1,0.670945,,,,,,,,0.670945,1,,,,,,441,NW,UN,16,aboune,RASTOE,z,,,,,,0.04296875,-0.41015625,0,0,0,,0,110,110,440,1,
,,,,,,,,,,,,,,,,,,569298838d93fe000dfa033c,2020-11-27_10h07.40.884,lexical_decision_task_MP_exp2,2020.2.5,Win32,60,,m,1,0.553895,,,,,,,,0.553895,1,,,,,,92,WORD,"ID",16,strand,STRAND,m,,,,,,0.04296875,-0.41015625,0,0,0,,0,111,111,91,1,
,,,,,,,,,,,,,,,,,,569298838d93fe000dfa033c,2020-11-27_10h07.40.884,lexical_decision_task_MP_exp2,2020.2.5,Win32,60,,m,1,0.50253,,,,,,,,0.50253,1,,,,,,103,WORD,"ID",16,bounce,BOUNCE,m,,,,,,0.04296875,-0.41015625,0,0,0,,0,112,112,102,1,
,,,,,,,,,,,,,,,,,,569298838d93fe000dfa033c,2020-11-27_10h07.40.884,lexical_decision_task_MP_exp2,2020.2.5,Win32,60,,z,1,0.58701,,,,,,,,0.58701,1,,,,,,459,NW,UN,16,mingar,BAFENT,z,,,,,,0.04296875,-0.41015625,0,0,0,,0,113,113,458,1,
,,,,,,,,,,,,,,,,,,569298838d93fe000dfa033c,2020-11-27_10h07.40.884,lexical_decision_task_MP_exp2,2020.2.5,Win32,60,,m,1,0.500315,,,,,,,,0.500315,1,,,,,,217,WORD,UN,16,shrink,LIQUOR,m,,,,,,0.04296875,-0.41015625,0,0,0,,0,114,114,216,1,
,,,,,,,,,,,,,,,,,,569298838d93fe000dfa033c,2020-11-27_10h07.40.884,lexical_decision_task_MP_exp2,2020.2.5,Win32,60,,m,1,0.50535,,,,,,,,0.50535,1,,,,,,105,WORD,"ID",16,number,NUMBER,m,,,,,,0.04296875,-0.41015625,0,0,0,,0,115,115,104,1,
,,,,,,,,,,,,,,,,,,569298838d93fe000dfa033c,2020-11-27_10h07.40.884,lexical_decision_task_MP_exp2,2020.2.5,Win32,60,,z,1,0.54913,,,,,,,,0.54913,1,,,,,,334,NW,"ID",16,watmeg,WATMEG,z,,,,,,0.04296875,-0.41015625,0,0,0,,0,116,116,333,1,
,,,,,,,,,,,,,,,,,,569298838d93fe000dfa033c,2020-11-27_10h07.40.884,lexical_decision_task_MP_exp2,2020.2.5,Win32,60,,m,1,0.496445,,,,,,,,0.496445,1,,,,,,88,WORD,"ID",16,hunger,HUNGER,m,,,,,,0.04296875,-0.41015625,0,0,0,,0,117,117,87,1,
,,,,,,,,,,,,,,,,,,569298838d93fe000dfa033c,2020-11-27_10h07.40.884,lexical_decision_task_MP_exp2,2020.2.5,Win32,60,,m,1,0.53093,,,,,,,,0.53093,1,,,,,,5,WORD,"ID",33,plunge,PLUNGE,m,,,,,,0.04296875,-0.41015625,0,0,0,,0,118,118,4,1,
,,,,,,,,,,,,,,,,,,569298838d93fe000dfa033c,2020-11-27_10h07.40.884,lexical_decision_task_MP_exp2,2020.2.5,Win32,60,,z,1,0.531705,,,,,,,,0.531705,1,,,,,,263,NW,"ID",33,dolica,DOLICA,z,,,,,,0.04296875,-0.41015625,0,0,0,,0,119,119,262,1,
,,,,,,,,,,,,,,,,,,569298838d93fe000dfa033c,2020-11-27_10h07.40.884,lexical_decision_task_MP_exp2,2020.2.5,Win32,60,,m,1,0.483395,,,,,,,,0.483395,1,,,,,,25,WORD,"ID",33,domain,DOMAIN,m,,,,,,0.04296875,-0.41015625,0,0,0,space,0,120,120,24,1,15.697185
,,,,,,,,,,,,,,,,,,569298838d93fe000dfa033c,2020-11-27_10h07.40.884,lexical_decision_task_MP_exp2,2020.2.5,Win32,60,,m,1,0.487595,,,,,,,,0.487595,1,,,,,,162,WORD,UN,33,string,CANDLE,m,,,,,,0.04296875,-0.41015625,0,0,0,,0,121,121,161,1,
,,,,,,,,,,,,,,,,,,569298838d93fe000dfa033c,2020-11-27_10h07.40.884,lexical_decision_task_MP_exp2,2020.2.5,Win32,60,,m,1,0.528475,,,,,,,,0.528475,1,,,,,,127,WORD,UN,33,senior,CASTLE,m,,,,,,0.04296875,-0.41015625,0,0,0,,0,122,122,126,1,
,,,,,,,,,,,,,,,,,,569298838d93fe000dfa033c,2020-11-27_10h07.40.884,lexical_decision_task_MP_exp2,2020.2.5,Win32,60,,m,1,0.670685,,,,,,,,0.670685,1,,,,,,50,WORD,"ID",33,snatch,SNATCH,m,,,,,,0.04296875,-0.41015625,0,0,0,,0,123,123,49,1,
,,,,,,,,,,,,,,,,,,569298838d93fe000dfa033c,2020-11-27_10h07.40.884,lexical_decision_task_MP_exp2,2020.2.5,Win32,60,,z,1,0.61123,,,,,,,,0.61123,1,,,,,,318,NW,"ID",16,reagly,REAGLY,z,,,,,,0.04296875,-0.41015625,0,0,0,,0,124,124,317,1,
,,,,,,,,,,,,,,,,,,569298838d93fe000dfa033c,2020-11-27_10h07.40.884,lexical_decision_task_MP_exp2,2020.2.5,Win32,60,,m,1,0.7043,,,,,,,,0.7043,1,,,,,,203,WORD,UN,16,burden,PHRASE,m,,,,,,0.04296875,-0.41015625,0,0,0,,0,125,125,202,1,
,,,,,,,,,,,,,,,,,,569298838d93fe000dfa033c,2020-11-27_10h07.40.884,lexical_decision_task_MP_exp2,2020.2.5,Win32,60,,z,1,0.641795,,,,,,,,0.641795,1,,,,,,473,NW,UN,16,hablin,CRIBLE,z,,,,,,0.04296875,-0.41015625,0,0,0,,0,126,126,472,1,
,,,,,,,,,,,,,,,,,,569298838d93fe000dfa033c,2020-11-27_10h07.40.884,lexical_decision_task_MP_exp2,2020.2.5,Win32,60,,m,1,0.568545,,,,,,,,0.568545,1,,,,,,78,WORD,"ID",16,column,COLUMN,m,,,,,,0.04296875,-0.41015625,0,0,0,,0,127,127,77,1,
,,,,,,,,,,,,,,,,,,569298838d93fe000dfa033c,2020-11-27_10h07.40.884,lexical_decision_task_MP_exp2,2020.2.5,Win32,60,,m,1,0.521645,,,,,,,,0.521645,1,,,,,,220,WORD,UN,16,mascot,VOYAGE,m,,,,,,0.04296875,-0.41015625,0,0,0,,0,128,128,219,1,
,,,,,,,,,,,,,,,,,,569298838d93fe000dfa033c,2020-11-27_10h07.40.884,lexical_decision_task_MP_exp2,2020.2.5,Win32,60,,m,1,0.534405,,,,,,,,0.534405,1,,,,,,145,WORD,UN,33,couple,PARISH,m,,,,,,0.04296875,-0.41015625,0,0,0,,0,129,129,144,1,
,,,,,,,,,,,,,,,,,,569298838d93fe000dfa033c,2020-11-27_10h07.40.884,lexical_decision_task_MP_exp2,2020.2.5,Win32,60,,m,1,0.57679,,,,,,,,0.57679,1,,,,,,29,WORD,"ID",33,sketch,SKETCH,m,,,,,,0.04296875,-0.41015625,0,0,0,,0,130,130,28,1,
,,,,,,,,,,,,,,,,,,569298838d93fe000dfa033c,2020-11-27_10h07.40.884,lexical_decision_task_MP_exp2,2020.2.5,Win32,60,,m,1,0.581965,,,,,,,,0.581965,1,,,,,,76,WORD,"ID",16,exotic,EXOTIC,m,,,,,,0.04296875,-0.41015625,0,0,0,,0,131,131,75,1,
,,,,,,,,,,,,,,,,,,569298838d93fe000dfa033c,2020-11-27_10h07.40.884,lexical_decision_task_MP_exp2,2020.2.5,Win32,60,,m,1,0.547335,,,,,,,,0.547335,1,,,,,,132,WORD,UN,33,bleach,STRONG,m,,,,,,0.04296875,-0.41015625,0,0,0,,0,132,132,131,1,
,,,,,,,,,,,,,,,,,,569298838d93fe000dfa033c,2020-11-27_10h07.40.884,lexical_decision_task_MP_exp2,2020.2.5,Win32,60,,z,1,0.69188,,,,,,,,0.69188,1,,,,,,253,NW,"ID",33,resait,RESAIT,z,,,,,,0.04296875,-0.41015625,0,0,0,,0,133,133,252,1,
,,,,,,,,,,,,,,,,,,569298838d93fe000dfa033c,2020-11-27_10h07.40.884,lexical_decision_task_MP_exp2,2020.2.5,Win32,60,,m,1,0.620105,,,,,,,,0.620105,1,,,,,,68,WORD,"ID",16,fumble,FUMBLE,m,,,,,,0.04296875,-0.41015625,0,0,0,,0,134,134,67,1,
,,,,,,,,,,,,,,,,,,569298838d93fe000dfa033c,2020-11-27_10h07.40.884,lexical_decision_task_MP_exp2,2020.2.5,Win32,60,,z,1,0.59178,,,,,,,,0.59178,1,,,,,,438,NW,UN,16,limpor,BAITCH,z,,,,,,0.04296875,-0.41015625,0,0,0,,0,135,135,437,1,
,,,,,,,,,,,,,,,,,,569298838d93fe000dfa033c,2020-11-27_10h07.40.884,lexical_decision_task_MP_exp2,2020.2.5,Win32,60,,z,1,0.72105,,,,,,,,0.72105,1,,,,,,454,NW,UN,16,tondle,SCOUGE,z,,,,,,0.04296875,-0.41015625,0,0,0,,0,136,136,453,1,
,,,,,,,,,,,,,,,,,,569298838d93fe000dfa033c,2020-11-27_10h07.40.884,lexical_decision_task_MP_exp2,2020.2.5,Win32,60,,m,1,0.60366,,,,,,,,0.60366,1,,,,,,118,WORD,"ID",16,flight,FLIGHT,m,,,,,,0.04296875,-0.41015625,0,0,0,,0,137,137,117,1,
,,,,,,,,,,,,,,,,,,569298838d93fe000dfa033c,2020-11-27_10h07.40.884,lexical_decision_task_MP_exp2,2020.2.5,Win32,60,,m,1,0.573885,,,,,,,,0.573885,1,,,,,,51,WORD,"ID",33,hungry,HUNGRY,m,,,,,,0.04296875,-0.41015625,0,0,0,,0,138,138,50,1,
,,,,,,,,,,,,,,,,,,569298838d93fe000dfa033c,2020-11-27_10h07.40.884,lexical_decision_task_MP_exp2,2020.2.5,Win32,60,,m,1,0.603605,,,,,,,,0.603605,1,,,,,,170,WORD,UN,33,depart,POUNCE,m,,,,,,0.04296875,-0.41015625,0,0,0,,0,139,139,169,1,
,,,,,,,,,,,,,,,,,,569298838d93fe000dfa033c,2020-11-27_10h07.40.884,lexical_decision_task_MP_exp2,2020.2.5,Win32,60,,z,1,0.64304,,,,,,,,0.64304,1,,,,,,469,NW,UN,16,crudio,PADIFS,z,,,,,,0.04296875,-0.41015625,0,0,0,,0,140,140,468,1,
,,,,,,,,,,,,,,,,,,569298838d93fe000dfa033c,2020-11-27_10h07.40.884,lexical_decision_task_MP_exp2,2020.2.5,Win32,60,,m,1,0.610555,,,,,,,,0.610555,1,,,,,,240,WORD,UN,16,glance,FOREST,m,,,,,,0.04296875,-0.41015625,0,0,0,,0,141,141,239,1,
,,,,,,,,,,,,,,,,,,569298838d93fe000dfa033c,2020-11-27_10h07.40.884,lexical_decision_task_MP_exp2,2020.2.5,Win32,60,,m,1,0.629525,,,,,,,,0.629525,1,,,,,,32,WORD,"ID",33,buckle,BUCKLE,m,,,,,,0.04296875,-0.41015625,0,0,0,,0,142,142,31,1,
,,,,,,,,,,,,,,,,,,569298838d93fe000dfa033c,2020-11-27_10h07.40.884,lexical_decision_task_MP_exp2,2020.2.5,Win32,60,,m,1,0.662425,,,,,,,,0.662425,1,,,,,,183,WORD,UN,16,sleazy,MILDEW,m,,,,,,0.04296875,-0.41015625,0,0,0,,0,143,143,182,1,
,,,,,,,,,,,,,,,,,,569298838d93fe000dfa033c,2020-11-27_10h07.40.884,lexical_decision_task_MP_exp2,2020.2.5,Win32,60,,m,1,0.604685,,,,,,,,0.604685,1,,,,,,4,WORD,"ID",33,trench,TRENCH,m,,,,,,0.04296875,-0.41015625,0,0,0,,0,144,144,3,1,
,,,,,,,,,,,,,,,,,,569298838d93fe000dfa033c,2020-11-27_10h07.40.884,lexical_decision_task_MP_exp2,2020.2.5,Win32,60,,z,1,0.67186,,,,,,,,0.67186,1,,,,,,292,NW,"ID",33,ablint,ABLINT,z,,,,,,0.04296875,-0.41015625,0,0,0,,0,145,145,291,1,
,,,,,,,,,,,,,,,,,,569298838d93fe000dfa033c,2020-11-27_10h07.40.884,lexical_decision_task_MP_exp2,2020.2.5,Win32,60,,z,1,0.593715,,,,,,,,0.593715,1,,,,,,382,NW,UN,33,aungre,SARLEY,z,,,,,,0.04296875,-0.41015625,0,0,0,,0,146,146,381,1,
,,,,,,,,,,,,,,,,,,569298838d93fe000dfa033c,2020-11-27_10h07.40.884,lexical_decision_task_MP_exp2,2020.2.5,Win32,60,,z,1,0.61486,,,,,,,,0.61486,1,,,,,,257,NW,"ID",33,veniod,VENIOD,z,,,,,,0.04296875,-0.41015625,0,0,0,,0,147,147,256,1,
,,,,,,,,,,,,,,,,,,569298838d93fe000dfa033c,2020-11-27_10h07.40.884,lexical_decision_task_MP_exp2,2020.2.5,Win32,60,,m,1,0.603395,,,,,,,,0.603395,1,,,,,,45,WORD,"ID",33,clergy,CLERGY,m,,,,,,0.04296875,-0.41015625,0,0,0,,0,148,148,44,1,
,,,,,,,,,,,,,,,,,,569298838d93fe000dfa033c,2020-11-27_10h07.40.884,lexical_decision_task_MP_exp2,2020.2.5,Win32,60,,z,1,0.636595,,,,,,,,0.636595,1,,,,,,437,NW,UN,16,baitch,SNAPEL,z,,,,,,0.04296875,-0.41015625,0,0,0,,0,149,149,436,1,
,,,,,,,,,,,,,,,,,,569298838d93fe000dfa033c,2020-11-27_10h07.40.884,lexical_decision_task_MP_exp2,2020.2.5,Win32,60,,m,0,0.51773,,,,,,,,0.51773,0,,,,,,325,NW,"ID",16,thruse,THRUSE,z,,,,,,0.04296875,-0.41015625,0,0,0,,0,150,150,324,1,
,,,,,,,,,,,,,,,,,,569298838d93fe000dfa033c,2020-11-27_10h07.40.884,lexical_decision_task_MP_exp2,2020.2.5,Win32,60,,z,1,0.619635,,,,,,,,0.619635,1,,,,,,399,NW,UN,33,wearox,FOURET,z,,,,,,0.04296875,-0.41015625,0,0,0,,0,151,151,398,1,
,,,,,,,,,,,,,,,,,,569298838d93fe000dfa033c,2020-11-27_10h07.40.884,lexical_decision_task_MP_exp2,2020.2.5,Win32,60,,m,1,0.56329,,,,,,,,0.56329,1,,,,,,142,WORD,UN,33,orphan,SPRUCE,m,,,,,,0.04296875,-0.41015625,0,0,0,,0,152,152,141,1,
,,,,,,,,,,,,,,,,,,569298838d93fe000dfa033c,2020-11-27_10h07.40.884,lexical_decision_task_MP_exp2,2020.2.5,Win32,60,,z,1,0.57854,,,,,,,,0.57854,1,,,,,,280,NW,"ID",33,curbol,CURBOL,z,,,,,,0.04296875,-0.41015625,0,0,0,,0,153,153,279,1,
,,,,,,,,,,,,,,,,,,569298838d93fe000dfa033c,2020-11-27_10h07.40.884,lexical_decision_task_MP_exp2,2020.2.5,Win32,60,,z,1,0.64589,,,,,,,,0.64589,1,,,,,,265,NW,"ID",33,distar,DISTAR,z,,,,,,0.04296875,-0.41015625,0,0,0,,0,154,154,264,1,
,,,,,,,,,,,,,,,,,,569298838d93fe000dfa033c,2020-11-27_10h07.40.884,lexical_decision_task_MP_exp2,2020.2.5,Win32,60,,z,1,0.75492,,,,,,,,0.75492,1,,,,,,353,NW,"ID",16,clurey,CLUREY,z,,,,,,0.04296875,-0.41015625,0,0,0,,0,155,155,352,1,
,,,,,,,,,,,,,,,,,,569298838d93fe000dfa033c,2020-11-27_10h07.40.884,lexical_decision_task_MP_exp2,2020.2.5,Win32,60,,z,1,0.595975,,,,,,,,0.595975,1,,,,,,453,NW,UN,16,scouge,BOLVIS,z,,,,,,0.04296875,-0.41015625,0,0,0,,0,156,156,452,1,
,,,,,,,,,,,,,,,,,,569298838d93fe000dfa033c,2020-11-27_10h07.40.884,lexical_decision_task_MP_exp2,2020.2.5,Win32,60,,z,1,0.6227,,,,,,,,0.6227,1,,,,,,443,NW,UN,16,jaunce,DORSEX,z,,,,,,0.04296875,-0.41015625,0,0,0,,0,157,157,442,1,
,,,,,,,,,,,,,,,,,,569298838d93fe000dfa033c,2020-11-27_10h07.40.884,lexical_decision_task_MP_exp2,2020.2.5,Win32,60,,z,1,0.696655,,,,,,,,0.696655,1,,,,,,402,NW,UN,33,bruats,SYNTIC,z,,,,,,0.04296875,-0.41015625,0,0,0,,0,158,158,401,1,
,,,,,,,,,,,,,,,,,,569298838d93fe000dfa033c,2020-11-27_10h07.40.884,lexical_decision_task_MP_exp2,2020.2.5,Win32,60,,m,1,0.564755,,,,,,,,0.564755,1,,,,,,219,WORD,UN,16,voyage,BUCKET,m,,,,,,0.04296875,-0.41015625,0,0,0,,0,159,159,218,1,
,,,,,,,,,,,,,,,,,,569298838d93fe000dfa033c,2020-11-27_10h07.40.884,lexical_decision_task_MP_exp2,2020.2.5,Win32,60,,m,1,0.55278,,,,,,,,0.55278,1,,,,,,58,WORD,"ID",33,foster,FOSTER,m,,,,,,0.04296875,-0.41015625,0,0,0,,0,160,160,57,1,
,,,,,,,,,,,,,,,,,,569298838d93fe000dfa033c,2020-11-27_10h07.40.884,lexical_decision_task_MP_exp2,2020.2.5,Win32,60,,m,1,0.60176,,,,,,,,0.60176,1,,,,,,149,WORD,UN,33,random,INVADE,m,,,,,,0.04296875,-0.41015625,0,0,0,,0,161,161,148,1,
,,,,,,,,,,,,,,,,,,569298838d93fe000dfa033c,2020-11-27_10h07.40.884,lexical_decision_task_MP_exp2,2020.2.5,Win32,60,,z,1,0.6144,,,,,,,,0.6144,1,,,,,,418,NW,UN,33,slount,SUIDLE,z,,,,,,0.04296875,-0.41015625,0,0,0,,0,162,162,417,1,
,,,,,,,,,,,,,,,,,,569298838d93fe000dfa033c,2020-11-27_10h07.40.884,lexical_decision_task_MP_exp2,2020.2.5,Win32,60,,m,1,0.531325,,,,,,,,0.531325,1,,,,,,165,WORD,UN,33,starch,INVEST,m,,,,,,0.04296875,-0.41015625,0,0,0,,0,163,163,164,1,
,,,,,,,,,,,,,,,,,,569298838d93fe000dfa033c,2020-11-27_10h07.40.884,lexical_decision_task_MP_exp2,2020.2.5,Win32,60,,z,1,0.670765,,,,,,,,0.670765,1,,,,,,319,NW,"ID",16,zomber,ZOMBER,z,,,,,,0.04296875,-0.41015625,0,0,0,,0,164,164,318,1,
,,,,,,,,,,,,,,,,,,569298838d93fe000dfa033c,2020-11-27_10h07.40.884,lexical_decision_task_MP_exp2,2020.2.5,Win32,60,,z,1,0.636385,,,,,,,,0.636385,1,,,,,,432,NW,UN,16,drance,LUNKER,z,,,,,,0.04296875,-0.41015625,0,0,0,,0,165,165,431,1,
,,,,,,,,,,,,,,,,,,569298838d93fe000dfa033c,2020-11-27_10h07.40.884,lexical_decision_task_MP_exp2,2020.2.5,Win32,60,,m,1,0.50714,,,,,,,,0.50714,1,,,,,,128,WORD,UN,33,marvel,SENIOR,m,,,,,,0.04296875,-0.41015625,0,0,0,,0,166,166,127,1,
,,,,,,,,,,,,,,,,,,569298838d93fe000dfa033c,2020-11-27_10h07.40.884,lexical_decision_task_MP_exp2,2020.2.5,Win32,60,,m,1,0.66204,,,,,,,,0.66204,1,,,,,,189,WORD,UN,16,backup,CENSOR,m,,,,,,0.04296875,-0.41015625,0,0,0,,0,167,167,188,1,
,,,,,,,,,,,,,,,,,,569298838d93fe000dfa033c,2020-11-27_10h07.40.884,lexical_decision_task_MP_exp2,2020.2.5,Win32,60,,m,1,0.536915,,,,,,,,0.536915,1,,,,,,104,WORD,"ID",16,studio,STUDIO,m,,,,,,0.04296875,-0.41015625,0,0,0,,0,168,168,103,1,
,,,,,,,,,,,,,,,,,,569298838d93fe000dfa033c,2020-11-27_10h07.40.884,lexical_decision_task_MP_exp2,2020.2.5,Win32,60,,z,1,0.561455,,,,,,,,0.561455,1,,,,,,408,NW,UN,33,flumni,HURNIA,z,,,,,,0.04296875,-0.41015625,0,0,0,,0,169,169,407,1,
,,,,,,,,,,,,,,,,,,569298838d93fe000dfa033c,2020-11-27_10h07.40.884,lexical_decision_task_MP_exp2,2020.2.5,Win32,60,,z,1,0.59362,,,,,,,,0.59362,1,,,,,,430,NW,UN,16,funtle,CAROEY,z,,,,,,0.04296875,-0.41015625,0,0,0,,0,170,170,429,1,
,,,,,,,,,,,,,,,,,,569298838d93fe000dfa033c,2020-11-27_10h07.40.884,lexical_decision_task_MP_exp2,2020.2.5,Win32,60,,m,1,0.58685,,,,,,,,0.58685,1,,,,,,107,WORD,"ID",16,slogan,SLOGAN,m,,,,,,0.04296875,-0.41015625,0,0,0,,0,171,171,106,1,
,,,,,,,,,,,,,,,,,,569298838d93fe000dfa033c,2020-11-27_10h07.40.884,lexical_decision_task_MP_exp2,2020.2.5,Win32,60,,m,1,0.537695,,,,,,,,0.537695,1,,,,,,101,WORD,"ID",16,wrench,WRENCH,m,,,,,,0.04296875,-0.41015625,0,0,0,,0,172,172,100,1,
,,,,,,,,,,,,,,,,,,569298838d93fe000dfa033c,2020-11-27_10h07.40.884,lexical_decision_task_MP_exp2,2020.2.5,Win32,60,,m,1,0.57773,,,,,,,,0.57773,1,,,,,,171,WORD,UN,33,patrol,DEPART,m,,,,,,0.04296875,-0.41015625,0,0,0,,0,173,173,170,1,
,,,,,,,,,,,,,,,,,,569298838d93fe000dfa033c,2020-11-27_10h07.40.884,lexical_decision_task_MP_exp2,2020.2.5,Win32,60,,m,1,0.600415,,,,,,,,0.600415,1,,,,,,157,WORD,UN,33,island,DRAGON,m,,,,,,0.04296875,-0.41015625,0,0,0,,0,174,174,156,1,
,,,,,,,,,,,,,,,,,,569298838d93fe000dfa033c,2020-11-27_10h07.40.884,lexical_decision_task_MP_exp2,2020.2.5,Win32,60,,m,1,0.623995,,,,,,,,0.623995,1,,,,,,138,WORD,UN,33,staple,MELODY,m,,,,,,0.04296875,-0.41015625,0,0,0,,0,175,175,137,1,
,,,,,,,,,,,,,,,,,,569298838d93fe000dfa033c,2020-11-27_10h07.40.884,lexical_decision_task_MP_exp2,2020.2.5,Win32,60,,z,1,0.57505,,,,,,,,0.57505,1,,,,,,394,NW,UN,33,colury,SPAQUX,z,,,,,,0.04296875,-0.41015625,0,0,0,,0,176,176,393,1,
,,,,,,,,,,,,,,,,,,569298838d93fe000dfa033c,2020-11-27_10h07.40.884,lexical_decision_task_MP_exp2,2020.2.5,Win32,60,,z,1,0.771585,,,,,,,,0.771585,1,,,,,,348,NW,"ID",16,dumple,DUMPLE,z,,,,,,0.04296875,-0.41015625,0,0,0,,0,177,177,347,1,
,,,,,,,,,,,,,,,,,,569298838d93fe000dfa033c,2020-11-27_10h07.40.884,lexical_decision_task_MP_exp2,2020.2.5,Win32,60,,z,1,0.65402,,,,,,,,0.65402,1,,,,,,421,NW,UN,16,alcoud,KNISMA,z,,,,,,0.04296875,-0.41015625,0,0,0,,0,178,178,420,1,
,,,,,,,,,,,,,,,,,,569298838d93fe000dfa033c,2020-11-27_10h07.40.884,lexical_decision_task_MP_exp2,2020.2.5,Win32,60,,z,1,0.671805,,,,,,,,0.671805,1,,,,,,479,NW,UN,16,josted,LOBUSH,z,,,,,,0.04296875,-0.41015625,0,0,0,,0,179,179,478,1,
,,,,,,,,,,,,,,,,,,569298838d93fe000dfa033c,2020-11-27_10h07.40.884,lexical_decision_task_MP_exp2,2020.2.5,Win32,60,,m,1,0.5405,,,,,,,,0.5405,1,,,,,,23,WORD,"ID",33,wealth,WEALTH,m,,,,,,0.04296875,-0.41015625,0,0,0,,0,180,180,22,1,
,,,,,,,,,,,,,,,,,,569298838d93fe000dfa033c,2020-11-27_10h07.40.884,lexical_decision_task_MP_exp2,2020.2.5,Win32,60,,z,1,0.621435,,,,,,,,0.621435,1,,,,,,259,NW,"ID",33,soudal,SOUDAL,z,,,,,,0.04296875,-0.41015625,0,0,0,,0,181,181,258,1,
,,,,,,,,,,,,,,,,,,569298838d93fe000dfa033c,2020-11-27_10h07.40.884,lexical_decision_task_MP_exp2,2020.2.5,Win32,60,,m,1,0.576905,,,,,,,,0.576905,1,,,,,,214,WORD,UN,16,phobia,INTAKE,m,,,,,,0.04296875,-0.41015625,0,0,0,,0,182,182,213,1,
,,,,,,,,,,,,,,,,,,569298838d93fe000dfa033c,2020-11-27_10h07.40.884,lexical_decision_task_MP_exp2,2020.2.5,Win32,60,,z,1,0.74778,,,,,,,,0.74778,1,,,,,,398,NW,UN,33,fouret,BLUNDE,z,,,,,,0.04296875,-0.41015625,0,0,0,,0,183,183,397,1,
,,,,,,,,,,,,,,,,,,569298838d93fe000dfa033c,2020-11-27_10h07.40.884,lexical_decision_task_MP_exp2,2020.2.5,Win32,60,,z,1,0.636325,,,,,,,,0.636325,1,,,,,,419,NW,UN,33,gushop,SLOUNT,z,,,,,,0.04296875,-0.41015625,0,0,0,,0,184,184,418,1,
,,,,,,,,,,,,,,,,,,569298838d93fe000dfa033c,2020-11-27_10h07.40.884,lexical_decision_task_MP_exp2,2020.2.5,Win32,60,,m,1,0.67803,,,,,,,,0.67803,1,,,,,,185,WORD,UN,16,portal,BOTHER,m,,,,,,0.04296875,-0.41015625,0,0,0,,0,185,185,184,1,
,,,,,,,,,,,,,,,,,,569298838d93fe000dfa033c,2020-11-27_10h07.40.884,lexical_decision_task_MP_exp2,2020.2.5,Win32,60,,z,1,0.587985,,,,,,,,0.587985,1,,,,,,395,NW,UN,33,flengy,COLURY,z,,,,,,0.04296875,-0.41015625,0,0,0,,0,186,186,394,1,
,,,,,,,,,,,,,,,,,,569298838d93fe000dfa033c,2020-11-27_10h07.40.884,lexical_decision_task_MP_exp2,2020.2.5,Win32,60,,m,1,0.536865,,,,,,,,0.536865,1,,,,,,164,WORD,UN,33,invest,MARKET,m,,,,,,0.04296875,-0.41015625,0,0,0,,0,187,187,163,1,
,,,,,,,,,,,,,,,,,,569298838d93fe000dfa033c,2020-11-27_10h07.40.884,lexical_decision_task_MP_exp2,2020.2.5,Win32,60,,z,1,0.586795,,,,,,,,0.586795,1,,,,,,368,NW,UN,33,wronch,HORNAL,z,,,,,,0.04296875,-0.41015625,0,0,0,,0,188,188,367,1,
,,,,,,,,,,,,,,,,,,569298838d93fe000dfa033c,2020-11-27_10h07.40.884,lexical_decision_task_MP_exp2,2020.2.5,Win32,60,,m,1,0.654515,,,,,,,,0.654515,1,,,,,,42,WORD,"ID",33,chapel,CHAPEL,m,,,,,,0.04296875,-0.41015625,0,0,0,,0,189,189,41,1,
,,,,,,,,,,,,,,,,,,569298838d93fe000dfa033c,2020-11-27_10h07.40.884,lexical_decision_task_MP_exp2,2020.2.5,Win32,60,,m,1,0.60474,,,,,,,,0.60474,1,,,,,,134,WORD,UN,33,import,STAPLE,m,,,,,,0.04296875,-0.41015625,0,0,0,,0,190,190,133,1,
,,,,,,,,,,,,,,,,,,569298838d93fe000dfa033c,2020-11-27_10h07.40.884,lexical_decision_task_MP_exp2,2020.2.5,Win32,60,,z,1,0.60146,,,,,,,,0.60146,1,,,,,,312,NW,"ID",16,nerawl,NERAWL,z,,,,,,0.04296875,-0.41015625,0,0,0,,0,191,191,311,1,
,,,,,,,,,,,,,,,,,,569298838d93fe000dfa033c,2020-11-27_10h07.40.884,lexical_decision_task_MP_exp2,2020.2.5,Win32,60,,z,1,0.57055,,,,,,,,0.57055,1,,,,,,249,NW,"ID",33,batrol,BATROL,z,,,,,,0.04296875,-0.41015625,0,0,0,,0,192,192,248,1,
,,,,,,,,,,,,,,,,,,569298838d93fe000dfa033c,2020-11-27_10h07.40.884,lexical_decision_task_MP_exp2,2020.2.5,Win32,60,,m,1,0.597395,,,,,,,,0.597395,1,,,,,,136,WORD,UN,33,finger,BLEACH,m,,,,,,0.04296875,-0.41015625,0,0,0,,0,193,193,135,1,
,,,,,,,,,,,,,,,,,,569298838d93fe000dfa033c,2020-11-27_10h07.40.884,lexical_decision_task_MP_exp2,2020.2.5,Win32,60,,m,1,0.50826,,,,,,,,0.50826,1,,,,,,140,WORD,UN,33,reason,PRINCE,m,,,,,,0.04296875,-0.41015625,0,0,0,,0,194,194,139,1,
,,,,,,,,,,,,,,,,,,569298838d93fe000dfa033c,2020-11-27_10h07.40.884,lexical_decision_task_MP_exp2,2020.2.5,Win32,60,,z,0,0.603205,,,,,,,,0.603205,0,,,,,,192,WORD,UN,16,object,PLAGUE,m,,,,,,0.04296875,-0.41015625,0,0,0,,0,195,195,191,1,
,,,,,,,,,,,,,,,,,,569298838d93fe000dfa033c,2020-11-27_10h07.40.884,lexical_decision_task_MP_exp2,2020.2.5,Win32,60,,z,1,0.696795,,,,,,,,0.696795,1,,,,,,313,NW,"ID",16,paurse,PAURSE,z,,,,,,0.04296875,-0.41015625,0,0,0,,0,196,196,312,1,
,,,,,,,,,,,,,,,,,,569298838d93fe000dfa033c,2020-11-27_10h07.40.884,lexical_decision_task_MP_exp2,2020.2.5,Win32,60,,m,1,0.55358,,,,,,,,0.55358,1,,,,,,235,WORD,UN,16,pirate,GRUMPY,m,,,,,,0.04296875,-0.41015625,0,0,0,,0,197,197,234,1,
,,,,,,,,,,,,,,,,,,569298838d93fe000dfa033c,2020-11-27_10h07.40.884,lexical_decision_task_MP_exp2,2020.2.5,Win32,60,,z,1,0.57787,,,,,,,,0.57787,1,,,,,,300,NW,"ID",33,yarion,YARION,z,,,,,,0.04296875,-0.41015625,0,0,0,,0,198,198,299,1,
,,,,,,,,,,,,,,,,,,569298838d93fe000dfa033c,2020-11-27_10h07.40.884,lexical_decision_task_MP_exp2,2020.2.5,Win32,60,,m,1,0.786735,,,,,,,,0.786735,1,,,,,,176,WORD,UN,33,advent,STRIFE,m,,,,,,0.04296875,-0.41015625,0,0,0,,0,199,199,175,1,
,,,,,,,,,,,,,,,,,,569298838d93fe000dfa033c,2020-11-27_10h07.40.884,lexical_decision_task_MP_exp2,2020.2.5,Win32,60,,z,1,0.7042,,,,,,,,0.7042,1,,,,,,367,NW,UN,33,hornal,SLIQUE,z,,,,,,0.04296875,-0.41015625,0,0,0,,0,200,200,366,1,
,,,,,,,,,,,,,,,,,,569298838d93fe000dfa033c,2020-11-27_10h07.40.884,lexical_decision_task_MP_exp2,2020.2.5,Win32,60,,m,1,0.557505,,,,,,,,0.557505,1,,,,,,123,WORD,UN,33,enough,STRIKE,m,,,,,,0.04296875,-0.41015625,0,0,0,,0,201,201,122,1,
,,,,,,,,,,,,,,,,,,569298838d93fe000dfa033c,2020-11-27_10h07.40.884,lexical_decision_task_MP_exp2,2020.2.5,Win32,60,,m,1,0.589575,,,,,,,,0.589575,1,,,,,,131,WORD,UN,33,strong,QUENCH,m,,,,,,0.04296875,-0.41015625,0,0,0,,0,202,202,130,1,
,,,,,,,,,,,,,,,,,,569298838d93fe000dfa033c,2020-11-27_10h07.40.884,lexical_decision_task_MP_exp2,2020.2.5,Win32,60,,z,1,0.618065,,,,,,,,0.618065,1,,,,,,357,NW,"ID",16,derain,DERAIN,z,,,,,,0.04296875,-0.41015625,0,0,0,,0,203,203,356,1,
,,,,,,,,,,,,,,,,,,569298838d93fe000dfa033c,2020-11-27_10h07.40.884,lexical_decision_task_MP_exp2,2020.2.5,Win32,60,,z,1,0.798605,,,,,,,,0.798605,1,,,,,,342,NW,"ID",16,randow,RANDOW,z,,,,,,0.04296875,-0.41015625,0,0,0,,0,204,204,341,1,
,,,,,,,,,,,,,,,,,,569298838d93fe000dfa033c,2020-11-27_10h07.40.884,lexical_decision_task_MP_exp2,2020.2.5,Win32,60,,m,1,0.62888,,,,,,,,0.62888,1,,,,,,33,WORD,"ID",33,butler,BUTLER,m,,,,,,0.04296875,-0.41015625,0,0,0,,0,205,205,32,1,
,,,,,,,,,,,,,,,,,,569298838d93fe000dfa033c,2020-11-27_10h07.40.884,lexical_decision_task_MP_exp2,2020.2.5,Win32,60,,m,1,0.58637,,,,,,,,0.58637,1,,,,,,90,WORD,"ID",16,relish,RELISH,m,,,,,,0.04296875,-0.41015625,0,0,0,,0,206,206,89,1,
,,,,,,,,,,,,,,,,,,569298838d93fe000dfa033c,2020-11-27_10h07.40.884,lexical_decision_task_MP_exp2,2020.2.5,Win32,60,,m,1,0.66982,,,,,,,,0.66982,1,,,,,,10,WORD,"ID",33,ethnic,ETHNIC,m,,,,,,0.04296875,-0.41015625,0,0,0,,0,207,207,9,1,
,,,,,,,,,,,,,,,,,,569298838d93fe000dfa033c,2020-11-27_10h07.40.884,lexical_decision_task_MP_exp2,2020.2.5,Win32,60,,m,1,0.531125,,,,,,,,0.531125,1,,,,,,229,WORD,UN,16,fringe,MOTHER,m,,,,,,0.04296875,-0.41015625,0,0,0,,0,208,208,228,1,
,,,,,,,,,,,,,,,,,,569298838d93fe000dfa033c,2020-11-27_10h07.40.884,lexical_decision_task_MP_exp2,2020.2.5,Win32,60,,z,1,0.642035,,,,,,,,0.642035,1,,,,,,471,NW,UN,16,cigney,NOBEST,z,,,,,,0.04296875,-0.41015625,0,0,0,,0,209,209,470,1,
,,,,,,,,,,,,,,,,,,569298838d93fe000dfa033c,2020-11-27_10h07.40.884,lexical_decision_task_MP_exp2,2020.2.5,Win32,60,,m,1,0.56521,,,,,,,,0.56521,1,,,,,,61,WORD,"ID",16,ponder,PONDER,m,,,,,,0.04296875,-0.41015625,0,0,0,,0,210,210,60,1,
,,,,,,,,,,,,,,,,,,569298838d93fe000dfa033c,2020-11-27_10h07.40.884,lexical_decision_task_MP_exp2,2020.2.5,Win32,60,,m,1,0.5424,,,,,,,,0.5424,1,,,,,,44,WORD,"ID",33,danger,DANGER,m,,,,,,0.04296875,-0.41015625,0,0,0,,0,211,211,43,1,
,,,,,,,,,,,,,,,,,,569298838d93fe000dfa033c,2020-11-27_10h07.40.884,lexical_decision_task_MP_exp2,2020.2.5,Win32,60,,m,1,0.53429,,,,,,,,0.53429,1,,,,,,190,WORD,UN,16,stable,BACKUP,m,,,,,,0.04296875,-0.41015625,0,0,0,,0,212,212,189,1,
,,,,,,,,,,,,,,,,,,569298838d93fe000dfa033c,2020-11-27_10h07.40.884,lexical_decision_task_MP_exp2,2020.2.5,Win32,60,,m,1,0.604845,,,,,,,,0.604845,1,,,,,,106,WORD,"ID",16,ransom,RANSOM,m,,,,,,0.04296875,-0.41015625,0,0,0,,0,213,213,105,1,
,,,,,,,,,,,,,,,,,,569298838d93fe000dfa033c,2020-11-27_10h07.40.884,lexical_decision_task_MP_exp2,2020.2.5,Win32,60,,m,1,0.58003,,,,,,,,0.58003,1,,,,,,232,WORD,UN,16,nature,INJECT,m,,,,,,0.04296875,-0.41015625,0,0,0,,0,214,214,231,1,
,,,,,,,,,,,,,,,,,,569298838d93fe000dfa033c,2020-11-27_10h07.40.884,lexical_decision_task_MP_exp2,2020.2.5,Win32,60,,z,1,0.75837,,,,,,,,0.75837,1,,,,,,470,NW,UN,16,nobest,CRUDIO,z,,,,,,0.04296875,-0.41015625,0,0,0,,0,215,215,469,1,
,,,,,,,,,,,,,,,,,,569298838d93fe000dfa033c,2020-11-27_10h07.40.884,lexical_decision_task_MP_exp2,2020.2.5,Win32,60,,m,1,0.573535,,,,,,,,0.573535,1,,,,,,110,WORD,"ID",16,polite,POLITE,m,,,,,,0.04296875,-0.41015625,0,0,0,,0,216,216,109,1,
,,,,,,,,,,,,,,,,,,569298838d93fe000dfa033c,2020-11-27_10h07.40.884,lexical_decision_task_MP_exp2,2020.2.5,Win32,60,,m,1,0.70235,,,,,,,,0.70235,1,,,,,,24,WORD,"ID",33,praise,PRAISE,m,,,,,,0.04296875,-0.41015625,0,0,0,,0,217,217,23,1,
,,,,,,,,,,,,,,,,,,569298838d93fe000dfa033c,2020-11-27_10h07.40.884,lexical_decision_task_MP_exp2,2020.2.5,Win32,60,,m,1,0.520245,,,,,,,,0.520245,1,,,,,,208,WORD,UN,16,search,HOCKEY,m,,,,,,0.04296875,-0.41015625,0,0,0,,0,218,218,207,1,
,,,,,,,,,,,,,,,,,,569298838d93fe000dfa033c,2020-11-27_10h07.40.884,lexical_decision_task_MP_exp2,2020.2.5,Win32,60,,m,1,0.554125,,,,,,,,0.554125,1,,,,,,182,WORD,UN,16,basket,WINTER,m,,,,,,0.04296875,-0.41015625,0,0,0,,0,219,219,181,1,
,,,,,,,,,,,,,,,,,,569298838d93fe000dfa033c,2020-11-27_10h07.40.884,lexical_decision_task_MP_exp2,2020.2.5,Win32,60,,m,1,0.54679,,,,,,,,0.54679,1,,,,,,191,WORD,UN,16,absent,STABLE,m,,,,,,0.04296875,-0.41015625,0,0,0,,0,220,220,190,1,
,,,,,,,,,,,,,,,,,,569298838d93fe000dfa033c,2020-11-27_10h07.40.884,lexical_decision_task_MP_exp2,2020.2.5,Win32,60,,z,1,0.63806,,,,,,,,0.63806,1,,,,,,363,NW,UN,33,impote,BREALI,z,,,,,,0.04296875,-0.41015625,0,0,0,,0,221,221,362,1,
,,,,,,,,,,,,,,,,,,569298838d93fe000dfa033c,2020-11-27_10h07.40.884,lexical_decision_task_MP_exp2,2020.2.5,Win32,60,,m,1,0.587005,,,,,,,,0.587005,1,,,,,,161,WORD,UN,33,candle,PASTOR,m,,,,,,0.04296875,-0.41015625,0,0,0,,0,222,222,160,1,
,,,,,,,,,,,,,,,,,,569298838d93fe000dfa033c,2020-11-27_10h07.40.884,lexical_decision_task_MP_exp2,2020.2.5,Win32,60,,m,1,0.55739,,,,,,,,0.55739,1,,,,,,55,WORD,"ID",33,stroke,STROKE,m,,,,,,0.04296875,-0.41015625,0,0,0,,0,223,223,54,1,
,,,,,,,,,,,,,,,,,,569298838d93fe000dfa033c,2020-11-27_10h07.40.884,lexical_decision_task_MP_exp2,2020.2.5,Win32,60,,m,1,0.613485,,,,,,,,0.613485,1,,,,,,234,WORD,UN,16,lumber,CLUMSY,m,,,,,,0.04296875,-0.41015625,0,0,0,,0,224,224,233,1,
,,,,,,,,,,,,,,,,,,569298838d93fe000dfa033c,2020-11-27_10h07.40.884,lexical_decision_task_MP_exp2,2020.2.5,Win32,60,,m,1,0.60482,,,,,,,,0.60482,1,,,,,,172,WORD,UN,33,shower,PATROL,m,,,,,,0.04296875,-0.41015625,0,0,0,,0,225,225,171,1,
,,,,,,,,,,,,,,,,,,569298838d93fe000dfa033c,2020-11-27_10h07.40.884,lexical_decision_task_MP_exp2,2020.2.5,Win32,60,,m,1,0.5586,,,,,,,,0.5586,1,,,,,,36,WORD,"ID",33,vanish,VANISH,m,,,,,,0.04296875,-0.41015625,0,0,0,,0,226,226,35,1,
,,,,,,,,,,,,,,,,,,569298838d93fe000dfa033c,2020-11-27_10h07.40.884,lexical_decision_task_MP_exp2,2020.2.5,Win32,60,,z,1,0.60283,,,,,,,,0.60283,1,,,,,,455,NW,UN,16,broget,TONDLE,z,,,,,,0.04296875,-0.41015625,0,0,0,,0,227,227,454,1,
,,,,,,,,,,,,,,,,,,569298838d93fe000dfa033c,2020-11-27_10h07.40.884,lexical_decision_task_MP_exp2,2020.2.5,Win32,60,,m,1,0.63935,,,,,,,,0.63935,1,,,,,,222,WORD,UN,16,casino,HINDER,m,,,,,,0.04296875,-0.41015625,0,0,0,,0,228,228,221,1,
,,,,,,,,,,,,,,,,,,569298838d93fe000dfa033c,2020-11-27_10h07.40.884,lexical_decision_task_MP_exp2,2020.2.5,Win32,60,,z,1,0.785245,,,,,,,,0.785245,1,,,,,,378,NW,UN,33,auting,SHRILE,z,,,,,,0.04296875,-0.41015625,0,0,0,,0,229,229,377,1,
,,,,,,,,,,,,,,,,,,569298838d93fe000dfa033c,2020-11-27_10h07.40.884,lexical_decision_task_MP_exp2,2020.2.5,Win32,60,,z,1,0.887255,,,,,,,,0.887255,1,,,,,,425,NW,UN,16,schind,FRUDGE,z,,,,,,0.04296875,-0.41015625,0,0,0,,0,230,230,424,1,
,,,,,,,,,,,,,,,,,,569298838d93fe000dfa033c,2020-11-27_10h07.40.884,lexical_decision_task_MP_exp2,2020.2.5,Win32,60,,z,1,0.63728,,,,,,,,0.63728,1,,,,,,420,NW,UN,33,pauche,GUSHOP,z,,,,,,0.04296875,-0.41015625,0,0,0,,0,231,231,419,1,
,,,,,,,,,,,,,,,,,,569298838d93fe000dfa033c,2020-11-27_10h07.40.884,lexical_decision_task_MP_exp2,2020.2.5,Win32,60,,m,0,0.52624,,,,,,,,0.52624,0,,,,,,335,NW,"ID",16,desion,DESION,z,,,,,,0.04296875,-0.41015625,0,0,0,,0,232,232,334,1,
,,,,,,,,,,,,,,,,,,569298838d93fe000dfa033c,2020-11-27_10h07.40.884,lexical_decision_task_MP_exp2,2020.2.5,Win32,60,,z,1,0.596755,,,,,,,,0.596755,1,,,,,,276,NW,"ID",33,yarmon,YARMON,z,,,,,,0.04296875,-0.41015625,0,0,0,,0,233,233,275,1,
,,,,,,,,,,,,,,,,,,569298838d93fe000dfa033c,2020-11-27_10h07.40.884,lexical_decision_task_MP_exp2,2020.2.5,Win32,60,,m,1,0.52535,,,,,,,,0.52535,1,,,,,,175,WORD,UN,33,strife,FABRIC,m,,,,,,0.04296875,-0.41015625,0,0,0,,0,234,234,174,1,
,,,,,,,,,,,,,,,,,,569298838d93fe000dfa033c,2020-11-27_10h07.40.884,lexical_decision_task_MP_exp2,2020.2.5,Win32,60,,z,1,0.646445,,,,,,,,0.646445,1,,,,,,392,NW,UN,33,ganous,ROUNCY,z,,,,,,0.04296875,-0.41015625,0,0,0,,0,235,235,391,1,
,,,,,,,,,,,,,,,,,,569298838d93fe000dfa033c,2020-11-27_10h07.40.884,lexical_decision_task_MP_exp2,2020.2.5,Win32,60,,z,1,0.63786,,,,,,,,0.63786,1,,,,,,251,NW,"ID",33,lupict,LUPICT,z,,,,,,0.04296875,-0.41015625,0,0,0,,0,236,236,250,1,
,,,,,,,,,,,,,,,,,,569298838d93fe000dfa033c,2020-11-27_10h07.40.884,lexical_decision_task_MP_exp2,2020.2.5,Win32,60,,z,1,0.588065,,,,,,,,0.588065,1,,,,,,468,NW,UN,16,padifs,WICTOR,z,,,,,,0.04296875,-0.41015625,0,0,0,,0,237,237,467,1,
,,,,,,,,,,,,,,,,,,569298838d93fe000dfa033c,2020-11-27_10h07.40.884,lexical_decision_task_MP_exp2,2020.2.5,Win32,60,,z,1,0.60961,,,,,,,,0.60961,1,,,,,,407,NW,UN,33,hurnia,SUIVER,z,,,,,,0.04296875,-0.41015625,0,0,0,,0,238,238,406,1,
,,,,,,,,,,,,,,,,,,569298838d93fe000dfa033c,2020-11-27_10h07.40.884,lexical_decision_task_MP_exp2,2020.2.5,Win32,60,,z,1,0.62944,,,,,,,,0.62944,1,,,,,,404,NW,UN,33,syntic,CLUIRM,z,,,,,,0.04296875,-0.41015625,0,0,0,,0,239,239,403,1,
,,,,,,,,,,,,,,,,,,569298838d93fe000dfa033c,2020-11-27_10h07.40.884,lexical_decision_task_MP_exp2,2020.2.5,Win32,60,,z,1,0.60695,,,,,,,,0.60695,1,,,,,,386,NW,UN,33,gronce,ANCUST,z,,,,,,0.04296875,-0.41015625,0,0,0,,0,240,240,385,1,
,,,,,,,,,,,,,,,,,,569298838d93fe000dfa033c,2020-11-27_10h07.40.884,lexical_decision_task_MP_exp2,2020.2.5,Win32,60,,m,1,0.72018,,,,,,,,0.72018,1,,,,,,8,WORD,"ID",33,abrupt,ABRUPT,m,,,,,,0.04296875,-0.41015625,0,0,0,space,0,241,241,7,1,16.63935
,,,,,,,,,,,,,,,,,,569298838d93fe000dfa033c,2020-11-27_10h07.40.884,lexical_decision_task_MP_exp2,2020.2.5,Win32,60,,z,1,0.9264,,,,,,,,0.9264,1,,,,,,298,NW,"ID",33,piergy,PIERGY,z,,,,,,0.04296875,-0.41015625,0,0,0,,0,242,242,297,1,
,,,,,,,,,,,,,,,,,,569298838d93fe000dfa033c,2020-11-27_10h07.40.884,lexical_decision_task_MP_exp2,2020.2.5,Win32,60,,m,1,0.56351,,,,,,,,0.56351,1,,,,,,84,WORD,"ID",16,mortal,MORTAL,m,,,,,,0.04296875,-0.41015625,0,0,0,,0,243,243,83,1,
,,,,,,,,,,,,,,,,,,569298838d93fe000dfa033c,2020-11-27_10h07.40.884,lexical_decision_task_MP_exp2,2020.2.5,Win32,60,,m,1,0.66242,,,,,,,,0.66242,1,,,,,,218,WORD,UN,16,bucket,SHRINK,m,,,,,,0.04296875,-0.41015625,0,0,0,,0,244,244,217,1,
,,,,,,,,,,,,,,,,,,569298838d93fe000dfa033c,2020-11-27_10h07.40.884,lexical_decision_task_MP_exp2,2020.2.5,Win32,60,,m,1,0.556225,,,,,,,,0.556225,1,,,,,,124,WORD,UN,33,nickel,BLOUSE,m,,,,,,0.04296875,-0.41015625,0,0,0,,0,245,245,123,1,
,,,,,,,,,,,,,,,,,,569298838d93fe000dfa033c,2020-11-27_10h07.40.884,lexical_decision_task_MP_exp2,2020.2.5,Win32,60,,m,1,0.645935,,,,,,,,0.645935,1,,,,,,20,WORD,"ID",33,breast,BREAST,m,,,,,,0.04296875,-0.41015625,0,0,0,,0,246,246,19,1,
,,,,,,,,,,,,,,,,,,569298838d93fe000dfa033c,2020-11-27_10h07.40.884,lexical_decision_task_MP_exp2,2020.2.5,Win32,60,,m,0,0.70941,,,,,,,,0.70941,0,,,,,,266,NW,"ID",33,varmit,VARMIT,z,,,,,,0.04296875,-0.41015625,0,0,0,,0,247,247,265,1,
,,,,,,,,,,,,,,,,,,569298838d93fe000dfa033c,2020-11-27_10h07.40.884,lexical_decision_task_MP_exp2,2020.2.5,Win32,60,,z,0,0.637865,,,,,,,,0.637865,0,,,,,,237,WORD,UN,16,seldom,POSTER,m,,,,,,0.04296875,-0.41015625,0,0,0,,0,248,248,236,1,
,,,,,,,,,,,,,,,,,,569298838d93fe000dfa033c,2020-11-27_10h07.40.884,lexical_decision_task_MP_exp2,2020.2.5,Win32,60,,z,1,0.67505,,,,,,,,0.67505,1,,,,,,364,NW,UN,33,guairt,IMPOTE,z,,,,,,0.04296875,-0.41015625,0,0,0,,0,249,249,363,1,
,,,,,,,,,,,,,,,,,,569298838d93fe000dfa033c,2020-11-27_10h07.40.884,lexical_decision_task_MP_exp2,2020.2.5,Win32,60,,m,1,0.62695,,,,,,,,0.62695,1,,,,,,216,WORD,UN,16,liquor,BEHALF,m,,,,,,0.04296875,-0.41015625,0,0,0,,0,250,250,215,1,
,,,,,,,,,,,,,,,,,,569298838d93fe000dfa033c,2020-11-27_10h07.40.884,lexical_decision_task_MP_exp2,2020.2.5,Win32,60,,z,1,0.67122,,,,,,,,0.67122,1,,,,,,322,NW,"ID",16,slanch,SLANCH,z,,,,,,0.04296875,-0.41015625,0,0,0,,0,251,251,321,1,
,,,,,,,,,,,,,,,,,,569298838d93fe000dfa033c,2020-11-27_10h07.40.884,lexical_decision_task_MP_exp2,2020.2.5,Win32,60,,z,1,0.736875,,,,,,,,0.736875,1,,,,,,287,NW,"ID",33,nymbel,NYMBEL,z,,,,,,0.04296875,-0.41015625,0,0,0,,0,252,252,286,1,
,,,,,,,,,,,,,,,,,,569298838d93fe000dfa033c,2020-11-27_10h07.40.884,lexical_decision_task_MP_exp2,2020.2.5,Win32,60,,m,1,0.571195,,,,,,,,0.571195,1,,,,,,215,WORD,UN,16,behalf,PHOBIA,m,,,,,,0.04296875,-0.41015625,0,0,0,,0,253,253,214,1,
,,,,,,,,,,,,,,,,,,569298838d93fe000dfa033c,2020-11-27_10h07.40.884,lexical_decision_task_MP_exp2,2020.2.5,Win32,60,,z,1,0.720575,,,,,,,,0.720575,1,,,,,,435,NW,UN,16,frutan,IMPURB,z,,,,,,0.04296875,-0.41015625,0,0,0,,0,254,254,434,1,
,,,,,,,,,,,,,,,,,,569298838d93fe000dfa033c,2020-11-27_10h07.40.884,lexical_decision_task_MP_exp2,2020.2.5,Win32,60,,m,1,0.679775,,,,,,,,0.679775,1,,,,,,111,WORD,"ID",16,induce,INDUCE,m,,,,,,0.04296875,-0.41015625,0,0,0,,0,255,255,110,1,
,,,,,,,,,,,,,,,,,,569298838d93fe000dfa033c,2020-11-27_10h07.40.884,lexical_decision_task_MP_exp2,2020.2.5,Win32,60,,m,1,0.741885,,,,,,,,0.741885,1,,,,,,212,WORD,UN,16,squeal,VERIFY,m,,,,,,0.04296875,-0.41015625,0,0,0,,0,256,256,211,1,
,,,,,,,,,,,,,,,,,,569298838d93fe000dfa033c,2020-11-27_10h07.40.884,lexical_decision_task_MP_exp2,2020.2.5,Win32,60,,z,1,0.608205,,,,,,,,0.608205,1,,,,,,403,NW,UN,33,cluirm,BRUATS,z,,,,,,0.04296875,-0.41015625,0,0,0,,0,257,257,402,1,
,,,,,,,,,,,,,,,,,,569298838d93fe000dfa033c,2020-11-27_10h07.40.884,lexical_decision_task_MP_exp2,2020.2.5,Win32,60,,m,1,0.687565,,,,,,,,0.687565,1,,,,,,99,WORD,"ID",16,fluent,FLUENT,m,,,,,,0.04296875,-0.41015625,0,0,0,,0,258,258,98,1,
,,,,,,,,,,,,,,,,,,569298838d93fe000dfa033c,2020-11-27_10h07.40.884,lexical_decision_task_MP_exp2,2020.2.5,Win32,60,,z,1,0.671815,,,,,,,,0.671815,1,,,,,,299,NW,"ID",33,sturch,STURCH,z,,,,,,0.04296875,-0.41015625,0,0,0,,0,259,259,298,1,
,,,,,,,,,,,,,,,,,,569298838d93fe000dfa033c,2020-11-27_10h07.40.884,lexical_decision_task_MP_exp2,2020.2.5,Win32,60,,m,1,0.538325,,,,,,,,0.538325,1,,,,,,122,WORD,UN,33,strike,LINGER,m,,,,,,0.04296875,-0.41015625,0,0,0,,0,260,260,121,1,
,,,,,,,,,,,,,,,,,,569298838d93fe000dfa033c,2020-11-27_10h07.40.884,lexical_decision_task_MP_exp2,2020.2.5,Win32,60,,z,1,0.64348,,,,,,,,0.64348,1,,,,,,278,NW,"ID",33,unighs,UNIGHS,z,,,,,,0.04296875,-0.41015625,0,0,0,,0,261,261,277,1,
,,,,,,,,,,,,,,,,,,569298838d93fe000dfa033c,2020-11-27_10h07.40.884,lexical_decision_task_MP_exp2,2020.2.5,Win32,60,,m,1,0.51464,,,,,,,,0.51464,1,,,,,,148,WORD,UN,33,invade,CUSTOM,m,,,,,,0.04296875,-0.41015625,0,0,0,,0,262,262,147,1,
,,,,,,,,,,,,,,,,,,569298838d93fe000dfa033c,2020-11-27_10h07.40.884,lexical_decision_task_MP_exp2,2020.2.5,Win32,60,,z,1,0.621495,,,,,,,,0.621495,1,,,,,,380,NW,UN,33,huniek,CAVORY,z,,,,,,0.04296875,-0.41015625,0,0,0,,0,263,263,379,1,
,,,,,,,,,,,,,,,,,,569298838d93fe000dfa033c,2020-11-27_10h07.40.884,lexical_decision_task_MP_exp2,2020.2.5,Win32,60,,m,1,0.557635,,,,,,,,0.557635,1,,,,,,95,WORD,"ID",16,thread,THREAD,m,,,,,,0.04296875,-0.41015625,0,0,0,,0,264,264,94,1,
,,,,,,,,,,,,,,,,,,569298838d93fe000dfa033c,2020-11-27_10h07.40.884,lexical_decision_task_MP_exp2,2020.2.5,Win32,60,,z,1,0.6943,,,,,,,,0.6943,1,,,,,,310,NW,"ID",16,daniet,DANIET,z,,,,,,0.04296875,-0.41015625,0,0,0,,0,265,265,309,1,
,,,,,,,,,,,,,,,,,,569298838d93fe000dfa033c,2020-11-27_10h07.40.884,lexical_decision_task_MP_exp2,2020.2.5,Win32,60,,z,1,0.56367,,,,,,,,0.56367,1,,,,,,282,NW,"ID",33,porlex,PORLEX,z,,,,,,0.04296875,-0.41015625,0,0,0,,0,266,266,281,1,
,,,,,,,,,,,,,,,,,,569298838d93fe000dfa033c,2020-11-27_10h07.40.884,lexical_decision_task_MP_exp2,2020.2.5,Win32,60,,m,1,0.537065,,,,,,,,0.537065,1,,,,,,72,WORD,"ID",16,bright,BRIGHT,m,,,,,,0.04296875,-0.41015625,0,0,0,,0,267,267,71,1,
,,,,,,,,,,,,,,,,,,569298838d93fe000dfa033c,2020-11-27_10h07.40.884,lexical_decision_task_MP_exp2,2020.2.5,Win32,60,,z,1,0.576485,,,,,,,,0.576485,1,,,,,,285,NW,"ID",33,prudge,PRUDGE,z,,,,,,0.04296875,-0.41015625,0,0,0,,0,268,268,284,1,
,,,,,,,,,,,,,,,,,,569298838d93fe000dfa033c,2020-11-27_10h07.40.884,lexical_decision_task_MP_exp2,2020.2.5,Win32,60,,z,1,0.669575,,,,,,,,0.669575,1,,,,,,377,NW,UN,33,shrile,INJORE,z,,,,,,0.04296875,-0.41015625,0,0,0,,0,269,269,376,1,
,,,,,,,,,,,,,,,,,,569298838d93fe000dfa033c,2020-11-27_10h07.40.884,lexical_decision_task_MP_exp2,2020.2.5,Win32,60,,z,1,0.655735,,,,,,,,0.655735,1,,,,,,369,NW,UN,33,sleact,WRONCH,z,,,,,,0.04296875,-0.41015625,0,0,0,,0,270,270,368,1,
,,,,,,,,,,,,,,,,,,569298838d93fe000dfa033c,2020-11-27_10h07.40.884,lexical_decision_task_MP_exp2,2020.2.5,Win32,60,,m,1,0.555445,,,,,,,,0.555445,1,,,,,,97,WORD,"ID",16,client,CLIENT,m,,,,,,0.04296875,-0.41015625,0,0,0,,0,271,271,96,1,
,,,,,,,,,,,,,,,,,,569298838d93fe000dfa033c,2020-11-27_10h07.40.884,lexical_decision_task_MP_exp2,2020.2.5,Win32,60,,m,1,0.54829,,,,,,,,0.54829,1,,,,,,188,WORD,UN,16,censor,SOCIAL,m,,,,,,0.04296875,-0.41015625,0,0,0,,0,272,272,187,1,
,,,,,,,,,,,,,,,,,,569298838d93fe000dfa033c,2020-11-27_10h07.40.884,lexical_decision_task_MP_exp2,2020.2.5,Win32,60,,m,1,0.62188,,,,,,,,0.62188,1,,,,,,119,WORD,"ID",16,spider,SPIDER,m,,,,,,0.04296875,-0.41015625,0,0,0,,0,273,273,118,1,
,,,,,,,,,,,,,,,,,,569298838d93fe000dfa033c,2020-11-27_10h07.40.884,lexical_decision_task_MP_exp2,2020.2.5,Win32,60,,m,1,0.610285,,,,,,,,0.610285,1,,,,,,126,WORD,UN,33,castle,ENOUGH,m,,,,,,0.04296875,-0.41015625,0,0,0,,0,274,274,125,1,
,,,,,,,,,,,,,,,,,,569298838d93fe000dfa033c,2020-11-27_10h07.40.884,lexical_decision_task_MP_exp2,2020.2.5,Win32,60,,m,1,0.546835,,,,,,,,0.546835,1,,,,,,210,WORD,UN,16,infect,MONKEY,m,,,,,,0.04296875,-0.41015625,0,0,0,,0,275,275,209,1,
,,,,,,,,,,,,,,,,,,569298838d93fe000dfa033c,2020-11-27_10h07.40.884,lexical_decision_task_MP_exp2,2020.2.5,Win32,60,,m,1,0.693295,,,,,,,,0.693295,1,,,,,,129,WORD,UN,33,stupid,MARVEL,m,,,,,,0.04296875,-0.41015625,0,0,0,,0,276,276,128,1,
,,,,,,,,,,,,,,,,,,569298838d93fe000dfa033c,2020-11-27_10h07.40.884,lexical_decision_task_MP_exp2,2020.2.5,Win32,60,,m,1,0.578755,,,,,,,,0.578755,1,,,,,,91,WORD,"ID",16,expand,EXPAND,m,,,,,,0.04296875,-0.41015625,0,0,0,,0,277,277,90,1,
,,,,,,,,,,,,,,,,,,569298838d93fe000dfa033c,2020-11-27_10h07.40.884,lexical_decision_task_MP_exp2,2020.2.5,Win32,60,,m,1,0.602475,,,,,,,,0.602475,1,,,,,,65,WORD,"ID",16,symbol,SYMBOL,m,,,,,,0.04296875,-0.41015625,0,0,0,,0,278,278,64,1,
,,,,,,,,,,,,,,,,,,569298838d93fe000dfa033c,2020-11-27_10h07.40.884,lexical_decision_task_MP_exp2,2020.2.5,Win32,60,,m,1,0.560745,,,,,,,,0.560745,1,,,,,,146,WORD,UN,33,garlic,COUPLE,m,,,,,,0.04296875,-0.41015625,0,0,0,,0,279,279,145,1,
,,,,,,,,,,,,,,,,,,569298838d93fe000dfa033c,2020-11-27_10h07.40.884,lexical_decision_task_MP_exp2,2020.2.5,Win32,60,,z,1,0.572745,,,,,,,,0.572745,1,,,,,,466,NW,UN,16,pebric,HOCITE,z,,,,,,0.04296875,-0.41015625,0,0,0,,0,280,280,465,1,
,,,,,,,,,,,,,,,,,,569298838d93fe000dfa033c,2020-11-27_10h07.40.884,lexical_decision_task_MP_exp2,2020.2.5,Win32,60,,z,1,0.58713,,,,,,,,0.58713,1,,,,,,317,NW,"ID",16,worbal,WORBAL,z,,,,,,0.04296875,-0.41015625,0,0,0,,0,281,281,316,1,
,,,,,,,,,,,,,,,,,,569298838d93fe000dfa033c,2020-11-27_10h07.40.884,lexical_decision_task_MP_exp2,2020.2.5,Win32,60,,z,1,0.592975,,,,,,,,0.592975,1,,,,,,293,NW,"ID",33,swance,SWANCE,z,,,,,,0.04296875,-0.41015625,0,0,0,,0,282,282,292,1,
,,,,,,,,,,,,,,,,,,569298838d93fe000dfa033c,2020-11-27_10h07.40.884,lexical_decision_task_MP_exp2,2020.2.5,Win32,60,,m,1,0.53913,,,,,,,,0.53913,1,,,,,,224,WORD,UN,16,vulgar,PERIOD,m,,,,,,0.04296875,-0.41015625,0,0,0,,0,283,283,223,1,
,,,,,,,,,,,,,,,,,,569298838d93fe000dfa033c,2020-11-27_10h07.40.884,lexical_decision_task_MP_exp2,2020.2.5,Win32,60,,m,1,0.537505,,,,,,,,0.537505,1,,,,,,71,WORD,"ID",16,garden,GARDEN,m,,,,,,0.04296875,-0.41015625,0,0,0,,0,284,284,70,1,
,,,,,,,,,,,,,,,,,,569298838d93fe000dfa033c,2020-11-27_10h07.40.884,lexical_decision_task_MP_exp2,2020.2.5,Win32,60,,m,1,0.604495,,,,,,,,0.604495,1,,,,,,64,WORD,"ID",16,throne,THRONE,m,,,,,,0.04296875,-0.41015625,0,0,0,,0,285,285,63,1,
,,,,,,,,,,,,,,,,,,569298838d93fe000dfa033c,2020-11-27_10h07.40.884,lexical_decision_task_MP_exp2,2020.2.5,Win32,60,,z,1,0.586395,,,,,,,,0.586395,1,,,,,,248,NW,"ID",33,strole,STROLE,z,,,,,,0.04296875,-0.41015625,0,0,0,,0,286,286,247,1,
,,,,,,,,,,,,,,,,,,569298838d93fe000dfa033c,2020-11-27_10h07.40.884,lexical_decision_task_MP_exp2,2020.2.5,Win32,60,,z,1,0.63775,,,,,,,,0.63775,1,,,,,,297,NW,"ID",33,fertic,FERTIC,z,,,,,,0.04296875,-0.41015625,0,0,0,,0,287,287,296,1,
,,,,,,,,,,,,,,,,,,569298838d93fe000dfa033c,2020-11-27_10h07.40.884,lexical_decision_task_MP_exp2,2020.2.5,Win32,60,,z,1,0.55363,,,,,,,,0.55363,1,,,,,,412,NW,UN,33,equats,JILUER,z,,,,,,0.04296875,-0.41015625,0,0,0,,0,288,288,411,1,
,,,,,,,,,,,,,,,,,,569298838d93fe000dfa033c,2020-11-27_10h07.40.884,lexical_decision_task_MP_exp2,2020.2.5,Win32,60,,z,1,0.5908,,,,,,,,0.5908,1,,,,,,247,NW,"ID",33,blarge,BLARGE,z,,,,,,0.04296875,-0.41015625,0,0,0,,0,289,289,246,1,
,,,,,,,,,,,,,,,,,,569298838d93fe000dfa033c,2020-11-27_10h07.40.884,lexical_decision_task_MP_exp2,2020.2.5,Win32,60,,z,1,0.722395,,,,,,,,0.722395,1,,,,,,396,NW,UN,33,camble,FLENGY,z,,,,,,0.04296875,-0.41015625,0,0,0,,0,290,290,395,1,
,,,,,,,,,,,,,,,,,,569298838d93fe000dfa033c,2020-11-27_10h07.40.884,lexical_decision_task_MP_exp2,2020.2.5,Win32,60,,z,1,0.60939,,,,,,,,0.60939,1,,,,,,436,NW,UN,16,snapel,FRUTAN,z,,,,,,0.04296875,-0.41015625,0,0,0,,0,291,291,435,1,
,,,,,,,,,,,,,,,,,,569298838d93fe000dfa033c,2020-11-27_10h07.40.884,lexical_decision_task_MP_exp2,2020.2.5,Win32,60,,z,1,0.619665,,,,,,,,0.619665,1,,,,,,370,NW,UN,33,geiloy,SLEACT,z,,,,,,0.04296875,-0.41015625,0,0,0,,0,292,292,369,1,
,,,,,,,,,,,,,,,,,,569298838d93fe000dfa033c,2020-11-27_10h07.40.884,lexical_decision_task_MP_exp2,2020.2.5,Win32,60,,z,1,0.58849,,,,,,,,0.58849,1,,,,,,439,NW,UN,16,saride,LIMPOR,z,,,,,,0.04296875,-0.41015625,0,0,0,,0,293,293,438,1,
,,,,,,,,,,,,,,,,,,569298838d93fe000dfa033c,2020-11-27_10h07.40.884,lexical_decision_task_MP_exp2,2020.2.5,Win32,60,,z,1,0.643685,,,,,,,,0.643685,1,,,,,,269,NW,"ID",33,orchet,ORCHET,z,,,,,,0.04296875,-0.41015625,0,0,0,,0,294,294,268,1,
,,,,,,,,,,,,,,,,,,569298838d93fe000dfa033c,2020-11-27_10h07.40.884,lexical_decision_task_MP_exp2,2020.2.5,Win32,60,,z,1,0.630685,,,,,,,,0.630685,1,,,,,,449,NW,UN,16,phrect,BRUNGE,z,,,,,,0.04296875,-0.41015625,0,0,0,,0,295,295,448,1,
,,,,,,,,,,,,,,,,,,569298838d93fe000dfa033c,2020-11-27_10h07.40.884,lexical_decision_task_MP_exp2,2020.2.5,Win32,60,,z,1,0.604505,,,,,,,,0.604505,1,,,,,,381,NW,UN,33,sarley,HUNIEK,z,,,,,,0.04296875,-0.41015625,0,0,0,,0,296,296,380,1,
,,,,,,,,,,,,,,,,,,569298838d93fe000dfa033c,2020-11-27_10h07.40.884,lexical_decision_task_MP_exp2,2020.2.5,Win32,60,,z,1,0.557065,,,,,,,,0.557065,1,,,,,,349,NW,"ID",16,asylen,ASYLEN,z,,,,,,0.04296875,-0.41015625,0,0,0,,0,297,297,348,1,
,,,,,,,,,,,,,,,,,,569298838d93fe000dfa033c,2020-11-27_10h07.40.884,lexical_decision_task_MP_exp2,2020.2.5,Win32,60,,m,1,0.56194,,,,,,,,0.56194,1,,,,,,154,WORD,UN,33,lizard,AUTHOR,m,,,,,,0.04296875,-0.41015625,0,0,0,,0,298,298,153,1,
,,,,,,,,,,,,,,,,,,569298838d93fe000dfa033c,2020-11-27_10h07.40.884,lexical_decision_task_MP_exp2,2020.2.5,Win32,60,,z,1,0.52374,,,,,,,,0.52374,1,,,,,,361,NW,UN,33,tireau,PAUCHE,z,,,,,,0.04296875,-0.41015625,0,0,0,,0,299,299,360,1,
,,,,,,,,,,,,,,,,,,569298838d93fe000dfa033c,2020-11-27_10h07.40.884,lexical_decision_task_MP_exp2,2020.2.5,Win32,60,,m,1,0.53159,,,,,,,,0.53159,1,,,,,,238,WORD,UN,16,grumpy,FLOWER,m,,,,,,0.04296875,-0.41015625,0,0,0,,0,300,300,237,1,
,,,,,,,,,,,,,,,,,,569298838d93fe000dfa033c,2020-11-27_10h07.40.884,lexical_decision_task_MP_exp2,2020.2.5,Win32,60,,m,1,0.60374,,,,,,,,0.60374,1,,,,,,153,WORD,UN,33,author,BEHOLD,m,,,,,,0.04296875,-0.41015625,0,0,0,,0,301,301,152,1,
,,,,,,,,,,,,,,,,,,569298838d93fe000dfa033c,2020-11-27_10h07.40.884,lexical_decision_task_MP_exp2,2020.2.5,Win32,60,,z,1,0.610095,,,,,,,,0.610095,1,,,,,,423,NW,UN,16,praile,STRELD,z,,,,,,0.04296875,-0.41015625,0,0,0,,0,302,302,422,1,
,,,,,,,,,,,,,,,,,,569298838d93fe000dfa033c,2020-11-27_10h07.40.884,lexical_decision_task_MP_exp2,2020.2.5,Win32,60,,m,1,0.52015,,,,,,,,0.52015,1,,,,,,205,WORD,UN,16,tailor,LOUNGE,m,,,,,,0.04296875,-0.41015625,0,0,0,,0,303,303,204,1,
,,,,,,,,,,,,,,,,,,569298838d93fe000dfa033c,2020-11-27_10h07.40.884,lexical_decision_task_MP_exp2,2020.2.5,Win32,60,,m,1,0.678885,,,,,,,,0.678885,1,,,,,,133,WORD,UN,33,debris,CHROME,m,,,,,,0.04296875,-0.41015625,0,0,0,,0,304,304,132,1,
,,,,,,,,,,,,,,,,,,569298838d93fe000dfa033c,2020-11-27_10h07.40.884,lexical_decision_task_MP_exp2,2020.2.5,Win32,60,,z,1,0.53926,,,,,,,,0.53926,1,,,,,,393,NW,UN,33,spaqux,GANOUS,z,,,,,,0.04296875,-0.41015625,0,0,0,,0,305,305,392,1,
,,,,,,,,,,,,,,,,,,569298838d93fe000dfa033c,2020-11-27_10h07.40.884,lexical_decision_task_MP_exp2,2020.2.5,Win32,60,,m,1,0.705035,,,,,,,,0.705035,1,,,,,,63,WORD,"ID",16,launch,LAUNCH,m,,,,,,0.04296875,-0.41015625,0,0,0,,0,306,306,62,1,
,,,,,,,,,,,,,,,,,,569298838d93fe000dfa033c,2020-11-27_10h07.40.884,lexical_decision_task_MP_exp2,2020.2.5,Win32,60,,m,1,0.607895,,,,,,,,0.607895,1,,,,,,26,WORD,"ID",33,sprint,SPRINT,m,,,,,,0.04296875,-0.41015625,0,0,0,,0,307,307,25,1,
,,,,,,,,,,,,,,,,,,569298838d93fe000dfa033c,2020-11-27_10h07.40.884,lexical_decision_task_MP_exp2,2020.2.5,Win32,60,,z,1,0.56958,,,,,,,,0.56958,1,,,,,,426,NW,UN,16,frudge,URIVEL,z,,,,,,0.04296875,-0.41015625,0,0,0,,0,308,308,425,1,
,,,,,,,,,,,,,,,,,,569298838d93fe000dfa033c,2020-11-27_10h07.40.884,lexical_decision_task_MP_exp2,2020.2.5,Win32,60,,z,1,0.604065,,,,,,,,0.604065,1,,,,,,330,NW,"ID",16,kensom,KENSOM,z,,,,,,0.04296875,-0.41015625,0,0,0,,0,309,309,329,1,
,,,,,,,,,,,,,,,,,,569298838d93fe000dfa033c,2020-11-27_10h07.40.884,lexical_decision_task_MP_exp2,2020.2.5,Win32,60,,z,1,0.6313,,,,,,,,0.6313,1,,,,,,261,NW,"ID",33,stunch,STUNCH,z,,,,,,0.04296875,-0.41015625,0,0,0,,0,310,310,260,1,
,,,,,,,,,,,,,,,,,,569298838d93fe000dfa033c,2020-11-27_10h07.40.884,lexical_decision_task_MP_exp2,2020.2.5,Win32,60,,z,1,0.653335,,,,,,,,0.653335,1,,,,,,316,NW,"ID",16,scregm,SCREGM,z,,,,,,0.04296875,-0.41015625,0,0,0,,0,311,311,315,1,
,,,,,,,,,,,,,,,,,,569298838d93fe000dfa033c,2020-11-27_10h07.40.884,lexical_decision_task_MP_exp2,2020.2.5,Win32,60,,z,1,0.620505,,,,,,,,0.620505,1,,,,,,267,NW,"ID",33,pasink,PASINK,z,,,,,,0.04296875,-0.41015625,0,0,0,,0,312,312,266,1,
,,,,,,,,,,,,,,,,,,569298838d93fe000dfa033c,2020-11-27_10h07.40.884,lexical_decision_task_MP_exp2,2020.2.5,Win32,60,,z,1,0.627885,,,,,,,,0.627885,1,,,,,,358,NW,"ID",16,fleack,FLEACK,z,,,,,,0.04296875,-0.41015625,0,0,0,,0,313,313,357,1,
,,,,,,,,,,,,,,,,,,569298838d93fe000dfa033c,2020-11-27_10h07.40.884,lexical_decision_task_MP_exp2,2020.2.5,Win32,60,,m,1,0.651355,,,,,,,,0.651355,1,,,,,,195,WORD,UN,16,credit,RESIGN,m,,,,,,0.04296875,-0.41015625,0,0,0,,0,314,314,194,1,
,,,,,,,,,,,,,,,,,,569298838d93fe000dfa033c,2020-11-27_10h07.40.884,lexical_decision_task_MP_exp2,2020.2.5,Win32,60,,z,1,0.610855,,,,,,,,0.610855,1,,,,,,281,NW,"ID",33,melaty,MELATY,z,,,,,,0.04296875,-0.41015625,0,0,0,,0,315,315,280,1,
,,,,,,,,,,,,,,,,,,569298838d93fe000dfa033c,2020-11-27_10h07.40.884,lexical_decision_task_MP_exp2,2020.2.5,Win32,60,,z,1,0.619265,,,,,,,,0.619265,1,,,,,,306,NW,"ID",16,sounge,SOUNGE,z,,,,,,0.04296875,-0.41015625,0,0,0,,0,316,316,305,1,
,,,,,,,,,,,,,,,,,,569298838d93fe000dfa033c,2020-11-27_10h07.40.884,lexical_decision_task_MP_exp2,2020.2.5,Win32,60,,m,1,0.586815,,,,,,,,0.586815,1,,,,,,69,WORD,"ID",16,plenty,PLENTY,m,,,,,,0.04296875,-0.41015625,0,0,0,,0,317,317,68,1,
,,,,,,,,,,,,,,,,,,569298838d93fe000dfa033c,2020-11-27_10h07.40.884,lexical_decision_task_MP_exp2,2020.2.5,Win32,60,,z,1,0.529745,,,,,,,,0.529745,1,,,,,,478,NW,UN,16,lobush,ACRISE,z,,,,,,0.04296875,-0.41015625,0,0,0,,0,318,318,477,1,
,,,,,,,,,,,,,,,,,,569298838d93fe000dfa033c,2020-11-27_10h07.40.884,lexical_decision_task_MP_exp2,2020.2.5,Win32,60,,m,1,0.55139,,,,,,,,0.55139,1,,,,,,213,WORD,UN,16,intake,SQUEAL,m,,,,,,0.04296875,-0.41015625,0,0,0,,0,319,319,212,1,
,,,,,,,,,,,,,,,,,,569298838d93fe000dfa033c,2020-11-27_10h07.40.884,lexical_decision_task_MP_exp2,2020.2.5,Win32,60,,m,1,0.691665,,,,,,,,0.691665,1,,,,,,28,WORD,"ID",33,comedy,COMEDY,m,,,,,,0.04296875,-0.41015625,0,0,0,,0,320,320,27,1,
,,,,,,,,,,,,,,,,,,569298838d93fe000dfa033c,2020-11-27_10h07.40.884,lexical_decision_task_MP_exp2,2020.2.5,Win32,60,,m,1,0.544595,,,,,,,,0.544595,1,,,,,,17,WORD,"ID",33,charge,CHARGE,m,,,,,,0.04296875,-0.41015625,0,0,0,,0,321,321,16,1,
,,,,,,,,,,,,,,,,,,569298838d93fe000dfa033c,2020-11-27_10h07.40.884,lexical_decision_task_MP_exp2,2020.2.5,Win32,60,,z,1,0.77037,,,,,,,,0.77037,1,,,,,,250,NW,"ID",33,milted,MILTED,z,,,,,,0.04296875,-0.41015625,0,0,0,,0,322,322,249,1,
,,,,,,,,,,,,,,,,,,569298838d93fe000dfa033c,2020-11-27_10h07.40.884,lexical_decision_task_MP_exp2,2020.2.5,Win32,60,,m,1,0.64666,,,,,,,,0.64666,1,,,,,,59,WORD,"ID",33,splint,SPLINT,m,,,,,,0.04296875,-0.41015625,0,0,0,,0,323,323,58,1,
,,,,,,,,,,,,,,,,,,569298838d93fe000dfa033c,2020-11-27_10h07.40.884,lexical_decision_task_MP_exp2,2020.2.5,Win32,60,,z,1,0.55736,,,,,,,,0.55736,1,,,,,,324,NW,"ID",16,steikh,STEIKH,z,,,,,,0.04296875,-0.41015625,0,0,0,,0,324,324,323,1,
,,,,,,,,,,,,,,,,,,569298838d93fe000dfa033c,2020-11-27_10h07.40.884,lexical_decision_task_MP_exp2,2020.2.5,Win32,60,,z,1,0.553735,,,,,,,,0.553735,1,,,,,,279,NW,"ID",33,celond,CELOND,z,,,,,,0.04296875,-0.41015625,0,0,0,,0,325,325,278,1,
,,,,,,,,,,,,,,,,,,569298838d93fe000dfa033c,2020-11-27_10h07.40.884,lexical_decision_task_MP_exp2,2020.2.5,Win32,60,,m,1,0.63696,,,,,,,,0.63696,1,,,,,,227,WORD,UN,16,master,SELDOM,m,,,,,,0.04296875,-0.41015625,0,0,0,,0,326,326,226,1,
,,,,,,,,,,,,,,,,,,569298838d93fe000dfa033c,2020-11-27_10h07.40.884,lexical_decision_task_MP_exp2,2020.2.5,Win32,60,,z,1,0.522275,,,,,,,,0.522275,1,,,,,,442,NW,UN,16,dorsex,ABOUNE,z,,,,,,0.04296875,-0.41015625,0,0,0,,0,327,327,441,1,
,,,,,,,,,,,,,,,,,,569298838d93fe000dfa033c,2020-11-27_10h07.40.884,lexical_decision_task_MP_exp2,2020.2.5,Win32,60,,m,1,0.604025,,,,,,,,0.604025,1,,,,,,43,WORD,"ID",33,tongue,TONGUE,m,,,,,,0.04296875,-0.41015625,0,0,0,,0,328,328,42,1,
,,,,,,,,,,,,,,,,,,569298838d93fe000dfa033c,2020-11-27_10h07.40.884,lexical_decision_task_MP_exp2,2020.2.5,Win32,60,,z,1,0.59149,,,,,,,,0.59149,1,,,,,,323,NW,"ID",16,rosail,ROSAIL,z,,,,,,0.04296875,-0.41015625,0,0,0,,0,329,329,322,1,
,,,,,,,,,,,,,,,,,,569298838d93fe000dfa033c,2020-11-27_10h07.40.884,lexical_decision_task_MP_exp2,2020.2.5,Win32,60,,z,1,0.558665,,,,,,,,0.558665,1,,,,,,258,NW,"ID",33,poluth,POLUTH,z,,,,,,0.04296875,-0.41015625,0,0,0,,0,330,330,257,1,
,,,,,,,,,,,,,,,,,,569298838d93fe000dfa033c,2020-11-27_10h07.40.884,lexical_decision_task_MP_exp2,2020.2.5,Win32,60,,m,1,0.641725,,,,,,,,0.641725,1,,,,,,74,WORD,"ID",16,plaque,PLAQUE,m,,,,,,0.04296875,-0.41015625,0,0,0,,0,331,331,73,1,
,,,,,,,,,,,,,,,,,,569298838d93fe000dfa033c,2020-11-27_10h07.40.884,lexical_decision_task_MP_exp2,2020.2.5,Win32,60,,z,1,0.55367,,,,,,,,0.55367,1,,,,,,401,NW,UN,33,elopia,MUSTIL,z,,,,,,0.04296875,-0.41015625,0,0,0,,0,332,332,400,1,
,,,,,,,,,,,,,,,,,,569298838d93fe000dfa033c,2020-11-27_10h07.40.884,lexical_decision_task_MP_exp2,2020.2.5,Win32,60,,z,1,0.56947,,,,,,,,0.56947,1,,,,,,288,NW,"ID",33,yaceup,YACEUP,z,,,,,,0.04296875,-0.41015625,0,0,0,,0,333,333,287,1,
,,,,,,,,,,,,,,,,,,569298838d93fe000dfa033c,2020-11-27_10h07.40.884,lexical_decision_task_MP_exp2,2020.2.5,Win32,60,,m,1,0.64633,,,,,,,,0.64633,1,,,,,,209,WORD,UN,16,monkey,SEARCH,m,,,,,,0.04296875,-0.41015625,0,0,0,,0,334,334,208,1,
,,,,,,,,,,,,,,,,,,569298838d93fe000dfa033c,2020-11-27_10h07.40.884,lexical_decision_task_MP_exp2,2020.2.5,Win32,60,,z,1,0.8029,,,,,,,,0.8029,1,,,,,,462,NW,UN,16,kispel,ABSULT,z,,,,,,0.04296875,-0.41015625,0,0,0,,0,335,335,461,1,
,,,,,,,,,,,,,,,,,,569298838d93fe000dfa033c,2020-11-27_10h07.40.884,lexical_decision_task_MP_exp2,2020.2.5,Win32,60,,z,1,0.627955,,,,,,,,0.627955,1,,,,,,424,NW,UN,16,urivel,PRAILE,z,,,,,,0.04296875,-0.41015625,0,0,0,,0,336,336,423,1,
,,,,,,,,,,,,,,,,,,569298838d93fe000dfa033c,2020-11-27_10h07.40.884,lexical_decision_task_MP_exp2,2020.2.5,Win32,60,,m,1,0.613315,,,,,,,,0.613315,1,,,,,,130,WORD,UN,33,quench,STUPID,m,,,,,,0.04296875,-0.41015625,0,0,0,,0,337,337,129,1,
,,,,,,,,,,,,,,,,,,569298838d93fe000dfa033c,2020-11-27_10h07.40.884,lexical_decision_task_MP_exp2,2020.2.5,Win32,60,,z,1,0.586065,,,,,,,,0.586065,1,,,,,,387,NW,UN,33,cragin,GRONCE,z,,,,,,0.04296875,-0.41015625,0,0,0,,0,338,338,386,1,
,,,,,,,,,,,,,,,,,,569298838d93fe000dfa033c,2020-11-27_10h07.40.884,lexical_decision_task_MP_exp2,2020.2.5,Win32,60,,m,1,0.57677,,,,,,,,0.57677,1,,,,,,147,WORD,UN,33,custom,GARLIC,m,,,,,,0.04296875,-0.41015625,0,0,0,,0,339,339,146,1,
,,,,,,,,,,,,,,,,,,569298838d93fe000dfa033c,2020-11-27_10h07.40.884,lexical_decision_task_MP_exp2,2020.2.5,Win32,60,,z,1,0.66071,,,,,,,,0.66071,1,,,,,,338,NW,"ID",16,wreash,WREASH,z,,,,,,0.04296875,-0.41015625,0,0,0,,0,340,340,337,1,
,,,,,,,,,,,,,,,,,,569298838d93fe000dfa033c,2020-11-27_10h07.40.884,lexical_decision_task_MP_exp2,2020.2.5,Win32,60,,m,1,0.5157,,,,,,,,0.5157,1,,,,,,233,WORD,UN,16,clumsy,NATURE,m,,,,,,0.04296875,-0.41015625,0,0,0,,0,341,341,232,1,
,,,,,,,,,,,,,,,,,,569298838d93fe000dfa033c,2020-11-27_10h07.40.884,lexical_decision_task_MP_exp2,2020.2.5,Win32,60,,m,1,0.67065,,,,,,,,0.67065,1,,,,,,115,WORD,"ID",16,guitar,GUITAR,m,,,,,,0.04296875,-0.41015625,0,0,0,,0,342,342,114,1,
,,,,,,,,,,,,,,,,,,569298838d93fe000dfa033c,2020-11-27_10h07.40.884,lexical_decision_task_MP_exp2,2020.2.5,Win32,60,,z,1,0.5537,,,,,,,,0.5537,1,,,,,,400,NW,UN,33,mustil,WEAROX,z,,,,,,0.04296875,-0.41015625,0,0,0,,0,343,343,399,1,
,,,,,,,,,,,,,,,,,,569298838d93fe000dfa033c,2020-11-27_10h07.40.884,lexical_decision_task_MP_exp2,2020.2.5,Win32,60,,z,1,0.607985,,,,,,,,0.607985,1,,,,,,295,NW,"ID",33,gleath,GLEATH,z,,,,,,0.04296875,-0.41015625,0,0,0,,0,344,344,294,1,
,,,,,,,,,,,,,,,,,,569298838d93fe000dfa033c,2020-11-27_10h07.40.884,lexical_decision_task_MP_exp2,2020.2.5,Win32,60,,z,1,0.62124,,,,,,,,0.62124,1,,,,,,286,NW,"ID",33,reldon,RELDON,z,,,,,,0.04296875,-0.41015625,0,0,0,,0,345,345,285,1,
,,,,,,,,,,,,,,,,,,569298838d93fe000dfa033c,2020-11-27_10h07.40.884,lexical_decision_task_MP_exp2,2020.2.5,Win32,60,,m,1,0.49904,,,,,,,,0.49904,1,,,,,,22,WORD,"ID",33,jockey,JOCKEY,m,,,,,,0.04296875,-0.41015625,0,0,0,,0,346,346,21,1,
,,,,,,,,,,,,,,,,,,569298838d93fe000dfa033c,2020-11-27_10h07.40.884,lexical_decision_task_MP_exp2,2020.2.5,Win32,60,,z,0,0.546755,,,,,,,,0.546755,0,,,,,,16,WORD,"ID",33,faucet,FAUCET,m,,,,,,0.04296875,-0.41015625,0,0,0,,0,347,347,15,1,
,,,,,,,,,,,,,,,,,,569298838d93fe000dfa033c,2020-11-27_10h07.40.884,lexical_decision_task_MP_exp2,2020.2.5,Win32,60,,z,1,0.62981,,,,,,,,0.62981,1,,,,,,331,NW,"ID",16,gilfew,GILFEW,z,,,,,,0.04296875,-0.41015625,0,0,0,,0,348,348,330,1,
,,,,,,,,,,,,,,,,,,569298838d93fe000dfa033c,2020-11-27_10h07.40.884,lexical_decision_task_MP_exp2,2020.2.5,Win32,60,,m,1,0.586915,,,,,,,,0.586915,1,,,,,,108,WORD,"ID",16,reckon,RECKON,m,,,,,,0.04296875,-0.41015625,0,0,0,,0,349,349,107,1,
,,,,,,,,,,,,,,,,,,569298838d93fe000dfa033c,2020-11-27_10h07.40.884,lexical_decision_task_MP_exp2,2020.2.5,Win32,60,,z,1,0.587145,,,,,,,,0.587145,1,,,,,,457,NW,UN,16,barcet,WANIGH,z,,,,,,0.04296875,-0.41015625,0,0,0,,0,350,350,456,1,
,,,,,,,,,,,,,,,,,,569298838d93fe000dfa033c,2020-11-27_10h07.40.884,lexical_decision_task_MP_exp2,2020.2.5,Win32,60,,z,1,0.50314,,,,,,,,0.50314,1,,,,,,447,NW,UN,16,sadent,GIRCUE,z,,,,,,0.04296875,-0.41015625,0,0,0,,0,351,351,446,1,
,,,,,,,,,,,,,,,,,,569298838d93fe000dfa033c,2020-11-27_10h07.40.884,lexical_decision_task_MP_exp2,2020.2.5,Win32,60,,z,1,0.546165,,,,,,,,0.546165,1,,,,,,414,NW,UN,33,higsta,SERBOL,z,,,,,,0.04296875,-0.41015625,0,0,0,,0,352,352,413,1,
,,,,,,,,,,,,,,,,,,569298838d93fe000dfa033c,2020-11-27_10h07.40.884,lexical_decision_task_MP_exp2,2020.2.5,Win32,60,,z,1,0.617295,,,,,,,,0.617295,1,,,,,,333,NW,"ID",16,catrie,CATRIE,z,,,,,,0.04296875,-0.41015625,0,0,0,,0,353,353,332,1,
,,,,,,,,,,,,,,,,,,569298838d93fe000dfa033c,2020-11-27_10h07.40.884,lexical_decision_task_MP_exp2,2020.2.5,Win32,60,,m,1,0.508265,,,,,,,,0.508265,1,,,,,,223,WORD,UN,16,period,KIDNEY,m,,,,,,0.04296875,-0.41015625,0,0,0,,0,354,354,222,1,
,,,,,,,,,,,,,,,,,,569298838d93fe000dfa033c,2020-11-27_10h07.40.884,lexical_decision_task_MP_exp2,2020.2.5,Win32,60,,z,0,0.50849,,,,,,,,0.50849,0,,,,,,184,WORD,UN,16,bother,SLEAZY,m,,,,,,0.04296875,-0.41015625,0,0,0,,0,355,355,183,1,
,,,,,,,,,,,,,,,,,,569298838d93fe000dfa033c,2020-11-27_10h07.40.884,lexical_decision_task_MP_exp2,2020.2.5,Win32,60,,m,1,0.5513,,,,,,,,0.5513,1,,,,,,198,WORD,UN,16,invoke,WICKED,m,,,,,,0.04296875,-0.41015625,0,0,0,,0,356,356,197,1,
,,,,,,,,,,,,,,,,,,569298838d93fe000dfa033c,2020-11-27_10h07.40.884,lexical_decision_task_MP_exp2,2020.2.5,Win32,60,,m,1,0.517975,,,,,,,,0.517975,1,,,,,,14,WORD,"ID",33,almost,ALMOST,m,,,,,,0.04296875,-0.41015625,0,0,0,,0,357,357,13,1,
,,,,,,,,,,,,,,,,,,569298838d93fe000dfa033c,2020-11-27_10h07.40.884,lexical_decision_task_MP_exp2,2020.2.5,Win32,60,,z,1,0.53478,,,,,,,,0.53478,1,,,,,,359,NW,"ID",16,fonver,FONVER,z,,,,,,0.04296875,-0.41015625,0,0,0,,0,358,358,358,1,
,,,,,,,,,,,,,,,,,,569298838d93fe000dfa033c,2020-11-27_10h07.40.884,lexical_decision_task_MP_exp2,2020.2.5,Win32,60,,m,1,0.63213,,,,,,,,0.63213,1,,,,,,40,WORD,"ID",33,convey,CONVEY,m,,,,,,0.04296875,-0.41015625,0,0,0,,0,359,359,39,1,
,,,,,,,,,,,,,,,,,,569298838d93fe000dfa033c,2020-11-27_10h07.40.884,lexical_decision_task_MP_exp2,2020.2.5,Win32,60,,m,1,0.533425,,,,,,,,0.533425,1,,,,,,178,WORD,UN,33,mildew,INFORM,m,,,,,,0.04296875,-0.41015625,0,0,0,,0,360,360,177,1,
,,,,,,,,,,,,,,,,,,569298838d93fe000dfa033c,2020-11-27_10h07.40.884,lexical_decision_task_MP_exp2,2020.2.5,Win32,60,,z,1,0.646345,,,,,,,,0.646345,1,,,,,,270,NW,"ID",33,wrimsy,WRIMSY,z,,,,,,0.04296875,-0.41015625,0,0,0,,0,361,361,269,1,
,,,,,,,,,,,,,,,,,,569298838d93fe000dfa033c,2020-11-27_10h07.40.884,lexical_decision_task_MP_exp2,2020.2.5,Win32,60,,m,1,0.569275,,,,,,,,0.569275,1,,,,,,56,WORD,"ID",33,ambush,AMBUSH,m,,,,,,0.04296875,-0.41015625,0,0,0,space,0,362,362,55,1,1.966855
,,,,,,,,,,,,,,,,,,569298838d93fe000dfa033c,2020-11-27_10h07.40.884,lexical_decision_task_MP_exp2,2020.2.5,Win32,60,,z,1,0.57013,,,,,,,,0.57013,1,,,,,,350,NW,"ID",16,nagurs,NAGURS,z,,,,,,0.04296875,-0.41015625,0,0,0,,0,363,363,349,1,
,,,,,,,,,,,,,,,,,,569298838d93fe000dfa033c,2020-11-27_10h07.40.884,lexical_decision_task_MP_exp2,2020.2.5,Win32,60,,z,1,0.531855,,,,,,,,0.531855,1,,,,,,444,NW,UN,16,minkel,JAUNCE,z,,,,,,0.04296875,-0.41015625,0,0,0,,0,364,364,443,1,
,,,,,,,,,,,,,,,,,,569298838d93fe000dfa033c,2020-11-27_10h07.40.884,lexical_decision_task_MP_exp2,2020.2.5,Win32,60,,z,1,0.59957,,,,,,,,0.59957,1,,,,,,429,NW,UN,16,caroey,FUNTLE,z,,,,,,0.04296875,-0.41015625,0,0,0,,0,365,365,428,1,
,,,,,,,,,,,,,,,,,,569298838d93fe000dfa033c,2020-11-27_10h07.40.884,lexical_decision_task_MP_exp2,2020.2.5,Win32,60,,m,1,0.48106,,,,,,,,0.48106,1,,,,,,200,WORD,UN,16,admire,BEACON,m,,,,,,0.04296875,-0.41015625,0,0,0,,0,366,366,199,1,
,,,,,,,,,,,,,,,,,,569298838d93fe000dfa033c,2020-11-27_10h07.40.884,lexical_decision_task_MP_exp2,2020.2.5,Win32,60,,z,1,0.54861,,,,,,,,0.54861,1,,,,,,268,NW,"ID",33,packes,PACKES,z,,,,,,0.04296875,-0.41015625,0,0,0,,0,367,367,267,1,
,,,,,,,,,,,,,,,,,,569298838d93fe000dfa033c,2020-11-27_10h07.40.884,lexical_decision_task_MP_exp2,2020.2.5,Win32,60,,m,1,0.50527,,,,,,,,0.50527,1,,,,,,199,WORD,UN,16,beacon,INVOKE,m,,,,,,0.04296875,-0.41015625,0,0,0,,0,368,368,198,1,
,,,,,,,,,,,,,,,,,,569298838d93fe000dfa033c,2020-11-27_10h07.40.884,lexical_decision_task_MP_exp2,2020.2.5,Win32,60,,m,1,0.62193,,,,,,,,0.62193,1,,,,,,100,WORD,"ID",16,carbon,CARBON,m,,,,,,0.04296875,-0.41015625,0,0,0,,0,369,369,99,1,
,,,,,,,,,,,,,,,,,,569298838d93fe000dfa033c,2020-11-27_10h07.40.884,lexical_decision_task_MP_exp2,2020.2.5,Win32,60,,z,1,0.573085,,,,,,,,0.573085,1,,,,,,296,NW,"ID",33,beinch,BEINCH,z,,,,,,0.04296875,-0.41015625,0,0,0,,0,370,370,295,1,
,,,,,,,,,,,,,,,,,,569298838d93fe000dfa033c,2020-11-27_10h07.40.884,lexical_decision_task_MP_exp2,2020.2.5,Win32,60,,m,0,0.58735,,,,,,,,0.58735,0,,,,,,356,NW,"ID",16,othnis,OTHNIS,z,,,,,,0.04296875,-0.41015625,0,0,0,,0,371,371,355,1,
,,,,,,,,,,,,,,,,,,569298838d93fe000dfa033c,2020-11-27_10h07.40.884,lexical_decision_task_MP_exp2,2020.2.5,Win32,60,,m,0,0.666025,,,,,,,,0.666025,0,,,,,,391,NW,UN,33,rouncy,THELDY,z,,,,,,0.04296875,-0.41015625,0,0,0,,0,372,372,390,1,
,,,,,,,,,,,,,,,,,,569298838d93fe000dfa033c,2020-11-27_10h07.40.884,lexical_decision_task_MP_exp2,2020.2.5,Win32,60,,m,1,0.643835,,,,,,,,0.643835,1,,,,,,98,WORD,"ID",16,belong,BELONG,m,,,,,,0.04296875,-0.41015625,0,0,0,,0,373,373,97,1,
,,,,,,,,,,,,,,,,,,569298838d93fe000dfa033c,2020-11-27_10h07.40.884,lexical_decision_task_MP_exp2,2020.2.5,Win32,60,,m,0,0.66822,,,,,,,,0.66822,0,,,,,,354,NW,"ID",16,virlex,VIRLEX,z,,,,,,0.04296875,-0.41015625,0,0,0,,0,374,374,353,1,
,,,,,,,,,,,,,,,,,,569298838d93fe000dfa033c,2020-11-27_10h07.40.884,lexical_decision_task_MP_exp2,2020.2.5,Win32,60,,m,1,0.671645,,,,,,,,0.671645,1,,,,,,137,WORD,UN,33,melody,FINGER,m,,,,,,0.04296875,-0.41015625,0,0,0,,0,375,375,136,1,
,,,,,,,,,,,,,,,,,,569298838d93fe000dfa033c,2020-11-27_10h07.40.884,lexical_decision_task_MP_exp2,2020.2.5,Win32,60,,m,1,0.53307,,,,,,,,0.53307,1,,,,,,81,WORD,"ID",16,friend,FRIEND,m,,,,,,0.04296875,-0.41015625,0,0,0,,0,376,376,80,1,
,,,,,,,,,,,,,,,,,,569298838d93fe000dfa033c,2020-11-27_10h07.40.884,lexical_decision_task_MP_exp2,2020.2.5,Win32,60,,z,1,0.567285,,,,,,,,0.567285,1,,,,,,477,NW,UN,16,acrise,PHOTIE,z,,,,,,0.04296875,-0.41015625,0,0,0,,0,377,377,476,1,
,,,,,,,,,,,,,,,,,,569298838d93fe000dfa033c,2020-11-27_10h07.40.884,lexical_decision_task_MP_exp2,2020.2.5,Win32,60,,z,1,0.54776,,,,,,,,0.54776,1,,,,,,406,NW,UN,33,suiver,NOUPLY,z,,,,,,0.04296875,-0.41015625,0,0,0,,0,378,378,405,1,
,,,,,,,,,,,,,,,,,,569298838d93fe000dfa033c,2020-11-27_10h07.40.884,lexical_decision_task_MP_exp2,2020.2.5,Win32,60,,z,1,0.524525,,,,,,,,0.524525,1,,,,,,346,NW,"ID",16,saudic,SAUDIC,z,,,,,,0.04296875,-0.41015625,0,0,0,,0,379,379,345,1,
,,,,,,,,,,,,,,,,,,569298838d93fe000dfa033c,2020-11-27_10h07.40.884,lexical_decision_task_MP_exp2,2020.2.5,Win32,60,,z,1,0.57852,,,,,,,,0.57852,1,,,,,,445,NW,UN,16,runamo,MINKEL,z,,,,,,0.04296875,-0.41015625,0,0,0,,0,380,380,444,1,
,,,,,,,,,,,,,,,,,,569298838d93fe000dfa033c,2020-11-27_10h07.40.884,lexical_decision_task_MP_exp2,2020.2.5,Win32,60,,z,1,0.562655,,,,,,,,0.562655,1,,,,,,410,NW,UN,33,orchin,TUNORY,z,,,,,,0.04296875,-0.41015625,0,0,0,,0,381,381,409,1,
,,,,,,,,,,,,,,,,,,569298838d93fe000dfa033c,2020-11-27_10h07.40.884,lexical_decision_task_MP_exp2,2020.2.5,Win32,60,,m,1,0.56571,,,,,,,,0.56571,1,,,,,,125,WORD,UN,33,blouse,NICKEL,m,,,,,,0.04296875,-0.41015625,0,0,0,,0,382,382,124,1,
,,,,,,,,,,,,,,,,,,569298838d93fe000dfa033c,2020-11-27_10h07.40.884,lexical_decision_task_MP_exp2,2020.2.5,Win32,60,,z,1,0.58286,,,,,,,,0.58286,1,,,,,,344,NW,"ID",16,scrily,SCRILY,z,,,,,,0.04296875,-0.41015625,0,0,0,,0,383,383,343,1,
,,,,,,,,,,,,,,,,,,569298838d93fe000dfa033c,2020-11-27_10h07.40.884,lexical_decision_task_MP_exp2,2020.2.5,Win32,60,,z,1,0.730005,,,,,,,,0.730005,1,,,,,,332,NW,"ID",16,vangue,VANGUE,z,,,,,,0.04296875,-0.41015625,0,0,0,,0,384,384,331,1,
,,,,,,,,,,,,,,,,,,569298838d93fe000dfa033c,2020-11-27_10h07.40.884,lexical_decision_task_MP_exp2,2020.2.5,Win32,60,,z,1,0.601425,,,,,,,,0.601425,1,,,,,,256,NW,"ID",33,inlors,INLORS,z,,,,,,0.04296875,-0.41015625,0,0,0,,0,385,385,255,1,
,,,,,,,,,,,,,,,,,,569298838d93fe000dfa033c,2020-11-27_10h07.40.884,lexical_decision_task_MP_exp2,2020.2.5,Win32,60,,m,1,0.5043,,,,,,,,0.5043,1,,,,,,7,WORD,"ID",33,anchor,ANCHOR,m,,,,,,0.04296875,-0.41015625,0,0,0,,0,386,386,6,1,
,,,,,,,,,,,,,,,,,,569298838d93fe000dfa033c,2020-11-27_10h07.40.884,lexical_decision_task_MP_exp2,2020.2.5,Win32,60,,z,1,0.5673,,,,,,,,0.5673,1,,,,,,374,NW,UN,33,yorque,SLIANT,z,,,,,,0.04296875,-0.41015625,0,0,0,,0,387,387,373,1,
,,,,,,,,,,,,,,,,,,569298838d93fe000dfa033c,2020-11-27_10h07.40.884,lexical_decision_task_MP_exp2,2020.2.5,Win32,60,,m,1,0.516255,,,,,,,,0.516255,1,,,,,,143,WORD,UN,33,sponge,REASON,m,,,,,,0.04296875,-0.41015625,0,0,0,,0,388,388,142,1,
,,,,,,,,,,,,,,,,,,569298838d93fe000dfa033c,2020-11-27_10h07.40.884,lexical_decision_task_MP_exp2,2020.2.5,Win32,60,,z,1,0.534295,,,,,,,,0.534295,1,,,,,,433,NW,UN,16,pitrom,DRANCE,z,,,,,,0.04296875,-0.41015625,0,0,0,,0,389,389,432,1,
,,,,,,,,,,,,,,,,,,569298838d93fe000dfa033c,2020-11-27_10h07.40.884,lexical_decision_task_MP_exp2,2020.2.5,Win32,60,,z,1,0.54088,,,,,,,,0.54088,1,,,,,,273,NW,"ID",33,sortel,SORTEL,z,,,,,,0.04296875,-0.41015625,0,0,0,,0,390,390,272,1,
,,,,,,,,,,,,,,,,,,569298838d93fe000dfa033c,2020-11-27_10h07.40.884,lexical_decision_task_MP_exp2,2020.2.5,Win32,60,,m,1,0.54225,,,,,,,,0.54225,1,,,,,,141,WORD,UN,33,spruce,ORPHAN,m,,,,,,0.04296875,-0.41015625,0,0,0,,0,391,391,140,1,
,,,,,,,,,,,,,,,,,,569298838d93fe000dfa033c,2020-11-27_10h07.40.884,lexical_decision_task_MP_exp2,2020.2.5,Win32,60,,z,1,0.552615,,,,,,,,0.552615,1,,,,,,480,NW,UN,16,knisma,ROBULY,z,,,,,,0.04296875,-0.41015625,0,0,0,,0,392,392,479,1,
,,,,,,,,,,,,,,,,,,569298838d93fe000dfa033c,2020-11-27_10h07.40.884,lexical_decision_task_MP_exp2,2020.2.5,Win32,60,,m,1,0.61804,,,,,,,,0.61804,1,,,,,,120,WORD,"ID",16,strain,STRAIN,m,,,,,,0.04296875,-0.41015625,0,0,0,,0,393,393,119,1,
,,,,,,,,,,,,,,,,,,569298838d93fe000dfa033c,2020-11-27_10h07.40.884,lexical_decision_task_MP_exp2,2020.2.5,Win32,60,,z,1,0.51269,,,,,,,,0.51269,1,,,,,,309,NW,"ID",16,amiloy,AMILOY,z,,,,,,0.04296875,-0.41015625,0,0,0,,0,394,394,308,1,
,,,,,,,,,,,,,,,,,,569298838d93fe000dfa033c,2020-11-27_10h07.40.884,lexical_decision_task_MP_exp2,2020.2.5,Win32,60,,z,1,0.68206,,,,,,,,0.68206,1,,,,,,284,NW,"ID",33,shaple,SHAPLE,z,,,,,,0.04296875,-0.41015625,0,0,0,,0,395,395,283,1,
,,,,,,,,,,,,,,,,,,569298838d93fe000dfa033c,2020-11-27_10h07.40.884,lexical_decision_task_MP_exp2,2020.2.5,Win32,60,,z,1,0.5809,,,,,,,,0.5809,1,,,,,,379,NW,UN,33,cavory,AUTING,z,,,,,,0.04296875,-0.41015625,0,0,0,,0,396,396,378,1,
