counterbalancing_condition,instr_done_keyboard.keys,instr_done_touch.x,instr_done_touch.y,instr_done_touch.leftButton,instr_done_touch.midButton,instr_done_touch.rightButton,instr_done_touch.clicked_name,instruction_pages.thisRepN,instruction_pages.thisTrialN,instruction_pages.thisN,instruction_pages.thisIndex,instruction_pages.ran,pageN,phase,instruct_text,has_image,instruct_image,participant,date,expName,psychopyVersion,OS,frameRate,instr_done_keyboard.rt,response.keys,response.corr,response.rt,touch_resp.x,touch_resp.y,touch_resp.leftButton,touch_resp.midButton,touch_resp.rightButton,touch_resp.time,touch_resp.clicked_name,rt,corr,practice_trials.thisRepN,practice_trials.thisTrialN,practice_trials.thisN,practice_trials.thisIndex,practice_trials.ran,TrialID,StimulusType,Condition,PrimeDuration,Prime,Target,corrAns,end_of_practice_trials_pages.thisRepN,end_of_practice_trials_pages.thisTrialN,end_of_practice_trials_pages.thisN,end_of_practice_trials_pages.thisIndex,end_of_practice_trials_pages.ran,break_done_touch.x,break_done_touch.y,break_done_touch.leftButton,break_done_touch.midButton,break_done_touch.rightButton,break_done_keyboard.keys,experiment_trials.thisRepN,experiment_trials.thisTrialN,experiment_trials.thisN,experiment_trials.thisIndex,experiment_trials.ran,break_done_keyboard.rt
3,,-0.011111111,-0.422222222,1,0,0,instr_done_button,0,0,0,0,1,1,instructions,"INSTRUCTIONS
At the start of each trial, look at the hash marks (######) in the center of the screen. After a moment, a string of letters will appear. Your task is to indicate if the letter string forms a word or not (i.e., if it is a nonword). For example, AUTHOR is a word while AUTHON is a nonword.

Press the space bar or touch the button below to continue.",0,,57f697c6733f560001b5898b,2020-11-27_15h01.16.978,lexical_decision_task_MP_exp2,2020.2.5,Win32,60,,,,,,,,,,,,,,,,,,,,,,,,,,,,,,,,,,,,,,,,,,
,space,-0.011111111,-0.422222222,0,0,0,,0,1,1,1,1,2,instructions,"If your device has a keyboard, press the 'Z' key for nonwords and the 'M' key for words.





Press the space bar or touch the button below to continue.",1,keyboard-example.gif,57f697c6733f560001b5898b,2020-11-27_15h01.16.978,lexical_decision_task_MP_exp2,2020.2.5,Win32,60,3.17,,,,,,,,,,,,,,,,,,,,,,,,,,,,,,,,,,,,,,,,,
,space,-0.011111111,-0.422222222,0,0,0,,0,2,2,2,1,3,instructions,"If you are using a touchscreen only device, use the buttons on the screen. Do not use the mouse.





Press the space bar or touch the button below to continue.",1,touchscreen-example.gif,57f697c6733f560001b5898b,2020-11-27_15h01.16.978,lexical_decision_task_MP_exp2,2020.2.5,Win32,60,7.188,,,,,,,,,,,,,,,,,,,,,,,,,,,,,,,,,,,,,,,,,
,space,-0.011111111,-0.422222222,0,0,0,,0,3,3,3,1,4,instructions,"It is very important that you respond as quickly and accurately as possible, as each letter string will only be on the screen for two seconds. If you do not respond within this time, the message 'Too slow!' will be displayed and the experiment will progress to the next letter string. The first 20 trials will be practice trials and you will receive feedback on your answers. 

Press the space bar or touch the button below to start the practice trials.",0,,57f697c6733f560001b5898b,2020-11-27_15h01.16.978,lexical_decision_task_MP_exp2,2020.2.5,Win32,60,3.523,,,,,,,,,,,,,,,,,,,,,,,,,,,,,,,,,,,,,,,,,
,,,,,,,,,,,,,,,,,,57f697c6733f560001b5898b,2020-11-27_15h01.16.978,lexical_decision_task_MP_exp2,2020.2.5,Win32,60,,m,1,1.154,,,,,,,,1.154,1,0,0,0,2,1,1003,WORD,"ID",16,almond,ALMOND,m,,,,,,,,,,,,,,,,,
,,,,,,,,,,,,,,,,,,57f697c6733f560001b5898b,2020-11-27_15h01.16.978,lexical_decision_task_MP_exp2,2020.2.5,Win32,60,,z,1,0.64,,,,,,,,0.64,1,0,1,1,10,1,1011,NW,"ID",16,inlade,INLADE,z,,,,,,,,,,,,,,,,,
,,,,,,,,,,,,,,,,,,57f697c6733f560001b5898b,2020-11-27_15h01.16.978,lexical_decision_task_MP_exp2,2020.2.5,Win32,60,,z,1,0.652,,,,,,,,0.652,1,0,2,2,15,1,1016,NW,UN,16,mushed,WHAISE,z,,,,,,,,,,,,,,,,,
,,,,,,,,,,,,,,,,,,57f697c6733f560001b5898b,2020-11-27_15h01.16.978,lexical_decision_task_MP_exp2,2020.2.5,Win32,60,,m,1,0.547,,,,,,,,0.547,1,0,3,3,4,1,1005,WORD,UN,33,abound,SQUEAK,m,,,,,,,,,,,,,,,,,
,,,,,,,,,,,,,,,,,,57f697c6733f560001b5898b,2020-11-27_15h01.16.978,lexical_decision_task_MP_exp2,2020.2.5,Win32,60,,z,0,0.587,,,,,,,,0.587,0,0,4,4,0,1,1001,WORD,"ID",33,utopia,UTOPIA,m,,,,,,,,,,,,,,,,,
,,,,,,,,,,,,,,,,,,57f697c6733f560001b5898b,2020-11-27_15h01.16.978,lexical_decision_task_MP_exp2,2020.2.5,Win32,60,,z,1,0.826,,,,,,,,0.826,1,0,5,5,12,1,1013,NW,UN,33,adveil,SPRINY,z,,,,,,,,,,,,,,,,,
,,,,,,,,,,,,,,,,,,57f697c6733f560001b5898b,2020-11-27_15h01.16.978,lexical_decision_task_MP_exp2,2020.2.5,Win32,60,,m,1,0.485,,,,,,,,0.485,1,0,6,6,1,1,1002,WORD,"ID",33,adjust,ADJUST,m,,,,,,,,,,,,,,,,,
,,,,,,,,,,,,,,,,,,57f697c6733f560001b5898b,2020-11-27_15h01.16.978,lexical_decision_task_MP_exp2,2020.2.5,Win32,60,,z,1,0.668,,,,,,,,0.668,1,0,7,7,9,1,1010,NW,"ID",33,fariny,FARINY,z,,,,,,,,,,,,,,,,,
,,,,,,,,,,,,,,,,,,57f697c6733f560001b5898b,2020-11-27_15h01.16.978,lexical_decision_task_MP_exp2,2020.2.5,Win32,60,,z,1,0.72,,,,,,,,0.72,1,0,8,8,11,1,1012,NW,"ID",16,rashet,RASHET,z,,,,,,,,,,,,,,,,,
,,,,,,,,,,,,,,,,,,57f697c6733f560001b5898b,2020-11-27_15h01.16.978,lexical_decision_task_MP_exp2,2020.2.5,Win32,60,,m,1,0.617,,,,,,,,0.617,1,0,9,9,7,1,1008,WORD,UN,16,hurdle,VOLUME,m,,,,,,,,,,,,,,,,,
,,,,,,,,,,,,,,,,,,57f697c6733f560001b5898b,2020-11-27_15h01.16.978,lexical_decision_task_MP_exp2,2020.2.5,Win32,60,,z,1,0.734,,,,,,,,0.734,1,0,10,10,8,1,1009,NW,"ID",33,aslert,ASLERT,z,,,,,,,,,,,,,,,,,
,,,,,,,,,,,,,,,,,,57f697c6733f560001b5898b,2020-11-27_15h01.16.978,lexical_decision_task_MP_exp2,2020.2.5,Win32,60,,m,1,0.535,,,,,,,,0.535,1,0,11,11,6,1,1007,WORD,UN,16,tropic,ZOMBIE,m,,,,,,,,,,,,,,,,,
,,,,,,,,,,,,,,,,,,57f697c6733f560001b5898b,2020-11-27_15h01.16.978,lexical_decision_task_MP_exp2,2020.2.5,Win32,60,,z,1,0.734,,,,,,,,0.734,1,0,12,12,13,1,1014,NW,UN,33,winfer,ROUPET,z,,,,,,,,,,,,,,,,,
,,,,,,,,,,,,,,,,,,57f697c6733f560001b5898b,2020-11-27_15h01.16.978,lexical_decision_task_MP_exp2,2020.2.5,Win32,60,,z,0,0.586,,,,,,,,0.586,0,0,13,13,3,1,1004,WORD,"ID",16,matrix,MATRIX,m,,,,,,,,,,,,,,,,,
,,,,,,,,,,,,,,,,,,57f697c6733f560001b5898b,2020-11-27_15h01.16.978,lexical_decision_task_MP_exp2,2020.2.5,Win32,60,,m,1,0.651,,,,,,,,0.651,1,0,14,14,5,1,1006,WORD,UN,33,frenzy,OBTAIN,m,,,,,,,,,,,,,,,,,
,,,,,,,,,,,,,,,,,,57f697c6733f560001b5898b,2020-11-27_15h01.16.978,lexical_decision_task_MP_exp2,2020.2.5,Win32,60,,z,1,0.649,,,,,,,,0.649,1,0,15,15,14,1,1015,NW,UN,16,miaber,THRALE,z,,,,,,,,,,,,,,,,,
,space,-0.011111111,-0.422222222,0,0,0,,,,,,,1,end_of_practice,"You have completed the practice trials. During the experimental trials, you will not receive feedback, but it is very important that you respond as quickly and accurately as possible. 
Before you begin, please ensure that you are in a comfortable and quiet location and will not be disturbed for about 15 minutes, as we cannot use your data if you do not complete all the trials. 
There will be opportunities to take breaks at regular intervals during the experiment. When you are ready to start the experimental trials, please press space or touch the button below.",,,57f697c6733f560001b5898b,2020-11-27_15h01.16.978,lexical_decision_task_MP_exp2,2020.2.5,Win32,60,2.372,,,,,,,,,,,,,,,,,,,,,,,,,0,0,0,0,1,,,,,,,,,,,,
,,,,,,,,,,,,,,,,,,57f697c6733f560001b5898b,2020-11-27_15h01.16.978,lexical_decision_task_MP_exp2,2020.2.5,Win32,60,,m,1,0.508,,,,,,,,0.508,1,,,,,,101,WORD,"ID",33,wrench,WRENCH,m,,,,,,-0.011111111,-0.422222222,0,0,0,,0,0,0,40,1,
,,,,,,,,,,,,,,,,,,57f697c6733f560001b5898b,2020-11-27_15h01.16.978,lexical_decision_task_MP_exp2,2020.2.5,Win32,60,,z,1,0.615,,,,,,,,0.615,1,,,,,,394,NW,"ID",16,spaqux,SPAQUX,z,,,,,,-0.011111111,-0.422222222,0,0,0,,0,1,1,333,1,
,,,,,,,,,,,,,,,,,,57f697c6733f560001b5898b,2020-11-27_15h01.16.978,lexical_decision_task_MP_exp2,2020.2.5,Win32,60,,z,1,0.723,,,,,,,,0.723,1,,,,,,273,NW,UN,16,fumblo,SORTEL,z,,,,,,-0.011111111,-0.422222222,0,0,0,,0,2,2,452,1,
,,,,,,,,,,,,,,,,,,57f697c6733f560001b5898b,2020-11-27_15h01.16.978,lexical_decision_task_MP_exp2,2020.2.5,Win32,60,,m,0,0.634,,,,,,,,0.634,0,,,,,,254,NW,UN,16,apight,VAROSH,z,,,,,,-0.011111111,-0.422222222,0,0,0,,0,3,3,433,1,
,,,,,,,,,,,,,,,,,,57f697c6733f560001b5898b,2020-11-27_15h01.16.978,lexical_decision_task_MP_exp2,2020.2.5,Win32,60,,m,1,0.662,,,,,,,,0.662,1,,,,,,15,WORD,UN,16,faucet,AMOUNT,m,,,,,,-0.011111111,-0.422222222,0,0,0,,0,4,4,194,1,
,,,,,,,,,,,,,,,,,,57f697c6733f560001b5898b,2020-11-27_15h01.16.978,lexical_decision_task_MP_exp2,2020.2.5,Win32,60,,m,1,0.575,,,,,,,,0.575,1,,,,,,212,WORD,UN,33,squeal,VERIFY,m,,,,,,-0.011111111,-0.422222222,0,0,0,,0,5,5,151,1,
,,,,,,,,,,,,,,,,,,57f697c6733f560001b5898b,2020-11-27_15h01.16.978,lexical_decision_task_MP_exp2,2020.2.5,Win32,60,,z,1,0.694,,,,,,,,0.694,1,,,,,,271,NW,UN,16,damilt,AUBRID,z,,,,,,-0.011111111,-0.422222222,0,0,0,,0,6,6,450,1,
,,,,,,,,,,,,,,,,,,57f697c6733f560001b5898b,2020-11-27_15h01.16.978,lexical_decision_task_MP_exp2,2020.2.5,Win32,60,,m,1,1.235,,,,,,,,1.235,1,,,,,,43,WORD,UN,16,foster,TONGUE,m,,,,,,-0.011111111,-0.422222222,0,0,0,,0,7,7,222,1,
,,,,,,,,,,,,,,,,,,57f697c6733f560001b5898b,2020-11-27_15h01.16.978,lexical_decision_task_MP_exp2,2020.2.5,Win32,60,,m,1,0.777,,,,,,,,0.777,1,,,,,,64,WORD,"ID",33,throne,THRONE,m,,,,,,-0.011111111,-0.422222222,0,0,0,,0,8,8,3,1,
,,,,,,,,,,,,,,,,,,57f697c6733f560001b5898b,2020-11-27_15h01.16.978,lexical_decision_task_MP_exp2,2020.2.5,Win32,60,,m,1,0.708,,,,,,,,0.708,1,,,,,,137,WORD,"ID",16,finger,FINGER,m,,,,,,-0.011111111,-0.422222222,0,0,0,,0,9,9,76,1,
,,,,,,,,,,,,,,,,,,57f697c6733f560001b5898b,2020-11-27_15h01.16.978,lexical_decision_task_MP_exp2,2020.2.5,Win32,60,,m,1,0.637,,,,,,,,0.637,1,,,,,,33,WORD,UN,16,jungle,BUTLER,m,,,,,,-0.011111111,-0.422222222,0,0,0,,0,10,10,212,1,
,,,,,,,,,,,,,,,,,,57f697c6733f560001b5898b,2020-11-27_15h01.16.978,lexical_decision_task_MP_exp2,2020.2.5,Win32,60,,m,1,0.54,,,,,,,,0.54,1,,,,,,37,WORD,UN,16,powder,INSULT,m,,,,,,-0.011111111,-0.422222222,0,0,0,,0,11,11,216,1,
,,,,,,,,,,,,,,,,,,57f697c6733f560001b5898b,2020-11-27_15h01.16.978,lexical_decision_task_MP_exp2,2020.2.5,Win32,60,,z,1,0.555,,,,,,,,0.555,1,,,,,,259,NW,UN,16,unject,SOUDAL,z,,,,,,-0.011111111,-0.422222222,0,0,0,,0,12,12,438,1,
,,,,,,,,,,,,,,,,,,57f697c6733f560001b5898b,2020-11-27_15h01.16.978,lexical_decision_task_MP_exp2,2020.2.5,Win32,60,,z,1,0.548,,,,,,,,0.548,1,,,,,,354,NW,"ID",33,virlex,VIRLEX,z,,,,,,-0.011111111,-0.422222222,0,0,0,,0,13,13,293,1,
,,,,,,,,,,,,,,,,,,57f697c6733f560001b5898b,2020-11-27_15h01.16.978,lexical_decision_task_MP_exp2,2020.2.5,Win32,60,,m,1,0.5,,,,,,,,0.5,1,,,,,,84,WORD,"ID",33,mortal,MORTAL,m,,,,,,-0.011111111,-0.422222222,0,0,0,,0,14,14,23,1,
,,,,,,,,,,,,,,,,,,57f697c6733f560001b5898b,2020-11-27_15h01.16.978,lexical_decision_task_MP_exp2,2020.2.5,Win32,60,,m,1,0.565,,,,,,,,0.565,1,,,,,,228,WORD,UN,33,kidney,MASTER,m,,,,,,-0.011111111,-0.422222222,0,0,0,,0,15,15,167,1,
,,,,,,,,,,,,,,,,,,57f697c6733f560001b5898b,2020-11-27_15h01.16.978,lexical_decision_task_MP_exp2,2020.2.5,Win32,60,,m,1,0.501,,,,,,,,0.501,1,,,,,,177,WORD,"ID",16,advent,ADVENT,m,,,,,,-0.011111111,-0.422222222,0,0,0,,0,16,16,116,1,
,,,,,,,,,,,,,,,,,,57f697c6733f560001b5898b,2020-11-27_15h01.16.978,lexical_decision_task_MP_exp2,2020.2.5,Win32,60,,m,1,0.589,,,,,,,,0.589,1,,,,,,98,WORD,"ID",33,belong,BELONG,m,,,,,,-0.011111111,-0.422222222,0,0,0,,0,17,17,37,1,
,,,,,,,,,,,,,,,,,,57f697c6733f560001b5898b,2020-11-27_15h01.16.978,lexical_decision_task_MP_exp2,2020.2.5,Win32,60,,m,1,0.672,,,,,,,,0.672,1,,,,,,199,WORD,UN,33,plague,INVOKE,m,,,,,,-0.011111111,-0.422222222,0,0,0,,0,18,18,138,1,
,,,,,,,,,,,,,,,,,,57f697c6733f560001b5898b,2020-11-27_15h01.16.978,lexical_decision_task_MP_exp2,2020.2.5,Win32,60,,z,1,0.606,,,,,,,,0.606,1,,,,,,310,NW,"ID",33,daniet,DANIET,z,,,,,,-0.011111111,-0.422222222,0,0,0,,0,19,19,249,1,
,,,,,,,,,,,,,,,,,,57f697c6733f560001b5898b,2020-11-27_15h01.16.978,lexical_decision_task_MP_exp2,2020.2.5,Win32,60,,m,1,0.578,,,,,,,,0.578,1,,,,,,224,WORD,UN,33,vulgar,PERIOD,m,,,,,,-0.011111111,-0.422222222,0,0,0,,0,20,20,163,1,
,,,,,,,,,,,,,,,,,,57f697c6733f560001b5898b,2020-11-27_15h01.16.978,lexical_decision_task_MP_exp2,2020.2.5,Win32,60,,z,1,0.616,,,,,,,,0.616,1,,,,,,363,NW,"ID",16,breali,BREALI,z,,,,,,-0.011111111,-0.422222222,0,0,0,,0,21,21,302,1,
,,,,,,,,,,,,,,,,,,57f697c6733f560001b5898b,2020-11-27_15h01.16.978,lexical_decision_task_MP_exp2,2020.2.5,Win32,60,,m,1,0.513,,,,,,,,0.513,1,,,,,,18,WORD,UN,16,patron,HUMBLE,m,,,,,,-0.011111111,-0.422222222,0,0,0,,0,22,22,197,1,
,,,,,,,,,,,,,,,,,,57f697c6733f560001b5898b,2020-11-27_15h01.16.978,lexical_decision_task_MP_exp2,2020.2.5,Win32,60,,m,1,0.572,,,,,,,,0.572,1,,,,,,31,WORD,UN,16,buckle,WEAPON,m,,,,,,-0.011111111,-0.422222222,0,0,0,,0,23,23,210,1,
,,,,,,,,,,,,,,,,,,57f697c6733f560001b5898b,2020-11-27_15h01.16.978,lexical_decision_task_MP_exp2,2020.2.5,Win32,60,,m,1,0.539,,,,,,,,0.539,1,,,,,,48,WORD,UN,16,survey,WALNUT,m,,,,,,-0.011111111,-0.422222222,0,0,0,,0,24,24,227,1,
,,,,,,,,,,,,,,,,,,57f697c6733f560001b5898b,2020-11-27_15h01.16.978,lexical_decision_task_MP_exp2,2020.2.5,Win32,60,,m,1,0.649,,,,,,,,0.649,1,,,,,,30,WORD,UN,16,weapon,ORIENT,m,,,,,,-0.011111111,-0.422222222,0,0,0,,0,25,25,209,1,
,,,,,,,,,,,,,,,,,,57f697c6733f560001b5898b,2020-11-27_15h01.16.978,lexical_decision_task_MP_exp2,2020.2.5,Win32,60,,m,1,0.583,,,,,,,,0.583,1,,,,,,226,WORD,UN,33,flower,CASINO,m,,,,,,-0.011111111,-0.422222222,0,0,0,,0,26,26,165,1,
,,,,,,,,,,,,,,,,,,57f697c6733f560001b5898b,2020-11-27_15h01.16.978,lexical_decision_task_MP_exp2,2020.2.5,Win32,60,,z,1,0.971,,,,,,,,0.971,1,,,,,,413,NW,"ID",16,equats,EQUATS,z,,,,,,-0.011111111,-0.422222222,0,0,0,,0,27,27,352,1,
,,,,,,,,,,,,,,,,,,57f697c6733f560001b5898b,2020-11-27_15h01.16.978,lexical_decision_task_MP_exp2,2020.2.5,Win32,60,,z,1,1.315,,,,,,,,1.315,1,,,,,,417,NW,"ID",16,earoud,EAROUD,z,,,,,,-0.011111111,-0.422222222,0,0,0,,0,28,28,356,1,
,,,,,,,,,,,,,,,,,,57f697c6733f560001b5898b,2020-11-27_15h01.16.978,lexical_decision_task_MP_exp2,2020.2.5,Win32,60,,m,1,0.698,,,,,,,,0.698,1,,,,,,130,WORD,"ID",16,stupid,STUPID,m,,,,,,-0.011111111,-0.422222222,0,0,0,,0,29,29,69,1,
,,,,,,,,,,,,,,,,,,57f697c6733f560001b5898b,2020-11-27_15h01.16.978,lexical_decision_task_MP_exp2,2020.2.5,Win32,60,,m,1,0.602,,,,,,,,0.602,1,,,,,,148,WORD,"ID",16,custom,CUSTOM,m,,,,,,-0.011111111,-0.422222222,0,0,0,,0,30,30,87,1,
,,,,,,,,,,,,,,,,,,57f697c6733f560001b5898b,2020-11-27_15h01.16.978,lexical_decision_task_MP_exp2,2020.2.5,Win32,60,,z,1,0.836,,,,,,,,0.836,1,,,,,,314,NW,"ID",33,sprine,SPRINE,z,,,,,,-0.011111111,-0.422222222,0,0,0,,0,31,31,253,1,
,,,,,,,,,,,,,,,,,,57f697c6733f560001b5898b,2020-11-27_15h01.16.978,lexical_decision_task_MP_exp2,2020.2.5,Win32,60,,z,1,0.869,,,,,,,,0.869,1,,,,,,448,NW,UN,33,brunge,SADENT,z,,,,,,-0.011111111,-0.422222222,0,0,0,,0,32,32,387,1,
,,,,,,,,,,,,,,,,,,57f697c6733f560001b5898b,2020-11-27_15h01.16.978,lexical_decision_task_MP_exp2,2020.2.5,Win32,60,,m,1,0.567,,,,,,,,0.567,1,,,,,,129,WORD,"ID",16,marvel,MARVEL,m,,,,,,-0.011111111,-0.422222222,0,0,0,,0,33,33,68,1,
,,,,,,,,,,,,,,,,,,57f697c6733f560001b5898b,2020-11-27_15h01.16.978,lexical_decision_task_MP_exp2,2020.2.5,Win32,60,,z,0,0.619,,,,,,,,0.619,0,,,,,,183,WORD,UN,33,sleazy,MILDEW,m,,,,,,-0.011111111,-0.422222222,0,0,0,,0,34,34,122,1,
,,,,,,,,,,,,,,,,,,57f697c6733f560001b5898b,2020-11-27_15h01.16.978,lexical_decision_task_MP_exp2,2020.2.5,Win32,60,,m,1,0.798,,,,,,,,0.798,1,,,,,,55,WORD,UN,16,ambush,STROKE,m,,,,,,-0.011111111,-0.422222222,0,0,0,,0,35,35,234,1,
,,,,,,,,,,,,,,,,,,57f697c6733f560001b5898b,2020-11-27_15h01.16.978,lexical_decision_task_MP_exp2,2020.2.5,Win32,60,,m,1,0.601,,,,,,,,0.601,1,,,,,,196,WORD,UN,33,stream,CREDIT,m,,,,,,-0.011111111,-0.422222222,0,0,0,,0,36,36,135,1,
,,,,,,,,,,,,,,,,,,57f697c6733f560001b5898b,2020-11-27_15h01.16.978,lexical_decision_task_MP_exp2,2020.2.5,Win32,60,,m,1,0.626,,,,,,,,0.626,1,,,,,,217,WORD,UN,33,shrink,LIQUOR,m,,,,,,-0.011111111,-0.422222222,0,0,0,,0,37,37,156,1,
,,,,,,,,,,,,,,,,,,57f697c6733f560001b5898b,2020-11-27_15h01.16.978,lexical_decision_task_MP_exp2,2020.2.5,Win32,60,,z,1,0.734,,,,,,,,0.734,1,,,,,,428,NW,UN,33,funtle,TANDLY,z,,,,,,-0.011111111,-0.422222222,0,0,0,,0,38,38,367,1,
,,,,,,,,,,,,,,,,,,57f697c6733f560001b5898b,2020-11-27_15h01.16.978,lexical_decision_task_MP_exp2,2020.2.5,Win32,60,,m,1,0.635,,,,,,,,0.635,1,,,,,,123,WORD,"ID",16,strike,STRIKE,m,,,,,,-0.011111111,-0.422222222,0,0,0,,0,39,39,62,1,
,,,,,,,,,,,,,,,,,,57f697c6733f560001b5898b,2020-11-27_15h01.16.978,lexical_decision_task_MP_exp2,2020.2.5,Win32,60,,z,1,0.686,,,,,,,,0.686,1,,,,,,399,NW,"ID",16,fouret,FOURET,z,,,,,,-0.011111111,-0.422222222,0,0,0,,0,40,40,338,1,
,,,,,,,,,,,,,,,,,,57f697c6733f560001b5898b,2020-11-27_15h01.16.978,lexical_decision_task_MP_exp2,2020.2.5,Win32,60,,z,1,0.632,,,,,,,,0.632,1,,,,,,265,NW,UN,16,varmit,DISTAR,z,,,,,,-0.011111111,-0.422222222,0,0,0,,0,41,41,444,1,
,,,,,,,,,,,,,,,,,,57f697c6733f560001b5898b,2020-11-27_15h01.16.978,lexical_decision_task_MP_exp2,2020.2.5,Win32,60,,z,1,0.529,,,,,,,,0.529,1,,,,,,439,NW,UN,33,saride,LIMPOR,z,,,,,,-0.011111111,-0.422222222,0,0,0,,0,42,42,378,1,
,,,,,,,,,,,,,,,,,,57f697c6733f560001b5898b,2020-11-27_15h01.16.978,lexical_decision_task_MP_exp2,2020.2.5,Win32,60,,m,1,0.485,,,,,,,,0.485,1,,,,,,46,WORD,UN,16,income,SINGLE,m,,,,,,-0.011111111,-0.422222222,0,0,0,,0,43,43,225,1,
,,,,,,,,,,,,,,,,,,57f697c6733f560001b5898b,2020-11-27_15h01.16.978,lexical_decision_task_MP_exp2,2020.2.5,Win32,60,,z,1,0.814,,,,,,,,0.814,1,,,,,,389,NW,"ID",16,witmer,WITMER,z,,,,,,-0.011111111,-0.422222222,0,0,0,,0,44,44,328,1,
,,,,,,,,,,,,,,,,,,57f697c6733f560001b5898b,2020-11-27_15h01.16.978,lexical_decision_task_MP_exp2,2020.2.5,Win32,60,,z,1,0.652,,,,,,,,0.652,1,,,,,,430,NW,UN,33,chrums,CAROEY,z,,,,,,-0.011111111,-0.422222222,0,0,0,,0,45,45,369,1,
,,,,,,,,,,,,,,,,,,57f697c6733f560001b5898b,2020-11-27_15h01.16.978,lexical_decision_task_MP_exp2,2020.2.5,Win32,60,,m,1,0.496,,,,,,,,0.496,1,,,,,,201,WORD,UN,33,factor,ADMIRE,m,,,,,,-0.011111111,-0.422222222,0,0,0,,0,46,46,140,1,
,,,,,,,,,,,,,,,,,,57f697c6733f560001b5898b,2020-11-27_15h01.16.978,lexical_decision_task_MP_exp2,2020.2.5,Win32,60,,m,1,0.654,,,,,,,,0.654,1,,,,,,125,WORD,"ID",16,nickel,NICKEL,m,,,,,,-0.011111111,-0.422222222,0,0,0,,0,47,47,64,1,
,,,,,,,,,,,,,,,,,,57f697c6733f560001b5898b,2020-11-27_15h01.16.978,lexical_decision_task_MP_exp2,2020.2.5,Win32,60,,z,1,0.57,,,,,,,,0.57,1,,,,,,441,NW,UN,33,aboune,RASTOE,z,,,,,,-0.011111111,-0.422222222,0,0,0,,0,48,48,380,1,
,,,,,,,,,,,,,,,,,,57f697c6733f560001b5898b,2020-11-27_15h01.16.978,lexical_decision_task_MP_exp2,2020.2.5,Win32,60,,z,1,0.591,,,,,,,,0.591,1,,,,,,249,NW,UN,16,milted,BATROL,z,,,,,,-0.011111111,-0.422222222,0,0,0,,0,49,49,428,1,
,,,,,,,,,,,,,,,,,,57f697c6733f560001b5898b,2020-11-27_15h01.16.978,lexical_decision_task_MP_exp2,2020.2.5,Win32,60,,m,1,0.73,,,,,,,,0.73,1,,,,,,222,WORD,UN,33,export,HINDER,m,,,,,,-0.011111111,-0.422222222,0,0,0,,0,50,50,161,1,
,,,,,,,,,,,,,,,,,,57f697c6733f560001b5898b,2020-11-27_15h01.16.978,lexical_decision_task_MP_exp2,2020.2.5,Win32,60,,z,1,0.804,,,,,,,,0.804,1,,,,,,445,NW,UN,33,runamo,MINKEL,z,,,,,,-0.011111111,-0.422222222,0,0,0,,0,51,51,384,1,
,,,,,,,,,,,,,,,,,,57f697c6733f560001b5898b,2020-11-27_15h01.16.978,lexical_decision_task_MP_exp2,2020.2.5,Win32,60,,m,0,0.638,,,,,,,,0.638,0,,,,,,476,NW,UN,33,photie,JOSTED,z,,,,,,-0.011111111,-0.422222222,0,0,0,,0,52,52,415,1,
,,,,,,,,,,,,,,,,,,57f697c6733f560001b5898b,2020-11-27_15h01.16.978,lexical_decision_task_MP_exp2,2020.2.5,Win32,60,,m,1,0.683,,,,,,,,0.683,1,,,,,,59,WORD,UN,16,pencil,SPLINT,m,,,,,,-0.011111111,-0.422222222,0,0,0,,0,53,53,238,1,
,,,,,,,,,,,,,,,,,,57f697c6733f560001b5898b,2020-11-27_15h01.16.978,lexical_decision_task_MP_exp2,2020.2.5,Win32,60,,z,0,0.603,,,,,,,,0.603,0,,,,,,73,WORD,"ID",33,source,SOURCE,m,,,,,,-0.011111111,-0.422222222,0,0,0,,0,54,54,12,1,
,,,,,,,,,,,,,,,,,,57f697c6733f560001b5898b,2020-11-27_15h01.16.978,lexical_decision_task_MP_exp2,2020.2.5,Win32,60,,m,1,0.838,,,,,,,,0.838,1,,,,,,49,WORD,UN,16,snatch,SURVEY,m,,,,,,-0.011111111,-0.422222222,0,0,0,,0,55,55,228,1,
,,,,,,,,,,,,,,,,,,57f697c6733f560001b5898b,2020-11-27_15h01.16.978,lexical_decision_task_MP_exp2,2020.2.5,Win32,60,,z,1,0.704,,,,,,,,0.704,1,,,,,,382,NW,"ID",16,sarley,SARLEY,z,,,,,,-0.011111111,-0.422222222,0,0,0,,0,56,56,321,1,
,,,,,,,,,,,,,,,,,,57f697c6733f560001b5898b,2020-11-27_15h01.16.978,lexical_decision_task_MP_exp2,2020.2.5,Win32,60,,z,1,0.867,,,,,,,,0.867,1,,,,,,381,NW,"ID",16,huniek,HUNIEK,z,,,,,,-0.011111111,-0.422222222,0,0,0,,0,57,57,320,1,
,,,,,,,,,,,,,,,,,,57f697c6733f560001b5898b,2020-11-27_15h01.16.978,lexical_decision_task_MP_exp2,2020.2.5,Win32,60,,m,1,0.547,,,,,,,,0.547,1,,,,,,158,WORD,"ID",16,island,ISLAND,m,,,,,,-0.011111111,-0.422222222,0,0,0,,0,58,58,97,1,
,,,,,,,,,,,,,,,,,,57f697c6733f560001b5898b,2020-11-27_15h01.16.978,lexical_decision_task_MP_exp2,2020.2.5,Win32,60,,z,1,0.691,,,,,,,,0.691,1,,,,,,323,NW,"ID",33,rosail,ROSAIL,z,,,,,,-0.011111111,-0.422222222,0,0,0,,0,59,59,262,1,
,,,,,,,,,,,,,,,,,,57f697c6733f560001b5898b,2020-11-27_15h01.16.978,lexical_decision_task_MP_exp2,2020.2.5,Win32,60,,m,1,0.621,,,,,,,,0.621,1,,,,,,146,WORD,"ID",16,couple,COUPLE,m,,,,,,-0.011111111,-0.422222222,0,0,0,,0,60,60,85,1,
,,,,,,,,,,,,,,,,,,57f697c6733f560001b5898b,2020-11-27_15h01.16.978,lexical_decision_task_MP_exp2,2020.2.5,Win32,60,,z,1,0.603,,,,,,,,0.603,1,,,,,,257,NW,UN,16,poluth,VENIOD,z,,,,,,-0.011111111,-0.422222222,0,0,0,,0,61,61,436,1,
,,,,,,,,,,,,,,,,,,57f697c6733f560001b5898b,2020-11-27_15h01.16.978,lexical_decision_task_MP_exp2,2020.2.5,Win32,60,,z,1,0.87,,,,,,,,0.87,1,,,,,,338,NW,"ID",33,wreash,WREASH,z,,,,,,-0.011111111,-0.422222222,0,0,0,,0,62,62,277,1,
,,,,,,,,,,,,,,,,,,57f697c6733f560001b5898b,2020-11-27_15h01.16.978,lexical_decision_task_MP_exp2,2020.2.5,Win32,60,,z,1,0.734,,,,,,,,0.734,1,,,,,,285,NW,UN,16,reldon,PRUDGE,z,,,,,,-0.011111111,-0.422222222,0,0,0,,0,63,63,464,1,
,,,,,,,,,,,,,,,,,,57f697c6733f560001b5898b,2020-11-27_15h01.16.978,lexical_decision_task_MP_exp2,2020.2.5,Win32,60,,m,1,0.975,,,,,,,,0.975,1,,,,,,58,WORD,UN,16,splint,FOSTER,m,,,,,,-0.011111111,-0.422222222,0,0,0,,0,64,64,237,1,
,,,,,,,,,,,,,,,,,,57f697c6733f560001b5898b,2020-11-27_15h01.16.978,lexical_decision_task_MP_exp2,2020.2.5,Win32,60,,z,1,0.639,,,,,,,,0.639,1,,,,,,344,NW,"ID",33,scrily,SCRILY,z,,,,,,-0.011111111,-0.422222222,0,0,0,,0,65,65,283,1,
,,,,,,,,,,,,,,,,,,57f697c6733f560001b5898b,2020-11-27_15h01.16.978,lexical_decision_task_MP_exp2,2020.2.5,Win32,60,,z,1,0.681,,,,,,,,0.681,1,,,,,,409,NW,"ID",16,elopia,ELOPIA,z,,,,,,-0.011111111,-0.422222222,0,0,0,,0,66,66,348,1,
,,,,,,,,,,,,,,,,,,57f697c6733f560001b5898b,2020-11-27_15h01.16.978,lexical_decision_task_MP_exp2,2020.2.5,Win32,60,,m,1,1.053,,,,,,,,1.053,1,,,,,,194,WORD,UN,33,resign,ABSENT,m,,,,,,-0.011111111,-0.422222222,0,0,0,,0,67,67,133,1,
,,,,,,,,,,,,,,,,,,57f697c6733f560001b5898b,2020-11-27_15h01.16.978,lexical_decision_task_MP_exp2,2020.2.5,Win32,60,,m,0,0.69,,,,,,,,0.69,0,,,,,,453,NW,UN,33,scouge,BOLVIS,z,,,,,,-0.011111111,-0.422222222,0,0,0,,0,68,68,392,1,
,,,,,,,,,,,,,,,,,,57f697c6733f560001b5898b,2020-11-27_15h01.16.978,lexical_decision_task_MP_exp2,2020.2.5,Win32,60,,m,1,0.718,,,,,,,,0.718,1,,,,,,182,WORD,UN,33,absent,WINTER,m,,,,,,-0.011111111,-0.422222222,0,0,0,,0,69,69,121,1,
,,,,,,,,,,,,,,,,,,57f697c6733f560001b5898b,2020-11-27_15h01.16.978,lexical_decision_task_MP_exp2,2020.2.5,Win32,60,,m,1,0.82,,,,,,,,0.82,1,,,,,,94,WORD,"ID",33,travel,TRAVEL,m,,,,,,-0.011111111,-0.422222222,0,0,0,,0,70,70,33,1,
,,,,,,,,,,,,,,,,,,57f697c6733f560001b5898b,2020-11-27_15h01.16.978,lexical_decision_task_MP_exp2,2020.2.5,Win32,60,,z,1,0.708,,,,,,,,0.708,1,,,,,,288,NW,UN,16,starby,YACEUP,z,,,,,,-0.011111111,-0.422222222,0,0,0,,0,71,71,467,1,
,,,,,,,,,,,,,,,,,,57f697c6733f560001b5898b,2020-11-27_15h01.16.978,lexical_decision_task_MP_exp2,2020.2.5,Win32,60,,m,1,0.626,,,,,,,,0.626,1,,,,,,21,WORD,UN,16,jockey,SIMPLE,m,,,,,,-0.011111111,-0.422222222,0,0,0,,0,72,72,200,1,
,,,,,,,,,,,,,,,,,,57f697c6733f560001b5898b,2020-11-27_15h01.16.978,lexical_decision_task_MP_exp2,2020.2.5,Win32,60,,m,1,0.609,,,,,,,,0.609,1,,,,,,150,WORD,"ID",16,random,RANDOM,m,,,,,,-0.011111111,-0.422222222,0,0,0,,0,73,73,89,1,
,,,,,,,,,,,,,,,,,,57f697c6733f560001b5898b,2020-11-27_15h01.16.978,lexical_decision_task_MP_exp2,2020.2.5,Win32,60,,z,1,1.016,,,,,,,,1.016,1,,,,,,436,NW,UN,33,snapel,FRUTAN,z,,,,,,-0.011111111,-0.422222222,0,0,0,,0,74,74,375,1,
,,,,,,,,,,,,,,,,,,57f697c6733f560001b5898b,2020-11-27_15h01.16.978,lexical_decision_task_MP_exp2,2020.2.5,Win32,60,,m,1,1.148,,,,,,,,1.148,1,,,,,,85,WORD,"ID",33,sprawl,SPRAWL,m,,,,,,-0.011111111,-0.422222222,0,0,0,,0,75,75,24,1,
,,,,,,,,,,,,,,,,,,57f697c6733f560001b5898b,2020-11-27_15h01.16.978,lexical_decision_task_MP_exp2,2020.2.5,Win32,60,,z,1,1.05,,,,,,,,1.05,1,,,,,,352,NW,"ID",33,tringe,TRINGE,z,,,,,,-0.011111111,-0.422222222,0,0,0,,0,76,76,291,1,
,,,,,,,,,,,,,,,,,,57f697c6733f560001b5898b,2020-11-27_15h01.16.978,lexical_decision_task_MP_exp2,2020.2.5,Win32,60,,z,1,0.885,,,,,,,,0.885,1,,,,,,291,NW,UN,16,ablint,PRETCH,z,,,,,,-0.011111111,-0.422222222,0,0,0,,0,77,77,470,1,
,,,,,,,,,,,,,,,,,,57f697c6733f560001b5898b,2020-11-27_15h01.16.978,lexical_decision_task_MP_exp2,2020.2.5,Win32,60,,m,1,0.633,,,,,,,,0.633,1,,,,,,69,WORD,"ID",33,plenty,PLENTY,m,,,,,,-0.011111111,-0.422222222,0,0,0,,0,78,78,8,1,
,,,,,,,,,,,,,,,,,,57f697c6733f560001b5898b,2020-11-27_15h01.16.978,lexical_decision_task_MP_exp2,2020.2.5,Win32,60,,z,1,0.966,,,,,,,,0.966,1,,,,,,360,NW,"ID",33,desory,DESORY,z,,,,,,-0.011111111,-0.422222222,0,0,0,,0,79,79,299,1,
,,,,,,,,,,,,,,,,,,57f697c6733f560001b5898b,2020-11-27_15h01.16.978,lexical_decision_task_MP_exp2,2020.2.5,Win32,60,,m,1,0.668,,,,,,,,0.668,1,,,,,,208,WORD,UN,33,search,HOCKEY,m,,,,,,-0.011111111,-0.422222222,0,0,0,,0,80,80,147,1,
,,,,,,,,,,,,,,,,,,57f697c6733f560001b5898b,2020-11-27_15h01.16.978,lexical_decision_task_MP_exp2,2020.2.5,Win32,60,,z,1,0.855,,,,,,,,0.855,1,,,,,,311,NW,"ID",33,sproly,SPROLY,z,,,,,,-0.011111111,-0.422222222,0,0,0,,0,81,81,250,1,
,,,,,,,,,,,,,,,,,,57f697c6733f560001b5898b,2020-11-27_15h01.16.978,lexical_decision_task_MP_exp2,2020.2.5,Win32,60,,z,1,0.752,,,,,,,,0.752,1,,,,,,390,NW,"ID",16,hatrus,HATRUS,z,,,,,,-0.011111111,-0.422222222,0,0,0,,0,82,82,329,1,
,,,,,,,,,,,,,,,,,,57f697c6733f560001b5898b,2020-11-27_15h01.16.978,lexical_decision_task_MP_exp2,2020.2.5,Win32,60,,z,1,0.669,,,,,,,,0.669,1,,,,,,387,NW,"ID",16,gronce,GRONCE,z,,,,,,-0.011111111,-0.422222222,0,0,0,,0,83,83,326,1,
,,,,,,,,,,,,,,,,,,57f697c6733f560001b5898b,2020-11-27_15h01.16.978,lexical_decision_task_MP_exp2,2020.2.5,Win32,60,,m,0,0.623,,,,,,,,0.623,0,,,,,,452,NW,UN,33,bolvis,SURDEN,z,,,,,,-0.011111111,-0.422222222,0,0,0,,0,84,84,391,1,
,,,,,,,,,,,,,,,,,,57f697c6733f560001b5898b,2020-11-27_15h01.16.978,lexical_decision_task_MP_exp2,2020.2.5,Win32,60,,m,1,0.762,,,,,,,,0.762,1,,,,,,225,WORD,UN,33,casino,VULGAR,m,,,,,,-0.011111111,-0.422222222,0,0,0,,0,85,85,164,1,
,,,,,,,,,,,,,,,,,,57f697c6733f560001b5898b,2020-11-27_15h01.16.978,lexical_decision_task_MP_exp2,2020.2.5,Win32,60,,z,1,0.666,,,,,,,,0.666,1,,,,,,292,NW,UN,16,swance,ABLINT,z,,,,,,-0.011111111,-0.422222222,0,0,0,,0,86,86,471,1,
,,,,,,,,,,,,,,,,,,57f697c6733f560001b5898b,2020-11-27_15h01.16.978,lexical_decision_task_MP_exp2,2020.2.5,Win32,60,,m,1,0.736,,,,,,,,0.736,1,,,,,,1,WORD,UN,16,ethnic,FRIGHT,m,,,,,,-0.011111111,-0.422222222,0,0,0,,0,87,87,180,1,
,,,,,,,,,,,,,,,,,,57f697c6733f560001b5898b,2020-11-27_15h01.16.978,lexical_decision_task_MP_exp2,2020.2.5,Win32,60,,z,1,0.616,,,,,,,,0.616,1,,,,,,406,NW,"ID",16,nouply,NOUPLY,z,,,,,,-0.011111111,-0.422222222,0,0,0,,0,88,88,345,1,
,,,,,,,,,,,,,,,,,,57f697c6733f560001b5898b,2020-11-27_15h01.16.978,lexical_decision_task_MP_exp2,2020.2.5,Win32,60,,m,1,0.967,,,,,,,,0.967,1,,,,,,70,WORD,"ID",33,square,SQUARE,m,,,,,,-0.011111111,-0.422222222,0,0,0,,0,89,89,9,1,
,,,,,,,,,,,,,,,,,,57f697c6733f560001b5898b,2020-11-27_15h01.16.978,lexical_decision_task_MP_exp2,2020.2.5,Win32,60,,m,1,0.55,,,,,,,,0.55,1,,,,,,202,WORD,UN,33,phrase,FACTOR,m,,,,,,-0.011111111,-0.422222222,0,0,0,,0,90,90,141,1,
,,,,,,,,,,,,,,,,,,57f697c6733f560001b5898b,2020-11-27_15h01.16.978,lexical_decision_task_MP_exp2,2020.2.5,Win32,60,,m,1,0.583,,,,,,,,0.583,1,,,,,,219,WORD,UN,33,voyage,BUCKET,m,,,,,,-0.011111111,-0.422222222,0,0,0,,0,91,91,158,1,
,,,,,,,,,,,,,,,,,,57f697c6733f560001b5898b,2020-11-27_15h01.16.978,lexical_decision_task_MP_exp2,2020.2.5,Win32,60,,m,1,0.619,,,,,,,,0.619,1,,,,,,17,WORD,UN,16,humble,CHARGE,m,,,,,,-0.011111111,-0.422222222,0,0,0,,0,92,92,196,1,
,,,,,,,,,,,,,,,,,,57f697c6733f560001b5898b,2020-11-27_15h01.16.978,lexical_decision_task_MP_exp2,2020.2.5,Win32,60,,m,1,0.551,,,,,,,,0.551,1,,,,,,138,WORD,"ID",16,melody,MELODY,m,,,,,,-0.011111111,-0.422222222,0,0,0,,0,93,93,77,1,
,,,,,,,,,,,,,,,,,,57f697c6733f560001b5898b,2020-11-27_15h01.16.978,lexical_decision_task_MP_exp2,2020.2.5,Win32,60,,m,1,0.601,,,,,,,,0.601,1,,,,,,52,WORD,UN,16,police,IMPOSE,m,,,,,,-0.011111111,-0.422222222,0,0,0,,0,94,94,231,1,
,,,,,,,,,,,,,,,,,,57f697c6733f560001b5898b,2020-11-27_15h01.16.978,lexical_decision_task_MP_exp2,2020.2.5,Win32,60,,m,1,0.518,,,,,,,,0.518,1,,,,,,190,WORD,UN,33,stable,BACKUP,m,,,,,,-0.011111111,-0.422222222,0,0,0,,0,95,95,129,1,
,,,,,,,,,,,,,,,,,,57f697c6733f560001b5898b,2020-11-27_15h01.16.978,lexical_decision_task_MP_exp2,2020.2.5,Win32,60,,z,1,0.748,,,,,,,,0.748,1,,,,,,298,NW,UN,16,sturch,PIERGY,z,,,,,,-0.011111111,-0.422222222,0,0,0,,0,96,96,477,1,
,,,,,,,,,,,,,,,,,,57f697c6733f560001b5898b,2020-11-27_15h01.16.978,lexical_decision_task_MP_exp2,2020.2.5,Win32,60,,m,1,0.602,,,,,,,,0.602,1,,,,,,218,WORD,UN,33,bucket,SHRINK,m,,,,,,-0.011111111,-0.422222222,0,0,0,,0,97,97,157,1,
,,,,,,,,,,,,,,,,,,57f697c6733f560001b5898b,2020-11-27_15h01.16.978,lexical_decision_task_MP_exp2,2020.2.5,Win32,60,,z,1,0.802,,,,,,,,0.802,1,,,,,,296,NW,UN,16,fertic,BEINCH,z,,,,,,-0.011111111,-0.422222222,0,0,0,,0,98,98,475,1,
,,,,,,,,,,,,,,,,,,57f697c6733f560001b5898b,2020-11-27_15h01.16.978,lexical_decision_task_MP_exp2,2020.2.5,Win32,60,,m,1,0.517,,,,,,,,0.517,1,,,,,,22,WORD,UN,16,wealth,JOCKEY,m,,,,,,-0.011111111,-0.422222222,0,0,0,,0,99,99,201,1,
,,,,,,,,,,,,,,,,,,57f697c6733f560001b5898b,2020-11-27_15h01.16.978,lexical_decision_task_MP_exp2,2020.2.5,Win32,60,,z,1,0.802,,,,,,,,0.802,1,,,,,,274,NW,UN,16,sleirt,FUMBLO,z,,,,,,-0.011111111,-0.422222222,0,0,0,,0,100,100,453,1,
,,,,,,,,,,,,,,,,,,57f697c6733f560001b5898b,2020-11-27_15h01.16.978,lexical_decision_task_MP_exp2,2020.2.5,Win32,60,,m,1,0.613,,,,,,,,0.613,1,,,,,,72,WORD,"ID",33,bright,BRIGHT,m,,,,,,-0.011111111,-0.422222222,0,0,0,,0,101,101,11,1,
,,,,,,,,,,,,,,,,,,57f697c6733f560001b5898b,2020-11-27_15h01.16.978,lexical_decision_task_MP_exp2,2020.2.5,Win32,60,,z,1,0.662,,,,,,,,0.662,1,,,,,,321,NW,"ID",33,miator,MIATOR,z,,,,,,-0.011111111,-0.422222222,0,0,0,,0,102,102,260,1,
,,,,,,,,,,,,,,,,,,57f697c6733f560001b5898b,2020-11-27_15h01.16.978,lexical_decision_task_MP_exp2,2020.2.5,Win32,60,,z,1,0.735,,,,,,,,0.735,1,,,,,,328,NW,"ID",33,broake,BROAKE,z,,,,,,-0.011111111,-0.422222222,0,0,0,,0,103,103,267,1,
,,,,,,,,,,,,,,,,,,57f697c6733f560001b5898b,2020-11-27_15h01.16.978,lexical_decision_task_MP_exp2,2020.2.5,Win32,60,,m,1,0.555,,,,,,,,0.555,1,,,,,,205,WORD,UN,33,tailor,LOUNGE,m,,,,,,-0.011111111,-0.422222222,0,0,0,,0,104,104,144,1,
,,,,,,,,,,,,,,,,,,57f697c6733f560001b5898b,2020-11-27_15h01.16.978,lexical_decision_task_MP_exp2,2020.2.5,Win32,60,,m,1,0.583,,,,,,,,0.583,1,,,,,,215,WORD,UN,33,lumber,PHOBIA,m,,,,,,-0.011111111,-0.422222222,0,0,0,,0,105,105,154,1,
,,,,,,,,,,,,,,,,,,57f697c6733f560001b5898b,2020-11-27_15h01.16.978,lexical_decision_task_MP_exp2,2020.2.5,Win32,60,,m,1,0.519,,,,,,,,0.519,1,,,,,,115,WORD,"ID",33,guitar,GUITAR,m,,,,,,-0.011111111,-0.422222222,0,0,0,,0,106,106,54,1,
,,,,,,,,,,,,,,,,,,57f697c6733f560001b5898b,2020-11-27_15h01.16.978,lexical_decision_task_MP_exp2,2020.2.5,Win32,60,,m,1,0.549,,,,,,,,0.549,1,,,,,,236,WORD,UN,33,grumpy,PIRATE,m,,,,,,-0.011111111,-0.422222222,0,0,0,,0,107,107,175,1,
,,,,,,,,,,,,,,,,,,57f697c6733f560001b5898b,2020-11-27_15h01.16.978,lexical_decision_task_MP_exp2,2020.2.5,Win32,60,,z,1,1.051,,,,,,,,1.051,1,,,,,,376,NW,"ID",16,iguare,IGUARE,z,,,,,,-0.011111111,-0.422222222,0,0,0,,0,108,108,315,1,
,,,,,,,,,,,,,,,,,,57f697c6733f560001b5898b,2020-11-27_15h01.16.978,lexical_decision_task_MP_exp2,2020.2.5,Win32,60,,m,1,1.121,,,,,,,,1.121,1,,,,,,184,WORD,UN,33,bother,SLEAZY,m,,,,,,-0.011111111,-0.422222222,0,0,0,,0,109,109,123,1,
,,,,,,,,,,,,,,,,,,57f697c6733f560001b5898b,2020-11-27_15h01.16.978,lexical_decision_task_MP_exp2,2020.2.5,Win32,60,,m,1,0.733,,,,,,,,0.733,1,,,,,,173,WORD,"ID",16,shower,SHOWER,m,,,,,,-0.011111111,-0.422222222,0,0,0,,0,110,110,112,1,
,,,,,,,,,,,,,,,,,,57f697c6733f560001b5898b,2020-11-27_15h01.16.978,lexical_decision_task_MP_exp2,2020.2.5,Win32,60,,m,1,0.767,,,,,,,,0.767,1,,,,,,110,WORD,"ID",33,polite,POLITE,m,,,,,,-0.011111111,-0.422222222,0,0,0,,0,111,111,49,1,
,,,,,,,,,,,,,,,,,,57f697c6733f560001b5898b,2020-11-27_15h01.16.978,lexical_decision_task_MP_exp2,2020.2.5,Win32,60,,z,1,0.731,,,,,,,,0.731,1,,,,,,289,NW,UN,16,splino,STARBY,z,,,,,,-0.011111111,-0.422222222,0,0,0,,0,112,112,468,1,
,,,,,,,,,,,,,,,,,,57f697c6733f560001b5898b,2020-11-27_15h01.16.978,lexical_decision_task_MP_exp2,2020.2.5,Win32,60,,m,1,0.65,,,,,,,,0.65,1,,,,,,191,WORD,UN,33,beacon,STABLE,m,,,,,,-0.011111111,-0.422222222,0,0,0,,0,113,113,130,1,
,,,,,,,,,,,,,,,,,,57f697c6733f560001b5898b,2020-11-27_15h01.16.978,lexical_decision_task_MP_exp2,2020.2.5,Win32,60,,m,1,0.554,,,,,,,,0.554,1,,,,,,65,WORD,"ID",33,symbol,SYMBOL,m,,,,,,-0.011111111,-0.422222222,0,0,0,,0,114,114,4,1,
,,,,,,,,,,,,,,,,,,57f697c6733f560001b5898b,2020-11-27_15h01.16.978,lexical_decision_task_MP_exp2,2020.2.5,Win32,60,,m,1,0.651,,,,,,,,0.651,1,,,,,,6,WORD,UN,16,anchor,BUNDLE,m,,,,,,-0.011111111,-0.422222222,0,0,0,,0,115,115,185,1,
,,,,,,,,,,,,,,,,,,57f697c6733f560001b5898b,2020-11-27_15h01.16.978,lexical_decision_task_MP_exp2,2020.2.5,Win32,60,,z,1,0.85,,,,,,,,0.85,1,,,,,,365,NW,"ID",16,guairt,GUAIRT,z,,,,,,-0.011111111,-0.422222222,0,0,0,,0,116,116,304,1,
,,,,,,,,,,,,,,,,,,57f697c6733f560001b5898b,2020-11-27_15h01.16.978,lexical_decision_task_MP_exp2,2020.2.5,Win32,60,,z,0,0.6,,,,,,,,0.6,0,,,,,,216,WORD,UN,33,liquor,BEHALF,m,,,,,,-0.011111111,-0.422222222,0,0,0,,0,117,117,155,1,
,,,,,,,,,,,,,,,,,,57f697c6733f560001b5898b,2020-11-27_15h01.16.978,lexical_decision_task_MP_exp2,2020.2.5,Win32,60,,z,1,0.729,,,,,,,,0.729,1,,,,,,331,NW,"ID",33,gilfew,GILFEW,z,,,,,,-0.011111111,-0.422222222,0,0,0,,0,118,118,270,1,
,,,,,,,,,,,,,,,,,,57f697c6733f560001b5898b,2020-11-27_15h01.16.978,lexical_decision_task_MP_exp2,2020.2.5,Win32,60,,m,1,0.568,,,,,,,,0.568,1,,,,,,142,WORD,"ID",16,spruce,SPRUCE,m,,,,,,-0.011111111,-0.422222222,0,0,0,,0,119,119,81,1,
,,,,,,,,,,,,,,,,,,57f697c6733f560001b5898b,2020-11-27_15h01.16.978,lexical_decision_task_MP_exp2,2020.2.5,Win32,60,,m,1,1.052,,,,,,,,1.052,1,,,,,,114,WORD,"ID",33,placid,PLACID,m,,,,,,-0.011111111,-0.422222222,0,0,0,space,0,120,120,53,1,3.16
,,,,,,,,,,,,,,,,,,57f697c6733f560001b5898b,2020-11-27_15h01.16.978,lexical_decision_task_MP_exp2,2020.2.5,Win32,60,,z,1,0.82,,,,,,,,0.82,1,,,,,,368,NW,"ID",16,hornal,HORNAL,z,,,,,,-0.011111111,-0.422222222,0,0,0,,0,121,121,307,1,
,,,,,,,,,,,,,,,,,,57f697c6733f560001b5898b,2020-11-27_15h01.16.978,lexical_decision_task_MP_exp2,2020.2.5,Win32,60,,z,1,0.631,,,,,,,,0.631,1,,,,,,392,NW,"ID",16,rouncy,ROUNCY,z,,,,,,-0.011111111,-0.422222222,0,0,0,,0,122,122,331,1,
,,,,,,,,,,,,,,,,,,57f697c6733f560001b5898b,2020-11-27_15h01.16.978,lexical_decision_task_MP_exp2,2020.2.5,Win32,60,,m,1,0.604,,,,,,,,0.604,1,,,,,,176,WORD,"ID",16,strife,STRIFE,m,,,,,,-0.011111111,-0.422222222,0,0,0,,0,123,123,115,1,
,,,,,,,,,,,,,,,,,,57f697c6733f560001b5898b,2020-11-27_15h01.16.978,lexical_decision_task_MP_exp2,2020.2.5,Win32,60,,m,1,0.604,,,,,,,,0.604,1,,,,,,77,WORD,"ID",33,racket,RACKET,m,,,,,,-0.011111111,-0.422222222,0,0,0,,0,124,124,16,1,
,,,,,,,,,,,,,,,,,,57f697c6733f560001b5898b,2020-11-27_15h01.16.978,lexical_decision_task_MP_exp2,2020.2.5,Win32,60,,z,1,0.574,,,,,,,,0.574,1,,,,,,416,NW,"ID",16,pathel,PATHEL,z,,,,,,-0.011111111,-0.422222222,0,0,0,,0,125,125,355,1,
,,,,,,,,,,,,,,,,,,57f697c6733f560001b5898b,2020-11-27_15h01.16.978,lexical_decision_task_MP_exp2,2020.2.5,Win32,60,,z,1,0.732,,,,,,,,0.732,1,,,,,,358,NW,"ID",33,fleack,FLEACK,z,,,,,,-0.011111111,-0.422222222,0,0,0,,0,126,126,297,1,
,,,,,,,,,,,,,,,,,,57f697c6733f560001b5898b,2020-11-27_15h01.16.978,lexical_decision_task_MP_exp2,2020.2.5,Win32,60,,z,1,0.986,,,,,,,,0.986,1,,,,,,457,NW,UN,33,barcet,WANIGH,z,,,,,,-0.011111111,-0.422222222,0,0,0,,0,127,127,396,1,
,,,,,,,,,,,,,,,,,,57f697c6733f560001b5898b,2020-11-27_15h01.16.978,lexical_decision_task_MP_exp2,2020.2.5,Win32,60,,m,1,0.601,,,,,,,,0.601,1,,,,,,211,WORD,UN,33,verify,INFECT,m,,,,,,-0.011111111,-0.422222222,0,0,0,,0,128,128,150,1,
,,,,,,,,,,,,,,,,,,57f697c6733f560001b5898b,2020-11-27_15h01.16.978,lexical_decision_task_MP_exp2,2020.2.5,Win32,60,,m,1,0.448,,,,,,,,0.448,1,,,,,,25,WORD,UN,16,sprint,DOMAIN,m,,,,,,-0.011111111,-0.422222222,0,0,0,,0,129,129,204,1,
,,,,,,,,,,,,,,,,,,57f697c6733f560001b5898b,2020-11-27_15h01.16.978,lexical_decision_task_MP_exp2,2020.2.5,Win32,60,,z,1,0.494,,,,,,,,0.494,1,,,,,,347,NW,"ID",33,kerift,KERIFT,z,,,,,,-0.011111111,-0.422222222,0,0,0,,0,130,130,286,1,
,,,,,,,,,,,,,,,,,,57f697c6733f560001b5898b,2020-11-27_15h01.16.978,lexical_decision_task_MP_exp2,2020.2.5,Win32,60,,z,1,0.602,,,,,,,,0.602,1,,,,,,306,NW,"ID",33,sounge,SOUNGE,z,,,,,,-0.011111111,-0.422222222,0,0,0,,0,131,131,245,1,
,,,,,,,,,,,,,,,,,,57f697c6733f560001b5898b,2020-11-27_15h01.16.978,lexical_decision_task_MP_exp2,2020.2.5,Win32,60,,m,1,0.499,,,,,,,,0.499,1,,,,,,214,WORD,UN,33,phobia,INTAKE,m,,,,,,-0.011111111,-0.422222222,0,0,0,,0,132,132,153,1,
,,,,,,,,,,,,,,,,,,57f697c6733f560001b5898b,2020-11-27_15h01.16.978,lexical_decision_task_MP_exp2,2020.2.5,Win32,60,,m,1,0.49,,,,,,,,0.49,1,,,,,,74,WORD,"ID",33,plaque,PLAQUE,m,,,,,,-0.011111111,-0.422222222,0,0,0,,0,133,133,13,1,
,,,,,,,,,,,,,,,,,,57f697c6733f560001b5898b,2020-11-27_15h01.16.978,lexical_decision_task_MP_exp2,2020.2.5,Win32,60,,m,1,0.489,,,,,,,,0.489,1,,,,,,164,WORD,"ID",16,market,MARKET,m,,,,,,-0.011111111,-0.422222222,0,0,0,,0,134,134,103,1,
,,,,,,,,,,,,,,,,,,57f697c6733f560001b5898b,2020-11-27_15h01.16.978,lexical_decision_task_MP_exp2,2020.2.5,Win32,60,,m,1,1.069,,,,,,,,1.069,1,,,,,,4,WORD,UN,16,plunge,TRENCH,m,,,,,,-0.011111111,-0.422222222,0,0,0,,0,135,135,183,1,
,,,,,,,,,,,,,,,,,,57f697c6733f560001b5898b,2020-11-27_15h01.16.978,lexical_decision_task_MP_exp2,2020.2.5,Win32,60,,z,1,1.067,,,,,,,,1.067,1,,,,,,245,NW,UN,16,piaton,ANOUGS,z,,,,,,-0.011111111,-0.422222222,0,0,0,,0,136,136,424,1,
,,,,,,,,,,,,,,,,,,57f697c6733f560001b5898b,2020-11-27_15h01.16.978,lexical_decision_task_MP_exp2,2020.2.5,Win32,60,,z,1,0.608,,,,,,,,0.608,1,,,,,,317,NW,"ID",33,worbal,WORBAL,z,,,,,,-0.011111111,-0.422222222,0,0,0,,0,137,137,256,1,
,,,,,,,,,,,,,,,,,,57f697c6733f560001b5898b,2020-11-27_15h01.16.978,lexical_decision_task_MP_exp2,2020.2.5,Win32,60,,m,1,0.914,,,,,,,,0.914,1,,,,,,75,WORD,"ID",33,trophy,TROPHY,m,,,,,,-0.011111111,-0.422222222,0,0,0,,0,138,138,14,1,
,,,,,,,,,,,,,,,,,,57f697c6733f560001b5898b,2020-11-27_15h01.16.978,lexical_decision_task_MP_exp2,2020.2.5,Win32,60,,z,1,0.736,,,,,,,,0.736,1,,,,,,290,NW,UN,16,pretch,SPLINO,z,,,,,,-0.011111111,-0.422222222,0,0,0,,0,139,139,469,1,
,,,,,,,,,,,,,,,,,,57f697c6733f560001b5898b,2020-11-27_15h01.16.978,lexical_decision_task_MP_exp2,2020.2.5,Win32,60,,z,1,0.67,,,,,,,,0.67,1,,,,,,415,NW,"ID",16,higsta,HIGSTA,z,,,,,,-0.011111111,-0.422222222,0,0,0,,0,140,140,354,1,
,,,,,,,,,,,,,,,,,,57f697c6733f560001b5898b,2020-11-27_15h01.16.978,lexical_decision_task_MP_exp2,2020.2.5,Win32,60,,z,1,0.542,,,,,,,,0.542,1,,,,,,475,NW,UN,33,josted,PEBRIC,z,,,,,,-0.011111111,-0.422222222,0,0,0,,0,141,141,414,1,
,,,,,,,,,,,,,,,,,,57f697c6733f560001b5898b,2020-11-27_15h01.16.978,lexical_decision_task_MP_exp2,2020.2.5,Win32,60,,z,1,0.532,,,,,,,,0.532,1,,,,,,339,NW,"ID",33,fachow,FACHOW,z,,,,,,-0.011111111,-0.422222222,0,0,0,,0,142,142,278,1,
,,,,,,,,,,,,,,,,,,57f697c6733f560001b5898b,2020-11-27_15h01.16.978,lexical_decision_task_MP_exp2,2020.2.5,Win32,60,,z,1,0.621,,,,,,,,0.621,1,,,,,,380,NW,"ID",16,cavory,CAVORY,z,,,,,,-0.011111111,-0.422222222,0,0,0,,0,143,143,319,1,
,,,,,,,,,,,,,,,,,,57f697c6733f560001b5898b,2020-11-27_15h01.16.978,lexical_decision_task_MP_exp2,2020.2.5,Win32,60,,z,1,0.521,,,,,,,,0.521,1,,,,,,283,NW,UN,16,shaple,VERALF,z,,,,,,-0.011111111,-0.422222222,0,0,0,,0,144,144,462,1,
,,,,,,,,,,,,,,,,,,57f697c6733f560001b5898b,2020-11-27_15h01.16.978,lexical_decision_task_MP_exp2,2020.2.5,Win32,60,,m,1,0.489,,,,,,,,0.489,1,,,,,,153,WORD,"ID",16,behold,BEHOLD,m,,,,,,-0.011111111,-0.422222222,0,0,0,,0,145,145,92,1,
,,,,,,,,,,,,,,,,,,57f697c6733f560001b5898b,2020-11-27_15h01.16.978,lexical_decision_task_MP_exp2,2020.2.5,Win32,60,,z,1,0.982,,,,,,,,0.982,1,,,,,,307,NW,"ID",33,kirafe,KIRAFE,z,,,,,,-0.011111111,-0.422222222,0,0,0,,0,146,146,246,1,
,,,,,,,,,,,,,,,,,,57f697c6733f560001b5898b,2020-11-27_15h01.16.978,lexical_decision_task_MP_exp2,2020.2.5,Win32,60,,m,1,0.622,,,,,,,,0.622,1,,,,,,20,WORD,UN,16,simple,BREAST,m,,,,,,-0.011111111,-0.422222222,0,0,0,,0,147,147,199,1,
,,,,,,,,,,,,,,,,,,57f697c6733f560001b5898b,2020-11-27_15h01.16.978,lexical_decision_task_MP_exp2,2020.2.5,Win32,60,,z,1,0.718,,,,,,,,0.718,1,,,,,,284,NW,UN,16,prudge,SHAPLE,z,,,,,,-0.011111111,-0.422222222,0,0,0,,0,148,148,463,1,
,,,,,,,,,,,,,,,,,,57f697c6733f560001b5898b,2020-11-27_15h01.16.978,lexical_decision_task_MP_exp2,2020.2.5,Win32,60,,m,1,0.552,,,,,,,,0.552,1,,,,,,104,WORD,"ID",33,studio,STUDIO,m,,,,,,-0.011111111,-0.422222222,0,0,0,,0,149,149,43,1,
,,,,,,,,,,,,,,,,,,57f697c6733f560001b5898b,2020-11-27_15h01.16.978,lexical_decision_task_MP_exp2,2020.2.5,Win32,60,,z,1,0.531,,,,,,,,0.531,1,,,,,,405,NW,"ID",16,flumni,FLUMNI,z,,,,,,-0.011111111,-0.422222222,0,0,0,,0,150,150,344,1,
,,,,,,,,,,,,,,,,,,57f697c6733f560001b5898b,2020-11-27_15h01.16.978,lexical_decision_task_MP_exp2,2020.2.5,Win32,60,,m,1,0.6,,,,,,,,0.6,1,,,,,,185,WORD,UN,33,portal,BOTHER,m,,,,,,-0.011111111,-0.422222222,0,0,0,,0,151,151,124,1,
,,,,,,,,,,,,,,,,,,57f697c6733f560001b5898b,2020-11-27_15h01.16.978,lexical_decision_task_MP_exp2,2020.2.5,Win32,60,,z,1,0.603,,,,,,,,0.603,1,,,,,,471,NW,UN,33,cigney,NOBEST,z,,,,,,-0.011111111,-0.422222222,0,0,0,,0,152,152,410,1,
,,,,,,,,,,,,,,,,,,57f697c6733f560001b5898b,2020-11-27_15h01.16.978,lexical_decision_task_MP_exp2,2020.2.5,Win32,60,,m,1,0.618,,,,,,,,0.618,1,,,,,,63,WORD,"ID",33,launch,LAUNCH,m,,,,,,-0.011111111,-0.422222222,0,0,0,,0,153,153,2,1,
,,,,,,,,,,,,,,,,,,57f697c6733f560001b5898b,2020-11-27_15h01.16.978,lexical_decision_task_MP_exp2,2020.2.5,Win32,60,,z,1,0.631,,,,,,,,0.631,1,,,,,,320,NW,"ID",33,jockal,JOCKAL,z,,,,,,-0.011111111,-0.422222222,0,0,0,,0,154,154,259,1,
,,,,,,,,,,,,,,,,,,57f697c6733f560001b5898b,2020-11-27_15h01.16.978,lexical_decision_task_MP_exp2,2020.2.5,Win32,60,,z,1,0.499,,,,,,,,0.499,1,,,,,,362,NW,"ID",16,tireau,TIREAU,z,,,,,,-0.011111111,-0.422222222,0,0,0,,0,155,155,301,1,
,,,,,,,,,,,,,,,,,,57f697c6733f560001b5898b,2020-11-27_15h01.16.978,lexical_decision_task_MP_exp2,2020.2.5,Win32,60,,m,1,0.586,,,,,,,,0.586,1,,,,,,161,WORD,"ID",16,pastor,PASTOR,m,,,,,,-0.011111111,-0.422222222,0,0,0,,0,156,156,100,1,
,,,,,,,,,,,,,,,,,,57f697c6733f560001b5898b,2020-11-27_15h01.16.978,lexical_decision_task_MP_exp2,2020.2.5,Win32,60,,m,1,0.637,,,,,,,,0.637,1,,,,,,197,WORD,UN,33,wicked,STREAM,m,,,,,,-0.011111111,-0.422222222,0,0,0,,0,157,157,136,1,
,,,,,,,,,,,,,,,,,,57f697c6733f560001b5898b,2020-11-27_15h01.16.978,lexical_decision_task_MP_exp2,2020.2.5,Win32,60,,m,1,0.618,,,,,,,,0.618,1,,,,,,86,WORD,"ID",33,rodent,RODENT,m,,,,,,-0.011111111,-0.422222222,0,0,0,,0,158,158,25,1,
,,,,,,,,,,,,,,,,,,57f697c6733f560001b5898b,2020-11-27_15h01.16.978,lexical_decision_task_MP_exp2,2020.2.5,Win32,60,,z,1,0.649,,,,,,,,0.649,1,,,,,,263,NW,UN,16,vackel,DOLICA,z,,,,,,-0.011111111,-0.422222222,0,0,0,,0,159,159,442,1,
,,,,,,,,,,,,,,,,,,57f697c6733f560001b5898b,2020-11-27_15h01.16.978,lexical_decision_task_MP_exp2,2020.2.5,Win32,60,,m,0,0.761,,,,,,,,0.761,0,,,,,,357,NW,"ID",33,derain,DERAIN,z,,,,,,-0.011111111,-0.422222222,0,0,0,,0,160,160,296,1,
,,,,,,,,,,,,,,,,,,57f697c6733f560001b5898b,2020-11-27_15h01.16.978,lexical_decision_task_MP_exp2,2020.2.5,Win32,60,,m,1,0.533,,,,,,,,0.533,1,,,,,,178,WORD,"ID",16,inform,INFORM,m,,,,,,-0.011111111,-0.422222222,0,0,0,,0,161,161,117,1,
,,,,,,,,,,,,,,,,,,57f697c6733f560001b5898b,2020-11-27_15h01.16.978,lexical_decision_task_MP_exp2,2020.2.5,Win32,60,,m,1,0.51,,,,,,,,0.51,1,,,,,,27,WORD,UN,16,comedy,SCREAM,m,,,,,,-0.011111111,-0.422222222,0,0,0,,0,162,162,206,1,
,,,,,,,,,,,,,,,,,,57f697c6733f560001b5898b,2020-11-27_15h01.16.978,lexical_decision_task_MP_exp2,2020.2.5,Win32,60,,z,1,0.59,,,,,,,,0.59,1,,,,,,277,NW,UN,16,unighs,PETAIN,z,,,,,,-0.011111111,-0.422222222,0,0,0,,0,163,163,456,1,
,,,,,,,,,,,,,,,,,,57f697c6733f560001b5898b,2020-11-27_15h01.16.978,lexical_decision_task_MP_exp2,2020.2.5,Win32,60,,z,1,0.904,,,,,,,,0.904,1,,,,,,268,NW,UN,16,orchet,PACKES,z,,,,,,-0.011111111,-0.422222222,0,0,0,,0,164,164,447,1,
,,,,,,,,,,,,,,,,,,57f697c6733f560001b5898b,2020-11-27_15h01.16.978,lexical_decision_task_MP_exp2,2020.2.5,Win32,60,,z,1,0.719,,,,,,,,0.719,1,,,,,,319,NW,"ID",33,zomber,ZOMBER,z,,,,,,-0.011111111,-0.422222222,0,0,0,,0,165,165,258,1,
,,,,,,,,,,,,,,,,,,57f697c6733f560001b5898b,2020-11-27_15h01.16.978,lexical_decision_task_MP_exp2,2020.2.5,Win32,60,,z,1,0.54,,,,,,,,0.54,1,,,,,,247,NW,UN,16,strole,BLARGE,z,,,,,,-0.011111111,-0.422222222,0,0,0,,0,166,166,426,1,
,,,,,,,,,,,,,,,,,,57f697c6733f560001b5898b,2020-11-27_15h01.16.978,lexical_decision_task_MP_exp2,2020.2.5,Win32,60,,z,1,0.545,,,,,,,,0.545,1,,,,,,316,NW,"ID",33,scregm,SCREGM,z,,,,,,-0.011111111,-0.422222222,0,0,0,,0,167,167,255,1,
,,,,,,,,,,,,,,,,,,57f697c6733f560001b5898b,2020-11-27_15h01.16.978,lexical_decision_task_MP_exp2,2020.2.5,Win32,60,,z,1,0.77,,,,,,,,0.77,1,,,,,,251,NW,UN,16,stapod,LUPICT,z,,,,,,-0.011111111,-0.422222222,0,0,0,,0,168,168,430,1,
,,,,,,,,,,,,,,,,,,57f697c6733f560001b5898b,2020-11-27_15h01.16.978,lexical_decision_task_MP_exp2,2020.2.5,Win32,60,,m,1,0.517,,,,,,,,0.517,1,,,,,,134,WORD,"ID",16,staple,STAPLE,m,,,,,,-0.011111111,-0.422222222,0,0,0,,0,169,169,73,1,
,,,,,,,,,,,,,,,,,,57f697c6733f560001b5898b,2020-11-27_15h01.16.978,lexical_decision_task_MP_exp2,2020.2.5,Win32,60,,z,1,0.985,,,,,,,,0.985,1,,,,,,370,NW,"ID",16,sleact,SLEACT,z,,,,,,-0.011111111,-0.422222222,0,0,0,,0,170,170,309,1,
,,,,,,,,,,,,,,,,,,57f697c6733f560001b5898b,2020-11-27_15h01.16.978,lexical_decision_task_MP_exp2,2020.2.5,Win32,60,,z,1,0.933,,,,,,,,0.933,1,,,,,,322,NW,"ID",33,slanch,SLANCH,z,,,,,,-0.011111111,-0.422222222,0,0,0,,0,171,171,261,1,
,,,,,,,,,,,,,,,,,,57f697c6733f560001b5898b,2020-11-27_15h01.16.978,lexical_decision_task_MP_exp2,2020.2.5,Win32,60,,m,1,0.817,,,,,,,,0.817,1,,,,,,195,WORD,UN,33,credit,RESIGN,m,,,,,,-0.011111111,-0.422222222,0,0,0,,0,172,172,134,1,
,,,,,,,,,,,,,,,,,,57f697c6733f560001b5898b,2020-11-27_15h01.16.978,lexical_decision_task_MP_exp2,2020.2.5,Win32,60,,m,1,0.424,,,,,,,,0.424,1,,,,,,109,WORD,"ID",33,wonder,WONDER,m,,,,,,-0.011111111,-0.422222222,0,0,0,,0,173,173,48,1,
,,,,,,,,,,,,,,,,,,57f697c6733f560001b5898b,2020-11-27_15h01.16.978,lexical_decision_task_MP_exp2,2020.2.5,Win32,60,,m,1,0.442,,,,,,,,0.442,1,,,,,,79,WORD,"ID",33,theory,THEORY,m,,,,,,-0.011111111,-0.422222222,0,0,0,,0,174,174,18,1,
,,,,,,,,,,,,,,,,,,57f697c6733f560001b5898b,2020-11-27_15h01.16.978,lexical_decision_task_MP_exp2,2020.2.5,Win32,60,,m,1,0.917,,,,,,,,0.917,1,,,,,,93,WORD,"ID",33,public,PUBLIC,m,,,,,,-0.011111111,-0.422222222,0,0,0,,0,175,175,32,1,
,,,,,,,,,,,,,,,,,,57f697c6733f560001b5898b,2020-11-27_15h01.16.978,lexical_decision_task_MP_exp2,2020.2.5,Win32,60,,m,0,0.574,,,,,,,,0.574,0,,,,,,278,NW,UN,16,celond,UNIGHS,z,,,,,,-0.011111111,-0.422222222,0,0,0,,0,176,176,457,1,
,,,,,,,,,,,,,,,,,,57f697c6733f560001b5898b,2020-11-27_15h01.16.978,lexical_decision_task_MP_exp2,2020.2.5,Win32,60,,m,1,0.869,,,,,,,,0.869,1,,,,,,121,WORD,"ID",16,thrive,THRIVE,m,,,,,,-0.011111111,-0.422222222,0,0,0,,0,177,177,60,1,
,,,,,,,,,,,,,,,,,,57f697c6733f560001b5898b,2020-11-27_15h01.16.978,lexical_decision_task_MP_exp2,2020.2.5,Win32,60,,z,1,0.708,,,,,,,,0.708,1,,,,,,407,NW,"ID",16,suiver,SUIVER,z,,,,,,-0.011111111,-0.422222222,0,0,0,,0,178,178,346,1,
,,,,,,,,,,,,,,,,,,57f697c6733f560001b5898b,2020-11-27_15h01.16.978,lexical_decision_task_MP_exp2,2020.2.5,Win32,60,,m,0,0.665,,,,,,,,0.665,0,,,,,,462,NW,UN,33,kispel,ABSULT,z,,,,,,-0.011111111,-0.422222222,0,0,0,,0,179,179,401,1,
,,,,,,,,,,,,,,,,,,57f697c6733f560001b5898b,2020-11-27_15h01.16.978,lexical_decision_task_MP_exp2,2020.2.5,Win32,60,,z,1,0.614,,,,,,,,0.614,1,,,,,,477,NW,UN,33,lobush,PHOTIE,z,,,,,,-0.011111111,-0.422222222,0,0,0,,0,180,180,416,1,
,,,,,,,,,,,,,,,,,,57f697c6733f560001b5898b,2020-11-27_15h01.16.978,lexical_decision_task_MP_exp2,2020.2.5,Win32,60,,z,1,0.559,,,,,,,,0.559,1,,,,,,383,NW,"ID",16,aungre,AUNGRE,z,,,,,,-0.011111111,-0.422222222,0,0,0,,0,181,181,322,1,
,,,,,,,,,,,,,,,,,,57f697c6733f560001b5898b,2020-11-27_15h01.16.978,lexical_decision_task_MP_exp2,2020.2.5,Win32,60,,m,1,0.568,,,,,,,,0.568,1,,,,,,174,WORD,"ID",16,turkey,TURKEY,m,,,,,,-0.011111111,-0.422222222,0,0,0,,0,182,182,113,1,
,,,,,,,,,,,,,,,,,,57f697c6733f560001b5898b,2020-11-27_15h01.16.978,lexical_decision_task_MP_exp2,2020.2.5,Win32,60,,z,1,0.731,,,,,,,,0.731,1,,,,,,468,NW,UN,33,padifs,WICTOR,z,,,,,,-0.011111111,-0.422222222,0,0,0,,0,183,183,407,1,
,,,,,,,,,,,,,,,,,,57f697c6733f560001b5898b,2020-11-27_15h01.16.978,lexical_decision_task_MP_exp2,2020.2.5,Win32,60,,m,1,0.732,,,,,,,,0.732,1,,,,,,187,WORD,UN,33,social,COURSE,m,,,,,,-0.011111111,-0.422222222,0,0,0,,0,184,184,126,1,
,,,,,,,,,,,,,,,,,,57f697c6733f560001b5898b,2020-11-27_15h01.16.978,lexical_decision_task_MP_exp2,2020.2.5,Win32,60,,m,1,1.119,,,,,,,,1.119,1,,,,,,157,WORD,"ID",16,dragon,DRAGON,m,,,,,,-0.011111111,-0.422222222,0,0,0,,0,185,185,96,1,
,,,,,,,,,,,,,,,,,,57f697c6733f560001b5898b,2020-11-27_15h01.16.978,lexical_decision_task_MP_exp2,2020.2.5,Win32,60,,z,1,0.668,,,,,,,,0.668,1,,,,,,297,NW,UN,16,piergy,FERTIC,z,,,,,,-0.011111111,-0.422222222,0,0,0,,0,186,186,476,1,
,,,,,,,,,,,,,,,,,,57f697c6733f560001b5898b,2020-11-27_15h01.16.978,lexical_decision_task_MP_exp2,2020.2.5,Win32,60,,z,1,0.807,,,,,,,,0.807,1,,,,,,366,NW,"ID",16,toshel,TOSHEL,z,,,,,,-0.011111111,-0.422222222,0,0,0,,0,187,187,305,1,
,,,,,,,,,,,,,,,,,,57f697c6733f560001b5898b,2020-11-27_15h01.16.978,lexical_decision_task_MP_exp2,2020.2.5,Win32,60,,z,1,1.035,,,,,,,,1.035,1,,,,,,343,NW,"ID",33,aimosy,AIMOSY,z,,,,,,-0.011111111,-0.422222222,0,0,0,,0,188,188,282,1,
,,,,,,,,,,,,,,,,,,57f697c6733f560001b5898b,2020-11-27_15h01.16.978,lexical_decision_task_MP_exp2,2020.2.5,Win32,60,,m,1,0.652,,,,,,,,0.652,1,,,,,,7,WORD,UN,16,abrupt,ANCHOR,m,,,,,,-0.011111111,-0.422222222,0,0,0,,0,189,189,186,1,
,,,,,,,,,,,,,,,,,,57f697c6733f560001b5898b,2020-11-27_15h01.16.978,lexical_decision_task_MP_exp2,2020.2.5,Win32,60,,z,1,0.743,,,,,,,,0.743,1,,,,,,243,NW,UN,16,eatric,MUSIED,z,,,,,,-0.011111111,-0.422222222,0,0,0,,0,190,190,422,1,
,,,,,,,,,,,,,,,,,,57f697c6733f560001b5898b,2020-11-27_15h01.16.978,lexical_decision_task_MP_exp2,2020.2.5,Win32,60,,z,1,0.671,,,,,,,,0.671,1,,,,,,469,NW,UN,33,crudio,PADIFS,z,,,,,,-0.011111111,-0.422222222,0,0,0,,0,191,191,408,1,
,,,,,,,,,,,,,,,,,,57f697c6733f560001b5898b,2020-11-27_15h01.16.978,lexical_decision_task_MP_exp2,2020.2.5,Win32,60,,m,1,0.535,,,,,,,,0.535,1,,,,,,105,WORD,"ID",33,number,NUMBER,m,,,,,,-0.011111111,-0.422222222,0,0,0,,0,192,192,44,1,
,,,,,,,,,,,,,,,,,,57f697c6733f560001b5898b,2020-11-27_15h01.16.978,lexical_decision_task_MP_exp2,2020.2.5,Win32,60,,m,1,0.625,,,,,,,,0.625,1,,,,,,207,WORD,UN,33,hockey,WREATH,m,,,,,,-0.011111111,-0.422222222,0,0,0,,0,193,193,146,1,
,,,,,,,,,,,,,,,,,,57f697c6733f560001b5898b,2020-11-27_15h01.16.978,lexical_decision_task_MP_exp2,2020.2.5,Win32,60,,z,1,0.656,,,,,,,,0.656,1,,,,,,351,NW,"ID",33,tiesch,TIESCH,z,,,,,,-0.011111111,-0.422222222,0,0,0,,0,194,194,290,1,
,,,,,,,,,,,,,,,,,,57f697c6733f560001b5898b,2020-11-27_15h01.16.978,lexical_decision_task_MP_exp2,2020.2.5,Win32,60,,m,1,0.549,,,,,,,,0.549,1,,,,,,149,WORD,"ID",16,invade,INVADE,m,,,,,,-0.011111111,-0.422222222,0,0,0,,0,195,195,88,1,
,,,,,,,,,,,,,,,,,,57f697c6733f560001b5898b,2020-11-27_15h01.16.978,lexical_decision_task_MP_exp2,2020.2.5,Win32,60,,z,1,0.667,,,,,,,,0.667,1,,,,,,463,NW,UN,33,chaite,KISPEL,z,,,,,,-0.011111111,-0.422222222,0,0,0,,0,196,196,402,1,
,,,,,,,,,,,,,,,,,,57f697c6733f560001b5898b,2020-11-27_15h01.16.978,lexical_decision_task_MP_exp2,2020.2.5,Win32,60,,m,1,0.667,,,,,,,,0.667,1,,,,,,57,WORD,UN,16,danger,CHANGE,m,,,,,,-0.011111111,-0.422222222,0,0,0,,0,197,197,236,1,
,,,,,,,,,,,,,,,,,,57f697c6733f560001b5898b,2020-11-27_15h01.16.978,lexical_decision_task_MP_exp2,2020.2.5,Win32,60,,m,1,0.566,,,,,,,,0.566,1,,,,,,99,WORD,"ID",33,fluent,FLUENT,m,,,,,,-0.011111111,-0.422222222,0,0,0,,0,198,198,38,1,
,,,,,,,,,,,,,,,,,,57f697c6733f560001b5898b,2020-11-27_15h01.16.978,lexical_decision_task_MP_exp2,2020.2.5,Win32,60,,z,1,0.594,,,,,,,,0.594,1,,,,,,385,NW,"ID",16,veigma,VEIGMA,z,,,,,,-0.011111111,-0.422222222,0,0,0,,0,199,199,324,1,
,,,,,,,,,,,,,,,,,,57f697c6733f560001b5898b,2020-11-27_15h01.16.978,lexical_decision_task_MP_exp2,2020.2.5,Win32,60,,z,1,0.586,,,,,,,,0.586,1,,,,,,451,NW,UN,33,surden,CAINKY,z,,,,,,-0.011111111,-0.422222222,0,0,0,,0,200,200,390,1,
,,,,,,,,,,,,,,,,,,57f697c6733f560001b5898b,2020-11-27_15h01.16.978,lexical_decision_task_MP_exp2,2020.2.5,Win32,60,,m,1,1.014,,,,,,,,1.014,1,,,,,,154,WORD,"ID",16,author,AUTHOR,m,,,,,,-0.011111111,-0.422222222,0,0,0,,0,201,201,93,1,
,,,,,,,,,,,,,,,,,,57f697c6733f560001b5898b,2020-11-27_15h01.16.978,lexical_decision_task_MP_exp2,2020.2.5,Win32,60,,z,1,0.674,,,,,,,,0.674,1,,,,,,421,NW,UN,33,alcoud,KNISMA,z,,,,,,-0.011111111,-0.422222222,0,0,0,,0,202,202,360,1,
,,,,,,,,,,,,,,,,,,57f697c6733f560001b5898b,2020-11-27_15h01.16.978,lexical_decision_task_MP_exp2,2020.2.5,Win32,60,,m,1,0.637,,,,,,,,0.637,1,,,,,,44,WORD,UN,16,clergy,DANGER,m,,,,,,-0.011111111,-0.422222222,0,0,0,,0,203,203,223,1,
,,,,,,,,,,,,,,,,,,57f697c6733f560001b5898b,2020-11-27_15h01.16.978,lexical_decision_task_MP_exp2,2020.2.5,Win32,60,,m,1,0.666,,,,,,,,0.666,1,,,,,,139,WORD,"ID",16,debris,DEBRIS,m,,,,,,-0.011111111,-0.422222222,0,0,0,,0,204,204,78,1,
,,,,,,,,,,,,,,,,,,57f697c6733f560001b5898b,2020-11-27_15h01.16.978,lexical_decision_task_MP_exp2,2020.2.5,Win32,60,,m,1,0.552,,,,,,,,0.552,1,,,,,,36,WORD,UN,16,insult,VANISH,m,,,,,,-0.011111111,-0.422222222,0,0,0,,0,205,205,215,1,
,,,,,,,,,,,,,,,,,,57f697c6733f560001b5898b,2020-11-27_15h01.16.978,lexical_decision_task_MP_exp2,2020.2.5,Win32,60,,z,1,0.593,,,,,,,,0.593,1,,,,,,401,NW,"ID",16,mustil,MUSTIL,z,,,,,,-0.011111111,-0.422222222,0,0,0,,0,206,206,340,1,
,,,,,,,,,,,,,,,,,,57f697c6733f560001b5898b,2020-11-27_15h01.16.978,lexical_decision_task_MP_exp2,2020.2.5,Win32,60,,z,1,0.584,,,,,,,,0.584,1,,,,,,434,NW,UN,33,impurb,PITROM,z,,,,,,-0.011111111,-0.422222222,0,0,0,,0,207,207,373,1,
,,,,,,,,,,,,,,,,,,57f697c6733f560001b5898b,2020-11-27_15h01.16.978,lexical_decision_task_MP_exp2,2020.2.5,Win32,60,,z,1,0.531,,,,,,,,0.531,1,,,,,,372,NW,"ID",16,ramily,RAMILY,z,,,,,,-0.011111111,-0.422222222,0,0,0,,0,208,208,311,1,
,,,,,,,,,,,,,,,,,,57f697c6733f560001b5898b,2020-11-27_15h01.16.978,lexical_decision_task_MP_exp2,2020.2.5,Win32,60,,m,1,0.693,,,,,,,,0.693,1,,,,,,151,WORD,"ID",16,mystic,MYSTIC,m,,,,,,-0.011111111,-0.422222222,0,0,0,,0,209,209,90,1,
,,,,,,,,,,,,,,,,,,57f697c6733f560001b5898b,2020-11-27_15h01.16.978,lexical_decision_task_MP_exp2,2020.2.5,Win32,60,,z,1,1.119,,,,,,,,1.119,1,,,,,,303,NW,"ID",33,fiream,FIREAM,z,,,,,,-0.011111111,-0.422222222,0,0,0,,0,210,210,242,1,
,,,,,,,,,,,,,,,,,,57f697c6733f560001b5898b,2020-11-27_15h01.16.978,lexical_decision_task_MP_exp2,2020.2.5,Win32,60,,m,1,0.637,,,,,,,,0.637,1,,,,,,102,WORD,"ID",33,direct,DIRECT,m,,,,,,-0.011111111,-0.422222222,0,0,0,,0,211,211,41,1,
,,,,,,,,,,,,,,,,,,57f697c6733f560001b5898b,2020-11-27_15h01.16.978,lexical_decision_task_MP_exp2,2020.2.5,Win32,60,,z,1,0.767,,,,,,,,0.767,1,,,,,,258,NW,UN,16,soudal,POLUTH,z,,,,,,-0.011111111,-0.422222222,0,0,0,,0,212,212,437,1,
,,,,,,,,,,,,,,,,,,57f697c6733f560001b5898b,2020-11-27_15h01.16.978,lexical_decision_task_MP_exp2,2020.2.5,Win32,60,,z,1,0.754,,,,,,,,0.754,1,,,,,,348,NW,"ID",33,dumple,DUMPLE,z,,,,,,-0.011111111,-0.422222222,0,0,0,,0,213,213,287,1,
,,,,,,,,,,,,,,,,,,57f697c6733f560001b5898b,2020-11-27_15h01.16.978,lexical_decision_task_MP_exp2,2020.2.5,Win32,60,,m,1,0.968,,,,,,,,0.968,1,,,,,,34,WORD,UN,16,socket,JUNGLE,m,,,,,,-0.011111111,-0.422222222,0,0,0,,0,214,214,213,1,
,,,,,,,,,,,,,,,,,,57f697c6733f560001b5898b,2020-11-27_15h01.16.978,lexical_decision_task_MP_exp2,2020.2.5,Win32,60,,m,1,0.701,,,,,,,,0.701,1,,,,,,234,WORD,UN,33,poster,CLUMSY,m,,,,,,-0.011111111,-0.422222222,0,0,0,,0,215,215,173,1,
,,,,,,,,,,,,,,,,,,57f697c6733f560001b5898b,2020-11-27_15h01.16.978,lexical_decision_task_MP_exp2,2020.2.5,Win32,60,,m,1,0.587,,,,,,,,0.587,1,,,,,,103,WORD,"ID",33,bounce,BOUNCE,m,,,,,,-0.011111111,-0.422222222,0,0,0,,0,216,216,42,1,
,,,,,,,,,,,,,,,,,,57f697c6733f560001b5898b,2020-11-27_15h01.16.978,lexical_decision_task_MP_exp2,2020.2.5,Win32,60,,z,1,0.667,,,,,,,,0.667,1,,,,,,479,NW,UN,33,crible,LOBUSH,z,,,,,,-0.011111111,-0.422222222,0,0,0,,0,217,217,418,1,
,,,,,,,,,,,,,,,,,,57f697c6733f560001b5898b,2020-11-27_15h01.16.978,lexical_decision_task_MP_exp2,2020.2.5,Win32,60,,z,1,0.588,,,,,,,,0.588,1,,,,,,373,NW,"ID",16,bigent,BIGENT,z,,,,,,-0.011111111,-0.422222222,0,0,0,,0,218,218,312,1,
,,,,,,,,,,,,,,,,,,57f697c6733f560001b5898b,2020-11-27_15h01.16.978,lexical_decision_task_MP_exp2,2020.2.5,Win32,60,,m,1,0.563,,,,,,,,0.563,1,,,,,,189,WORD,UN,33,backup,CENSOR,m,,,,,,-0.011111111,-0.422222222,0,0,0,,0,219,219,128,1,
,,,,,,,,,,,,,,,,,,57f697c6733f560001b5898b,2020-11-27_15h01.16.978,lexical_decision_task_MP_exp2,2020.2.5,Win32,60,,z,1,0.624,,,,,,,,0.624,1,,,,,,443,NW,UN,33,jaunce,DORSEX,z,,,,,,-0.011111111,-0.422222222,0,0,0,,0,220,220,382,1,
,,,,,,,,,,,,,,,,,,57f697c6733f560001b5898b,2020-11-27_15h01.16.978,lexical_decision_task_MP_exp2,2020.2.5,Win32,60,,m,1,1.001,,,,,,,,1.001,1,,,,,,24,WORD,UN,16,domain,PRAISE,m,,,,,,-0.011111111,-0.422222222,0,0,0,,0,221,221,203,1,
,,,,,,,,,,,,,,,,,,57f697c6733f560001b5898b,2020-11-27_15h01.16.978,lexical_decision_task_MP_exp2,2020.2.5,Win32,60,,z,1,0.606,,,,,,,,0.606,1,,,,,,470,NW,UN,33,nobest,CRUDIO,z,,,,,,-0.011111111,-0.422222222,0,0,0,,0,222,222,409,1,
,,,,,,,,,,,,,,,,,,57f697c6733f560001b5898b,2020-11-27_15h01.16.978,lexical_decision_task_MP_exp2,2020.2.5,Win32,60,,z,1,0.995,,,,,,,,0.995,1,,,,,,465,NW,UN,33,bafent,WHIVEX,z,,,,,,-0.011111111,-0.422222222,0,0,0,,0,223,223,404,1,
,,,,,,,,,,,,,,,,,,57f697c6733f560001b5898b,2020-11-27_15h01.16.978,lexical_decision_task_MP_exp2,2020.2.5,Win32,60,,m,1,0.584,,,,,,,,0.584,1,,,,,,96,WORD,"ID",33,ignore,IGNORE,m,,,,,,-0.011111111,-0.422222222,0,0,0,,0,224,224,35,1,
,,,,,,,,,,,,,,,,,,57f697c6733f560001b5898b,2020-11-27_15h01.16.978,lexical_decision_task_MP_exp2,2020.2.5,Win32,60,,z,1,0.717,,,,,,,,0.717,1,,,,,,431,NW,UN,33,lunker,CHRUMS,z,,,,,,-0.011111111,-0.422222222,0,0,0,,0,225,225,370,1,
,,,,,,,,,,,,,,,,,,57f697c6733f560001b5898b,2020-11-27_15h01.16.978,lexical_decision_task_MP_exp2,2020.2.5,Win32,60,,z,1,0.691,,,,,,,,0.691,1,,,,,,337,NW,"ID",33,rejols,REJOLS,z,,,,,,-0.011111111,-0.422222222,0,0,0,,0,226,226,276,1,
,,,,,,,,,,,,,,,,,,57f697c6733f560001b5898b,2020-11-27_15h01.16.978,lexical_decision_task_MP_exp2,2020.2.5,Win32,60,,m,1,0.669,,,,,,,,0.669,1,,,,,,181,WORD,UN,33,winter,GLANCE,m,,,,,,-0.011111111,-0.422222222,0,0,0,,0,227,227,120,1,
,,,,,,,,,,,,,,,,,,57f697c6733f560001b5898b,2020-11-27_15h01.16.978,lexical_decision_task_MP_exp2,2020.2.5,Win32,60,,z,1,0.637,,,,,,,,0.637,1,,,,,,262,NW,UN,16,dolica,QUILEW,z,,,,,,-0.011111111,-0.422222222,0,0,0,,0,228,228,441,1,
,,,,,,,,,,,,,,,,,,57f697c6733f560001b5898b,2020-11-27_15h01.16.978,lexical_decision_task_MP_exp2,2020.2.5,Win32,60,,m,1,0.615,,,,,,,,0.615,1,,,,,,19,WORD,UN,16,breast,PATRON,m,,,,,,-0.011111111,-0.422222222,0,0,0,,0,229,229,198,1,
,,,,,,,,,,,,,,,,,,57f697c6733f560001b5898b,2020-11-27_15h01.16.978,lexical_decision_task_MP_exp2,2020.2.5,Win32,60,,z,1,0.716,,,,,,,,0.716,1,,,,,,459,NW,UN,33,mingar,BAFENT,z,,,,,,-0.011111111,-0.422222222,0,0,0,,0,230,230,398,1,
,,,,,,,,,,,,,,,,,,57f697c6733f560001b5898b,2020-11-27_15h01.16.978,lexical_decision_task_MP_exp2,2020.2.5,Win32,60,,z,1,0.515,,,,,,,,0.515,1,,,,,,300,NW,UN,16,smenco,YARION,z,,,,,,-0.011111111,-0.422222222,0,0,0,,0,231,231,479,1,
,,,,,,,,,,,,,,,,,,57f697c6733f560001b5898b,2020-11-27_15h01.16.978,lexical_decision_task_MP_exp2,2020.2.5,Win32,60,,z,1,1.044,,,,,,,,1.044,1,,,,,,294,NW,UN,16,gleath,INHORT,z,,,,,,-0.011111111,-0.422222222,0,0,0,,0,232,232,473,1,
,,,,,,,,,,,,,,,,,,57f697c6733f560001b5898b,2020-11-27_15h01.16.978,lexical_decision_task_MP_exp2,2020.2.5,Win32,60,,z,1,0.808,,,,,,,,0.808,1,,,,,,424,NW,UN,33,frudge,PRAILE,z,,,,,,-0.011111111,-0.422222222,0,0,0,,0,233,233,363,1,
,,,,,,,,,,,,,,,,,,57f697c6733f560001b5898b,2020-11-27_15h01.16.978,lexical_decision_task_MP_exp2,2020.2.5,Win32,60,,z,1,0.534,,,,,,,,0.534,1,,,,,,241,NW,UN,16,unwert,SMENCO,z,,,,,,-0.011111111,-0.422222222,0,0,0,,0,234,234,420,1,
,,,,,,,,,,,,,,,,,,57f697c6733f560001b5898b,2020-11-27_15h01.16.978,lexical_decision_task_MP_exp2,2020.2.5,Win32,60,,z,1,0.637,,,,,,,,0.637,1,,,,,,367,NW,"ID",16,slique,SLIQUE,z,,,,,,-0.011111111,-0.422222222,0,0,0,,0,235,235,306,1,
,,,,,,,,,,,,,,,,,,57f697c6733f560001b5898b,2020-11-27_15h01.16.978,lexical_decision_task_MP_exp2,2020.2.5,Win32,60,,z,1,0.591,,,,,,,,0.591,1,,,,,,281,NW,UN,16,porlex,MELATY,z,,,,,,-0.011111111,-0.422222222,0,0,0,,0,236,236,460,1,
,,,,,,,,,,,,,,,,,,57f697c6733f560001b5898b,2020-11-27_15h01.16.978,lexical_decision_task_MP_exp2,2020.2.5,Win32,60,,m,1,1.039,,,,,,,,1.039,1,,,,,,100,WORD,"ID",33,carbon,CARBON,m,,,,,,-0.011111111,-0.422222222,0,0,0,,0,237,237,39,1,
,,,,,,,,,,,,,,,,,,57f697c6733f560001b5898b,2020-11-27_15h01.16.978,lexical_decision_task_MP_exp2,2020.2.5,Win32,60,,z,1,0.85,,,,,,,,0.85,1,,,,,,437,NW,UN,33,baitch,SNAPEL,z,,,,,,-0.011111111,-0.422222222,0,0,0,,0,238,238,376,1,
,,,,,,,,,,,,,,,,,,57f697c6733f560001b5898b,2020-11-27_15h01.16.978,lexical_decision_task_MP_exp2,2020.2.5,Win32,60,,m,1,0.802,,,,,,,,0.802,1,,,,,,111,WORD,"ID",33,induce,INDUCE,m,,,,,,-0.011111111,-0.422222222,0,0,0,,0,239,239,50,1,
,,,,,,,,,,,,,,,,,,57f697c6733f560001b5898b,2020-11-27_15h01.16.978,lexical_decision_task_MP_exp2,2020.2.5,Win32,60,,m,1,0.599,,,,,,,,0.599,1,,,,,,171,WORD,"ID",16,depart,DEPART,m,,,,,,-0.011111111,-0.422222222,0,0,0,,0,240,240,110,1,
,,,,,,,,,,,,,,,,,,57f697c6733f560001b5898b,2020-11-27_15h01.16.978,lexical_decision_task_MP_exp2,2020.2.5,Win32,60,,m,1,0.765,,,,,,,,0.765,1,,,,,,170,WORD,"ID",16,pounce,POUNCE,m,,,,,,-0.011111111,-0.422222222,0,0,0,space,0,241,241,109,1,0.783
,,,,,,,,,,,,,,,,,,57f697c6733f560001b5898b,2020-11-27_15h01.16.978,lexical_decision_task_MP_exp2,2020.2.5,Win32,60,,z,1,1.102,,,,,,,,1.102,1,,,,,,420,NW,"ID",16,gushop,GUSHOP,z,,,,,,-0.011111111,-0.422222222,0,0,0,,0,242,242,359,1,
,,,,,,,,,,,,,,,,,,57f697c6733f560001b5898b,2020-11-27_15h01.16.978,lexical_decision_task_MP_exp2,2020.2.5,Win32,60,,m,1,0.658,,,,,,,,0.658,1,,,,,,54,WORD,UN,16,stroke,RAMBLE,m,,,,,,-0.011111111,-0.422222222,0,0,0,,0,243,243,233,1,
,,,,,,,,,,,,,,,,,,57f697c6733f560001b5898b,2020-11-27_15h01.16.978,lexical_decision_task_MP_exp2,2020.2.5,Win32,60,,m,1,0.502,,,,,,,,0.502,1,,,,,,60,WORD,UN,16,fright,PENCIL,m,,,,,,-0.011111111,-0.422222222,0,0,0,,0,244,244,239,1,
,,,,,,,,,,,,,,,,,,57f697c6733f560001b5898b,2020-11-27_15h01.16.978,lexical_decision_task_MP_exp2,2020.2.5,Win32,60,,m,1,0.551,,,,,,,,0.551,1,,,,,,198,WORD,UN,33,invoke,WICKED,m,,,,,,-0.011111111,-0.422222222,0,0,0,,0,245,245,137,1,
,,,,,,,,,,,,,,,,,,57f697c6733f560001b5898b,2020-11-27_15h01.16.978,lexical_decision_task_MP_exp2,2020.2.5,Win32,60,,z,1,0.551,,,,,,,,0.551,1,,,,,,464,NW,UN,33,whivex,CHAITE,z,,,,,,-0.011111111,-0.422222222,0,0,0,,0,246,246,403,1,
,,,,,,,,,,,,,,,,,,57f697c6733f560001b5898b,2020-11-27_15h01.16.978,lexical_decision_task_MP_exp2,2020.2.5,Win32,60,,m,1,0.611,,,,,,,,0.611,1,,,,,,89,WORD,"ID",33,permit,PERMIT,m,,,,,,-0.011111111,-0.422222222,0,0,0,,0,247,247,28,1,
,,,,,,,,,,,,,,,,,,57f697c6733f560001b5898b,2020-11-27_15h01.16.978,lexical_decision_task_MP_exp2,2020.2.5,Win32,60,,z,1,0.504,,,,,,,,0.504,1,,,,,,473,NW,UN,33,hablin,CRIBLE,z,,,,,,-0.011111111,-0.422222222,0,0,0,,0,248,248,412,1,
,,,,,,,,,,,,,,,,,,57f697c6733f560001b5898b,2020-11-27_15h01.16.978,lexical_decision_task_MP_exp2,2020.2.5,Win32,60,,z,1,0.504,,,,,,,,0.504,1,,,,,,248,NW,UN,16,batrol,STROLE,z,,,,,,-0.011111111,-0.422222222,0,0,0,,0,249,249,427,1,
,,,,,,,,,,,,,,,,,,57f697c6733f560001b5898b,2020-11-27_15h01.16.978,lexical_decision_task_MP_exp2,2020.2.5,Win32,60,,z,1,0.859,,,,,,,,0.859,1,,,,,,411,NW,"ID",16,orchin,ORCHIN,z,,,,,,-0.011111111,-0.422222222,0,0,0,,0,250,250,350,1,
,,,,,,,,,,,,,,,,,,57f697c6733f560001b5898b,2020-11-27_15h01.16.978,lexical_decision_task_MP_exp2,2020.2.5,Win32,60,,z,1,0.521,,,,,,,,0.521,1,,,,,,329,NW,"ID",33,yarike,YARIKE,z,,,,,,-0.011111111,-0.422222222,0,0,0,,0,251,251,268,1,
,,,,,,,,,,,,,,,,,,57f697c6733f560001b5898b,2020-11-27_15h01.16.978,lexical_decision_task_MP_exp2,2020.2.5,Win32,60,,z,1,0.512,,,,,,,,0.512,1,,,,,,312,NW,"ID",33,nerawl,NERAWL,z,,,,,,-0.011111111,-0.422222222,0,0,0,,0,252,252,251,1,
,,,,,,,,,,,,,,,,,,57f697c6733f560001b5898b,2020-11-27_15h01.16.978,lexical_decision_task_MP_exp2,2020.2.5,Win32,60,,z,1,0.464,,,,,,,,0.464,1,,,,,,334,NW,"ID",33,watmeg,WATMEG,z,,,,,,-0.011111111,-0.422222222,0,0,0,,0,253,253,273,1,
,,,,,,,,,,,,,,,,,,57f697c6733f560001b5898b,2020-11-27_15h01.16.978,lexical_decision_task_MP_exp2,2020.2.5,Win32,60,,m,1,0.458,,,,,,,,0.458,1,,,,,,28,WORD,UN,16,sketch,COMEDY,m,,,,,,-0.011111111,-0.422222222,0,0,0,,0,254,254,207,1,
,,,,,,,,,,,,,,,,,,57f697c6733f560001b5898b,2020-11-27_15h01.16.978,lexical_decision_task_MP_exp2,2020.2.5,Win32,60,,m,1,0.591,,,,,,,,0.591,1,,,,,,8,WORD,UN,16,hustle,ABRUPT,m,,,,,,-0.011111111,-0.422222222,0,0,0,,0,255,255,187,1,
,,,,,,,,,,,,,,,,,,57f697c6733f560001b5898b,2020-11-27_15h01.16.978,lexical_decision_task_MP_exp2,2020.2.5,Win32,60,,m,1,0.487,,,,,,,,0.487,1,,,,,,223,WORD,UN,33,period,KIDNEY,m,,,,,,-0.011111111,-0.422222222,0,0,0,,0,256,256,162,1,
,,,,,,,,,,,,,,,,,,57f697c6733f560001b5898b,2020-11-27_15h01.16.978,lexical_decision_task_MP_exp2,2020.2.5,Win32,60,,m,1,0.906,,,,,,,,0.906,1,,,,,,143,WORD,"ID",16,reason,REASON,m,,,,,,-0.011111111,-0.422222222,0,0,0,,0,257,257,82,1,
,,,,,,,,,,,,,,,,,,57f697c6733f560001b5898b,2020-11-27_15h01.16.978,lexical_decision_task_MP_exp2,2020.2.5,Win32,60,,z,1,0.576,,,,,,,,0.576,1,,,,,,261,NW,UN,16,quilew,STUNCH,z,,,,,,-0.011111111,-0.422222222,0,0,0,,0,258,258,440,1,
,,,,,,,,,,,,,,,,,,57f697c6733f560001b5898b,2020-11-27_15h01.16.978,lexical_decision_task_MP_exp2,2020.2.5,Win32,60,,z,1,0.515,,,,,,,,0.515,1,,,,,,324,NW,"ID",33,steikh,STEIKH,z,,,,,,-0.011111111,-0.422222222,0,0,0,,0,259,259,263,1,
,,,,,,,,,,,,,,,,,,57f697c6733f560001b5898b,2020-11-27_15h01.16.978,lexical_decision_task_MP_exp2,2020.2.5,Win32,60,,z,1,0.527,,,,,,,,0.527,1,,,,,,287,NW,UN,16,yaceup,NYMBEL,z,,,,,,-0.011111111,-0.422222222,0,0,0,,0,260,260,466,1,
,,,,,,,,,,,,,,,,,,57f697c6733f560001b5898b,2020-11-27_15h01.16.978,lexical_decision_task_MP_exp2,2020.2.5,Win32,60,,z,1,0.504,,,,,,,,0.504,1,,,,,,371,NW,"ID",16,geiloy,GEILOY,z,,,,,,-0.011111111,-0.422222222,0,0,0,,0,261,261,310,1,
,,,,,,,,,,,,,,,,,,57f697c6733f560001b5898b,2020-11-27_15h01.16.978,lexical_decision_task_MP_exp2,2020.2.5,Win32,60,,z,1,0.648,,,,,,,,0.648,1,,,,,,422,NW,UN,33,streld,ALCOUD,z,,,,,,-0.011111111,-0.422222222,0,0,0,,0,262,262,361,1,
,,,,,,,,,,,,,,,,,,57f697c6733f560001b5898b,2020-11-27_15h01.16.978,lexical_decision_task_MP_exp2,2020.2.5,Win32,60,,m,1,0.569,,,,,,,,0.569,1,,,,,,221,WORD,UN,33,hinder,MASCOT,m,,,,,,-0.011111111,-0.422222222,0,0,0,,0,263,263,160,1,
,,,,,,,,,,,,,,,,,,57f697c6733f560001b5898b,2020-11-27_15h01.16.978,lexical_decision_task_MP_exp2,2020.2.5,Win32,60,,z,1,0.498,,,,,,,,0.498,1,,,,,,327,NW,"ID",33,plenac,PLENAC,z,,,,,,-0.011111111,-0.422222222,0,0,0,,0,264,264,266,1,
,,,,,,,,,,,,,,,,,,57f697c6733f560001b5898b,2020-11-27_15h01.16.978,lexical_decision_task_MP_exp2,2020.2.5,Win32,60,,z,1,0.502,,,,,,,,0.502,1,,,,,,355,NW,"ID",33,zingly,ZINGLY,z,,,,,,-0.011111111,-0.422222222,0,0,0,,0,265,265,294,1,
,,,,,,,,,,,,,,,,,,57f697c6733f560001b5898b,2020-11-27_15h01.16.978,lexical_decision_task_MP_exp2,2020.2.5,Win32,60,,z,1,0.662,,,,,,,,0.662,1,,,,,,433,NW,UN,33,pitrom,DRANCE,z,,,,,,-0.011111111,-0.422222222,0,0,0,,0,266,266,372,1,
,,,,,,,,,,,,,,,,,,57f697c6733f560001b5898b,2020-11-27_15h01.16.978,lexical_decision_task_MP_exp2,2020.2.5,Win32,60,,m,1,0.492,,,,,,,,0.492,1,,,,,,180,WORD,"ID",16,silent,SILENT,m,,,,,,-0.011111111,-0.422222222,0,0,0,,0,267,267,119,1,
,,,,,,,,,,,,,,,,,,57f697c6733f560001b5898b,2020-11-27_15h01.16.978,lexical_decision_task_MP_exp2,2020.2.5,Win32,60,,m,1,0.434,,,,,,,,0.434,1,,,,,,167,WORD,"ID",16,design,DESIGN,m,,,,,,-0.011111111,-0.422222222,0,0,0,,0,268,268,106,1,
,,,,,,,,,,,,,,,,,,57f697c6733f560001b5898b,2020-11-27_15h01.16.978,lexical_decision_task_MP_exp2,2020.2.5,Win32,60,,z,1,0.538,,,,,,,,0.538,1,,,,,,423,NW,UN,33,praile,STRELD,z,,,,,,-0.011111111,-0.422222222,0,0,0,,0,269,269,362,1,
,,,,,,,,,,,,,,,,,,57f697c6733f560001b5898b,2020-11-27_15h01.16.978,lexical_decision_task_MP_exp2,2020.2.5,Win32,60,,z,0,0.52,,,,,,,,0.52,0,,,,,,16,WORD,UN,16,charge,FAUCET,m,,,,,,-0.011111111,-0.422222222,0,0,0,,0,270,270,195,1,
,,,,,,,,,,,,,,,,,,57f697c6733f560001b5898b,2020-11-27_15h01.16.978,lexical_decision_task_MP_exp2,2020.2.5,Win32,60,,z,1,0.632,,,,,,,,0.632,1,,,,,,253,NW,UN,16,varosh,RESAIT,z,,,,,,-0.011111111,-0.422222222,0,0,0,,0,271,271,432,1,
,,,,,,,,,,,,,,,,,,57f697c6733f560001b5898b,2020-11-27_15h01.16.978,lexical_decision_task_MP_exp2,2020.2.5,Win32,60,,m,1,0.85,,,,,,,,0.85,1,,,,,,175,WORD,"ID",16,fabric,FABRIC,m,,,,,,-0.011111111,-0.422222222,0,0,0,,0,272,272,114,1,
,,,,,,,,,,,,,,,,,,57f697c6733f560001b5898b,2020-11-27_15h01.16.978,lexical_decision_task_MP_exp2,2020.2.5,Win32,60,,z,1,0.788,,,,,,,,0.788,1,,,,,,397,NW,"ID",16,camble,CAMBLE,z,,,,,,-0.011111111,-0.422222222,0,0,0,,0,273,273,336,1,
,,,,,,,,,,,,,,,,,,57f697c6733f560001b5898b,2020-11-27_15h01.16.978,lexical_decision_task_MP_exp2,2020.2.5,Win32,60,,z,1,0.737,,,,,,,,0.737,1,,,,,,250,NW,UN,16,lupict,MILTED,z,,,,,,-0.011111111,-0.422222222,0,0,0,,0,274,274,429,1,
,,,,,,,,,,,,,,,,,,57f697c6733f560001b5898b,2020-11-27_15h01.16.978,lexical_decision_task_MP_exp2,2020.2.5,Win32,60,,z,1,0.704,,,,,,,,0.704,1,,,,,,266,NW,UN,16,pasink,VARMIT,z,,,,,,-0.011111111,-0.422222222,0,0,0,,0,275,275,445,1,
,,,,,,,,,,,,,,,,,,57f697c6733f560001b5898b,2020-11-27_15h01.16.978,lexical_decision_task_MP_exp2,2020.2.5,Win32,60,,z,1,0.749,,,,,,,,0.749,1,,,,,,398,NW,"ID",16,blunde,BLUNDE,z,,,,,,-0.011111111,-0.422222222,0,0,0,,0,276,276,337,1,
,,,,,,,,,,,,,,,,,,57f697c6733f560001b5898b,2020-11-27_15h01.16.978,lexical_decision_task_MP_exp2,2020.2.5,Win32,60,,m,1,0.504,,,,,,,,0.504,1,,,,,,155,WORD,"ID",16,lizard,LIZARD,m,,,,,,-0.011111111,-0.422222222,0,0,0,,0,277,277,94,1,
,,,,,,,,,,,,,,,,,,57f697c6733f560001b5898b,2020-11-27_15h01.16.978,lexical_decision_task_MP_exp2,2020.2.5,Win32,60,,z,1,0.653,,,,,,,,0.653,1,,,,,,341,NW,"ID",33,myrtie,MYRTIE,z,,,,,,-0.011111111,-0.422222222,0,0,0,,0,278,278,280,1,
,,,,,,,,,,,,,,,,,,57f697c6733f560001b5898b,2020-11-27_15h01.16.978,lexical_decision_task_MP_exp2,2020.2.5,Win32,60,,m,1,0.563,,,,,,,,0.563,1,,,,,,39,WORD,UN,16,convey,INSECT,m,,,,,,-0.011111111,-0.422222222,0,0,0,,0,279,279,218,1,
,,,,,,,,,,,,,,,,,,57f697c6733f560001b5898b,2020-11-27_15h01.16.978,lexical_decision_task_MP_exp2,2020.2.5,Win32,60,,z,1,0.627,,,,,,,,0.627,1,,,,,,255,NW,UN,16,inlors,APIGHT,z,,,,,,-0.011111111,-0.422222222,0,0,0,,0,280,280,434,1,
,,,,,,,,,,,,,,,,,,57f697c6733f560001b5898b,2020-11-27_15h01.16.978,lexical_decision_task_MP_exp2,2020.2.5,Win32,60,,m,1,0.408,,,,,,,,0.408,1,,,,,,229,WORD,UN,33,fringe,MOTHER,m,,,,,,-0.011111111,-0.422222222,0,0,0,,0,281,281,168,1,
,,,,,,,,,,,,,,,,,,57f697c6733f560001b5898b,2020-11-27_15h01.16.978,lexical_decision_task_MP_exp2,2020.2.5,Win32,60,,m,1,0.485,,,,,,,,0.485,1,,,,,,122,WORD,"ID",16,linger,LINGER,m,,,,,,-0.011111111,-0.422222222,0,0,0,,0,282,282,61,1,
,,,,,,,,,,,,,,,,,,57f697c6733f560001b5898b,2020-11-27_15h01.16.978,lexical_decision_task_MP_exp2,2020.2.5,Win32,60,,z,1,0.662,,,,,,,,0.662,1,,,,,,396,NW,"ID",16,flengy,FLENGY,z,,,,,,-0.011111111,-0.422222222,0,0,0,,0,283,283,335,1,
,,,,,,,,,,,,,,,,,,57f697c6733f560001b5898b,2020-11-27_15h01.16.978,lexical_decision_task_MP_exp2,2020.2.5,Win32,60,,z,1,1.022,,,,,,,,1.022,1,,,,,,403,NW,"ID",16,bruats,BRUATS,z,,,,,,-0.011111111,-0.422222222,0,0,0,,0,284,284,342,1,
,,,,,,,,,,,,,,,,,,57f697c6733f560001b5898b,2020-11-27_15h01.16.978,lexical_decision_task_MP_exp2,2020.2.5,Win32,60,,z,1,0.514,,,,,,,,0.514,1,,,,,,308,NW,"ID",33,psetch,PSETCH,z,,,,,,-0.011111111,-0.422222222,0,0,0,,0,285,285,247,1,
,,,,,,,,,,,,,,,,,,57f697c6733f560001b5898b,2020-11-27_15h01.16.978,lexical_decision_task_MP_exp2,2020.2.5,Win32,60,,m,1,0.636,,,,,,,,0.636,1,,,,,,220,WORD,UN,33,mascot,VOYAGE,m,,,,,,-0.011111111,-0.422222222,0,0,0,,0,286,286,159,1,
,,,,,,,,,,,,,,,,,,57f697c6733f560001b5898b,2020-11-27_15h01.16.978,lexical_decision_task_MP_exp2,2020.2.5,Win32,60,,z,1,0.639,,,,,,,,0.639,1,,,,,,435,NW,UN,33,frutan,IMPURB,z,,,,,,-0.011111111,-0.422222222,0,0,0,,0,287,287,374,1,
,,,,,,,,,,,,,,,,,,57f697c6733f560001b5898b,2020-11-27_15h01.16.978,lexical_decision_task_MP_exp2,2020.2.5,Win32,60,,z,1,0.559,,,,,,,,0.559,1,,,,,,336,NW,"ID",33,ghodus,GHODUS,z,,,,,,-0.011111111,-0.422222222,0,0,0,,0,288,288,275,1,
,,,,,,,,,,,,,,,,,,57f697c6733f560001b5898b,2020-11-27_15h01.16.978,lexical_decision_task_MP_exp2,2020.2.5,Win32,60,,m,1,0.648,,,,,,,,0.648,1,,,,,,136,WORD,"ID",16,bleach,BLEACH,m,,,,,,-0.011111111,-0.422222222,0,0,0,,0,289,289,75,1,
,,,,,,,,,,,,,,,,,,57f697c6733f560001b5898b,2020-11-27_15h01.16.978,lexical_decision_task_MP_exp2,2020.2.5,Win32,60,,z,1,0.623,,,,,,,,0.623,1,,,,,,361,NW,"ID",16,pauche,PAUCHE,z,,,,,,-0.011111111,-0.422222222,0,0,0,,0,290,290,300,1,
,,,,,,,,,,,,,,,,,,57f697c6733f560001b5898b,2020-11-27_15h01.16.978,lexical_decision_task_MP_exp2,2020.2.5,Win32,60,,m,1,0.494,,,,,,,,0.494,1,,,,,,235,WORD,UN,33,pirate,GRUMPY,m,,,,,,-0.011111111,-0.422222222,0,0,0,,0,291,291,174,1,
,,,,,,,,,,,,,,,,,,57f697c6733f560001b5898b,2020-11-27_15h01.16.978,lexical_decision_task_MP_exp2,2020.2.5,Win32,60,,z,1,0.604,,,,,,,,0.604,1,,,,,,242,NW,UN,16,musied,UNWERT,z,,,,,,-0.011111111,-0.422222222,0,0,0,,0,292,292,421,1,
,,,,,,,,,,,,,,,,,,57f697c6733f560001b5898b,2020-11-27_15h01.16.978,lexical_decision_task_MP_exp2,2020.2.5,Win32,60,,z,1,0.506,,,,,,,,0.506,1,,,,,,478,NW,UN,33,pebric,ACRISE,z,,,,,,-0.011111111,-0.422222222,0,0,0,,0,293,293,417,1,
,,,,,,,,,,,,,,,,,,57f697c6733f560001b5898b,2020-11-27_15h01.16.978,lexical_decision_task_MP_exp2,2020.2.5,Win32,60,,z,1,0.537,,,,,,,,0.537,1,,,,,,264,NW,UN,16,distar,VACKEL,z,,,,,,-0.011111111,-0.422222222,0,0,0,,0,294,294,443,1,
,,,,,,,,,,,,,,,,,,57f697c6733f560001b5898b,2020-11-27_15h01.16.978,lexical_decision_task_MP_exp2,2020.2.5,Win32,60,,z,1,0.502,,,,,,,,0.502,1,,,,,,326,NW,"ID",33,iguade,IGUADE,z,,,,,,-0.011111111,-0.422222222,0,0,0,,0,295,295,265,1,
,,,,,,,,,,,,,,,,,,57f697c6733f560001b5898b,2020-11-27_15h01.16.978,lexical_decision_task_MP_exp2,2020.2.5,Win32,60,,z,1,0.464,,,,,,,,0.464,1,,,,,,440,NW,UN,33,rastoe,SARIDE,z,,,,,,-0.011111111,-0.422222222,0,0,0,,0,296,296,379,1,
,,,,,,,,,,,,,,,,,,57f697c6733f560001b5898b,2020-11-27_15h01.16.978,lexical_decision_task_MP_exp2,2020.2.5,Win32,60,,m,1,0.836,,,,,,,,0.836,1,,,,,,90,WORD,"ID",33,relish,RELISH,m,,,,,,-0.011111111,-0.422222222,0,0,0,,0,297,297,29,1,
,,,,,,,,,,,,,,,,,,57f697c6733f560001b5898b,2020-11-27_15h01.16.978,lexical_decision_task_MP_exp2,2020.2.5,Win32,60,,z,1,0.82,,,,,,,,0.82,1,,,,,,454,NW,UN,33,tondle,SCOUGE,z,,,,,,-0.011111111,-0.422222222,0,0,0,,0,298,298,393,1,
,,,,,,,,,,,,,,,,,,57f697c6733f560001b5898b,2020-11-27_15h01.16.978,lexical_decision_task_MP_exp2,2020.2.5,Win32,60,,m,1,0.568,,,,,,,,0.568,1,,,,,,2,WORD,UN,16,knight,BRIDGE,m,,,,,,-0.011111111,-0.422222222,0,0,0,,0,299,299,181,1,
,,,,,,,,,,,,,,,,,,57f697c6733f560001b5898b,2020-11-27_15h01.16.978,lexical_decision_task_MP_exp2,2020.2.5,Win32,60,,z,1,0.998,,,,,,,,0.998,1,,,,,,378,NW,"ID",16,shrile,SHRILE,z,,,,,,-0.011111111,-0.422222222,0,0,0,,0,300,300,317,1,
,,,,,,,,,,,,,,,,,,57f697c6733f560001b5898b,2020-11-27_15h01.16.978,lexical_decision_task_MP_exp2,2020.2.5,Win32,60,,m,1,0.651,,,,,,,,0.651,1,,,,,,107,WORD,"ID",33,slogan,SLOGAN,m,,,,,,-0.011111111,-0.422222222,0,0,0,,0,301,301,46,1,
,,,,,,,,,,,,,,,,,,57f697c6733f560001b5898b,2020-11-27_15h01.16.978,lexical_decision_task_MP_exp2,2020.2.5,Win32,60,,m,1,0.732,,,,,,,,0.732,1,,,,,,118,WORD,"ID",33,flight,FLIGHT,m,,,,,,-0.011111111,-0.422222222,0,0,0,,0,302,302,57,1,
,,,,,,,,,,,,,,,,,,57f697c6733f560001b5898b,2020-11-27_15h01.16.978,lexical_decision_task_MP_exp2,2020.2.5,Win32,60,,z,1,0.539,,,,,,,,0.539,1,,,,,,318,NW,"ID",33,reagly,REAGLY,z,,,,,,-0.011111111,-0.422222222,0,0,0,,0,303,303,257,1,
,,,,,,,,,,,,,,,,,,57f697c6733f560001b5898b,2020-11-27_15h01.16.978,lexical_decision_task_MP_exp2,2020.2.5,Win32,60,,m,1,0.549,,,,,,,,0.549,1,,,,,,227,WORD,UN,33,master,SELDOM,m,,,,,,-0.011111111,-0.422222222,0,0,0,,0,304,304,166,1,
,,,,,,,,,,,,,,,,,,57f697c6733f560001b5898b,2020-11-27_15h01.16.978,lexical_decision_task_MP_exp2,2020.2.5,Win32,60,,m,1,0.599,,,,,,,,0.599,1,,,,,,133,WORD,"ID",16,chrome,CHROME,m,,,,,,-0.011111111,-0.422222222,0,0,0,,0,305,305,72,1,
,,,,,,,,,,,,,,,,,,57f697c6733f560001b5898b,2020-11-27_15h01.16.978,lexical_decision_task_MP_exp2,2020.2.5,Win32,60,,m,1,0.687,,,,,,,,0.687,1,,,,,,206,WORD,UN,33,wreath,TAILOR,m,,,,,,-0.011111111,-0.422222222,0,0,0,,0,306,306,145,1,
,,,,,,,,,,,,,,,,,,57f697c6733f560001b5898b,2020-11-27_15h01.16.978,lexical_decision_task_MP_exp2,2020.2.5,Win32,60,,m,1,0.519,,,,,,,,0.519,1,,,,,,119,WORD,"ID",33,spider,SPIDER,m,,,,,,-0.011111111,-0.422222222,0,0,0,,0,307,307,58,1,
,,,,,,,,,,,,,,,,,,57f697c6733f560001b5898b,2020-11-27_15h01.16.978,lexical_decision_task_MP_exp2,2020.2.5,Win32,60,,m,1,0.545,,,,,,,,0.545,1,,,,,,232,WORD,UN,33,nature,INJECT,m,,,,,,-0.011111111,-0.422222222,0,0,0,,0,308,308,171,1,
,,,,,,,,,,,,,,,,,,57f697c6733f560001b5898b,2020-11-27_15h01.16.978,lexical_decision_task_MP_exp2,2020.2.5,Win32,60,,m,1,0.555,,,,,,,,0.555,1,,,,,,233,WORD,UN,33,clumsy,NATURE,m,,,,,,-0.011111111,-0.422222222,0,0,0,,0,309,309,172,1,
,,,,,,,,,,,,,,,,,,57f697c6733f560001b5898b,2020-11-27_15h01.16.978,lexical_decision_task_MP_exp2,2020.2.5,Win32,60,,z,1,0.731,,,,,,,,0.731,1,,,,,,393,NW,"ID",16,ganous,GANOUS,z,,,,,,-0.011111111,-0.422222222,0,0,0,,0,310,310,332,1,
,,,,,,,,,,,,,,,,,,57f697c6733f560001b5898b,2020-11-27_15h01.16.978,lexical_decision_task_MP_exp2,2020.2.5,Win32,60,,m,1,0.651,,,,,,,,0.651,1,,,,,,186,WORD,UN,33,course,PORTAL,m,,,,,,-0.011111111,-0.422222222,0,0,0,,0,311,311,125,1,
,,,,,,,,,,,,,,,,,,57f697c6733f560001b5898b,2020-11-27_15h01.16.978,lexical_decision_task_MP_exp2,2020.2.5,Win32,60,,z,1,0.638,,,,,,,,0.638,1,,,,,,375,NW,"ID",16,yorque,YORQUE,z,,,,,,-0.011111111,-0.422222222,0,0,0,,0,312,312,314,1,
,,,,,,,,,,,,,,,,,,57f697c6733f560001b5898b,2020-11-27_15h01.16.978,lexical_decision_task_MP_exp2,2020.2.5,Win32,60,,z,1,0.619,,,,,,,,0.619,1,,,,,,450,NW,UN,33,cainky,PHRECT,z,,,,,,-0.011111111,-0.422222222,0,0,0,,0,313,313,389,1,
,,,,,,,,,,,,,,,,,,57f697c6733f560001b5898b,2020-11-27_15h01.16.978,lexical_decision_task_MP_exp2,2020.2.5,Win32,60,,m,1,0.47,,,,,,,,0.47,1,,,,,,188,WORD,UN,33,censor,SOCIAL,m,,,,,,-0.011111111,-0.422222222,0,0,0,,0,314,314,127,1,
,,,,,,,,,,,,,,,,,,57f697c6733f560001b5898b,2020-11-27_15h01.16.978,lexical_decision_task_MP_exp2,2020.2.5,Win32,60,,z,1,0.661,,,,,,,,0.661,1,,,,,,419,NW,"ID",16,slount,SLOUNT,z,,,,,,-0.011111111,-0.422222222,0,0,0,,0,315,315,358,1,
,,,,,,,,,,,,,,,,,,57f697c6733f560001b5898b,2020-11-27_15h01.16.978,lexical_decision_task_MP_exp2,2020.2.5,Win32,60,,z,1,0.557,,,,,,,,0.557,1,,,,,,467,NW,UN,33,wictor,GORBIE,z,,,,,,-0.011111111,-0.422222222,0,0,0,,0,316,316,406,1,
,,,,,,,,,,,,,,,,,,57f697c6733f560001b5898b,2020-11-27_15h01.16.978,lexical_decision_task_MP_exp2,2020.2.5,Win32,60,,m,1,0.615,,,,,,,,0.615,1,,,,,,14,WORD,UN,16,orange,ALMOST,m,,,,,,-0.011111111,-0.422222222,0,0,0,,0,317,317,193,1,
,,,,,,,,,,,,,,,,,,57f697c6733f560001b5898b,2020-11-27_15h01.16.978,lexical_decision_task_MP_exp2,2020.2.5,Win32,60,,m,1,0.622,,,,,,,,0.622,1,,,,,,13,WORD,UN,16,almost,STRIVE,m,,,,,,-0.011111111,-0.422222222,0,0,0,,0,318,318,192,1,
,,,,,,,,,,,,,,,,,,57f697c6733f560001b5898b,2020-11-27_15h01.16.978,lexical_decision_task_MP_exp2,2020.2.5,Win32,60,,z,1,0.617,,,,,,,,0.617,1,,,,,,305,NW,"ID",33,forgle,FORGLE,z,,,,,,-0.011111111,-0.422222222,0,0,0,,0,319,319,244,1,
,,,,,,,,,,,,,,,,,,57f697c6733f560001b5898b,2020-11-27_15h01.16.978,lexical_decision_task_MP_exp2,2020.2.5,Win32,60,,z,1,0.542,,,,,,,,0.542,1,,,,,,272,NW,UN,16,sortel,DAMILT,z,,,,,,-0.011111111,-0.422222222,0,0,0,,0,320,320,451,1,
,,,,,,,,,,,,,,,,,,57f697c6733f560001b5898b,2020-11-27_15h01.16.978,lexical_decision_task_MP_exp2,2020.2.5,Win32,60,,m,1,0.778,,,,,,,,0.778,1,,,,,,160,WORD,"ID",16,violet,VIOLET,m,,,,,,-0.011111111,-0.422222222,0,0,0,,0,321,321,99,1,
,,,,,,,,,,,,,,,,,,57f697c6733f560001b5898b,2020-11-27_15h01.16.978,lexical_decision_task_MP_exp2,2020.2.5,Win32,60,,m,1,0.535,,,,,,,,0.535,1,,,,,,29,WORD,UN,16,orient,SKETCH,m,,,,,,-0.011111111,-0.422222222,0,0,0,,0,322,322,208,1,
,,,,,,,,,,,,,,,,,,57f697c6733f560001b5898b,2020-11-27_15h01.16.978,lexical_decision_task_MP_exp2,2020.2.5,Win32,60,,z,1,0.654,,,,,,,,0.654,1,,,,,,425,NW,UN,33,urivel,FRUDGE,z,,,,,,-0.011111111,-0.422222222,0,0,0,,0,323,323,364,1,
,,,,,,,,,,,,,,,,,,57f697c6733f560001b5898b,2020-11-27_15h01.16.978,lexical_decision_task_MP_exp2,2020.2.5,Win32,60,,m,1,0.692,,,,,,,,0.692,1,,,,,,204,WORD,UN,33,lounge,BURDEN,m,,,,,,-0.011111111,-0.422222222,0,0,0,,0,324,324,143,1,
,,,,,,,,,,,,,,,,,,57f697c6733f560001b5898b,2020-11-27_15h01.16.978,lexical_decision_task_MP_exp2,2020.2.5,Win32,60,,m,1,0.618,,,,,,,,0.618,1,,,,,,239,WORD,UN,33,forest,LUMBER,m,,,,,,-0.011111111,-0.422222222,0,0,0,,0,325,325,178,1,
,,,,,,,,,,,,,,,,,,57f697c6733f560001b5898b,2020-11-27_15h01.16.978,lexical_decision_task_MP_exp2,2020.2.5,Win32,60,,m,1,0.56,,,,,,,,0.56,1,,,,,,213,WORD,UN,33,intake,SQUEAL,m,,,,,,-0.011111111,-0.422222222,0,0,0,,0,326,326,152,1,
,,,,,,,,,,,,,,,,,,57f697c6733f560001b5898b,2020-11-27_15h01.16.978,lexical_decision_task_MP_exp2,2020.2.5,Win32,60,,z,1,0.552,,,,,,,,0.552,1,,,,,,340,NW,"ID",33,fiatch,FIATCH,z,,,,,,-0.011111111,-0.422222222,0,0,0,,0,327,327,279,1,
,,,,,,,,,,,,,,,,,,57f697c6733f560001b5898b,2020-11-27_15h01.16.978,lexical_decision_task_MP_exp2,2020.2.5,Win32,60,,m,1,0.523,,,,,,,,0.523,1,,,,,,128,WORD,"ID",16,senior,SENIOR,m,,,,,,-0.011111111,-0.422222222,0,0,0,,0,328,328,67,1,
,,,,,,,,,,,,,,,,,,57f697c6733f560001b5898b,2020-11-27_15h01.16.978,lexical_decision_task_MP_exp2,2020.2.5,Win32,60,,z,1,1.071,,,,,,,,1.071,1,,,,,,286,NW,UN,16,nymbel,RELDON,z,,,,,,-0.011111111,-0.422222222,0,0,0,,0,329,329,465,1,
,,,,,,,,,,,,,,,,,,57f697c6733f560001b5898b,2020-11-27_15h01.16.978,lexical_decision_task_MP_exp2,2020.2.5,Win32,60,,m,1,0.516,,,,,,,,0.516,1,,,,,,83,WORD,"ID",33,result,RESULT,m,,,,,,-0.011111111,-0.422222222,0,0,0,,0,330,330,22,1,
,,,,,,,,,,,,,,,,,,57f697c6733f560001b5898b,2020-11-27_15h01.16.978,lexical_decision_task_MP_exp2,2020.2.5,Win32,60,,m,1,0.571,,,,,,,,0.571,1,,,,,,51,WORD,UN,16,impose,HUNGRY,m,,,,,,-0.011111111,-0.422222222,0,0,0,,0,331,331,230,1,
,,,,,,,,,,,,,,,,,,57f697c6733f560001b5898b,2020-11-27_15h01.16.978,lexical_decision_task_MP_exp2,2020.2.5,Win32,60,,z,1,1,,,,,,,,1,1,,,,,,456,NW,UN,33,wanigh,BROGET,z,,,,,,-0.011111111,-0.422222222,0,0,0,,0,332,332,395,1,
,,,,,,,,,,,,,,,,,,57f697c6733f560001b5898b,2020-11-27_15h01.16.978,lexical_decision_task_MP_exp2,2020.2.5,Win32,60,,z,1,0.548,,,,,,,,0.548,1,,,,,,364,NW,"ID",16,impote,IMPOTE,z,,,,,,-0.011111111,-0.422222222,0,0,0,,0,333,333,303,1,
,,,,,,,,,,,,,,,,,,57f697c6733f560001b5898b,2020-11-27_15h01.16.978,lexical_decision_task_MP_exp2,2020.2.5,Win32,60,,z,1,0.629,,,,,,,,0.629,1,,,,,,293,NW,UN,16,inhort,SWANCE,z,,,,,,-0.011111111,-0.422222222,0,0,0,,0,334,334,472,1,
,,,,,,,,,,,,,,,,,,57f697c6733f560001b5898b,2020-11-27_15h01.16.978,lexical_decision_task_MP_exp2,2020.2.5,Win32,60,,m,1,0.619,,,,,,,,0.619,1,,,,,,62,WORD,"ID",33,region,REGION,m,,,,,,-0.011111111,-0.422222222,0,0,0,,0,335,335,1,1,
,,,,,,,,,,,,,,,,,,57f697c6733f560001b5898b,2020-11-27_15h01.16.978,lexical_decision_task_MP_exp2,2020.2.5,Win32,60,,m,1,0.546,,,,,,,,0.546,1,,,,,,126,WORD,"ID",16,enough,ENOUGH,m,,,,,,-0.011111111,-0.422222222,0,0,0,,0,336,336,65,1,
,,,,,,,,,,,,,,,,,,57f697c6733f560001b5898b,2020-11-27_15h01.16.978,lexical_decision_task_MP_exp2,2020.2.5,Win32,60,,z,1,0.753,,,,,,,,0.753,1,,,,,,269,NW,UN,16,wrimsy,ORCHET,z,,,,,,-0.011111111,-0.422222222,0,0,0,,0,337,337,448,1,
,,,,,,,,,,,,,,,,,,57f697c6733f560001b5898b,2020-11-27_15h01.16.978,lexical_decision_task_MP_exp2,2020.2.5,Win32,60,,m,1,0.548,,,,,,,,0.548,1,,,,,,38,WORD,UN,16,insect,POWDER,m,,,,,,-0.011111111,-0.422222222,0,0,0,,0,338,338,217,1,
,,,,,,,,,,,,,,,,,,57f697c6733f560001b5898b,2020-11-27_15h01.16.978,lexical_decision_task_MP_exp2,2020.2.5,Win32,60,,m,1,0.726,,,,,,,,0.726,1,,,,,,163,WORD,"ID",16,string,STRING,m,,,,,,-0.011111111,-0.422222222,0,0,0,,0,339,339,102,1,
,,,,,,,,,,,,,,,,,,57f697c6733f560001b5898b,2020-11-27_15h01.16.978,lexical_decision_task_MP_exp2,2020.2.5,Win32,60,,z,1,0.767,,,,,,,,0.767,1,,,,,,438,NW,UN,33,limpor,BAITCH,z,,,,,,-0.011111111,-0.422222222,0,0,0,,0,340,340,377,1,
,,,,,,,,,,,,,,,,,,57f697c6733f560001b5898b,2020-11-27_15h01.16.978,lexical_decision_task_MP_exp2,2020.2.5,Win32,60,,z,1,0.614,,,,,,,,0.614,1,,,,,,447,NW,UN,33,sadent,GIRCUE,z,,,,,,-0.011111111,-0.422222222,0,0,0,,0,341,341,386,1,
,,,,,,,,,,,,,,,,,,57f697c6733f560001b5898b,2020-11-27_15h01.16.978,lexical_decision_task_MP_exp2,2020.2.5,Win32,60,,m,1,0.766,,,,,,,,0.766,1,,,,,,209,WORD,UN,33,monkey,SEARCH,m,,,,,,-0.011111111,-0.422222222,0,0,0,,0,342,342,148,1,
,,,,,,,,,,,,,,,,,,57f697c6733f560001b5898b,2020-11-27_15h01.16.978,lexical_decision_task_MP_exp2,2020.2.5,Win32,60,,m,1,0.602,,,,,,,,0.602,1,,,,,,76,WORD,"ID",33,exotic,EXOTIC,m,,,,,,-0.011111111,-0.422222222,0,0,0,,0,343,343,15,1,
,,,,,,,,,,,,,,,,,,57f697c6733f560001b5898b,2020-11-27_15h01.16.978,lexical_decision_task_MP_exp2,2020.2.5,Win32,60,,m,1,0.498,,,,,,,,0.498,1,,,,,,80,WORD,"ID",33,family,FAMILY,m,,,,,,-0.011111111,-0.422222222,0,0,0,,0,344,344,19,1,
,,,,,,,,,,,,,,,,,,57f697c6733f560001b5898b,2020-11-27_15h01.16.978,lexical_decision_task_MP_exp2,2020.2.5,Win32,60,,z,1,0.688,,,,,,,,0.688,1,,,,,,460,NW,UN,33,justre,MINGAR,z,,,,,,-0.011111111,-0.422222222,0,0,0,,0,345,345,399,1,
,,,,,,,,,,,,,,,,,,57f697c6733f560001b5898b,2020-11-27_15h01.16.978,lexical_decision_task_MP_exp2,2020.2.5,Win32,60,,m,1,0.507,,,,,,,,0.507,1,,,,,,117,WORD,"ID",33,branch,BRANCH,m,,,,,,-0.011111111,-0.422222222,0,0,0,,0,346,346,56,1,
,,,,,,,,,,,,,,,,,,57f697c6733f560001b5898b,2020-11-27_15h01.16.978,lexical_decision_task_MP_exp2,2020.2.5,Win32,60,,m,1,0.565,,,,,,,,0.565,1,,,,,,237,WORD,UN,33,glance,POSTER,m,,,,,,-0.011111111,-0.422222222,0,0,0,,0,347,347,176,1,
,,,,,,,,,,,,,,,,,,57f697c6733f560001b5898b,2020-11-27_15h01.16.978,lexical_decision_task_MP_exp2,2020.2.5,Win32,60,,z,1,0.549,,,,,,,,0.549,1,,,,,,309,NW,"ID",33,amiloy,AMILOY,z,,,,,,-0.011111111,-0.422222222,0,0,0,,0,348,348,248,1,
,,,,,,,,,,,,,,,,,,57f697c6733f560001b5898b,2020-11-27_15h01.16.978,lexical_decision_task_MP_exp2,2020.2.5,Win32,60,,z,1,0.668,,,,,,,,0.668,1,,,,,,295,NW,UN,16,beinch,GLEATH,z,,,,,,-0.011111111,-0.422222222,0,0,0,,0,349,349,474,1,
,,,,,,,,,,,,,,,,,,57f697c6733f560001b5898b,2020-11-27_15h01.16.978,lexical_decision_task_MP_exp2,2020.2.5,Win32,60,,z,1,0.487,,,,,,,,0.487,1,,,,,,480,NW,UN,33,knisma,ROBULY,z,,,,,,-0.011111111,-0.422222222,0,0,0,,0,350,350,419,1,
,,,,,,,,,,,,,,,,,,57f697c6733f560001b5898b,2020-11-27_15h01.16.978,lexical_decision_task_MP_exp2,2020.2.5,Win32,60,,z,0,0.578,,,,,,,,0.578,0,,,,,,35,WORD,UN,16,vanish,SOCKET,m,,,,,,-0.011111111,-0.422222222,0,0,0,,0,351,351,214,1,
,,,,,,,,,,,,,,,,,,57f697c6733f560001b5898b,2020-11-27_15h01.16.978,lexical_decision_task_MP_exp2,2020.2.5,Win32,60,,z,1,0.644,,,,,,,,0.644,1,,,,,,418,NW,"ID",16,suidle,SUIDLE,z,,,,,,-0.011111111,-0.422222222,0,0,0,,0,352,352,357,1,
,,,,,,,,,,,,,,,,,,57f697c6733f560001b5898b,2020-11-27_15h01.16.978,lexical_decision_task_MP_exp2,2020.2.5,Win32,60,,z,1,0.532,,,,,,,,0.532,1,,,,,,313,NW,"ID",33,paurse,PAURSE,z,,,,,,-0.011111111,-0.422222222,0,0,0,,0,353,353,252,1,
,,,,,,,,,,,,,,,,,,57f697c6733f560001b5898b,2020-11-27_15h01.16.978,lexical_decision_task_MP_exp2,2020.2.5,Win32,60,,z,1,0.59,,,,,,,,0.59,1,,,,,,256,NW,UN,16,veniod,INLORS,z,,,,,,-0.011111111,-0.422222222,0,0,0,,0,354,354,435,1,
,,,,,,,,,,,,,,,,,,57f697c6733f560001b5898b,2020-11-27_15h01.16.978,lexical_decision_task_MP_exp2,2020.2.5,Win32,60,,m,1,0.617,,,,,,,,0.617,1,,,,,,166,WORD,"ID",16,starch,STARCH,m,,,,,,-0.011111111,-0.422222222,0,0,0,,0,355,355,105,1,
,,,,,,,,,,,,,,,,,,57f697c6733f560001b5898b,2020-11-27_15h01.16.978,lexical_decision_task_MP_exp2,2020.2.5,Win32,60,,z,1,0.518,,,,,,,,0.518,1,,,,,,412,NW,"ID",16,jiluer,JILUER,z,,,,,,-0.011111111,-0.422222222,0,0,0,,0,356,356,351,1,
,,,,,,,,,,,,,,,,,,57f697c6733f560001b5898b,2020-11-27_15h01.16.978,lexical_decision_task_MP_exp2,2020.2.5,Win32,60,,m,1,0.542,,,,,,,,0.542,1,,,,,,162,WORD,"ID",16,candle,CANDLE,m,,,,,,-0.011111111,-0.422222222,0,0,0,,0,357,357,101,1,
,,,,,,,,,,,,,,,,,,57f697c6733f560001b5898b,2020-11-27_15h01.16.978,lexical_decision_task_MP_exp2,2020.2.5,Win32,60,,m,1,0.514,,,,,,,,0.514,1,,,,,,91,WORD,"ID",33,expand,EXPAND,m,,,,,,-0.011111111,-0.422222222,0,0,0,,0,358,358,30,1,
,,,,,,,,,,,,,,,,,,57f697c6733f560001b5898b,2020-11-27_15h01.16.978,lexical_decision_task_MP_exp2,2020.2.5,Win32,60,,m,1,0.535,,,,,,,,0.535,1,,,,,,113,WORD,"ID",33,chorus,CHORUS,m,,,,,,-0.011111111,-0.422222222,0,0,0,,0,359,359,52,1,
,,,,,,,,,,,,,,,,,,57f697c6733f560001b5898b,2020-11-27_15h01.16.978,lexical_decision_task_MP_exp2,2020.2.5,Win32,60,,z,1,0.535,,,,,,,,0.535,1,,,,,,346,NW,"ID",33,saudic,SAUDIC,z,,,,,,-0.011111111,-0.422222222,0,0,0,,0,360,360,285,1,
,,,,,,,,,,,,,,,,,,57f697c6733f560001b5898b,2020-11-27_15h01.16.978,lexical_decision_task_MP_exp2,2020.2.5,Win32,60,,m,1,0.568,,,,,,,,0.568,1,,,,,,56,WORD,UN,16,change,AMBUSH,m,,,,,,-0.011111111,-0.422222222,0,0,0,,0,361,361,235,1,
,,,,,,,,,,,,,,,,,,57f697c6733f560001b5898b,2020-11-27_15h01.16.978,lexical_decision_task_MP_exp2,2020.2.5,Win32,60,,m,1,0.615,,,,,,,,0.615,1,,,,,,41,WORD,UN,16,chapel,SPRING,m,,,,,,-0.011111111,-0.422222222,0,0,0,space,0,362,362,220,1,2.549
,,,,,,,,,,,,,,,,,,57f697c6733f560001b5898b,2020-11-27_15h01.16.978,lexical_decision_task_MP_exp2,2020.2.5,Win32,60,,m,1,0.555,,,,,,,,0.555,1,,,,,,179,WORD,"ID",16,basket,BASKET,m,,,,,,-0.011111111,-0.422222222,0,0,0,,0,363,363,118,1,
,,,,,,,,,,,,,,,,,,57f697c6733f560001b5898b,2020-11-27_15h01.16.978,lexical_decision_task_MP_exp2,2020.2.5,Win32,60,,m,1,0.467,,,,,,,,0.467,1,,,,,,238,WORD,UN,33,behalf,FLOWER,m,,,,,,-0.011111111,-0.422222222,0,0,0,,0,364,364,177,1,
,,,,,,,,,,,,,,,,,,57f697c6733f560001b5898b,2020-11-27_15h01.16.978,lexical_decision_task_MP_exp2,2020.2.5,Win32,60,,m,1,0.457,,,,,,,,0.457,1,,,,,,230,WORD,UN,33,mother,FRINGE,m,,,,,,-0.011111111,-0.422222222,0,0,0,,0,365,365,169,1,
,,,,,,,,,,,,,,,,,,57f697c6733f560001b5898b,2020-11-27_15h01.16.978,lexical_decision_task_MP_exp2,2020.2.5,Win32,60,,m,1,0.515,,,,,,,,0.515,1,,,,,,53,WORD,UN,16,ramble,POLICE,m,,,,,,-0.011111111,-0.422222222,0,0,0,,0,366,366,232,1,
,,,,,,,,,,,,,,,,,,57f697c6733f560001b5898b,2020-11-27_15h01.16.978,lexical_decision_task_MP_exp2,2020.2.5,Win32,60,,m,1,0.446,,,,,,,,0.446,1,,,,,,132,WORD,"ID",16,strong,STRONG,m,,,,,,-0.011111111,-0.422222222,0,0,0,,0,367,367,71,1,
,,,,,,,,,,,,,,,,,,57f697c6733f560001b5898b,2020-11-27_15h01.16.978,lexical_decision_task_MP_exp2,2020.2.5,Win32,60,,z,1,0.623,,,,,,,,0.623,1,,,,,,395,NW,"ID",16,colury,COLURY,z,,,,,,-0.011111111,-0.422222222,0,0,0,,0,368,368,334,1,
,,,,,,,,,,,,,,,,,,57f697c6733f560001b5898b,2020-11-27_15h01.16.978,lexical_decision_task_MP_exp2,2020.2.5,Win32,60,,m,1,0.512,,,,,,,,0.512,1,,,,,,92,WORD,"ID",33,strand,STRAND,m,,,,,,-0.011111111,-0.422222222,0,0,0,,0,369,369,31,1,
,,,,,,,,,,,,,,,,,,57f697c6733f560001b5898b,2020-11-27_15h01.16.978,lexical_decision_task_MP_exp2,2020.2.5,Win32,60,,m,1,0.487,,,,,,,,0.487,1,,,,,,71,WORD,"ID",33,garden,GARDEN,m,,,,,,-0.011111111,-0.422222222,0,0,0,,0,370,370,10,1,
,,,,,,,,,,,,,,,,,,57f697c6733f560001b5898b,2020-11-27_15h01.16.978,lexical_decision_task_MP_exp2,2020.2.5,Win32,60,,m,1,0.484,,,,,,,,0.484,1,,,,,,88,WORD,"ID",33,hunger,HUNGER,m,,,,,,-0.011111111,-0.422222222,0,0,0,,0,371,371,27,1,
,,,,,,,,,,,,,,,,,,57f697c6733f560001b5898b,2020-11-27_15h01.16.978,lexical_decision_task_MP_exp2,2020.2.5,Win32,60,,z,1,0.568,,,,,,,,0.568,1,,,,,,304,NW,"ID",33,cludie,CLUDIE,z,,,,,,-0.011111111,-0.422222222,0,0,0,,0,372,372,243,1,
,,,,,,,,,,,,,,,,,,57f697c6733f560001b5898b,2020-11-27_15h01.16.978,lexical_decision_task_MP_exp2,2020.2.5,Win32,60,,m,1,0.507,,,,,,,,0.507,1,,,,,,172,WORD,"ID",16,patrol,PATROL,m,,,,,,-0.011111111,-0.422222222,0,0,0,,0,373,373,111,1,
,,,,,,,,,,,,,,,,,,57f697c6733f560001b5898b,2020-11-27_15h01.16.978,lexical_decision_task_MP_exp2,2020.2.5,Win32,60,,m,1,0.566,,,,,,,,0.566,1,,,,,,106,WORD,"ID",33,ransom,RANSOM,m,,,,,,-0.011111111,-0.422222222,0,0,0,,0,374,374,45,1,
,,,,,,,,,,,,,,,,,,57f697c6733f560001b5898b,2020-11-27_15h01.16.978,lexical_decision_task_MP_exp2,2020.2.5,Win32,60,,m,1,0.591,,,,,,,,0.591,1,,,,,,120,WORD,"ID",33,strain,STRAIN,m,,,,,,-0.011111111,-0.422222222,0,0,0,,0,375,375,59,1,
,,,,,,,,,,,,,,,,,,57f697c6733f560001b5898b,2020-11-27_15h01.16.978,lexical_decision_task_MP_exp2,2020.2.5,Win32,60,,m,1,0.522,,,,,,,,0.522,1,,,,,,68,WORD,"ID",33,fumble,FUMBLE,m,,,,,,-0.011111111,-0.422222222,0,0,0,,0,376,376,7,1,
,,,,,,,,,,,,,,,,,,57f697c6733f560001b5898b,2020-11-27_15h01.16.978,lexical_decision_task_MP_exp2,2020.2.5,Win32,60,,m,1,0.635,,,,,,,,0.635,1,,,,,,66,WORD,"ID",33,gospel,GOSPEL,m,,,,,,-0.011111111,-0.422222222,0,0,0,,0,377,377,5,1,
,,,,,,,,,,,,,,,,,,57f697c6733f560001b5898b,2020-11-27_15h01.16.978,lexical_decision_task_MP_exp2,2020.2.5,Win32,60,,m,1,0.887,,,,,,,,0.887,1,,,,,,131,WORD,"ID",16,quench,QUENCH,m,,,,,,-0.011111111,-0.422222222,0,0,0,,0,378,378,70,1,
,,,,,,,,,,,,,,,,,,57f697c6733f560001b5898b,2020-11-27_15h01.16.978,lexical_decision_task_MP_exp2,2020.2.5,Win32,60,,m,1,0.492,,,,,,,,0.492,1,,,,,,112,WORD,"ID",33,breath,BREATH,m,,,,,,-0.011111111,-0.422222222,0,0,0,,0,379,379,51,1,
,,,,,,,,,,,,,,,,,,57f697c6733f560001b5898b,2020-11-27_15h01.16.978,lexical_decision_task_MP_exp2,2020.2.5,Win32,60,,m,1,0.592,,,,,,,,0.592,1,,,,,,159,WORD,"ID",16,detail,DETAIL,m,,,,,,-0.011111111,-0.422222222,0,0,0,,0,380,380,98,1,
,,,,,,,,,,,,,,,,,,57f697c6733f560001b5898b,2020-11-27_15h01.16.978,lexical_decision_task_MP_exp2,2020.2.5,Win32,60,,m,1,0.533,,,,,,,,0.533,1,,,,,,5,WORD,UN,16,bundle,PLUNGE,m,,,,,,-0.011111111,-0.422222222,0,0,0,,0,381,381,184,1,
,,,,,,,,,,,,,,,,,,57f697c6733f560001b5898b,2020-11-27_15h01.16.978,lexical_decision_task_MP_exp2,2020.2.5,Win32,60,,z,1,0.803,,,,,,,,0.803,1,,,,,,267,NW,UN,16,packes,PASINK,z,,,,,,-0.011111111,-0.422222222,0,0,0,,0,382,382,446,1,
,,,,,,,,,,,,,,,,,,57f697c6733f560001b5898b,2020-11-27_15h01.16.978,lexical_decision_task_MP_exp2,2020.2.5,Win32,60,,z,1,0.569,,,,,,,,0.569,1,,,,,,301,NW,"ID",33,fainch,FAINCH,z,,,,,,-0.011111111,-0.422222222,0,0,0,,0,383,383,240,1,
,,,,,,,,,,,,,,,,,,57f697c6733f560001b5898b,2020-11-27_15h01.16.978,lexical_decision_task_MP_exp2,2020.2.5,Win32,60,,m,1,0.5,,,,,,,,0.5,1,,,,,,135,WORD,"ID",16,import,IMPORT,m,,,,,,-0.011111111,-0.422222222,0,0,0,,0,384,384,74,1,
,,,,,,,,,,,,,,,,,,57f697c6733f560001b5898b,2020-11-27_15h01.16.978,lexical_decision_task_MP_exp2,2020.2.5,Win32,60,,m,1,0.559,,,,,,,,0.559,1,,,,,,169,WORD,"ID",16,genius,GENIUS,m,,,,,,-0.011111111,-0.422222222,0,0,0,,0,385,385,108,1,
,,,,,,,,,,,,,,,,,,57f697c6733f560001b5898b,2020-11-27_15h01.16.978,lexical_decision_task_MP_exp2,2020.2.5,Win32,60,,m,1,0.975,,,,,,,,0.975,1,,,,,,127,WORD,"ID",16,castle,CASTLE,m,,,,,,-0.011111111,-0.422222222,0,0,0,,0,386,386,66,1,
,,,,,,,,,,,,,,,,,,57f697c6733f560001b5898b,2020-11-27_15h01.16.978,lexical_decision_task_MP_exp2,2020.2.5,Win32,60,,z,1,0.577,,,,,,,,0.577,1,,,,,,461,NW,UN,33,absult,JUSTRE,z,,,,,,-0.011111111,-0.422222222,0,0,0,,0,387,387,400,1,
,,,,,,,,,,,,,,,,,,57f697c6733f560001b5898b,2020-11-27_15h01.16.978,lexical_decision_task_MP_exp2,2020.2.5,Win32,60,,m,1,0.518,,,,,,,,0.518,1,,,,,,40,WORD,UN,16,spring,CONVEY,m,,,,,,-0.011111111,-0.422222222,0,0,0,,0,388,388,219,1,
,,,,,,,,,,,,,,,,,,57f697c6733f560001b5898b,2020-11-27_15h01.16.978,lexical_decision_task_MP_exp2,2020.2.5,Win32,60,,m,1,0.45,,,,,,,,0.45,1,,,,,,210,WORD,UN,33,infect,MONKEY,m,,,,,,-0.011111111,-0.422222222,0,0,0,,0,389,389,149,1,
,,,,,,,,,,,,,,,,,,57f697c6733f560001b5898b,2020-11-27_15h01.16.978,lexical_decision_task_MP_exp2,2020.2.5,Win32,60,,m,1,0.486,,,,,,,,0.486,1,,,,,,95,WORD,"ID",33,thread,THREAD,m,,,,,,-0.011111111,-0.422222222,0,0,0,,0,390,390,34,1,
,,,,,,,,,,,,,,,,,,57f697c6733f560001b5898b,2020-11-27_15h01.16.978,lexical_decision_task_MP_exp2,2020.2.5,Win32,60,,m,1,0.487,,,,,,,,0.487,1,,,,,,145,WORD,"ID",16,parish,PARISH,m,,,,,,-0.011111111,-0.422222222,0,0,0,,0,391,391,84,1,
,,,,,,,,,,,,,,,,,,57f697c6733f560001b5898b,2020-11-27_15h01.16.978,lexical_decision_task_MP_exp2,2020.2.5,Win32,60,,m,1,0.485,,,,,,,,0.485,1,,,,,,116,WORD,"ID",33,tumble,TUMBLE,m,,,,,,-0.011111111,-0.422222222,0,0,0,,0,392,392,55,1,
,,,,,,,,,,,,,,,,,,57f697c6733f560001b5898b,2020-11-27_15h01.16.978,lexical_decision_task_MP_exp2,2020.2.5,Win32,60,,m,1,0.451,,,,,,,,0.451,1,,,,,,3,WORD,UN,16,trench,KNIGHT,m,,,,,,-0.011111111,-0.422222222,0,0,0,,0,393,393,182,1,
,,,,,,,,,,,,,,,,,,57f697c6733f560001b5898b,2020-11-27_15h01.16.978,lexical_decision_task_MP_exp2,2020.2.5,Win32,60,,m,1,0.517,,,,,,,,0.517,1,,,,,,156,WORD,"ID",16,cradle,CRADLE,m,,,,,,-0.011111111,-0.422222222,0,0,0,,0,394,394,95,1,
,,,,,,,,,,,,,,,,,,57f697c6733f560001b5898b,2020-11-27_15h01.16.978,lexical_decision_task_MP_exp2,2020.2.5,Win32,60,,z,1,0.601,,,,,,,,0.601,1,,,,,,252,NW,UN,16,resait,STAPOD,z,,,,,,-0.011111111,-0.422222222,0,0,0,,0,395,395,431,1,
,,,,,,,,,,,,,,,,,,57f697c6733f560001b5898b,2020-11-27_15h01.16.978,lexical_decision_task_MP_exp2,2020.2.5,Win32,60,,m,1,0.536,,,,,,,,0.536,1,,,,,,47,WORD,UN,16,walnut,INCOME,m,,,,,,-0.011111111,-0.422222222,0,0,0,,0,396,396,226,1,
,,,,,,,,,,,,,,,,,,57f697c6733f560001b5898b,2020-11-27_15h01.16.978,lexical_decision_task_MP_exp2,2020.2.5,Win32,60,,z,1,0.569,,,,,,,,0.569,1,,,,,,391,NW,"ID",16,theldy,THELDY,z,,,,,,-0.011111111,-0.422222222,0,0,0,,0,397,397,330,1,
,,,,,,,,,,,,,,,,,,57f697c6733f560001b5898b,2020-11-27_15h01.16.978,lexical_decision_task_MP_exp2,2020.2.5,Win32,60,,z,1,0.495,,,,,,,,0.495,1,,,,,,446,NW,UN,33,gircue,RUNAMO,z,,,,,,-0.011111111,-0.422222222,0,0,0,,0,398,398,385,1,
,,,,,,,,,,,,,,,,,,57f697c6733f560001b5898b,2020-11-27_15h01.16.978,lexical_decision_task_MP_exp2,2020.2.5,Win32,60,,m,1,1.068,,,,,,,,1.068,1,,,,,,140,WORD,"ID",16,prince,PRINCE,m,,,,,,-0.011111111,-0.422222222,0,0,0,,0,399,399,79,1,
,,,,,,,,,,,,,,,,,,57f697c6733f560001b5898b,2020-11-27_15h01.16.978,lexical_decision_task_MP_exp2,2020.2.5,Win32,60,,z,1,0.598,,,,,,,,0.598,1,,,,,,276,NW,UN,16,petain,YARMON,z,,,,,,-0.011111111,-0.422222222,0,0,0,,0,400,400,455,1,
