counterbalancing_condition,instr_done_keyboard.keys,instr_done_keyboard.rt,instr_done_touch.x,instr_done_touch.y,instr_done_touch.leftButton,instr_done_touch.midButton,instr_done_touch.rightButton,instruction_pages.thisRepN,instruction_pages.thisTrialN,instruction_pages.thisN,instruction_pages.thisIndex,instruction_pages.ran,pageN,phase,instruct_text,has_image,instruct_image,participant,date,expName,psychopyVersion,OS,frameRate,response.keys,response.corr,response.rt,touch_resp.x,touch_resp.y,touch_resp.leftButton,touch_resp.midButton,touch_resp.rightButton,touch_resp.time,touch_resp.clicked_name,rt,corr,practice_trials.thisRepN,practice_trials.thisTrialN,practice_trials.thisN,practice_trials.thisIndex,practice_trials.ran,TrialID,StimulusType,Condition,PrimeDuration,Prime,Target,corrAns,end_of_practice_trials_pages.thisRepN,end_of_practice_trials_pages.thisTrialN,end_of_practice_trials_pages.thisN,end_of_practice_trials_pages.thisIndex,end_of_practice_trials_pages.ran,break_done_touch.x,break_done_touch.y,break_done_touch.leftButton,break_done_touch.midButton,break_done_touch.rightButton,break_done_keyboard.keys,experiment_trials.thisRepN,experiment_trials.thisTrialN,experiment_trials.thisN,experiment_trials.thisIndex,experiment_trials.ran,break_done_keyboard.rt,break_done_touch.clicked_name
2,space,17.451,-0.722222222,0.491666667,0,0,0,0,0,0,0,1,1,instructions,"INSTRUCTIONS
At the start of each trial, look at the hash marks (######) in the center of the screen. After a moment, a string of letters will appear. Your task is to indicate if the letter string forms a word or not (i.e., if it is a nonword). For example, AUTHOR is a word while AUTHON is a nonword.

Press the space bar or touch the button below to continue.",0,,5a6f1ccade1f390001dbd8b7,2020-11-27_08h03.59.687,lexical_decision_task_MP_exp2,2020.2.5,Win32,60,,,,,,,,,,,,,,,,,,,,,,,,,,,,,,,,,,,,,,,,,,
,space,10.648,-0.722222222,0.491666667,0,0,0,0,1,1,1,1,2,instructions,"If your device has a keyboard, press the 'Z' key for nonwords and the 'M' key for words.





Press the space bar or touch the button below to continue.",1,keyboard-example.gif,5a6f1ccade1f390001dbd8b7,2020-11-27_08h03.59.687,lexical_decision_task_MP_exp2,2020.2.5,Win32,60,,,,,,,,,,,,,,,,,,,,,,,,,,,,,,,,,,,,,,,,,,
,space,7.486,-0.722222222,0.491666667,0,0,0,0,2,2,2,1,3,instructions,"If you are using a touchscreen only device, use the buttons on the screen. Do not use the mouse.





Press the space bar or touch the button below to continue.",1,touchscreen-example.gif,5a6f1ccade1f390001dbd8b7,2020-11-27_08h03.59.687,lexical_decision_task_MP_exp2,2020.2.5,Win32,60,,,,,,,,,,,,,,,,,,,,,,,,,,,,,,,,,,,,,,,,,,
,space,10.039,-0.722222222,0.491666667,0,0,0,0,3,3,3,1,4,instructions,"It is very important that you respond as quickly and accurately as possible, as each letter string will only be on the screen for two seconds. If you do not respond within this time, the message 'Too slow!' will be displayed and the experiment will progress to the next letter string. The first 20 trials will be practice trials and you will receive feedback on your answers. 

Press the space bar or touch the button below to start the practice trials.",0,,5a6f1ccade1f390001dbd8b7,2020-11-27_08h03.59.687,lexical_decision_task_MP_exp2,2020.2.5,Win32,60,,,,,,,,,,,,,,,,,,,,,,,,,,,,,,,,,,,,,,,,,,
,,,,,,,,,,,,,,,,,,5a6f1ccade1f390001dbd8b7,2020-11-27_08h03.59.687,lexical_decision_task_MP_exp2,2020.2.5,Win32,60,m,1,1.551,,,,,,,,1.551,1,0,0,0,6,1,1007,WORD,UN,16,tropic,ZOMBIE,m,,,,,,,,,,,,,,,,,,
,,,,,,,,,,,,,,,,,,5a6f1ccade1f390001dbd8b7,2020-11-27_08h03.59.687,lexical_decision_task_MP_exp2,2020.2.5,Win32,60,z,1,0.846,,,,,,,,0.846,1,0,1,1,12,1,1013,NW,UN,33,adveil,SPRINY,z,,,,,,,,,,,,,,,,,,
,,,,,,,,,,,,,,,,,,5a6f1ccade1f390001dbd8b7,2020-11-27_08h03.59.687,lexical_decision_task_MP_exp2,2020.2.5,Win32,60,z,1,0.765,,,,,,,,0.765,1,0,2,2,15,1,1016,NW,UN,16,mushed,WHAISE,z,,,,,,,,,,,,,,,,,,
,,,,,,,,,,,,,,,,,,5a6f1ccade1f390001dbd8b7,2020-11-27_08h03.59.687,lexical_decision_task_MP_exp2,2020.2.5,Win32,60,z,1,0.745,,,,,,,,0.745,1,0,3,3,8,1,1009,NW,"ID",33,aslert,ASLERT,z,,,,,,,,,,,,,,,,,,
,,,,,,,,,,,,,,,,,,5a6f1ccade1f390001dbd8b7,2020-11-27_08h03.59.687,lexical_decision_task_MP_exp2,2020.2.5,Win32,60,m,1,0.635,,,,,,,,0.635,1,0,4,4,5,1,1006,WORD,UN,33,frenzy,OBTAIN,m,,,,,,,,,,,,,,,,,,
,,,,,,,,,,,,,,,,,,5a6f1ccade1f390001dbd8b7,2020-11-27_08h03.59.687,lexical_decision_task_MP_exp2,2020.2.5,Win32,60,m,1,0.681,,,,,,,,0.681,1,0,5,5,3,1,1004,WORD,"ID",16,matrix,MATRIX,m,,,,,,,,,,,,,,,,,,
,,,,,,,,,,,,,,,,,,5a6f1ccade1f390001dbd8b7,2020-11-27_08h03.59.687,lexical_decision_task_MP_exp2,2020.2.5,Win32,60,m,1,0.719,,,,,,,,0.719,1,0,6,6,4,1,1005,WORD,UN,33,abound,SQUEAK,m,,,,,,,,,,,,,,,,,,
,,,,,,,,,,,,,,,,,,5a6f1ccade1f390001dbd8b7,2020-11-27_08h03.59.687,lexical_decision_task_MP_exp2,2020.2.5,Win32,60,z,1,0.784,,,,,,,,0.784,1,0,7,7,10,1,1011,NW,"ID",16,inlade,INLADE,z,,,,,,,,,,,,,,,,,,
,,,,,,,,,,,,,,,,,,5a6f1ccade1f390001dbd8b7,2020-11-27_08h03.59.687,lexical_decision_task_MP_exp2,2020.2.5,Win32,60,z,1,0.732,,,,,,,,0.732,1,0,8,8,13,1,1014,NW,UN,33,winfer,ROUPET,z,,,,,,,,,,,,,,,,,,
,,,,,,,,,,,,,,,,,,5a6f1ccade1f390001dbd8b7,2020-11-27_08h03.59.687,lexical_decision_task_MP_exp2,2020.2.5,Win32,60,z,1,0.754,,,,,,,,0.754,1,0,9,9,11,1,1012,NW,"ID",16,rashet,RASHET,z,,,,,,,,,,,,,,,,,,
,,,,,,,,,,,,,,,,,,5a6f1ccade1f390001dbd8b7,2020-11-27_08h03.59.687,lexical_decision_task_MP_exp2,2020.2.5,Win32,60,m,1,0.648,,,,,,,,0.648,1,0,10,10,0,1,1001,WORD,"ID",33,utopia,UTOPIA,m,,,,,,,,,,,,,,,,,,
,,,,,,,,,,,,,,,,,,5a6f1ccade1f390001dbd8b7,2020-11-27_08h03.59.687,lexical_decision_task_MP_exp2,2020.2.5,Win32,60,z,1,0.634,,,,,,,,0.634,1,0,11,11,9,1,1010,NW,"ID",33,fariny,FARINY,z,,,,,,,,,,,,,,,,,,
,,,,,,,,,,,,,,,,,,5a6f1ccade1f390001dbd8b7,2020-11-27_08h03.59.687,lexical_decision_task_MP_exp2,2020.2.5,Win32,60,m,1,0.832,,,,,,,,0.832,1,0,12,12,1,1,1002,WORD,"ID",33,adjust,ADJUST,m,,,,,,,,,,,,,,,,,,
,,,,,,,,,,,,,,,,,,5a6f1ccade1f390001dbd8b7,2020-11-27_08h03.59.687,lexical_decision_task_MP_exp2,2020.2.5,Win32,60,m,1,0.664,,,,,,,,0.664,1,0,13,13,2,1,1003,WORD,"ID",16,almond,ALMOND,m,,,,,,,,,,,,,,,,,,
,,,,,,,,,,,,,,,,,,5a6f1ccade1f390001dbd8b7,2020-11-27_08h03.59.687,lexical_decision_task_MP_exp2,2020.2.5,Win32,60,z,1,0.606,,,,,,,,0.606,1,0,14,14,14,1,1015,NW,UN,16,miaber,THRALE,z,,,,,,,,,,,,,,,,,,
,,,,,,,,,,,,,,,,,,5a6f1ccade1f390001dbd8b7,2020-11-27_08h03.59.687,lexical_decision_task_MP_exp2,2020.2.5,Win32,60,m,1,0.585,,,,,,,,0.585,1,0,15,15,7,1,1008,WORD,UN,16,hurdle,VOLUME,m,,,,,,,,,,,,,,,,,,
,space,18.508,-0.722222222,0.491666667,0,0,0,,,,,,1,end_of_practice,"You have completed the practice trials. During the experimental trials, you will not receive feedback, but it is very important that you respond as quickly and accurately as possible. 
Before you begin, please ensure that you are in a comfortable and quiet location and will not be disturbed for about 15 minutes, as we cannot use your data if you do not complete all the trials. 
There will be opportunities to take breaks at regular intervals during the experiment. When you are ready to start the experimental trials, please press space or touch the button below.",,,5a6f1ccade1f390001dbd8b7,2020-11-27_08h03.59.687,lexical_decision_task_MP_exp2,2020.2.5,Win32,60,,,,,,,,,,,,,,,,,,,,,,,,,0,0,0,0,1,,,,,,,,,,,,,
,,,,,,,,,,,,,,,,,,5a6f1ccade1f390001dbd8b7,2020-11-27_08h03.59.687,lexical_decision_task_MP_exp2,2020.2.5,Win32,60,m,1,0.7,,,,,,,,0.7,1,,,,,,48,WORD,UN,16,survey,WALNUT,m,,,,,,-0.722222222,0.491666667,0,0,0,,0,0,0,227,1,,
,,,,,,,,,,,,,,,,,,5a6f1ccade1f390001dbd8b7,2020-11-27_08h03.59.687,lexical_decision_task_MP_exp2,2020.2.5,Win32,60,z,1,0.687,,,,,,,,0.687,1,,,,,,393,NW,"ID",16,ganous,GANOUS,z,,,,,,-0.722222222,0.491666667,0,0,0,,0,1,1,332,1,,
,,,,,,,,,,,,,,,,,,5a6f1ccade1f390001dbd8b7,2020-11-27_08h03.59.687,lexical_decision_task_MP_exp2,2020.2.5,Win32,60,z,1,0.744,,,,,,,,0.744,1,,,,,,413,NW,"ID",16,equats,EQUATS,z,,,,,,-0.722222222,0.491666667,0,0,0,,0,2,2,352,1,,
,,,,,,,,,,,,,,,,,,5a6f1ccade1f390001dbd8b7,2020-11-27_08h03.59.687,lexical_decision_task_MP_exp2,2020.2.5,Win32,60,m,1,0.621,,,,,,,,0.621,1,,,,,,161,WORD,"ID",16,pastor,PASTOR,m,,,,,,-0.722222222,0.491666667,0,0,0,,0,3,3,100,1,,
,,,,,,,,,,,,,,,,,,5a6f1ccade1f390001dbd8b7,2020-11-27_08h03.59.687,lexical_decision_task_MP_exp2,2020.2.5,Win32,60,z,1,0.601,,,,,,,,0.601,1,,,,,,312,NW,"ID",33,nerawl,NERAWL,z,,,,,,-0.722222222,0.491666667,0,0,0,,0,4,4,251,1,,
,,,,,,,,,,,,,,,,,,5a6f1ccade1f390001dbd8b7,2020-11-27_08h03.59.687,lexical_decision_task_MP_exp2,2020.2.5,Win32,60,z,1,0.736,,,,,,,,0.736,1,,,,,,345,NW,"ID",33,absend,ABSEND,z,,,,,,-0.722222222,0.491666667,0,0,0,,0,5,5,284,1,,
,,,,,,,,,,,,,,,,,,5a6f1ccade1f390001dbd8b7,2020-11-27_08h03.59.687,lexical_decision_task_MP_exp2,2020.2.5,Win32,60,m,1,0.607,,,,,,,,0.607,1,,,,,,69,WORD,"ID",33,plenty,PLENTY,m,,,,,,-0.722222222,0.491666667,0,0,0,,0,6,6,8,1,,
,,,,,,,,,,,,,,,,,,5a6f1ccade1f390001dbd8b7,2020-11-27_08h03.59.687,lexical_decision_task_MP_exp2,2020.2.5,Win32,60,z,1,0.872,,,,,,,,0.872,1,,,,,,370,NW,"ID",16,sleact,SLEACT,z,,,,,,-0.722222222,0.491666667,0,0,0,,0,7,7,309,1,,
,,,,,,,,,,,,,,,,,,5a6f1ccade1f390001dbd8b7,2020-11-27_08h03.59.687,lexical_decision_task_MP_exp2,2020.2.5,Win32,60,m,1,0.748,,,,,,,,0.748,1,,,,,,124,WORD,"ID",16,blouse,BLOUSE,m,,,,,,-0.722222222,0.491666667,0,0,0,,0,8,8,63,1,,
,,,,,,,,,,,,,,,,,,5a6f1ccade1f390001dbd8b7,2020-11-27_08h03.59.687,lexical_decision_task_MP_exp2,2020.2.5,Win32,60,z,1,0.773,,,,,,,,0.773,1,,,,,,261,NW,UN,16,quilew,STUNCH,z,,,,,,-0.722222222,0.491666667,0,0,0,,0,9,9,440,1,,
,,,,,,,,,,,,,,,,,,5a6f1ccade1f390001dbd8b7,2020-11-27_08h03.59.687,lexical_decision_task_MP_exp2,2020.2.5,Win32,60,m,1,0.586,,,,,,,,0.586,1,,,,,,140,WORD,"ID",16,prince,PRINCE,m,,,,,,-0.722222222,0.491666667,0,0,0,,0,10,10,79,1,,
,,,,,,,,,,,,,,,,,,5a6f1ccade1f390001dbd8b7,2020-11-27_08h03.59.687,lexical_decision_task_MP_exp2,2020.2.5,Win32,60,m,1,0.582,,,,,,,,0.582,1,,,,,,143,WORD,"ID",16,reason,REASON,m,,,,,,-0.722222222,0.491666667,0,0,0,,0,11,11,82,1,,
,,,,,,,,,,,,,,,,,,5a6f1ccade1f390001dbd8b7,2020-11-27_08h03.59.687,lexical_decision_task_MP_exp2,2020.2.5,Win32,60,z,1,0.64,,,,,,,,0.64,1,,,,,,467,NW,UN,33,wictor,GORBIE,z,,,,,,-0.722222222,0.491666667,0,0,0,,0,12,12,406,1,,
,,,,,,,,,,,,,,,,,,5a6f1ccade1f390001dbd8b7,2020-11-27_08h03.59.687,lexical_decision_task_MP_exp2,2020.2.5,Win32,60,z,1,0.764,,,,,,,,0.764,1,,,,,,398,NW,"ID",16,blunde,BLUNDE,z,,,,,,-0.722222222,0.491666667,0,0,0,,0,13,13,337,1,,
,,,,,,,,,,,,,,,,,,5a6f1ccade1f390001dbd8b7,2020-11-27_08h03.59.687,lexical_decision_task_MP_exp2,2020.2.5,Win32,60,z,1,0.73,,,,,,,,0.73,1,,,,,,316,NW,"ID",33,scregm,SCREGM,z,,,,,,-0.722222222,0.491666667,0,0,0,,0,14,14,255,1,,
,,,,,,,,,,,,,,,,,,5a6f1ccade1f390001dbd8b7,2020-11-27_08h03.59.687,lexical_decision_task_MP_exp2,2020.2.5,Win32,60,m,1,0.554,,,,,,,,0.554,1,,,,,,138,WORD,"ID",16,melody,MELODY,m,,,,,,-0.722222222,0.491666667,0,0,0,,0,15,15,77,1,,
,,,,,,,,,,,,,,,,,,5a6f1ccade1f390001dbd8b7,2020-11-27_08h03.59.687,lexical_decision_task_MP_exp2,2020.2.5,Win32,60,m,1,0.754,,,,,,,,0.754,1,,,,,,62,WORD,"ID",33,region,REGION,m,,,,,,-0.722222222,0.491666667,0,0,0,,0,16,16,1,1,,
,,,,,,,,,,,,,,,,,,5a6f1ccade1f390001dbd8b7,2020-11-27_08h03.59.687,lexical_decision_task_MP_exp2,2020.2.5,Win32,60,z,1,0.716,,,,,,,,0.716,1,,,,,,378,NW,"ID",16,shrile,SHRILE,z,,,,,,-0.722222222,0.491666667,0,0,0,,0,17,17,317,1,,
,,,,,,,,,,,,,,,,,,5a6f1ccade1f390001dbd8b7,2020-11-27_08h03.59.687,lexical_decision_task_MP_exp2,2020.2.5,Win32,60,z,1,0.926,,,,,,,,0.926,1,,,,,,424,NW,UN,33,frudge,PRAILE,z,,,,,,-0.722222222,0.491666667,0,0,0,,0,18,18,363,1,,
,,,,,,,,,,,,,,,,,,5a6f1ccade1f390001dbd8b7,2020-11-27_08h03.59.687,lexical_decision_task_MP_exp2,2020.2.5,Win32,60,z,1,0.796,,,,,,,,0.796,1,,,,,,257,NW,UN,16,poluth,VENIOD,z,,,,,,-0.722222222,0.491666667,0,0,0,,0,19,19,436,1,,
,,,,,,,,,,,,,,,,,,5a6f1ccade1f390001dbd8b7,2020-11-27_08h03.59.687,lexical_decision_task_MP_exp2,2020.2.5,Win32,60,m,1,0.654,,,,,,,,0.654,1,,,,,,189,WORD,UN,33,backup,CENSOR,m,,,,,,-0.722222222,0.491666667,0,0,0,,0,20,20,128,1,,
,,,,,,,,,,,,,,,,,,5a6f1ccade1f390001dbd8b7,2020-11-27_08h03.59.687,lexical_decision_task_MP_exp2,2020.2.5,Win32,60,z,1,0.782,,,,,,,,0.782,1,,,,,,427,NW,UN,33,tandly,SCHIND,z,,,,,,-0.722222222,0.491666667,0,0,0,,0,21,21,366,1,,
,,,,,,,,,,,,,,,,,,5a6f1ccade1f390001dbd8b7,2020-11-27_08h03.59.687,lexical_decision_task_MP_exp2,2020.2.5,Win32,60,z,1,0.852,,,,,,,,0.852,1,,,,,,358,NW,"ID",33,fleack,FLEACK,z,,,,,,-0.722222222,0.491666667,0,0,0,,0,22,22,297,1,,
,,,,,,,,,,,,,,,,,,5a6f1ccade1f390001dbd8b7,2020-11-27_08h03.59.687,lexical_decision_task_MP_exp2,2020.2.5,Win32,60,z,1,0.816,,,,,,,,0.816,1,,,,,,445,NW,UN,33,runamo,MINKEL,z,,,,,,-0.722222222,0.491666667,0,0,0,,0,23,23,384,1,,
,,,,,,,,,,,,,,,,,,5a6f1ccade1f390001dbd8b7,2020-11-27_08h03.59.687,lexical_decision_task_MP_exp2,2020.2.5,Win32,60,m,1,0.566,,,,,,,,0.566,1,,,,,,58,WORD,UN,16,splint,FOSTER,m,,,,,,-0.722222222,0.491666667,0,0,0,,0,24,24,237,1,,
,,,,,,,,,,,,,,,,,,5a6f1ccade1f390001dbd8b7,2020-11-27_08h03.59.687,lexical_decision_task_MP_exp2,2020.2.5,Win32,60,z,1,0.84,,,,,,,,0.84,1,,,,,,436,NW,UN,33,snapel,FRUTAN,z,,,,,,-0.722222222,0.491666667,0,0,0,,0,25,25,375,1,,
,,,,,,,,,,,,,,,,,,5a6f1ccade1f390001dbd8b7,2020-11-27_08h03.59.687,lexical_decision_task_MP_exp2,2020.2.5,Win32,60,z,1,0.668,,,,,,,,0.668,1,,,,,,263,NW,UN,16,vackel,DOLICA,z,,,,,,-0.722222222,0.491666667,0,0,0,,0,26,26,442,1,,
,,,,,,,,,,,,,,,,,,5a6f1ccade1f390001dbd8b7,2020-11-27_08h03.59.687,lexical_decision_task_MP_exp2,2020.2.5,Win32,60,m,1,0.595,,,,,,,,0.595,1,,,,,,168,WORD,"ID",16,answer,ANSWER,m,,,,,,-0.722222222,0.491666667,0,0,0,,0,27,27,107,1,,
,,,,,,,,,,,,,,,,,,5a6f1ccade1f390001dbd8b7,2020-11-27_08h03.59.687,lexical_decision_task_MP_exp2,2020.2.5,Win32,60,z,1,0.689,,,,,,,,0.689,1,,,,,,244,NW,UN,16,anougs,EATRIC,z,,,,,,-0.722222222,0.491666667,0,0,0,,0,28,28,423,1,,
,,,,,,,,,,,,,,,,,,5a6f1ccade1f390001dbd8b7,2020-11-27_08h03.59.687,lexical_decision_task_MP_exp2,2020.2.5,Win32,60,z,1,0.736,,,,,,,,0.736,1,,,,,,384,NW,"ID",16,guesco,GUESCO,z,,,,,,-0.722222222,0.491666667,0,0,0,,0,29,29,323,1,,
,,,,,,,,,,,,,,,,,,5a6f1ccade1f390001dbd8b7,2020-11-27_08h03.59.687,lexical_decision_task_MP_exp2,2020.2.5,Win32,60,z,1,0.646,,,,,,,,0.646,1,,,,,,241,NW,UN,16,unwert,SMENCO,z,,,,,,-0.722222222,0.491666667,0,0,0,,0,30,30,420,1,,
,,,,,,,,,,,,,,,,,,5a6f1ccade1f390001dbd8b7,2020-11-27_08h03.59.687,lexical_decision_task_MP_exp2,2020.2.5,Win32,60,z,1,0.662,,,,,,,,0.662,1,,,,,,420,NW,"ID",16,gushop,GUSHOP,z,,,,,,-0.722222222,0.491666667,0,0,0,,0,31,31,359,1,,
,,,,,,,,,,,,,,,,,,5a6f1ccade1f390001dbd8b7,2020-11-27_08h03.59.687,lexical_decision_task_MP_exp2,2020.2.5,Win32,60,m,1,0.601,,,,,,,,0.601,1,,,,,,67,WORD,"ID",33,policy,POLICY,m,,,,,,-0.722222222,0.491666667,0,0,0,,0,32,32,6,1,,
,,,,,,,,,,,,,,,,,,5a6f1ccade1f390001dbd8b7,2020-11-27_08h03.59.687,lexical_decision_task_MP_exp2,2020.2.5,Win32,60,m,1,0.607,,,,,,,,0.607,1,,,,,,63,WORD,"ID",33,launch,LAUNCH,m,,,,,,-0.722222222,0.491666667,0,0,0,,0,33,33,2,1,,
,,,,,,,,,,,,,,,,,,5a6f1ccade1f390001dbd8b7,2020-11-27_08h03.59.687,lexical_decision_task_MP_exp2,2020.2.5,Win32,60,z,1,0.691,,,,,,,,0.691,1,,,,,,376,NW,"ID",16,iguare,IGUARE,z,,,,,,-0.722222222,0.491666667,0,0,0,,0,34,34,315,1,,
,,,,,,,,,,,,,,,,,,5a6f1ccade1f390001dbd8b7,2020-11-27_08h03.59.687,lexical_decision_task_MP_exp2,2020.2.5,Win32,60,m,1,0.539,,,,,,,,0.539,1,,,,,,105,WORD,"ID",33,number,NUMBER,m,,,,,,-0.722222222,0.491666667,0,0,0,,0,35,35,44,1,,
,,,,,,,,,,,,,,,,,,5a6f1ccade1f390001dbd8b7,2020-11-27_08h03.59.687,lexical_decision_task_MP_exp2,2020.2.5,Win32,60,m,1,0.586,,,,,,,,0.586,1,,,,,,128,WORD,"ID",16,senior,SENIOR,m,,,,,,-0.722222222,0.491666667,0,0,0,,0,36,36,67,1,,
,,,,,,,,,,,,,,,,,,5a6f1ccade1f390001dbd8b7,2020-11-27_08h03.59.687,lexical_decision_task_MP_exp2,2020.2.5,Win32,60,z,1,0.71,,,,,,,,0.71,1,,,,,,250,NW,UN,16,lupict,MILTED,z,,,,,,-0.722222222,0.491666667,0,0,0,,0,37,37,429,1,,
,,,,,,,,,,,,,,,,,,5a6f1ccade1f390001dbd8b7,2020-11-27_08h03.59.687,lexical_decision_task_MP_exp2,2020.2.5,Win32,60,m,1,0.817,,,,,,,,0.817,1,,,,,,52,WORD,UN,16,police,IMPOSE,m,,,,,,-0.722222222,0.491666667,0,0,0,,0,38,38,231,1,,
,,,,,,,,,,,,,,,,,,5a6f1ccade1f390001dbd8b7,2020-11-27_08h03.59.687,lexical_decision_task_MP_exp2,2020.2.5,Win32,60,m,1,0.754,,,,,,,,0.754,1,,,,,,37,WORD,UN,16,powder,INSULT,m,,,,,,-0.722222222,0.491666667,0,0,0,,0,39,39,216,1,,
,,,,,,,,,,,,,,,,,,5a6f1ccade1f390001dbd8b7,2020-11-27_08h03.59.687,lexical_decision_task_MP_exp2,2020.2.5,Win32,60,m,1,0.88,,,,,,,,0.88,1,,,,,,125,WORD,"ID",16,nickel,NICKEL,m,,,,,,-0.722222222,0.491666667,0,0,0,,0,40,40,64,1,,
,,,,,,,,,,,,,,,,,,5a6f1ccade1f390001dbd8b7,2020-11-27_08h03.59.687,lexical_decision_task_MP_exp2,2020.2.5,Win32,60,m,1,0.655,,,,,,,,0.655,1,,,,,,117,WORD,"ID",33,branch,BRANCH,m,,,,,,-0.722222222,0.491666667,0,0,0,,0,41,41,56,1,,
,,,,,,,,,,,,,,,,,,5a6f1ccade1f390001dbd8b7,2020-11-27_08h03.59.687,lexical_decision_task_MP_exp2,2020.2.5,Win32,60,z,1,0.798,,,,,,,,0.798,1,,,,,,332,NW,"ID",33,vangue,VANGUE,z,,,,,,-0.722222222,0.491666667,0,0,0,,0,42,42,271,1,,
,,,,,,,,,,,,,,,,,,5a6f1ccade1f390001dbd8b7,2020-11-27_08h03.59.687,lexical_decision_task_MP_exp2,2020.2.5,Win32,60,m,1,0.749,,,,,,,,0.749,1,,,,,,166,WORD,"ID",16,starch,STARCH,m,,,,,,-0.722222222,0.491666667,0,0,0,,0,43,43,105,1,,
,,,,,,,,,,,,,,,,,,5a6f1ccade1f390001dbd8b7,2020-11-27_08h03.59.687,lexical_decision_task_MP_exp2,2020.2.5,Win32,60,z,1,0.783,,,,,,,,0.783,1,,,,,,306,NW,"ID",33,sounge,SOUNGE,z,,,,,,-0.722222222,0.491666667,0,0,0,,0,44,44,245,1,,
,,,,,,,,,,,,,,,,,,5a6f1ccade1f390001dbd8b7,2020-11-27_08h03.59.687,lexical_decision_task_MP_exp2,2020.2.5,Win32,60,m,1,0.714,,,,,,,,0.714,1,,,,,,225,WORD,UN,33,casino,VULGAR,m,,,,,,-0.722222222,0.491666667,0,0,0,,0,45,45,164,1,,
,,,,,,,,,,,,,,,,,,5a6f1ccade1f390001dbd8b7,2020-11-27_08h03.59.687,lexical_decision_task_MP_exp2,2020.2.5,Win32,60,z,1,0.728,,,,,,,,0.728,1,,,,,,267,NW,UN,16,packes,PASINK,z,,,,,,-0.722222222,0.491666667,0,0,0,,0,46,46,446,1,,
,,,,,,,,,,,,,,,,,,5a6f1ccade1f390001dbd8b7,2020-11-27_08h03.59.687,lexical_decision_task_MP_exp2,2020.2.5,Win32,60,z,1,0.7,,,,,,,,0.7,1,,,,,,479,NW,UN,33,crible,LOBUSH,z,,,,,,-0.722222222,0.491666667,0,0,0,,0,47,47,418,1,,
,,,,,,,,,,,,,,,,,,5a6f1ccade1f390001dbd8b7,2020-11-27_08h03.59.687,lexical_decision_task_MP_exp2,2020.2.5,Win32,60,m,1,0.738,,,,,,,,0.738,1,,,,,,170,WORD,"ID",16,pounce,POUNCE,m,,,,,,-0.722222222,0.491666667,0,0,0,,0,48,48,109,1,,
,,,,,,,,,,,,,,,,,,5a6f1ccade1f390001dbd8b7,2020-11-27_08h03.59.687,lexical_decision_task_MP_exp2,2020.2.5,Win32,60,m,1,0.656,,,,,,,,0.656,1,,,,,,45,WORD,UN,16,single,CLERGY,m,,,,,,-0.722222222,0.491666667,0,0,0,,0,49,49,224,1,,
,,,,,,,,,,,,,,,,,,5a6f1ccade1f390001dbd8b7,2020-11-27_08h03.59.687,lexical_decision_task_MP_exp2,2020.2.5,Win32,60,z,1,0.645,,,,,,,,0.645,1,,,,,,281,NW,UN,16,porlex,MELATY,z,,,,,,-0.722222222,0.491666667,0,0,0,,0,50,50,460,1,,
,,,,,,,,,,,,,,,,,,5a6f1ccade1f390001dbd8b7,2020-11-27_08h03.59.687,lexical_decision_task_MP_exp2,2020.2.5,Win32,60,m,1,0.764,,,,,,,,0.764,1,,,,,,26,WORD,UN,16,butler,SPRINT,m,,,,,,-0.722222222,0.491666667,0,0,0,,0,51,51,205,1,,
,,,,,,,,,,,,,,,,,,5a6f1ccade1f390001dbd8b7,2020-11-27_08h03.59.687,lexical_decision_task_MP_exp2,2020.2.5,Win32,60,m,1,0.658,,,,,,,,0.658,1,,,,,,208,WORD,UN,33,search,HOCKEY,m,,,,,,-0.722222222,0.491666667,0,0,0,,0,52,52,147,1,,
,,,,,,,,,,,,,,,,,,5a6f1ccade1f390001dbd8b7,2020-11-27_08h03.59.687,lexical_decision_task_MP_exp2,2020.2.5,Win32,60,z,1,0.573,,,,,,,,0.573,1,,,,,,300,NW,UN,16,smenco,YARION,z,,,,,,-0.722222222,0.491666667,0,0,0,,0,53,53,479,1,,
,,,,,,,,,,,,,,,,,,5a6f1ccade1f390001dbd8b7,2020-11-27_08h03.59.687,lexical_decision_task_MP_exp2,2020.2.5,Win32,60,z,0,0.778,,,,,,,,0.778,0,,,,,,206,WORD,UN,33,wreath,TAILOR,m,,,,,,-0.722222222,0.491666667,0,0,0,,0,54,54,145,1,,
,,,,,,,,,,,,,,,,,,5a6f1ccade1f390001dbd8b7,2020-11-27_08h03.59.687,lexical_decision_task_MP_exp2,2020.2.5,Win32,60,m,1,0.719,,,,,,,,0.719,1,,,,,,155,WORD,"ID",16,lizard,LIZARD,m,,,,,,-0.722222222,0.491666667,0,0,0,,0,55,55,94,1,,
,,,,,,,,,,,,,,,,,,5a6f1ccade1f390001dbd8b7,2020-11-27_08h03.59.687,lexical_decision_task_MP_exp2,2020.2.5,Win32,60,m,1,0.712,,,,,,,,0.712,1,,,,,,66,WORD,"ID",33,gospel,GOSPEL,m,,,,,,-0.722222222,0.491666667,0,0,0,,0,56,56,5,1,,
,,,,,,,,,,,,,,,,,,5a6f1ccade1f390001dbd8b7,2020-11-27_08h03.59.687,lexical_decision_task_MP_exp2,2020.2.5,Win32,60,z,1,0.927,,,,,,,,0.927,1,,,,,,383,NW,"ID",16,aungre,AUNGRE,z,,,,,,-0.722222222,0.491666667,0,0,0,,0,57,57,322,1,,
,,,,,,,,,,,,,,,,,,5a6f1ccade1f390001dbd8b7,2020-11-27_08h03.59.687,lexical_decision_task_MP_exp2,2020.2.5,Win32,60,z,1,0.842,,,,,,,,0.842,1,,,,,,392,NW,"ID",16,rouncy,ROUNCY,z,,,,,,-0.722222222,0.491666667,0,0,0,,0,58,58,331,1,,
,,,,,,,,,,,,,,,,,,5a6f1ccade1f390001dbd8b7,2020-11-27_08h03.59.687,lexical_decision_task_MP_exp2,2020.2.5,Win32,60,m,1,0.668,,,,,,,,0.668,1,,,,,,221,WORD,UN,33,hinder,MASCOT,m,,,,,,-0.722222222,0.491666667,0,0,0,,0,59,59,160,1,,
,,,,,,,,,,,,,,,,,,5a6f1ccade1f390001dbd8b7,2020-11-27_08h03.59.687,lexical_decision_task_MP_exp2,2020.2.5,Win32,60,m,1,0.764,,,,,,,,0.764,1,,,,,,186,WORD,UN,33,course,PORTAL,m,,,,,,-0.722222222,0.491666667,0,0,0,,0,60,60,125,1,,
,,,,,,,,,,,,,,,,,,5a6f1ccade1f390001dbd8b7,2020-11-27_08h03.59.687,lexical_decision_task_MP_exp2,2020.2.5,Win32,60,z,1,0.842,,,,,,,,0.842,1,,,,,,290,NW,UN,16,pretch,SPLINO,z,,,,,,-0.722222222,0.491666667,0,0,0,,0,61,61,469,1,,
,,,,,,,,,,,,,,,,,,5a6f1ccade1f390001dbd8b7,2020-11-27_08h03.59.687,lexical_decision_task_MP_exp2,2020.2.5,Win32,60,m,1,0.748,,,,,,,,0.748,1,,,,,,64,WORD,"ID",33,throne,THRONE,m,,,,,,-0.722222222,0.491666667,0,0,0,,0,62,62,3,1,,
,,,,,,,,,,,,,,,,,,5a6f1ccade1f390001dbd8b7,2020-11-27_08h03.59.687,lexical_decision_task_MP_exp2,2020.2.5,Win32,60,z,1,0.721,,,,,,,,0.721,1,,,,,,408,NW,"ID",16,hurnia,HURNIA,z,,,,,,-0.722222222,0.491666667,0,0,0,,0,63,63,347,1,,
,,,,,,,,,,,,,,,,,,5a6f1ccade1f390001dbd8b7,2020-11-27_08h03.59.687,lexical_decision_task_MP_exp2,2020.2.5,Win32,60,m,1,0.908,,,,,,,,0.908,1,,,,,,110,WORD,"ID",33,polite,POLITE,m,,,,,,-0.722222222,0.491666667,0,0,0,,0,64,64,49,1,,
,,,,,,,,,,,,,,,,,,5a6f1ccade1f390001dbd8b7,2020-11-27_08h03.59.687,lexical_decision_task_MP_exp2,2020.2.5,Win32,60,z,1,0.907,,,,,,,,0.907,1,,,,,,369,NW,"ID",16,wronch,WRONCH,z,,,,,,-0.722222222,0.491666667,0,0,0,,0,65,65,308,1,,
,,,,,,,,,,,,,,,,,,5a6f1ccade1f390001dbd8b7,2020-11-27_08h03.59.687,lexical_decision_task_MP_exp2,2020.2.5,Win32,60,z,1,0.73,,,,,,,,0.73,1,,,,,,335,NW,"ID",33,desion,DESION,z,,,,,,-0.722222222,0.491666667,0,0,0,,0,66,66,274,1,,
,,,,,,,,,,,,,,,,,,5a6f1ccade1f390001dbd8b7,2020-11-27_08h03.59.687,lexical_decision_task_MP_exp2,2020.2.5,Win32,60,m,1,0.703,,,,,,,,0.703,1,,,,,,107,WORD,"ID",33,slogan,SLOGAN,m,,,,,,-0.722222222,0.491666667,0,0,0,,0,67,67,46,1,,
,,,,,,,,,,,,,,,,,,5a6f1ccade1f390001dbd8b7,2020-11-27_08h03.59.687,lexical_decision_task_MP_exp2,2020.2.5,Win32,60,m,1,0.713,,,,,,,,0.713,1,,,,,,46,WORD,UN,16,income,SINGLE,m,,,,,,-0.722222222,0.491666667,0,0,0,,0,68,68,225,1,,
,,,,,,,,,,,,,,,,,,5a6f1ccade1f390001dbd8b7,2020-11-27_08h03.59.687,lexical_decision_task_MP_exp2,2020.2.5,Win32,60,m,1,0.616,,,,,,,,0.616,1,,,,,,173,WORD,"ID",16,shower,SHOWER,m,,,,,,-0.722222222,0.491666667,0,0,0,,0,69,69,112,1,,
,,,,,,,,,,,,,,,,,,5a6f1ccade1f390001dbd8b7,2020-11-27_08h03.59.687,lexical_decision_task_MP_exp2,2020.2.5,Win32,60,m,1,0.696,,,,,,,,0.696,1,,,,,,192,WORD,UN,33,object,PLAGUE,m,,,,,,-0.722222222,0.491666667,0,0,0,,0,70,70,131,1,,
,,,,,,,,,,,,,,,,,,5a6f1ccade1f390001dbd8b7,2020-11-27_08h03.59.687,lexical_decision_task_MP_exp2,2020.2.5,Win32,60,m,1,0.555,,,,,,,,0.555,1,,,,,,224,WORD,UN,33,vulgar,PERIOD,m,,,,,,-0.722222222,0.491666667,0,0,0,,0,71,71,163,1,,
,,,,,,,,,,,,,,,,,,5a6f1ccade1f390001dbd8b7,2020-11-27_08h03.59.687,lexical_decision_task_MP_exp2,2020.2.5,Win32,60,m,1,0.655,,,,,,,,0.655,1,,,,,,190,WORD,UN,33,stable,BACKUP,m,,,,,,-0.722222222,0.491666667,0,0,0,,0,72,72,129,1,,
,,,,,,,,,,,,,,,,,,5a6f1ccade1f390001dbd8b7,2020-11-27_08h03.59.687,lexical_decision_task_MP_exp2,2020.2.5,Win32,60,z,1,0.675,,,,,,,,0.675,1,,,,,,255,NW,UN,16,inlors,APIGHT,z,,,,,,-0.722222222,0.491666667,0,0,0,,0,73,73,434,1,,
,,,,,,,,,,,,,,,,,,5a6f1ccade1f390001dbd8b7,2020-11-27_08h03.59.687,lexical_decision_task_MP_exp2,2020.2.5,Win32,60,m,1,0.6,,,,,,,,0.6,1,,,,,,81,WORD,"ID",33,friend,FRIEND,m,,,,,,-0.722222222,0.491666667,0,0,0,,0,74,74,20,1,,
,,,,,,,,,,,,,,,,,,5a6f1ccade1f390001dbd8b7,2020-11-27_08h03.59.687,lexical_decision_task_MP_exp2,2020.2.5,Win32,60,m,1,0.71,,,,,,,,0.71,1,,,,,,36,WORD,UN,16,insult,VANISH,m,,,,,,-0.722222222,0.491666667,0,0,0,,0,75,75,215,1,,
,,,,,,,,,,,,,,,,,,5a6f1ccade1f390001dbd8b7,2020-11-27_08h03.59.687,lexical_decision_task_MP_exp2,2020.2.5,Win32,60,m,1,0.752,,,,,,,,0.752,1,,,,,,201,WORD,UN,33,factor,ADMIRE,m,,,,,,-0.722222222,0.491666667,0,0,0,,0,76,76,140,1,,
,,,,,,,,,,,,,,,,,,5a6f1ccade1f390001dbd8b7,2020-11-27_08h03.59.687,lexical_decision_task_MP_exp2,2020.2.5,Win32,60,m,1,0.91,,,,,,,,0.91,1,,,,,,96,WORD,"ID",33,ignore,IGNORE,m,,,,,,-0.722222222,0.491666667,0,0,0,,0,77,77,35,1,,
,,,,,,,,,,,,,,,,,,5a6f1ccade1f390001dbd8b7,2020-11-27_08h03.59.687,lexical_decision_task_MP_exp2,2020.2.5,Win32,60,z,1,1.455,,,,,,,,1.455,1,,,,,,399,NW,"ID",16,fouret,FOURET,z,,,,,,-0.722222222,0.491666667,0,0,0,,0,78,78,338,1,,
,,,,,,,,,,,,,,,,,,5a6f1ccade1f390001dbd8b7,2020-11-27_08h03.59.687,lexical_decision_task_MP_exp2,2020.2.5,Win32,60,z,1,1.6,,,,,,,,1.6,1,,,,,,425,NW,UN,33,urivel,FRUDGE,z,,,,,,-0.722222222,0.491666667,0,0,0,,0,79,79,364,1,,
,,,,,,,,,,,,,,,,,,5a6f1ccade1f390001dbd8b7,2020-11-27_08h03.59.687,lexical_decision_task_MP_exp2,2020.2.5,Win32,60,z,1,0.744,,,,,,,,0.744,1,,,,,,455,NW,UN,33,broget,TONDLE,z,,,,,,-0.722222222,0.491666667,0,0,0,,0,80,80,394,1,,
,,,,,,,,,,,,,,,,,,5a6f1ccade1f390001dbd8b7,2020-11-27_08h03.59.687,lexical_decision_task_MP_exp2,2020.2.5,Win32,60,m,1,0.553,,,,,,,,0.553,1,,,,,,174,WORD,"ID",16,turkey,TURKEY,m,,,,,,-0.722222222,0.491666667,0,0,0,,0,81,81,113,1,,
,,,,,,,,,,,,,,,,,,5a6f1ccade1f390001dbd8b7,2020-11-27_08h03.59.687,lexical_decision_task_MP_exp2,2020.2.5,Win32,60,z,1,0.789,,,,,,,,0.789,1,,,,,,417,NW,"ID",16,earoud,EAROUD,z,,,,,,-0.722222222,0.491666667,0,0,0,,0,82,82,356,1,,
,,,,,,,,,,,,,,,,,,5a6f1ccade1f390001dbd8b7,2020-11-27_08h03.59.687,lexical_decision_task_MP_exp2,2020.2.5,Win32,60,m,1,0.671,,,,,,,,0.671,1,,,,,,146,WORD,"ID",16,couple,COUPLE,m,,,,,,-0.722222222,0.491666667,0,0,0,,0,83,83,85,1,,
,,,,,,,,,,,,,,,,,,5a6f1ccade1f390001dbd8b7,2020-11-27_08h03.59.687,lexical_decision_task_MP_exp2,2020.2.5,Win32,60,m,1,0.572,,,,,,,,0.572,1,,,,,,231,WORD,UN,33,inject,EXPORT,m,,,,,,-0.722222222,0.491666667,0,0,0,,0,84,84,170,1,,
,,,,,,,,,,,,,,,,,,5a6f1ccade1f390001dbd8b7,2020-11-27_08h03.59.687,lexical_decision_task_MP_exp2,2020.2.5,Win32,60,m,1,0.853,,,,,,,,0.853,1,,,,,,22,WORD,UN,16,wealth,JOCKEY,m,,,,,,-0.722222222,0.491666667,0,0,0,,0,85,85,201,1,,
,,,,,,,,,,,,,,,,,,5a6f1ccade1f390001dbd8b7,2020-11-27_08h03.59.687,lexical_decision_task_MP_exp2,2020.2.5,Win32,60,z,1,0.915,,,,,,,,0.915,1,,,,,,307,NW,"ID",33,kirafe,KIRAFE,z,,,,,,-0.722222222,0.491666667,0,0,0,,0,86,86,246,1,,
,,,,,,,,,,,,,,,,,,5a6f1ccade1f390001dbd8b7,2020-11-27_08h03.59.687,lexical_decision_task_MP_exp2,2020.2.5,Win32,60,z,1,0.846,,,,,,,,0.846,1,,,,,,390,NW,"ID",16,hatrus,HATRUS,z,,,,,,-0.722222222,0.491666667,0,0,0,,0,87,87,329,1,,
,,,,,,,,,,,,,,,,,,5a6f1ccade1f390001dbd8b7,2020-11-27_08h03.59.687,lexical_decision_task_MP_exp2,2020.2.5,Win32,60,m,1,0.571,,,,,,,,0.571,1,,,,,,223,WORD,UN,33,period,KIDNEY,m,,,,,,-0.722222222,0.491666667,0,0,0,,0,88,88,162,1,,
,,,,,,,,,,,,,,,,,,5a6f1ccade1f390001dbd8b7,2020-11-27_08h03.59.687,lexical_decision_task_MP_exp2,2020.2.5,Win32,60,z,1,0.86,,,,,,,,0.86,1,,,,,,373,NW,"ID",16,bigent,BIGENT,z,,,,,,-0.722222222,0.491666667,0,0,0,,0,89,89,312,1,,
,,,,,,,,,,,,,,,,,,5a6f1ccade1f390001dbd8b7,2020-11-27_08h03.59.687,lexical_decision_task_MP_exp2,2020.2.5,Win32,60,m,1,0.582,,,,,,,,0.582,1,,,,,,184,WORD,UN,33,bother,SLEAZY,m,,,,,,-0.722222222,0.491666667,0,0,0,,0,90,90,123,1,,
,,,,,,,,,,,,,,,,,,5a6f1ccade1f390001dbd8b7,2020-11-27_08h03.59.687,lexical_decision_task_MP_exp2,2020.2.5,Win32,60,z,1,0.904,,,,,,,,0.904,1,,,,,,331,NW,"ID",33,gilfew,GILFEW,z,,,,,,-0.722222222,0.491666667,0,0,0,,0,91,91,270,1,,
,,,,,,,,,,,,,,,,,,5a6f1ccade1f390001dbd8b7,2020-11-27_08h03.59.687,lexical_decision_task_MP_exp2,2020.2.5,Win32,60,m,1,0.601,,,,,,,,0.601,1,,,,,,133,WORD,"ID",16,chrome,CHROME,m,,,,,,-0.722222222,0.491666667,0,0,0,,0,92,92,72,1,,
,,,,,,,,,,,,,,,,,,5a6f1ccade1f390001dbd8b7,2020-11-27_08h03.59.687,lexical_decision_task_MP_exp2,2020.2.5,Win32,60,m,1,0.654,,,,,,,,0.654,1,,,,,,202,WORD,UN,33,phrase,FACTOR,m,,,,,,-0.722222222,0.491666667,0,0,0,,0,93,93,141,1,,
,,,,,,,,,,,,,,,,,,5a6f1ccade1f390001dbd8b7,2020-11-27_08h03.59.687,lexical_decision_task_MP_exp2,2020.2.5,Win32,60,z,1,0.713,,,,,,,,0.713,1,,,,,,459,NW,UN,33,mingar,BAFENT,z,,,,,,-0.722222222,0.491666667,0,0,0,,0,94,94,398,1,,
,,,,,,,,,,,,,,,,,,5a6f1ccade1f390001dbd8b7,2020-11-27_08h03.59.687,lexical_decision_task_MP_exp2,2020.2.5,Win32,60,z,1,0.785,,,,,,,,0.785,1,,,,,,308,NW,"ID",33,psetch,PSETCH,z,,,,,,-0.722222222,0.491666667,0,0,0,,0,95,95,247,1,,
,,,,,,,,,,,,,,,,,,5a6f1ccade1f390001dbd8b7,2020-11-27_08h03.59.687,lexical_decision_task_MP_exp2,2020.2.5,Win32,60,z,1,0.7,,,,,,,,0.7,1,,,,,,460,NW,UN,33,justre,MINGAR,z,,,,,,-0.722222222,0.491666667,0,0,0,,0,96,96,399,1,,
,,,,,,,,,,,,,,,,,,5a6f1ccade1f390001dbd8b7,2020-11-27_08h03.59.687,lexical_decision_task_MP_exp2,2020.2.5,Win32,60,m,1,0.568,,,,,,,,0.568,1,,,,,,191,WORD,UN,33,beacon,STABLE,m,,,,,,-0.722222222,0.491666667,0,0,0,,0,97,97,130,1,,
,,,,,,,,,,,,,,,,,,5a6f1ccade1f390001dbd8b7,2020-11-27_08h03.59.687,lexical_decision_task_MP_exp2,2020.2.5,Win32,60,z,1,0.718,,,,,,,,0.718,1,,,,,,344,NW,"ID",33,scrily,SCRILY,z,,,,,,-0.722222222,0.491666667,0,0,0,,0,98,98,283,1,,
,,,,,,,,,,,,,,,,,,5a6f1ccade1f390001dbd8b7,2020-11-27_08h03.59.687,lexical_decision_task_MP_exp2,2020.2.5,Win32,60,z,1,0.963,,,,,,,,0.963,1,,,,,,375,NW,"ID",16,yorque,YORQUE,z,,,,,,-0.722222222,0.491666667,0,0,0,,0,99,99,314,1,,
,,,,,,,,,,,,,,,,,,5a6f1ccade1f390001dbd8b7,2020-11-27_08h03.59.687,lexical_decision_task_MP_exp2,2020.2.5,Win32,60,z,1,0.731,,,,,,,,0.731,1,,,,,,403,NW,"ID",16,bruats,BRUATS,z,,,,,,-0.722222222,0.491666667,0,0,0,,0,100,100,342,1,,
,,,,,,,,,,,,,,,,,,5a6f1ccade1f390001dbd8b7,2020-11-27_08h03.59.687,lexical_decision_task_MP_exp2,2020.2.5,Win32,60,m,1,0.7,,,,,,,,0.7,1,,,,,,118,WORD,"ID",33,flight,FLIGHT,m,,,,,,-0.722222222,0.491666667,0,0,0,,0,101,101,57,1,,
,,,,,,,,,,,,,,,,,,5a6f1ccade1f390001dbd8b7,2020-11-27_08h03.59.687,lexical_decision_task_MP_exp2,2020.2.5,Win32,60,m,1,0.625,,,,,,,,0.625,1,,,,,,154,WORD,"ID",16,author,AUTHOR,m,,,,,,-0.722222222,0.491666667,0,0,0,,0,102,102,93,1,,
,,,,,,,,,,,,,,,,,,5a6f1ccade1f390001dbd8b7,2020-11-27_08h03.59.687,lexical_decision_task_MP_exp2,2020.2.5,Win32,60,z,1,0.719,,,,,,,,0.719,1,,,,,,294,NW,UN,16,gleath,INHORT,z,,,,,,-0.722222222,0.491666667,0,0,0,,0,103,103,473,1,,
,,,,,,,,,,,,,,,,,,5a6f1ccade1f390001dbd8b7,2020-11-27_08h03.59.687,lexical_decision_task_MP_exp2,2020.2.5,Win32,60,z,1,0.665,,,,,,,,0.665,1,,,,,,295,NW,UN,16,beinch,GLEATH,z,,,,,,-0.722222222,0.491666667,0,0,0,,0,104,104,474,1,,
,,,,,,,,,,,,,,,,,,5a6f1ccade1f390001dbd8b7,2020-11-27_08h03.59.687,lexical_decision_task_MP_exp2,2020.2.5,Win32,60,z,1,0.603,,,,,,,,0.603,1,,,,,,478,NW,UN,33,pebric,ACRISE,z,,,,,,-0.722222222,0.491666667,0,0,0,,0,105,105,417,1,,
,,,,,,,,,,,,,,,,,,5a6f1ccade1f390001dbd8b7,2020-11-27_08h03.59.687,lexical_decision_task_MP_exp2,2020.2.5,Win32,60,z,1,0.733,,,,,,,,0.733,1,,,,,,406,NW,"ID",16,nouply,NOUPLY,z,,,,,,-0.722222222,0.491666667,0,0,0,,0,106,106,345,1,,
,,,,,,,,,,,,,,,,,,5a6f1ccade1f390001dbd8b7,2020-11-27_08h03.59.687,lexical_decision_task_MP_exp2,2020.2.5,Win32,60,m,1,0.852,,,,,,,,0.852,1,,,,,,203,WORD,UN,33,burden,PHRASE,m,,,,,,-0.722222222,0.491666667,0,0,0,,0,107,107,142,1,,
,,,,,,,,,,,,,,,,,,5a6f1ccade1f390001dbd8b7,2020-11-27_08h03.59.687,lexical_decision_task_MP_exp2,2020.2.5,Win32,60,z,1,0.888,,,,,,,,0.888,1,,,,,,429,NW,UN,33,caroey,FUNTLE,z,,,,,,-0.722222222,0.491666667,0,0,0,,0,108,108,368,1,,
,,,,,,,,,,,,,,,,,,5a6f1ccade1f390001dbd8b7,2020-11-27_08h03.59.687,lexical_decision_task_MP_exp2,2020.2.5,Win32,60,z,1,0.637,,,,,,,,0.637,1,,,,,,293,NW,UN,16,inhort,SWANCE,z,,,,,,-0.722222222,0.491666667,0,0,0,,0,109,109,472,1,,
,,,,,,,,,,,,,,,,,,5a6f1ccade1f390001dbd8b7,2020-11-27_08h03.59.687,lexical_decision_task_MP_exp2,2020.2.5,Win32,60,z,1,0.868,,,,,,,,0.868,1,,,,,,402,NW,"ID",16,syntic,SYNTIC,z,,,,,,-0.722222222,0.491666667,0,0,0,,0,110,110,341,1,,
,,,,,,,,,,,,,,,,,,5a6f1ccade1f390001dbd8b7,2020-11-27_08h03.59.687,lexical_decision_task_MP_exp2,2020.2.5,Win32,60,z,1,0.735,,,,,,,,0.735,1,,,,,,434,NW,UN,33,impurb,PITROM,z,,,,,,-0.722222222,0.491666667,0,0,0,,0,111,111,373,1,,
,,,,,,,,,,,,,,,,,,5a6f1ccade1f390001dbd8b7,2020-11-27_08h03.59.687,lexical_decision_task_MP_exp2,2020.2.5,Win32,60,z,1,0.888,,,,,,,,0.888,1,,,,,,313,NW,"ID",33,paurse,PAURSE,z,,,,,,-0.722222222,0.491666667,0,0,0,,0,112,112,252,1,,
,,,,,,,,,,,,,,,,,,5a6f1ccade1f390001dbd8b7,2020-11-27_08h03.59.687,lexical_decision_task_MP_exp2,2020.2.5,Win32,60,z,1,0.853,,,,,,,,0.853,1,,,,,,339,NW,"ID",33,fachow,FACHOW,z,,,,,,-0.722222222,0.491666667,0,0,0,,0,113,113,278,1,,
,,,,,,,,,,,,,,,,,,5a6f1ccade1f390001dbd8b7,2020-11-27_08h03.59.687,lexical_decision_task_MP_exp2,2020.2.5,Win32,60,m,1,0.661,,,,,,,,0.661,1,,,,,,120,WORD,"ID",33,strain,STRAIN,m,,,,,,-0.722222222,0.491666667,0,0,0,,0,114,114,59,1,,
,,,,,,,,,,,,,,,,,,5a6f1ccade1f390001dbd8b7,2020-11-27_08h03.59.687,lexical_decision_task_MP_exp2,2020.2.5,Win32,60,z,1,0.629,,,,,,,,0.629,1,,,,,,448,NW,UN,33,brunge,SADENT,z,,,,,,-0.722222222,0.491666667,0,0,0,,0,115,115,387,1,,
,,,,,,,,,,,,,,,,,,5a6f1ccade1f390001dbd8b7,2020-11-27_08h03.59.687,lexical_decision_task_MP_exp2,2020.2.5,Win32,60,m,1,0.601,,,,,,,,0.601,1,,,,,,1,WORD,UN,16,ethnic,FRIGHT,m,,,,,,-0.722222222,0.491666667,0,0,0,,0,116,116,180,1,,
,,,,,,,,,,,,,,,,,,5a6f1ccade1f390001dbd8b7,2020-11-27_08h03.59.687,lexical_decision_task_MP_exp2,2020.2.5,Win32,60,m,1,0.898,,,,,,,,0.898,1,,,,,,16,WORD,UN,16,charge,FAUCET,m,,,,,,-0.722222222,0.491666667,0,0,0,,0,117,117,195,1,,
,,,,,,,,,,,,,,,,,,5a6f1ccade1f390001dbd8b7,2020-11-27_08h03.59.687,lexical_decision_task_MP_exp2,2020.2.5,Win32,60,m,1,0.568,,,,,,,,0.568,1,,,,,,123,WORD,"ID",16,strike,STRIKE,m,,,,,,-0.722222222,0.491666667,0,0,0,,0,118,118,62,1,,
,,,,,,,,,,,,,,,,,,5a6f1ccade1f390001dbd8b7,2020-11-27_08h03.59.687,lexical_decision_task_MP_exp2,2020.2.5,Win32,60,z,1,0.605,,,,,,,,0.605,1,,,,,,449,NW,UN,33,phrect,BRUNGE,z,,,,,,-0.722222222,0.491666667,0,0,0,,0,119,119,388,1,,
,,,,,,,,,,,,,,,,,,5a6f1ccade1f390001dbd8b7,2020-11-27_08h03.59.687,lexical_decision_task_MP_exp2,2020.2.5,Win32,60,m,1,0.659,,,,,,,,0.659,1,,,,,,145,WORD,"ID",16,parish,PARISH,m,,,,,,-0.722222222,0.491666667,0,0,0,space,0,120,120,84,1,17.095,
,,,,,,,,,,,,,,,,,,5a6f1ccade1f390001dbd8b7,2020-11-27_08h03.59.687,lexical_decision_task_MP_exp2,2020.2.5,Win32,60,z,1,0.705,,,,,,,,0.705,1,,,,,,268,NW,UN,16,orchet,PACKES,z,,,,,,-0.722222222,0.491666667,0,0,0,,0,121,121,447,1,,
,,,,,,,,,,,,,,,,,,5a6f1ccade1f390001dbd8b7,2020-11-27_08h03.59.687,lexical_decision_task_MP_exp2,2020.2.5,Win32,60,z,1,0.653,,,,,,,,0.653,1,,,,,,422,NW,UN,33,streld,ALCOUD,z,,,,,,-0.722222222,0.491666667,0,0,0,,0,122,122,361,1,,
,,,,,,,,,,,,,,,,,,5a6f1ccade1f390001dbd8b7,2020-11-27_08h03.59.687,lexical_decision_task_MP_exp2,2020.2.5,Win32,60,z,1,0.582,,,,,,,,0.582,1,,,,,,404,NW,"ID",16,cluirm,CLUIRM,z,,,,,,-0.722222222,0.491666667,0,0,0,,0,123,123,343,1,,
,,,,,,,,,,,,,,,,,,5a6f1ccade1f390001dbd8b7,2020-11-27_08h03.59.687,lexical_decision_task_MP_exp2,2020.2.5,Win32,60,m,1,0.521,,,,,,,,0.521,1,,,,,,56,WORD,UN,16,change,AMBUSH,m,,,,,,-0.722222222,0.491666667,0,0,0,,0,124,124,235,1,,
,,,,,,,,,,,,,,,,,,5a6f1ccade1f390001dbd8b7,2020-11-27_08h03.59.687,lexical_decision_task_MP_exp2,2020.2.5,Win32,60,m,1,0.692,,,,,,,,0.692,1,,,,,,106,WORD,"ID",33,ransom,RANSOM,m,,,,,,-0.722222222,0.491666667,0,0,0,,0,125,125,45,1,,
,,,,,,,,,,,,,,,,,,5a6f1ccade1f390001dbd8b7,2020-11-27_08h03.59.687,lexical_decision_task_MP_exp2,2020.2.5,Win32,60,m,1,0.572,,,,,,,,0.572,1,,,,,,95,WORD,"ID",33,thread,THREAD,m,,,,,,-0.722222222,0.491666667,0,0,0,,0,126,126,34,1,,
,,,,,,,,,,,,,,,,,,5a6f1ccade1f390001dbd8b7,2020-11-27_08h03.59.687,lexical_decision_task_MP_exp2,2020.2.5,Win32,60,m,1,0.602,,,,,,,,0.602,1,,,,,,108,WORD,"ID",33,reckon,RECKON,m,,,,,,-0.722222222,0.491666667,0,0,0,,0,127,127,47,1,,
,,,,,,,,,,,,,,,,,,5a6f1ccade1f390001dbd8b7,2020-11-27_08h03.59.687,lexical_decision_task_MP_exp2,2020.2.5,Win32,60,m,1,0.651,,,,,,,,0.651,1,,,,,,167,WORD,"ID",16,design,DESIGN,m,,,,,,-0.722222222,0.491666667,0,0,0,,0,128,128,106,1,,
,,,,,,,,,,,,,,,,,,5a6f1ccade1f390001dbd8b7,2020-11-27_08h03.59.687,lexical_decision_task_MP_exp2,2020.2.5,Win32,60,z,1,0.643,,,,,,,,0.643,1,,,,,,475,NW,UN,33,josted,PEBRIC,z,,,,,,-0.722222222,0.491666667,0,0,0,,0,129,129,414,1,,
,,,,,,,,,,,,,,,,,,5a6f1ccade1f390001dbd8b7,2020-11-27_08h03.59.687,lexical_decision_task_MP_exp2,2020.2.5,Win32,60,z,1,0.722,,,,,,,,0.722,1,,,,,,243,NW,UN,16,eatric,MUSIED,z,,,,,,-0.722222222,0.491666667,0,0,0,,0,130,130,422,1,,
,,,,,,,,,,,,,,,,,,5a6f1ccade1f390001dbd8b7,2020-11-27_08h03.59.687,lexical_decision_task_MP_exp2,2020.2.5,Win32,60,m,1,0.646,,,,,,,,0.646,1,,,,,,187,WORD,UN,33,social,COURSE,m,,,,,,-0.722222222,0.491666667,0,0,0,,0,131,131,126,1,,
,,,,,,,,,,,,,,,,,,5a6f1ccade1f390001dbd8b7,2020-11-27_08h03.59.687,lexical_decision_task_MP_exp2,2020.2.5,Win32,60,z,1,0.935,,,,,,,,0.935,1,,,,,,252,NW,UN,16,resait,STAPOD,z,,,,,,-0.722222222,0.491666667,0,0,0,,0,132,132,431,1,,
,,,,,,,,,,,,,,,,,,5a6f1ccade1f390001dbd8b7,2020-11-27_08h03.59.687,lexical_decision_task_MP_exp2,2020.2.5,Win32,60,m,1,0.656,,,,,,,,0.656,1,,,,,,99,WORD,"ID",33,fluent,FLUENT,m,,,,,,-0.722222222,0.491666667,0,0,0,,0,133,133,38,1,,
,,,,,,,,,,,,,,,,,,5a6f1ccade1f390001dbd8b7,2020-11-27_08h03.59.687,lexical_decision_task_MP_exp2,2020.2.5,Win32,60,m,1,0.623,,,,,,,,0.623,1,,,,,,28,WORD,UN,16,sketch,COMEDY,m,,,,,,-0.722222222,0.491666667,0,0,0,,0,134,134,207,1,,
,,,,,,,,,,,,,,,,,,5a6f1ccade1f390001dbd8b7,2020-11-27_08h03.59.687,lexical_decision_task_MP_exp2,2020.2.5,Win32,60,z,1,1.034,,,,,,,,1.034,1,,,,,,380,NW,"ID",16,cavory,CAVORY,z,,,,,,-0.722222222,0.491666667,0,0,0,,0,135,135,319,1,,
,,,,,,,,,,,,,,,,,,5a6f1ccade1f390001dbd8b7,2020-11-27_08h03.59.687,lexical_decision_task_MP_exp2,2020.2.5,Win32,60,m,1,0.718,,,,,,,,0.718,1,,,,,,24,WORD,UN,16,domain,PRAISE,m,,,,,,-0.722222222,0.491666667,0,0,0,,0,136,136,203,1,,
,,,,,,,,,,,,,,,,,,5a6f1ccade1f390001dbd8b7,2020-11-27_08h03.59.687,lexical_decision_task_MP_exp2,2020.2.5,Win32,60,z,1,0.93,,,,,,,,0.93,1,,,,,,372,NW,"ID",16,ramily,RAMILY,z,,,,,,-0.722222222,0.491666667,0,0,0,,0,137,137,311,1,,
,,,,,,,,,,,,,,,,,,5a6f1ccade1f390001dbd8b7,2020-11-27_08h03.59.687,lexical_decision_task_MP_exp2,2020.2.5,Win32,60,m,1,1.055,,,,,,,,1.055,1,,,,,,25,WORD,UN,16,sprint,DOMAIN,m,,,,,,-0.722222222,0.491666667,0,0,0,,0,138,138,204,1,,
,,,,,,,,,,,,,,,,,,5a6f1ccade1f390001dbd8b7,2020-11-27_08h03.59.687,lexical_decision_task_MP_exp2,2020.2.5,Win32,60,z,1,0.754,,,,,,,,0.754,1,,,,,,421,NW,UN,33,alcoud,KNISMA,z,,,,,,-0.722222222,0.491666667,0,0,0,,0,139,139,360,1,,
,,,,,,,,,,,,,,,,,,5a6f1ccade1f390001dbd8b7,2020-11-27_08h03.59.687,lexical_decision_task_MP_exp2,2020.2.5,Win32,60,m,1,0.638,,,,,,,,0.638,1,,,,,,237,WORD,UN,33,glance,POSTER,m,,,,,,-0.722222222,0.491666667,0,0,0,,0,140,140,176,1,,
,,,,,,,,,,,,,,,,,,5a6f1ccade1f390001dbd8b7,2020-11-27_08h03.59.687,lexical_decision_task_MP_exp2,2020.2.5,Win32,60,z,1,0.719,,,,,,,,0.719,1,,,,,,361,NW,"ID",16,pauche,PAUCHE,z,,,,,,-0.722222222,0.491666667,0,0,0,,0,141,141,300,1,,
,,,,,,,,,,,,,,,,,,5a6f1ccade1f390001dbd8b7,2020-11-27_08h03.59.687,lexical_decision_task_MP_exp2,2020.2.5,Win32,60,z,1,0.71,,,,,,,,0.71,1,,,,,,272,NW,UN,16,sortel,DAMILT,z,,,,,,-0.722222222,0.491666667,0,0,0,,0,142,142,451,1,,
,,,,,,,,,,,,,,,,,,5a6f1ccade1f390001dbd8b7,2020-11-27_08h03.59.687,lexical_decision_task_MP_exp2,2020.2.5,Win32,60,z,1,1.04,,,,,,,,1.04,1,,,,,,355,NW,"ID",33,zingly,ZINGLY,z,,,,,,-0.722222222,0.491666667,0,0,0,,0,143,143,294,1,,
,,,,,,,,,,,,,,,,,,5a6f1ccade1f390001dbd8b7,2020-11-27_08h03.59.687,lexical_decision_task_MP_exp2,2020.2.5,Win32,60,z,1,0.887,,,,,,,,0.887,1,,,,,,259,NW,UN,16,unject,SOUDAL,z,,,,,,-0.722222222,0.491666667,0,0,0,,0,144,144,438,1,,
,,,,,,,,,,,,,,,,,,5a6f1ccade1f390001dbd8b7,2020-11-27_08h03.59.687,lexical_decision_task_MP_exp2,2020.2.5,Win32,60,z,1,0.853,,,,,,,,0.853,1,,,,,,340,NW,"ID",33,fiatch,FIATCH,z,,,,,,-0.722222222,0.491666667,0,0,0,,0,145,145,279,1,,
,,,,,,,,,,,,,,,,,,5a6f1ccade1f390001dbd8b7,2020-11-27_08h03.59.687,lexical_decision_task_MP_exp2,2020.2.5,Win32,60,m,1,0.672,,,,,,,,0.672,1,,,,,,73,WORD,"ID",33,source,SOURCE,m,,,,,,-0.722222222,0.491666667,0,0,0,,0,146,146,12,1,,
,,,,,,,,,,,,,,,,,,5a6f1ccade1f390001dbd8b7,2020-11-27_08h03.59.687,lexical_decision_task_MP_exp2,2020.2.5,Win32,60,z,1,0.745,,,,,,,,0.745,1,,,,,,367,NW,"ID",16,slique,SLIQUE,z,,,,,,-0.722222222,0.491666667,0,0,0,,0,147,147,306,1,,
,,,,,,,,,,,,,,,,,,5a6f1ccade1f390001dbd8b7,2020-11-27_08h03.59.687,lexical_decision_task_MP_exp2,2020.2.5,Win32,60,m,1,0.633,,,,,,,,0.633,1,,,,,,3,WORD,UN,16,trench,KNIGHT,m,,,,,,-0.722222222,0.491666667,0,0,0,,0,148,148,182,1,,
,,,,,,,,,,,,,,,,,,5a6f1ccade1f390001dbd8b7,2020-11-27_08h03.59.687,lexical_decision_task_MP_exp2,2020.2.5,Win32,60,z,1,0.81,,,,,,,,0.81,1,,,,,,322,NW,"ID",33,slanch,SLANCH,z,,,,,,-0.722222222,0.491666667,0,0,0,,0,149,149,261,1,,
,,,,,,,,,,,,,,,,,,5a6f1ccade1f390001dbd8b7,2020-11-27_08h03.59.687,lexical_decision_task_MP_exp2,2020.2.5,Win32,60,m,1,0.766,,,,,,,,0.766,1,,,,,,227,WORD,UN,33,master,SELDOM,m,,,,,,-0.722222222,0.491666667,0,0,0,,0,150,150,166,1,,
,,,,,,,,,,,,,,,,,,5a6f1ccade1f390001dbd8b7,2020-11-27_08h03.59.687,lexical_decision_task_MP_exp2,2020.2.5,Win32,60,z,1,0.859,,,,,,,,0.859,1,,,,,,437,NW,UN,33,baitch,SNAPEL,z,,,,,,-0.722222222,0.491666667,0,0,0,,0,151,151,376,1,,
,,,,,,,,,,,,,,,,,,5a6f1ccade1f390001dbd8b7,2020-11-27_08h03.59.687,lexical_decision_task_MP_exp2,2020.2.5,Win32,60,m,1,0.731,,,,,,,,0.731,1,,,,,,158,WORD,"ID",16,island,ISLAND,m,,,,,,-0.722222222,0.491666667,0,0,0,,0,152,152,97,1,,
,,,,,,,,,,,,,,,,,,5a6f1ccade1f390001dbd8b7,2020-11-27_08h03.59.687,lexical_decision_task_MP_exp2,2020.2.5,Win32,60,m,1,0.64,,,,,,,,0.64,1,,,,,,113,WORD,"ID",33,chorus,CHORUS,m,,,,,,-0.722222222,0.491666667,0,0,0,,0,153,153,52,1,,
,,,,,,,,,,,,,,,,,,5a6f1ccade1f390001dbd8b7,2020-11-27_08h03.59.687,lexical_decision_task_MP_exp2,2020.2.5,Win32,60,z,1,0.682,,,,,,,,0.682,1,,,,,,317,NW,"ID",33,worbal,WORBAL,z,,,,,,-0.722222222,0.491666667,0,0,0,,0,154,154,256,1,,
,,,,,,,,,,,,,,,,,,5a6f1ccade1f390001dbd8b7,2020-11-27_08h03.59.687,lexical_decision_task_MP_exp2,2020.2.5,Win32,60,z,1,0.757,,,,,,,,0.757,1,,,,,,365,NW,"ID",16,guairt,GUAIRT,z,,,,,,-0.722222222,0.491666667,0,0,0,,0,155,155,304,1,,
,,,,,,,,,,,,,,,,,,5a6f1ccade1f390001dbd8b7,2020-11-27_08h03.59.687,lexical_decision_task_MP_exp2,2020.2.5,Win32,60,m,1,0.68,,,,,,,,0.68,1,,,,,,219,WORD,UN,33,voyage,BUCKET,m,,,,,,-0.722222222,0.491666667,0,0,0,,0,156,156,158,1,,
,,,,,,,,,,,,,,,,,,5a6f1ccade1f390001dbd8b7,2020-11-27_08h03.59.687,lexical_decision_task_MP_exp2,2020.2.5,Win32,60,m,1,0.713,,,,,,,,0.713,1,,,,,,171,WORD,"ID",16,depart,DEPART,m,,,,,,-0.722222222,0.491666667,0,0,0,,0,157,157,110,1,,
,,,,,,,,,,,,,,,,,,5a6f1ccade1f390001dbd8b7,2020-11-27_08h03.59.687,lexical_decision_task_MP_exp2,2020.2.5,Win32,60,m,1,0.579,,,,,,,,0.579,1,,,,,,148,WORD,"ID",16,custom,CUSTOM,m,,,,,,-0.722222222,0.491666667,0,0,0,,0,158,158,87,1,,
,,,,,,,,,,,,,,,,,,5a6f1ccade1f390001dbd8b7,2020-11-27_08h03.59.687,lexical_decision_task_MP_exp2,2020.2.5,Win32,60,z,1,0.651,,,,,,,,0.651,1,,,,,,419,NW,"ID",16,slount,SLOUNT,z,,,,,,-0.722222222,0.491666667,0,0,0,,0,159,159,358,1,,
,,,,,,,,,,,,,,,,,,5a6f1ccade1f390001dbd8b7,2020-11-27_08h03.59.687,lexical_decision_task_MP_exp2,2020.2.5,Win32,60,z,1,0.744,,,,,,,,0.744,1,,,,,,461,NW,UN,33,absult,JUSTRE,z,,,,,,-0.722222222,0.491666667,0,0,0,,0,160,160,400,1,,
,,,,,,,,,,,,,,,,,,5a6f1ccade1f390001dbd8b7,2020-11-27_08h03.59.687,lexical_decision_task_MP_exp2,2020.2.5,Win32,60,m,1,0.632,,,,,,,,0.632,1,,,,,,194,WORD,UN,33,resign,ABSENT,m,,,,,,-0.722222222,0.491666667,0,0,0,,0,161,161,133,1,,
,,,,,,,,,,,,,,,,,,5a6f1ccade1f390001dbd8b7,2020-11-27_08h03.59.687,lexical_decision_task_MP_exp2,2020.2.5,Win32,60,m,1,0.691,,,,,,,,0.691,1,,,,,,47,WORD,UN,16,walnut,INCOME,m,,,,,,-0.722222222,0.491666667,0,0,0,,0,162,162,226,1,,
,,,,,,,,,,,,,,,,,,5a6f1ccade1f390001dbd8b7,2020-11-27_08h03.59.687,lexical_decision_task_MP_exp2,2020.2.5,Win32,60,z,1,0.655,,,,,,,,0.655,1,,,,,,282,NW,UN,16,veralf,PORLEX,z,,,,,,-0.722222222,0.491666667,0,0,0,,0,163,163,461,1,,
,,,,,,,,,,,,,,,,,,5a6f1ccade1f390001dbd8b7,2020-11-27_08h03.59.687,lexical_decision_task_MP_exp2,2020.2.5,Win32,60,m,1,0.881,,,,,,,,0.881,1,,,,,,183,WORD,UN,33,sleazy,MILDEW,m,,,,,,-0.722222222,0.491666667,0,0,0,,0,164,164,122,1,,
,,,,,,,,,,,,,,,,,,5a6f1ccade1f390001dbd8b7,2020-11-27_08h03.59.687,lexical_decision_task_MP_exp2,2020.2.5,Win32,60,z,1,0.655,,,,,,,,0.655,1,,,,,,326,NW,"ID",33,iguade,IGUADE,z,,,,,,-0.722222222,0.491666667,0,0,0,,0,165,165,265,1,,
,,,,,,,,,,,,,,,,,,5a6f1ccade1f390001dbd8b7,2020-11-27_08h03.59.687,lexical_decision_task_MP_exp2,2020.2.5,Win32,60,m,1,0.606,,,,,,,,0.606,1,,,,,,198,WORD,UN,33,invoke,WICKED,m,,,,,,-0.722222222,0.491666667,0,0,0,,0,166,166,137,1,,
,,,,,,,,,,,,,,,,,,5a6f1ccade1f390001dbd8b7,2020-11-27_08h03.59.687,lexical_decision_task_MP_exp2,2020.2.5,Win32,60,m,1,0.545,,,,,,,,0.545,1,,,,,,93,WORD,"ID",33,public,PUBLIC,m,,,,,,-0.722222222,0.491666667,0,0,0,,0,167,167,32,1,,
,,,,,,,,,,,,,,,,,,5a6f1ccade1f390001dbd8b7,2020-11-27_08h03.59.687,lexical_decision_task_MP_exp2,2020.2.5,Win32,60,z,1,0.651,,,,,,,,0.651,1,,,,,,297,NW,UN,16,piergy,FERTIC,z,,,,,,-0.722222222,0.491666667,0,0,0,,0,168,168,476,1,,
,,,,,,,,,,,,,,,,,,5a6f1ccade1f390001dbd8b7,2020-11-27_08h03.59.687,lexical_decision_task_MP_exp2,2020.2.5,Win32,60,z,1,0.587,,,,,,,,0.587,1,,,,,,441,NW,UN,33,aboune,RASTOE,z,,,,,,-0.722222222,0.491666667,0,0,0,,0,169,169,380,1,,
,,,,,,,,,,,,,,,,,,5a6f1ccade1f390001dbd8b7,2020-11-27_08h03.59.687,lexical_decision_task_MP_exp2,2020.2.5,Win32,60,m,1,0.926,,,,,,,,0.926,1,,,,,,92,WORD,"ID",33,strand,STRAND,m,,,,,,-0.722222222,0.491666667,0,0,0,,0,170,170,31,1,,
,,,,,,,,,,,,,,,,,,5a6f1ccade1f390001dbd8b7,2020-11-27_08h03.59.687,lexical_decision_task_MP_exp2,2020.2.5,Win32,60,z,1,0.646,,,,,,,,0.646,1,,,,,,414,NW,"ID",16,serbol,SERBOL,z,,,,,,-0.722222222,0.491666667,0,0,0,,0,171,171,353,1,,
,,,,,,,,,,,,,,,,,,5a6f1ccade1f390001dbd8b7,2020-11-27_08h03.59.687,lexical_decision_task_MP_exp2,2020.2.5,Win32,60,m,1,0.659,,,,,,,,0.659,1,,,,,,211,WORD,UN,33,verify,INFECT,m,,,,,,-0.722222222,0.491666667,0,0,0,,0,172,172,150,1,,
,,,,,,,,,,,,,,,,,,5a6f1ccade1f390001dbd8b7,2020-11-27_08h03.59.687,lexical_decision_task_MP_exp2,2020.2.5,Win32,60,z,1,0.697,,,,,,,,0.697,1,,,,,,395,NW,"ID",16,colury,COLURY,z,,,,,,-0.722222222,0.491666667,0,0,0,,0,173,173,334,1,,
,,,,,,,,,,,,,,,,,,5a6f1ccade1f390001dbd8b7,2020-11-27_08h03.59.687,lexical_decision_task_MP_exp2,2020.2.5,Win32,60,z,1,0.849,,,,,,,,0.849,1,,,,,,342,NW,"ID",33,randow,RANDOW,z,,,,,,-0.722222222,0.491666667,0,0,0,,0,174,174,281,1,,
,,,,,,,,,,,,,,,,,,5a6f1ccade1f390001dbd8b7,2020-11-27_08h03.59.687,lexical_decision_task_MP_exp2,2020.2.5,Win32,60,z,1,0.9,,,,,,,,0.9,1,,,,,,454,NW,UN,33,tondle,SCOUGE,z,,,,,,-0.722222222,0.491666667,0,0,0,,0,175,175,393,1,,
,,,,,,,,,,,,,,,,,,5a6f1ccade1f390001dbd8b7,2020-11-27_08h03.59.687,lexical_decision_task_MP_exp2,2020.2.5,Win32,60,z,1,0.787,,,,,,,,0.787,1,,,,,,288,NW,UN,16,starby,YACEUP,z,,,,,,-0.722222222,0.491666667,0,0,0,,0,176,176,467,1,,
,,,,,,,,,,,,,,,,,,5a6f1ccade1f390001dbd8b7,2020-11-27_08h03.59.687,lexical_decision_task_MP_exp2,2020.2.5,Win32,60,z,1,0.611,,,,,,,,0.611,1,,,,,,299,NW,UN,16,yarion,STURCH,z,,,,,,-0.722222222,0.491666667,0,0,0,,0,177,177,478,1,,
,,,,,,,,,,,,,,,,,,5a6f1ccade1f390001dbd8b7,2020-11-27_08h03.59.687,lexical_decision_task_MP_exp2,2020.2.5,Win32,60,z,1,0.632,,,,,,,,0.632,1,,,,,,350,NW,"ID",33,nagurs,NAGURS,z,,,,,,-0.722222222,0.491666667,0,0,0,,0,178,178,289,1,,
,,,,,,,,,,,,,,,,,,5a6f1ccade1f390001dbd8b7,2020-11-27_08h03.59.687,lexical_decision_task_MP_exp2,2020.2.5,Win32,60,z,1,0.687,,,,,,,,0.687,1,,,,,,388,NW,"ID",16,cragin,CRAGIN,z,,,,,,-0.722222222,0.491666667,0,0,0,,0,179,179,327,1,,
,,,,,,,,,,,,,,,,,,5a6f1ccade1f390001dbd8b7,2020-11-27_08h03.59.687,lexical_decision_task_MP_exp2,2020.2.5,Win32,60,z,1,0.724,,,,,,,,0.724,1,,,,,,348,NW,"ID",33,dumple,DUMPLE,z,,,,,,-0.722222222,0.491666667,0,0,0,,0,180,180,287,1,,
,,,,,,,,,,,,,,,,,,5a6f1ccade1f390001dbd8b7,2020-11-27_08h03.59.687,lexical_decision_task_MP_exp2,2020.2.5,Win32,60,m,1,0.7,,,,,,,,0.7,1,,,,,,169,WORD,"ID",16,genius,GENIUS,m,,,,,,-0.722222222,0.491666667,0,0,0,,0,181,181,108,1,,
,,,,,,,,,,,,,,,,,,5a6f1ccade1f390001dbd8b7,2020-11-27_08h03.59.687,lexical_decision_task_MP_exp2,2020.2.5,Win32,60,m,1,0.801,,,,,,,,0.801,1,,,,,,75,WORD,"ID",33,trophy,TROPHY,m,,,,,,-0.722222222,0.491666667,0,0,0,,0,182,182,14,1,,
,,,,,,,,,,,,,,,,,,5a6f1ccade1f390001dbd8b7,2020-11-27_08h03.59.687,lexical_decision_task_MP_exp2,2020.2.5,Win32,60,z,1,0.751,,,,,,,,0.751,1,,,,,,452,NW,UN,33,bolvis,SURDEN,z,,,,,,-0.722222222,0.491666667,0,0,0,,0,183,183,391,1,,
,,,,,,,,,,,,,,,,,,5a6f1ccade1f390001dbd8b7,2020-11-27_08h03.59.687,lexical_decision_task_MP_exp2,2020.2.5,Win32,60,z,1,0.927,,,,,,,,0.927,1,,,,,,314,NW,"ID",33,sprine,SPRINE,z,,,,,,-0.722222222,0.491666667,0,0,0,,0,184,184,253,1,,
,,,,,,,,,,,,,,,,,,5a6f1ccade1f390001dbd8b7,2020-11-27_08h03.59.687,lexical_decision_task_MP_exp2,2020.2.5,Win32,60,m,1,0.7,,,,,,,,0.7,1,,,,,,180,WORD,"ID",16,silent,SILENT,m,,,,,,-0.722222222,0.491666667,0,0,0,,0,185,185,119,1,,
,,,,,,,,,,,,,,,,,,5a6f1ccade1f390001dbd8b7,2020-11-27_08h03.59.687,lexical_decision_task_MP_exp2,2020.2.5,Win32,60,m,1,0.803,,,,,,,,0.803,1,,,,,,196,WORD,UN,33,stream,CREDIT,m,,,,,,-0.722222222,0.491666667,0,0,0,,0,186,186,135,1,,
,,,,,,,,,,,,,,,,,,5a6f1ccade1f390001dbd8b7,2020-11-27_08h03.59.687,lexical_decision_task_MP_exp2,2020.2.5,Win32,60,m,1,1.163,,,,,,,,1.163,1,,,,,,23,WORD,UN,16,praise,WEALTH,m,,,,,,-0.722222222,0.491666667,0,0,0,,0,187,187,202,1,,
,,,,,,,,,,,,,,,,,,5a6f1ccade1f390001dbd8b7,2020-11-27_08h03.59.687,lexical_decision_task_MP_exp2,2020.2.5,Win32,60,m,1,0.894,,,,,,,,0.894,1,,,,,,185,WORD,UN,33,portal,BOTHER,m,,,,,,-0.722222222,0.491666667,0,0,0,,0,188,188,124,1,,
,,,,,,,,,,,,,,,,,,5a6f1ccade1f390001dbd8b7,2020-11-27_08h03.59.687,lexical_decision_task_MP_exp2,2020.2.5,Win32,60,z,1,0.904,,,,,,,,0.904,1,,,,,,468,NW,UN,33,padifs,WICTOR,z,,,,,,-0.722222222,0.491666667,0,0,0,,0,189,189,407,1,,
,,,,,,,,,,,,,,,,,,5a6f1ccade1f390001dbd8b7,2020-11-27_08h03.59.687,lexical_decision_task_MP_exp2,2020.2.5,Win32,60,z,1,1.16,,,,,,,,1.16,1,,,,,,466,NW,UN,33,robuly,HOCITE,z,,,,,,-0.722222222,0.491666667,0,0,0,,0,190,190,405,1,,
,,,,,,,,,,,,,,,,,,5a6f1ccade1f390001dbd8b7,2020-11-27_08h03.59.687,lexical_decision_task_MP_exp2,2020.2.5,Win32,60,m,1,0.715,,,,,,,,0.715,1,,,,,,6,WORD,UN,16,anchor,BUNDLE,m,,,,,,-0.722222222,0.491666667,0,0,0,,0,191,191,185,1,,
,,,,,,,,,,,,,,,,,,5a6f1ccade1f390001dbd8b7,2020-11-27_08h03.59.687,lexical_decision_task_MP_exp2,2020.2.5,Win32,60,m,1,0.63,,,,,,,,0.63,1,,,,,,78,WORD,"ID",33,column,COLUMN,m,,,,,,-0.722222222,0.491666667,0,0,0,,0,192,192,17,1,,
,,,,,,,,,,,,,,,,,,5a6f1ccade1f390001dbd8b7,2020-11-27_08h03.59.687,lexical_decision_task_MP_exp2,2020.2.5,Win32,60,z,1,0.693,,,,,,,,0.693,1,,,,,,356,NW,"ID",33,othnis,OTHNIS,z,,,,,,-0.722222222,0.491666667,0,0,0,,0,193,193,295,1,,
,,,,,,,,,,,,,,,,,,5a6f1ccade1f390001dbd8b7,2020-11-27_08h03.59.687,lexical_decision_task_MP_exp2,2020.2.5,Win32,60,m,1,0.585,,,,,,,,0.585,1,,,,,,70,WORD,"ID",33,square,SQUARE,m,,,,,,-0.722222222,0.491666667,0,0,0,,0,194,194,9,1,,
,,,,,,,,,,,,,,,,,,5a6f1ccade1f390001dbd8b7,2020-11-27_08h03.59.687,lexical_decision_task_MP_exp2,2020.2.5,Win32,60,z,1,0.724,,,,,,,,0.724,1,,,,,,469,NW,UN,33,crudio,PADIFS,z,,,,,,-0.722222222,0.491666667,0,0,0,,0,195,195,408,1,,
,,,,,,,,,,,,,,,,,,5a6f1ccade1f390001dbd8b7,2020-11-27_08h03.59.687,lexical_decision_task_MP_exp2,2020.2.5,Win32,60,z,1,0.727,,,,,,,,0.727,1,,,,,,472,NW,UN,33,gorbie,CIGNEY,z,,,,,,-0.722222222,0.491666667,0,0,0,,0,196,196,411,1,,
,,,,,,,,,,,,,,,,,,5a6f1ccade1f390001dbd8b7,2020-11-27_08h03.59.687,lexical_decision_task_MP_exp2,2020.2.5,Win32,60,m,1,0.592,,,,,,,,0.592,1,,,,,,162,WORD,"ID",16,candle,CANDLE,m,,,,,,-0.722222222,0.491666667,0,0,0,,0,197,197,101,1,,
,,,,,,,,,,,,,,,,,,5a6f1ccade1f390001dbd8b7,2020-11-27_08h03.59.687,lexical_decision_task_MP_exp2,2020.2.5,Win32,60,z,1,0.789,,,,,,,,0.789,1,,,,,,438,NW,UN,33,limpor,BAITCH,z,,,,,,-0.722222222,0.491666667,0,0,0,,0,198,198,377,1,,
,,,,,,,,,,,,,,,,,,5a6f1ccade1f390001dbd8b7,2020-11-27_08h03.59.687,lexical_decision_task_MP_exp2,2020.2.5,Win32,60,z,1,0.941,,,,,,,,0.941,1,,,,,,397,NW,"ID",16,camble,CAMBLE,z,,,,,,-0.722222222,0.491666667,0,0,0,,0,199,199,336,1,,
,,,,,,,,,,,,,,,,,,5a6f1ccade1f390001dbd8b7,2020-11-27_08h03.59.687,lexical_decision_task_MP_exp2,2020.2.5,Win32,60,m,1,0.612,,,,,,,,0.612,1,,,,,,97,WORD,"ID",33,client,CLIENT,m,,,,,,-0.722222222,0.491666667,0,0,0,,0,200,200,36,1,,
,,,,,,,,,,,,,,,,,,5a6f1ccade1f390001dbd8b7,2020-11-27_08h03.59.687,lexical_decision_task_MP_exp2,2020.2.5,Win32,60,z,1,0.902,,,,,,,,0.902,1,,,,,,463,NW,UN,33,chaite,KISPEL,z,,,,,,-0.722222222,0.491666667,0,0,0,,0,201,201,402,1,,
,,,,,,,,,,,,,,,,,,5a6f1ccade1f390001dbd8b7,2020-11-27_08h03.59.687,lexical_decision_task_MP_exp2,2020.2.5,Win32,60,m,1,0.723,,,,,,,,0.723,1,,,,,,60,WORD,UN,16,fright,PENCIL,m,,,,,,-0.722222222,0.491666667,0,0,0,,0,202,202,239,1,,
,,,,,,,,,,,,,,,,,,5a6f1ccade1f390001dbd8b7,2020-11-27_08h03.59.687,lexical_decision_task_MP_exp2,2020.2.5,Win32,60,m,1,0.726,,,,,,,,0.726,1,,,,,,122,WORD,"ID",16,linger,LINGER,m,,,,,,-0.722222222,0.491666667,0,0,0,,0,203,203,61,1,,
,,,,,,,,,,,,,,,,,,5a6f1ccade1f390001dbd8b7,2020-11-27_08h03.59.687,lexical_decision_task_MP_exp2,2020.2.5,Win32,60,z,1,0.832,,,,,,,,0.832,1,,,,,,386,NW,"ID",16,ancust,ANCUST,z,,,,,,-0.722222222,0.491666667,0,0,0,,0,204,204,325,1,,
,,,,,,,,,,,,,,,,,,5a6f1ccade1f390001dbd8b7,2020-11-27_08h03.59.687,lexical_decision_task_MP_exp2,2020.2.5,Win32,60,z,1,0.821,,,,,,,,0.821,1,,,,,,277,NW,UN,16,unighs,PETAIN,z,,,,,,-0.722222222,0.491666667,0,0,0,,0,205,205,456,1,,
,,,,,,,,,,,,,,,,,,5a6f1ccade1f390001dbd8b7,2020-11-27_08h03.59.687,lexical_decision_task_MP_exp2,2020.2.5,Win32,60,m,1,0.589,,,,,,,,0.589,1,,,,,,119,WORD,"ID",33,spider,SPIDER,m,,,,,,-0.722222222,0.491666667,0,0,0,,0,206,206,58,1,,
,,,,,,,,,,,,,,,,,,5a6f1ccade1f390001dbd8b7,2020-11-27_08h03.59.687,lexical_decision_task_MP_exp2,2020.2.5,Win32,60,m,1,0.687,,,,,,,,0.687,1,,,,,,172,WORD,"ID",16,patrol,PATROL,m,,,,,,-0.722222222,0.491666667,0,0,0,,0,207,207,111,1,,
,,,,,,,,,,,,,,,,,,5a6f1ccade1f390001dbd8b7,2020-11-27_08h03.59.687,lexical_decision_task_MP_exp2,2020.2.5,Win32,60,z,1,0.988,,,,,,,,0.988,1,,,,,,305,NW,"ID",33,forgle,FORGLE,z,,,,,,-0.722222222,0.491666667,0,0,0,,0,208,208,244,1,,
,,,,,,,,,,,,,,,,,,5a6f1ccade1f390001dbd8b7,2020-11-27_08h03.59.687,lexical_decision_task_MP_exp2,2020.2.5,Win32,60,m,1,0.594,,,,,,,,0.594,1,,,,,,217,WORD,UN,33,shrink,LIQUOR,m,,,,,,-0.722222222,0.491666667,0,0,0,,0,209,209,156,1,,
,,,,,,,,,,,,,,,,,,5a6f1ccade1f390001dbd8b7,2020-11-27_08h03.59.687,lexical_decision_task_MP_exp2,2020.2.5,Win32,60,z,1,1.019,,,,,,,,1.019,1,,,,,,442,NW,UN,33,dorsex,ABOUNE,z,,,,,,-0.722222222,0.491666667,0,0,0,,0,210,210,381,1,,
,,,,,,,,,,,,,,,,,,5a6f1ccade1f390001dbd8b7,2020-11-27_08h03.59.687,lexical_decision_task_MP_exp2,2020.2.5,Win32,60,z,1,0.739,,,,,,,,0.739,1,,,,,,346,NW,"ID",33,saudic,SAUDIC,z,,,,,,-0.722222222,0.491666667,0,0,0,,0,211,211,285,1,,
,,,,,,,,,,,,,,,,,,5a6f1ccade1f390001dbd8b7,2020-11-27_08h03.59.687,lexical_decision_task_MP_exp2,2020.2.5,Win32,60,z,1,0.799,,,,,,,,0.799,1,,,,,,462,NW,UN,33,kispel,ABSULT,z,,,,,,-0.722222222,0.491666667,0,0,0,,0,212,212,401,1,,
,,,,,,,,,,,,,,,,,,5a6f1ccade1f390001dbd8b7,2020-11-27_08h03.59.687,lexical_decision_task_MP_exp2,2020.2.5,Win32,60,m,1,0.636,,,,,,,,0.636,1,,,,,,151,WORD,"ID",16,mystic,MYSTIC,m,,,,,,-0.722222222,0.491666667,0,0,0,,0,213,213,90,1,,
,,,,,,,,,,,,,,,,,,5a6f1ccade1f390001dbd8b7,2020-11-27_08h03.59.687,lexical_decision_task_MP_exp2,2020.2.5,Win32,60,z,1,0.733,,,,,,,,0.733,1,,,,,,473,NW,UN,33,hablin,CRIBLE,z,,,,,,-0.722222222,0.491666667,0,0,0,,0,214,214,412,1,,
,,,,,,,,,,,,,,,,,,5a6f1ccade1f390001dbd8b7,2020-11-27_08h03.59.687,lexical_decision_task_MP_exp2,2020.2.5,Win32,60,z,1,0.748,,,,,,,,0.748,1,,,,,,381,NW,"ID",16,huniek,HUNIEK,z,,,,,,-0.722222222,0.491666667,0,0,0,,0,215,215,320,1,,
,,,,,,,,,,,,,,,,,,5a6f1ccade1f390001dbd8b7,2020-11-27_08h03.59.687,lexical_decision_task_MP_exp2,2020.2.5,Win32,60,m,1,0.643,,,,,,,,0.643,1,,,,,,164,WORD,"ID",16,market,MARKET,m,,,,,,-0.722222222,0.491666667,0,0,0,,0,216,216,103,1,,
,,,,,,,,,,,,,,,,,,5a6f1ccade1f390001dbd8b7,2020-11-27_08h03.59.687,lexical_decision_task_MP_exp2,2020.2.5,Win32,60,m,1,0.616,,,,,,,,0.616,1,,,,,,153,WORD,"ID",16,behold,BEHOLD,m,,,,,,-0.722222222,0.491666667,0,0,0,,0,217,217,92,1,,
,,,,,,,,,,,,,,,,,,5a6f1ccade1f390001dbd8b7,2020-11-27_08h03.59.687,lexical_decision_task_MP_exp2,2020.2.5,Win32,60,m,1,0.641,,,,,,,,0.641,1,,,,,,139,WORD,"ID",16,debris,DEBRIS,m,,,,,,-0.722222222,0.491666667,0,0,0,,0,218,218,78,1,,
,,,,,,,,,,,,,,,,,,5a6f1ccade1f390001dbd8b7,2020-11-27_08h03.59.687,lexical_decision_task_MP_exp2,2020.2.5,Win32,60,m,1,0.678,,,,,,,,0.678,1,,,,,,179,WORD,"ID",16,basket,BASKET,m,,,,,,-0.722222222,0.491666667,0,0,0,,0,219,219,118,1,,
,,,,,,,,,,,,,,,,,,5a6f1ccade1f390001dbd8b7,2020-11-27_08h03.59.687,lexical_decision_task_MP_exp2,2020.2.5,Win32,60,m,1,0.608,,,,,,,,0.608,1,,,,,,204,WORD,UN,33,lounge,BURDEN,m,,,,,,-0.722222222,0.491666667,0,0,0,,0,220,220,143,1,,
,,,,,,,,,,,,,,,,,,5a6f1ccade1f390001dbd8b7,2020-11-27_08h03.59.687,lexical_decision_task_MP_exp2,2020.2.5,Win32,60,z,1,0.734,,,,,,,,0.734,1,,,,,,265,NW,UN,16,varmit,DISTAR,z,,,,,,-0.722222222,0.491666667,0,0,0,,0,221,221,444,1,,
,,,,,,,,,,,,,,,,,,5a6f1ccade1f390001dbd8b7,2020-11-27_08h03.59.687,lexical_decision_task_MP_exp2,2020.2.5,Win32,60,z,1,0.738,,,,,,,,0.738,1,,,,,,269,NW,UN,16,wrimsy,ORCHET,z,,,,,,-0.722222222,0.491666667,0,0,0,,0,222,222,448,1,,
,,,,,,,,,,,,,,,,,,5a6f1ccade1f390001dbd8b7,2020-11-27_08h03.59.687,lexical_decision_task_MP_exp2,2020.2.5,Win32,60,z,1,0.665,,,,,,,,0.665,1,,,,,,354,NW,"ID",33,virlex,VIRLEX,z,,,,,,-0.722222222,0.491666667,0,0,0,,0,223,223,293,1,,
,,,,,,,,,,,,,,,,,,5a6f1ccade1f390001dbd8b7,2020-11-27_08h03.59.687,lexical_decision_task_MP_exp2,2020.2.5,Win32,60,m,1,0.529,,,,,,,,0.529,1,,,,,,76,WORD,"ID",33,exotic,EXOTIC,m,,,,,,-0.722222222,0.491666667,0,0,0,,0,224,224,15,1,,
,,,,,,,,,,,,,,,,,,5a6f1ccade1f390001dbd8b7,2020-11-27_08h03.59.687,lexical_decision_task_MP_exp2,2020.2.5,Win32,60,m,1,0.548,,,,,,,,0.548,1,,,,,,2,WORD,UN,16,knight,BRIDGE,m,,,,,,-0.722222222,0.491666667,0,0,0,,0,225,225,181,1,,
,,,,,,,,,,,,,,,,,,5a6f1ccade1f390001dbd8b7,2020-11-27_08h03.59.687,lexical_decision_task_MP_exp2,2020.2.5,Win32,60,m,1,0.502,,,,,,,,0.502,1,,,,,,44,WORD,UN,16,clergy,DANGER,m,,,,,,-0.722222222,0.491666667,0,0,0,,0,226,226,223,1,,
,,,,,,,,,,,,,,,,,,5a6f1ccade1f390001dbd8b7,2020-11-27_08h03.59.687,lexical_decision_task_MP_exp2,2020.2.5,Win32,60,m,1,0.553,,,,,,,,0.553,1,,,,,,232,WORD,UN,33,nature,INJECT,m,,,,,,-0.722222222,0.491666667,0,0,0,,0,227,227,171,1,,
,,,,,,,,,,,,,,,,,,5a6f1ccade1f390001dbd8b7,2020-11-27_08h03.59.687,lexical_decision_task_MP_exp2,2020.2.5,Win32,60,m,1,0.502,,,,,,,,0.502,1,,,,,,15,WORD,UN,16,faucet,AMOUNT,m,,,,,,-0.722222222,0.491666667,0,0,0,,0,228,228,194,1,,
,,,,,,,,,,,,,,,,,,5a6f1ccade1f390001dbd8b7,2020-11-27_08h03.59.687,lexical_decision_task_MP_exp2,2020.2.5,Win32,60,z,1,0.728,,,,,,,,0.728,1,,,,,,336,NW,"ID",33,ghodus,GHODUS,z,,,,,,-0.722222222,0.491666667,0,0,0,,0,229,229,275,1,,
,,,,,,,,,,,,,,,,,,5a6f1ccade1f390001dbd8b7,2020-11-27_08h03.59.687,lexical_decision_task_MP_exp2,2020.2.5,Win32,60,z,1,0.606,,,,,,,,0.606,1,,,,,,432,NW,UN,33,drance,LUNKER,z,,,,,,-0.722222222,0.491666667,0,0,0,,0,230,230,371,1,,
,,,,,,,,,,,,,,,,,,5a6f1ccade1f390001dbd8b7,2020-11-27_08h03.59.687,lexical_decision_task_MP_exp2,2020.2.5,Win32,60,m,1,0.576,,,,,,,,0.576,1,,,,,,74,WORD,"ID",33,plaque,PLAQUE,m,,,,,,-0.722222222,0.491666667,0,0,0,,0,231,231,13,1,,
,,,,,,,,,,,,,,,,,,5a6f1ccade1f390001dbd8b7,2020-11-27_08h03.59.687,lexical_decision_task_MP_exp2,2020.2.5,Win32,60,z,1,0.664,,,,,,,,0.664,1,,,,,,279,NW,UN,16,curbol,CELOND,z,,,,,,-0.722222222,0.491666667,0,0,0,,0,232,232,458,1,,
,,,,,,,,,,,,,,,,,,5a6f1ccade1f390001dbd8b7,2020-11-27_08h03.59.687,lexical_decision_task_MP_exp2,2020.2.5,Win32,60,m,1,0.538,,,,,,,,0.538,1,,,,,,31,WORD,UN,16,buckle,WEAPON,m,,,,,,-0.722222222,0.491666667,0,0,0,,0,233,233,210,1,,
,,,,,,,,,,,,,,,,,,5a6f1ccade1f390001dbd8b7,2020-11-27_08h03.59.687,lexical_decision_task_MP_exp2,2020.2.5,Win32,60,z,1,0.734,,,,,,,,0.734,1,,,,,,292,NW,UN,16,swance,ABLINT,z,,,,,,-0.722222222,0.491666667,0,0,0,,0,234,234,471,1,,
,,,,,,,,,,,,,,,,,,5a6f1ccade1f390001dbd8b7,2020-11-27_08h03.59.687,lexical_decision_task_MP_exp2,2020.2.5,Win32,60,z,1,1.17,,,,,,,,1.17,1,,,,,,416,NW,"ID",16,pathel,PATHEL,z,,,,,,-0.722222222,0.491666667,0,0,0,,0,235,235,355,1,,
,,,,,,,,,,,,,,,,,,5a6f1ccade1f390001dbd8b7,2020-11-27_08h03.59.687,lexical_decision_task_MP_exp2,2020.2.5,Win32,60,m,1,0.554,,,,,,,,0.554,1,,,,,,82,WORD,"ID",33,stigma,STIGMA,m,,,,,,-0.722222222,0.491666667,0,0,0,,0,236,236,21,1,,
,,,,,,,,,,,,,,,,,,5a6f1ccade1f390001dbd8b7,2020-11-27_08h03.59.687,lexical_decision_task_MP_exp2,2020.2.5,Win32,60,m,1,0.66,,,,,,,,0.66,1,,,,,,98,WORD,"ID",33,belong,BELONG,m,,,,,,-0.722222222,0.491666667,0,0,0,,0,237,237,37,1,,
,,,,,,,,,,,,,,,,,,5a6f1ccade1f390001dbd8b7,2020-11-27_08h03.59.687,lexical_decision_task_MP_exp2,2020.2.5,Win32,60,z,1,0.688,,,,,,,,0.688,1,,,,,,480,NW,UN,33,knisma,ROBULY,z,,,,,,-0.722222222,0.491666667,0,0,0,,0,238,238,419,1,,
,,,,,,,,,,,,,,,,,,5a6f1ccade1f390001dbd8b7,2020-11-27_08h03.59.687,lexical_decision_task_MP_exp2,2020.2.5,Win32,60,z,1,0.854,,,,,,,,0.854,1,,,,,,411,NW,"ID",16,orchin,ORCHIN,z,,,,,,-0.722222222,0.491666667,0,0,0,,0,239,239,350,1,,
,,,,,,,,,,,,,,,,,,5a6f1ccade1f390001dbd8b7,2020-11-27_08h03.59.687,lexical_decision_task_MP_exp2,2020.2.5,Win32,60,m,1,0.462,,,,,,,,0.462,1,,,,,,54,WORD,UN,16,stroke,RAMBLE,m,,,,,,-0.722222222,0.491666667,0,0,0,,0,240,240,233,1,,
,,,,,,,,,,,,,,,,,,5a6f1ccade1f390001dbd8b7,2020-11-27_08h03.59.687,lexical_decision_task_MP_exp2,2020.2.5,Win32,60,m,1,0.572,,,,,,,,0.572,1,,,,,,84,WORD,"ID",33,mortal,MORTAL,m,,,,,,-0.031481481,-0.413888889,1,0,0,,0,241,241,23,1,,break_done_button
,,,,,,,,,,,,,,,,,,5a6f1ccade1f390001dbd8b7,2020-11-27_08h03.59.687,lexical_decision_task_MP_exp2,2020.2.5,Win32,60,z,1,1.458,,,,,,,,1.458,1,,,,,,382,NW,"ID",16,sarley,SARLEY,z,,,,,,-0.030555556,-0.414814815,0,0,0,,0,242,242,321,1,,
,,,,,,,,,,,,,,,,,,5a6f1ccade1f390001dbd8b7,2020-11-27_08h03.59.687,lexical_decision_task_MP_exp2,2020.2.5,Win32,60,m,1,0.947,,,,,,,,0.947,1,,,,,,209,WORD,UN,33,monkey,SEARCH,m,,,,,,-0.030555556,-0.414814815,0,0,0,,0,243,243,148,1,,
,,,,,,,,,,,,,,,,,,5a6f1ccade1f390001dbd8b7,2020-11-27_08h03.59.687,lexical_decision_task_MP_exp2,2020.2.5,Win32,60,m,1,0.721,,,,,,,,0.721,1,,,,,,235,WORD,UN,33,pirate,GRUMPY,m,,,,,,-0.030555556,-0.414814815,0,0,0,,0,244,244,174,1,,
,,,,,,,,,,,,,,,,,,5a6f1ccade1f390001dbd8b7,2020-11-27_08h03.59.687,lexical_decision_task_MP_exp2,2020.2.5,Win32,60,m,1,0.593,,,,,,,,0.593,1,,,,,,104,WORD,"ID",33,studio,STUDIO,m,,,,,,-0.030555556,-0.414814815,0,0,0,,0,245,245,43,1,,
,,,,,,,,,,,,,,,,,,5a6f1ccade1f390001dbd8b7,2020-11-27_08h03.59.687,lexical_decision_task_MP_exp2,2020.2.5,Win32,60,z,1,0.626,,,,,,,,0.626,1,,,,,,405,NW,"ID",16,flumni,FLUMNI,z,,,,,,-0.030555556,-0.414814815,0,0,0,,0,246,246,344,1,,
,,,,,,,,,,,,,,,,,,5a6f1ccade1f390001dbd8b7,2020-11-27_08h03.59.687,lexical_decision_task_MP_exp2,2020.2.5,Win32,60,z,1,0.58,,,,,,,,0.58,1,,,,,,248,NW,UN,16,batrol,STROLE,z,,,,,,-0.030555556,-0.414814815,0,0,0,,0,247,247,427,1,,
,,,,,,,,,,,,,,,,,,5a6f1ccade1f390001dbd8b7,2020-11-27_08h03.59.687,lexical_decision_task_MP_exp2,2020.2.5,Win32,60,z,1,0.564,,,,,,,,0.564,1,,,,,,330,NW,"ID",33,kensom,KENSOM,z,,,,,,-0.030555556,-0.414814815,0,0,0,,0,248,248,269,1,,
,,,,,,,,,,,,,,,,,,5a6f1ccade1f390001dbd8b7,2020-11-27_08h03.59.687,lexical_decision_task_MP_exp2,2020.2.5,Win32,60,m,1,0.535,,,,,,,,0.535,1,,,,,,188,WORD,UN,33,censor,SOCIAL,m,,,,,,-0.030555556,-0.414814815,0,0,0,,0,249,249,127,1,,
,,,,,,,,,,,,,,,,,,5a6f1ccade1f390001dbd8b7,2020-11-27_08h03.59.687,lexical_decision_task_MP_exp2,2020.2.5,Win32,60,m,1,0.509,,,,,,,,0.509,1,,,,,,210,WORD,UN,33,infect,MONKEY,m,,,,,,-0.030555556,-0.414814815,0,0,0,,0,250,250,149,1,,
,,,,,,,,,,,,,,,,,,5a6f1ccade1f390001dbd8b7,2020-11-27_08h03.59.687,lexical_decision_task_MP_exp2,2020.2.5,Win32,60,m,1,0.535,,,,,,,,0.535,1,,,,,,178,WORD,"ID",16,inform,INFORM,m,,,,,,-0.030555556,-0.414814815,0,0,0,,0,251,251,117,1,,
,,,,,,,,,,,,,,,,,,5a6f1ccade1f390001dbd8b7,2020-11-27_08h03.59.687,lexical_decision_task_MP_exp2,2020.2.5,Win32,60,m,1,1.062,,,,,,,,1.062,1,,,,,,142,WORD,"ID",16,spruce,SPRUCE,m,,,,,,-0.030555556,-0.414814815,0,0,0,,0,252,252,81,1,,
,,,,,,,,,,,,,,,,,,5a6f1ccade1f390001dbd8b7,2020-11-27_08h03.59.687,lexical_decision_task_MP_exp2,2020.2.5,Win32,60,m,1,0.646,,,,,,,,0.646,1,,,,,,20,WORD,UN,16,simple,BREAST,m,,,,,,-0.030555556,-0.414814815,0,0,0,,0,253,253,199,1,,
,,,,,,,,,,,,,,,,,,5a6f1ccade1f390001dbd8b7,2020-11-27_08h03.59.687,lexical_decision_task_MP_exp2,2020.2.5,Win32,60,z,1,0.778,,,,,,,,0.778,1,,,,,,325,NW,"ID",33,thruse,THRUSE,z,,,,,,-0.030555556,-0.414814815,0,0,0,,0,254,254,264,1,,
,,,,,,,,,,,,,,,,,,5a6f1ccade1f390001dbd8b7,2020-11-27_08h03.59.687,lexical_decision_task_MP_exp2,2020.2.5,Win32,60,m,1,0.601,,,,,,,,0.601,1,,,,,,88,WORD,"ID",33,hunger,HUNGER,m,,,,,,-0.030555556,-0.414814815,0,0,0,,0,255,255,27,1,,
,,,,,,,,,,,,,,,,,,5a6f1ccade1f390001dbd8b7,2020-11-27_08h03.59.687,lexical_decision_task_MP_exp2,2020.2.5,Win32,60,m,1,0.615,,,,,,,,0.615,1,,,,,,39,WORD,UN,16,convey,INSECT,m,,,,,,-0.030555556,-0.414814815,0,0,0,,0,256,256,218,1,,
,,,,,,,,,,,,,,,,,,5a6f1ccade1f390001dbd8b7,2020-11-27_08h03.59.687,lexical_decision_task_MP_exp2,2020.2.5,Win32,60,z,1,0.81,,,,,,,,0.81,1,,,,,,320,NW,"ID",33,jockal,JOCKAL,z,,,,,,-0.030555556,-0.414814815,0,0,0,,0,257,257,259,1,,
,,,,,,,,,,,,,,,,,,5a6f1ccade1f390001dbd8b7,2020-11-27_08h03.59.687,lexical_decision_task_MP_exp2,2020.2.5,Win32,60,z,1,0.884,,,,,,,,0.884,1,,,,,,301,NW,"ID",33,fainch,FAINCH,z,,,,,,-0.030555556,-0.414814815,0,0,0,,0,258,258,240,1,,
,,,,,,,,,,,,,,,,,,5a6f1ccade1f390001dbd8b7,2020-11-27_08h03.59.687,lexical_decision_task_MP_exp2,2020.2.5,Win32,60,z,1,0.8,,,,,,,,0.8,1,,,,,,391,NW,"ID",16,theldy,THELDY,z,,,,,,-0.030555556,-0.414814815,0,0,0,,0,259,259,330,1,,
,,,,,,,,,,,,,,,,,,5a6f1ccade1f390001dbd8b7,2020-11-27_08h03.59.687,lexical_decision_task_MP_exp2,2020.2.5,Win32,60,m,1,1,,,,,,,,1,1,,,,,,160,WORD,"ID",16,violet,VIOLET,m,,,,,,-0.030555556,-0.414814815,0,0,0,,0,260,260,99,1,,
,,,,,,,,,,,,,,,,,,5a6f1ccade1f390001dbd8b7,2020-11-27_08h03.59.687,lexical_decision_task_MP_exp2,2020.2.5,Win32,60,z,1,0.741,,,,,,,,0.741,1,,,,,,302,NW,"ID",33,miluer,MILUER,z,,,,,,-0.030555556,-0.414814815,0,0,0,,0,261,261,241,1,,
,,,,,,,,,,,,,,,,,,5a6f1ccade1f390001dbd8b7,2020-11-27_08h03.59.687,lexical_decision_task_MP_exp2,2020.2.5,Win32,60,z,1,0.667,,,,,,,,0.667,1,,,,,,430,NW,UN,33,chrums,CAROEY,z,,,,,,-0.030555556,-0.414814815,0,0,0,,0,262,262,369,1,,
,,,,,,,,,,,,,,,,,,5a6f1ccade1f390001dbd8b7,2020-11-27_08h03.59.687,lexical_decision_task_MP_exp2,2020.2.5,Win32,60,m,1,1.139,,,,,,,,1.139,1,,,,,,111,WORD,"ID",33,induce,INDUCE,m,,,,,,-0.030555556,-0.414814815,0,0,0,,0,263,263,50,1,,
,,,,,,,,,,,,,,,,,,5a6f1ccade1f390001dbd8b7,2020-11-27_08h03.59.687,lexical_decision_task_MP_exp2,2020.2.5,Win32,60,m,1,0.632,,,,,,,,0.632,1,,,,,,215,WORD,UN,33,lumber,PHOBIA,m,,,,,,-0.030555556,-0.414814815,0,0,0,,0,264,264,154,1,,
,,,,,,,,,,,,,,,,,,5a6f1ccade1f390001dbd8b7,2020-11-27_08h03.59.687,lexical_decision_task_MP_exp2,2020.2.5,Win32,60,z,1,0.781,,,,,,,,0.781,1,,,,,,251,NW,UN,16,stapod,LUPICT,z,,,,,,-0.030555556,-0.414814815,0,0,0,,0,265,265,430,1,,
,,,,,,,,,,,,,,,,,,5a6f1ccade1f390001dbd8b7,2020-11-27_08h03.59.687,lexical_decision_task_MP_exp2,2020.2.5,Win32,60,z,1,0.618,,,,,,,,0.618,1,,,,,,323,NW,"ID",33,rosail,ROSAIL,z,,,,,,-0.030555556,-0.414814815,0,0,0,,0,266,266,262,1,,
,,,,,,,,,,,,,,,,,,5a6f1ccade1f390001dbd8b7,2020-11-27_08h03.59.687,lexical_decision_task_MP_exp2,2020.2.5,Win32,60,z,1,0.875,,,,,,,,0.875,1,,,,,,396,NW,"ID",16,flengy,FLENGY,z,,,,,,-0.030555556,-0.414814815,0,0,0,,0,267,267,335,1,,
,,,,,,,,,,,,,,,,,,5a6f1ccade1f390001dbd8b7,2020-11-27_08h03.59.687,lexical_decision_task_MP_exp2,2020.2.5,Win32,60,m,1,0.808,,,,,,,,0.808,1,,,,,,116,WORD,"ID",33,tumble,TUMBLE,m,,,,,,-0.030555556,-0.414814815,0,0,0,,0,268,268,55,1,,
,,,,,,,,,,,,,,,,,,5a6f1ccade1f390001dbd8b7,2020-11-27_08h03.59.687,lexical_decision_task_MP_exp2,2020.2.5,Win32,60,m,1,0.661,,,,,,,,0.661,1,,,,,,86,WORD,"ID",33,rodent,RODENT,m,,,,,,-0.030555556,-0.414814815,0,0,0,,0,269,269,25,1,,
,,,,,,,,,,,,,,,,,,5a6f1ccade1f390001dbd8b7,2020-11-27_08h03.59.687,lexical_decision_task_MP_exp2,2020.2.5,Win32,60,z,1,0.67,,,,,,,,0.67,1,,,,,,470,NW,UN,33,nobest,CRUDIO,z,,,,,,-0.030555556,-0.414814815,0,0,0,,0,270,270,409,1,,
,,,,,,,,,,,,,,,,,,5a6f1ccade1f390001dbd8b7,2020-11-27_08h03.59.687,lexical_decision_task_MP_exp2,2020.2.5,Win32,60,m,1,0.672,,,,,,,,0.672,1,,,,,,19,WORD,UN,16,breast,PATRON,m,,,,,,-0.030555556,-0.414814815,0,0,0,,0,271,271,198,1,,
,,,,,,,,,,,,,,,,,,5a6f1ccade1f390001dbd8b7,2020-11-27_08h03.59.687,lexical_decision_task_MP_exp2,2020.2.5,Win32,60,m,1,0.73,,,,,,,,0.73,1,,,,,,141,WORD,"ID",16,orphan,ORPHAN,m,,,,,,-0.030555556,-0.414814815,0,0,0,,0,272,272,80,1,,
,,,,,,,,,,,,,,,,,,5a6f1ccade1f390001dbd8b7,2020-11-27_08h03.59.687,lexical_decision_task_MP_exp2,2020.2.5,Win32,60,m,1,0.775,,,,,,,,0.775,1,,,,,,49,WORD,UN,16,snatch,SURVEY,m,,,,,,-0.030555556,-0.414814815,0,0,0,,0,273,273,228,1,,
,,,,,,,,,,,,,,,,,,5a6f1ccade1f390001dbd8b7,2020-11-27_08h03.59.687,lexical_decision_task_MP_exp2,2020.2.5,Win32,60,m,1,0.7,,,,,,,,0.7,1,,,,,,68,WORD,"ID",33,fumble,FUMBLE,m,,,,,,-0.030555556,-0.414814815,0,0,0,,0,274,274,7,1,,
,,,,,,,,,,,,,,,,,,5a6f1ccade1f390001dbd8b7,2020-11-27_08h03.59.687,lexical_decision_task_MP_exp2,2020.2.5,Win32,60,m,1,0.719,,,,,,,,0.719,1,,,,,,109,WORD,"ID",33,wonder,WONDER,m,,,,,,-0.030555556,-0.414814815,0,0,0,,0,275,275,48,1,,
,,,,,,,,,,,,,,,,,,5a6f1ccade1f390001dbd8b7,2020-11-27_08h03.59.687,lexical_decision_task_MP_exp2,2020.2.5,Win32,60,m,1,0.635,,,,,,,,0.635,1,,,,,,43,WORD,UN,16,foster,TONGUE,m,,,,,,-0.030555556,-0.414814815,0,0,0,,0,276,276,222,1,,
,,,,,,,,,,,,,,,,,,5a6f1ccade1f390001dbd8b7,2020-11-27_08h03.59.687,lexical_decision_task_MP_exp2,2020.2.5,Win32,60,z,1,0.967,,,,,,,,0.967,1,,,,,,426,NW,UN,33,schind,URIVEL,z,,,,,,-0.030555556,-0.414814815,0,0,0,,0,277,277,365,1,,
,,,,,,,,,,,,,,,,,,5a6f1ccade1f390001dbd8b7,2020-11-27_08h03.59.687,lexical_decision_task_MP_exp2,2020.2.5,Win32,60,z,1,0.813,,,,,,,,0.813,1,,,,,,264,NW,UN,16,distar,VACKEL,z,,,,,,-0.030555556,-0.414814815,0,0,0,,0,278,278,443,1,,
,,,,,,,,,,,,,,,,,,5a6f1ccade1f390001dbd8b7,2020-11-27_08h03.59.687,lexical_decision_task_MP_exp2,2020.2.5,Win32,60,m,1,0.701,,,,,,,,0.701,1,,,,,,175,WORD,"ID",16,fabric,FABRIC,m,,,,,,-0.030555556,-0.414814815,0,0,0,,0,279,279,114,1,,
,,,,,,,,,,,,,,,,,,5a6f1ccade1f390001dbd8b7,2020-11-27_08h03.59.687,lexical_decision_task_MP_exp2,2020.2.5,Win32,60,m,1,0.587,,,,,,,,0.587,1,,,,,,94,WORD,"ID",33,travel,TRAVEL,m,,,,,,-0.030555556,-0.414814815,0,0,0,,0,280,280,33,1,,
,,,,,,,,,,,,,,,,,,5a6f1ccade1f390001dbd8b7,2020-11-27_08h03.59.687,lexical_decision_task_MP_exp2,2020.2.5,Win32,60,m,1,0.662,,,,,,,,0.662,1,,,,,,21,WORD,UN,16,jockey,SIMPLE,m,,,,,,-0.030555556,-0.414814815,0,0,0,,0,281,281,200,1,,
,,,,,,,,,,,,,,,,,,5a6f1ccade1f390001dbd8b7,2020-11-27_08h03.59.687,lexical_decision_task_MP_exp2,2020.2.5,Win32,60,m,1,0.945,,,,,,,,0.945,1,,,,,,50,WORD,UN,16,hungry,SNATCH,m,,,,,,-0.030555556,-0.414814815,0,0,0,,0,282,282,229,1,,
,,,,,,,,,,,,,,,,,,5a6f1ccade1f390001dbd8b7,2020-11-27_08h03.59.687,lexical_decision_task_MP_exp2,2020.2.5,Win32,60,m,1,0.612,,,,,,,,0.612,1,,,,,,218,WORD,UN,33,bucket,SHRINK,m,,,,,,-0.030555556,-0.414814815,0,0,0,,0,283,283,157,1,,
,,,,,,,,,,,,,,,,,,5a6f1ccade1f390001dbd8b7,2020-11-27_08h03.59.687,lexical_decision_task_MP_exp2,2020.2.5,Win32,60,m,1,0.543,,,,,,,,0.543,1,,,,,,234,WORD,UN,33,poster,CLUMSY,m,,,,,,-0.030555556,-0.414814815,0,0,0,,0,284,284,173,1,,
,,,,,,,,,,,,,,,,,,5a6f1ccade1f390001dbd8b7,2020-11-27_08h03.59.687,lexical_decision_task_MP_exp2,2020.2.5,Win32,60,z,1,0.601,,,,,,,,0.601,1,,,,,,309,NW,"ID",33,amiloy,AMILOY,z,,,,,,-0.030555556,-0.414814815,0,0,0,,0,285,285,248,1,,
,,,,,,,,,,,,,,,,,,5a6f1ccade1f390001dbd8b7,2020-11-27_08h03.59.687,lexical_decision_task_MP_exp2,2020.2.5,Win32,60,m,1,0.548,,,,,,,,0.548,1,,,,,,80,WORD,"ID",33,family,FAMILY,m,,,,,,-0.030555556,-0.414814815,0,0,0,,0,286,286,19,1,,
,,,,,,,,,,,,,,,,,,5a6f1ccade1f390001dbd8b7,2020-11-27_08h03.59.687,lexical_decision_task_MP_exp2,2020.2.5,Win32,60,m,1,0.641,,,,,,,,0.641,1,,,,,,137,WORD,"ID",16,finger,FINGER,m,,,,,,-0.030555556,-0.414814815,0,0,0,,0,287,287,76,1,,
,,,,,,,,,,,,,,,,,,5a6f1ccade1f390001dbd8b7,2020-11-27_08h03.59.687,lexical_decision_task_MP_exp2,2020.2.5,Win32,60,m,0,0.643,,,,,,,,0.643,0,,,,,,266,NW,UN,16,pasink,VARMIT,z,,,,,,-0.030555556,-0.414814815,0,0,0,,0,288,288,445,1,,
,,,,,,,,,,,,,,,,,,5a6f1ccade1f390001dbd8b7,2020-11-27_08h03.59.687,lexical_decision_task_MP_exp2,2020.2.5,Win32,60,m,1,1.685,,,,,,,,1.685,1,,,,,,205,WORD,UN,33,tailor,LOUNGE,m,,,,,,-0.030555556,-0.414814815,0,0,0,,0,289,289,144,1,,
,,,,,,,,,,,,,,,,,,5a6f1ccade1f390001dbd8b7,2020-11-27_08h03.59.687,lexical_decision_task_MP_exp2,2020.2.5,Win32,60,m,1,0.765,,,,,,,,0.765,1,,,,,,233,WORD,UN,33,clumsy,NATURE,m,,,,,,-0.030555556,-0.414814815,0,0,0,,0,290,290,172,1,,
,,,,,,,,,,,,,,,,,,5a6f1ccade1f390001dbd8b7,2020-11-27_08h03.59.687,lexical_decision_task_MP_exp2,2020.2.5,Win32,60,z,1,0.714,,,,,,,,0.714,1,,,,,,446,NW,UN,33,gircue,RUNAMO,z,,,,,,-0.030555556,-0.414814815,0,0,0,,0,291,291,385,1,,
,,,,,,,,,,,,,,,,,,5a6f1ccade1f390001dbd8b7,2020-11-27_08h03.59.687,lexical_decision_task_MP_exp2,2020.2.5,Win32,60,m,1,0.961,,,,,,,,0.961,1,,,,,,18,WORD,UN,16,patron,HUMBLE,m,,,,,,-0.030555556,-0.414814815,0,0,0,,0,292,292,197,1,,
,,,,,,,,,,,,,,,,,,5a6f1ccade1f390001dbd8b7,2020-11-27_08h03.59.687,lexical_decision_task_MP_exp2,2020.2.5,Win32,60,m,1,1.676,,,,,,,,1.676,1,,,,,,195,WORD,UN,33,credit,RESIGN,m,,,,,,-0.030555556,-0.414814815,0,0,0,,0,293,293,134,1,,
,,,,,,,,,,,,,,,,,,5a6f1ccade1f390001dbd8b7,2020-11-27_08h03.59.687,lexical_decision_task_MP_exp2,2020.2.5,Win32,60,z,1,1,,,,,,,,1,1,,,,,,371,NW,"ID",16,geiloy,GEILOY,z,,,,,,-0.030555556,-0.414814815,0,0,0,,0,294,294,310,1,,
,,,,,,,,,,,,,,,,,,5a6f1ccade1f390001dbd8b7,2020-11-27_08h03.59.687,lexical_decision_task_MP_exp2,2020.2.5,Win32,60,m,1,0.555,,,,,,,,0.555,1,,,,,,87,WORD,"ID",33,filter,FILTER,m,,,,,,-0.030555556,-0.414814815,0,0,0,,0,295,295,26,1,,
,,,,,,,,,,,,,,,,,,5a6f1ccade1f390001dbd8b7,2020-11-27_08h03.59.687,lexical_decision_task_MP_exp2,2020.2.5,Win32,60,m,1,0.537,,,,,,,,0.537,1,,,,,,182,WORD,UN,33,absent,WINTER,m,,,,,,-0.030555556,-0.414814815,0,0,0,,0,296,296,121,1,,
,,,,,,,,,,,,,,,,,,5a6f1ccade1f390001dbd8b7,2020-11-27_08h03.59.687,lexical_decision_task_MP_exp2,2020.2.5,Win32,60,m,1,0.561,,,,,,,,0.561,1,,,,,,147,WORD,"ID",16,garlic,GARLIC,m,,,,,,-0.030555556,-0.414814815,0,0,0,,0,297,297,86,1,,
,,,,,,,,,,,,,,,,,,5a6f1ccade1f390001dbd8b7,2020-11-27_08h03.59.687,lexical_decision_task_MP_exp2,2020.2.5,Win32,60,z,1,0.866,,,,,,,,0.866,1,,,,,,298,NW,UN,16,sturch,PIERGY,z,,,,,,-0.030555556,-0.414814815,0,0,0,,0,298,298,477,1,,
,,,,,,,,,,,,,,,,,,5a6f1ccade1f390001dbd8b7,2020-11-27_08h03.59.687,lexical_decision_task_MP_exp2,2020.2.5,Win32,60,m,1,0.59,,,,,,,,0.59,1,,,,,,130,WORD,"ID",16,stupid,STUPID,m,,,,,,-0.030555556,-0.414814815,0,0,0,,0,299,299,69,1,,
,,,,,,,,,,,,,,,,,,5a6f1ccade1f390001dbd8b7,2020-11-27_08h03.59.687,lexical_decision_task_MP_exp2,2020.2.5,Win32,60,m,1,0.602,,,,,,,,0.602,1,,,,,,83,WORD,"ID",33,result,RESULT,m,,,,,,-0.030555556,-0.414814815,0,0,0,,0,300,300,22,1,,
,,,,,,,,,,,,,,,,,,5a6f1ccade1f390001dbd8b7,2020-11-27_08h03.59.687,lexical_decision_task_MP_exp2,2020.2.5,Win32,60,z,1,1.16,,,,,,,,1.16,1,,,,,,357,NW,"ID",33,derain,DERAIN,z,,,,,,-0.030555556,-0.414814815,0,0,0,,0,301,301,296,1,,
,,,,,,,,,,,,,,,,,,5a6f1ccade1f390001dbd8b7,2020-11-27_08h03.59.687,lexical_decision_task_MP_exp2,2020.2.5,Win32,60,m,1,0.537,,,,,,,,0.537,1,,,,,,27,WORD,UN,16,comedy,SCREAM,m,,,,,,-0.030555556,-0.414814815,0,0,0,,0,302,302,206,1,,
,,,,,,,,,,,,,,,,,,5a6f1ccade1f390001dbd8b7,2020-11-27_08h03.59.687,lexical_decision_task_MP_exp2,2020.2.5,Win32,60,m,1,0.587,,,,,,,,0.587,1,,,,,,226,WORD,UN,33,flower,CASINO,m,,,,,,-0.030555556,-0.414814815,0,0,0,,0,303,303,165,1,,
,,,,,,,,,,,,,,,,,,5a6f1ccade1f390001dbd8b7,2020-11-27_08h03.59.687,lexical_decision_task_MP_exp2,2020.2.5,Win32,60,z,1,0.686,,,,,,,,0.686,1,,,,,,347,NW,"ID",33,kerift,KERIFT,z,,,,,,-0.030555556,-0.414814815,0,0,0,,0,304,304,286,1,,
,,,,,,,,,,,,,,,,,,5a6f1ccade1f390001dbd8b7,2020-11-27_08h03.59.687,lexical_decision_task_MP_exp2,2020.2.5,Win32,60,m,1,0.605,,,,,,,,0.605,1,,,,,,85,WORD,"ID",33,sprawl,SPRAWL,m,,,,,,-0.030555556,-0.414814815,0,0,0,,0,305,305,24,1,,
,,,,,,,,,,,,,,,,,,5a6f1ccade1f390001dbd8b7,2020-11-27_08h03.59.687,lexical_decision_task_MP_exp2,2020.2.5,Win32,60,m,1,0.508,,,,,,,,0.508,1,,,,,,152,WORD,"ID",16,rocket,ROCKET,m,,,,,,-0.030555556,-0.414814815,0,0,0,,0,306,306,91,1,,
,,,,,,,,,,,,,,,,,,5a6f1ccade1f390001dbd8b7,2020-11-27_08h03.59.687,lexical_decision_task_MP_exp2,2020.2.5,Win32,60,z,1,0.655,,,,,,,,0.655,1,,,,,,283,NW,UN,16,shaple,VERALF,z,,,,,,-0.030555556,-0.414814815,0,0,0,,0,307,307,462,1,,
,,,,,,,,,,,,,,,,,,5a6f1ccade1f390001dbd8b7,2020-11-27_08h03.59.687,lexical_decision_task_MP_exp2,2020.2.5,Win32,60,z,1,0.683,,,,,,,,0.683,1,,,,,,343,NW,"ID",33,aimosy,AIMOSY,z,,,,,,-0.030555556,-0.414814815,0,0,0,,0,308,308,282,1,,
,,,,,,,,,,,,,,,,,,5a6f1ccade1f390001dbd8b7,2020-11-27_08h03.59.687,lexical_decision_task_MP_exp2,2020.2.5,Win32,60,z,1,0.6,,,,,,,,0.6,1,,,,,,457,NW,UN,33,barcet,WANIGH,z,,,,,,-0.030555556,-0.414814815,0,0,0,,0,309,309,396,1,,
,,,,,,,,,,,,,,,,,,5a6f1ccade1f390001dbd8b7,2020-11-27_08h03.59.687,lexical_decision_task_MP_exp2,2020.2.5,Win32,60,m,1,0.617,,,,,,,,0.617,1,,,,,,35,WORD,UN,16,vanish,SOCKET,m,,,,,,-0.030555556,-0.414814815,0,0,0,,0,310,310,214,1,,
,,,,,,,,,,,,,,,,,,5a6f1ccade1f390001dbd8b7,2020-11-27_08h03.59.687,lexical_decision_task_MP_exp2,2020.2.5,Win32,60,m,1,0.485,,,,,,,,0.485,1,,,,,,65,WORD,"ID",33,symbol,SYMBOL,m,,,,,,-0.030555556,-0.414814815,0,0,0,,0,311,311,4,1,,
,,,,,,,,,,,,,,,,,,5a6f1ccade1f390001dbd8b7,2020-11-27_08h03.59.687,lexical_decision_task_MP_exp2,2020.2.5,Win32,60,m,1,0.781,,,,,,,,0.781,1,,,,,,212,WORD,UN,33,squeal,VERIFY,m,,,,,,-0.030555556,-0.414814815,0,0,0,,0,312,312,151,1,,
,,,,,,,,,,,,,,,,,,5a6f1ccade1f390001dbd8b7,2020-11-27_08h03.59.687,lexical_decision_task_MP_exp2,2020.2.5,Win32,60,m,1,0.63,,,,,,,,0.63,1,,,,,,38,WORD,UN,16,insect,POWDER,m,,,,,,-0.030555556,-0.414814815,0,0,0,,0,313,313,217,1,,
,,,,,,,,,,,,,,,,,,5a6f1ccade1f390001dbd8b7,2020-11-27_08h03.59.687,lexical_decision_task_MP_exp2,2020.2.5,Win32,60,z,1,0.707,,,,,,,,0.707,1,,,,,,401,NW,"ID",16,mustil,MUSTIL,z,,,,,,-0.030555556,-0.414814815,0,0,0,,0,314,314,340,1,,
,,,,,,,,,,,,,,,,,,5a6f1ccade1f390001dbd8b7,2020-11-27_08h03.59.687,lexical_decision_task_MP_exp2,2020.2.5,Win32,60,m,1,0.65,,,,,,,,0.65,1,,,,,,229,WORD,UN,33,fringe,MOTHER,m,,,,,,-0.030555556,-0.414814815,0,0,0,,0,315,315,168,1,,
,,,,,,,,,,,,,,,,,,5a6f1ccade1f390001dbd8b7,2020-11-27_08h03.59.687,lexical_decision_task_MP_exp2,2020.2.5,Win32,60,z,1,0.66,,,,,,,,0.66,1,,,,,,389,NW,"ID",16,witmer,WITMER,z,,,,,,-0.030555556,-0.414814815,0,0,0,,0,316,316,328,1,,
,,,,,,,,,,,,,,,,,,5a6f1ccade1f390001dbd8b7,2020-11-27_08h03.59.687,lexical_decision_task_MP_exp2,2020.2.5,Win32,60,m,1,0.6,,,,,,,,0.6,1,,,,,,240,WORD,UN,33,seldom,FOREST,m,,,,,,-0.030555556,-0.414814815,0,0,0,,0,317,317,179,1,,
,,,,,,,,,,,,,,,,,,5a6f1ccade1f390001dbd8b7,2020-11-27_08h03.59.687,lexical_decision_task_MP_exp2,2020.2.5,Win32,60,m,1,0.686,,,,,,,,0.686,1,,,,,,40,WORD,UN,16,spring,CONVEY,m,,,,,,-0.030555556,-0.414814815,0,0,0,,0,318,318,219,1,,
,,,,,,,,,,,,,,,,,,5a6f1ccade1f390001dbd8b7,2020-11-27_08h03.59.687,lexical_decision_task_MP_exp2,2020.2.5,Win32,60,z,1,0.72,,,,,,,,0.72,1,,,,,,471,NW,UN,33,cigney,NOBEST,z,,,,,,-0.030555556,-0.414814815,0,0,0,,0,319,319,410,1,,
,,,,,,,,,,,,,,,,,,5a6f1ccade1f390001dbd8b7,2020-11-27_08h03.59.687,lexical_decision_task_MP_exp2,2020.2.5,Win32,60,z,1,1.133,,,,,,,,1.133,1,,,,,,440,NW,UN,33,rastoe,SARIDE,z,,,,,,-0.030555556,-0.414814815,0,0,0,,0,320,320,379,1,,
,,,,,,,,,,,,,,,,,,5a6f1ccade1f390001dbd8b7,2020-11-27_08h03.59.687,lexical_decision_task_MP_exp2,2020.2.5,Win32,60,z,1,1.163,,,,,,,,1.163,1,,,,,,304,NW,"ID",33,cludie,CLUDIE,z,,,,,,-0.030555556,-0.414814815,0,0,0,,0,321,321,243,1,,
,,,,,,,,,,,,,,,,,,5a6f1ccade1f390001dbd8b7,2020-11-27_08h03.59.687,lexical_decision_task_MP_exp2,2020.2.5,Win32,60,z,1,0.78,,,,,,,,0.78,1,,,,,,271,NW,UN,16,damilt,AUBRID,z,,,,,,-0.030555556,-0.414814815,0,0,0,,0,322,322,450,1,,
,,,,,,,,,,,,,,,,,,5a6f1ccade1f390001dbd8b7,2020-11-27_08h03.59.687,lexical_decision_task_MP_exp2,2020.2.5,Win32,60,m,1,0.55,,,,,,,,0.55,1,,,,,,100,WORD,"ID",33,carbon,CARBON,m,,,,,,-0.030555556,-0.414814815,0,0,0,,0,323,323,39,1,,
,,,,,,,,,,,,,,,,,,5a6f1ccade1f390001dbd8b7,2020-11-27_08h03.59.687,lexical_decision_task_MP_exp2,2020.2.5,Win32,60,z,1,0.696,,,,,,,,0.696,1,,,,,,262,NW,UN,16,dolica,QUILEW,z,,,,,,-0.030555556,-0.414814815,0,0,0,,0,324,324,441,1,,
,,,,,,,,,,,,,,,,,,5a6f1ccade1f390001dbd8b7,2020-11-27_08h03.59.687,lexical_decision_task_MP_exp2,2020.2.5,Win32,60,z,1,0.681,,,,,,,,0.681,1,,,,,,253,NW,UN,16,varosh,RESAIT,z,,,,,,-0.030555556,-0.414814815,0,0,0,,0,325,325,432,1,,
,,,,,,,,,,,,,,,,,,5a6f1ccade1f390001dbd8b7,2020-11-27_08h03.59.687,lexical_decision_task_MP_exp2,2020.2.5,Win32,60,z,1,0.7,,,,,,,,0.7,1,,,,,,374,NW,"ID",16,sliant,SLIANT,z,,,,,,-0.030555556,-0.414814815,0,0,0,,0,326,326,313,1,,
,,,,,,,,,,,,,,,,,,5a6f1ccade1f390001dbd8b7,2020-11-27_08h03.59.687,lexical_decision_task_MP_exp2,2020.2.5,Win32,60,m,1,0.579,,,,,,,,0.579,1,,,,,,112,WORD,"ID",33,breath,BREATH,m,,,,,,-0.030555556,-0.414814815,0,0,0,,0,327,327,51,1,,
,,,,,,,,,,,,,,,,,,5a6f1ccade1f390001dbd8b7,2020-11-27_08h03.59.687,lexical_decision_task_MP_exp2,2020.2.5,Win32,60,z,1,0.721,,,,,,,,0.721,1,,,,,,456,NW,UN,33,wanigh,BROGET,z,,,,,,-0.030555556,-0.414814815,0,0,0,,0,328,328,395,1,,
,,,,,,,,,,,,,,,,,,5a6f1ccade1f390001dbd8b7,2020-11-27_08h03.59.687,lexical_decision_task_MP_exp2,2020.2.5,Win32,60,m,1,0.723,,,,,,,,0.723,1,,,,,,32,WORD,UN,16,scream,BUCKLE,m,,,,,,-0.030555556,-0.414814815,0,0,0,,0,329,329,211,1,,
,,,,,,,,,,,,,,,,,,5a6f1ccade1f390001dbd8b7,2020-11-27_08h03.59.687,lexical_decision_task_MP_exp2,2020.2.5,Win32,60,z,1,0.852,,,,,,,,0.852,1,,,,,,368,NW,"ID",16,hornal,HORNAL,z,,,,,,-0.030555556,-0.414814815,0,0,0,,0,330,330,307,1,,
,,,,,,,,,,,,,,,,,,5a6f1ccade1f390001dbd8b7,2020-11-27_08h03.59.687,lexical_decision_task_MP_exp2,2020.2.5,Win32,60,z,1,0.941,,,,,,,,0.941,1,,,,,,254,NW,UN,16,apight,VAROSH,z,,,,,,-0.030555556,-0.414814815,0,0,0,,0,331,331,433,1,,
,,,,,,,,,,,,,,,,,,5a6f1ccade1f390001dbd8b7,2020-11-27_08h03.59.687,lexical_decision_task_MP_exp2,2020.2.5,Win32,60,z,1,0.904,,,,,,,,0.904,1,,,,,,260,NW,UN,16,stunch,UNJECT,z,,,,,,-0.030555556,-0.414814815,0,0,0,,0,332,332,439,1,,
,,,,,,,,,,,,,,,,,,5a6f1ccade1f390001dbd8b7,2020-11-27_08h03.59.687,lexical_decision_task_MP_exp2,2020.2.5,Win32,60,z,1,0.86,,,,,,,,0.86,1,,,,,,450,NW,UN,33,cainky,PHRECT,z,,,,,,-0.030555556,-0.414814815,0,0,0,,0,333,333,389,1,,
,,,,,,,,,,,,,,,,,,5a6f1ccade1f390001dbd8b7,2020-11-27_08h03.59.687,lexical_decision_task_MP_exp2,2020.2.5,Win32,60,z,1,0.989,,,,,,,,0.989,1,,,,,,428,NW,UN,33,funtle,TANDLY,z,,,,,,-0.030555556,-0.414814815,0,0,0,,0,334,334,367,1,,
,,,,,,,,,,,,,,,,,,5a6f1ccade1f390001dbd8b7,2020-11-27_08h03.59.687,lexical_decision_task_MP_exp2,2020.2.5,Win32,60,z,1,1.147,,,,,,,,1.147,1,,,,,,453,NW,UN,33,scouge,BOLVIS,z,,,,,,-0.030555556,-0.414814815,0,0,0,,0,335,335,392,1,,
,,,,,,,,,,,,,,,,,,5a6f1ccade1f390001dbd8b7,2020-11-27_08h03.59.687,lexical_decision_task_MP_exp2,2020.2.5,Win32,60,m,1,0.698,,,,,,,,0.698,1,,,,,,165,WORD,"ID",16,invest,INVEST,m,,,,,,-0.030555556,-0.414814815,0,0,0,,0,336,336,104,1,,
,,,,,,,,,,,,,,,,,,5a6f1ccade1f390001dbd8b7,2020-11-27_08h03.59.687,lexical_decision_task_MP_exp2,2020.2.5,Win32,60,m,1,0.686,,,,,,,,0.686,1,,,,,,134,WORD,"ID",16,staple,STAPLE,m,,,,,,-0.030555556,-0.414814815,0,0,0,,0,337,337,73,1,,
,,,,,,,,,,,,,,,,,,5a6f1ccade1f390001dbd8b7,2020-11-27_08h03.59.687,lexical_decision_task_MP_exp2,2020.2.5,Win32,60,m,1,0.837,,,,,,,,0.837,1,,,,,,59,WORD,UN,16,pencil,SPLINT,m,,,,,,-0.030555556,-0.414814815,0,0,0,,0,338,338,238,1,,
,,,,,,,,,,,,,,,,,,5a6f1ccade1f390001dbd8b7,2020-11-27_08h03.59.687,lexical_decision_task_MP_exp2,2020.2.5,Win32,60,z,1,0.666,,,,,,,,0.666,1,,,,,,394,NW,"ID",16,spaqux,SPAQUX,z,,,,,,-0.030555556,-0.414814815,0,0,0,,0,339,339,333,1,,
,,,,,,,,,,,,,,,,,,5a6f1ccade1f390001dbd8b7,2020-11-27_08h03.59.687,lexical_decision_task_MP_exp2,2020.2.5,Win32,60,z,1,0.733,,,,,,,,0.733,1,,,,,,338,NW,"ID",33,wreash,WREASH,z,,,,,,-0.030555556,-0.414814815,0,0,0,,0,340,340,277,1,,
,,,,,,,,,,,,,,,,,,5a6f1ccade1f390001dbd8b7,2020-11-27_08h03.59.687,lexical_decision_task_MP_exp2,2020.2.5,Win32,60,z,1,0.85,,,,,,,,0.85,1,,,,,,379,NW,"ID",16,auting,AUTING,z,,,,,,-0.030555556,-0.414814815,0,0,0,,0,341,341,318,1,,
,,,,,,,,,,,,,,,,,,5a6f1ccade1f390001dbd8b7,2020-11-27_08h03.59.687,lexical_decision_task_MP_exp2,2020.2.5,Win32,60,m,1,0.652,,,,,,,,0.652,1,,,,,,34,WORD,UN,16,socket,JUNGLE,m,,,,,,-0.030555556,-0.414814815,0,0,0,,0,342,342,213,1,,
,,,,,,,,,,,,,,,,,,5a6f1ccade1f390001dbd8b7,2020-11-27_08h03.59.687,lexical_decision_task_MP_exp2,2020.2.5,Win32,60,m,1,0.664,,,,,,,,0.664,1,,,,,,4,WORD,UN,16,plunge,TRENCH,m,,,,,,-0.030555556,-0.414814815,0,0,0,,0,343,343,183,1,,
,,,,,,,,,,,,,,,,,,5a6f1ccade1f390001dbd8b7,2020-11-27_08h03.59.687,lexical_decision_task_MP_exp2,2020.2.5,Win32,60,m,1,0.733,,,,,,,,0.733,1,,,,,,135,WORD,"ID",16,import,IMPORT,m,,,,,,-0.030555556,-0.414814815,0,0,0,,0,344,344,74,1,,
,,,,,,,,,,,,,,,,,,5a6f1ccade1f390001dbd8b7,2020-11-27_08h03.59.687,lexical_decision_task_MP_exp2,2020.2.5,Win32,60,z,1,0.794,,,,,,,,0.794,1,,,,,,318,NW,"ID",33,reagly,REAGLY,z,,,,,,-0.030555556,-0.414814815,0,0,0,,0,345,345,257,1,,
,,,,,,,,,,,,,,,,,,5a6f1ccade1f390001dbd8b7,2020-11-27_08h03.59.687,lexical_decision_task_MP_exp2,2020.2.5,Win32,60,m,1,0.647,,,,,,,,0.647,1,,,,,,90,WORD,"ID",33,relish,RELISH,m,,,,,,-0.030555556,-0.414814815,0,0,0,,0,346,346,29,1,,
,,,,,,,,,,,,,,,,,,5a6f1ccade1f390001dbd8b7,2020-11-27_08h03.59.687,lexical_decision_task_MP_exp2,2020.2.5,Win32,60,z,1,0.775,,,,,,,,0.775,1,,,,,,270,NW,UN,16,aubrid,WRIMSY,z,,,,,,-0.030555556,-0.414814815,0,0,0,,0,347,347,449,1,,
,,,,,,,,,,,,,,,,,,5a6f1ccade1f390001dbd8b7,2020-11-27_08h03.59.687,lexical_decision_task_MP_exp2,2020.2.5,Win32,60,z,1,0.689,,,,,,,,0.689,1,,,,,,423,NW,UN,33,praile,STRELD,z,,,,,,-0.030555556,-0.414814815,0,0,0,,0,348,348,362,1,,
,,,,,,,,,,,,,,,,,,5a6f1ccade1f390001dbd8b7,2020-11-27_08h03.59.687,lexical_decision_task_MP_exp2,2020.2.5,Win32,60,z,1,1.043,,,,,,,,1.043,1,,,,,,303,NW,"ID",33,fiream,FIREAM,z,,,,,,-0.030555556,-0.414814815,0,0,0,,0,349,349,242,1,,
,,,,,,,,,,,,,,,,,,5a6f1ccade1f390001dbd8b7,2020-11-27_08h03.59.687,lexical_decision_task_MP_exp2,2020.2.5,Win32,60,z,1,0.651,,,,,,,,0.651,1,,,,,,273,NW,UN,16,fumblo,SORTEL,z,,,,,,-0.030555556,-0.414814815,0,0,0,,0,350,350,452,1,,
,,,,,,,,,,,,,,,,,,5a6f1ccade1f390001dbd8b7,2020-11-27_08h03.59.687,lexical_decision_task_MP_exp2,2020.2.5,Win32,60,m,1,0.652,,,,,,,,0.652,1,,,,,,5,WORD,UN,16,bundle,PLUNGE,m,,,,,,-0.030555556,-0.414814815,0,0,0,,0,351,351,184,1,,
,,,,,,,,,,,,,,,,,,5a6f1ccade1f390001dbd8b7,2020-11-27_08h03.59.687,lexical_decision_task_MP_exp2,2020.2.5,Win32,60,z,1,0.676,,,,,,,,0.676,1,,,,,,328,NW,"ID",33,broake,BROAKE,z,,,,,,-0.030555556,-0.414814815,0,0,0,,0,352,352,267,1,,
,,,,,,,,,,,,,,,,,,5a6f1ccade1f390001dbd8b7,2020-11-27_08h03.59.687,lexical_decision_task_MP_exp2,2020.2.5,Win32,60,z,1,0.701,,,,,,,,0.701,1,,,,,,242,NW,UN,16,musied,UNWERT,z,,,,,,-0.030555556,-0.414814815,0,0,0,,0,353,353,421,1,,
,,,,,,,,,,,,,,,,,,5a6f1ccade1f390001dbd8b7,2020-11-27_08h03.59.687,lexical_decision_task_MP_exp2,2020.2.5,Win32,60,m,1,0.57,,,,,,,,0.57,1,,,,,,157,WORD,"ID",16,dragon,DRAGON,m,,,,,,-0.030555556,-0.414814815,0,0,0,,0,354,354,96,1,,
,,,,,,,,,,,,,,,,,,5a6f1ccade1f390001dbd8b7,2020-11-27_08h03.59.687,lexical_decision_task_MP_exp2,2020.2.5,Win32,60,z,1,1.07,,,,,,,,1.07,1,,,,,,409,NW,"ID",16,elopia,ELOPIA,z,,,,,,-0.030555556,-0.414814815,0,0,0,,0,355,355,348,1,,
,,,,,,,,,,,,,,,,,,5a6f1ccade1f390001dbd8b7,2020-11-27_08h03.59.687,lexical_decision_task_MP_exp2,2020.2.5,Win32,60,z,1,0.753,,,,,,,,0.753,1,,,,,,256,NW,UN,16,veniod,INLORS,z,,,,,,-0.030555556,-0.414814815,0,0,0,,0,356,356,435,1,,
,,,,,,,,,,,,,,,,,,5a6f1ccade1f390001dbd8b7,2020-11-27_08h03.59.687,lexical_decision_task_MP_exp2,2020.2.5,Win32,60,m,1,0.585,,,,,,,,0.585,1,,,,,,236,WORD,UN,33,grumpy,PIRATE,m,,,,,,-0.030555556,-0.414814815,0,0,0,,0,357,357,175,1,,
,,,,,,,,,,,,,,,,,,5a6f1ccade1f390001dbd8b7,2020-11-27_08h03.59.687,lexical_decision_task_MP_exp2,2020.2.5,Win32,60,z,1,0.634,,,,,,,,0.634,1,,,,,,274,NW,UN,16,sleirt,FUMBLO,z,,,,,,-0.030555556,-0.414814815,0,0,0,,0,358,358,453,1,,
,,,,,,,,,,,,,,,,,,5a6f1ccade1f390001dbd8b7,2020-11-27_08h03.59.687,lexical_decision_task_MP_exp2,2020.2.5,Win32,60,z,1,0.635,,,,,,,,0.635,1,,,,,,337,NW,"ID",33,rejols,REJOLS,z,,,,,,-0.030555556,-0.414814815,0,0,0,,0,359,359,276,1,,
,,,,,,,,,,,,,,,,,,5a6f1ccade1f390001dbd8b7,2020-11-27_08h03.59.687,lexical_decision_task_MP_exp2,2020.2.5,Win32,60,m,1,0.828,,,,,,,,0.828,1,,,,,,61,WORD,"ID",33,ponder,PONDER,m,,,,,,-0.030555556,-0.414814815,0,0,0,,0,360,360,0,1,,
,,,,,,,,,,,,,,,,,,5a6f1ccade1f390001dbd8b7,2020-11-27_08h03.59.687,lexical_decision_task_MP_exp2,2020.2.5,Win32,60,m,1,1.011,,,,,,,,1.011,1,,,,,,9,WORD,UN,16,bridge,HUSTLE,m,,,,,,-0.030555556,-0.414814815,0,0,0,,0,361,361,188,1,,
,,,,,,,,,,,,,,,,,,5a6f1ccade1f390001dbd8b7,2020-11-27_08h03.59.687,lexical_decision_task_MP_exp2,2020.2.5,Win32,60,m,1,0.817,,,,,,,,0.817,1,,,,,,129,WORD,"ID",16,marvel,MARVEL,m,,,,,,-0.024074074,-0.413888889,1,0,0,,0,362,362,68,1,,break_done_button
,,,,,,,,,,,,,,,,,,5a6f1ccade1f390001dbd8b7,2020-11-27_08h03.59.687,lexical_decision_task_MP_exp2,2020.2.5,Win32,60,m,1,1.113,,,,,,,,1.113,1,,,,,,176,WORD,"ID",16,strife,STRIFE,m,,,,,,-0.017592593,-0.415740741,0,0,0,,0,363,363,115,1,,
,,,,,,,,,,,,,,,,,,5a6f1ccade1f390001dbd8b7,2020-11-27_08h03.59.687,lexical_decision_task_MP_exp2,2020.2.5,Win32,60,z,1,0.661,,,,,,,,0.661,1,,,,,,387,NW,"ID",16,gronce,GRONCE,z,,,,,,-0.017592593,-0.415740741,0,0,0,,0,364,364,326,1,,
,,,,,,,,,,,,,,,,,,5a6f1ccade1f390001dbd8b7,2020-11-27_08h03.59.687,lexical_decision_task_MP_exp2,2020.2.5,Win32,60,m,1,0.655,,,,,,,,0.655,1,,,,,,57,WORD,UN,16,danger,CHANGE,m,,,,,,-0.017592593,-0.415740741,0,0,0,,0,365,365,236,1,,
,,,,,,,,,,,,,,,,,,5a6f1ccade1f390001dbd8b7,2020-11-27_08h03.59.687,lexical_decision_task_MP_exp2,2020.2.5,Win32,60,m,1,0.92,,,,,,,,0.92,1,,,,,,230,WORD,UN,33,mother,FRINGE,m,,,,,,-0.017592593,-0.415740741,0,0,0,,0,366,366,169,1,,
,,,,,,,,,,,,,,,,,,5a6f1ccade1f390001dbd8b7,2020-11-27_08h03.59.687,lexical_decision_task_MP_exp2,2020.2.5,Win32,60,m,1,0.555,,,,,,,,0.555,1,,,,,,11,WORD,UN,16,amount,CRUISE,m,,,,,,-0.017592593,-0.415740741,0,0,0,,0,367,367,190,1,,
,,,,,,,,,,,,,,,,,,5a6f1ccade1f390001dbd8b7,2020-11-27_08h03.59.687,lexical_decision_task_MP_exp2,2020.2.5,Win32,60,m,1,0.614,,,,,,,,0.614,1,,,,,,159,WORD,"ID",16,detail,DETAIL,m,,,,,,-0.017592593,-0.415740741,0,0,0,,0,368,368,98,1,,
,,,,,,,,,,,,,,,,,,5a6f1ccade1f390001dbd8b7,2020-11-27_08h03.59.687,lexical_decision_task_MP_exp2,2020.2.5,Win32,60,z,1,0.637,,,,,,,,0.637,1,,,,,,315,NW,"ID",33,laston,LASTON,z,,,,,,-0.017592593,-0.415740741,0,0,0,,0,369,369,254,1,,
,,,,,,,,,,,,,,,,,,5a6f1ccade1f390001dbd8b7,2020-11-27_08h03.59.687,lexical_decision_task_MP_exp2,2020.2.5,Win32,60,m,1,0.579,,,,,,,,0.579,1,,,,,,149,WORD,"ID",16,invade,INVADE,m,,,,,,-0.017592593,-0.415740741,0,0,0,,0,370,370,88,1,,
,,,,,,,,,,,,,,,,,,5a6f1ccade1f390001dbd8b7,2020-11-27_08h03.59.687,lexical_decision_task_MP_exp2,2020.2.5,Win32,60,m,1,0.574,,,,,,,,0.574,1,,,,,,51,WORD,UN,16,impose,HUNGRY,m,,,,,,-0.017592593,-0.415740741,0,0,0,,0,371,371,230,1,,
,,,,,,,,,,,,,,,,,,5a6f1ccade1f390001dbd8b7,2020-11-27_08h03.59.687,lexical_decision_task_MP_exp2,2020.2.5,Win32,60,m,1,0.534,,,,,,,,0.534,1,,,,,,216,WORD,UN,33,liquor,BEHALF,m,,,,,,-0.017592593,-0.415740741,0,0,0,,0,372,372,155,1,,
,,,,,,,,,,,,,,,,,,5a6f1ccade1f390001dbd8b7,2020-11-27_08h03.59.687,lexical_decision_task_MP_exp2,2020.2.5,Win32,60,z,1,0.707,,,,,,,,0.707,1,,,,,,321,NW,"ID",33,miator,MIATOR,z,,,,,,-0.017592593,-0.415740741,0,0,0,,0,373,373,260,1,,
,,,,,,,,,,,,,,,,,,5a6f1ccade1f390001dbd8b7,2020-11-27_08h03.59.687,lexical_decision_task_MP_exp2,2020.2.5,Win32,60,m,1,0.608,,,,,,,,0.608,1,,,,,,8,WORD,UN,16,hustle,ABRUPT,m,,,,,,-0.017592593,-0.415740741,0,0,0,,0,374,374,187,1,,
,,,,,,,,,,,,,,,,,,5a6f1ccade1f390001dbd8b7,2020-11-27_08h03.59.687,lexical_decision_task_MP_exp2,2020.2.5,Win32,60,m,1,0.534,,,,,,,,0.534,1,,,,,,214,WORD,UN,33,phobia,INTAKE,m,,,,,,-0.017592593,-0.415740741,0,0,0,,0,375,375,153,1,,
,,,,,,,,,,,,,,,,,,5a6f1ccade1f390001dbd8b7,2020-11-27_08h03.59.687,lexical_decision_task_MP_exp2,2020.2.5,Win32,60,z,1,0.734,,,,,,,,0.734,1,,,,,,286,NW,UN,16,nymbel,RELDON,z,,,,,,-0.017592593,-0.415740741,0,0,0,,0,376,376,465,1,,
,,,,,,,,,,,,,,,,,,5a6f1ccade1f390001dbd8b7,2020-11-27_08h03.59.687,lexical_decision_task_MP_exp2,2020.2.5,Win32,60,z,1,0.805,,,,,,,,0.805,1,,,,,,451,NW,UN,33,surden,CAINKY,z,,,,,,-0.017592593,-0.415740741,0,0,0,,0,377,377,390,1,,
,,,,,,,,,,,,,,,,,,5a6f1ccade1f390001dbd8b7,2020-11-27_08h03.59.687,lexical_decision_task_MP_exp2,2020.2.5,Win32,60,m,1,0.638,,,,,,,,0.638,1,,,,,,71,WORD,"ID",33,garden,GARDEN,m,,,,,,-0.017592593,-0.415740741,0,0,0,,0,378,378,10,1,,
,,,,,,,,,,,,,,,,,,5a6f1ccade1f390001dbd8b7,2020-11-27_08h03.59.687,lexical_decision_task_MP_exp2,2020.2.5,Win32,60,z,1,0.724,,,,,,,,0.724,1,,,,,,324,NW,"ID",33,steikh,STEIKH,z,,,,,,-0.017592593,-0.415740741,0,0,0,,0,379,379,263,1,,
,,,,,,,,,,,,,,,,,,5a6f1ccade1f390001dbd8b7,2020-11-27_08h03.59.687,lexical_decision_task_MP_exp2,2020.2.5,Win32,60,m,1,0.551,,,,,,,,0.551,1,,,,,,14,WORD,UN,16,orange,ALMOST,m,,,,,,-0.017592593,-0.415740741,0,0,0,,0,380,380,193,1,,
,,,,,,,,,,,,,,,,,,5a6f1ccade1f390001dbd8b7,2020-11-27_08h03.59.687,lexical_decision_task_MP_exp2,2020.2.5,Win32,60,m,1,0.703,,,,,,,,0.703,1,,,,,,239,WORD,UN,33,forest,LUMBER,m,,,,,,-0.017592593,-0.415740741,0,0,0,,0,381,381,178,1,,
,,,,,,,,,,,,,,,,,,5a6f1ccade1f390001dbd8b7,2020-11-27_08h03.59.687,lexical_decision_task_MP_exp2,2020.2.5,Win32,60,z,1,0.705,,,,,,,,0.705,1,,,,,,278,NW,UN,16,celond,UNIGHS,z,,,,,,-0.017592593,-0.415740741,0,0,0,,0,382,382,457,1,,
,,,,,,,,,,,,,,,,,,5a6f1ccade1f390001dbd8b7,2020-11-27_08h03.59.687,lexical_decision_task_MP_exp2,2020.2.5,Win32,60,m,1,0.954,,,,,,,,0.954,1,,,,,,33,WORD,UN,16,jungle,BUTLER,m,,,,,,-0.017592593,-0.415740741,0,0,0,,0,383,383,212,1,,
,,,,,,,,,,,,,,,,,,5a6f1ccade1f390001dbd8b7,2020-11-27_08h03.59.687,lexical_decision_task_MP_exp2,2020.2.5,Win32,60,m,1,0.565,,,,,,,,0.565,1,,,,,,101,WORD,"ID",33,wrench,WRENCH,m,,,,,,-0.017592593,-0.415740741,0,0,0,,0,384,384,40,1,,
,,,,,,,,,,,,,,,,,,5a6f1ccade1f390001dbd8b7,2020-11-27_08h03.59.687,lexical_decision_task_MP_exp2,2020.2.5,Win32,60,m,1,0.675,,,,,,,,0.675,1,,,,,,193,WORD,UN,33,mildew,OBJECT,m,,,,,,-0.017592593,-0.415740741,0,0,0,,0,385,385,132,1,,
,,,,,,,,,,,,,,,,,,5a6f1ccade1f390001dbd8b7,2020-11-27_08h03.59.687,lexical_decision_task_MP_exp2,2020.2.5,Win32,60,m,1,0.593,,,,,,,,0.593,1,,,,,,41,WORD,UN,16,chapel,SPRING,m,,,,,,-0.017592593,-0.415740741,0,0,0,,0,386,386,220,1,,
,,,,,,,,,,,,,,,,,,5a6f1ccade1f390001dbd8b7,2020-11-27_08h03.59.687,lexical_decision_task_MP_exp2,2020.2.5,Win32,60,z,1,1.079,,,,,,,,1.079,1,,,,,,249,NW,UN,16,milted,BATROL,z,,,,,,-0.017592593,-0.415740741,0,0,0,,0,387,387,428,1,,
,,,,,,,,,,,,,,,,,,5a6f1ccade1f390001dbd8b7,2020-11-27_08h03.59.687,lexical_decision_task_MP_exp2,2020.2.5,Win32,60,z,1,0.8,,,,,,,,0.8,1,,,,,,458,NW,UN,33,hocite,BARCET,z,,,,,,-0.017592593,-0.415740741,0,0,0,,0,388,388,397,1,,
,,,,,,,,,,,,,,,,,,5a6f1ccade1f390001dbd8b7,2020-11-27_08h03.59.687,lexical_decision_task_MP_exp2,2020.2.5,Win32,60,m,1,0.666,,,,,,,,0.666,1,,,,,,114,WORD,"ID",33,placid,PLACID,m,,,,,,-0.017592593,-0.415740741,0,0,0,,0,389,389,53,1,,
,,,,,,,,,,,,,,,,,,5a6f1ccade1f390001dbd8b7,2020-11-27_08h03.59.687,lexical_decision_task_MP_exp2,2020.2.5,Win32,60,z,1,0.755,,,,,,,,0.755,1,,,,,,296,NW,UN,16,fertic,BEINCH,z,,,,,,-0.017592593,-0.415740741,0,0,0,,0,390,390,475,1,,
,,,,,,,,,,,,,,,,,,5a6f1ccade1f390001dbd8b7,2020-11-27_08h03.59.687,lexical_decision_task_MP_exp2,2020.2.5,Win32,60,m,1,0.582,,,,,,,,0.582,1,,,,,,7,WORD,UN,16,abrupt,ANCHOR,m,,,,,,-0.017592593,-0.415740741,0,0,0,,0,391,391,186,1,,
,,,,,,,,,,,,,,,,,,5a6f1ccade1f390001dbd8b7,2020-11-27_08h03.59.687,lexical_decision_task_MP_exp2,2020.2.5,Win32,60,z,1,0.72,,,,,,,,0.72,1,,,,,,435,NW,UN,33,frutan,IMPURB,z,,,,,,-0.017592593,-0.415740741,0,0,0,,0,392,392,374,1,,
,,,,,,,,,,,,,,,,,,5a6f1ccade1f390001dbd8b7,2020-11-27_08h03.59.687,lexical_decision_task_MP_exp2,2020.2.5,Win32,60,m,1,0.53,,,,,,,,0.53,1,,,,,,91,WORD,"ID",33,expand,EXPAND,m,,,,,,-0.017592593,-0.415740741,0,0,0,,0,393,393,30,1,,
,,,,,,,,,,,,,,,,,,5a6f1ccade1f390001dbd8b7,2020-11-27_08h03.59.687,lexical_decision_task_MP_exp2,2020.2.5,Win32,60,z,1,0.659,,,,,,,,0.659,1,,,,,,359,NW,"ID",33,fonver,FONVER,z,,,,,,-0.017592593,-0.415740741,0,0,0,,0,394,394,298,1,,
,,,,,,,,,,,,,,,,,,5a6f1ccade1f390001dbd8b7,2020-11-27_08h03.59.687,lexical_decision_task_MP_exp2,2020.2.5,Win32,60,m,1,0.942,,,,,,,,0.942,1,,,,,,213,WORD,UN,33,intake,SQUEAL,m,,,,,,-0.017592593,-0.415740741,0,0,0,,0,395,395,152,1,,
,,,,,,,,,,,,,,,,,,5a6f1ccade1f390001dbd8b7,2020-11-27_08h03.59.687,lexical_decision_task_MP_exp2,2020.2.5,Win32,60,z,1,0.935,,,,,,,,0.935,1,,,,,,319,NW,"ID",33,zomber,ZOMBER,z,,,,,,-0.017592593,-0.415740741,0,0,0,,0,396,396,258,1,,
,,,,,,,,,,,,,,,,,,5a6f1ccade1f390001dbd8b7,2020-11-27_08h03.59.687,lexical_decision_task_MP_exp2,2020.2.5,Win32,60,z,1,0.682,,,,,,,,0.682,1,,,,,,410,NW,"ID",16,tunory,TUNORY,z,,,,,,-0.017592593,-0.415740741,0,0,0,,0,397,397,349,1,,
,,,,,,,,,,,,,,,,,,5a6f1ccade1f390001dbd8b7,2020-11-27_08h03.59.687,lexical_decision_task_MP_exp2,2020.2.5,Win32,60,z,1,0.698,,,,,,,,0.698,1,,,,,,360,NW,"ID",33,desory,DESORY,z,,,,,,-0.017592593,-0.415740741,0,0,0,,0,398,398,299,1,,
,,,,,,,,,,,,,,,,,,5a6f1ccade1f390001dbd8b7,2020-11-27_08h03.59.687,lexical_decision_task_MP_exp2,2020.2.5,Win32,60,m,1,0.61,,,,,,,,0.61,1,,,,,,127,WORD,"ID",16,castle,CASTLE,m,,,,,,-0.017592593,-0.415740741,0,0,0,,0,399,399,66,1,,
,,,,,,,,,,,,,,,,,,5a6f1ccade1f390001dbd8b7,2020-11-27_08h03.59.687,lexical_decision_task_MP_exp2,2020.2.5,Win32,60,z,1,0.921,,,,,,,,0.921,1,,,,,,287,NW,UN,16,yaceup,NYMBEL,z,,,,,,-0.017592593,-0.415740741,0,0,0,,0,400,400,466,1,,
,,,,,,,,,,,,,,,,,,5a6f1ccade1f390001dbd8b7,2020-11-27_08h03.59.687,lexical_decision_task_MP_exp2,2020.2.5,Win32,60,z,1,0.784,,,,,,,,0.784,1,,,,,,377,NW,"ID",16,injore,INJORE,z,,,,,,-0.017592593,-0.415740741,0,0,0,,0,401,401,316,1,,
