counterbalancing_condition,instr_done_keyboard.keys,instr_done_touch.x,instr_done_touch.y,instr_done_touch.leftButton,instr_done_touch.midButton,instr_done_touch.rightButton,instr_done_touch.clicked_name,instruction_pages.thisRepN,instruction_pages.thisTrialN,instruction_pages.thisN,instruction_pages.thisIndex,instruction_pages.ran,pageN,phase,instruct_text,has_image,instruct_image,participant,date,expName,psychopyVersion,OS,frameRate,response.keys,response.corr,touch_resp.x,touch_resp.y,touch_resp.leftButton,touch_resp.midButton,touch_resp.rightButton,touch_resp.time,touch_resp.clicked_name,rt,corr,practice_trials.thisRepN,practice_trials.thisTrialN,practice_trials.thisN,practice_trials.thisIndex,practice_trials.ran,TrialID,StimulusType,Condition,PrimeDuration,Prime,Target,corrAns,end_of_practice_trials_pages.thisRepN,end_of_practice_trials_pages.thisTrialN,end_of_practice_trials_pages.thisN,end_of_practice_trials_pages.thisIndex,end_of_practice_trials_pages.ran,break_done_touch.x,break_done_touch.y,break_done_touch.leftButton,break_done_touch.midButton,break_done_touch.rightButton,break_done_keyboard.keys,trials.thisRepN,trials.thisTrialN,trials.thisN,trials.thisIndex,trials.ran
1,,0.077225824,-0.400311538,1,0,0,instr_done_button,0,0,0,0,1,1,instructions,"INSTRUCTIONS
At the start of each trial, look at the hash marks (######) in the center of the screen. After a moment, a string of letters will appear. Your task is to indicate if the letter string forms a word or not (i.e., if it is a nonword). For example, AUTHOR is a word while AUTHON is a nonword.

Press the space bar or touch the button below to continue.",0,,5aeef693da09e4000153a21a,2020-11-25_17h35.12.851,lexical_decision_task_MP_exp2,2020.2.5,Linux armv8l,60,,,,,,,,,,,,,,,,,,,,,,,,,,,,,,,,,,,,,,,
,,0.07583092,-0.408784983,1,0,0,instr_done_button,0,1,1,1,1,2,instructions,"If your device has a keyboard, press the 'Z' key for nonwords and the 'M' key for words.





Press the space bar or touch the button below to continue.",1,keyboard-example.gif,5aeef693da09e4000153a21a,2020-11-25_17h35.12.851,lexical_decision_task_MP_exp2,2020.2.5,Linux armv8l,60,,,,,,,,,,,,,,,,,,,,,,,,,,,,,,,,,,,,,,,
,,0.068856884,-0.416630753,1,0,0,instr_done_button,0,2,2,2,1,3,instructions,"If you are using a touchscreen only device, use the buttons on the screen. Do not use the mouse.





Press the space bar or touch the button below to continue.",1,touchscreen-example.gif,5aeef693da09e4000153a21a,2020-11-25_17h35.12.851,lexical_decision_task_MP_exp2,2020.2.5,Linux armv8l,60,,,,,,,,,,,,,,,,,,,,,,,,,,,,,,,,,,,,,,,
,,0.062580301,-0.408157308,1,0,0,instr_done_button,0,3,3,3,1,4,instructions,"It is very important that you respond as quickly and accurately as possible, as each letter string will only be on the screen for two seconds. If you do not respond within this time, the message 'Too slow!' will be displayed and the experiment will progress to the next letter string. The first 20 trials will be practice trials and you will receive feedback on your answers. 

Press the space bar or touch the button below to start the practice trials.",0,,5aeef693da09e4000153a21a,2020-11-25_17h35.12.851,lexical_decision_task_MP_exp2,2020.2.5,Linux armv8l,60,,,,,,,,,,,,,,,,,,,,,,,,,,,,,,,,,,,,,,,
,,,,,,,,,,,,,,,,,,5aeef693da09e4000153a21a,2020-11-25_17h35.12.851,lexical_decision_task_MP_exp2,2020.2.5,Linux armv8l,60,,0,,,,,,,,,-1,0,0,0,9,1,1010,NW,"ID",33,fariny,FARINY,z,,,,,,,,,,,,,,,,
,,,,,,,,,,,,,,,,,,5aeef693da09e4000153a21a,2020-11-25_17h35.12.851,lexical_decision_task_MP_exp2,2020.2.5,Linux armv8l,60,,0,0.504035929,-0.282311073,1,0,0,0.8766,button_right,0.8766,1,0,1,1,4,1,1005,WORD,UN,33,abound,SQUEAK,m,,,,,,,,,,,,,,,,
,,,,,,,,,,,,,,,,,,5aeef693da09e4000153a21a,2020-11-25_17h35.12.851,lexical_decision_task_MP_exp2,2020.2.5,Linux armv8l,60,,0,0.532629362,-0.309928186,1,0,0,0.6737,button_right,0.6737,1,0,2,2,2,1,1003,WORD,"ID",16,almond,ALMOND,m,,,,,,,,,,,,,,,,
,,,,,,,,,,,,,,,,,,5aeef693da09e4000153a21a,2020-11-25_17h35.12.851,lexical_decision_task_MP_exp2,2020.2.5,Linux armv8l,60,,0,0.494969699,-0.297688775,1,0,0,0.688,button_right,0.688,1,0,3,3,7,1,1008,WORD,UN,16,hurdle,VOLUME,m,,,,,,,,,,,,,,,,
,,,,,,,,,,,,,,,,,,5aeef693da09e4000153a21a,2020-11-25_17h35.12.851,lexical_decision_task_MP_exp2,2020.2.5,Linux armv8l,60,,0,0.503338639,-0.322167596,1,0,0,0.7069,button_right,0.7069,1,0,4,4,0,1,1001,WORD,"ID",33,utopia,UTOPIA,m,,,,,,,,,,,,,,,,
,,,,,,,,,,,,,,,,,,5aeef693da09e4000153a21a,2020-11-25_17h35.12.851,lexical_decision_task_MP_exp2,2020.2.5,Linux armv8l,60,,0,0.512404869,-0.307103731,1,0,0,0.5934,button_right,0.5934,1,0,5,5,1,1,1002,WORD,"ID",33,adjust,ADJUST,m,,,,,,,,,,,,,,,,
,,,,,,,,,,,,,,,,,,5aeef693da09e4000153a21a,2020-11-25_17h35.12.851,lexical_decision_task_MP_exp2,2020.2.5,Linux armv8l,60,,0,-0.4967364,-0.321226085,1,0,0,0.8757,button_left,0.8757,1,0,6,6,8,1,1009,NW,"ID",33,aslert,ASLERT,z,,,,,,,,,,,,,,,,
,,,,,,,,,,,,,,,,,,5aeef693da09e4000153a21a,2020-11-25_17h35.12.851,lexical_decision_task_MP_exp2,2020.2.5,Linux armv8l,60,,0,0.54099814,-0.299571799,1,0,0,0.6388,button_right,0.6388,1,0,7,7,3,1,1004,WORD,"ID",16,matrix,MATRIX,m,,,,,,,,,,,,,,,,
,,,,,,,,,,,,,,,,,,5aeef693da09e4000153a21a,2020-11-25_17h35.12.851,lexical_decision_task_MP_exp2,2020.2.5,Linux armv8l,60,,0,-0.420022089,-0.301768579,1,0,0,1.0097,button_left,1.0097,1,0,8,8,14,1,1015,NW,UN,16,miaber,THRALE,z,,,,,,,,,,,,,,,,
,,,,,,,,,,,,,,,,,,5aeef693da09e4000153a21a,2020-11-25_17h35.12.851,lexical_decision_task_MP_exp2,2020.2.5,Linux armv8l,60,,0,-0.450010426,-0.30835908,1,0,0,0.8759,button_left,0.8759,1,0,9,9,11,1,1012,NW,"ID",16,rashet,RASHET,z,,,,,,,,,,,,,,,,
,,,,,,,,,,,,,,,,,,5aeef693da09e4000153a21a,2020-11-25_17h35.12.851,lexical_decision_task_MP_exp2,2020.2.5,Linux armv8l,60,,0,-0.42490393,-0.310869698,1,0,0,0.6954,button_left,0.6954,1,0,10,10,13,1,1014,NW,UN,33,winfer,ROUPET,z,,,,,,,,,,,,,,,,
,,,,,,,,,,,,,,,,,,5aeef693da09e4000153a21a,2020-11-25_17h35.12.851,lexical_decision_task_MP_exp2,2020.2.5,Linux armv8l,60,,0,-0.436062355,-0.298002612,1,0,0,0.7401,button_left,0.7401,1,0,11,11,15,1,1016,NW,UN,16,mushed,WHAISE,z,,,,,,,,,,,,,,,,
,,,,,,,,,,,,,,,,,,5aeef693da09e4000153a21a,2020-11-25_17h35.12.851,lexical_decision_task_MP_exp2,2020.2.5,Linux armv8l,60,,0,-0.438852002,-0.314007989,1,0,0,0.6623,button_left,0.6623,1,0,12,12,12,1,1013,NW,UN,33,adveil,SPRINY,z,,,,,,,,,,,,,,,,
,,,,,,,,,,,,,,,,,,5aeef693da09e4000153a21a,2020-11-25_17h35.12.851,lexical_decision_task_MP_exp2,2020.2.5,Linux armv8l,60,,0,-0.461866303,-0.319343142,1,0,0,0.7584,button_left,0.7584,1,0,13,13,10,1,1011,NW,"ID",16,inlade,INLADE,z,,,,,,,,,,,,,,,,
,,,,,,,,,,,,,,,,,,5aeef693da09e4000153a21a,2020-11-25_17h35.12.851,lexical_decision_task_MP_exp2,2020.2.5,Linux armv8l,60,,0,0.525655488,-0.313066477,1,0,0,0.9249,button_right,0.9249,1,0,14,14,5,1,1006,WORD,UN,33,frenzy,OBTAIN,m,,,,,,,,,,,,,,,,
,,,,,,,,,,,,,,,,,,5aeef693da09e4000153a21a,2020-11-25_17h35.12.851,lexical_decision_task_MP_exp2,2020.2.5,Linux armv8l,60,,0,0.524260584,-0.306789894,1,0,0,0.6409,button_right,0.6409,1,0,15,15,6,1,1007,WORD,UN,16,tropic,ZOMBIE,m,,,,,,,,,,,,,,,,
,,0.085594602,-0.411609437,1,0,0,instr_done_button,,,,,,1,end_of_practice,"You have completed the practice trials. During the experimental trials, you will not receive feedback, but it is very important that you respond as quickly and accurately as possible. 
Before you begin, please ensure that you are in a comfortable and quiet location and will not be disturbed for about 15 minutes, as we cannot use your data if you do not complete all the trials. 
There will be opportunities to take breaks at regular intervals during the experiment. When you are ready to start the experimental trials, please press space or touch the button below.",,,5aeef693da09e4000153a21a,2020-11-25_17h35.12.851,lexical_decision_task_MP_exp2,2020.2.5,Linux armv8l,60,,,,,,,,,,,,,,,,,,,,,,,,0,0,0,0,1,,,,,,,,,,,
,,,,,,,,,,,,,,,,,,5aeef693da09e4000153a21a,2020-11-25_17h35.12.851,lexical_decision_task_MP_exp2,2020.2.5,Linux armv8l,60,,0,-0.446523408,-0.310869698,1,0,0,0.8619,button_left,0.8619,1,,,,,,439,NW,UN,16,saride,LIMPOR,z,,,,,,-0.446523408,-0.310869698,1,0,0,,0,0,0,438,1
,,,,,,,,,,,,,,,,,,5aeef693da09e4000153a21a,2020-11-25_17h35.12.851,lexical_decision_task_MP_exp2,2020.2.5,Linux armv8l,60,,0,-0.517658426,-0.333779413,1,0,0,0.7168,button_left,0.7168,1,,,,,,310,NW,"ID",16,daniet,DANIET,z,,,,,,-0.517658426,-0.333779413,1,0,0,,0,1,1,309,1
,,,,,,,,,,,,,,,,,,5aeef693da09e4000153a21a,2020-11-25_17h35.12.851,lexical_decision_task_MP_exp2,2020.2.5,Linux armv8l,60,,0,0.501943735,-0.305534545,1,0,0,0.8969,button_right,0.8969,1,,,,,,104,WORD,"ID",16,studio,STUDIO,m,,,,,,0.501943735,-0.305534545,1,0,0,,0,2,2,103,1
,,,,,,,,,,,,,,,,,,5aeef693da09e4000153a21a,2020-11-25_17h35.12.851,lexical_decision_task_MP_exp2,2020.2.5,Linux armv8l,60,,0,0.478929434,-0.306476057,1,0,0,0.5965,button_right,0.5965,1,,,,,,27,WORD,"ID",33,scream,SCREAM,m,,,,,,0.478929434,-0.306476057,1,0,0,,0,3,3,26,1
,,,,,,,,,,,,,,,,,,5aeef693da09e4000153a21a,2020-11-25_17h35.12.851,lexical_decision_task_MP_exp2,2020.2.5,Linux armv8l,60,,0,0.458007489,-0.315263338,1,0,0,0.6927,button_right,0.6927,1,,,,,,126,WORD,UN,33,castle,ENOUGH,m,,,,,,0.458007489,-0.315263338,1,0,0,,0,4,4,125,1
,,,,,,,,,,,,,,,,,,5aeef693da09e4000153a21a,2020-11-25_17h35.12.851,lexical_decision_task_MP_exp2,2020.2.5,Linux armv8l,60,,0,-0.461866303,-0.322167596,1,0,0,0.7305,button_left,0.7305,1,,,,,,410,NW,UN,33,orchin,TUNORY,z,,,,,,-0.461866303,-0.322167596,1,0,0,,0,5,5,409,1
,,,,,,,,,,,,,,,,,,5aeef693da09e4000153a21a,2020-11-25_17h35.12.851,lexical_decision_task_MP_exp2,2020.2.5,Linux armv8l,60,,0,0.498456798,-0.303651602,1,0,0,0.78,button_right,0.78,1,,,,,,50,WORD,"ID",33,snatch,SNATCH,m,,,,,,0.498456798,-0.303651602,1,0,0,,0,6,6,49,1
,,,,,,,,,,,,,,,,,,5aeef693da09e4000153a21a,2020-11-25_17h35.12.851,lexical_decision_task_MP_exp2,2020.2.5,Linux armv8l,60,,0,-0.479998763,-0.295805832,1,0,0,0.8134,button_left,0.8134,1,,,,,,420,NW,UN,33,pauche,GUSHOP,z,,,,,,-0.479998763,-0.295805832,1,0,0,,0,7,7,419,1
,,,,,,,,,,,,,,,,,,5aeef693da09e4000153a21a,2020-11-25_17h35.12.851,lexical_decision_task_MP_exp2,2020.2.5,Linux armv8l,60,,0,0.497061894,-0.312125047,1,0,0,0.6627,button_right,0.6627,1,,,,,,192,WORD,UN,16,object,PLAGUE,m,,,,,,0.497061894,-0.312125047,1,0,0,,0,8,8,191,1
,,,,,,,,,,,,,,,,,,5aeef693da09e4000153a21a,2020-11-25_17h35.12.851,lexical_decision_task_MP_exp2,2020.2.5,Linux armv8l,60,,0,-0.461168851,-0.31620485,1,0,0,0.8306,button_left,0.8306,1,,,,,,352,NW,"ID",16,tringe,TRINGE,z,,,,,,-0.461168851,-0.31620485,1,0,0,,0,9,9,351,1
,,,,,,,,,,,,,,,,,,5aeef693da09e4000153a21a,2020-11-25_17h35.12.851,lexical_decision_task_MP_exp2,2020.2.5,Linux armv8l,60,,0,-0.424206559,-0.315577176,1,0,0,0.5805,button_left,0.5805,0,,,,,,204,WORD,UN,16,lounge,BURDEN,m,,,,,,-0.424206559,-0.315577176,1,0,0,,0,10,10,203,1
,,,,,,,,,,,,,,,,,,5aeef693da09e4000153a21a,2020-11-25_17h35.12.851,lexical_decision_task_MP_exp2,2020.2.5,Linux armv8l,60,,0,0.46358662,-0.298630287,1,0,0,0.7413,button_right,0.7413,1,,,,,,62,WORD,"ID",16,region,REGION,m,,,,,,0.46358662,-0.298630287,1,0,0,,0,11,11,61,1
,,,,,,,,,,,,,,,,,,5aeef693da09e4000153a21a,2020-11-25_17h35.12.851,lexical_decision_task_MP_exp2,2020.2.5,Linux armv8l,60,,0,-0.438852002,-0.308045243,1,0,0,0.719,button_left,0.719,1,,,,,,461,NW,UN,16,absult,JUSTRE,z,,,,,,-0.438852002,-0.308045243,1,0,0,,0,12,12,460,1
,,,,,,,,,,,,,,,,,,5aeef693da09e4000153a21a,2020-11-25_17h35.12.851,lexical_decision_task_MP_exp2,2020.2.5,Linux armv8l,60,,0,0.485206179,-0.29611967,1,0,0,0.7009,button_right,0.7009,1,,,,,,188,WORD,UN,16,censor,SOCIAL,m,,,,,,0.485206179,-0.29611967,1,0,0,,0,13,13,187,1
,,,,,,,,,,,,,,,,,,5aeef693da09e4000153a21a,2020-11-25_17h35.12.851,lexical_decision_task_MP_exp2,2020.2.5,Linux armv8l,60,,0,0.527050231,-0.288587656,1,0,0,0.6129,button_right,0.6129,1,,,,,,53,WORD,"ID",33,police,POLICE,m,,,,,,0.527050231,-0.288587656,1,0,0,,0,14,14,52,1
,,,,,,,,,,,,,,,,,,5aeef693da09e4000153a21a,2020-11-25_17h35.12.851,lexical_decision_task_MP_exp2,2020.2.5,Linux armv8l,60,,0,-0.454194815,-0.304279277,1,0,0,0.6846,button_left,0.6846,1,,,,,,354,NW,"ID",16,virlex,VIRLEX,z,,,,,,-0.454194815,-0.304279277,1,0,0,,0,15,15,353,1
,,,,,,,,,,,,,,,,,,5aeef693da09e4000153a21a,2020-11-25_17h35.12.851,lexical_decision_task_MP_exp2,2020.2.5,Linux armv8l,60,,0,0.498456798,-0.285763202,1,0,0,0.7677,button_right,0.7677,1,,,,,,85,WORD,"ID",16,sprawl,SPRAWL,m,,,,,,0.498456798,-0.285763202,1,0,0,,0,16,16,84,1
,,,,,,,,,,,,,,,,,,5aeef693da09e4000153a21a,2020-11-25_17h35.12.851,lexical_decision_task_MP_exp2,2020.2.5,Linux armv8l,60,,0,-0.422811736,-0.289529168,1,0,0,0.7634,button_left,0.7634,1,,,,,,374,NW,UN,33,yorque,SLIANT,z,,,,,,-0.422811736,-0.289529168,1,0,0,,0,17,17,373,1
,,,,,,,,,,,,,,,,,,5aeef693da09e4000153a21a,2020-11-25_17h35.12.851,lexical_decision_task_MP_exp2,2020.2.5,Linux armv8l,60,,0,-0.442339019,-0.295178158,1,0,0,1.2777,button_left,1.2777,1,,,,,,462,NW,UN,16,kispel,ABSULT,z,,,,,,-0.442339019,-0.295178158,1,0,0,,0,18,18,461,1
,,,,,,,,,,,,,,,,,,5aeef693da09e4000153a21a,2020-11-25_17h35.12.851,lexical_decision_task_MP_exp2,2020.2.5,Linux armv8l,60,,0,0.476139949,-0.285763202,1,0,0,0.6634,button_right,0.6634,1,,,,,,168,WORD,UN,33,genius,ANSWER,m,,,,,,0.476139949,-0.285763202,1,0,0,,0,19,19,167,1
,,,,,,,,,,,,,,,,,,5aeef693da09e4000153a21a,2020-11-25_17h35.12.851,lexical_decision_task_MP_exp2,2020.2.5,Linux armv8l,60,,0,-0.433272789,-0.31840163,1,0,0,0.9473,button_left,0.9473,1,,,,,,248,NW,"ID",33,strole,STROLE,z,,,,,,-0.433272789,-0.31840163,1,0,0,,0,20,20,247,1
,,,,,,,,,,,,,,,,,,5aeef693da09e4000153a21a,2020-11-25_17h35.12.851,lexical_decision_task_MP_exp2,2020.2.5,Linux armv8l,60,,0,-0.393520851,-0.324364457,1,0,0,1.4291,button_left,1.4291,1,,,,,,302,NW,"ID",16,miluer,MILUER,z,,,,,,-0.393520851,-0.324364457,1,0,0,,0,21,21,301,1
,,,,,,,,,,,,,,,,,,5aeef693da09e4000153a21a,2020-11-25_17h35.12.851,lexical_decision_task_MP_exp2,2020.2.5,Linux armv8l,60,,0,0.474745045,-0.274151466,1,0,0,0.7633,button_right,0.7633,1,,,,,,154,WORD,UN,33,lizard,AUTHOR,m,,,,,,0.474745045,-0.274151466,1,0,0,,0,22,22,153,1
,,,,,,,,,,,,,,,,,,5aeef693da09e4000153a21a,2020-11-25_17h35.12.851,lexical_decision_task_MP_exp2,2020.2.5,Linux armv8l,60,,0,0.513102321,-0.286390876,1,0,0,0.7923,button_right,0.7923,1,,,,,,125,WORD,UN,33,blouse,NICKEL,m,,,,,,0.513102321,-0.286390876,1,0,0,,0,23,23,124,1
,,,,,,,,,,,,,,,,,,5aeef693da09e4000153a21a,2020-11-25_17h35.12.851,lexical_decision_task_MP_exp2,2020.2.5,Linux armv8l,60,,0,0.506825576,-0.29266746,1,0,0,0.8268,button_right,0.8268,1,,,,,,164,WORD,UN,33,invest,MARKET,m,,,,,,0.506825576,-0.29266746,1,0,0,,0,24,24,163,1
,,,,,,,,,,,,,,,,,,5aeef693da09e4000153a21a,2020-11-25_17h35.12.851,lexical_decision_task_MP_exp2,2020.2.5,Linux armv8l,60,,0,-0.394218222,-0.282938747,1,0,0,0.6627,button_left,0.6627,1,,,,,,307,NW,"ID",16,kirafe,KIRAFE,z,,,,,,-0.394218222,-0.282938747,1,0,0,,0,25,25,306,1
,,,,,,,,,,,,,,,,,,5aeef693da09e4000153a21a,2020-11-25_17h35.12.851,lexical_decision_task_MP_exp2,2020.2.5,Linux armv8l,60,,0,0.432900831,-0.271954686,1,0,0,0.8605,button_right,0.8605,1,,,,,,48,WORD,"ID",33,walnut,WALNUT,m,,,,,,0.432900831,-0.271954686,1,0,0,,0,26,26,47,1
,,,,,,,,,,,,,,,,,,5aeef693da09e4000153a21a,2020-11-25_17h35.12.851,lexical_decision_task_MP_exp2,2020.2.5,Linux armv8l,60,,0,-0.420719541,-0.315577176,1,0,0,0.6834,button_left,0.6834,1,,,,,,387,NW,UN,33,cragin,GRONCE,z,,,,,,-0.420719541,-0.315577176,1,0,0,,0,27,27,386,1
,,,,,,,,,,,,,,,,,,5aeef693da09e4000153a21a,2020-11-25_17h35.12.851,lexical_decision_task_MP_exp2,2020.2.5,Linux armv8l,60,,0,-0.424206559,-0.2882739,1,0,0,0.9269,button_left,0.9269,1,,,,,,268,NW,"ID",33,packes,PACKES,z,,,,,,-0.424206559,-0.2882739,1,0,0,,0,28,28,267,1
,,,,,,,,,,,,,,,,,,5aeef693da09e4000153a21a,2020-11-25_17h35.12.851,lexical_decision_task_MP_exp2,2020.2.5,Linux armv8l,60,,0,-0.412350763,-0.295491995,1,0,0,0.7279,button_left,0.7279,1,,,,,,388,NW,UN,33,witmer,CRAGIN,z,,,,,,-0.412350763,-0.295491995,1,0,0,,0,29,29,387,1
,,,,,,,,,,,,,,,,,,5aeef693da09e4000153a21a,2020-11-25_17h35.12.851,lexical_decision_task_MP_exp2,2020.2.5,Linux armv8l,60,,0,0.457310037,-0.26913015,1,0,0,0.6469,button_right,0.6469,1,,,,,,72,WORD,"ID",16,bright,BRIGHT,m,,,,,,0.457310037,-0.26913015,1,0,0,,0,30,30,71,1
,,,,,,,,,,,,,,,,,,5aeef693da09e4000153a21a,2020-11-25_17h35.12.851,lexical_decision_task_MP_exp2,2020.2.5,Linux armv8l,60,,0,0.447546354,-0.274151466,1,0,0,0.648,button_right,0.648,1,,,,,,96,WORD,"ID",16,ignore,IGNORE,m,,,,,,0.447546354,-0.274151466,1,0,0,,0,31,31,95,1
,,,,,,,,,,,,,,,,,,5aeef693da09e4000153a21a,2020-11-25_17h35.12.851,lexical_decision_task_MP_exp2,2020.2.5,Linux armv8l,60,,0,-0.411653311,-0.292353703,1,0,0,0.7491,button_left,0.7491,1,,,,,,295,NW,"ID",33,gleath,GLEATH,z,,,,,,-0.411653311,-0.292353703,1,0,0,,0,32,32,294,1
,,,,,,,,,,,,,,,,,,5aeef693da09e4000153a21a,2020-11-25_17h35.12.851,lexical_decision_task_MP_exp2,2020.2.5,Linux armv8l,60,,0,-0.423509188,-0.288587656,1,0,0,0.7468,button_left,0.7468,1,,,,,,428,NW,UN,16,chrums,TANDLY,z,,,,,,-0.423509188,-0.288587656,1,0,0,,0,33,33,427,1
,,,,,,,,,,,,,,,,,,5aeef693da09e4000153a21a,2020-11-25_17h35.12.851,lexical_decision_task_MP_exp2,2020.2.5,Linux armv8l,60,,0,0.432900831,-0.262853567,1,0,0,0.6492,button_right,0.6492,1,,,,,,150,WORD,UN,33,mystic,RANDOM,m,,,,,,0.432900831,-0.262853567,1,0,0,,0,34,34,149,1
,,,,,,,,,,,,,,,,,,5aeef693da09e4000153a21a,2020-11-25_17h35.12.851,lexical_decision_task_MP_exp2,2020.2.5,Linux armv8l,60,,0,0.422439859,-0.271013174,1,0,0,0.585,button_right,0.585,1,,,,,,41,WORD,"ID",33,spring,SPRING,m,,,,,,0.422439859,-0.271013174,1,0,0,,0,35,35,40,1
,,,,,,,,,,,,,,,,,,5aeef693da09e4000153a21a,2020-11-25_17h35.12.851,lexical_decision_task_MP_exp2,2020.2.5,Linux armv8l,60,,0,0.430111346,-0.268816313,1,0,0,0.5802,button_right,0.5802,1,,,,,,203,WORD,UN,16,burden,PHRASE,m,,,,,,0.430111346,-0.268816313,1,0,0,,0,36,36,202,1
,,,,,,,,,,,,,,,,,,5aeef693da09e4000153a21a,2020-11-25_17h35.12.851,lexical_decision_task_MP_exp2,2020.2.5,Linux armv8l,60,,0,0.421742568,-0.27258236,1,0,0,0.5799,button_right,0.5799,1,,,,,,209,WORD,UN,16,monkey,SEARCH,m,,,,,,0.421742568,-0.27258236,1,0,0,,0,37,37,208,1
,,,,,,,,,,,,,,,,,,5aeef693da09e4000153a21a,2020-11-25_17h35.12.851,lexical_decision_task_MP_exp2,2020.2.5,Linux armv8l,60,,0,-0.410258488,-0.294236646,1,0,0,0.5996,button_left,0.5996,1,,,,,,409,NW,UN,33,tunory,ELOPIA,z,,,,,,-0.410258488,-0.294236646,1,0,0,,0,38,38,408,1
,,,,,,,,,,,,,,,,,,5aeef693da09e4000153a21a,2020-11-25_17h35.12.851,lexical_decision_task_MP_exp2,2020.2.5,Linux armv8l,60,,0,-0.399100063,-0.285449364,1,0,0,1.4929,button_left,1.4929,1,,,,,,454,NW,UN,16,tondle,SCOUGE,z,,,,,,-0.399100063,-0.285449364,1,0,0,,0,39,39,453,1
,,,,,,,,,,,,,,,,,,5aeef693da09e4000153a21a,2020-11-25_17h35.12.851,lexical_decision_task_MP_exp2,2020.2.5,Linux armv8l,60,,0,0.430808798,-0.279486618,1,0,0,0.7766,button_right,0.7766,1,,,,,,18,WORD,"ID",33,humble,HUMBLE,m,,,,,,0.430808798,-0.279486618,1,0,0,,0,40,40,17,1
,,,,,,,,,,,,,,,,,,5aeef693da09e4000153a21a,2020-11-25_17h35.12.851,lexical_decision_task_MP_exp2,2020.2.5,Linux armv8l,60,,0,0.418952922,-0.280428049,1,0,0,0.6476,button_right,0.6476,1,,,,,,208,WORD,UN,16,search,HOCKEY,m,,,,,,0.418952922,-0.280428049,1,0,0,,0,41,41,207,1
,,,,,,,,,,,,,,,,,,5aeef693da09e4000153a21a,2020-11-25_17h35.12.851,lexical_decision_task_MP_exp2,2020.2.5,Linux armv8l,60,,0,0.434993187,-0.265050347,1,0,0,0.6978,button_right,0.6978,1,,,,,,128,WORD,UN,33,marvel,SENIOR,m,,,,,,0.434993187,-0.265050347,1,0,0,,0,42,42,127,1
,,,,,,,,,,,,,,,,,,5aeef693da09e4000153a21a,2020-11-25_17h35.12.851,lexical_decision_task_MP_exp2,2020.2.5,Linux armv8l,60,,0,-0.395613046,-0.281055724,1,0,0,0.7124,button_left,0.7124,1,,,,,,288,NW,"ID",33,yaceup,YACEUP,z,,,,,,-0.395613046,-0.281055724,1,0,0,,0,43,43,287,1
,,,,,,,,,,,,,,,,,,5aeef693da09e4000153a21a,2020-11-25_17h35.12.851,lexical_decision_task_MP_exp2,2020.2.5,Linux armv8l,60,,0,0.40500485,-0.297374938,1,0,0,1.151,button_right,1.151,1,,,,,,187,WORD,UN,16,social,COURSE,m,,,,,,0.40500485,-0.297374938,1,0,0,,0,44,44,186,1
,,,,,,,,,,,,,,,,,,5aeef693da09e4000153a21a,2020-11-25_17h35.12.851,lexical_decision_task_MP_exp2,2020.2.5,Linux armv8l,60,,0,0.432900831,-0.270071662,1,0,0,0.6791,button_right,0.6791,1,,,,,,118,WORD,"ID",16,flight,FLIGHT,m,,,,,,0.432900831,-0.270071662,1,0,0,,0,45,45,117,1
,,,,,,,,,,,,,,,,,,5aeef693da09e4000153a21a,2020-11-25_17h35.12.851,lexical_decision_task_MP_exp2,2020.2.5,Linux armv8l,60,,0,0.448941259,-0.27258236,1,0,0,0.6632,button_right,0.6632,1,,,,,,191,WORD,UN,16,absent,STABLE,m,,,,,,0.448941259,-0.27258236,1,0,0,,0,46,46,190,1
,,,,,,,,,,,,,,,,,,5aeef693da09e4000153a21a,2020-11-25_17h35.12.851,lexical_decision_task_MP_exp2,2020.2.5,Linux armv8l,60,,0,-0.394915674,-0.270385499,1,0,0,0.7129,button_left,0.7129,1,,,,,,396,NW,UN,33,camble,FLENGY,z,,,,,,-0.394915674,-0.270385499,1,0,0,,0,47,47,395,1
,,,,,,,,,,,,,,,,,,5aeef693da09e4000153a21a,2020-11-25_17h35.12.851,lexical_decision_task_MP_exp2,2020.2.5,Linux armv8l,60,,0,-0.412350763,-0.274151466,1,0,0,0.6971,button_left,0.6971,1,,,,,,459,NW,UN,16,mingar,BAFENT,z,,,,,,-0.412350763,-0.274151466,1,0,0,,0,48,48,458,1
,,,,,,,,,,,,,,,,,,5aeef693da09e4000153a21a,2020-11-25_17h35.12.851,lexical_decision_task_MP_exp2,2020.2.5,Linux armv8l,60,,0,0.441967061,-0.26913015,1,0,0,0.6963,button_right,0.6963,1,,,,,,19,WORD,"ID",33,patron,PATRON,m,,,,,,0.441967061,-0.26913015,1,0,0,,0,49,49,18,1
,,,,,,,,,,,,,,,,,,5aeef693da09e4000153a21a,2020-11-25_17h35.12.851,lexical_decision_task_MP_exp2,2020.2.5,Linux armv8l,60,,0,-0.390033833,-0.279800456,1,0,0,0.945,button_left,0.945,1,,,,,,455,NW,UN,16,broget,TONDLE,z,,,,,,-0.390033833,-0.279800456,1,0,0,,0,50,50,454,1
,,,,,,,,,,,,,,,,,,5aeef693da09e4000153a21a,2020-11-25_17h35.12.851,lexical_decision_task_MP_exp2,2020.2.5,Linux armv8l,60,,0,0.44545416,-0.270385499,1,0,0,0.6641,button_right,0.6641,1,,,,,,233,WORD,UN,16,clumsy,NATURE,m,,,,,,0.44545416,-0.270385499,1,0,0,,0,51,51,232,1
,,,,,,,,,,,,,,,,,,5aeef693da09e4000153a21a,2020-11-25_17h35.12.851,lexical_decision_task_MP_exp2,2020.2.5,Linux armv8l,60,,0,0.437085382,-0.26128438,1,0,0,0.8962,button_right,0.8962,1,,,,,,4,WORD,"ID",33,trench,TRENCH,m,,,,,,0.437085382,-0.26128438,1,0,0,,0,52,52,3,1
,,,,,,,,,,,,,,,,,,5aeef693da09e4000153a21a,2020-11-25_17h35.12.851,lexical_decision_task_MP_exp2,2020.2.5,Linux armv8l,60,,0,-0.395613046,-0.24684819,1,0,0,0.7738,button_left,0.7738,1,,,,,,299,NW,"ID",33,sturch,STURCH,z,,,,,,-0.395613046,-0.24684819,1,0,0,,0,53,53,298,1
,,,,,,,,,,,,,,,,,,5aeef693da09e4000153a21a,2020-11-25_17h35.12.851,lexical_decision_task_MP_exp2,2020.2.5,Linux armv8l,60,,0,-0.410955859,-0.263795079,1,0,0,0.6319,button_left,0.6319,1,,,,,,333,NW,"ID",16,catrie,CATRIE,z,,,,,,-0.410955859,-0.263795079,1,0,0,,0,54,54,332,1
,,,,,,,,,,,,,,,,,,5aeef693da09e4000153a21a,2020-11-25_17h35.12.851,lexical_decision_task_MP_exp2,2020.2.5,Linux armv8l,60,,0,0.426624409,-0.278545106,1,0,0,0.7291,button_right,0.7291,1,,,,,,197,WORD,UN,16,wicked,STREAM,m,,,,,,0.426624409,-0.278545106,1,0,0,,0,55,55,196,1
,,,,,,,,,,,,,,,,,,5aeef693da09e4000153a21a,2020-11-25_17h35.12.851,lexical_decision_task_MP_exp2,2020.2.5,Linux armv8l,60,,0,-0.371203921,-0.253124773,1,0,0,1.2954,button_left,1.2954,1,,,,,,411,NW,UN,33,jiluer,ORCHIN,z,,,,,,-0.371203921,-0.253124773,1,0,0,,0,56,56,410,1
,,,,,,,,,,,,,,,,,,5aeef693da09e4000153a21a,2020-11-25_17h35.12.851,lexical_decision_task_MP_exp2,2020.2.5,Linux armv8l,60,,0,0.429413894,-0.274151466,1,0,0,0.7795,button_right,0.7795,1,,,,,,153,WORD,UN,33,author,BEHOLD,m,,,,,,0.429413894,-0.274151466,1,0,0,,0,57,57,152,1
,,,,,,,,,,,,,,,,,,5aeef693da09e4000153a21a,2020-11-25_17h35.12.851,lexical_decision_task_MP_exp2,2020.2.5,Linux armv8l,60,,0,0.423834601,-0.281369561,1,0,0,1.8431,button_right,1.8431,1,,,,,,65,WORD,"ID",16,symbol,SYMBOL,m,,,,,,0.423834601,-0.281369561,1,0,0,,0,58,58,64,1
,,,,,,,,,,,,,,,,,,5aeef693da09e4000153a21a,2020-11-25_17h35.12.851,lexical_decision_task_MP_exp2,2020.2.5,Linux armv8l,60,,0,0.415465823,-0.276348246,1,0,0,0.9547,button_right,0.9547,1,,,,,,155,WORD,UN,33,cradle,LIZARD,m,,,,,,0.415465823,-0.276348246,1,0,0,,0,59,59,154,1
,,,,,,,,,,,,,,,,,,5aeef693da09e4000153a21a,2020-11-25_17h35.12.851,lexical_decision_task_MP_exp2,2020.2.5,Linux armv8l,60,,0,0.426624409,-0.285763202,1,0,0,1.8612,button_right,1.8612,1,,,,,,56,WORD,"ID",33,ambush,AMBUSH,m,,,,,,0.426624409,-0.285763202,1,0,0,,0,60,60,55,1
,,,,,,,,,,,,,,,,,,5aeef693da09e4000153a21a,2020-11-25_17h35.12.851,lexical_decision_task_MP_exp2,2020.2.5,Linux armv8l,60,,0,0.433598283,-0.272268442,1,0,0,0.8651,button_right,0.8651,1,,,,,,68,WORD,"ID",16,fumble,FUMBLE,m,,,,,,0.433598283,-0.272268442,1,0,0,,0,61,61,67,1
,,,,,,,,,,,,,,,,,,5aeef693da09e4000153a21a,2020-11-25_17h35.12.851,lexical_decision_task_MP_exp2,2020.2.5,Linux armv8l,60,,0,0.46358662,-0.262853567,1,0,0,0.7789,button_right,0.7789,1,,,,,,66,WORD,"ID",16,gospel,GOSPEL,m,,,,,,0.46358662,-0.262853567,1,0,0,,0,62,62,65,1
,,,,,,,,,,,,,,,,,,5aeef693da09e4000153a21a,2020-11-25_17h35.12.851,lexical_decision_task_MP_exp2,2020.2.5,Linux armv8l,60,,0,-0.392126109,-0.23335343,1,0,0,0.7492,button_left,0.7492,1,,,,,,317,NW,"ID",16,worbal,WORBAL,z,,,,,,-0.392126109,-0.23335343,1,0,0,,0,63,63,316,1
,,,,,,,,,,,,,,,,,,5aeef693da09e4000153a21a,2020-11-25_17h35.12.851,lexical_decision_task_MP_exp2,2020.2.5,Linux armv8l,60,,0,-0.392823399,-0.235864128,1,0,0,0.6464,button_left,0.6464,1,,,,,,273,NW,"ID",33,sortel,SORTEL,z,,,,,,-0.392823399,-0.235864128,1,0,0,,0,64,64,272,1
,,,,,,,,,,,,,,,,,,5aeef693da09e4000153a21a,2020-11-25_17h35.12.851,lexical_decision_task_MP_exp2,2020.2.5,Linux armv8l,60,,0,-0.423509188,-0.246220515,1,0,0,1.0492,button_left,1.0492,1,,,,,,327,NW,"ID",16,plenac,PLENAC,z,,,,,,-0.423509188,-0.246220515,1,0,0,,0,65,65,326,1
,,,,,,,,,,,,,,,,,,5aeef693da09e4000153a21a,2020-11-25_17h35.12.851,lexical_decision_task_MP_exp2,2020.2.5,Linux armv8l,60,,0,-0.404679276,-0.292353703,1,0,0,1.0289,button_left,1.0289,1,,,,,,447,NW,UN,16,sadent,GIRCUE,z,,,,,,-0.404679276,-0.292353703,1,0,0,,0,66,66,446,1
,,,,,,,,,,,,,,,,,,5aeef693da09e4000153a21a,2020-11-25_17h35.12.851,lexical_decision_task_MP_exp2,2020.2.5,Linux armv8l,60,,0,0.457310037,-0.265678021,1,0,0,0.7487,button_right,0.7487,1,,,,,,219,WORD,UN,16,voyage,BUCKET,m,,,,,,0.457310037,-0.265678021,1,0,0,,0,67,67,218,1
,,,,,,,,,,,,,,,,,,5aeef693da09e4000153a21a,2020-11-25_17h35.12.851,lexical_decision_task_MP_exp2,2020.2.5,Linux armv8l,60,,0,0.44475687,-0.260970543,1,0,0,0.6625,button_right,0.6625,1,,,,,,21,WORD,"ID",33,simple,SIMPLE,m,,,,,,0.44475687,-0.260970543,1,0,0,,0,68,68,20,1
,,,,,,,,,,,,,,,,,,5aeef693da09e4000153a21a,2020-11-25_17h35.12.851,lexical_decision_task_MP_exp2,2020.2.5,Linux armv8l,60,,0,-0.367716903,-0.278231269,1,0,0,0.7472,button_left,0.7472,1,,,,,,293,NW,"ID",33,swance,SWANCE,z,,,,,,-0.367716903,-0.278231269,1,0,0,,0,69,69,292,1
,,,,,,,,,,,,,,,,,,5aeef693da09e4000153a21a,2020-11-25_17h35.12.851,lexical_decision_task_MP_exp2,2020.2.5,Linux armv8l,60,,0,0.440572319,-0.270071662,1,0,0,0.9431,button_right,0.9431,1,,,,,,217,WORD,UN,16,shrink,LIQUOR,m,,,,,,0.440572319,-0.270071662,1,0,0,,0,70,70,216,1
,,,,,,,,,,,,,,,,,,5aeef693da09e4000153a21a,2020-11-25_17h35.12.851,lexical_decision_task_MP_exp2,2020.2.5,Linux armv8l,60,,0,0.441269771,-0.274465303,1,0,0,0.7448,button_right,0.7448,1,,,,,,224,WORD,UN,16,vulgar,PERIOD,m,,,,,,0.441269771,-0.274465303,1,0,0,,0,71,71,223,1
,,,,,,,,,,,,,,,,,,5aeef693da09e4000153a21a,2020-11-25_17h35.12.851,lexical_decision_task_MP_exp2,2020.2.5,Linux armv8l,60,,0,-0.402587081,-0.247162027,1,0,0,0.9436,button_left,0.9436,1,,,,,,377,NW,UN,33,shrile,INJORE,z,,,,,,-0.402587081,-0.247162027,1,0,0,,0,72,72,376,1
,,,,,,,,,,,,,,,,,,5aeef693da09e4000153a21a,2020-11-25_17h35.12.851,lexical_decision_task_MP_exp2,2020.2.5,Linux armv8l,60,,0,-0.382362265,-0.250614156,1,0,0,0.6641,button_left,0.6641,1,,,,,,361,NW,UN,33,tireau,PAUCHE,z,,,,,,-0.382362265,-0.250614156,1,0,0,,0,73,73,360,1
,,,,,,,,,,,,,,,,,,5aeef693da09e4000153a21a,2020-11-25_17h35.12.851,lexical_decision_task_MP_exp2,2020.2.5,Linux armv8l,60,,0,0.425926957,-0.276662164,1,0,0,0.8122,button_right,0.8122,1,,,,,,106,WORD,"ID",16,ransom,RANSOM,m,,,,,,0.425926957,-0.276662164,1,0,0,,0,74,74,105,1
,,,,,,,,,,,,,,,,,,5aeef693da09e4000153a21a,2020-11-25_17h35.12.851,lexical_decision_task_MP_exp2,2020.2.5,Linux armv8l,60,,0,-0.383059717,-0.278231269,1,0,0,0.7995,button_left,0.7995,1,,,,,,383,NW,UN,33,guesco,AUNGRE,z,,,,,,-0.383059717,-0.278231269,1,0,0,,0,75,75,382,1
,,,,,,,,,,,,,,,,,,5aeef693da09e4000153a21a,2020-11-25_17h35.12.851,lexical_decision_task_MP_exp2,2020.2.5,Linux armv8l,60,,0,0.429413894,-0.273523791,1,0,0,0.8797,button_right,0.8797,1,,,,,,86,WORD,"ID",16,rodent,RODENT,m,,,,,,0.429413894,-0.273523791,1,0,0,,0,76,76,85,1
,,,,,,,,,,,,,,,,,,5aeef693da09e4000153a21a,2020-11-25_17h35.12.851,lexical_decision_task_MP_exp2,2020.2.5,Linux armv8l,60,,0,-0.378875328,-0.258459926,1,0,0,0.7652,button_left,0.7652,1,,,,,,347,NW,"ID",16,kerift,KERIFT,z,,,,,,-0.378875328,-0.258459926,1,0,0,,0,77,77,346,1
,,,,,,,,,,,,,,,,,,5aeef693da09e4000153a21a,2020-11-25_17h35.12.851,lexical_decision_task_MP_exp2,2020.2.5,Linux armv8l,60,,0,-0.402587081,-0.249986482,1,0,0,0.744,button_left,0.744,1,,,,,,358,NW,"ID",16,fleack,FLEACK,z,,,,,,-0.402587081,-0.249986482,1,0,0,,0,78,78,357,1
,,,,,,,,,,,,,,,,,,5aeef693da09e4000153a21a,2020-11-25_17h35.12.851,lexical_decision_task_MP_exp2,2020.2.5,Linux armv8l,60,,0,,,,,,,,0.744,-1,,,,,,138,WORD,UN,33,staple,MELODY,m,,,,,,-0.394218222,-0.245279004,0,0,0,,0,79,79,137,1
,,,,,,,,,,,,,,,,,,5aeef693da09e4000153a21a,2020-11-25_17h35.12.851,lexical_decision_task_MP_exp2,2020.2.5,Linux armv8l,60,,0,,,,,,,,0.744,-1,,,,,,76,WORD,"ID",16,exotic,EXOTIC,m,,,,,,-0.394218222,-0.245279004,0,0,0,,0,80,80,75,1
,,,,,,,,,,,,,,,,,,5aeef693da09e4000153a21a,2020-11-25_17h35.12.851,lexical_decision_task_MP_exp2,2020.2.5,Linux armv8l,60,,0,-0.425601382,-0.27477914,1,0,0,0.8801,button_left,0.8801,0,,,,,,200,WORD,UN,16,admire,BEACON,m,,,,,,-0.425601382,-0.27477914,1,0,0,,0,81,81,199,1
,,,,,,,,,,,,,,,,,,5aeef693da09e4000153a21a,2020-11-25_17h35.12.851,lexical_decision_task_MP_exp2,2020.2.5,Linux armv8l,60,,0,0.503338639,-0.329385692,1,0,0,0.6146,button_right,0.6146,1,,,,,,88,WORD,"ID",16,hunger,HUNGER,m,,,,,,0.503338639,-0.329385692,1,0,0,,0,82,82,87,1
,,,,,,,,,,,,,,,,,,5aeef693da09e4000153a21a,2020-11-25_17h35.12.851,lexical_decision_task_MP_exp2,2020.2.5,Linux armv8l,60,,0,0.487298212,-0.301140985,1,0,0,1.0959,button_right,1.0959,1,,,,,,22,WORD,"ID",33,jockey,JOCKEY,m,,,,,,0.487298212,-0.301140985,1,0,0,,0,83,83,21,1
,,,,,,,,,,,,,,,,,,5aeef693da09e4000153a21a,2020-11-25_17h35.12.851,lexical_decision_task_MP_exp2,2020.2.5,Linux armv8l,60,,0,-0.445128585,-0.286077039,1,0,0,0.6455,button_left,0.6455,1,,,,,,312,NW,"ID",16,nerawl,NERAWL,z,,,,,,-0.445128585,-0.286077039,1,0,0,,0,84,84,311,1
,,,,,,,,,,,,,,,,,,5aeef693da09e4000153a21a,2020-11-25_17h35.12.851,lexical_decision_task_MP_exp2,2020.2.5,Linux armv8l,60,,0,-0.403284533,-0.284194096,1,0,0,0.7297,button_left,0.7297,1,,,,,,297,NW,"ID",33,fertic,FERTIC,z,,,,,,-0.403284533,-0.284194096,1,0,0,,0,85,85,296,1
,,,,,,,,,,,,,,,,,,5aeef693da09e4000153a21a,2020-11-25_17h35.12.851,lexical_decision_task_MP_exp2,2020.2.5,Linux armv8l,60,,0,-0.390033833,-0.282311073,1,0,0,0.8838,button_left,0.8838,1,,,,,,433,NW,UN,16,pitrom,DRANCE,z,,,,,,-0.390033833,-0.282311073,1,0,0,,0,86,86,432,1
,,,,,,,,,,,,,,,,,,5aeef693da09e4000153a21a,2020-11-25_17h35.12.851,lexical_decision_task_MP_exp2,2020.2.5,Linux armv8l,60,,0,-0.395613046,-0.288901574,1,0,0,0.6282,button_left,0.6282,1,,,,,,264,NW,"ID",33,vackel,VACKEL,z,,,,,,-0.395613046,-0.288901574,1,0,0,,0,87,87,263,1
,,,,,,,,,,,,,,,,,,5aeef693da09e4000153a21a,2020-11-25_17h35.12.851,lexical_decision_task_MP_exp2,2020.2.5,Linux armv8l,60,,0,0.487995664,-0.279800456,1,0,0,0.7183,button_right,0.7183,1,,,,,,162,WORD,UN,33,string,CANDLE,m,,,,,,0.487995664,-0.279800456,1,0,0,,0,88,88,161,1
,,,,,,,,,,,,,,,,,,5aeef693da09e4000153a21a,2020-11-25_17h35.12.851,lexical_decision_task_MP_exp2,2020.2.5,Linux armv8l,60,,0,0.458007489,-0.298002612,1,0,0,0.7664,button_right,0.7664,1,,,,,,196,WORD,UN,16,stream,CREDIT,m,,,,,,0.458007489,-0.298002612,1,0,0,,0,89,89,195,1
,,,,,,,,,,,,,,,,,,5aeef693da09e4000153a21a,2020-11-25_17h35.12.851,lexical_decision_task_MP_exp2,2020.2.5,Linux armv8l,60,,0,0.448941259,-0.288901574,1,0,0,0.6963,button_right,0.6963,1,,,,,,195,WORD,UN,16,credit,RESIGN,m,,,,,,0.448941259,-0.288901574,1,0,0,,0,90,90,194,1
,,,,,,,,,,,,,,,,,,5aeef693da09e4000153a21a,2020-11-25_17h35.12.851,lexical_decision_task_MP_exp2,2020.2.5,Linux armv8l,60,,0,0.459402231,-0.289215331,1,0,0,0.6988,button_right,0.6988,1,,,,,,198,WORD,UN,16,invoke,WICKED,m,,,,,,0.459402231,-0.289215331,1,0,0,,0,91,91,197,1
,,,,,,,,,,,,,,,,,,5aeef693da09e4000153a21a,2020-11-25_17h35.12.851,lexical_decision_task_MP_exp2,2020.2.5,Linux armv8l,60,,0,-0.426298754,-0.270699337,1,0,0,0.7318,button_left,0.7318,1,,,,,,425,NW,UN,16,schind,FRUDGE,z,,,,,,-0.426298754,-0.270699337,1,0,0,,0,92,92,424,1
,,,,,,,,,,,,,,,,,,5aeef693da09e4000153a21a,2020-11-25_17h35.12.851,lexical_decision_task_MP_exp2,2020.2.5,Linux armv8l,60,,0,-0.437457178,-0.262853567,1,0,0,0.904,button_left,0.904,0,,,,,,134,WORD,UN,33,import,STAPLE,m,,,,,,-0.437457178,-0.262853567,1,0,0,,0,93,93,133,1
,,,,,,,,,,,,,,,,,,5aeef693da09e4000153a21a,2020-11-25_17h35.12.851,lexical_decision_task_MP_exp2,2020.2.5,Linux armv8l,60,,0,,,,,,,,0.904,-1,,,,,,296,NW,"ID",33,beinch,BEINCH,z,,,,,,-0.429088319,-0.265364184,0,0,0,,0,94,94,295,1
,,,,,,,,,,,,,,,,,,5aeef693da09e4000153a21a,2020-11-25_17h35.12.851,lexical_decision_task_MP_exp2,2020.2.5,Linux armv8l,60,,0,-0.400494887,-0.29611967,1,0,0,0.7603,button_left,0.7603,1,,,,,,263,NW,"ID",33,dolica,DOLICA,z,,,,,,-0.400494887,-0.29611967,1,0,0,,0,95,95,262,1
,,,,,,,,,,,,,,,,,,5aeef693da09e4000153a21a,2020-11-25_17h35.12.851,lexical_decision_task_MP_exp2,2020.2.5,Linux armv8l,60,,0,0.482416532,-0.305848382,1,0,0,0.9272,button_right,0.9272,1,,,,,,189,WORD,UN,16,backup,CENSOR,m,,,,,,0.482416532,-0.305848382,1,0,0,,0,96,96,188,1
,,,,,,,,,,,,,,,,,,5aeef693da09e4000153a21a,2020-11-25_17h35.12.851,lexical_decision_task_MP_exp2,2020.2.5,Linux armv8l,60,,0,-0.401192258,-0.31055586,1,0,0,1.0147,button_left,1.0147,1,,,,,,251,NW,"ID",33,lupict,LUPICT,z,,,,,,-0.401192258,-0.31055586,1,0,0,,0,97,97,250,1
,,,,,,,,,,,,,,,,,,5aeef693da09e4000153a21a,2020-11-25_17h35.12.851,lexical_decision_task_MP_exp2,2020.2.5,Linux armv8l,60,,0,-0.383059717,-0.301454741,1,0,0,1.347,button_left,1.347,0,,,,,,111,WORD,"ID",16,induce,INDUCE,m,,,,,,-0.383059717,-0.301454741,1,0,0,,0,98,98,110,1
,,,,,,,,,,,,,,,,,,5aeef693da09e4000153a21a,2020-11-25_17h35.12.851,lexical_decision_task_MP_exp2,2020.2.5,Linux armv8l,60,,0,-0.385849444,-0.292039866,1,0,0,0.8139,button_left,0.8139,1,,,,,,286,NW,"ID",33,reldon,RELDON,z,,,,,,-0.385849444,-0.292039866,1,0,0,,0,99,99,285,1
,,,,,,,,,,,,,,,,,,5aeef693da09e4000153a21a,2020-11-25_17h35.12.851,lexical_decision_task_MP_exp2,2020.2.5,Linux armv8l,60,,0,0.460099521,-0.291412192,1,0,0,0.7298,button_right,0.7298,1,,,,,,165,WORD,UN,33,starch,INVEST,m,,,,,,0.460099521,-0.291412192,1,0,0,,0,100,100,164,1
,,,,,,,,,,,,,,,,,,5aeef693da09e4000153a21a,2020-11-25_17h35.12.851,lexical_decision_task_MP_exp2,2020.2.5,Linux armv8l,60,,0,-0.390033833,-0.293922809,1,0,0,0.8467,button_left,0.8467,1,,,,,,397,NW,UN,33,blunde,CAMBLE,z,,,,,,-0.390033833,-0.293922809,1,0,0,,0,101,101,396,1
,,,,,,,,,,,,,,,,,,5aeef693da09e4000153a21a,2020-11-25_17h35.12.851,lexical_decision_task_MP_exp2,2020.2.5,Linux armv8l,60,,0,-0.411653311,-0.321226085,1,0,0,0.7767,button_left,0.7767,1,,,,,,315,NW,"ID",16,laston,LASTON,z,,,,,,-0.411653311,-0.321226085,1,0,0,,0,102,102,314,1
,,,,,,,,,,,,,,,,,,5aeef693da09e4000153a21a,2020-11-25_17h35.12.851,lexical_decision_task_MP_exp2,2020.2.5,Linux armv8l,60,,0,0.487298212,-0.271640848,1,0,0,1.1455,button_right,1.1455,1,,,,,,222,WORD,UN,16,casino,HINDER,m,,,,,,0.487298212,-0.271640848,1,0,0,,0,103,103,221,1
,,,,,,,,,,,,,,,,,,5aeef693da09e4000153a21a,2020-11-25_17h35.12.851,lexical_decision_task_MP_exp2,2020.2.5,Linux armv8l,60,,0,-0.420719541,-0.273837628,1,0,0,0.7923,button_left,0.7923,1,,,,,,444,NW,UN,16,minkel,JAUNCE,z,,,,,,-0.420719541,-0.273837628,1,0,0,,0,104,104,443,1
,,,,,,,,,,,,,,,,,,5aeef693da09e4000153a21a,2020-11-25_17h35.12.851,lexical_decision_task_MP_exp2,2020.2.5,Linux armv8l,60,,0,0.47265285,-0.265364184,1,0,0,0.815,button_right,0.815,1,,,,,,184,WORD,UN,16,bother,SLEAZY,m,,,,,,0.47265285,-0.265364184,1,0,0,,0,105,105,183,1
,,,,,,,,,,,,,,,,,,5aeef693da09e4000153a21a,2020-11-25_17h35.12.851,lexical_decision_task_MP_exp2,2020.2.5,Linux armv8l,60,,0,0.429413894,-0.296433507,1,0,0,0.7997,button_right,0.7997,1,,,,,,36,WORD,"ID",33,vanish,VANISH,m,,,,,,0.429413894,-0.296433507,1,0,0,,0,106,106,35,1
,,,,,,,,,,,,,,,,,,5aeef693da09e4000153a21a,2020-11-25_17h35.12.851,lexical_decision_task_MP_exp2,2020.2.5,Linux armv8l,60,,0,0.461494426,-0.276348246,1,0,0,0.8799,button_right,0.8799,1,,,,,,38,WORD,"ID",33,powder,POWDER,m,,,,,,0.461494426,-0.276348246,1,0,0,,0,107,107,37,1
,,,,,,,,,,,,,,,,,,5aeef693da09e4000153a21a,2020-11-25_17h35.12.851,lexical_decision_task_MP_exp2,2020.2.5,Linux armv8l,60,,0,-0.376085762,-0.278545106,1,0,0,0.6971,button_left,0.6971,1,,,,,,403,NW,UN,33,cluirm,BRUATS,z,,,,,,-0.376085762,-0.278545106,1,0,0,,0,108,108,402,1
,,,,,,,,,,,,,,,,,,5aeef693da09e4000153a21a,2020-11-25_17h35.12.851,lexical_decision_task_MP_exp2,2020.2.5,Linux armv8l,60,,0,0.447546354,-0.284194096,1,0,0,0.961,button_right,0.961,1,,,,,,98,WORD,"ID",16,belong,BELONG,m,,,,,,0.447546354,-0.284194096,1,0,0,,0,109,109,97,1
,,,,,,,,,,,,,,,,,,5aeef693da09e4000153a21a,2020-11-25_17h35.12.851,lexical_decision_task_MP_exp2,2020.2.5,Linux armv8l,60,,0,-0.355163574,-0.288587656,1,0,0,1.1928,button_left,1.1928,1,,,,,,258,NW,"ID",33,poluth,POLUTH,z,,,,,,-0.355163574,-0.288587656,1,0,0,,0,110,110,257,1
,,,,,,,,,,,,,,,,,,5aeef693da09e4000153a21a,2020-11-25_17h35.12.851,lexical_decision_task_MP_exp2,2020.2.5,Linux armv8l,60,,0,-0.373296034,-0.281997235,1,0,0,0.8637,button_left,0.8637,1,,,,,,247,NW,"ID",33,blarge,BLARGE,z,,,,,,-0.373296034,-0.281997235,1,0,0,,0,111,111,246,1
,,,,,,,,,,,,,,,,,,5aeef693da09e4000153a21a,2020-11-25_17h35.12.851,lexical_decision_task_MP_exp2,2020.2.5,Linux armv8l,60,,0,0.437782672,-0.292981378,1,0,0,0.7942,button_right,0.7942,1,,,,,,169,WORD,UN,33,pounce,GENIUS,m,,,,,,0.437782672,-0.292981378,1,0,0,,0,112,112,168,1
,,,,,,,,,,,,,,,,,,5aeef693da09e4000153a21a,2020-11-25_17h35.12.851,lexical_decision_task_MP_exp2,2020.2.5,Linux armv8l,60,,0,0.416860727,-0.302396253,1,0,0,0.7463,button_right,0.7463,1,,,,,,121,WORD,UN,33,linger,THRIVE,m,,,,,,0.416860727,-0.302396253,1,0,0,,0,113,113,120,1
,,,,,,,,,,,,,,,,,,5aeef693da09e4000153a21a,2020-11-25_17h35.12.851,lexical_decision_task_MP_exp2,2020.2.5,Linux armv8l,60,,0,-0.374690858,-0.311183535,1,0,0,1.1593,button_left,1.1593,1,,,,,,380,NW,UN,33,huniek,CAVORY,z,,,,,,-0.374690858,-0.311183535,1,0,0,,0,114,114,379,1
,,,,,,,,,,,,,,,,,,5aeef693da09e4000153a21a,2020-11-25_17h35.12.851,lexical_decision_task_MP_exp2,2020.2.5,Linux armv8l,60,,0,-0.385849444,-0.307417569,1,0,0,0.6986,button_left,0.6986,1,,,,,,282,NW,"ID",33,porlex,PORLEX,z,,,,,,-0.385849444,-0.307417569,1,0,0,,0,115,115,281,1
,,,,,,,,,,,,,,,,,,5aeef693da09e4000153a21a,2020-11-25_17h35.12.851,lexical_decision_task_MP_exp2,2020.2.5,Linux armv8l,60,,0,0.43569064,-0.287018551,1,0,0,0.8114,button_right,0.8114,1,,,,,,228,WORD,UN,16,inject,MASTER,m,,,,,,0.43569064,-0.287018551,1,0,0,,0,116,116,227,1
,,,,,,,,,,,,,,,,,,5aeef693da09e4000153a21a,2020-11-25_17h35.12.851,lexical_decision_task_MP_exp2,2020.2.5,Linux armv8l,60,,0,-0.355163574,-0.306476057,1,0,0,0.9471,button_left,0.9471,1,,,,,,345,NW,"ID",16,absend,ABSEND,z,,,,,,-0.355163574,-0.306476057,1,0,0,,0,117,117,344,1
,,,,,,,,,,,,,,,,,,5aeef693da09e4000153a21a,2020-11-25_17h35.12.851,lexical_decision_task_MP_exp2,2020.2.5,Linux armv8l,60,,0,-0.429088319,-0.301140985,1,0,0,1.8248,button_left,1.8248,1,,,,,,402,NW,UN,33,bruats,SYNTIC,z,,,,,,-0.429088319,-0.301140985,1,0,0,,0,118,118,401,1
,,,,,,,,,,,,,,,,,,5aeef693da09e4000153a21a,2020-11-25_17h35.12.851,lexical_decision_task_MP_exp2,2020.2.5,Linux armv8l,60,,0,0.47265285,-0.276662164,1,0,0,0.6613,button_right,0.6613,1,,,,,,70,WORD,"ID",16,square,SQUARE,m,,,,,,0.47265285,-0.276662164,1,0,0,,0,119,119,69,1
,,,,,,,,,,,,,,,,,,5aeef693da09e4000153a21a,2020-11-25_17h35.12.851,lexical_decision_task_MP_exp2,2020.2.5,Linux armv8l,60,,0,-0.393520851,-0.27258236,1,0,0,0.8004,button_left,0.8004,1,,,,,,363,NW,UN,33,impote,BREALI,z,,,,,,-0.393520851,-0.27258236,1,0,0,,0,120,120,362,1
,,,,,,,,,,,,,,,,,,5aeef693da09e4000153a21a,2020-11-25_17h35.12.851,lexical_decision_task_MP_exp2,2020.2.5,Linux armv8l,60,,0,-0.410955859,-0.277603595,1,0,0,0.8834,button_left,0.8834,1,,,,,,408,NW,UN,33,flumni,HURNIA,z,,,,,,-0.410955859,-0.277603595,1,0,0,,0,121,121,407,1
,,,,,,,,,,,,,,,,,,5aeef693da09e4000153a21a,2020-11-25_17h35.12.851,lexical_decision_task_MP_exp2,2020.2.5,Linux armv8l,60,,0,-0.358650673,-0.235864128,1,0,0,0.7113,button_left,0.7113,1,,,,,,437,NW,UN,16,baitch,SNAPEL,z,,,,,,-0.358650673,-0.235864128,1,0,0,,0,122,122,436,1
,,,,,,,,,,,,,,,,,,5aeef693da09e4000153a21a,2020-11-25_17h35.12.851,lexical_decision_task_MP_exp2,2020.2.5,Linux armv8l,60,,0,0.469863204,-0.287332388,1,0,0,0.7654,button_right,0.7654,1,,,,,,94,WORD,"ID",16,travel,TRAVEL,m,,,,,,0.469863204,-0.287332388,1,0,0,,0,123,123,93,1
,,,,,,,,,,,,,,,,,,5aeef693da09e4000153a21a,2020-11-25_17h35.12.851,lexical_decision_task_MP_exp2,2020.2.5,Linux armv8l,60,,0,-0.401889629,-0.297688775,1,0,0,0.8142,button_left,0.8142,1,,,,,,405,NW,UN,33,nouply,FLUMNI,z,,,,,,-0.401889629,-0.297688775,1,0,0,,0,124,124,404,1
,,,,,,,,,,,,,,,,,,5aeef693da09e4000153a21a,2020-11-25_17h35.12.851,lexical_decision_task_MP_exp2,2020.2.5,Linux armv8l,60,,0,-0.395613046,-0.285449364,1,0,0,0.6806,button_left,0.6806,1,,,,,,356,NW,"ID",16,othnis,OTHNIS,z,,,,,,-0.395613046,-0.285449364,1,0,0,,0,125,125,355,1
,,,,,,,,,,,,,,,,,,5aeef693da09e4000153a21a,2020-11-25_17h35.12.851,lexical_decision_task_MP_exp2,2020.2.5,Linux armv8l,60,,0,-0.408863665,-0.281683398,1,0,0,0.6137,button_left,0.6137,1,,,,,,290,NW,"ID",33,splino,SPLINO,z,,,,,,-0.408863665,-0.281683398,1,0,0,,0,126,126,289,1
,,,,,,,,,,,,,,,,,,5aeef693da09e4000153a21a,2020-11-25_17h35.12.851,lexical_decision_task_MP_exp2,2020.2.5,Linux armv8l,60,,0,0.451033291,-0.267247208,1,0,0,0.6983,button_right,0.6983,1,,,,,,236,WORD,UN,16,poster,PIRATE,m,,,,,,0.451033291,-0.267247208,1,0,0,,0,127,127,235,1
,,,,,,,,,,,,,,,,,,5aeef693da09e4000153a21a,2020-11-25_17h35.12.851,lexical_decision_task_MP_exp2,2020.2.5,Linux armv8l,60,,0,0.43569064,-0.287646225,1,0,0,0.6605,button_right,0.6605,1,,,,,,74,WORD,"ID",16,plaque,PLAQUE,m,,,,,,0.43569064,-0.287646225,1,0,0,,0,128,128,73,1
,,,,,,,,,,,,,,,,,,5aeef693da09e4000153a21a,2020-11-25_17h35.12.851,lexical_decision_task_MP_exp2,2020.2.5,Linux armv8l,60,,0,0.393148974,-0.269443988,1,0,0,0.6454,button_right,0.6454,1,,,,,,89,WORD,"ID",16,permit,PERMIT,m,,,,,,0.393148974,-0.269443988,1,0,0,,0,129,129,88,1
,,,,,,,,,,,,,,,,,,5aeef693da09e4000153a21a,2020-11-25_17h35.12.851,lexical_decision_task_MP_exp2,2020.2.5,Linux armv8l,60,,0,0.421742568,-0.286704714,1,0,0,0.9413,button_right,0.9413,1,,,,,,54,WORD,"ID",33,ramble,RAMBLE,m,,,,,,0.421742568,-0.286704714,1,0,0,,0,130,130,53,1
,,,,,,,,,,,,,,,,,,5aeef693da09e4000153a21a,2020-11-25_17h35.12.851,lexical_decision_task_MP_exp2,2020.2.5,Linux armv8l,60,,0,-0.407468922,-0.298944124,1,0,0,0.6486,button_left,0.6486,1,,,,,,308,NW,"ID",16,psetch,PSETCH,z,,,,,,-0.407468922,-0.298944124,1,0,0,,0,131,131,307,1
,,,,,,,,,,,,,,,,,,5aeef693da09e4000153a21a,2020-11-25_17h35.12.851,lexical_decision_task_MP_exp2,2020.2.5,Linux armv8l,60,,0,-0.405376728,-0.304593114,1,0,0,0.7346,button_left,0.7346,1,,,,,,457,NW,UN,16,barcet,WANIGH,z,,,,,,-0.405376728,-0.304593114,1,0,0,,0,132,132,456,1
,,,,,,,,,,,,,,,,,,5aeef693da09e4000153a21a,2020-11-25_17h35.12.851,lexical_decision_task_MP_exp2,2020.2.5,Linux armv8l,60,,0,0.446848902,-0.290784517,1,0,0,0.695,button_right,0.695,1,,,,,,58,WORD,"ID",33,foster,FOSTER,m,,,,,,0.446848902,-0.290784517,1,0,0,,0,133,133,57,1
,,,,,,,,,,,,,,,,,,5aeef693da09e4000153a21a,2020-11-25_17h35.12.851,lexical_decision_task_MP_exp2,2020.2.5,Linux armv8l,60,,0,0.446848902,-0.293608972,1,0,0,1.4075,button_right,1.4075,1,,,,,,166,WORD,UN,33,design,STARCH,m,,,,,,0.446848902,-0.293608972,1,0,0,,0,134,134,165,1
,,,,,,,,,,,,,,,,,,5aeef693da09e4000153a21a,2020-11-25_17h35.12.851,lexical_decision_task_MP_exp2,2020.2.5,Linux armv8l,60,,0,,,,,,,,1.4075,-1,,,,,,120,WORD,"ID",16,strain,STRAIN,m,,,,,,0.459402231,-0.267247208,0,0,0,,0,135,135,119,1
,,,,,,,,,,,,,,,,,,5aeef693da09e4000153a21a,2020-11-25_17h35.12.851,lexical_decision_task_MP_exp2,2020.2.5,Linux armv8l,60,,0,-0.425601382,-0.311183535,1,0,0,0.7757,button_left,0.7757,1,,,,,,250,NW,"ID",33,milted,MILTED,z,,,,,,-0.425601382,-0.311183535,1,0,0,,0,136,136,249,1
,,,,,,,,,,,,,,,,,,5aeef693da09e4000153a21a,2020-11-25_17h35.12.851,lexical_decision_task_MP_exp2,2020.2.5,Linux armv8l,60,,0,-0.417232524,-0.282311073,1,0,0,1.3614,button_left,1.3614,1,,,,,,479,NW,UN,16,josted,LOBUSH,z,,,,,,-0.417232524,-0.282311073,1,0,0,,0,137,137,478,1
,,,,,,,,,,,,,,,,,,5aeef693da09e4000153a21a,2020-11-25_17h35.12.851,lexical_decision_task_MP_exp2,2020.2.5,Linux armv8l,60,,0,-0.391428657,-0.291726029,1,0,0,0.8182,button_left,0.8182,1,,,,,,386,NW,UN,33,gronce,ANCUST,z,,,,,,-0.391428657,-0.291726029,1,0,0,,0,138,138,385,1
,,,,,,,,,,,,,,,,,,5aeef693da09e4000153a21a,2020-11-25_17h35.12.851,lexical_decision_task_MP_exp2,2020.2.5,Linux armv8l,60,,0,0.439875028,-0.279486618,1,0,0,0.9131,button_right,0.9131,1,,,,,,103,WORD,"ID",16,bounce,BOUNCE,m,,,,,,0.439875028,-0.279486618,1,0,0,,0,139,139,102,1
,,,,,,,,,,,,,,,,,,5aeef693da09e4000153a21a,2020-11-25_17h35.12.851,lexical_decision_task_MP_exp2,2020.2.5,Linux armv8l,60,,0,-0.393520851,-0.289529168,1,0,0,0.9629,button_left,0.9629,1,,,,,,372,NW,UN,33,bigent,RAMILY,z,,,,,,-0.393520851,-0.289529168,1,0,0,,0,140,140,371,1
,,,,,,,,,,,,,,,,,,5aeef693da09e4000153a21a,2020-11-25_17h35.12.851,lexical_decision_task_MP_exp2,2020.2.5,Linux armv8l,60,,0,0.409189239,-0.296747263,1,0,0,0.8802,button_right,0.8802,1,,,,,,2,WORD,"ID",33,bridge,BRIDGE,m,,,,,,0.409189239,-0.296747263,1,0,0,,0,141,141,1,1
,,,,,,,,,,,,,,,,,,5aeef693da09e4000153a21a,2020-11-25_17h35.12.851,lexical_decision_task_MP_exp2,2020.2.5,Linux armv8l,60,,0,-0.410258488,-0.292353703,1,0,0,0.7462,button_left,0.7462,1,,,,,,394,NW,UN,33,colury,SPAQUX,z,,,,,,-0.410258488,-0.292353703,1,0,0,,0,142,142,393,1
,,,,,,,,,,,,,,,,,,5aeef693da09e4000153a21a,2020-11-25_17h35.12.851,lexical_decision_task_MP_exp2,2020.2.5,Linux armv8l,60,,0,-0.410258488,-0.284821771,1,0,0,1.4441,button_left,1.4441,1,,,,,,418,NW,UN,33,slount,SUIDLE,z,,,,,,-0.410258488,-0.284821771,1,0,0,,0,143,143,417,1
,,,,,,,,,,,,,,,,,,5aeef693da09e4000153a21a,2020-11-25_17h35.12.851,lexical_decision_task_MP_exp2,2020.2.5,Linux armv8l,60,,0,-0.372598744,-0.30396544,1,0,0,0.7603,button_left,0.7603,1,,,,,,464,NW,UN,16,whivex,CHAITE,z,,,,,,-0.372598744,-0.30396544,1,0,0,,0,144,144,463,1
,,,,,,,,,,,,,,,,,,5aeef693da09e4000153a21a,2020-11-25_17h35.12.851,lexical_decision_task_MP_exp2,2020.2.5,Linux armv8l,60,,0,0.423834601,-0.30490687,1,0,0,0.9166,button_right,0.9166,1,,,,,,116,WORD,"ID",16,tumble,TUMBLE,m,,,,,,0.423834601,-0.30490687,1,0,0,,0,145,145,115,1
,,,,,,,,,,,,,,,,,,5aeef693da09e4000153a21a,2020-11-25_17h35.12.851,lexical_decision_task_MP_exp2,2020.2.5,Linux armv8l,60,,0,0.416163275,-0.276034489,1,0,0,0.6786,button_right,0.6786,1,,,,,,157,WORD,UN,33,island,DRAGON,m,,,,,,0.416163275,-0.276034489,1,0,0,,0,146,146,156,1
,,,,,,,,,,,,,,,,,,5aeef693da09e4000153a21a,2020-11-25_17h35.12.851,lexical_decision_task_MP_exp2,2020.2.5,Linux armv8l,60,,0,-0.383757088,-0.294864321,1,0,0,0.731,button_left,0.731,1,,,,,,453,NW,UN,16,scouge,BOLVIS,z,,,,,,-0.383757088,-0.294864321,1,0,0,,0,147,147,452,1
,,,,,,,,,,,,,,,,,,5aeef693da09e4000153a21a,2020-11-25_17h35.12.851,lexical_decision_task_MP_exp2,2020.2.5,Linux armv8l,60,,0,-0.367019532,-0.291098354,1,0,0,0.696,button_left,0.696,1,,,,,,324,NW,"ID",16,steikh,STEIKH,z,,,,,,-0.367019532,-0.291098354,1,0,0,,0,148,148,323,1
,,,,,,,,,,,,,,,,,,5aeef693da09e4000153a21a,2020-11-25_17h35.12.851,lexical_decision_task_MP_exp2,2020.2.5,Linux armv8l,60,,0,0.43569064,-0.269757825,1,0,0,0.8121,button_right,0.8121,1,,,,,,25,WORD,"ID",33,domain,DOMAIN,m,,,,,,0.43569064,-0.269757825,1,0,0,,0,149,149,24,1
,,,,,,,,,,,,,,,,,,5aeef693da09e4000153a21a,2020-11-25_17h35.12.851,lexical_decision_task_MP_exp2,2020.2.5,Linux armv8l,60,,0,-0.382362265,-0.297061182,1,0,0,0.6347,button_left,0.6347,1,,,,,,267,NW,"ID",33,pasink,PASINK,z,,,,,,-0.382362265,-0.297061182,1,0,0,,0,150,150,266,1
,,,,,,,,,,,,,,,,,,5aeef693da09e4000153a21a,2020-11-25_17h35.12.851,lexical_decision_task_MP_exp2,2020.2.5,Linux armv8l,60,,0,-0.38445454,-0.29266746,1,0,0,0.5793,button_left,0.5793,1,,,,,,351,NW,"ID",16,tiesch,TIESCH,z,,,,,,-0.38445454,-0.29266746,1,0,0,,0,151,151,350,1
,,,,,,,,,,,,,,,,,,5aeef693da09e4000153a21a,2020-11-25_17h35.12.851,lexical_decision_task_MP_exp2,2020.2.5,Linux armv8l,60,,0,-0.381664974,-0.302082416,1,0,0,1.0779,button_left,1.0779,1,,,,,,431,NW,UN,16,lunker,CHRUMS,z,,,,,,-0.381664974,-0.302082416,1,0,0,,0,152,152,430,1
,,,,,,,,,,,,,,,,,,5aeef693da09e4000153a21a,2020-11-25_17h35.12.851,lexical_decision_task_MP_exp2,2020.2.5,Linux armv8l,60,,0,0.420347664,-0.286704714,1,0,0,0.7113,button_right,0.7113,1,,,,,,156,WORD,UN,33,pastor,CRADLE,m,,,,,,0.420347664,-0.286704714,1,0,0,,0,153,153,155,1
,,,,,,,,,,,,,,,,,,5aeef693da09e4000153a21a,2020-11-25_17h35.12.851,lexical_decision_task_MP_exp2,2020.2.5,Linux armv8l,60,,0,0.428019152,-0.273523791,1,0,0,0.7471,button_right,0.7471,1,,,,,,238,WORD,UN,16,grumpy,FLOWER,m,,,,,,0.428019152,-0.273523791,1,0,0,,0,154,154,237,1
,,,,,,,,,,,,,,,,,,5aeef693da09e4000153a21a,2020-11-25_17h35.12.851,lexical_decision_task_MP_exp2,2020.2.5,Linux armv8l,60,,0,-0.39770524,-0.31055586,1,0,0,0.7765,button_left,0.7765,1,,,,,,379,NW,UN,33,cavory,AUTING,z,,,,,,-0.39770524,-0.31055586,1,0,0,,0,155,155,378,1
,,,,,,,,,,,,,,,,,,5aeef693da09e4000153a21a,2020-11-25_17h35.12.851,lexical_decision_task_MP_exp2,2020.2.5,Linux armv8l,60,,0,0.420347664,-0.267247208,1,0,0,0.8096,button_right,0.8096,1,,,,,,15,WORD,"ID",33,amount,AMOUNT,m,,,,,,0.420347664,-0.267247208,1,0,0,,0,156,156,14,1
,,,,,,,,,,,,,,,,,,5aeef693da09e4000153a21a,2020-11-25_17h35.12.851,lexical_decision_task_MP_exp2,2020.2.5,Linux armv8l,60,,0,-0.385849444,-0.311811209,1,0,0,0.7642,button_left,0.7642,1,,,,,,417,NW,UN,33,suidle,EAROUD,z,,,,,,-0.385849444,-0.311811209,1,0,0,,0,157,157,416,1
,,,,,,,,,,,,,,,,,,5aeef693da09e4000153a21a,2020-11-25_17h35.12.851,lexical_decision_task_MP_exp2,2020.2.5,Linux armv8l,60,,0,0.421045116,-0.274465303,1,0,0,0.7632,button_right,0.7632,1,,,,,,73,WORD,"ID",16,source,SOURCE,m,,,,,,0.421045116,-0.274465303,1,0,0,,0,158,158,72,1
,,,,,,,,,,,,,,,,,,5aeef693da09e4000153a21a,2020-11-25_17h35.12.851,lexical_decision_task_MP_exp2,2020.2.5,Linux armv8l,60,,0,-0.383059717,-0.303651602,1,0,0,0.9787,button_left,0.9787,1,,,,,,260,NW,"ID",33,unject,UNJECT,z,,,,,,-0.383059717,-0.303651602,1,0,0,,0,159,159,259,1
,,,,,,,,,,,,,,,,,,5aeef693da09e4000153a21a,2020-11-25_17h35.12.851,lexical_decision_task_MP_exp2,2020.2.5,Linux armv8l,60,,0,-0.378177876,-0.284507853,1,0,0,0.6613,button_left,0.6613,1,,,,,,305,NW,"ID",16,forgle,FORGLE,z,,,,,,-0.378177876,-0.284507853,1,0,0,,0,160,160,304,1
,,,,,,,,,,,,,,,,,,5aeef693da09e4000153a21a,2020-11-25_17h35.12.851,lexical_decision_task_MP_exp2,2020.2.5,Linux armv8l,60,,0,0.476139949,-0.263481241,1,0,0,0.7449,button_right,0.7449,1,,,,,,6,WORD,"ID",33,bundle,BUNDLE,m,,,,,,0.476139949,-0.263481241,1,0,0,,0,161,161,5,1
,,,,,,,,,,,,,,,,,,5aeef693da09e4000153a21a,2020-11-25_17h35.12.851,lexical_decision_task_MP_exp2,2020.2.5,Linux armv8l,60,,0,0.451730743,-0.289529168,1,0,0,0.6024,button_right,0.6024,1,,,,,,119,WORD,"ID",16,spider,SPIDER,m,,,,,,0.451730743,-0.289529168,1,0,0,,0,162,162,118,1
,,,,,,,,,,,,,,,,,,5aeef693da09e4000153a21a,2020-11-25_17h35.12.851,lexical_decision_task_MP_exp2,2020.2.5,Linux armv8l,60,,0,-0.437457178,-0.309928186,1,0,0,0.7133,button_left,0.7133,1,,,,,,353,NW,"ID",16,clurey,CLUREY,z,,,,,,-0.437457178,-0.309928186,1,0,0,,0,163,163,352,1
,,,,,,,,,,,,,,,,,,5aeef693da09e4000153a21a,2020-11-25_17h35.12.851,lexical_decision_task_MP_exp2,2020.2.5,Linux armv8l,60,,0,0.448941259,-0.279172781,1,0,0,0.6824,button_right,0.6824,1,,,,,,108,WORD,"ID",16,reckon,RECKON,m,,,,,,0.448941259,-0.279172781,1,0,0,,0,164,164,107,1
,,,,,,,,,,,,,,,,,,5aeef693da09e4000153a21a,2020-11-25_17h35.12.851,lexical_decision_task_MP_exp2,2020.2.5,Linux armv8l,60,,0,0.451730743,-0.26253973,1,0,0,0.4883,button_right,0.4883,1,,,,,,12,WORD,"ID",33,orange,ORANGE,m,,,,,,0.451730743,-0.26253973,1,0,0,,0,165,165,11,1
,,,,,,,,,,,,,,,,,,5aeef693da09e4000153a21a,2020-11-25_17h35.12.851,lexical_decision_task_MP_exp2,2020.2.5,Linux armv8l,60,,0,0.46288933,-0.273837628,1,0,0,0.5934,button_right,0.5934,1,,,,,,71,WORD,"ID",16,garden,GARDEN,m,,,,,,0.46288933,-0.273837628,1,0,0,,0,166,166,70,1
,,,,,,,,,,,,,,,,,,5aeef693da09e4000153a21a,2020-11-25_17h35.12.851,lexical_decision_task_MP_exp2,2020.2.5,Linux armv8l,60,,0,0.428019152,-0.286390876,1,0,0,0.9956,button_right,0.9956,0,,,,,,341,NW,"ID",16,myrtie,MYRTIE,z,,,,,,0.428019152,-0.286390876,1,0,0,,0,167,167,340,1
,,,,,,,,,,,,,,,,,,5aeef693da09e4000153a21a,2020-11-25_17h35.12.851,lexical_decision_task_MP_exp2,2020.2.5,Linux armv8l,60,,0,0.437782672,-0.270385499,1,0,0,0.6013,button_right,0.6013,1,,,,,,227,WORD,UN,16,master,SELDOM,m,,,,,,0.437782672,-0.270385499,1,0,0,,0,168,168,226,1
,,,,,,,,,,,,,,,,,,5aeef693da09e4000153a21a,2020-11-25_17h35.12.851,lexical_decision_task_MP_exp2,2020.2.5,Linux armv8l,60,,0,-0.434667613,-0.295178158,1,0,0,0.6294,button_left,0.6294,0,,,,,,37,WORD,"ID",33,insult,INSULT,m,,,,,,-0.434667613,-0.295178158,1,0,0,,0,169,169,36,1
,,,,,,,,,,,,,,,,,,5aeef693da09e4000153a21a,2020-11-25_17h35.12.851,lexical_decision_task_MP_exp2,2020.2.5,Linux armv8l,60,,0,-0.410955859,-0.299885636,1,0,0,0.8296,button_left,0.8296,1,,,,,,322,NW,"ID",16,slanch,SLANCH,z,,,,,,-0.410955859,-0.299885636,1,0,0,,0,170,170,321,1
,,,,,,,,,,,,,,,,,,5aeef693da09e4000153a21a,2020-11-25_17h35.12.851,lexical_decision_task_MP_exp2,2020.2.5,Linux armv8l,60,,0,-0.38445454,-0.294550483,1,0,0,0.6511,button_left,0.6511,1,,,,,,385,NW,UN,33,ancust,VEIGMA,z,,,,,,-0.38445454,-0.294550483,1,0,0,,0,171,171,384,1
,,,,,,,,,,,,,,,,,,5aeef693da09e4000153a21a,2020-11-25_17h35.12.851,lexical_decision_task_MP_exp2,2020.2.5,Linux armv8l,60,,0,-0.393520851,-0.303023928,1,0,0,0.7447,button_left,0.7447,1,,,,,,254,NW,"ID",33,varosh,VAROSH,z,,,,,,-0.393520851,-0.303023928,1,0,0,,0,172,172,253,1
,,,,,,,,,,,,,,,,,,5aeef693da09e4000153a21a,2020-11-25_17h35.12.851,lexical_decision_task_MP_exp2,2020.2.5,Linux armv8l,60,,0,0.43638793,-0.274465303,1,0,0,0.7029,button_right,0.7029,1,,,,,,211,WORD,UN,16,verify,INFECT,m,,,,,,0.43638793,-0.274465303,1,0,0,,0,173,173,210,1
,,,,,,,,,,,,,,,,,,5aeef693da09e4000153a21a,2020-11-25_17h35.12.851,lexical_decision_task_MP_exp2,2020.2.5,Linux armv8l,60,,0,-0.39770524,-0.267874882,1,0,0,0.697,button_left,0.697,0,,,,,,16,WORD,"ID",33,faucet,FAUCET,m,,,,,,-0.39770524,-0.267874882,1,0,0,,0,174,174,15,1
,,,,,,,,,,,,,,,,,,5aeef693da09e4000153a21a,2020-11-25_17h35.12.851,lexical_decision_task_MP_exp2,2020.2.5,Linux armv8l,60,,0,0.423137311,-0.275406815,1,0,0,0.7306,button_right,0.7306,1,,,,,,148,WORD,UN,33,invade,CUSTOM,m,,,,,,0.423137311,-0.275406815,1,0,0,,0,175,175,147,1
,,,,,,,,,,,,,,,,,,5aeef693da09e4000153a21a,2020-11-25_17h35.12.851,lexical_decision_task_MP_exp2,2020.2.5,Linux armv8l,60,,0,0.409886692,-0.273209954,1,0,0,0.5972,button_right,0.5972,1,,,,,,69,WORD,"ID",16,plenty,PLENTY,m,,,,,,0.409886692,-0.273209954,1,0,0,,0,176,176,68,1
,,,,,,,,,,,,,,,,,,5aeef693da09e4000153a21a,2020-11-25_17h35.12.851,lexical_decision_task_MP_exp2,2020.2.5,Linux armv8l,60,,0,-0.376085762,-0.311811209,1,0,0,0.746,button_left,0.746,1,,,,,,334,NW,"ID",16,watmeg,WATMEG,z,,,,,,-0.376085762,-0.311811209,1,0,0,,0,177,177,333,1
,,,,,,,,,,,,,,,,,,5aeef693da09e4000153a21a,2020-11-25_17h35.12.851,lexical_decision_task_MP_exp2,2020.2.5,Linux armv8l,60,,0,-0.386546815,-0.295491995,1,0,0,0.702,button_left,0.702,1,,,,,,344,NW,"ID",16,scrily,SCRILY,z,,,,,,-0.386546815,-0.295491995,1,0,0,,0,178,178,343,1
,,,,,,,,,,,,,,,,,,5aeef693da09e4000153a21a,2020-11-25_17h35.12.851,lexical_decision_task_MP_exp2,2020.2.5,Linux armv8l,60,,0,0.398728267,-0.267874882,1,0,0,0.7827,button_right,0.7827,1,,,,,,132,WORD,UN,33,bleach,STRONG,m,,,,,,0.398728267,-0.267874882,1,0,0,,0,179,179,131,1
,,,,,,,,,,,,,,,,,,5aeef693da09e4000153a21a,2020-11-25_17h35.12.851,lexical_decision_task_MP_exp2,2020.2.5,Linux armv8l,60,,0,-0.383757088,-0.292353703,1,0,0,0.7616,button_left,0.7616,1,,,,,,359,NW,"ID",16,fonver,FONVER,z,,,,,,-0.383757088,-0.292353703,1,0,0,,0,180,180,358,1
,,,,,,,,,,,,,,,,,,5aeef693da09e4000153a21a,2020-11-25_17h35.12.851,lexical_decision_task_MP_exp2,2020.2.5,Linux armv8l,60,,0,0.419650212,-0.251869424,1,0,0,0.6975,button_right,0.6975,1,,,,,,81,WORD,"ID",16,friend,FRIEND,m,,,,,,0.419650212,-0.251869424,1,0,0,,0,181,181,80,1
,,,,,,,,,,,,,,,,,,5aeef693da09e4000153a21a,2020-11-25_17h35.12.851,lexical_decision_task_MP_exp2,2020.2.5,Linux armv8l,60,,0,-0.387244268,-0.290784517,1,0,0,0.8128,button_left,0.8128,1,,,,,,382,NW,UN,33,aungre,SARLEY,z,,,,,,-0.387244268,-0.290784517,1,0,0,,0,182,182,381,1
,,,,,,,,,,,,,,,,,,5aeef693da09e4000153a21a,2020-11-25_17h35.12.851,lexical_decision_task_MP_exp2,2020.2.5,Linux armv8l,60,,0,-0.364229804,-0.268188638,1,0,0,0.8791,button_left,0.8791,1,,,,,,328,NW,"ID",16,broake,BROAKE,z,,,,,,-0.364229804,-0.268188638,1,0,0,,0,183,183,327,1
,,,,,,,,,,,,,,,,,,5aeef693da09e4000153a21a,2020-11-25_17h35.12.851,lexical_decision_task_MP_exp2,2020.2.5,Linux armv8l,60,,0,-0.386546815,-0.271013174,1,0,0,0.7591,button_left,0.7591,1,,,,,,376,NW,UN,33,sliant,IGUARE,z,,,,,,-0.386546815,-0.271013174,1,0,0,,0,184,184,375,1
,,,,,,,,,,,,,,,,,,5aeef693da09e4000153a21a,2020-11-25_17h35.12.851,lexical_decision_task_MP_exp2,2020.2.5,Linux armv8l,60,,0,-0.405376728,-0.311183535,1,0,0,0.6793,button_left,0.6793,1,,,,,,442,NW,UN,16,dorsex,ABOUNE,z,,,,,,-0.405376728,-0.311183535,1,0,0,,0,185,185,441,1
,,,,,,,,,,,,,,,,,,5aeef693da09e4000153a21a,2020-11-25_17h35.12.851,lexical_decision_task_MP_exp2,2020.2.5,Linux armv8l,60,,0,0.4273217,-0.270071662,1,0,0,0.8476,button_right,0.8476,1,,,,,,33,WORD,"ID",33,butler,BUTLER,m,,,,,,0.4273217,-0.270071662,1,0,0,,0,186,186,32,1
,,,,,,,,,,,,,,,,,,5aeef693da09e4000153a21a,2020-11-25_17h35.12.851,lexical_decision_task_MP_exp2,2020.2.5,Linux armv8l,60,,0,-0.400494887,-0.291412192,1,0,0,0.8162,button_left,0.8162,1,,,,,,458,NW,UN,16,chaite,BARCET,z,,,,,,-0.400494887,-0.291412192,1,0,0,,0,187,187,457,1
,,,,,,,,,,,,,,,,,,5aeef693da09e4000153a21a,2020-11-25_17h35.12.851,lexical_decision_task_MP_exp2,2020.2.5,Linux armv8l,60,,0,0.444059417,-0.257518414,1,0,0,0.784,button_right,0.784,1,,,,,,5,WORD,"ID",33,plunge,PLUNGE,m,,,,,,0.444059417,-0.257518414,1,0,0,,0,188,188,4,1
,,,,,,,,,,,,,,,,,,5aeef693da09e4000153a21a,2020-11-25_17h35.12.851,lexical_decision_task_MP_exp2,2020.2.5,Linux armv8l,60,,0,0.440572319,-0.258146089,1,0,0,0.6354,button_right,0.6354,1,,,,,,80,WORD,"ID",16,family,FAMILY,m,,,,,,0.440572319,-0.258146089,1,0,0,,0,189,189,79,1
,,,,,,,,,,,,,,,,,,5aeef693da09e4000153a21a,2020-11-25_17h35.12.851,lexical_decision_task_MP_exp2,2020.2.5,Linux armv8l,60,,0,-0.372598744,-0.290156843,1,0,0,0.6496,button_left,0.6496,1,,,,,,326,NW,"ID",16,iguade,IGUADE,z,,,,,,-0.372598744,-0.290156843,1,0,0,,0,190,190,325,1
,,,,,,,,,,,,,,,,,,5aeef693da09e4000153a21a,2020-11-25_17h35.12.851,lexical_decision_task_MP_exp2,2020.2.5,Linux armv8l,60,,0,0.437085382,-0.255321634,1,0,0,0.5815,button_right,0.5815,1,,,,,,10,WORD,"ID",33,ethnic,ETHNIC,m,,,,,,0.437085382,-0.255321634,1,0,0,,0,191,191,9,1
,,,,,,,,,,,,,,,,,,5aeef693da09e4000153a21a,2020-11-25_17h35.12.851,lexical_decision_task_MP_exp2,2020.2.5,Linux armv8l,60,,0,-0.394218222,-0.297374938,1,0,0,0.5481,button_left,0.5481,1,,,,,,451,NW,UN,16,surden,CAINKY,z,,,,,,-0.394218222,-0.297374938,1,0,0,,0,192,192,450,1
,,,,,,,,,,,,,,,,,,5aeef693da09e4000153a21a,2020-11-25_17h35.12.851,lexical_decision_task_MP_exp2,2020.2.5,Linux armv8l,60,,0,-0.402587081,-0.314949501,1,0,0,0.6153,button_left,0.6153,1,,,,,,253,NW,"ID",33,resait,RESAIT,z,,,,,,-0.402587081,-0.314949501,1,0,0,,0,193,193,252,1
,,,,,,,,,,,,,,,,,,5aeef693da09e4000153a21a,2020-11-25_17h35.12.851,lexical_decision_task_MP_exp2,2020.2.5,Linux armv8l,60,,0,-0.390033833,-0.293922809,1,0,0,0.5636,button_left,0.5636,1,,,,,,474,NW,UN,16,gorbie,HABLIN,z,,,,,,-0.390033833,-0.293922809,1,0,0,,0,194,194,473,1
,,,,,,,,,,,,,,,,,,5aeef693da09e4000153a21a,2020-11-25_17h35.12.851,lexical_decision_task_MP_exp2,2020.2.5,Linux armv8l,60,,0,-0.411653311,-0.255949228,1,0,0,0.5819,button_left,0.5819,1,,,,,,355,NW,"ID",16,zingly,ZINGLY,z,,,,,,-0.411653311,-0.255949228,1,0,0,,0,195,195,354,1
,,,,,,,,,,,,,,,,,,5aeef693da09e4000153a21a,2020-11-25_17h35.12.851,lexical_decision_task_MP_exp2,2020.2.5,Linux armv8l,60,,0,0.461494426,-0.240257688,1,0,0,0.6984,button_right,0.6984,1,,,,,,63,WORD,"ID",16,launch,LAUNCH,m,,,,,,0.461494426,-0.240257688,1,0,0,,0,196,196,62,1
,,,,,,,,,,,,,,,,,,5aeef693da09e4000153a21a,2020-11-25_17h35.12.851,lexical_decision_task_MP_exp2,2020.2.5,Linux armv8l,60,,0,0.458007489,-0.259401438,1,0,0,0.5791,button_right,0.5791,1,,,,,,240,WORD,UN,16,glance,FOREST,m,,,,,,0.458007489,-0.259401438,1,0,0,,0,197,197,239,1
,,,,,,,,,,,,,,,,,,5aeef693da09e4000153a21a,2020-11-25_17h35.12.851,lexical_decision_task_MP_exp2,2020.2.5,Linux armv8l,60,,0,0.437085382,-0.261598218,1,0,0,0.4979,button_right,0.4979,1,,,,,,221,WORD,UN,16,hinder,MASCOT,m,,,,,,0.437085382,-0.261598218,1,0,0,,0,198,198,220,1
,,,,,,,,,,,,,,,,,,5aeef693da09e4000153a21a,2020-11-25_17h35.12.851,lexical_decision_task_MP_exp2,2020.2.5,Linux armv8l,60,,0,-0.379572699,-0.265678021,1,0,0,0.7637,button_left,0.7637,1,,,,,,280,NW,"ID",33,curbol,CURBOL,z,,,,,,-0.379572699,-0.265678021,1,0,0,,0,199,199,279,1
,,,,,,,,,,,,,,,,,,5aeef693da09e4000153a21a,2020-11-25_17h35.12.851,lexical_decision_task_MP_exp2,2020.2.5,Linux armv8l,60,,0,0.432203541,-0.258146089,1,0,0,0.7474,button_right,0.7474,1,,,,,,3,WORD,"ID",33,knight,KNIGHT,m,,,,,,0.432203541,-0.258146089,1,0,0,,0,200,200,2,1
,,,,,,,,,,,,,,,,,,5aeef693da09e4000153a21a,2020-11-25_17h35.12.851,lexical_decision_task_MP_exp2,2020.2.5,Linux armv8l,60,,0,-0.371901292,-0.296747263,1,0,0,0.6329,button_left,0.6329,1,,,,,,404,NW,UN,33,syntic,CLUIRM,z,,,,,,-0.371901292,-0.296747263,1,0,0,,0,201,201,403,1
,,,,,,,,,,,,,,,,,,5aeef693da09e4000153a21a,2020-11-25_17h35.12.851,lexical_decision_task_MP_exp2,2020.2.5,Linux armv8l,60,,0,0.44545416,-0.249986482,1,0,0,0.5792,button_right,0.5792,1,,,,,,23,WORD,"ID",33,wealth,WEALTH,m,,,,,,0.44545416,-0.249986482,1,0,0,,0,202,202,22,1
,,,,,,,,,,,,,,,,,,5aeef693da09e4000153a21a,2020-11-25_17h35.12.851,lexical_decision_task_MP_exp2,2020.2.5,Linux armv8l,60,,0,-0.368414355,-0.298944124,1,0,0,1.046,button_left,1.046,1,,,,,,342,NW,"ID",16,randow,RANDOW,z,,,,,,-0.368414355,-0.298944124,1,0,0,,0,203,203,341,1
,,,,,,,,,,,,,,,,,,5aeef693da09e4000153a21a,2020-11-25_17h35.12.851,lexical_decision_task_MP_exp2,2020.2.5,Linux armv8l,60,,0,0.45452039,-0.267561045,1,0,0,0.9927,button_right,0.9927,1,,,,,,20,WORD,"ID",33,breast,BREAST,m,,,,,,0.45452039,-0.267561045,1,0,0,,0,204,204,19,1
,,,,,,,,,,,,,,,,,,5aeef693da09e4000153a21a,2020-11-25_17h35.12.851,lexical_decision_task_MP_exp2,2020.2.5,Linux armv8l,60,,0,-0.383757088,-0.297688775,1,0,0,0.7821,button_left,0.7821,1,,,,,,332,NW,"ID",16,vangue,VANGUE,z,,,,,,-0.383757088,-0.297688775,1,0,0,,0,205,205,331,1
,,,,,,,,,,,,,,,,,,5aeef693da09e4000153a21a,2020-11-25_17h35.12.851,lexical_decision_task_MP_exp2,2020.2.5,Linux armv8l,60,,0,-0.377480585,-0.263795079,1,0,0,0.6134,button_left,0.6134,1,,,,,,478,NW,UN,16,lobush,ACRISE,z,,,,,,-0.377480585,-0.263795079,1,0,0,,0,206,206,477,1
,,,,,,,,,,,,,,,,,,5aeef693da09e4000153a21a,2020-11-25_17h35.12.851,lexical_decision_task_MP_exp2,2020.2.5,Linux armv8l,60,,0,0.423137311,-0.274465303,1,0,0,0.7669,button_right,0.7669,1,,,,,,143,WORD,UN,33,sponge,REASON,m,,,,,,0.423137311,-0.274465303,1,0,0,,0,207,207,142,1
,,,,,,,,,,,,,,,,,,5aeef693da09e4000153a21a,2020-11-25_17h35.12.851,lexical_decision_task_MP_exp2,2020.2.5,Linux armv8l,60,,0,-0.410258488,-0.260029031,1,0,0,0.8301,button_left,0.8301,1,,,,,,480,NW,UN,16,knisma,ROBULY,z,,,,,,-0.410258488,-0.260029031,1,0,0,,0,208,208,479,1
,,,,,,,,,,,,,,,,,,5aeef693da09e4000153a21a,2020-11-25_17h35.12.851,lexical_decision_task_MP_exp2,2020.2.5,Linux armv8l,60,,0,0.428716442,-0.260029031,1,0,0,0.6301,button_right,0.6301,1,,,,,,194,WORD,UN,16,resign,ABSENT,m,,,,,,0.428716442,-0.260029031,1,0,0,,0,209,209,193,1
,,,,,,,,,,,,,,,,,,5aeef693da09e4000153a21a,2020-11-25_17h35.12.851,lexical_decision_task_MP_exp2,2020.2.5,Linux armv8l,60,,0,-0.38445454,-0.271327011,1,0,0,0.6634,button_left,0.6634,1,,,,,,275,NW,"ID",33,sleirt,SLEIRT,z,,,,,,-0.38445454,-0.271327011,1,0,0,,0,210,210,274,1
,,,,,,,,,,,,,,,,,,5aeef693da09e4000153a21a,2020-11-25_17h35.12.851,lexical_decision_task_MP_exp2,2020.2.5,Linux armv8l,60,,0,-0.38863901,-0.267561045,1,0,0,0.7465,button_left,0.7465,1,,,,,,381,NW,UN,33,sarley,HUNIEK,z,,,,,,-0.38863901,-0.267561045,1,0,0,,0,211,211,380,1
,,,,,,,,,,,,,,,,,,5aeef693da09e4000153a21a,2020-11-25_17h35.12.851,lexical_decision_task_MP_exp2,2020.2.5,Linux armv8l,60,,0,-0.412350763,-0.259715275,1,0,0,0.8793,button_left,0.8793,1,,,,,,400,NW,UN,33,mustil,WEAROX,z,,,,,,-0.412350763,-0.259715275,1,0,0,,0,212,212,399,1
,,,,,,,,,,,,,,,,,,5aeef693da09e4000153a21a,2020-11-25_17h35.12.851,lexical_decision_task_MP_exp2,2020.2.5,Linux armv8l,60,,0,0.407794497,-0.270071662,1,0,0,0.6789,button_right,0.6789,1,,,,,,107,WORD,"ID",16,slogan,SLOGAN,m,,,,,,0.407794497,-0.270071662,1,0,0,,0,213,213,106,1
,,,,,,,,,,,,,,,,,,5aeef693da09e4000153a21a,2020-11-25_17h35.12.851,lexical_decision_task_MP_exp2,2020.2.5,Linux armv8l,60,,0,0.407097045,-0.265364184,1,0,0,0.6948,button_right,0.6948,1,,,,,,185,WORD,UN,16,portal,BOTHER,m,,,,,,0.407097045,-0.265364184,1,0,0,,0,214,214,184,1
,,,,,,,,,,,,,,,,,,5aeef693da09e4000153a21a,2020-11-25_17h35.12.851,lexical_decision_task_MP_exp2,2020.2.5,Linux armv8l,60,,0,0.41825547,-0.256576902,1,0,0,0.6804,button_right,0.6804,1,,,,,,226,WORD,UN,16,flower,CASINO,m,,,,,,0.41825547,-0.256576902,1,0,0,,0,215,215,225,1
,,,,,,,,,,,,,,,,,,5aeef693da09e4000153a21a,2020-11-25_17h35.12.851,lexical_decision_task_MP_exp2,2020.2.5,Linux armv8l,60,,0,-0.378875328,-0.255321634,1,0,0,0.6665,button_left,0.6665,1,,,,,,300,NW,"ID",33,yarion,YARION,z,,,,,,-0.378875328,-0.255321634,1,0,0,,0,216,216,299,1
,,,,,,,,,,,,,,,,,,5aeef693da09e4000153a21a,2020-11-25_17h35.12.851,lexical_decision_task_MP_exp2,2020.2.5,Linux armv8l,60,,0,-0.389336381,-0.259715275,1,0,0,0.7137,button_left,0.7137,1,,,,,,313,NW,"ID",16,paurse,PAURSE,z,,,,,,-0.389336381,-0.259715275,1,0,0,,0,217,217,312,1
,,,,,,,,,,,,,,,,,,5aeef693da09e4000153a21a,2020-11-25_17h35.12.851,lexical_decision_task_MP_exp2,2020.2.5,Linux armv8l,60,,0,0.422439859,-0.264736509,1,0,0,0.647,button_right,0.647,1,,,,,,79,WORD,"ID",16,theory,THEORY,m,,,,,,0.422439859,-0.264736509,1,0,0,,0,218,218,78,1
,,,,,,,,,,,,,,,,,,5aeef693da09e4000153a21a,2020-11-25_17h35.12.851,lexical_decision_task_MP_exp2,2020.2.5,Linux armv8l,60,,0,0.446151612,-0.250300319,1,0,0,0.6806,button_right,0.6806,1,,,,,,110,WORD,"ID",16,polite,POLITE,m,,,,,,0.446151612,-0.250300319,1,0,0,,0,219,219,109,1
,,,,,,,,,,,,,,,,,,5aeef693da09e4000153a21a,2020-11-25_17h35.12.851,lexical_decision_task_MP_exp2,2020.2.5,Linux armv8l,60,,0,0.397333363,-0.289843005,1,0,0,0.777,button_right,0.777,1,,,,,,61,WORD,"ID",16,ponder,PONDER,m,,,,,,0.397333363,-0.289843005,1,0,0,,0,220,220,60,1
,,,,,,,,,,,,,,,,,,5aeef693da09e4000153a21a,2020-11-25_17h35.12.851,lexical_decision_task_MP_exp2,2020.2.5,Linux armv8l,60,,0,-0.399797435,-0.276348246,1,0,0,0.596,button_left,0.596,1,,,,,,362,NW,UN,33,breali,TIREAU,z,,,,,,-0.399797435,-0.276348246,1,0,0,,0,221,221,361,1
,,,,,,,,,,,,,,,,,,5aeef693da09e4000153a21a,2020-11-25_17h35.12.851,lexical_decision_task_MP_exp2,2020.2.5,Linux armv8l,60,,0,0.434295735,-0.262853567,1,0,0,0.8757,button_right,0.8757,1,,,,,,139,WORD,UN,33,prince,DEBRIS,m,,,,,,0.434295735,-0.262853567,1,0,0,,0,222,222,138,1
,,,,,,,,,,,,,,,,,,5aeef693da09e4000153a21a,2020-11-25_17h35.12.851,lexical_decision_task_MP_exp2,2020.2.5,Linux armv8l,60,,0,-0.42490393,-0.27258236,1,0,0,0.6638,button_left,0.6638,1,,,,,,465,NW,UN,16,hocite,WHIVEX,z,,,,,,-0.42490393,-0.27258236,1,0,0,,0,223,223,464,1
,,,,,,,,,,,,,,,,,,5aeef693da09e4000153a21a,2020-11-25_17h35.12.851,lexical_decision_task_MP_exp2,2020.2.5,Linux armv8l,60,,0,0.416163275,-0.261598218,1,0,0,0.6115,button_right,0.6115,1,,,,,,232,WORD,UN,16,nature,INJECT,m,,,,,,0.416163275,-0.261598218,1,0,0,,0,224,224,231,1
,,,,,,,,,,,,,,,,,,5aeef693da09e4000153a21a,2020-11-25_17h35.12.851,lexical_decision_task_MP_exp2,2020.2.5,Linux armv8l,60,,0,-0.379572699,-0.266619533,1,0,0,0.6118,button_left,0.6118,1,,,,,,321,NW,"ID",16,miator,MIATOR,z,,,,,,-0.379572699,-0.266619533,1,0,0,,0,225,225,320,1
,,,,,,,,,,,,,,,,,,5aeef693da09e4000153a21a,2020-11-25_17h35.12.851,lexical_decision_task_MP_exp2,2020.2.5,Linux armv8l,60,,0,-0.378875328,-0.25469396,1,0,0,0.6479,button_left,0.6479,1,,,,,,373,NW,UN,33,injore,BIGENT,z,,,,,,-0.378875328,-0.25469396,1,0,0,,0,226,226,372,1
,,,,,,,,,,,,,,,,,,5aeef693da09e4000153a21a,2020-11-25_17h35.12.851,lexical_decision_task_MP_exp2,2020.2.5,Linux armv8l,60,,0,-0.39770524,-0.266619533,1,0,0,0.6127,button_left,0.6127,1,,,,,,249,NW,"ID",33,batrol,BATROL,z,,,,,,-0.39770524,-0.266619533,1,0,0,,0,227,227,248,1
,,,,,,,,,,,,,,,,,,5aeef693da09e4000153a21a,2020-11-25_17h35.12.851,lexical_decision_task_MP_exp2,2020.2.5,Linux armv8l,60,,0,0.425229505,-0.260656706,1,0,0,0.6444,button_right,0.6444,1,,,,,,129,WORD,UN,33,stupid,MARVEL,m,,,,,,0.425229505,-0.260656706,1,0,0,,0,228,228,128,1
,,,,,,,,,,,,,,,,,,5aeef693da09e4000153a21a,2020-11-25_17h35.12.851,lexical_decision_task_MP_exp2,2020.2.5,Linux armv8l,60,,0,-0.391428657,-0.272896117,1,0,0,0.797,button_left,0.797,1,,,,,,432,NW,UN,16,drance,LUNKER,z,,,,,,-0.391428657,-0.272896117,1,0,0,,0,229,229,431,1
,,,,,,,,,,,,,,,,,,5aeef693da09e4000153a21a,2020-11-25_17h35.12.851,lexical_decision_task_MP_exp2,2020.2.5,Linux armv8l,60,,0,0.426624409,-0.257204577,1,0,0,0.5148,button_right,0.5148,1,,,,,,31,WORD,"ID",33,weapon,WEAPON,m,,,,,,0.426624409,-0.257204577,1,0,0,,0,230,230,30,1
,,,,,,,,,,,,,,,,,,5aeef693da09e4000153a21a,2020-11-25_17h35.12.851,lexical_decision_task_MP_exp2,2020.2.5,Linux armv8l,60,,0,0.418952922,-0.271013174,1,0,0,0.6958,button_right,0.6958,1,,,,,,149,WORD,UN,33,random,INVADE,m,,,,,,0.418952922,-0.271013174,1,0,0,,0,231,231,148,1
,,,,,,,,,,,,,,,,,,5aeef693da09e4000153a21a,2020-11-25_17h35.12.851,lexical_decision_task_MP_exp2,2020.2.5,Linux armv8l,60,,0,0.416860727,-0.260656706,1,0,0,0.5985,button_right,0.5985,1,,,,,,220,WORD,UN,16,mascot,VOYAGE,m,,,,,,0.416860727,-0.260656706,1,0,0,,0,232,232,219,1
,,,,,,,,,,,,,,,,,,5aeef693da09e4000153a21a,2020-11-25_17h35.12.851,lexical_decision_task_MP_exp2,2020.2.5,Linux armv8l,60,,0,0.410583982,-0.263795079,1,0,0,0.5146,button_right,0.5146,1,,,,,,175,WORD,UN,33,strife,FABRIC,m,,,,,,0.410583982,-0.263795079,1,0,0,,0,233,233,174,1
,,,,,,,,,,,,,,,,,,5aeef693da09e4000153a21a,2020-11-25_17h35.12.851,lexical_decision_task_MP_exp2,2020.2.5,Linux armv8l,60,,0,-0.390033833,-0.257832251,1,0,0,0.6968,button_left,0.6968,1,,,,,,309,NW,"ID",16,amiloy,AMILOY,z,,,,,,-0.390033833,-0.257832251,1,0,0,,0,234,234,308,1
,,,,,,,,,,,,,,,,,,5aeef693da09e4000153a21a,2020-11-25_17h35.12.851,lexical_decision_task_MP_exp2,2020.2.5,Linux armv8l,60,,0,0.416163275,-0.268816313,1,0,0,0.5141,button_right,0.5141,1,,,,,,49,WORD,"ID",33,survey,SURVEY,m,,,,,,0.416163275,-0.268816313,1,0,0,,0,235,235,48,1
,,,,,,,,,,,,,,,,,,5aeef693da09e4000153a21a,2020-11-25_17h35.12.851,lexical_decision_task_MP_exp2,2020.2.5,Linux armv8l,60,,0,-0.371203921,-0.28262491,1,0,0,0.7503,button_left,0.7503,1,,,,,,244,NW,"ID",33,eatric,EATRIC,z,,,,,,-0.371203921,-0.28262491,1,0,0,,0,236,236,243,1
,,,,,,,,,,,,,,,,,,5aeef693da09e4000153a21a,2020-11-25_17h35.12.851,lexical_decision_task_MP_exp2,2020.2.5,Linux armv8l,60,,0,-0.367716903,-0.268188638,1,0,0,0.6658,button_left,0.6658,1,,,,,,311,NW,"ID",16,sproly,SPROLY,z,,,,,,-0.367716903,-0.268188638,1,0,0,,0,237,237,310,1
,,,,,,,,,,,,,,,,,,5aeef693da09e4000153a21a,2020-11-25_17h35.12.851,lexical_decision_task_MP_exp2,2020.2.5,Linux armv8l,60,,0,-0.398402692,-0.256263146,1,0,0,0.5997,button_left,0.5997,1,,,,,,329,NW,"ID",16,yarike,YARIKE,z,,,,,,-0.398402692,-0.256263146,1,0,0,,0,238,238,328,1
,,,,,,,,,,,,,,,,,,5aeef693da09e4000153a21a,2020-11-25_17h35.12.851,lexical_decision_task_MP_exp2,2020.2.5,Linux armv8l,60,,0,0.45452039,-0.264736509,1,0,0,0.6953,button_right,0.6953,1,,,,,,171,WORD,UN,33,patrol,DEPART,m,,,,,,0.45452039,-0.264736509,1,0,0,,0,239,239,170,1
,,,,,,,,,,,,,,,,,,5aeef693da09e4000153a21a,2020-11-25_17h35.12.851,lexical_decision_task_MP_exp2,2020.2.5,Linux armv8l,60,,0,-0.390731285,-0.267561045,1,0,0,0.7111,button_left,0.7111,1,,,,,,389,NW,UN,33,hatrus,WITMER,z,,,,,,-0.390731285,-0.267561045,1,0,0,,0,240,240,388,1
,,,,,,,,,,,,,,,,,,5aeef693da09e4000153a21a,2020-11-25_17h35.12.851,lexical_decision_task_MP_exp2,2020.2.5,Linux armv8l,60,,0,0.452428195,-0.26253973,1,0,0,0.6945,button_right,0.6945,1,,,,,,52,WORD,"ID",33,impose,IMPOSE,m,,,,,,0.452428195,-0.26253973,1,0,0,,0,241,241,51,1
,,,,,,,,,,,,,,,,,,5aeef693da09e4000153a21a,2020-11-25_17h35.12.851,lexical_decision_task_MP_exp2,2020.2.5,Linux armv8l,60,,0,-0.40677147,-0.273523791,1,0,0,0.635,button_left,0.635,1,,,,,,256,NW,"ID",33,inlors,INLORS,z,,,,,,-0.40677147,-0.273523791,1,0,0,,0,242,242,255,1
,,,,,,,,,,,,,,,,,,5aeef693da09e4000153a21a,2020-11-25_17h35.12.851,lexical_decision_task_MP_exp2,2020.2.5,Linux armv8l,60,,0,0.449638549,-0.265678021,1,0,0,0.4802,button_right,0.4802,1,,,,,,146,WORD,UN,33,garlic,COUPLE,m,,,,,,0.449638549,-0.265678021,1,0,0,,0,243,243,145,1
,,,,,,,,,,,,,,,,,,5aeef693da09e4000153a21a,2020-11-25_17h35.12.851,lexical_decision_task_MP_exp2,2020.2.5,Linux armv8l,60,,0,-0.395613046,-0.264108835,1,0,0,0.6648,button_left,0.6648,1,,,,,,252,NW,"ID",33,stapod,STAPOD,z,,,,,,-0.395613046,-0.264108835,1,0,0,,0,244,244,251,1
,,,,,,,,,,,,,,,,,,5aeef693da09e4000153a21a,2020-11-25_17h35.12.851,lexical_decision_task_MP_exp2,2020.2.5,Linux armv8l,60,,0,0.449638549,-0.255635471,1,0,0,0.5482,button_right,0.5482,1,,,,,,51,WORD,"ID",33,hungry,HUNGRY,m,,,,,,0.449638549,-0.255635471,1,0,0,,0,245,245,50,1
,,,,,,,,,,,,,,,,,,5aeef693da09e4000153a21a,2020-11-25_17h35.12.851,lexical_decision_task_MP_exp2,2020.2.5,Linux armv8l,60,,0,0.442664513,-0.273523791,1,0,0,1.0136,button_right,1.0136,1,,,,,,131,WORD,UN,33,strong,QUENCH,m,,,,,,0.442664513,-0.273523791,1,0,0,,0,246,246,130,1
,,,,,,,,,,,,,,,,,,5aeef693da09e4000153a21a,2020-11-25_17h35.12.851,lexical_decision_task_MP_exp2,2020.2.5,Linux armv8l,60,,0,0.473350302,-0.233981105,1,0,0,0.7793,button_right,0.7793,1,,,,,,212,WORD,UN,16,squeal,VERIFY,m,,,,,,0.473350302,-0.233981105,1,0,0,,0,247,247,211,1
,,,,,,,,,,,,,,,,,,5aeef693da09e4000153a21a,2020-11-25_17h35.12.851,lexical_decision_task_MP_exp2,2020.2.5,Linux armv8l,60,,0,-0.407468922,-0.265050347,1,0,0,0.6657,button_left,0.6657,1,,,,,,366,NW,UN,33,slique,TOSHEL,z,,,,,,-0.407468922,-0.265050347,1,0,0,,0,248,248,365,1
,,,,,,,,,,,,,,,,,,5aeef693da09e4000153a21a,2020-11-25_17h35.12.851,lexical_decision_task_MP_exp2,2020.2.5,Linux armv8l,60,,0,-0.424206559,-0.273523791,1,0,0,0.5781,button_left,0.5781,1,,,,,,323,NW,"ID",16,rosail,ROSAIL,z,,,,,,-0.424206559,-0.273523791,1,0,0,,0,249,249,322,1
,,,,,,,,,,,,,,,,,,5aeef693da09e4000153a21a,2020-11-25_17h35.12.851,lexical_decision_task_MP_exp2,2020.2.5,Linux armv8l,60,,0,-0.411653311,-0.256263146,1,0,0,0.5676,button_left,0.5676,1,,,,,,350,NW,"ID",16,nagurs,NAGURS,z,,,,,,-0.411653311,-0.256263146,1,0,0,,0,250,250,349,1
,,,,,,,,,,,,,,,,,,5aeef693da09e4000153a21a,2020-11-25_17h35.12.851,lexical_decision_task_MP_exp2,2020.2.5,Linux armv8l,60,,0,0.453125648,-0.258146089,1,0,0,0.6283,button_right,0.6283,1,,,,,,92,WORD,"ID",16,strand,STRAND,m,,,,,,0.453125648,-0.258146089,1,0,0,,0,251,251,91,1
,,,,,,,,,,,,,,,,,,5aeef693da09e4000153a21a,2020-11-25_17h35.12.851,lexical_decision_task_MP_exp2,2020.2.5,Linux armv8l,60,,0,0.453125648,-0.240571525,1,0,0,0.4972,button_right,0.4972,1,,,,,,95,WORD,"ID",16,thread,THREAD,m,,,,,,0.453125648,-0.240571525,1,0,0,,0,252,252,94,1
,,,,,,,,,,,,,,,,,,5aeef693da09e4000153a21a,2020-11-25_17h35.12.851,lexical_decision_task_MP_exp2,2020.2.5,Linux armv8l,60,,0,-0.38863901,-0.248417295,1,0,0,0.6325,button_left,0.6325,1,,,,,,294,NW,"ID",33,inhort,INHORT,z,,,,,,-0.38863901,-0.248417295,1,0,0,,0,253,253,293,1
,,,,,,,,,,,,,,,,,,5aeef693da09e4000153a21a,2020-11-25_17h35.12.851,lexical_decision_task_MP_exp2,2020.2.5,Linux armv8l,60,,0,0.449638549,-0.243396061,1,0,0,0.5638,button_right,0.5638,1,,,,,,45,WORD,"ID",33,clergy,CLERGY,m,,,,,,0.449638549,-0.243396061,1,0,0,,0,254,254,44,1
,,,,,,,,,,,,,,,,,,5aeef693da09e4000153a21a,2020-11-25_17h35.12.851,lexical_decision_task_MP_exp2,2020.2.5,Linux armv8l,60,,0,-0.428390948,-0.261912055,1,0,0,0.6465,button_left,0.6465,1,,,,,,438,NW,UN,16,limpor,BAITCH,z,,,,,,-0.428390948,-0.261912055,1,0,0,,0,255,255,437,1
,,,,,,,,,,,,,,,,,,5aeef693da09e4000153a21a,2020-11-25_17h35.12.851,lexical_decision_task_MP_exp2,2020.2.5,Linux armv8l,60,,0,-0.401889629,-0.247789621,1,0,0,0.8808,button_left,0.8808,1,,,,,,469,NW,UN,16,crudio,PADIFS,z,,,,,,-0.401889629,-0.247789621,1,0,0,,0,256,256,468,1
,,,,,,,,,,,,,,,,,,5aeef693da09e4000153a21a,2020-11-25_17h35.12.851,lexical_decision_task_MP_exp2,2020.2.5,Linux armv8l,60,,0,0.439875028,-0.249358807,1,0,0,0.6147,button_right,0.6147,1,,,,,,35,WORD,"ID",33,socket,SOCKET,m,,,,,,0.439875028,-0.249358807,1,0,0,,0,257,257,34,1
,,,,,,,,,,,,,,,,,,5aeef693da09e4000153a21a,2020-11-25_17h35.12.851,lexical_decision_task_MP_exp2,2020.2.5,Linux armv8l,60,,0,0.428019152,-0.253124773,1,0,0,0.796,button_right,0.796,1,,,,,,181,WORD,UN,16,winter,GLANCE,m,,,,,,0.428019152,-0.253124773,1,0,0,,0,258,258,180,1
,,,,,,,,,,,,,,,,,,5aeef693da09e4000153a21a,2020-11-25_17h35.12.851,lexical_decision_task_MP_exp2,2020.2.5,Linux armv8l,60,,0,0.44475687,-0.227076847,1,0,0,0.4861,button_right,0.4861,1,,,,,,158,WORD,UN,33,detail,ISLAND,m,,,,,,0.44475687,-0.227076847,1,0,0,,0,259,259,157,1
,,,,,,,,,,,,,,,,,,5aeef693da09e4000153a21a,2020-11-25_17h35.12.851,lexical_decision_task_MP_exp2,2020.2.5,Linux armv8l,60,,0,-0.397007869,-0.261598218,1,0,0,0.7823,button_left,0.7823,1,,,,,,339,NW,"ID",16,fachow,FACHOW,z,,,,,,-0.397007869,-0.261598218,1,0,0,,0,260,260,338,1
,,,,,,,,,,,,,,,,,,5aeef693da09e4000153a21a,2020-11-25_17h35.12.851,lexical_decision_task_MP_exp2,2020.2.5,Linux armv8l,60,,0,0.418952922,-0.260970543,1,0,0,0.8797,button_right,0.8797,1,,,,,,174,WORD,UN,33,fabric,TURKEY,m,,,,,,0.418952922,-0.260970543,1,0,0,,0,261,261,173,1
,,,,,,,,,,,,,,,,,,5aeef693da09e4000153a21a,2020-11-25_17h35.12.851,lexical_decision_task_MP_exp2,2020.2.5,Linux armv8l,60,,0,-0.378177876,-0.245906678,1,0,0,0.7003,button_left,0.7003,1,,,,,,269,NW,"ID",33,orchet,ORCHET,z,,,,,,-0.378177876,-0.245906678,1,0,0,,0,262,262,268,1
,,,,,,,,,,,,,,,,,,5aeef693da09e4000153a21a,2020-11-25_17h35.12.851,lexical_decision_task_MP_exp2,2020.2.5,Linux armv8l,60,,0,-0.402587081,-0.260970543,1,0,0,0.7136,button_left,0.7136,1,,,,,,440,NW,UN,16,cainky,SARIDE,z,,,,,,-0.402587081,-0.260970543,1,0,0,,0,263,263,439,1
,,,,,,,,,,,,,,,,,,5aeef693da09e4000153a21a,2020-11-25_17h35.12.851,lexical_decision_task_MP_exp2,2020.2.5,Linux armv8l,60,,0,0.438480124,-0.261912055,1,0,0,0.7124,button_right,0.7124,1,,,,,,102,WORD,"ID",16,direct,DIRECT,m,,,,,,0.438480124,-0.261912055,1,0,0,,0,264,264,101,1
,,,,,,,,,,,,,,,,,,5aeef693da09e4000153a21a,2020-11-25_17h35.12.851,lexical_decision_task_MP_exp2,2020.2.5,Linux armv8l,60,,0,-0.390033833,-0.259715275,1,0,0,1.8426,button_left,1.8426,1,,,,,,435,NW,UN,16,frutan,IMPURB,z,,,,,,-0.390033833,-0.259715275,1,0,0,,0,265,265,434,1
,,,,,,,,,,,,,,,,,,5aeef693da09e4000153a21a,2020-11-25_17h35.12.851,lexical_decision_task_MP_exp2,2020.2.5,Linux armv8l,60,,0,0.439177576,-0.268816313,1,0,0,0.6528,button_right,0.6528,1,,,,,,75,WORD,"ID",16,trophy,TROPHY,m,,,,,,0.439177576,-0.268816313,1,0,0,,0,266,266,74,1
,,,,,,,,,,,,,,,,,,5aeef693da09e4000153a21a,2020-11-25_17h35.12.851,lexical_decision_task_MP_exp2,2020.2.5,Linux armv8l,60,,0,0.444059417,-0.26253973,1,0,0,0.8127,button_right,0.8127,1,,,,,,207,WORD,UN,16,hockey,WREATH,m,,,,,,0.444059417,-0.26253973,1,0,0,,0,267,267,206,1
,,,,,,,,,,,,,,,,,,5aeef693da09e4000153a21a,2020-11-25_17h35.12.851,lexical_decision_task_MP_exp2,2020.2.5,Linux armv8l,60,,0,0.450336001,-0.273209954,1,0,0,0.8968,button_right,0.8968,1,,,,,,32,WORD,"ID",33,buckle,BUCKLE,m,,,,,,0.450336001,-0.273209954,1,0,0,,0,268,268,31,1
,,,,,,,,,,,,,,,,,,5aeef693da09e4000153a21a,2020-11-25_17h35.12.851,lexical_decision_task_MP_exp2,2020.2.5,Linux armv8l,60,,0,-0.403284533,-0.282938747,1,0,0,0.895,button_left,0.895,1,,,,,,412,NW,UN,33,equats,JILUER,z,,,,,,-0.403284533,-0.282938747,1,0,0,,0,269,269,411,1
,,,,,,,,,,,,,,,,,,5aeef693da09e4000153a21a,2020-11-25_17h35.12.851,lexical_decision_task_MP_exp2,2020.2.5,Linux armv8l,60,,0,0.437085382,-0.268502557,1,0,0,0.5975,button_right,0.5975,1,,,,,,112,WORD,"ID",16,breath,BREATH,m,,,,,,0.437085382,-0.268502557,1,0,0,,0,270,270,111,1
,,,,,,,,,,,,,,,,,,5aeef693da09e4000153a21a,2020-11-25_17h35.12.851,lexical_decision_task_MP_exp2,2020.2.5,Linux armv8l,60,,0,-0.40677147,-0.26693337,1,0,0,0.7954,button_left,0.7954,1,,,,,,289,NW,"ID",33,starby,STARBY,z,,,,,,-0.40677147,-0.26693337,1,0,0,,0,271,271,288,1
,,,,,,,,,,,,,,,,,,5aeef693da09e4000153a21a,2020-11-25_17h35.12.851,lexical_decision_task_MP_exp2,2020.2.5,Linux armv8l,60,,0,-0.422114365,-0.268502557,1,0,0,0.6229,button_left,0.6229,1,,,,,,384,NW,UN,33,veigma,GUESCO,z,,,,,,-0.422114365,-0.268502557,1,0,0,,0,272,272,383,1
,,,,,,,,,,,,,,,,,,5aeef693da09e4000153a21a,2020-11-25_17h35.12.851,lexical_decision_task_MP_exp2,2020.2.5,Linux armv8l,60,,0,-0.413048135,-0.263481241,1,0,0,0.5649,button_left,0.5649,1,,,,,,441,NW,UN,16,aboune,RASTOE,z,,,,,,-0.413048135,-0.263481241,1,0,0,,0,273,273,440,1
,,,,,,,,,,,,,,,,,,5aeef693da09e4000153a21a,2020-11-25_17h35.12.851,lexical_decision_task_MP_exp2,2020.2.5,Linux armv8l,60,,0,-0.408863665,-0.239943932,1,0,0,0.6478,button_left,0.6478,1,,,,,,285,NW,"ID",33,prudge,PRUDGE,z,,,,,,-0.408863665,-0.239943932,1,0,0,,0,274,274,284,1
,,,,,,,,,,,,,,,,,,5aeef693da09e4000153a21a,2020-11-25_17h35.12.851,lexical_decision_task_MP_exp2,2020.2.5,Linux armv8l,60,,0,0.44545416,-0.263795079,1,0,0,0.6484,button_right,0.6484,1,,,,,,159,WORD,UN,33,violet,DETAIL,m,,,,,,0.44545416,-0.263795079,1,0,0,,0,275,275,158,1
,,,,,,,,,,,,,,,,,,5aeef693da09e4000153a21a,2020-11-25_17h35.12.851,lexical_decision_task_MP_exp2,2020.2.5,Linux armv8l,60,,0,0.437085382,-0.264422753,1,0,0,1.0129,button_right,1.0129,0,,,,,,364,NW,UN,33,guairt,IMPOTE,z,,,,,,0.437085382,-0.264422753,1,0,0,,0,276,276,363,1
,,,,,,,,,,,,,,,,,,5aeef693da09e4000153a21a,2020-11-25_17h35.12.851,lexical_decision_task_MP_exp2,2020.2.5,Linux armv8l,60,,0,-0.402587081,-0.269757825,1,0,0,0.863,button_left,0.863,1,,,,,,449,NW,UN,16,phrect,BRUNGE,z,,,,,,-0.402587081,-0.269757825,1,0,0,,0,277,277,448,1
,,,,,,,,,,,,,,,,,,5aeef693da09e4000153a21a,2020-11-25_17h35.12.851,lexical_decision_task_MP_exp2,2020.2.5,Linux armv8l,60,,0,-0.409561117,-0.26913015,1,0,0,1.2629,button_left,1.2629,1,,,,,,259,NW,"ID",33,soudal,SOUDAL,z,,,,,,-0.409561117,-0.26913015,1,0,0,,0,278,278,258,1
,,,,,,,,,,,,,,,,,,5aeef693da09e4000153a21a,2020-11-25_17h35.12.851,lexical_decision_task_MP_exp2,2020.2.5,Linux armv8l,60,,0,-0.399797435,-0.261598218,1,0,0,0.6973,button_left,0.6973,1,,,,,,274,NW,"ID",33,fumblo,FUMBLO,z,,,,,,-0.399797435,-0.261598218,1,0,0,,0,279,279,273,1
,,,,,,,,,,,,,,,,,,5aeef693da09e4000153a21a,2020-11-25_17h35.12.851,lexical_decision_task_MP_exp2,2020.2.5,Linux armv8l,60,,0,-0.40677147,-0.260029031,1,0,0,0.8956,button_left,0.8956,1,,,,,,348,NW,"ID",16,dumple,DUMPLE,z,,,,,,-0.40677147,-0.260029031,1,0,0,,0,280,280,347,1
,,,,,,,,,,,,,,,,,,5aeef693da09e4000153a21a,2020-11-25_17h35.12.851,lexical_decision_task_MP_exp2,2020.2.5,Linux armv8l,60,,0,-0.398402692,-0.272268442,1,0,0,0.9289,button_left,0.9289,1,,,,,,314,NW,"ID",16,sprine,SPRINE,z,,,,,,-0.398402692,-0.272268442,1,0,0,,0,281,281,313,1
,,,,,,,,,,,,,,,,,,5aeef693da09e4000153a21a,2020-11-25_17h35.12.851,lexical_decision_task_MP_exp2,2020.2.5,Linux armv8l,60,,0,-0.408166293,-0.260970543,1,0,0,1.1452,button_left,1.1452,1,,,,,,325,NW,"ID",16,thruse,THRUSE,z,,,,,,-0.408166293,-0.260970543,1,0,0,,0,282,282,324,1
,,,,,,,,,,,,,,,,,,5aeef693da09e4000153a21a,2020-11-25_17h35.12.851,lexical_decision_task_MP_exp2,2020.2.5,Linux armv8l,60,,0,0.412676338,-0.265050347,1,0,0,0.8643,button_right,0.8643,1,,,,,,55,WORD,"ID",33,stroke,STROKE,m,,,,,,0.412676338,-0.265050347,1,0,0,,0,283,283,54,1
,,,,,,,,,,,,,,,,,,5aeef693da09e4000153a21a,2020-11-25_17h35.12.851,lexical_decision_task_MP_exp2,2020.2.5,Linux armv8l,60,,0,-0.398402692,-0.266619533,1,0,0,0.8354,button_left,0.8354,1,,,,,,471,NW,UN,16,cigney,NOBEST,z,,,,,,-0.398402692,-0.266619533,1,0,0,,0,284,284,470,1
,,,,,,,,,,,,,,,,,,5aeef693da09e4000153a21a,2020-11-25_17h35.12.851,lexical_decision_task_MP_exp2,2020.2.5,Linux armv8l,60,,0,0.434993187,-0.26034295,1,0,0,0.7371,button_right,0.7371,1,,,,,,91,WORD,"ID",16,expand,EXPAND,m,,,,,,0.434993187,-0.26034295,1,0,0,,0,285,285,90,1
,,,,,,,,,,,,,,,,,,5aeef693da09e4000153a21a,2020-11-25_17h35.12.851,lexical_decision_task_MP_exp2,2020.2.5,Linux armv8l,60,,0,0.44475687,-0.238688583,1,0,0,0.6308,button_right,0.6308,1,,,,,,90,WORD,"ID",16,relish,RELISH,m,,,,,,0.44475687,-0.238688583,1,0,0,,0,286,286,89,1
,,,,,,,,,,,,,,,,,,5aeef693da09e4000153a21a,2020-11-25_17h35.12.851,lexical_decision_task_MP_exp2,2020.2.5,Linux armv8l,60,,0,0.439177576,-0.26128438,1,0,0,0.5261,button_right,0.5261,1,,,,,,193,WORD,UN,16,plague,OBJECT,m,,,,,,0.439177576,-0.26128438,1,0,0,,0,287,287,192,1
,,,,,,,,,,,,,,,,,,5aeef693da09e4000153a21a,2020-11-25_17h35.12.851,lexical_decision_task_MP_exp2,2020.2.5,Linux armv8l,60,,0,0.44475687,-0.248731133,1,0,0,0.5593,button_right,0.5593,1,,,,,,99,WORD,"ID",16,fluent,FLUENT,m,,,,,,0.44475687,-0.248731133,1,0,0,,0,288,288,98,1
,,,,,,,,,,,,,,,,,,5aeef693da09e4000153a21a,2020-11-25_17h35.12.851,lexical_decision_task_MP_exp2,2020.2.5,Linux armv8l,60,,0,0.451033291,-0.262853567,1,0,0,1.0958,button_right,1.0958,1,,,,,,124,WORD,UN,33,nickel,BLOUSE,m,,,,,,0.451033291,-0.262853567,1,0,0,,0,289,289,123,1
,,,,,,,,,,,,,,,,,,5aeef693da09e4000153a21a,2020-11-25_17h35.12.851,lexical_decision_task_MP_exp2,2020.2.5,Linux armv8l,60,,0,-0.400494887,-0.255635471,1,0,0,0.812,button_left,0.812,1,,,,,,476,NW,UN,16,photie,JOSTED,z,,,,,,-0.400494887,-0.255635471,1,0,0,,0,290,290,475,1
,,,,,,,,,,,,,,,,,,5aeef693da09e4000153a21a,2020-11-25_17h35.12.851,lexical_decision_task_MP_exp2,2020.2.5,Linux armv8l,60,,0,0.443361965,-0.265678021,1,0,0,0.8806,button_right,0.8806,1,,,,,,161,WORD,UN,33,candle,PASTOR,m,,,,,,0.443361965,-0.265678021,1,0,0,,0,291,291,160,1
,,,,,,,,,,,,,,,,,,5aeef693da09e4000153a21a,2020-11-25_17h35.12.851,lexical_decision_task_MP_exp2,2020.2.5,Linux armv8l,60,,0,0.446151612,-0.256263146,1,0,0,0.6797,button_right,0.6797,1,,,,,,109,WORD,"ID",16,wonder,WONDER,m,,,,,,0.446151612,-0.256263146,1,0,0,,0,292,292,108,1
,,,,,,,,,,,,,,,,,,5aeef693da09e4000153a21a,2020-11-25_17h35.12.851,lexical_decision_task_MP_exp2,2020.2.5,Linux armv8l,60,,0,-0.440246825,-0.270071662,1,0,0,0.9445,button_left,0.9445,1,,,,,,343,NW,"ID",16,aimosy,AIMOSY,z,,,,,,-0.440246825,-0.270071662,1,0,0,,0,293,293,342,1
,,,,,,,,,,,,,,,,,,5aeef693da09e4000153a21a,2020-11-25_17h35.12.851,lexical_decision_task_MP_exp2,2020.2.5,Linux armv8l,60,,0,-0.418627347,-0.267874882,1,0,0,1.4999,button_left,1.4999,1,,,,,,272,NW,"ID",33,damilt,DAMILT,z,,,,,,-0.418627347,-0.267874882,1,0,0,,0,294,294,271,1
,,,,,,,,,,,,,,,,,,5aeef693da09e4000153a21a,2020-11-25_17h35.12.851,lexical_decision_task_MP_exp2,2020.2.5,Linux armv8l,60,,0,0.444059417,-0.269757825,1,0,0,0.7787,button_right,0.7787,1,,,,,,210,WORD,UN,16,infect,MONKEY,m,,,,,,0.444059417,-0.269757825,1,0,0,,0,295,295,209,1
,,,,,,,,,,,,,,,,,,5aeef693da09e4000153a21a,2020-11-25_17h35.12.851,lexical_decision_task_MP_exp2,2020.2.5,Linux armv8l,60,,0,-0.438154549,-0.276662164,1,0,0,0.7488,button_left,0.7488,1,,,,,,369,NW,UN,33,sleact,WRONCH,z,,,,,,-0.438154549,-0.276662164,1,0,0,,0,296,296,368,1
,,,,,,,,,,,,,,,,,,5aeef693da09e4000153a21a,2020-11-25_17h35.12.851,lexical_decision_task_MP_exp2,2020.2.5,Linux armv8l,60,,0,-0.423509188,-0.285449364,1,0,0,0.8012,button_left,0.8012,1,,,,,,271,NW,"ID",33,aubrid,AUBRID,z,,,,,,-0.423509188,-0.285449364,1,0,0,,0,297,297,270,1
,,,,,,,,,,,,,,,,,,5aeef693da09e4000153a21a,2020-11-25_17h35.12.851,lexical_decision_task_MP_exp2,2020.2.5,Linux armv8l,60,,0,-0.409561117,-0.280114293,1,0,0,0.6296,button_left,0.6296,1,,,,,,287,NW,"ID",33,nymbel,NYMBEL,z,,,,,,-0.409561117,-0.280114293,1,0,0,,0,298,298,286,1
,,,,,,,,,,,,,,,,,,5aeef693da09e4000153a21a,2020-11-25_17h35.12.851,lexical_decision_task_MP_exp2,2020.2.5,Linux armv8l,60,,0,-0.416535152,-0.273837628,1,0,0,1.383,button_left,1.383,1,,,,,,391,NW,UN,33,rouncy,THELDY,z,,,,,,-0.416535152,-0.273837628,1,0,0,,0,299,299,390,1
,,,,,,,,,,,,,,,,,,5aeef693da09e4000153a21a,2020-11-25_17h35.12.851,lexical_decision_task_MP_exp2,2020.2.5,Linux armv8l,60,,0,-0.400494887,-0.270385499,1,0,0,0.6291,button_left,0.6291,1,,,,,,450,NW,UN,16,rastoe,PHRECT,z,,,,,,-0.400494887,-0.270385499,1,0,0,,0,300,300,449,1
,,,,,,,,,,,,,,,,,,5aeef693da09e4000153a21a,2020-11-25_17h35.12.851,lexical_decision_task_MP_exp2,2020.2.5,Linux armv8l,60,,0,0.455915132,-0.276348246,1,0,0,0.7641,button_right,0.7641,1,,,,,,84,WORD,"ID",16,mortal,MORTAL,m,,,,,,0.455915132,-0.276348246,1,0,0,,0,301,301,83,1
,,,,,,,,,,,,,,,,,,5aeef693da09e4000153a21a,2020-11-25_17h35.12.851,lexical_decision_task_MP_exp2,2020.2.5,Linux armv8l,60,,0,0.45452039,-0.253438611,1,0,0,0.6304,button_right,0.6304,1,,,,,,43,WORD,"ID",33,tongue,TONGUE,m,,,,,,0.45452039,-0.253438611,1,0,0,,0,302,302,42,1
,,,,,,,,,,,,,,,,,,5aeef693da09e4000153a21a,2020-11-25_17h35.12.851,lexical_decision_task_MP_exp2,2020.2.5,Linux armv8l,60,,0,-0.421416993,-0.265050347,1,0,0,0.8307,button_left,0.8307,1,,,,,,375,NW,UN,33,iguare,YORQUE,z,,,,,,-0.421416993,-0.265050347,1,0,0,,0,303,303,374,1
,,,,,,,,,,,,,,,,,,5aeef693da09e4000153a21a,2020-11-25_17h35.12.851,lexical_decision_task_MP_exp2,2020.2.5,Linux armv8l,60,,0,-0.407468922,-0.257518414,1,0,0,0.9317,button_left,0.9317,1,,,,,,443,NW,UN,16,jaunce,DORSEX,z,,,,,,-0.407468922,-0.257518414,1,0,0,,0,304,304,442,1
,,,,,,,,,,,,,,,,,,5aeef693da09e4000153a21a,2020-11-25_17h35.12.851,lexical_decision_task_MP_exp2,2020.2.5,Linux armv8l,60,,0,0.44545416,-0.262853567,1,0,0,0.7132,button_right,0.7132,1,,,,,,167,WORD,UN,33,answer,DESIGN,m,,,,,,0.44545416,-0.262853567,1,0,0,,0,305,305,166,1
,,,,,,,,,,,,,,,,,,5aeef693da09e4000153a21a,2020-11-25_17h35.12.851,lexical_decision_task_MP_exp2,2020.2.5,Linux armv8l,60,,0,-0.415140329,-0.251555668,1,0,0,0.6679,button_left,0.6679,1,,,,,,346,NW,"ID",16,saudic,SAUDIC,z,,,,,,-0.415140329,-0.251555668,1,0,0,,0,306,306,345,1
,,,,,,,,,,,,,,,,,,5aeef693da09e4000153a21a,2020-11-25_17h35.12.851,lexical_decision_task_MP_exp2,2020.2.5,Linux armv8l,60,,0,0.45452039,-0.259087601,1,0,0,0.7291,button_right,0.7291,1,,,,,,67,WORD,"ID",16,policy,POLICY,m,,,,,,0.45452039,-0.259087601,1,0,0,,0,307,307,66,1
,,,,,,,,,,,,,,,,,,5aeef693da09e4000153a21a,2020-11-25_17h35.12.851,lexical_decision_task_MP_exp2,2020.2.5,Linux armv8l,60,,0,0.469863204,-0.2411992,1,0,0,0.5857,button_right,0.5857,1,,,,,,180,WORD,UN,33,thrive,SILENT,m,,,,,,0.469863204,-0.2411992,1,0,0,,0,308,308,179,1
,,,,,,,,,,,,,,,,,,5aeef693da09e4000153a21a,2020-11-25_17h35.12.851,lexical_decision_task_MP_exp2,2020.2.5,Linux armv8l,60,,0,0.451730743,-0.26253973,1,0,0,0.664,button_right,0.664,1,,,,,,237,WORD,UN,16,seldom,POSTER,m,,,,,,0.451730743,-0.26253973,1,0,0,,0,309,309,236,1
,,,,,,,,,,,,,,,,,,5aeef693da09e4000153a21a,2020-11-25_17h35.12.851,lexical_decision_task_MP_exp2,2020.2.5,Linux armv8l,60,,0,-0.411653311,-0.255635471,1,0,0,0.6229,button_left,0.6229,1,,,,,,406,NW,UN,33,suiver,NOUPLY,z,,,,,,-0.411653311,-0.255635471,1,0,0,,0,310,310,405,1
,,,,,,,,,,,,,,,,,,5aeef693da09e4000153a21a,2020-11-25_17h35.12.851,lexical_decision_task_MP_exp2,2020.2.5,Linux armv8l,60,,0,0.48171908,-0.22550766,1,0,0,0.6303,button_right,0.6303,1,,,,,,114,WORD,"ID",16,placid,PLACID,m,,,,,,0.48171908,-0.22550766,1,0,0,,0,311,311,113,1
,,,,,,,,,,,,,,,,,,5aeef693da09e4000153a21a,2020-11-25_17h35.12.851,lexical_decision_task_MP_exp2,2020.2.5,Linux armv8l,60,,0,0.47195556,-0.236491722,1,0,0,0.6285,button_right,0.6285,1,,,,,,141,WORD,UN,33,spruce,ORPHAN,m,,,,,,0.47195556,-0.236491722,1,0,0,,0,312,312,140,1
,,,,,,,,,,,,,,,,,,5aeef693da09e4000153a21a,2020-11-25_17h35.12.851,lexical_decision_task_MP_exp2,2020.2.5,Linux armv8l,60,,0,-0.409561117,-0.234294942,1,0,0,0.7462,button_left,0.7462,1,,,,,,338,NW,"ID",16,wreash,WREASH,z,,,,,,-0.409561117,-0.234294942,1,0,0,,0,313,313,337,1
,,,,,,,,,,,,,,,,,,5aeef693da09e4000153a21a,2020-11-25_17h35.12.851,lexical_decision_task_MP_exp2,2020.2.5,Linux armv8l,60,,0,-0.398402692,-0.268188638,1,0,0,1.0122,button_left,1.0122,1,,,,,,470,NW,UN,16,nobest,CRUDIO,z,,,,,,-0.398402692,-0.268188638,1,0,0,,0,314,314,469,1
,,,,,,,,,,,,,,,,,,5aeef693da09e4000153a21a,2020-11-25_17h35.12.851,lexical_decision_task_MP_exp2,2020.2.5,Linux armv8l,60,,0,-0.404679276,-0.24904497,1,0,0,0.7766,button_left,0.7766,1,,,,,,429,NW,UN,16,caroey,FUNTLE,z,,,,,,-0.404679276,-0.24904497,1,0,0,,0,315,315,428,1
,,,,,,,,,,,,,,,,,,5aeef693da09e4000153a21a,2020-11-25_17h35.12.851,lexical_decision_task_MP_exp2,2020.2.5,Linux armv8l,60,,0,0.438480124,-0.259401438,1,0,0,0.6329,button_right,0.6329,1,,,,,,60,WORD,"ID",33,pencil,PENCIL,m,,,,,,0.438480124,-0.259401438,1,0,0,,0,316,316,59,1
,,,,,,,,,,,,,,,,,,5aeef693da09e4000153a21a,2020-11-25_17h35.12.851,lexical_decision_task_MP_exp2,2020.2.5,Linux armv8l,60,,0,-0.4158377,-0.252497099,1,0,0,0.78,button_left,0.78,1,,,,,,468,NW,UN,16,padifs,WICTOR,z,,,,,,-0.4158377,-0.252497099,1,0,0,,0,317,317,467,1
,,,,,,,,,,,,,,,,,,5aeef693da09e4000153a21a,2020-11-25_17h35.12.851,lexical_decision_task_MP_exp2,2020.2.5,Linux armv8l,60,,0,0.458704779,-0.249672644,1,0,0,0.8283,button_right,0.8283,1,,,,,,57,WORD,"ID",33,change,CHANGE,m,,,,,,0.458704779,-0.249672644,1,0,0,,0,318,318,56,1
,,,,,,,,,,,,,,,,,,5aeef693da09e4000153a21a,2020-11-25_17h35.12.851,lexical_decision_task_MP_exp2,2020.2.5,Linux armv8l,60,,0,0.460796973,-0.246220515,1,0,0,0.5996,button_right,0.5996,1,,,,,,127,WORD,UN,33,senior,CASTLE,m,,,,,,0.460796973,-0.246220515,1,0,0,,0,319,319,126,1
,,,,,,,,,,,,,,,,,,5aeef693da09e4000153a21a,2020-11-25_17h35.12.851,lexical_decision_task_MP_exp2,2020.2.5,Linux armv8l,60,,0,0.457310037,-0.246220515,1,0,0,0.6631,button_right,0.6631,1,,,,,,105,WORD,"ID",16,number,NUMBER,m,,,,,,0.457310037,-0.246220515,1,0,0,,0,320,320,104,1
,,,,,,,,,,,,,,,,,,5aeef693da09e4000153a21a,2020-11-25_17h35.12.851,lexical_decision_task_MP_exp2,2020.2.5,Linux armv8l,60,,0,0.46358662,-0.225821498,1,0,0,0.7618,button_right,0.7618,1,,,,,,135,WORD,UN,33,chrome,IMPORT,m,,,,,,0.46358662,-0.225821498,1,0,0,,0,321,321,134,1
,,,,,,,,,,,,,,,,,,5aeef693da09e4000153a21a,2020-11-25_17h35.12.851,lexical_decision_task_MP_exp2,2020.2.5,Linux armv8l,60,,0,0.47265285,-0.222997043,1,0,0,0.549,button_right,0.549,1,,,,,,172,WORD,UN,33,shower,PATROL,m,,,,,,0.47265285,-0.222997043,1,0,0,,0,322,322,171,1
,,,,,,,,,,,,,,,,,,5aeef693da09e4000153a21a,2020-11-25_17h35.12.851,lexical_decision_task_MP_exp2,2020.2.5,Linux armv8l,60,,0,-0.429088319,-0.249986482,1,0,0,1.1301,button_left,1.1301,1,,,,,,357,NW,"ID",16,derain,DERAIN,z,,,,,,-0.429088319,-0.249986482,1,0,0,,0,323,323,356,1
,,,,,,,,,,,,,,,,,,5aeef693da09e4000153a21a,2020-11-25_17h35.12.851,lexical_decision_task_MP_exp2,2020.2.5,Linux armv8l,60,,0,0.443361965,-0.247789621,1,0,0,0.796,button_right,0.796,1,,,,,,201,WORD,UN,16,factor,ADMIRE,m,,,,,,0.443361965,-0.247789621,1,0,0,,0,324,324,200,1
,,,,,,,,,,,,,,,,,,5aeef693da09e4000153a21a,2020-11-25_17h35.12.851,lexical_decision_task_MP_exp2,2020.2.5,Linux armv8l,60,,0,-0.422114365,-0.248417295,1,0,0,0.9791,button_left,0.9791,1,,,,,,456,NW,UN,16,wanigh,BROGET,z,,,,,,-0.422114365,-0.248417295,1,0,0,,0,325,325,455,1
,,,,,,,,,,,,,,,,,,5aeef693da09e4000153a21a,2020-11-25_17h35.12.851,lexical_decision_task_MP_exp2,2020.2.5,Linux armv8l,60,,0,0.466376267,-0.226135335,1,0,0,0.6998,button_right,0.6998,1,,,,,,170,WORD,UN,33,depart,POUNCE,m,,,,,,0.466376267,-0.226135335,1,0,0,,0,326,326,169,1
,,,,,,,,,,,,,,,,,,5aeef693da09e4000153a21a,2020-11-25_17h35.12.851,lexical_decision_task_MP_exp2,2020.2.5,Linux armv8l,60,,0,-0.406074099,-0.242140712,1,0,0,0.6962,button_left,0.6962,1,,,,,,472,NW,UN,16,crible,CIGNEY,z,,,,,,-0.406074099,-0.242140712,1,0,0,,0,327,327,471,1
,,,,,,,,,,,,,,,,,,5aeef693da09e4000153a21a,2020-11-25_17h35.12.851,lexical_decision_task_MP_exp2,2020.2.5,Linux armv8l,60,,0,-0.402587081,-0.256263146,1,0,0,0.6804,button_left,0.6804,1,,,,,,257,NW,"ID",33,veniod,VENIOD,z,,,,,,-0.402587081,-0.256263146,1,0,0,,0,328,328,256,1
,,,,,,,,,,,,,,,,,,5aeef693da09e4000153a21a,2020-11-25_17h35.12.851,lexical_decision_task_MP_exp2,2020.2.5,Linux armv8l,60,,0,-0.411653311,-0.256263146,1,0,0,0.6081,button_left,0.6081,1,,,,,,424,NW,UN,16,urivel,PRAILE,z,,,,,,-0.411653311,-0.256263146,1,0,0,,0,329,329,423,1
,,,,,,,,,,,,,,,,,,5aeef693da09e4000153a21a,2020-11-25_17h35.12.851,lexical_decision_task_MP_exp2,2020.2.5,Linux armv8l,60,,0,0.453125648,-0.243709817,1,0,0,0.7281,button_right,0.7281,1,,,,,,101,WORD,"ID",16,wrench,WRENCH,m,,,,,,0.453125648,-0.243709817,1,0,0,,0,330,330,100,1
,,,,,,,,,,,,,,,,,,5aeef693da09e4000153a21a,2020-11-25_17h35.12.851,lexical_decision_task_MP_exp2,2020.2.5,Linux armv8l,60,,0,0.464981362,-0.228332115,1,0,0,0.7626,button_right,0.7626,1,,,,,,123,WORD,UN,33,enough,STRIKE,m,,,,,,0.464981362,-0.228332115,1,0,0,,0,331,331,122,1
,,,,,,,,,,,,,,,,,,5aeef693da09e4000153a21a,2020-11-25_17h35.12.851,lexical_decision_task_MP_exp2,2020.2.5,Linux armv8l,60,,0,-0.402587081,-0.236805559,1,0,0,0.645,button_left,0.645,1,,,,,,337,NW,"ID",16,rejols,REJOLS,z,,,,,,-0.402587081,-0.236805559,1,0,0,,0,332,332,336,1
,,,,,,,,,,,,,,,,,,5aeef693da09e4000153a21a,2020-11-25_17h35.12.851,lexical_decision_task_MP_exp2,2020.2.5,Linux armv8l,60,,0,0.476139949,-0.245906678,1,0,0,0.7933,button_right,0.7933,1,,,,,,199,WORD,UN,16,beacon,INVOKE,m,,,,,,0.476139949,-0.245906678,1,0,0,,0,333,333,198,1
,,,,,,,,,,,,,,,,,,5aeef693da09e4000153a21a,2020-11-25_17h35.12.851,lexical_decision_task_MP_exp2,2020.2.5,Linux armv8l,60,,0,-0.411653311,-0.260970543,1,0,0,0.8069,button_left,0.8069,1,,,,,,419,NW,UN,33,gushop,SLOUNT,z,,,,,,-0.411653311,-0.260970543,1,0,0,,0,334,334,418,1
,,,,,,,,,,,,,,,,,,5aeef693da09e4000153a21a,2020-11-25_17h35.12.851,lexical_decision_task_MP_exp2,2020.2.5,Linux armv8l,60,,0,-0.405376728,-0.263481241,1,0,0,0.9165,button_left,0.9165,1,,,,,,246,NW,"ID",33,piaton,PIATON,z,,,,,,-0.405376728,-0.263481241,1,0,0,,0,335,335,245,1
,,,,,,,,,,,,,,,,,,5aeef693da09e4000153a21a,2020-11-25_17h35.12.851,lexical_decision_task_MP_exp2,2020.2.5,Linux armv8l,60,,0,-0.419324718,-0.243082224,1,0,0,0.7,button_left,0.7,1,,,,,,445,NW,UN,16,runamo,MINKEL,z,,,,,,-0.419324718,-0.243082224,1,0,0,,0,336,336,444,1
,,,,,,,,,,,,,,,,,,5aeef693da09e4000153a21a,2020-11-25_17h35.12.851,lexical_decision_task_MP_exp2,2020.2.5,Linux armv8l,60,,0,-0.403981904,-0.255007797,1,0,0,0.6336,button_left,0.6336,0,,,,,,83,WORD,"ID",16,result,RESULT,m,,,,,,-0.403981904,-0.255007797,1,0,0,,0,337,337,82,1
