counterbalancing_condition,instr_done_keyboard.keys,instr_done_touch.x,instr_done_touch.y,instr_done_touch.leftButton,instr_done_touch.midButton,instr_done_touch.rightButton,instr_done_touch.clicked_name,instruction_pages.thisRepN,instruction_pages.thisTrialN,instruction_pages.thisN,instruction_pages.thisIndex,instruction_pages.ran,pageN,phase,instruct_text,has_image,instruct_image,participant,date,expName,psychopyVersion,OS,frameRate,response.keys,response.corr,touch_resp.x,touch_resp.y,touch_resp.leftButton,touch_resp.midButton,touch_resp.rightButton,touch_resp.time,touch_resp.clicked_name,rt,corr,practice_trials.thisRepN,practice_trials.thisTrialN,practice_trials.thisN,practice_trials.thisIndex,practice_trials.ran,TrialID,StimulusType,Condition,PrimeDuration,Prime,Target,corrAns,end_of_practice_trials_pages.thisRepN,end_of_practice_trials_pages.thisTrialN,end_of_practice_trials_pages.thisN,end_of_practice_trials_pages.thisIndex,end_of_practice_trials_pages.ran,break_done_touch.x,break_done_touch.y,break_done_touch.leftButton,break_done_touch.midButton,break_done_touch.rightButton,break_done_keyboard.keys,trials.thisRepN,trials.thisTrialN,trials.thisN,trials.thisIndex,trials.ran
2,,0.053688812,-0.431544918,1,0,0,instr_done_button,0,0,0,0,1,1,instructions,"INSTRUCTIONS
At the start of each trial, look at the hash marks (######) in the center of the screen. After a moment, a string of letters will appear. Your task is to indicate if the letter string forms a word or not (i.e., if it is a nonword). For example, AUTHOR is a word while AUTHON is a nonword.

Press the space bar or touch the button below to continue.",0,,5c538abae9813700018a4096,2020-11-25_16h35.19.847,lexical_decision_task_MP_exp2,2020.2.5,Linux armv8l,60,,,,,,,,,,,,,,,,,,,,,,,,,,,,,,,,,,,,,,,
,,0.121252102,-0.408418274,1,0,0,instr_done_button,0,1,1,1,1,2,instructions,"If your device has a keyboard, press the 'Z' key for nonwords and the 'M' key for words.





Press the space bar or touch the button below to continue.",1,keyboard-example.gif,5c538abae9813700018a4096,2020-11-25_16h35.19.847,lexical_decision_task_MP_exp2,2020.2.5,Linux armv8l,60,,,,,,,,,,,,,,,,,,,,,,,,,,,,,,,,,,,,,,,
,,0.122177717,-0.407493083,1,0,0,instr_done_button,0,2,2,2,1,3,instructions,"If you are using a touchscreen only device, use the buttons on the screen. Do not use the mouse.





Press the space bar or touch the button below to continue.",1,touchscreen-example.gif,5c538abae9813700018a4096,2020-11-25_16h35.19.847,lexical_decision_task_MP_exp2,2020.2.5,Linux armv8l,60,,,,,,,,,,,,,,,,,,,,,,,,,,,,,,,,,,,,,,,
,,0.11569892,-0.41766883,1,0,0,instr_done_button,0,3,3,3,1,4,instructions,"It is very important that you respond as quickly and accurately as possible, as each letter string will only be on the screen for two seconds. If you do not respond within this time, the message 'Too slow!' will be displayed and the experiment will progress to the next letter string. The first 20 trials will be practice trials and you will receive feedback on your answers. 

Press the space bar or touch the button below to start the practice trials.",0,,5c538abae9813700018a4096,2020-11-25_16h35.19.847,lexical_decision_task_MP_exp2,2020.2.5,Linux armv8l,60,,,,,,,,,,,,,,,,,,,,,,,,,,,,,,,,,,,,,,,
,,,,,,,,,,,,,,,,,,5c538abae9813700018a4096,2020-11-25_16h35.19.847,lexical_decision_task_MP_exp2,2020.2.5,Linux armv8l,60,,0,0.313761393,-0.300185055,1,0,0,1.6206,button_right,1.6206,1,0,0,0,3,1,1004,WORD,"ID",16,matrix,MATRIX,m,,,,,,,,,,,,,,,,
,,,,,,,,,,,,,,,,,,5c538abae9813700018a4096,2020-11-25_16h35.19.847,lexical_decision_task_MP_exp2,2020.2.5,Linux armv8l,60,,0,-0.331329897,-0.294634671,1,0,0,1.0301,button_left,1.0301,1,0,1,1,14,1,1015,NW,UN,16,miaber,THRALE,z,,,,,,,,,,,,,,,,
,,,,,,,,,,,,,,,,,,5c538abae9813700018a4096,2020-11-25_16h35.19.847,lexical_decision_task_MP_exp2,2020.2.5,Linux armv8l,60,,0,-0.245256042,-0.330712382,1,0,0,0.9461,button_left,0.9461,1,0,2,2,12,1,1013,NW,UN,33,adveil,SPRINY,z,,,,,,,,,,,,,,,,
,,,,,,,,,,,,,,,,,,5c538abae9813700018a4096,2020-11-25_16h35.19.847,lexical_decision_task_MP_exp2,2020.2.5,Linux armv8l,60,,0,0.426675585,-0.309435696,1,0,0,0.6991,button_right,0.6991,1,0,3,3,4,1,1005,WORD,UN,33,abound,SQUEAK,m,,,,,,,,,,,,,,,,
,,,,,,,,,,,,,,,,,,5c538abae9813700018a4096,2020-11-25_16h35.19.847,lexical_decision_task_MP_exp2,2020.2.5,Linux armv8l,60,,0,0.422973463,-0.28260871,1,0,0,0.6773,button_right,0.6773,1,0,4,4,1,1,1002,WORD,"ID",33,adjust,ADJUST,m,,,,,,,,,,,,,,,,
,,,,,,,,,,,,,,,,,,5c538abae9813700018a4096,2020-11-25_16h35.19.847,lexical_decision_task_MP_exp2,2020.2.5,Linux armv8l,60,,0,-0.206383938,-0.271507941,1,0,0,0.8082,button_left,0.8082,1,0,5,5,13,1,1014,NW,UN,33,winfer,ROUPET,z,,,,,,,,,,,,,,,,
,,,,,,,,,,,,,,,,,,5c538abae9813700018a4096,2020-11-25_16h35.19.847,lexical_decision_task_MP_exp2,2020.2.5,Linux armv8l,60,,0,-0.259138828,-0.300185055,1,0,0,1.4085,button_left,1.4085,1,0,6,6,9,1,1010,NW,"ID",33,fariny,FARINY,z,,,,,,,,,,,,,,,,
,,,,,,,,,,,,,,,,,,5c538abae9813700018a4096,2020-11-25_16h35.19.847,lexical_decision_task_MP_exp2,2020.2.5,Linux armv8l,60,,0,0.396133338,-0.286308967,1,0,0,0.8402,button_right,0.8402,1,0,7,7,7,1,1008,WORD,UN,16,hurdle,VOLUME,m,,,,,,,,,,,,,,,,
,,,,,,,,,,,,,,,,,,5c538abae9813700018a4096,2020-11-25_16h35.19.847,lexical_decision_task_MP_exp2,2020.2.5,Linux armv8l,60,,0,0.41279263,-0.287234073,1,0,0,0.7111,button_right,0.7111,1,0,8,8,5,1,1006,WORD,UN,33,frenzy,OBTAIN,m,,,,,,,,,,,,,,,,
,,,,,,,,,,,,,,,,,,5c538abae9813700018a4096,2020-11-25_16h35.19.847,lexical_decision_task_MP_exp2,2020.2.5,Linux armv8l,60,,0,-0.234149679,-0.275208198,1,0,0,1.009,button_left,1.009,1,0,9,9,8,1,1009,NW,"ID",33,aslert,ASLERT,z,,,,,,,,,,,,,,,,
,,,,,,,,,,,,,,,,,,5c538abae9813700018a4096,2020-11-25_16h35.19.847,lexical_decision_task_MP_exp2,2020.2.5,Linux armv8l,60,,0,-0.265617583,-0.331637404,1,0,0,1.156,button_left,1.156,1,0,10,10,15,1,1016,NW,UN,16,mushed,WHAISE,z,,,,,,,,,,,,,,,,
,,,,,,,,,,,,,,,,,,5c538abae9813700018a4096,2020-11-25_16h35.19.847,lexical_decision_task_MP_exp2,2020.2.5,Linux armv8l,60,,0,0.362814331,-0.28260871,1,0,0,0.7441,button_right,0.7441,1,0,11,11,6,1,1007,WORD,UN,16,tropic,ZOMBIE,m,,,,,,,,,,,,,,,,
,,,,,,,,,,,,,,,,,,5c538abae9813700018a4096,2020-11-25_16h35.19.847,lexical_decision_task_MP_exp2,2020.2.5,Linux armv8l,60,,0,-0.397967741,-0.363089837,1,0,0,0.948,button_left,0.948,1,0,12,12,10,1,1011,NW,"ID",16,inlade,INLADE,z,,,,,,,,,,,,,,,,
,,,,,,,,,,,,,,,,,,5c538abae9813700018a4096,2020-11-25_16h35.19.847,lexical_decision_task_MP_exp2,2020.2.5,Linux armv8l,60,,0,0.436856333,-0.287234073,1,0,0,0.6769,button_right,0.6769,1,0,13,13,2,1,1003,WORD,"ID",16,almond,ALMOND,m,,,,,,,,,,,,,,,,
,,,,,,,,,,,,,,,,,,5c538abae9813700018a4096,2020-11-25_16h35.19.847,lexical_decision_task_MP_exp2,2020.2.5,Linux armv8l,60,,0,0.455366855,-0.308510674,1,0,0,0.9178,button_right,0.9178,1,0,14,14,0,1,1001,WORD,"ID",33,utopia,UTOPIA,m,,,,,,,,,,,,,,,,
,,,,,,,,,,,,,,,,,,5c538abae9813700018a4096,2020-11-25_16h35.19.847,lexical_decision_task_MP_exp2,2020.2.5,Linux armv8l,60,,0,-0.578445265,-0.345513407,1,0,0,0.8296,button_left,0.8296,1,0,15,15,11,1,1012,NW,"ID",16,rashet,RASHET,z,,,,,,,,,,,,,,,,
,,0.18326238,-0.3732655,1,0,0,instr_done_button,,,,,,1,end_of_practice,"You have completed the practice trials. During the experimental trials, you will not receive feedback, but it is very important that you respond as quickly and accurately as possible. 
Before you begin, please ensure that you are in a comfortable and quiet location and will not be disturbed for about 15 minutes, as we cannot use your data if you do not complete all the trials. 
There will be opportunities to take breaks at regular intervals during the experiment. When you are ready to start the experimental trials, please press space or touch the button below.",,,5c538abae9813700018a4096,2020-11-25_16h35.19.847,lexical_decision_task_MP_exp2,2020.2.5,Linux armv8l,60,,,,,,,,,,,,,,,,,,,,,,,,0,0,0,0,1,,,,,,,,,,,
,,,,,,,,,,,,,,,,,,5c538abae9813700018a4096,2020-11-25_16h35.19.847,lexical_decision_task_MP_exp2,2020.2.5,Linux armv8l,60,,0,-0.317447069,-0.321461656,1,0,0,1.3798,button_left,1.3798,1,,,,,,305,NW,"ID",33,forgle,FORGLE,z,,,,,,-0.317447069,-0.321461656,1,0,0,,0,0,0,244,1
,,,,,,,,,,,,,,,,,,5c538abae9813700018a4096,2020-11-25_16h35.19.847,lexical_decision_task_MP_exp2,2020.2.5,Linux armv8l,60,,0,-0.275798416,-0.291859436,1,0,0,0.8683,button_left,0.8683,1,,,,,,446,NW,UN,33,gircue,RUNAMO,z,,,,,,-0.275798416,-0.291859436,1,0,0,,0,1,1,385,1
,,,,,,,,,,,,,,,,,,5c538abae9813700018a4096,2020-11-25_16h35.19.847,lexical_decision_task_MP_exp2,2020.2.5,Linux armv8l,60,,0,0.408165063,-0.237280273,1,0,0,0.6688,button_right,0.6688,1,,,,,,83,WORD,"ID",33,result,RESULT,m,,,,,,0.408165063,-0.237280273,1,0,0,,0,2,2,22,1
,,,,,,,,,,,,,,,,,,5c538abae9813700018a4096,2020-11-25_16h35.19.847,lexical_decision_task_MP_exp2,2020.2.5,Linux armv8l,60,,0,0.384101359,-0.331637404,1,0,0,0.6996,button_right,0.6996,1,,,,,,17,WORD,UN,16,humble,CHARGE,m,,,,,,0.384101359,-0.331637404,1,0,0,,0,3,3,196,1
,,,,,,,,,,,,,,,,,,5c538abae9813700018a4096,2020-11-25_16h35.19.847,lexical_decision_task_MP_exp2,2020.2.5,Linux armv8l,60,,0,-0.349840461,-0.403792826,1,0,0,0.9291,button_left,0.9291,1,,,,,,272,NW,UN,16,sortel,DAMILT,z,,,,,,-0.243404982,-0.331637404,1,0,0,,0,4,4,451,1
,,,,,,,,,,,,,,,,,,5c538abae9813700018a4096,2020-11-25_16h35.19.847,lexical_decision_task_MP_exp2,2020.2.5,Linux armv8l,60,,0,0.452265742,-0.272983127,1,0,0,1.526,button_right,1.526,1,,,,,,69,WORD,"ID",33,plenty,PLENTY,m,,,,,,0.452265742,-0.272983127,1,0,0,,0,5,5,8,1
,,,,,,,,,,,,,,,,,,5c538abae9813700018a4096,2020-11-25_16h35.19.847,lexical_decision_task_MP_exp2,2020.2.5,Linux armv8l,60,,0,0.456268036,-0.287984212,1,0,0,0.8931,button_right,0.8931,1,,,,,,194,WORD,UN,33,resign,ABSENT,m,,,,,,0.456268036,-0.287984212,1,0,0,,0,6,6,133,1
,,,,,,,,,,,,,,,,,,5c538abae9813700018a4096,2020-11-25_16h35.19.847,lexical_decision_task_MP_exp2,2020.2.5,Linux armv8l,60,,0,0.414244231,-0.300985067,1,0,0,0.7286,button_right,0.7286,1,,,,,,50,WORD,UN,16,hungry,SNATCH,m,,,,,,0.414244231,-0.300985067,1,0,0,,0,7,7,229,1
,,,,,,,,,,,,,,,,,,5c538abae9813700018a4096,2020-11-25_16h35.19.847,lexical_decision_task_MP_exp2,2020.2.5,Linux armv8l,60,,0,0.447262967,-0.291984489,1,0,0,0.6777,button_right,0.6777,1,,,,,,129,WORD,"ID",16,marvel,MARVEL,m,,,,,,0.447262967,-0.291984489,1,0,0,,0,8,8,68,1
,,,,,,,,,,,,,,,,,,5c538abae9813700018a4096,2020-11-25_16h35.19.847,lexical_decision_task_MP_exp2,2020.2.5,Linux armv8l,60,,0,-0.364648861,-0.297409905,1,0,0,0.9668,button_left,0.9668,1,,,,,,356,NW,"ID",33,othnis,OTHNIS,z,,,,,,-0.364648861,-0.297409905,1,0,0,,0,9,9,295,1
,,,,,,,,,,,,,,,,,,5c538abae9813700018a4096,2020-11-25_16h35.19.847,lexical_decision_task_MP_exp2,2020.2.5,Linux armv8l,60,,0,0.365590922,-0.301110162,1,0,0,0.9672,button_right,0.9672,1,,,,,,110,WORD,"ID",33,polite,POLITE,m,,,,,,0.365590922,-0.301110162,1,0,0,,0,10,10,49,1
,,,,,,,,,,,,,,,,,,5c538abae9813700018a4096,2020-11-25_16h35.19.847,lexical_decision_task_MP_exp2,2020.2.5,Linux armv8l,60,,0,0.344303725,-0.333487532,1,0,0,0.9397,button_right,0.9397,1,,,,,,131,WORD,"ID",16,quench,QUENCH,m,,,,,,0.344303725,-0.333487532,1,0,0,,0,11,11,70,1
,,,,,,,,,,,,,,,,,,5c538abae9813700018a4096,2020-11-25_16h35.19.847,lexical_decision_task_MP_exp2,2020.2.5,Linux armv8l,60,,0,-0.227671051,-0.344588386,1,0,0,0.79,button_left,0.79,1,,,,,,477,NW,UN,33,lobush,PHOTIE,z,,,,,,-0.227671051,-0.344588386,1,0,0,,0,12,12,416,1
,,,,,,,,,,,,,,,,,,5c538abae9813700018a4096,2020-11-25_16h35.19.847,lexical_decision_task_MP_exp2,2020.2.5,Linux armv8l,60,,0,-0.228596497,-0.301110162,1,0,0,0.9145,button_left,0.9145,1,,,,,,468,NW,UN,33,padifs,WICTOR,z,,,,,,-0.228596497,-0.301110162,1,0,0,,0,13,13,407,1
,,,,,,,,,,,,,,,,,,5c538abae9813700018a4096,2020-11-25_16h35.19.847,lexical_decision_task_MP_exp2,2020.2.5,Linux armv8l,60,,0,-0.297085444,-0.366790093,1,0,0,0.6837,button_left,0.6837,1,,,,,,426,NW,UN,33,schind,URIVEL,z,,,,,,-0.297085444,-0.366790093,1,0,0,,0,14,14,365,1
,,,,,,,,,,,,,,,,,,5c538abae9813700018a4096,2020-11-25_16h35.19.847,lexical_decision_task_MP_exp2,2020.2.5,Linux armv8l,60,,0,0.447962782,-0.333487532,1,0,0,0.9123,button_right,0.9123,1,,,,,,62,WORD,"ID",33,region,REGION,m,,,,,,0.447962782,-0.333487532,1,0,0,,0,15,15,1,1
,,,,,,,,,,,,,,,,,,5c538abae9813700018a4096,2020-11-25_16h35.19.847,lexical_decision_task_MP_exp2,2020.2.5,Linux armv8l,60,,0,-0.373904122,-0.28815918,1,0,0,0.7144,button_left,0.7144,1,,,,,,302,NW,"ID",33,miluer,MILUER,z,,,,,,-0.373904122,-0.28815918,1,0,0,,0,16,16,241,1
,,,,,,,,,,,,,,,,,,5c538abae9813700018a4096,2020-11-25_16h35.19.847,lexical_decision_task_MP_exp2,2020.2.5,Linux armv8l,60,,0,0.434079827,-0.273357985,1,0,0,1.2785,button_right,1.2785,1,,,,,,231,WORD,UN,33,inject,EXPORT,m,,,,,,0.434079827,-0.273357985,1,0,0,,0,17,17,170,1
,,,,,,,,,,,,,,,,,,5c538abae9813700018a4096,2020-11-25_16h35.19.847,lexical_decision_task_MP_exp2,2020.2.5,Linux armv8l,60,,0,0.33319753,-0.334412638,1,0,0,1.0653,button_right,1.0653,1,,,,,,72,WORD,"ID",33,bright,BRIGHT,m,,,,,,0.33319753,-0.334412638,1,0,0,,0,18,18,11,1
,,,,,,,,,,,,,,,,,,5c538abae9813700018a4096,2020-11-25_16h35.19.847,lexical_decision_task_MP_exp2,2020.2.5,Linux armv8l,60,,0,-0.294308896,-0.321461656,1,0,0,0.955,button_left,0.955,0,,,,,,182,WORD,UN,33,absent,WINTER,m,,,,,,-0.294308896,-0.321461656,1,0,0,,0,19,19,121,1
,,,,,,,,,,,,,,,,,,5c538abae9813700018a4096,2020-11-25_16h35.19.847,lexical_decision_task_MP_exp2,2020.2.5,Linux armv8l,60,,0,0.40076082,-0.363089837,1,0,0,0.9763,button_right,0.9763,1,,,,,,87,WORD,"ID",33,filter,FILTER,m,,,,,,0.40076082,-0.363089837,1,0,0,,0,20,20,26,1
,,,,,,,,,,,,,,,,,,5c538abae9813700018a4096,2020-11-25_16h35.19.847,lexical_decision_task_MP_exp2,2020.2.5,Linux armv8l,60,,0,0.438707394,-0.308510674,1,0,0,0.6418,button_right,0.6418,1,,,,,,48,WORD,UN,16,survey,WALNUT,m,,,,,,0.438707394,-0.308510674,1,0,0,,0,21,21,227,1
,,,,,,,,,,,,,,,,,,5c538abae9813700018a4096,2020-11-25_16h35.19.847,lexical_decision_task_MP_exp2,2020.2.5,Linux armv8l,60,,0,0.456292386,-0.289084201,1,0,0,0.6738,button_right,0.6738,1,,,,,,29,WORD,UN,16,orient,SKETCH,m,,,,,,0.456292386,-0.289084201,1,0,0,,0,22,22,208,1
,,,,,,,,,,,,,,,,,,5c538abae9813700018a4096,2020-11-25_16h35.19.847,lexical_decision_task_MP_exp2,2020.2.5,Linux armv8l,60,,0,-0.36094674,-0.28815918,1,0,0,0.9275,button_left,0.9275,1,,,,,,390,NW,"ID",16,hatrus,HATRUS,z,,,,,,-0.36094674,-0.28815918,1,0,0,,0,23,23,329,1
,,,,,,,,,,,,,,,,,,5c538abae9813700018a4096,2020-11-25_16h35.19.847,lexical_decision_task_MP_exp2,2020.2.5,Linux armv8l,60,,0,-0.32022366,-0.316836378,1,0,0,0.7741,button_left,0.7741,1,,,,,,362,NW,"ID",16,tireau,TIREAU,z,,,,,,-0.32022366,-0.316836378,1,0,0,,0,24,24,301,1
,,,,,,,,,,,,,,,,,,5c538abae9813700018a4096,2020-11-25_16h35.19.847,lexical_decision_task_MP_exp2,2020.2.5,Linux armv8l,60,,0,-0.248958164,-0.3177614,1,0,0,0.9056,button_left,0.9056,1,,,,,,440,NW,UN,33,rastoe,SARIDE,z,,,,,,-0.248958164,-0.3177614,1,0,0,,0,25,25,379,1
,,,,,,,,,,,,,,,,,,5c538abae9813700018a4096,2020-11-25_16h35.19.847,lexical_decision_task_MP_exp2,2020.2.5,Linux armv8l,60,,0,-0.22581999,-0.281683689,1,0,0,0.8864,button_left,0.8864,1,,,,,,431,NW,UN,33,lunker,CHRUMS,z,,,,,,-0.22581999,-0.281683689,1,0,0,,0,26,26,370,1
,,,,,,,,,,,,,,,,,,5c538abae9813700018a4096,2020-11-25_16h35.19.847,lexical_decision_task_MP_exp2,2020.2.5,Linux armv8l,60,,0,-0.266543113,-0.278908454,1,0,0,1.299,button_left,1.299,1,,,,,,321,NW,"ID",33,miator,MIATOR,z,,,,,,-0.266543113,-0.278908454,1,0,0,,0,27,27,260,1
,,,,,,,,,,,,,,,,,,5c538abae9813700018a4096,2020-11-25_16h35.19.847,lexical_decision_task_MP_exp2,2020.2.5,Linux armv8l,60,,0,0.426675585,-0.260407088,1,0,0,0.8726,button_right,0.8726,1,,,,,,147,WORD,"ID",16,garlic,GARLIC,m,,,,,,0.426675585,-0.260407088,1,0,0,,0,28,28,86,1
,,,,,,,,,,,,,,,,,,5c538abae9813700018a4096,2020-11-25_16h35.19.847,lexical_decision_task_MP_exp2,2020.2.5,Linux armv8l,60,,0,-0.363723289,-0.364014859,1,0,0,0.8508,button_left,0.8508,1,,,,,,310,NW,"ID",33,daniet,DANIET,z,,,,,,-0.363723289,-0.364014859,1,0,0,,0,29,29,249,1
,,,,,,,,,,,,,,,,,,5c538abae9813700018a4096,2020-11-25_16h35.19.847,lexical_decision_task_MP_exp2,2020.2.5,Linux armv8l,60,,0,0.363739946,-0.218778992,1,0,0,0.8241,button_right,0.8241,1,,,,,,201,WORD,UN,33,factor,ADMIRE,m,,,,,,0.363739946,-0.218778992,1,0,0,,0,30,30,140,1
,,,,,,,,,,,,,,,,,,5c538abae9813700018a4096,2020-11-25_16h35.19.847,lexical_decision_task_MP_exp2,2020.2.5,Linux armv8l,60,,0,-0.310968357,-0.36493988,1,0,0,0.762,button_left,0.762,1,,,,,,361,NW,"ID",16,pauche,PAUCHE,z,,,,,,-0.310968357,-0.36493988,1,0,0,,0,31,31,300,1
,,,,,,,,,,,,,,,,,,5c538abae9813700018a4096,2020-11-25_16h35.19.847,lexical_decision_task_MP_exp2,2020.2.5,Linux armv8l,60,,0,-0.324851227,-0.30573544,1,0,0,0.7439,button_left,0.7439,1,,,,,,408,NW,"ID",16,hurnia,HURNIA,z,,,,,,-0.324851227,-0.30573544,1,0,0,,0,32,32,347,1
,,,,,,,,,,,,,,,,,,5c538abae9813700018a4096,2020-11-25_16h35.19.847,lexical_decision_task_MP_exp2,2020.2.5,Linux armv8l,60,,0,0.427601115,-0.287234073,1,0,0,0.7939,button_right,0.7939,1,,,,,,60,WORD,UN,16,fright,PENCIL,m,,,,,,0.427601115,-0.287234073,1,0,0,,0,33,33,239,1
,,,,,,,,,,,,,,,,,,5c538abae9813700018a4096,2020-11-25_16h35.19.847,lexical_decision_task_MP_exp2,2020.2.5,Linux armv8l,60,,0,-0.21008606,-0.337187873,1,0,0,0.7331,button_left,0.7331,1,,,,,,322,NW,"ID",33,slanch,SLANCH,z,,,,,,-0.21008606,-0.337187873,1,0,0,,0,34,34,261,1
,,,,,,,,,,,,,,,,,,5c538abae9813700018a4096,2020-11-25_16h35.19.847,lexical_decision_task_MP_exp2,2020.2.5,Linux armv8l,60,,0,0.440558455,-0.354764133,1,0,0,1.0611,button_right,1.0611,1,,,,,,74,WORD,"ID",33,plaque,PLAQUE,m,,,,,,0.440558455,-0.354764133,1,0,0,,0,35,35,13,1
,,,,,,,,,,,,,,,,,,5c538abae9813700018a4096,2020-11-25_16h35.19.847,lexical_decision_task_MP_exp2,2020.2.5,Linux armv8l,60,,0,0.328569878,-0.355689155,1,0,0,0.6562,button_right,0.6562,1,,,,,,228,WORD,UN,33,kidney,MASTER,m,,,,,,0.328569878,-0.355689155,1,0,0,,0,36,36,167,1
,,,,,,,,,,,,,,,,,,5c538abae9813700018a4096,2020-11-25_16h35.19.847,lexical_decision_task_MP_exp2,2020.2.5,Linux armv8l,60,,0,0.341527218,-0.297409905,1,0,0,0.6792,button_right,0.6792,1,,,,,,141,WORD,"ID",16,orphan,ORPHAN,m,,,,,,0.341527218,-0.297409905,1,0,0,,0,37,37,80,1
,,,,,,,,,,,,,,,,,,5c538abae9813700018a4096,2020-11-25_16h35.19.847,lexical_decision_task_MP_exp2,2020.2.5,Linux armv8l,60,,0,-0.22396893,-0.397317335,1,0,0,0.8316,button_left,0.8316,1,,,,,,267,NW,UN,16,packes,PASINK,z,,,,,,-0.22396893,-0.397317335,1,0,0,,0,38,38,446,1
,,,,,,,,,,,,,,,,,,5c538abae9813700018a4096,2020-11-25_16h35.19.847,lexical_decision_task_MP_exp2,2020.2.5,Linux armv8l,60,,0,0.37484631,-0.352914005,1,0,0,0.9637,button_right,0.9637,1,,,,,,183,WORD,UN,33,sleazy,MILDEW,m,,,,,,0.37484631,-0.352914005,1,0,0,,0,39,39,122,1
,,,,,,,,,,,,,,,,,,5c538abae9813700018a4096,2020-11-25_16h35.19.847,lexical_decision_task_MP_exp2,2020.2.5,Linux armv8l,60,,0,0.311910333,-0.348288642,1,0,0,0.8137,button_right,0.8137,1,,,,,,65,WORD,"ID",33,symbol,SYMBOL,m,,,,,,0.311910333,-0.348288642,1,0,0,,0,40,40,4,1
,,,,,,,,,,,,,,,,,,5c538abae9813700018a4096,2020-11-25_16h35.19.847,lexical_decision_task_MP_exp2,2020.2.5,Linux armv8l,60,,0,-0.254511261,-0.327937147,1,0,0,1.3789,button_left,1.3789,1,,,,,,418,NW,"ID",16,suidle,SUIDLE,z,,,,,,-0.254511261,-0.327937147,1,0,0,,0,41,41,357,1
,,,,,,,,,,,,,,,,,,5c538abae9813700018a4096,2020-11-25_16h35.19.847,lexical_decision_task_MP_exp2,2020.2.5,Linux armv8l,60,,0,-0.22396893,-0.299259949,1,0,0,0.9754,button_left,0.9754,1,,,,,,393,NW,"ID",16,ganous,GANOUS,z,,,,,,-0.22396893,-0.299259949,1,0,0,,0,42,42,332,1
,,,,,,,,,,,,,,,,,,5c538abae9813700018a4096,2020-11-25_16h35.19.847,lexical_decision_task_MP_exp2,2020.2.5,Linux armv8l,60,,0,-0.248958164,-0.311285909,1,0,0,0.7009,button_left,0.7009,1,,,,,,456,NW,UN,33,wanigh,BROGET,z,,,,,,-0.248958164,-0.311285909,1,0,0,,0,43,43,395,1
,,,,,,,,,,,,,,,,,,5c538abae9813700018a4096,2020-11-25_16h35.19.847,lexical_decision_task_MP_exp2,2020.2.5,Linux armv8l,60,,0,0.275814819,-0.38251631,1,0,0,0.9488,button_right,0.9488,1,,,,,,107,WORD,"ID",33,slogan,SLOGAN,m,,,,,,0.275814819,-0.38251631,1,0,0,,0,44,44,46,1
,,,,,,,,,,,,,,,,,,5c538abae9813700018a4096,2020-11-25_16h35.19.847,lexical_decision_task_MP_exp2,2020.2.5,Linux armv8l,60,,0,0.36096327,-0.365864987,1,0,0,1.0106,button_right,1.0106,1,,,,,,9,WORD,UN,16,bridge,HUSTLE,m,,,,,,0.36096327,-0.365864987,1,0,0,,0,45,45,188,1
,,,,,,,,,,,,,,,,,,5c538abae9813700018a4096,2020-11-25_16h35.19.847,lexical_decision_task_MP_exp2,2020.2.5,Linux armv8l,60,,0,-0.344287279,-0.364014859,1,0,0,0.8477,button_left,0.8477,1,,,,,,291,NW,UN,16,ablint,PRETCH,z,,,,,,-0.344287279,-0.364014859,1,0,0,,0,46,46,470,1
,,,,,,,,,,,,,,,,,,5c538abae9813700018a4096,2020-11-25_16h35.19.847,lexical_decision_task_MP_exp2,2020.2.5,Linux armv8l,60,,0,-0.276723904,-0.343663364,1,0,0,0.7772,button_left,0.7772,1,,,,,,467,NW,UN,33,wictor,GORBIE,z,,,,,,-0.276723904,-0.343663364,1,0,0,,0,47,47,406,1
,,,,,,,,,,,,,,,,,,5c538abae9813700018a4096,2020-11-25_16h35.19.847,lexical_decision_task_MP_exp2,2020.2.5,Linux armv8l,60,,0,-0.230447557,-0.343663364,1,0,0,1.2258,button_left,1.2258,1,,,,,,292,NW,UN,16,swance,ABLINT,z,,,,,,-0.230447557,-0.343663364,1,0,0,,0,48,48,471,1
,,,,,,,,,,,,,,,,,,5c538abae9813700018a4096,2020-11-25_16h35.19.847,lexical_decision_task_MP_exp2,2020.2.5,Linux armv8l,60,,0,0.370218489,-0.330712382,1,0,0,0.8358,button_right,0.8358,1,,,,,,219,WORD,UN,33,voyage,BUCKET,m,,,,,,0.370218489,-0.330712382,1,0,0,,0,49,49,158,1
,,,,,,,,,,,,,,,,,,5c538abae9813700018a4096,2020-11-25_16h35.19.847,lexical_decision_task_MP_exp2,2020.2.5,Linux armv8l,60,,0,-0.283202616,-0.339963023,1,0,0,0.9811,button_left,0.9811,1,,,,,,425,NW,UN,33,urivel,FRUDGE,z,,,,,,-0.283202616,-0.339963023,1,0,0,,0,50,50,364,1
,,,,,,,,,,,,,,,,,,5c538abae9813700018a4096,2020-11-25_16h35.19.847,lexical_decision_task_MP_exp2,2020.2.5,Linux armv8l,60,,0,-0.295234383,-0.375115628,1,0,0,1.3814,button_left,1.3814,1,,,,,,385,NW,"ID",16,veigma,VEIGMA,z,,,,,,-0.295234383,-0.375115628,1,0,0,,0,51,51,324,1
,,,,,,,,,,,,,,,,,,5c538abae9813700018a4096,2020-11-25_16h35.19.847,lexical_decision_task_MP_exp2,2020.2.5,Linux armv8l,60,,0,-0.262840949,-0.342738342,1,0,0,0.9114,button_left,0.9114,1,,,,,,261,NW,UN,16,quilew,STUNCH,z,,,,,,-0.262840949,-0.342738342,1,0,0,,0,52,52,440,1
,,,,,,,,,,,,,,,,,,5c538abae9813700018a4096,2020-11-25_16h35.19.847,lexical_decision_task_MP_exp2,2020.2.5,Linux armv8l,60,,0,-0.316521539,-0.294634671,1,0,0,0.691,button_left,0.691,1,,,,,,294,NW,UN,16,gleath,INHORT,z,,,,,,-0.316521539,-0.294634671,1,0,0,,0,53,53,473,1
,,,,,,,,,,,,,,,,,,5c538abae9813700018a4096,2020-11-25_16h35.19.847,lexical_decision_task_MP_exp2,2020.2.5,Linux armv8l,60,,0,0.426675585,-0.311285909,1,0,0,0.8495,button_right,0.8495,1,,,,,,226,WORD,UN,33,flower,CASINO,m,,,,,,0.426675585,-0.311285909,1,0,0,,0,54,54,165,1
,,,,,,,,,,,,,,,,,,5c538abae9813700018a4096,2020-11-25_16h35.19.847,lexical_decision_task_MP_exp2,2020.2.5,Linux armv8l,60,,0,-0.287830141,-0.2678076,1,0,0,0.8982,button_left,0.8982,1,,,,,,463,NW,UN,33,chaite,KISPEL,z,,,,,,-0.287830141,-0.2678076,1,0,0,,0,55,55,402,1
,,,,,,,,,,,,,,,,,,5c538abae9813700018a4096,2020-11-25_16h35.19.847,lexical_decision_task_MP_exp2,2020.2.5,Linux armv8l,60,,0,0.402611881,-0.331637404,1,0,0,1.0322,button_right,1.0322,1,,,,,,203,WORD,UN,33,burden,PHRASE,m,,,,,,0.402611881,-0.331637404,1,0,0,,0,56,56,142,1
,,,,,,,,,,,,,,,,,,5c538abae9813700018a4096,2020-11-25_16h35.19.847,lexical_decision_task_MP_exp2,2020.2.5,Linux armv8l,60,,0,-0.403520923,-0.396392314,1,0,0,0.8736,button_left,0.8736,1,,,,,,409,NW,"ID",16,elopia,ELOPIA,z,,,,,,-0.403520923,-0.396392314,1,0,0,,0,57,57,348,1
,,,,,,,,,,,,,,,,,,5c538abae9813700018a4096,2020-11-25_16h35.19.847,lexical_decision_task_MP_exp2,2020.2.5,Linux armv8l,60,,0,0.348005846,-0.321461656,1,0,0,0.8621,button_right,0.8621,1,,,,,,221,WORD,UN,33,hinder,MASCOT,m,,,,,,0.348005846,-0.321461656,1,0,0,,0,58,58,160,1
,,,,,,,,,,,,,,,,,,5c538abae9813700018a4096,2020-11-25_16h35.19.847,lexical_decision_task_MP_exp2,2020.2.5,Linux armv8l,60,,0,0.317463515,-0.388991801,1,0,0,0.9105,button_right,0.9105,1,,,,,,40,WORD,UN,16,spring,CONVEY,m,,,,,,0.317463515,-0.388991801,1,0,0,,0,59,59,219,1
,,,,,,,,,,,,,,,,,,5c538abae9813700018a4096,2020-11-25_16h35.19.847,lexical_decision_task_MP_exp2,2020.2.5,Linux armv8l,60,,0,0.351707967,-0.345513407,1,0,0,0.748,button_right,0.748,1,,,,,,160,WORD,"ID",16,violet,VIOLET,m,,,,,,0.351707967,-0.345513407,1,0,0,,0,60,60,99,1
,,,,,,,,,,,,,,,,,,5c538abae9813700018a4096,2020-11-25_16h35.19.847,lexical_decision_task_MP_exp2,2020.2.5,Linux armv8l,60,,0,0.352633582,-0.363089837,1,0,0,0.8468,button_right,0.8468,1,,,,,,184,WORD,UN,33,bother,SLEAZY,m,,,,,,0.352633582,-0.363089837,1,0,0,,0,61,61,123,1
,,,,,,,,,,,,,,,,,,5c538abae9813700018a4096,2020-11-25_16h35.19.847,lexical_decision_task_MP_exp2,2020.2.5,Linux armv8l,60,,0,0.370218489,-0.33533766,1,0,0,0.7102,button_right,0.7102,1,,,,,,73,WORD,"ID",33,source,SOURCE,m,,,,,,0.370218489,-0.33533766,1,0,0,,0,62,62,12,1
,,,,,,,,,,,,,,,,,,5c538abae9813700018a4096,2020-11-25_16h35.19.847,lexical_decision_task_MP_exp2,2020.2.5,Linux armv8l,60,,0,0.370218489,-0.33533766,1,0,0,0.8922,button_right,0.8922,1,,,,,,118,WORD,"ID",33,flight,FLIGHT,m,,,,,,0.370218489,-0.33533766,1,0,0,,0,63,63,57,1
,,,,,,,,,,,,,,,,,,5c538abae9813700018a4096,2020-11-25_16h35.19.847,lexical_decision_task_MP_exp2,2020.2.5,Linux armv8l,60,,0,-0.317447069,-0.38806661,1,0,0,0.8776,button_left,0.8776,1,,,,,,352,NW,"ID",33,tringe,TRINGE,z,,,,,,-0.317447069,-0.38806661,1,0,0,,0,64,64,291,1
,,,,,,,,,,,,,,,,,,5c538abae9813700018a4096,2020-11-25_16h35.19.847,lexical_decision_task_MP_exp2,2020.2.5,Linux armv8l,60,,0,-0.331329897,-0.357539368,1,0,0,0.7599,button_left,0.7599,1,,,,,,406,NW,"ID",16,nouply,NOUPLY,z,,,,,,-0.331329897,-0.357539368,1,0,0,,0,65,65,345,1
,,,,,,,,,,,,,,,,,,5c538abae9813700018a4096,2020-11-25_16h35.19.847,lexical_decision_task_MP_exp2,2020.2.5,Linux armv8l,60,,0,-0.277649434,-0.247456106,1,0,0,0.758,button_left,0.758,1,,,,,,478,NW,UN,33,pebric,ACRISE,z,,,,,,-0.277649434,-0.247456106,1,0,0,,0,66,66,417,1
,,,,,,,,,,,,,,,,,,5c538abae9813700018a4096,2020-11-25_16h35.19.847,lexical_decision_task_MP_exp2,2020.2.5,Linux armv8l,60,,0,-0.249883694,-0.28815918,1,0,0,0.7937,button_left,0.7937,1,,,,,,358,NW,"ID",33,fleack,FLEACK,z,,,,,,-0.249883694,-0.28815918,1,0,0,,0,67,67,297,1
,,,,,,,,,,,,,,,,,,5c538abae9813700018a4096,2020-11-25_16h35.19.847,lexical_decision_task_MP_exp2,2020.2.5,Linux armv8l,60,,0,0.431303236,-0.286308967,1,0,0,0.7935,button_right,0.7935,1,,,,,,99,WORD,"ID",33,fluent,FLUENT,m,,,,,,0.431303236,-0.286308967,1,0,0,,0,68,68,38,1
,,,,,,,,,,,,,,,,,,5c538abae9813700018a4096,2020-11-25_16h35.19.847,lexical_decision_task_MP_exp2,2020.2.5,Linux armv8l,60,,0,-0.295234383,-0.343663364,1,0,0,0.9636,button_left,0.9636,1,,,,,,473,NW,UN,33,hablin,CRIBLE,z,,,,,,-0.295234383,-0.343663364,1,0,0,,0,69,69,412,1
,,,,,,,,,,,,,,,,,,5c538abae9813700018a4096,2020-11-25_16h35.19.847,lexical_decision_task_MP_exp2,2020.2.5,Linux armv8l,60,,0,-0.313744948,-0.353839111,1,0,0,0.7312,button_left,0.7312,1,,,,,,300,NW,UN,16,smenco,YARION,z,,,,,,-0.313744948,-0.353839111,1,0,0,,0,70,70,479,1
,,,,,,,,,,,,,,,,,,5c538abae9813700018a4096,2020-11-25_16h35.19.847,lexical_decision_task_MP_exp2,2020.2.5,Linux armv8l,60,,0,-0.344287279,-0.393617079,1,0,0,0.7159,button_left,0.7159,1,,,,,,326,NW,"ID",33,iguade,IGUADE,z,,,,,,-0.344287279,-0.393617079,1,0,0,,0,71,71,265,1
,,,,,,,,,,,,,,,,,,5c538abae9813700018a4096,2020-11-25_16h35.19.847,lexical_decision_task_MP_exp2,2020.2.5,Linux armv8l,60,,0,-0.281351556,-0.345513407,1,0,0,0.9392,button_left,0.9392,1,,,,,,243,NW,UN,16,eatric,MUSIED,z,,,,,,-0.281351556,-0.345513407,1,0,0,,0,72,72,422,1
,,,,,,,,,,,,,,,,,,5c538abae9813700018a4096,2020-11-25_16h35.19.847,lexical_decision_task_MP_exp2,2020.2.5,Linux armv8l,60,,0,-0.337808609,-0.339963023,1,0,0,1.1871,button_left,1.1871,1,,,,,,433,NW,UN,33,pitrom,DRANCE,z,,,,,,-0.337808609,-0.339963023,1,0,0,,0,73,73,372,1
,,,,,,,,,,,,,,,,,,5c538abae9813700018a4096,2020-11-25_16h35.19.847,lexical_decision_task_MP_exp2,2020.2.5,Linux armv8l,60,,0,-0.283202616,-0.240980615,1,0,0,0.7593,button_left,0.7593,1,,,,,,274,NW,UN,16,sleirt,FUMBLO,z,,,,,,-0.283202616,-0.240980615,1,0,0,,0,74,74,453,1
,,,,,,,,,,,,,,,,,,5c538abae9813700018a4096,2020-11-25_16h35.19.847,lexical_decision_task_MP_exp2,2020.2.5,Linux armv8l,60,,0,-0.391489071,-0.350138855,1,0,0,0.8298,button_left,0.8298,1,,,,,,330,NW,"ID",33,kensom,KENSOM,z,,,,,,-0.391489071,-0.350138855,1,0,0,,0,75,75,269,1
,,,,,,,,,,,,,,,,,,5c538abae9813700018a4096,2020-11-25_16h35.19.847,lexical_decision_task_MP_exp2,2020.2.5,Linux armv8l,60,,0,0.265634071,-0.295559692,1,0,0,0.8323,button_right,0.8323,1,,,,,,132,WORD,"ID",16,strong,STRONG,m,,,,,,0.265634071,-0.295559692,1,0,0,,0,76,76,71,1
,,,,,,,,,,,,,,,,,,5c538abae9813700018a4096,2020-11-25_16h35.19.847,lexical_decision_task_MP_exp2,2020.2.5,Linux armv8l,60,,0,-0.248032633,-0.354764133,1,0,0,0.7921,button_left,0.7921,1,,,,,,458,NW,UN,33,hocite,BARCET,z,,,,,,-0.248032633,-0.354764133,1,0,0,,0,77,77,397,1
,,,,,,,,,,,,,,,,,,5c538abae9813700018a4096,2020-11-25_16h35.19.847,lexical_decision_task_MP_exp2,2020.2.5,Linux armv8l,60,,0,-0.295234383,-0.34736362,1,0,0,0.699,button_left,0.699,1,,,,,,421,NW,UN,33,alcoud,KNISMA,z,,,,,,-0.295234383,-0.34736362,1,0,0,,0,78,78,360,1
,,,,,,,,,,,,,,,,,,5c538abae9813700018a4096,2020-11-25_16h35.19.847,lexical_decision_task_MP_exp2,2020.2.5,Linux armv8l,60,,0,-0.282277086,-0.339963023,1,0,0,0.6775,button_left,0.6775,1,,,,,,376,NW,"ID",16,iguare,IGUARE,z,,,,,,-0.282277086,-0.339963023,1,0,0,,0,79,79,315,1
,,,,,,,,,,,,,,,,,,5c538abae9813700018a4096,2020-11-25_16h35.19.847,lexical_decision_task_MP_exp2,2020.2.5,Linux armv8l,60,,0,-0.291532262,-0.339963023,1,0,0,0.6458,button_left,0.6458,1,,,,,,374,NW,"ID",16,sliant,SLIANT,z,,,,,,-0.291532262,-0.339963023,1,0,0,,0,80,80,313,1
,,,,,,,,,,,,,,,,,,5c538abae9813700018a4096,2020-11-25_16h35.19.847,lexical_decision_task_MP_exp2,2020.2.5,Linux armv8l,60,,0,-0.330404409,-0.403792826,1,0,0,0.8146,button_left,0.8146,1,,,,,,285,NW,UN,16,reldon,PRUDGE,z,,,,,,-0.285979207,-0.338112895,1,0,0,,0,81,81,464,1
,,,,,,,,,,,,,,,,,,5c538abae9813700018a4096,2020-11-25_16h35.19.847,lexical_decision_task_MP_exp2,2020.2.5,Linux armv8l,60,,0,-0.283202616,-0.339963023,1,0,0,0.6287,button_left,0.6287,1,,,,,,328,NW,"ID",33,broake,BROAKE,z,,,,,,-0.283202616,-0.339963023,1,0,0,,0,82,82,267,1
,,,,,,,,,,,,,,,,,,5c538abae9813700018a4096,2020-11-25_16h35.19.847,lexical_decision_task_MP_exp2,2020.2.5,Linux armv8l,60,,0,-0.279500495,-0.336262851,1,0,0,0.5494,button_left,0.5494,1,,,,,,353,NW,"ID",33,clurey,CLUREY,z,,,,,,-0.279500495,-0.336262851,1,0,0,,0,83,83,292,1
,,,,,,,,,,,,,,,,,,5c538abae9813700018a4096,2020-11-25_16h35.19.847,lexical_decision_task_MP_exp2,2020.2.5,Linux armv8l,60,,0,-0.298011017,-0.359389496,1,0,0,0.5957,button_left,0.5957,1,,,,,,402,NW,"ID",16,syntic,SYNTIC,z,,,,,,-0.298011017,-0.359389496,1,0,0,,0,84,84,341,1
,,,,,,,,,,,,,,,,,,5c538abae9813700018a4096,2020-11-25_16h35.19.847,lexical_decision_task_MP_exp2,2020.2.5,Linux armv8l,60,,0,-0.302638626,-0.362164646,1,0,0,0.6092,button_left,0.6092,1,,,,,,289,NW,UN,16,splino,STARBY,z,,,,,,-0.302638626,-0.362164646,1,0,0,,0,85,85,468,1
,,,,,,,,,,,,,,,,,,5c538abae9813700018a4096,2020-11-25_16h35.19.847,lexical_decision_task_MP_exp2,2020.2.5,Linux armv8l,60,,0,-0.309117338,-0.368640137,1,0,0,0.6487,button_left,0.6487,1,,,,,,476,NW,UN,33,photie,JOSTED,z,,,,,,-0.309117338,-0.368640137,1,0,0,,0,86,86,415,1
,,,,,,,,,,,,,,,,,,5c538abae9813700018a4096,2020-11-25_16h35.19.847,lexical_decision_task_MP_exp2,2020.2.5,Linux armv8l,60,,0,-0.284128147,-0.338112895,1,0,0,0.7445,button_left,0.7445,1,,,,,,253,NW,UN,16,varosh,RESAIT,z,,,,,,-0.284128147,-0.338112895,1,0,0,,0,87,87,432,1
,,,,,,,,,,,,,,,,,,5c538abae9813700018a4096,2020-11-25_16h35.19.847,lexical_decision_task_MP_exp2,2020.2.5,Linux armv8l,60,,0,0.11569892,-0.312210931,1,0,0,0.7684,button_right,0.7684,1,,,,,,113,WORD,"ID",33,chorus,CHORUS,m,,,,,,0.423898994,-0.318686422,1,0,0,,0,88,88,52,1
,,,,,,,,,,,,,,,,,,5c538abae9813700018a4096,2020-11-25_16h35.19.847,lexical_decision_task_MP_exp2,2020.2.5,Linux armv8l,60,,0,0.37484631,-0.322386678,1,0,0,0.6936,button_right,0.6936,1,,,,,,59,WORD,UN,16,pencil,SPLINT,m,,,,,,0.37484631,-0.322386678,1,0,0,,0,89,89,238,1
,,,,,,,,,,,,,,,,,,5c538abae9813700018a4096,2020-11-25_16h35.19.847,lexical_decision_task_MP_exp2,2020.2.5,Linux armv8l,60,,0,-0.303564156,-0.381591119,1,0,0,0.9057,button_left,0.9057,1,,,,,,432,NW,UN,33,drance,LUNKER,z,,,,,,-0.303564156,-0.381591119,1,0,0,,0,90,90,371,1
,,,,,,,,,,,,,,,,,,5c538abae9813700018a4096,2020-11-25_16h35.19.847,lexical_decision_task_MP_exp2,2020.2.5,Linux armv8l,60,,0,0.386878035,-0.364014859,1,0,0,0.8545,button_right,0.8545,1,,,,,,190,WORD,UN,33,stable,BACKUP,m,,,,,,0.386878035,-0.364014859,1,0,0,,0,91,91,129,1
,,,,,,,,,,,,,,,,,,5c538abae9813700018a4096,2020-11-25_16h35.19.847,lexical_decision_task_MP_exp2,2020.2.5,Linux armv8l,60,,0,0.379473792,-0.311285909,1,0,0,1.0954,button_right,1.0954,1,,,,,,185,WORD,UN,33,portal,BOTHER,m,,,,,,0.379473792,-0.311285909,1,0,0,,0,92,92,124,1
,,,,,,,,,,,,,,,,,,5c538abae9813700018a4096,2020-11-25_16h35.19.847,lexical_decision_task_MP_exp2,2020.2.5,Linux armv8l,60,,0,0.365590922,-0.283533902,1,0,0,0.6319,button_right,0.6319,1,,,,,,133,WORD,"ID",16,chrome,CHROME,m,,,,,,0.365590922,-0.283533902,1,0,0,,0,93,93,72,1
,,,,,,,,,,,,,,,,,,5c538abae9813700018a4096,2020-11-25_16h35.19.847,lexical_decision_task_MP_exp2,2020.2.5,Linux armv8l,60,,0,0.360037825,-0.278908454,1,0,0,0.6077,button_right,0.6077,1,,,,,,140,WORD,"ID",16,prince,PRINCE,m,,,,,,0.360037825,-0.278908454,1,0,0,,0,94,94,79,1
,,,,,,,,,,,,,,,,,,5c538abae9813700018a4096,2020-11-25_16h35.19.847,lexical_decision_task_MP_exp2,2020.2.5,Linux armv8l,60,,0,-0.244330512,-0.314986165,1,0,0,0.8898,button_left,0.8898,1,,,,,,427,NW,UN,33,tandly,SCHIND,z,,,,,,-0.244330512,-0.314986165,1,0,0,,0,95,95,366,1
,,,,,,,,,,,,,,,,,,5c538abae9813700018a4096,2020-11-25_16h35.19.847,lexical_decision_task_MP_exp2,2020.2.5,Linux armv8l,60,,0,-0.248032633,-0.28815918,1,0,0,1.1931,button_left,1.1931,1,,,,,,379,NW,"ID",16,auting,AUTING,z,,,,,,-0.248032633,-0.28815918,1,0,0,,0,96,96,318,1
,,,,,,,,,,,,,,,,,,5c538abae9813700018a4096,2020-11-25_16h35.19.847,lexical_decision_task_MP_exp2,2020.2.5,Linux armv8l,60,,0,-0.383159383,-0.43246994,1,0,0,0.8572,button_left,0.8572,1,,,,,,400,NW,"ID",16,wearox,WEAROX,z,,,,,,-0.266543113,-0.283533902,1,0,0,,0,97,97,339,1
,,,,,,,,,,,,,,,,,,5c538abae9813700018a4096,2020-11-25_16h35.19.847,lexical_decision_task_MP_exp2,2020.2.5,Linux armv8l,60,,0,-0.392414559,-0.274283091,1,0,0,1.0635,button_left,1.0635,1,,,,,,265,NW,UN,16,varmit,DISTAR,z,,,,,,-0.392414559,-0.274283091,1,0,0,,0,98,98,444,1
,,,,,,,,,,,,,,,,,,5c538abae9813700018a4096,2020-11-25_16h35.19.847,lexical_decision_task_MP_exp2,2020.2.5,Linux armv8l,60,,0,0.490536838,-0.359389496,1,0,0,0.7094,button_right,0.7094,1,,,,,,88,WORD,"ID",33,hunger,HUNGER,m,,,,,,0.490536838,-0.359389496,1,0,0,,0,99,99,27,1
,,,,,,,,,,,,,,,,,,5c538abae9813700018a4096,2020-11-25_16h35.19.847,lexical_decision_task_MP_exp2,2020.2.5,Linux armv8l,60,,0,-0.48219062,-0.314986165,1,0,0,0.7446,button_left,0.7446,1,,,,,,375,NW,"ID",16,yorque,YORQUE,z,,,,,,-0.48219062,-0.314986165,1,0,0,,0,100,100,314,1
,,,,,,,,,,,,,,,,,,5c538abae9813700018a4096,2020-11-25_16h35.19.847,lexical_decision_task_MP_exp2,2020.2.5,Linux armv8l,60,,0,-0.444244046,-0.306660546,1,0,0,0.7138,button_left,0.7138,1,,,,,,318,NW,"ID",33,reagly,REAGLY,z,,,,,,-0.444244046,-0.306660546,1,0,0,,0,101,101,257,1
,,,,,,,,,,,,,,,,,,5c538abae9813700018a4096,2020-11-25_16h35.19.847,lexical_decision_task_MP_exp2,2020.2.5,Linux armv8l,60,,0,-0.447020637,-0.301110162,1,0,0,0.6936,button_left,0.6936,1,,,,,,435,NW,UN,33,frutan,IMPURB,z,,,,,,-0.447020637,-0.301110162,1,0,0,,0,102,102,374,1
,,,,,,,,,,,,,,,,,,5c538abae9813700018a4096,2020-11-25_16h35.19.847,lexical_decision_task_MP_exp2,2020.2.5,Linux armv8l,60,,0,-0.437765376,-0.298334927,1,0,0,0.6805,button_left,0.6805,1,,,,,,357,NW,"ID",33,derain,DERAIN,z,,,,,,-0.437765376,-0.298334927,1,0,0,,0,103,103,296,1
,,,,,,,,,,,,,,,,,,5c538abae9813700018a4096,2020-11-25_16h35.19.847,lexical_decision_task_MP_exp2,2020.2.5,Linux armv8l,60,,0,0.525706991,-0.351063877,1,0,0,0.6005,button_right,0.6005,1,,,,,,105,WORD,"ID",33,number,NUMBER,m,,,,,,0.525706991,-0.351063877,1,0,0,,0,104,104,44,1
,,,,,,,,,,,,,,,,,,5c538abae9813700018a4096,2020-11-25_16h35.19.847,lexical_decision_task_MP_exp2,2020.2.5,Linux armv8l,60,,0,0.512749566,-0.344588386,1,0,0,0.6109,button_right,0.6109,1,,,,,,36,WORD,UN,16,insult,VANISH,m,,,,,,0.512749566,-0.344588386,1,0,0,,0,105,105,215,1
,,,,,,,,,,,,,,,,,,5c538abae9813700018a4096,2020-11-25_16h35.19.847,lexical_decision_task_MP_exp2,2020.2.5,Linux armv8l,60,,0,0.504419963,-0.345513407,1,0,0,0.5992,button_right,0.5992,1,,,,,,23,WORD,UN,16,praise,WEALTH,m,,,,,,0.504419963,-0.345513407,1,0,0,,0,106,106,202,1
,,,,,,,,,,,,,,,,,,5c538abae9813700018a4096,2020-11-25_16h35.19.847,lexical_decision_task_MP_exp2,2020.2.5,Linux armv8l,60,,0,0.507196384,-0.344588386,1,0,0,0.5404,button_right,0.5404,1,,,,,,198,WORD,UN,33,invoke,WICKED,m,,,,,,0.507196384,-0.344588386,1,0,0,,0,107,107,137,1
,,,,,,,,,,,,,,,,,,5c538abae9813700018a4096,2020-11-25_16h35.19.847,lexical_decision_task_MP_exp2,2020.2.5,Linux armv8l,60,,0,0.492387899,-0.343663364,1,0,0,0.5613,button_right,0.5613,1,,,,,,101,WORD,"ID",33,wrench,WRENCH,m,,,,,,0.492387899,-0.343663364,1,0,0,,0,108,108,40,1
,,,,,,,,,,,,,,,,,,5c538abae9813700018a4096,2020-11-25_16h35.19.847,lexical_decision_task_MP_exp2,2020.2.5,Linux armv8l,60,,0,-0.451648288,-0.299259949,1,0,0,0.8573,button_left,0.8573,1,,,,,,246,NW,UN,16,blarge,PIATON,z,,,,,,-0.451648288,-0.299259949,1,0,0,,0,109,109,425,1
,,,,,,,,,,,,,,,,,,5c538abae9813700018a4096,2020-11-25_16h35.19.847,lexical_decision_task_MP_exp2,2020.2.5,Linux armv8l,60,,0,0.505345323,-0.342738342,1,0,0,0.5485,button_right,0.5485,0,,,,,,306,NW,"ID",33,sounge,SOUNGE,z,,,,,,0.505345323,-0.342738342,1,0,0,,0,110,110,245,1
,,,,,,,,,,,,,,,,,,5c538abae9813700018a4096,2020-11-25_16h35.19.847,lexical_decision_task_MP_exp2,2020.2.5,Linux armv8l,60,,0,0.509972805,-0.351063877,1,0,0,0.7649,button_right,0.7649,1,,,,,,92,WORD,"ID",33,strand,STRAND,m,,,,,,0.509972805,-0.351063877,1,0,0,,0,111,111,31,1
,,,,,,,,,,,,,,,,,,5c538abae9813700018a4096,2020-11-25_16h35.19.847,lexical_decision_task_MP_exp2,2020.2.5,Linux armv8l,60,,0,0.497941081,-0.356614346,1,0,0,0.8878,button_right,0.8878,1,,,,,,195,WORD,UN,33,credit,RESIGN,m,,,,,,0.497941081,-0.356614346,1,0,0,,0,112,112,134,1
,,,,,,,,,,,,,,,,,,5c538abae9813700018a4096,2020-11-25_16h35.19.847,lexical_decision_task_MP_exp2,2020.2.5,Linux armv8l,60,,0,-0.462754525,-0.331637404,1,0,0,0.8132,button_left,0.8132,1,,,,,,344,NW,"ID",33,scrily,SCRILY,z,,,,,,-0.462754525,-0.331637404,1,0,0,,0,113,113,283,1
,,,,,,,,,,,,,,,,,,5c538abae9813700018a4096,2020-11-25_16h35.19.847,lexical_decision_task_MP_exp2,2020.2.5,Linux armv8l,60,,0,0.502568732,-0.355689155,1,0,0,0.6587,button_right,0.6587,1,,,,,,143,WORD,"ID",16,reason,REASON,m,,,,,,0.502568732,-0.355689155,1,0,0,,0,114,114,82,1
,,,,,,,,,,,,,,,,,,5c538abae9813700018a4096,2020-11-25_16h35.19.847,lexical_decision_task_MP_exp2,2020.2.5,Linux armv8l,60,,0,-0.463680098,-0.330712382,1,0,0,0.7409,button_left,0.7409,1,,,,,,281,NW,UN,16,porlex,MELATY,z,,,,,,-0.463680098,-0.330712382,1,0,0,,0,115,115,460,1
,,,,,,,,,,,,,,,,,,5c538abae9813700018a4096,2020-11-25_16h35.19.847,lexical_decision_task_MP_exp2,2020.2.5,Linux armv8l,60,,0,0.506270854,-0.353839111,1,0,0,0.543,button_right,0.543,1,,,,,,208,WORD,UN,33,search,HOCKEY,m,,,,,,0.506270854,-0.353839111,1,0,0,,0,116,116,147,1
,,,,,,,,,,,,,,,,,,5c538abae9813700018a4096,2020-11-25_16h35.19.847,lexical_decision_task_MP_exp2,2020.2.5,Linux armv8l,60,,0,0.508122084,-0.371415371,1,0,0,1.3236,button_right,1.3236,1,,,,,,220,WORD,UN,33,mascot,VOYAGE,m,,,,,,0.508122084,-0.371415371,1,0,0,,0,117,117,159,1
,,,,,,,,,,,,,,,,,,5c538abae9813700018a4096,2020-11-25_16h35.19.847,lexical_decision_task_MP_exp2,2020.2.5,Linux armv8l,60,,0,-0.498850038,-0.378815969,1,0,0,0.823,button_left,0.823,1,,,,,,414,NW,"ID",16,serbol,SERBOL,z,,,,,,-0.498850038,-0.378815969,1,0,0,,0,118,118,353,1
,,,,,,,,,,,,,,,,,,5c538abae9813700018a4096,2020-11-25_16h35.19.847,lexical_decision_task_MP_exp2,2020.2.5,Linux armv8l,60,,0,0.460920207,-0.365864987,1,0,0,1.4631,button_right,1.4631,1,,,,,,225,WORD,UN,33,casino,VULGAR,m,,,,,,0.460920207,-0.365864987,1,0,0,,0,119,119,164,1
,,,,,,,,,,,,,,,,,,5c538abae9813700018a4096,2020-11-25_16h35.19.847,lexical_decision_task_MP_exp2,2020.2.5,Linux armv8l,60,,0,0.49609002,-0.3732655,1,0,0,0.7401,button_right,0.7401,1,,,,,,187,WORD,UN,33,social,COURSE,m,,,,,,0.49609002,-0.3732655,1,0,0,,0,120,120,126,1
,,,,,,,,,,,,,,,,,,5c538abae9813700018a4096,2020-11-25_16h35.19.847,lexical_decision_task_MP_exp2,2020.2.5,Linux armv8l,60,,0,-0.388712438,-0.348288642,1,0,0,0.7562,button_left,0.7562,1,,,,,,373,NW,"ID",16,bigent,BIGENT,z,,,,,,-0.388712438,-0.348288642,1,0,0,,0,121,121,312,1
,,,,,,,,,,,,,,,,,,5c538abae9813700018a4096,2020-11-25_16h35.19.847,lexical_decision_task_MP_exp2,2020.2.5,Linux armv8l,60,,0,-0.348914931,-0.341813151,1,0,0,0.7086,button_left,0.7086,1,,,,,,382,NW,"ID",16,sarley,SARLEY,z,,,,,,-0.348914931,-0.341813151,1,0,0,,0,122,122,321,1
,,,,,,,,,,,,,,,,,,5c538abae9813700018a4096,2020-11-25_16h35.19.847,lexical_decision_task_MP_exp2,2020.2.5,Linux armv8l,60,,0,-0.326702287,-0.319611528,1,0,0,0.7019,button_left,0.7019,1,,,,,,439,NW,UN,33,saride,LIMPOR,z,,,,,,-0.326702287,-0.319611528,1,0,0,,0,123,123,378,1
,,,,,,,,,,,,,,,,,,5c538abae9813700018a4096,2020-11-25_16h35.19.847,lexical_decision_task_MP_exp2,2020.2.5,Linux armv8l,60,,0,-0.344287279,-0.334412638,1,0,0,0.6968,button_left,0.6968,1,,,,,,469,NW,UN,33,crudio,PADIFS,z,,,,,,-0.344287279,-0.334412638,1,0,0,,0,124,124,408,1
,,,,,,,,,,,,,,,,,,5c538abae9813700018a4096,2020-11-25_16h35.19.847,lexical_decision_task_MP_exp2,2020.2.5,Linux armv8l,60,,0,0.419271427,-0.319611528,1,0,0,0.9153,button_right,0.9153,1,,,,,,47,WORD,UN,16,walnut,INCOME,m,,,,,,0.419271427,-0.319611528,1,0,0,,0,125,125,226,1
,,,,,,,,,,,,,,,,,,5c538abae9813700018a4096,2020-11-25_16h35.19.847,lexical_decision_task_MP_exp2,2020.2.5,Linux armv8l,60,,0,-0.300787565,-0.366790093,1,0,0,0.742,button_left,0.742,1,,,,,,445,NW,UN,33,runamo,MINKEL,z,,,,,,-0.300787565,-0.366790093,1,0,0,,0,126,126,384,1
,,,,,,,,,,,,,,,,,,5c538abae9813700018a4096,2020-11-25_16h35.19.847,lexical_decision_task_MP_exp2,2020.2.5,Linux armv8l,60,,0,0.349856906,-0.302035183,1,0,0,0.579,button_right,0.579,1,,,,,,96,WORD,"ID",33,ignore,IGNORE,m,,,,,,0.349856906,-0.302035183,1,0,0,,0,127,127,35,1
,,,,,,,,,,,,,,,,,,5c538abae9813700018a4096,2020-11-25_16h35.19.847,lexical_decision_task_MP_exp2,2020.2.5,Linux armv8l,60,,0,0.327644433,-0.300185055,1,0,0,0.7082,button_right,0.7082,1,,,,,,134,WORD,"ID",16,staple,STAPLE,m,,,,,,0.327644433,-0.300185055,1,0,0,,0,128,128,73,1
,,,,,,,,,,,,,,,,,,5c538abae9813700018a4096,2020-11-25_16h35.19.847,lexical_decision_task_MP_exp2,2020.2.5,Linux armv8l,60,,0,-0.333180957,-0.388991801,1,0,0,0.8919,button_left,0.8919,1,,,,,,459,NW,UN,33,mingar,BAFENT,z,,,,,,-0.333180957,-0.388991801,1,0,0,,0,129,129,398,1
,,,,,,,,,,,,,,,,,,5c538abae9813700018a4096,2020-11-25_16h35.19.847,lexical_decision_task_MP_exp2,2020.2.5,Linux armv8l,60,,0,0.323016697,-0.280758582,1,0,0,0.7259,button_right,0.7259,1,,,,,,43,WORD,UN,16,foster,TONGUE,m,,,,,,0.323016697,-0.280758582,1,0,0,,0,130,130,222,1
,,,,,,,,,,,,,,,,,,5c538abae9813700018a4096,2020-11-25_16h35.19.847,lexical_decision_task_MP_exp2,2020.2.5,Linux armv8l,60,,0,0.328569878,-0.274283091,1,0,0,0.823,button_right,0.823,1,,,,,,5,WORD,UN,16,bundle,PLUNGE,m,,,,,,0.328569878,-0.274283091,1,0,0,,0,131,131,184,1
,,,,,,,,,,,,,,,,,,5c538abae9813700018a4096,2020-11-25_16h35.19.847,lexical_decision_task_MP_exp2,2020.2.5,Linux armv8l,60,,0,0.34522934,-0.277058411,1,0,0,0.4998,button_right,0.4998,0,,,,,,335,NW,"ID",33,desion,DESION,z,,,,,,0.34522934,-0.277058411,1,0,0,,0,132,132,274,1
,,,,,,,,,,,,,,,,,,5c538abae9813700018a4096,2020-11-25_16h35.19.847,lexical_decision_task_MP_exp2,2020.2.5,Linux armv8l,60,,0,0.335974036,-0.266882494,1,0,0,0.6089,button_right,0.6089,1,,,,,,80,WORD,"ID",33,family,FAMILY,m,,,,,,0.335974036,-0.266882494,1,0,0,,0,133,133,19,1
,,,,,,,,,,,,,,,,,,5c538abae9813700018a4096,2020-11-25_16h35.19.847,lexical_decision_task_MP_exp2,2020.2.5,Linux armv8l,60,,0,0.367442067,-0.274283091,1,0,0,0.5269,button_right,0.5269,0,,,,,,248,NW,UN,16,batrol,STROLE,z,,,,,,0.367442067,-0.274283091,1,0,0,,0,134,134,427,1
,,,,,,,,,,,,,,,,,,5c538abae9813700018a4096,2020-11-25_16h35.19.847,lexical_decision_task_MP_exp2,2020.2.5,Linux armv8l,60,,0,-0.329478836,-0.377890862,1,0,0,0.8727,button_left,0.8727,1,,,,,,254,NW,UN,16,apight,VAROSH,z,,,,,,-0.329478836,-0.377890862,1,0,0,,0,135,135,433,1
,,,,,,,,,,,,,,,,,,5c538abae9813700018a4096,2020-11-25_16h35.19.847,lexical_decision_task_MP_exp2,2020.2.5,Linux armv8l,60,,0,-0.321149105,-0.334412638,1,0,0,0.716,button_left,0.716,1,,,,,,304,NW,"ID",33,cludie,CLUDIE,z,,,,,,-0.321149105,-0.334412638,1,0,0,,0,136,136,243,1
,,,,,,,,,,,,,,,,,,5c538abae9813700018a4096,2020-11-25_16h35.19.847,lexical_decision_task_MP_exp2,2020.2.5,Linux armv8l,60,,0,-0.280426025,-0.314986165,1,0,0,0.7698,button_left,0.7698,1,,,,,,444,NW,UN,33,minkel,JAUNCE,z,,,,,,-0.280426025,-0.314986165,1,0,0,,0,137,137,383,1
,,,,,,,,,,,,,,,,,,5c538abae9813700018a4096,2020-11-25_16h35.19.847,lexical_decision_task_MP_exp2,2020.2.5,Linux armv8l,60,,0,-0.267468643,-0.312210931,1,0,0,0.6023,button_left,0.6023,1,,,,,,363,NW,"ID",16,breali,BREALI,z,,,,,,-0.267468643,-0.312210931,1,0,0,,0,138,138,302,1
,,,,,,,,,,,,,,,,,,5c538abae9813700018a4096,2020-11-25_16h35.19.847,lexical_decision_task_MP_exp2,2020.2.5,Linux armv8l,60,,0,-0.277649434,-0.315911187,1,0,0,0.6128,button_left,0.6128,1,,,,,,351,NW,"ID",33,tiesch,TIESCH,z,,,,,,-0.277649434,-0.315911187,1,0,0,,0,139,139,290,1
,,,,,,,,,,,,,,,,,,5c538abae9813700018a4096,2020-11-25_16h35.19.847,lexical_decision_task_MP_exp2,2020.2.5,Linux armv8l,60,,0,0.355410088,-0.251156447,1,0,0,0.8934,button_right,0.8934,1,,,,,,230,WORD,UN,33,mother,FRINGE,m,,,,,,0.355410088,-0.251156447,1,0,0,,0,140,140,169,1
,,,,,,,,,,,,,,,,,,5c538abae9813700018a4096,2020-11-25_16h35.19.847,lexical_decision_task_MP_exp2,2020.2.5,Linux armv8l,60,,0,0.313761393,-0.28815918,1,0,0,1.6546,button_right,1.6546,1,,,,,,197,WORD,UN,33,wicked,STREAM,m,,,,,,0.313761393,-0.28815918,1,0,0,,0,141,141,136,1
,,,,,,,,,,,,,,,,,,5c538abae9813700018a4096,2020-11-25_16h35.19.847,lexical_decision_task_MP_exp2,2020.2.5,Linux armv8l,60,,0,0.338750797,-0.278908454,1,0,0,0.6109,button_right,0.6109,1,,,,,,58,WORD,UN,16,splint,FOSTER,m,,,,,,0.338750797,-0.278908454,1,0,0,,0,142,142,237,1
,,,,,,,,,,,,,,,,,,5c538abae9813700018a4096,2020-11-25_16h35.19.847,lexical_decision_task_MP_exp2,2020.2.5,Linux armv8l,60,,0,0.388729095,-0.279833476,1,0,0,0.761,button_right,0.761,1,,,,,,19,WORD,UN,16,breast,PATRON,m,,,,,,0.388729095,-0.279833476,1,0,0,,0,143,143,198,1
,,,,,,,,,,,,,,,,,,5c538abae9813700018a4096,2020-11-25_16h35.19.847,lexical_decision_task_MP_exp2,2020.2.5,Linux armv8l,60,,0,-0.278574965,-0.362164646,1,0,0,0.8873,button_left,0.8873,1,,,,,,320,NW,"ID",33,jockal,JOCKAL,z,,,,,,-0.278574965,-0.362164646,1,0,0,,0,144,144,259,1
,,,,,,,,,,,,,,,,,,5c538abae9813700018a4096,2020-11-25_16h35.19.847,lexical_decision_task_MP_exp2,2020.2.5,Linux armv8l,60,,0,-0.222117869,-0.38806661,1,0,0,0.8235,button_left,0.8235,1,,,,,,249,NW,UN,16,milted,BATROL,z,,,,,,-0.222117869,-0.38806661,1,0,0,,0,145,145,428,1
,,,,,,,,,,,,,,,,,,5c538abae9813700018a4096,2020-11-25_16h35.19.847,lexical_decision_task_MP_exp2,2020.2.5,Linux armv8l,60,,0,0.313761393,-0.275208198,1,0,0,1.0172,button_right,1.0172,1,,,,,,130,WORD,"ID",16,stupid,STUPID,m,,,,,,0.313761393,-0.275208198,1,0,0,,0,146,146,69,1
,,,,,,,,,,,,,,,,,,5c538abae9813700018a4096,2020-11-25_16h35.19.847,lexical_decision_task_MP_exp2,2020.2.5,Linux armv8l,60,,0,-0.321149105,-0.40009257,1,0,0,1.0121,button_left,1.0121,1,,,,,,329,NW,"ID",33,yarike,YARIKE,z,,,,,,-0.271170764,-0.339037916,1,0,0,,0,147,147,268,1
,,,,,,,,,,,,,,,,,,5c538abae9813700018a4096,2020-11-25_16h35.19.847,lexical_decision_task_MP_exp2,2020.2.5,Linux armv8l,60,,0,0.372995165,-0.266882494,1,0,0,1.2072,button_right,1.2072,1,,,,,,214,WORD,UN,33,phobia,INTAKE,m,,,,,,0.372995165,-0.266882494,1,0,0,,0,148,148,153,1
,,,,,,,,,,,,,,,,,,5c538abae9813700018a4096,2020-11-25_16h35.19.847,lexical_decision_task_MP_exp2,2020.2.5,Linux armv8l,60,,0,0.331346554,-0.256706746,1,0,0,0.7996,button_right,0.7996,1,,,,,,38,WORD,UN,16,insect,POWDER,m,,,,,,0.331346554,-0.256706746,1,0,0,,0,149,149,217,1
,,,,,,,,,,,,,,,,,,5c538abae9813700018a4096,2020-11-25_16h35.19.847,lexical_decision_task_MP_exp2,2020.2.5,Linux armv8l,60,,0,-0.313744948,-0.383441332,1,0,0,0.9622,button_left,0.9622,1,,,,,,288,NW,UN,16,starby,YACEUP,z,,,,,,-0.313744948,-0.383441332,1,0,0,,0,150,150,467,1
,,,,,,,,,,,,,,,,,,5c538abae9813700018a4096,2020-11-25_16h35.19.847,lexical_decision_task_MP_exp2,2020.2.5,Linux armv8l,60,,0,0.343378279,-0.271507941,1,0,0,1.8921,button_right,1.8921,1,,,,,,157,WORD,"ID",16,dragon,DRAGON,m,,,,,,0.343378279,-0.271507941,1,0,0,,0,151,151,96,1
,,,,,,,,,,,,,,,,,,5c538abae9813700018a4096,2020-11-25_16h35.19.847,lexical_decision_task_MP_exp2,2020.2.5,Linux armv8l,60,,0,,,,,,,,1.8921,-1,,,,,,149,WORD,"ID",16,invade,INVADE,m,,,,,,0.33319753,-0.271507941,0,0,0,,0,152,152,88,1
,,,,,,,,,,,,,,,,,,5c538abae9813700018a4096,2020-11-25_16h35.19.847,lexical_decision_task_MP_exp2,2020.2.5,Linux armv8l,60,,0,-0.285979207,-0.367715115,1,0,0,0.7285,button_left,0.7285,1,,,,,,470,NW,UN,33,nobest,CRUDIO,z,,,,,,-0.285979207,-0.367715115,1,0,0,,0,153,153,409,1
,,,,,,,,,,,,,,,,,,5c538abae9813700018a4096,2020-11-25_16h35.19.847,lexical_decision_task_MP_exp2,2020.2.5,Linux armv8l,60,,0,0.321165636,-0.271507941,1,0,0,0.7599,button_right,0.7599,1,,,,,,90,WORD,"ID",33,relish,RELISH,m,,,,,,0.321165636,-0.271507941,1,0,0,,0,154,154,29,1
,,,,,,,,,,,,,,,,,,5c538abae9813700018a4096,2020-11-25_16h35.19.847,lexical_decision_task_MP_exp2,2020.2.5,Linux armv8l,60,,0,0.31838913,-0.266882494,1,0,0,0.6167,button_right,0.6167,1,,,,,,93,WORD,"ID",33,public,PUBLIC,m,,,,,,0.31838913,-0.266882494,1,0,0,,0,155,155,32,1
,,,,,,,,,,,,,,,,,,5c538abae9813700018a4096,2020-11-25_16h35.19.847,lexical_decision_task_MP_exp2,2020.2.5,Linux armv8l,60,,0,-0.300787565,-0.360314602,1,0,0,0.8124,button_left,0.8124,1,,,,,,347,NW,"ID",33,kerift,KERIFT,z,,,,,,-0.300787565,-0.360314602,1,0,0,,0,156,156,286,1
,,,,,,,,,,,,,,,,,,5c538abae9813700018a4096,2020-11-25_16h35.19.847,lexical_decision_task_MP_exp2,2020.2.5,Linux armv8l,60,,0,-0.231373172,-0.34736362,1,0,0,0.7449,button_left,0.7449,0,,,,,,239,WORD,UN,33,forest,LUMBER,m,,,,,,-0.231373172,-0.34736362,1,0,0,,0,157,157,178,1
,,,,,,,,,,,,,,,,,,5c538abae9813700018a4096,2020-11-25_16h35.19.847,lexical_decision_task_MP_exp2,2020.2.5,Linux armv8l,60,,0,0.356335704,-0.280758582,1,0,0,1.1907,button_right,1.1907,1,,,,,,63,WORD,"ID",33,launch,LAUNCH,m,,,,,,0.356335704,-0.280758582,1,0,0,,0,158,158,2,1
,,,,,,,,,,,,,,,,,,5c538abae9813700018a4096,2020-11-25_16h35.19.847,lexical_decision_task_MP_exp2,2020.2.5,Linux armv8l,60,,0,-0.402595393,-0.391766866,1,0,0,1.1936,button_left,1.1936,1,,,,,,366,NW,"ID",16,toshel,TOSHEL,z,,,,,,-0.402595393,-0.391766866,1,0,0,,0,159,159,305,1
,,,,,,,,,,,,,,,,,,5c538abae9813700018a4096,2020-11-25_16h35.19.847,lexical_decision_task_MP_exp2,2020.2.5,Linux armv8l,60,,0,0.355410088,-0.275208198,1,0,0,0.7407,button_right,0.7407,1,,,,,,42,WORD,UN,16,tongue,CHAPEL,m,,,,,,0.355410088,-0.275208198,1,0,0,,0,160,160,221,1
,,,,,,,,,,,,,,,,,,5c538abae9813700018a4096,2020-11-25_16h35.19.847,lexical_decision_task_MP_exp2,2020.2.5,Linux armv8l,60,,0,-0.34151073,-0.344588386,1,0,0,0.7661,button_left,0.7661,1,,,,,,430,NW,UN,33,chrums,CAROEY,z,,,,,,-0.34151073,-0.344588386,1,0,0,,0,161,161,369,1
,,,,,,,,,,,,,,,,,,5c538abae9813700018a4096,2020-11-25_16h35.19.847,lexical_decision_task_MP_exp2,2020.2.5,Linux armv8l,60,,0,0.335048676,-0.265957472,1,0,0,0.6976,button_right,0.6976,1,,,,,,119,WORD,"ID",33,spider,SPIDER,m,,,,,,0.335048676,-0.265957472,1,0,0,,0,162,162,58,1
,,,,,,,,,,,,,,,,,,5c538abae9813700018a4096,2020-11-25_16h35.19.847,lexical_decision_task_MP_exp2,2020.2.5,Linux armv8l,60,,0,0.336899651,-0.266882494,1,0,0,0.7817,button_right,0.7817,1,,,,,,30,WORD,UN,16,weapon,ORIENT,m,,,,,,0.336899651,-0.266882494,1,0,0,,0,163,163,209,1
,,,,,,,,,,,,,,,,,,5c538abae9813700018a4096,2020-11-25_16h35.19.847,lexical_decision_task_MP_exp2,2020.2.5,Linux armv8l,60,,0,-0.244330512,-0.379740991,1,0,0,0.8152,button_left,0.8152,1,,,,,,276,NW,UN,16,petain,YARMON,z,,,,,,-0.244330512,-0.379740991,1,0,0,,0,164,164,455,1
,,,,,,,,,,,,,,,,,,5c538abae9813700018a4096,2020-11-25_16h35.19.847,lexical_decision_task_MP_exp2,2020.2.5,Linux armv8l,60,,0,0.331346554,-0.251156447,1,0,0,0.734,button_right,0.734,1,,,,,,98,WORD,"ID",33,belong,BELONG,m,,,,,,0.331346554,-0.251156447,1,0,0,,0,165,165,37,1
,,,,,,,,,,,,,,,,,,5c538abae9813700018a4096,2020-11-25_16h35.19.847,lexical_decision_task_MP_exp2,2020.2.5,Linux armv8l,60,,0,0.314687008,-0.258556959,1,0,0,0.6767,button_right,0.6767,1,,,,,,161,WORD,"ID",16,pastor,PASTOR,m,,,,,,0.314687008,-0.258556959,1,0,0,,0,166,166,100,1
,,,,,,,,,,,,,,,,,,5c538abae9813700018a4096,2020-11-25_16h35.19.847,lexical_decision_task_MP_exp2,2020.2.5,Linux armv8l,60,,0,0.316538069,-0.249306234,1,0,0,0.7104,button_right,0.7104,1,,,,,,111,WORD,"ID",33,induce,INDUCE,m,,,,,,0.316538069,-0.249306234,1,0,0,,0,167,167,50,1
,,,,,,,,,,,,,,,,,,5c538abae9813700018a4096,2020-11-25_16h35.19.847,lexical_decision_task_MP_exp2,2020.2.5,Linux armv8l,60,,0,0.33319753,-0.256706746,1,0,0,0.6497,button_right,0.6497,1,,,,,,53,WORD,UN,16,ramble,POLICE,m,,,,,,0.33319753,-0.256706746,1,0,0,,0,168,168,232,1
,,,,,,,,,,,,,,,,,,5c538abae9813700018a4096,2020-11-25_16h35.19.847,lexical_decision_task_MP_exp2,2020.2.5,Linux armv8l,60,,0,-0.280426025,-0.336262851,1,0,0,0.8295,button_left,0.8295,1,,,,,,341,NW,"ID",33,myrtie,MYRTIE,z,,,,,,-0.280426025,-0.336262851,1,0,0,,0,169,169,280,1
,,,,,,,,,,,,,,,,,,5c538abae9813700018a4096,2020-11-25_16h35.19.847,lexical_decision_task_MP_exp2,2020.2.5,Linux armv8l,60,,0,-0.349840461,-0.284458923,1,0,0,0.8095,button_left,0.8095,1,,,,,,405,NW,"ID",16,flumni,FLUMNI,z,,,,,,-0.349840461,-0.284458923,1,0,0,,0,170,170,344,1
,,,,,,,,,,,,,,,,,,5c538abae9813700018a4096,2020-11-25_16h35.19.847,lexical_decision_task_MP_exp2,2020.2.5,Linux armv8l,60,,0,-0.315596008,-0.353839111,1,0,0,0.8774,button_left,0.8774,1,,,,,,343,NW,"ID",33,aimosy,AIMOSY,z,,,,,,-0.315596008,-0.353839111,1,0,0,,0,171,171,282,1
,,,,,,,,,,,,,,,,,,5c538abae9813700018a4096,2020-11-25_16h35.19.847,lexical_decision_task_MP_exp2,2020.2.5,Linux armv8l,60,,0,-0.32022366,-0.331637404,1,0,0,0.8776,button_left,0.8776,1,,,,,,442,NW,UN,33,dorsex,ABOUNE,z,,,,,,-0.32022366,-0.331637404,1,0,0,,0,172,172,381,1
,,,,,,,,,,,,,,,,,,5c538abae9813700018a4096,2020-11-25_16h35.19.847,lexical_decision_task_MP_exp2,2020.2.5,Linux armv8l,60,,0,-0.300787565,-0.324236891,1,0,0,0.5874,button_left,0.5874,1,,,,,,447,NW,UN,33,sadent,GIRCUE,z,,,,,,-0.300787565,-0.324236891,1,0,0,,0,173,173,386,1
,,,,,,,,,,,,,,,,,,5c538abae9813700018a4096,2020-11-25_16h35.19.847,lexical_decision_task_MP_exp2,2020.2.5,Linux armv8l,60,,0,0.394282193,-0.234505124,1,0,0,0.9582,button_right,0.9582,1,,,,,,24,WORD,UN,16,domain,PRAISE,m,,,,,,0.394282193,-0.234505124,1,0,0,,0,174,174,203,1
,,,,,,,,,,,,,,,,,,5c538abae9813700018a4096,2020-11-25_16h35.19.847,lexical_decision_task_MP_exp2,2020.2.5,Linux armv8l,60,,0,-0.323000166,-0.352914005,1,0,0,0.6606,button_left,0.6606,1,,,,,,269,NW,UN,16,wrimsy,ORCHET,z,,,,,,-0.323000166,-0.352914005,1,0,0,,0,175,175,448,1
,,,,,,,,,,,,,,,,,,5c538abae9813700018a4096,2020-11-25_16h35.19.847,lexical_decision_task_MP_exp2,2020.2.5,Linux armv8l,60,,0,0.308208381,-0.254856618,1,0,0,0.9753,button_right,0.9753,1,,,,,,145,WORD,"ID",16,parish,PARISH,m,,,,,,0.308208381,-0.254856618,1,0,0,,0,176,176,84,1
,,,,,,,,,,,,,,,,,,5c538abae9813700018a4096,2020-11-25_16h35.19.847,lexical_decision_task_MP_exp2,2020.2.5,Linux armv8l,60,,0,-0.285979207,-0.350138855,1,0,0,0.8138,button_left,0.8138,1,,,,,,316,NW,"ID",33,scregm,SCREGM,z,,,,,,-0.285979207,-0.350138855,1,0,0,,0,177,177,255,1
,,,,,,,,,,,,,,,,,,5c538abae9813700018a4096,2020-11-25_16h35.19.847,lexical_decision_task_MP_exp2,2020.2.5,Linux armv8l,60,,0,0.324867757,-0.240980615,1,0,0,0.8319,button_right,0.8319,1,,,,,,14,WORD,UN,16,orange,ALMOST,m,,,,,,0.324867757,-0.240980615,1,0,0,,0,178,178,193,1
,,,,,,,,,,,,,,,,,,5c538abae9813700018a4096,2020-11-25_16h35.19.847,lexical_decision_task_MP_exp2,2020.2.5,Linux armv8l,60,,0,-0.289681202,-0.342738342,1,0,0,1.0153,button_left,1.0153,1,,,,,,394,NW,"ID",16,spaqux,SPAQUX,z,,,,,,-0.289681202,-0.342738342,1,0,0,,0,179,179,333,1
,,,,,,,,,,,,,,,,,,5c538abae9813700018a4096,2020-11-25_16h35.19.847,lexical_decision_task_MP_exp2,2020.2.5,Linux armv8l,60,,0,-0.290606774,-0.340888129,1,0,0,0.7483,button_left,0.7483,1,,,,,,278,NW,UN,16,celond,UNIGHS,z,,,,,,-0.290606774,-0.340888129,1,0,0,,0,180,180,457,1
,,,,,,,,,,,,,,,,,,5c538abae9813700018a4096,2020-11-25_16h35.19.847,lexical_decision_task_MP_exp2,2020.2.5,Linux armv8l,60,,0,-0.265617583,-0.325161913,1,0,0,0.9281,button_left,0.9281,0,,,,,,196,WORD,UN,33,stream,CREDIT,m,,,,,,-0.265617583,-0.325161913,1,0,0,,0,181,181,135,1
,,,,,,,,,,,,,,,,,,5c538abae9813700018a4096,2020-11-25_16h35.19.847,lexical_decision_task_MP_exp2,2020.2.5,Linux armv8l,60,,0,0.321165636,-0.216928779,1,0,0,0.8452,button_right,0.8452,1,,,,,,46,WORD,UN,16,income,SINGLE,m,,,,,,0.321165636,-0.216928779,1,0,0,,0,182,182,225,1
,,,,,,,,,,,,,,,,,,5c538abae9813700018a4096,2020-11-25_16h35.19.847,lexical_decision_task_MP_exp2,2020.2.5,Linux armv8l,60,,0,0.312835948,-0.229879761,1,0,0,0.9265,button_right,0.9265,1,,,,,,10,WORD,UN,16,cruise,ETHNIC,m,,,,,,0.312835948,-0.229879761,1,0,0,,0,183,183,189,1
,,,,,,,,,,,,,,,,,,5c538abae9813700018a4096,2020-11-25_16h35.19.847,lexical_decision_task_MP_exp2,2020.2.5,Linux armv8l,60,,0,-0.240628391,-0.314986165,1,0,0,1.0338,button_left,1.0338,1,,,,,,250,NW,UN,16,lupict,MILTED,z,,,,,,-0.240628391,-0.314986165,1,0,0,,0,184,184,429,1
,,,,,,,,,,,,,,,,,,5c538abae9813700018a4096,2020-11-25_16h35.19.847,lexical_decision_task_MP_exp2,2020.2.5,Linux armv8l,60,,0,-0.280426025,-0.307585653,1,0,0,0.7996,button_left,0.7996,1,,,,,,280,NW,UN,16,melaty,CURBOL,z,,,,,,-0.280426025,-0.307585653,1,0,0,,0,185,185,459,1
,,,,,,,,,,,,,,,,,,5c538abae9813700018a4096,2020-11-25_16h35.19.847,lexical_decision_task_MP_exp2,2020.2.5,Linux armv8l,60,,0,-0.202681817,-0.322386678,1,0,0,0.7861,button_left,0.7861,1,,,,,,323,NW,"ID",33,rosail,ROSAIL,z,,,,,,-0.202681817,-0.322386678,1,0,0,,0,186,186,262,1
,,,,,,,,,,,,,,,,,,5c538abae9813700018a4096,2020-11-25_16h35.19.847,lexical_decision_task_MP_exp2,2020.2.5,Linux armv8l,60,,0,-0.239702861,-0.256706746,1,0,0,0.8971,button_left,0.8971,1,,,,,,242,NW,UN,16,musied,UNWERT,z,,,,,,-0.239702861,-0.256706746,1,0,0,,0,187,187,421,1
,,,,,,,,,,,,,,,,,,5c538abae9813700018a4096,2020-11-25_16h35.19.847,lexical_decision_task_MP_exp2,2020.2.5,Linux armv8l,60,,0,-0.215639242,-0.343663364,1,0,0,0.6771,button_left,0.6771,1,,,,,,392,NW,"ID",16,rouncy,ROUNCY,z,,,,,,-0.215639242,-0.343663364,1,0,0,,0,188,188,331,1
,,,,,,,,,,,,,,,,,,5c538abae9813700018a4096,2020-11-25_16h35.19.847,lexical_decision_task_MP_exp2,2020.2.5,Linux armv8l,60,,0,0.516451687,-0.150323783,1,0,0,0.8262,button_right,0.8262,1,,,,,,79,WORD,"ID",33,theory,THEORY,m,,,,,,0.337825097,-0.316836378,1,0,0,,0,189,189,18,1
,,,,,,,,,,,,,,,,,,5c538abae9813700018a4096,2020-11-25_16h35.19.847,lexical_decision_task_MP_exp2,2020.2.5,Linux armv8l,60,,0,0.382250298,-0.311285909,1,0,0,0.7488,button_right,0.7488,1,,,,,,240,WORD,UN,33,seldom,FOREST,m,,,,,,0.382250298,-0.311285909,1,0,0,,0,190,190,179,1
,,,,,,,,,,,,,,,,,,5c538abae9813700018a4096,2020-11-25_16h35.19.847,lexical_decision_task_MP_exp2,2020.2.5,Linux armv8l,60,,0,-0.233224148,-0.310360887,1,0,0,0.7867,button_left,0.7867,1,,,,,,461,NW,UN,33,absult,JUSTRE,z,,,,,,-0.233224148,-0.310360887,1,0,0,,0,191,191,400,1
,,,,,,,,,,,,,,,,,,5c538abae9813700018a4096,2020-11-25_16h35.19.847,lexical_decision_task_MP_exp2,2020.2.5,Linux armv8l,60,,0,-0.22396893,-0.293709564,1,0,0,0.7608,button_left,0.7608,1,,,,,,350,NW,"ID",33,nagurs,NAGURS,z,,,,,,-0.22396893,-0.293709564,1,0,0,,0,192,192,289,1
,,,,,,,,,,,,,,,,,,5c538abae9813700018a4096,2020-11-25_16h35.19.847,lexical_decision_task_MP_exp2,2020.2.5,Linux armv8l,60,,0,0.348005846,-0.301110162,1,0,0,0.9672,button_right,0.9672,1,,,,,,68,WORD,"ID",33,fumble,FUMBLE,m,,,,,,0.348005846,-0.301110162,1,0,0,,0,193,193,7,1
,,,,,,,,,,,,,,,,,,5c538abae9813700018a4096,2020-11-25_16h35.19.847,lexical_decision_task_MP_exp2,2020.2.5,Linux armv8l,60,,0,0.381324853,-0.277983432,1,0,0,0.9432,button_right,0.9432,1,,,,,,163,WORD,"ID",16,string,STRING,m,,,,,,0.381324853,-0.277983432,1,0,0,,0,194,194,102,1
,,,,,,,,,,,,,,,,,,5c538abae9813700018a4096,2020-11-25_16h35.19.847,lexical_decision_task_MP_exp2,2020.2.5,Linux armv8l,60,,0,0.329495409,-0.32053655,1,0,0,0.9747,button_right,0.9747,1,,,,,,137,WORD,"ID",16,finger,FINGER,m,,,,,,0.329495409,-0.32053655,1,0,0,,0,195,195,76,1
,,,,,,,,,,,,,,,,,,5c538abae9813700018a4096,2020-11-25_16h35.19.847,lexical_decision_task_MP_exp2,2020.2.5,Linux armv8l,60,,0,0.38595242,-0.266882494,1,0,0,0.7236,button_right,0.7236,1,,,,,,1,WORD,UN,16,ethnic,FRIGHT,m,,,,,,0.38595242,-0.266882494,1,0,0,,0,196,196,180,1
,,,,,,,,,,,,,,,,,,5c538abae9813700018a4096,2020-11-25_16h35.19.847,lexical_decision_task_MP_exp2,2020.2.5,Linux armv8l,60,,0,-0.234149679,-0.331637404,1,0,0,1.1722,button_left,1.1722,1,,,,,,312,NW,"ID",33,nerawl,NERAWL,z,,,,,,-0.234149679,-0.331637404,1,0,0,,0,197,197,251,1
,,,,,,,,,,,,,,,,,,5c538abae9813700018a4096,2020-11-25_16h35.19.847,lexical_decision_task_MP_exp2,2020.2.5,Linux armv8l,60,,0,-0.199905226,-0.237280273,1,0,0,0.8642,button_left,0.8642,1,,,,,,263,NW,UN,16,vackel,DOLICA,z,,,,,,-0.267468643,-0.332562425,1,0,0,,0,198,198,442,1
,,,,,,,,,,,,,,,,,,5c538abae9813700018a4096,2020-11-25_16h35.19.847,lexical_decision_task_MP_exp2,2020.2.5,Linux armv8l,60,,0,-0.243404982,-0.315911187,1,0,0,0.6104,button_left,0.6104,0,,,,,,172,WORD,"ID",16,patrol,PATROL,m,,,,,,-0.243404982,-0.315911187,1,0,0,,0,199,199,111,1
,,,,,,,,,,,,,,,,,,5c538abae9813700018a4096,2020-11-25_16h35.19.847,lexical_decision_task_MP_exp2,2020.2.5,Linux armv8l,60,,0,-0.201756287,-0.314061059,1,0,0,0.8112,button_left,0.8112,1,,,,,,415,NW,"ID",16,higsta,HIGSTA,z,,,,,,-0.201756287,-0.314061059,1,0,0,,0,200,200,354,1
,,,,,,,,,,,,,,,,,,5c538abae9813700018a4096,2020-11-25_16h35.19.847,lexical_decision_task_MP_exp2,2020.2.5,Linux armv8l,60,,0,-0.186947971,-0.318686422,1,0,0,1.1428,button_left,1.1428,1,,,,,,298,NW,UN,16,sturch,PIERGY,z,,,,,,-0.23692627,-0.281683689,1,0,0,,0,201,201,477,1
,,,,,,,,,,,,,,,,,,5c538abae9813700018a4096,2020-11-25_16h35.19.847,lexical_decision_task_MP_exp2,2020.2.5,Linux armv8l,60,,0,-0.344287279,-0.303885396,1,0,0,0.6661,button_left,0.6661,1,,,,,,256,NW,UN,16,veniod,INLORS,z,,,,,,-0.344287279,-0.303885396,1,0,0,,0,202,202,435,1
,,,,,,,,,,,,,,,,,,5c538abae9813700018a4096,2020-11-25_16h35.19.847,lexical_decision_task_MP_exp2,2020.2.5,Linux armv8l,60,,0,0.317463515,-0.328862169,1,0,0,0.8795,button_right,0.8795,1,,,,,,67,WORD,"ID",33,policy,POLICY,m,,,,,,0.317463515,-0.328862169,1,0,0,,0,203,203,6,1
,,,,,,,,,,,,,,,,,,5c538abae9813700018a4096,2020-11-25_16h35.19.847,lexical_decision_task_MP_exp2,2020.2.5,Linux armv8l,60,,0,0.341527218,-0.33533766,1,0,0,0.7426,button_right,0.7426,1,,,,,,126,WORD,"ID",16,enough,ENOUGH,m,,,,,,0.341527218,-0.33533766,1,0,0,,0,204,204,65,1
,,,,,,,,,,,,,,,,,,5c538abae9813700018a4096,2020-11-25_16h35.19.847,lexical_decision_task_MP_exp2,2020.2.5,Linux armv8l,60,,0,0.346154785,-0.290009393,1,0,0,0.6089,button_right,0.6089,1,,,,,,142,WORD,"ID",16,spruce,SPRUCE,m,,,,,,0.346154785,-0.290009393,1,0,0,,0,205,205,81,1
,,,,,,,,,,,,,,,,,,5c538abae9813700018a4096,2020-11-25_16h35.19.847,lexical_decision_task_MP_exp2,2020.2.5,Linux armv8l,60,,0,-0.273947355,-0.352914005,1,0,0,0.8237,button_left,0.8237,1,,,,,,407,NW,"ID",16,suiver,SUIVER,z,,,,,,-0.273947355,-0.352914005,1,0,0,,0,206,206,346,1
,,,,,,,,,,,,,,,,,,5c538abae9813700018a4096,2020-11-25_16h35.19.847,lexical_decision_task_MP_exp2,2020.2.5,Linux armv8l,60,,0,0.307282766,-0.352914005,1,0,0,0.7957,button_right,0.7957,1,,,,,,34,WORD,UN,16,socket,JUNGLE,m,,,,,,0.307282766,-0.352914005,1,0,0,,0,207,207,213,1
,,,,,,,,,,,,,,,,,,5c538abae9813700018a4096,2020-11-25_16h35.19.847,lexical_decision_task_MP_exp2,2020.2.5,Linux armv8l,60,,0,-0.291532262,-0.321461656,1,0,0,0.8778,button_left,0.8778,1,,,,,,384,NW,"ID",16,guesco,GUESCO,z,,,,,,-0.291532262,-0.321461656,1,0,0,,0,208,208,323,1
,,,,,,,,,,,,,,,,,,5c538abae9813700018a4096,2020-11-25_16h35.19.847,lexical_decision_task_MP_exp2,2020.2.5,Linux armv8l,60,,0,0.304506259,-0.32978736,1,0,0,1.11,button_right,1.11,1,,,,,,216,WORD,UN,33,liquor,BEHALF,m,,,,,,0.304506259,-0.32978736,1,0,0,,0,209,209,155,1
,,,,,,,,,,,,,,,,,,5c538abae9813700018a4096,2020-11-25_16h35.19.847,lexical_decision_task_MP_exp2,2020.2.5,Linux armv8l,60,,0,-0.143448215,-0.271507941,1,0,0,0.8295,button_left,0.8295,1,,,,,,380,NW,"ID",16,cavory,CAVORY,z,,,,,,-0.21193712,-0.387141588,1,0,0,,0,210,210,319,1
,,,,,,,,,,,,,,,,,,5c538abae9813700018a4096,2020-11-25_16h35.19.847,lexical_decision_task_MP_exp2,2020.2.5,Linux armv8l,60,,0,-0.23877733,-0.318686422,1,0,0,0.9448,button_left,0.9448,1,,,,,,475,NW,UN,33,josted,PEBRIC,z,,,,,,-0.23877733,-0.318686422,1,0,0,,0,211,211,414,1
,,,,,,,,,,,,,,,,,,5c538abae9813700018a4096,2020-11-25_16h35.19.847,lexical_decision_task_MP_exp2,2020.2.5,Linux armv8l,60,,0,-0.206383938,-0.30573544,1,0,0,0.7283,button_left,0.7283,1,,,,,,339,NW,"ID",33,fachow,FACHOW,z,,,,,,-0.206383938,-0.30573544,1,0,0,,0,212,212,278,1
,,,,,,,,,,,,,,,,,,5c538abae9813700018a4096,2020-11-25_16h35.19.847,lexical_decision_task_MP_exp2,2020.2.5,Linux armv8l,60,,0,-0.249883694,-0.344588386,1,0,0,1.2977,button_left,1.2977,1,,,,,,397,NW,"ID",16,camble,CAMBLE,z,,,,,,-0.249883694,-0.344588386,1,0,0,,0,213,213,336,1
,,,,,,,,,,,,,,,,,,5c538abae9813700018a4096,2020-11-25_16h35.19.847,lexical_decision_task_MP_exp2,2020.2.5,Linux armv8l,60,,0,0.316538069,-0.279833476,1,0,0,1.4666,button_right,1.4666,1,,,,,,37,WORD,UN,16,powder,INSULT,m,,,,,,0.316538069,-0.279833476,1,0,0,,0,214,214,216,1
,,,,,,,,,,,,,,,,,,5c538abae9813700018a4096,2020-11-25_16h35.19.847,lexical_decision_task_MP_exp2,2020.2.5,Linux armv8l,60,,0,-0.241553921,-0.27058292,1,0,0,0.6801,button_left,0.6801,1,,,,,,387,NW,"ID",16,gronce,GRONCE,z,,,,,,-0.241553921,-0.27058292,1,0,0,,0,215,215,326,1
,,,,,,,,,,,,,,,,,,5c538abae9813700018a4096,2020-11-25_16h35.19.847,lexical_decision_task_MP_exp2,2020.2.5,Linux armv8l,60,,0,0.526632351,-0.307585653,1,0,0,0.8122,button_right,0.8122,1,,,,,,199,WORD,UN,33,plague,INVOKE,m,,,,,,0.526632351,-0.307585653,1,0,0,,0,216,216,138,1
,,,,,,,,,,,,,,,,,,5c538abae9813700018a4096,2020-11-25_16h35.19.847,lexical_decision_task_MP_exp2,2020.2.5,Linux armv8l,60,,0,-0.230447557,-0.328862169,1,0,0,0.7465,button_left,0.7465,1,,,,,,264,NW,UN,16,distar,VACKEL,z,,,,,,-0.230447557,-0.328862169,1,0,0,,0,217,217,443,1
,,,,,,,,,,,,,,,,,,5c538abae9813700018a4096,2020-11-25_16h35.19.847,lexical_decision_task_MP_exp2,2020.2.5,Linux armv8l,60,,0,-0.278574965,-0.345513407,1,0,0,0.7935,button_left,0.7935,1,,,,,,331,NW,"ID",33,gilfew,GILFEW,z,,,,,,-0.278574965,-0.345513407,1,0,0,,0,218,218,270,1
,,,,,,,,,,,,,,,,,,5c538abae9813700018a4096,2020-11-25_16h35.19.847,lexical_decision_task_MP_exp2,2020.2.5,Linux armv8l,60,,0,-0.222117869,-0.339037916,1,0,0,0.4955,button_left,0.4955,0,,,,,,162,WORD,"ID",16,candle,CANDLE,m,,,,,,-0.222117869,-0.339037916,1,0,0,,0,219,219,101,1
,,,,,,,,,,,,,,,,,,5c538abae9813700018a4096,2020-11-25_16h35.19.847,lexical_decision_task_MP_exp2,2020.2.5,Linux armv8l,60,,0,-0.218415833,-0.321461656,1,0,0,0.566,button_left,0.566,0,,,,,,57,WORD,UN,16,danger,CHANGE,m,,,,,,-0.218415833,-0.321461656,1,0,0,,0,220,220,236,1
,,,,,,,,,,,,,,,,,,5c538abae9813700018a4096,2020-11-25_16h35.19.847,lexical_decision_task_MP_exp2,2020.2.5,Linux armv8l,60,,0,-0.222117869,-0.351988898,1,0,0,0.9433,button_left,0.9433,1,,,,,,244,NW,UN,16,anougs,EATRIC,z,,,,,,-0.222117869,-0.351988898,1,0,0,,0,221,221,423,1
,,,,,,,,,,,,,,,,,,5c538abae9813700018a4096,2020-11-25_16h35.19.847,lexical_decision_task_MP_exp2,2020.2.5,Linux armv8l,60,,0,0.500717841,-0.3177614,1,0,0,0.76,button_right,0.76,1,,,,,,112,WORD,"ID",33,breath,BREATH,m,,,,,,0.500717841,-0.3177614,1,0,0,,0,222,222,51,1
,,,,,,,,,,,,,,,,,,5c538abae9813700018a4096,2020-11-25_16h35.19.847,lexical_decision_task_MP_exp2,2020.2.5,Linux armv8l,60,,0,0.534962124,-0.28815918,1,0,0,0.593,button_right,0.593,1,,,,,,236,WORD,UN,33,grumpy,PIRATE,m,,,,,,0.534962124,-0.28815918,1,0,0,,0,223,223,175,1
,,,,,,,,,,,,,,,,,,5c538abae9813700018a4096,2020-11-25_16h35.19.847,lexical_decision_task_MP_exp2,2020.2.5,Linux armv8l,60,,0,0.561802504,-0.28260871,1,0,0,0.6244,button_right,0.6244,1,,,,,,223,WORD,UN,33,period,KIDNEY,m,,,,,,0.561802504,-0.28260871,1,0,0,,0,224,224,162,1
,,,,,,,,,,,,,,,,,,5c538abae9813700018a4096,2020-11-25_16h35.19.847,lexical_decision_task_MP_exp2,2020.2.5,Linux armv8l,60,,0,0.563653395,-0.294634671,1,0,0,0.4545,button_right,0.4545,0,,,,,,429,NW,UN,33,caroey,FUNTLE,z,,,,,,0.563653395,-0.294634671,1,0,0,,0,225,225,368,1
,,,,,,,,,,,,,,,,,,5c538abae9813700018a4096,2020-11-25_16h35.19.847,lexical_decision_task_MP_exp2,2020.2.5,Linux armv8l,60,,0,0.561802504,-0.279833476,1,0,0,0.5807,button_right,0.5807,1,,,,,,109,WORD,"ID",33,wonder,WONDER,m,,,,,,0.561802504,-0.279833476,1,0,0,,0,226,226,48,1
,,,,,,,,,,,,,,,,,,5c538abae9813700018a4096,2020-11-25_16h35.19.847,lexical_decision_task_MP_exp2,2020.2.5,Linux armv8l,60,,0,0.569206746,-0.287234073,1,0,0,0.6282,button_right,0.6282,1,,,,,,152,WORD,"ID",16,rocket,ROCKET,m,,,,,,0.569206746,-0.287234073,1,0,0,,0,227,227,91,1
,,,,,,,,,,,,,,,,,,5c538abae9813700018a4096,2020-11-25_16h35.19.847,lexical_decision_task_MP_exp2,2020.2.5,Linux armv8l,60,,0,-0.207309469,-0.30573544,1,0,0,0.9718,button_left,0.9718,1,,,,,,462,NW,UN,33,kispel,ABSULT,z,,,,,,-0.207309469,-0.30573544,1,0,0,,0,228,228,401,1
,,,,,,,,,,,,,,,,,,5c538abae9813700018a4096,2020-11-25_16h35.19.847,lexical_decision_task_MP_exp2,2020.2.5,Linux armv8l,60,,0,-0.449797228,-0.379740991,1,0,0,1.7134,button_left,1.7134,1,,,,,,372,NW,"ID",16,ramily,RAMILY,z,,,,,,-0.449797228,-0.379740991,1,0,0,,0,229,229,311,1
,,,,,,,,,,,,,,,,,,5c538abae9813700018a4096,2020-11-25_16h35.19.847,lexical_decision_task_MP_exp2,2020.2.5,Linux armv8l,60,,0,-0.446095106,-0.319611528,1,0,0,0.6122,button_left,0.6122,1,,,,,,279,NW,UN,16,curbol,CELOND,z,,,,,,-0.446095106,-0.319611528,1,0,0,,0,230,230,458,1
,,,,,,,,,,,,,,,,,,5c538abae9813700018a4096,2020-11-25_16h35.19.847,lexical_decision_task_MP_exp2,2020.2.5,Linux armv8l,60,,0,0.543291897,-0.348288642,1,0,0,0.7173,button_right,0.7173,1,,,,,,170,WORD,"ID",16,pounce,POUNCE,m,,,,,,0.543291897,-0.348288642,1,0,0,,0,231,231,109,1
,,,,,,,,,,,,,,,,,,5c538abae9813700018a4096,2020-11-25_16h35.19.847,lexical_decision_task_MP_exp2,2020.2.5,Linux armv8l,60,,0,-0.472935359,-0.306660546,1,0,0,0.7371,button_left,0.7371,1,,,,,,293,NW,UN,16,inhort,SWANCE,z,,,,,,-0.472935359,-0.306660546,1,0,0,,0,232,232,472,1
,,,,,,,,,,,,,,,,,,5c538abae9813700018a4096,2020-11-25_16h35.19.847,lexical_decision_task_MP_exp2,2020.2.5,Linux armv8l,60,,0,0.558100382,-0.32978736,1,0,0,0.6225,button_right,0.6225,1,,,,,,22,WORD,UN,16,wealth,JOCKEY,m,,,,,,0.558100382,-0.32978736,1,0,0,,0,233,233,201,1
,,,,,,,,,,,,,,,,,,5c538abae9813700018a4096,2020-11-25_16h35.19.847,lexical_decision_task_MP_exp2,2020.2.5,Linux armv8l,60,,0,-0.469233237,-0.313136037,1,0,0,0.662,button_left,0.662,1,,,,,,404,NW,"ID",16,cluirm,CLUIRM,z,,,,,,-0.469233237,-0.313136037,1,0,0,,0,234,234,343,1
,,,,,,,,,,,,,,,,,,5c538abae9813700018a4096,2020-11-25_16h35.19.847,lexical_decision_task_MP_exp2,2020.2.5,Linux armv8l,60,,0,0.551621501,-0.327937147,1,0,0,0.8785,button_right,0.8785,1,,,,,,200,WORD,UN,33,admire,BEACON,m,,,,,,0.551621501,-0.327937147,1,0,0,,0,235,235,139,1
,,,,,,,,,,,,,,,,,,5c538abae9813700018a4096,2020-11-25_16h35.19.847,lexical_decision_task_MP_exp2,2020.2.5,Linux armv8l,60,,0,0.55069614,-0.316836378,1,0,0,0.6489,button_right,0.6489,1,,,,,,89,WORD,"ID",33,permit,PERMIT,m,,,,,,0.55069614,-0.316836378,1,0,0,,0,236,236,28,1
,,,,,,,,,,,,,,,,,,5c538abae9813700018a4096,2020-11-25_16h35.19.847,lexical_decision_task_MP_exp2,2020.2.5,Linux armv8l,60,,0,0.55069614,-0.321461656,1,0,0,0.5803,button_right,0.5803,1,,,,,,159,WORD,"ID",16,detail,DETAIL,m,,,,,,0.55069614,-0.321461656,1,0,0,,0,237,237,98,1
,,,,,,,,,,,,,,,,,,5c538abae9813700018a4096,2020-11-25_16h35.19.847,lexical_decision_task_MP_exp2,2020.2.5,Linux armv8l,60,,0,0.546994019,-0.322386678,1,0,0,1.092,button_right,1.092,1,,,,,,56,WORD,UN,16,change,AMBUSH,m,,,,,,0.546994019,-0.322386678,1,0,0,,0,238,238,235,1
,,,,,,,,,,,,,,,,,,5c538abae9813700018a4096,2020-11-25_16h35.19.847,lexical_decision_task_MP_exp2,2020.2.5,Linux armv8l,60,,0,0.557174683,-0.318686422,1,0,0,0.5586,button_right,0.5586,1,,,,,,207,WORD,UN,33,hockey,WREATH,m,,,,,,0.557174683,-0.318686422,1,0,0,,0,239,239,146,1
,,,,,,,,,,,,,,,,,,5c538abae9813700018a4096,2020-11-25_16h35.19.847,lexical_decision_task_MP_exp2,2020.2.5,Linux armv8l,60,,0,0.548845079,-0.322386678,1,0,0,0.6155,button_right,0.6155,0,,,,,,348,NW,"ID",33,dumple,DUMPLE,z,,,,,,0.548845079,-0.322386678,1,0,0,,0,240,240,287,1
,,,,,,,,,,,,,,,,,,5c538abae9813700018a4096,2020-11-25_16h35.19.847,lexical_decision_task_MP_exp2,2020.2.5,Linux armv8l,60,,0,0.558100382,-0.322386678,1,0,0,0.5924,button_right,0.5924,0,,,,,,342,NW,"ID",33,randow,RANDOW,z,,,,,,0.558100382,-0.322386678,1,0,0,,0,241,241,281,1
,,,,,,,,,,,,,,,,,,5c538abae9813700018a4096,2020-11-25_16h35.19.847,lexical_decision_task_MP_exp2,2020.2.5,Linux armv8l,60,,0,0.547919379,-0.315911187,1,0,0,0.6789,button_right,0.6789,1,,,,,,64,WORD,"ID",33,throne,THRONE,m,,,,,,0.547919379,-0.315911187,1,0,0,,0,242,242,3,1
,,,,,,,,,,,,,,,,,,5c538abae9813700018a4096,2020-11-25_16h35.19.847,lexical_decision_task_MP_exp2,2020.2.5,Linux armv8l,60,,0,0.551621501,-0.345513407,1,0,0,0.6745,button_right,0.6745,1,,,,,,33,WORD,UN,16,jungle,BUTLER,m,,,,,,0.551621501,-0.345513407,1,0,0,,0,243,243,212,1
,,,,,,,,,,,,,,,,,,5c538abae9813700018a4096,2020-11-25_16h35.19.847,lexical_decision_task_MP_exp2,2020.2.5,Linux armv8l,60,,0,-0.468307707,-0.343663364,1,0,0,0.9518,button_left,0.9518,1,,,,,,395,NW,"ID",16,colury,COLURY,z,,,,,,-0.468307707,-0.343663364,1,0,0,,0,244,244,334,1
,,,,,,,,,,,,,,,,,,5c538abae9813700018a4096,2020-11-25_16h35.19.847,lexical_decision_task_MP_exp2,2020.2.5,Linux armv8l,60,,0,-0.474786419,-0.318686422,1,0,0,1.0944,button_left,1.0944,1,,,,,,258,NW,UN,16,soudal,POLUTH,z,,,,,,-0.474786419,-0.318686422,1,0,0,,0,245,245,437,1
,,,,,,,,,,,,,,,,,,5c538abae9813700018a4096,2020-11-25_16h35.19.847,lexical_decision_task_MP_exp2,2020.2.5,Linux armv8l,60,,0,-0.478488498,-0.28815918,1,0,0,0.6122,button_left,0.6122,1,,,,,,466,NW,UN,33,robuly,HOCITE,z,,,,,,-0.478488498,-0.28815918,1,0,0,,0,246,246,405,1
,,,,,,,,,,,,,,,,,,5c538abae9813700018a4096,2020-11-25_16h35.19.847,lexical_decision_task_MP_exp2,2020.2.5,Linux armv8l,60,,0,-0.492371368,-0.344588386,1,0,0,0.7288,button_left,0.7288,1,,,,,,271,NW,UN,16,damilt,AUBRID,z,,,,,,-0.492371368,-0.344588386,1,0,0,,0,247,247,450,1
,,,,,,,,,,,,,,,,,,5c538abae9813700018a4096,2020-11-25_16h35.19.847,lexical_decision_task_MP_exp2,2020.2.5,Linux armv8l,60,,0,0.52293023,-0.359389496,1,0,0,0.7107,button_right,0.7107,1,,,,,,61,WORD,"ID",33,ponder,PONDER,m,,,,,,0.52293023,-0.359389496,1,0,0,,0,248,248,0,1
,,,,,,,,,,,,,,,,,,5c538abae9813700018a4096,2020-11-25_16h35.19.847,lexical_decision_task_MP_exp2,2020.2.5,Linux armv8l,60,,0,-0.409074105,-0.299259949,1,0,0,0.7428,button_left,0.7428,1,,,,,,247,NW,UN,16,strole,BLARGE,z,,,,,,-0.409074105,-0.299259949,1,0,0,,0,249,249,426,1
,,,,,,,,,,,,,,,,,,5c538abae9813700018a4096,2020-11-25_16h35.19.847,lexical_decision_task_MP_exp2,2020.2.5,Linux armv8l,60,,0,0.543291897,-0.302035183,1,0,0,0.778,button_right,0.778,1,,,,,,202,WORD,UN,33,phrase,FACTOR,m,,,,,,0.543291897,-0.302035183,1,0,0,,0,250,250,141,1
,,,,,,,,,,,,,,,,,,5c538abae9813700018a4096,2020-11-25_16h35.19.847,lexical_decision_task_MP_exp2,2020.2.5,Linux armv8l,60,,0,-0.374829653,-0.284458923,1,0,0,0.7445,button_left,0.7445,1,,,,,,268,NW,UN,16,orchet,PACKES,z,,,,,,-0.374829653,-0.284458923,1,0,0,,0,251,251,447,1
,,,,,,,,,,,,,,,,,,5c538abae9813700018a4096,2020-11-25_16h35.19.847,lexical_decision_task_MP_exp2,2020.2.5,Linux armv8l,60,,0,-0.467382177,-0.257631938,1,0,0,1.0637,button_left,1.0637,1,,,,,,413,NW,"ID",16,equats,EQUATS,z,,,,,,-0.467382177,-0.257631938,1,0,0,,0,252,252,352,1
,,,,,,,,,,,,,,,,,,5c538abae9813700018a4096,2020-11-25_16h35.19.847,lexical_decision_task_MP_exp2,2020.2.5,Linux armv8l,60,,0,-0.416478305,-0.296484714,1,0,0,0.8616,button_left,0.8616,1,,,,,,360,NW,"ID",33,desory,DESORY,z,,,,,,-0.416478305,-0.296484714,1,0,0,,0,253,253,299,1
,,,,,,,,,,,,,,,,,,5c538abae9813700018a4096,2020-11-25_16h35.19.847,lexical_decision_task_MP_exp2,2020.2.5,Linux armv8l,60,,0,0.563653395,-0.30573544,1,0,0,0.9783,button_right,0.9783,1,,,,,,3,WORD,UN,16,trench,KNIGHT,m,,,,,,0.563653395,-0.30573544,1,0,0,,0,254,254,182,1
,,,,,,,,,,,,,,,,,,5c538abae9813700018a4096,2020-11-25_16h35.19.847,lexical_decision_task_MP_exp2,2020.2.5,Linux armv8l,60,,0,-0.447020637,-0.300185055,1,0,0,0.6642,button_left,0.6642,1,,,,,,315,NW,"ID",33,laston,LASTON,z,,,,,,-0.447020637,-0.300185055,1,0,0,,0,255,255,254,1
,,,,,,,,,,,,,,,,,,5c538abae9813700018a4096,2020-11-25_16h35.19.847,lexical_decision_task_MP_exp2,2020.2.5,Linux armv8l,60,,0,0.568281047,-0.291859436,1,0,0,0.8591,button_right,0.8591,1,,,,,,209,WORD,UN,33,monkey,SEARCH,m,,,,,,0.568281047,-0.291859436,1,0,0,,0,256,256,148,1
,,,,,,,,,,,,,,,,,,5c538abae9813700018a4096,2020-11-25_16h35.19.847,lexical_decision_task_MP_exp2,2020.2.5,Linux armv8l,60,,0,-0.418329366,-0.330712382,1,0,0,0.9772,button_left,0.9772,1,,,,,,303,NW,"ID",33,fiream,FIREAM,z,,,,,,-0.418329366,-0.330712382,1,0,0,,0,257,257,242,1
,,,,,,,,,,,,,,,,,,5c538abae9813700018a4096,2020-11-25_16h35.19.847,lexical_decision_task_MP_exp2,2020.2.5,Linux armv8l,60,,0,0.543291897,-0.332562425,1,0,0,0.8825,button_right,0.8825,1,,,,,,71,WORD,"ID",33,garden,GARDEN,m,,,,,,0.543291897,-0.332562425,1,0,0,,0,258,258,10,1
,,,,,,,,,,,,,,,,,,5c538abae9813700018a4096,2020-11-25_16h35.19.847,lexical_decision_task_MP_exp2,2020.2.5,Linux armv8l,60,,0,0.534036594,-0.34736362,1,0,0,0.8422,button_right,0.8422,1,,,,,,127,WORD,"ID",16,castle,CASTLE,m,,,,,,0.534036594,-0.34736362,1,0,0,,0,259,259,66,1
,,,,,,,,,,,,,,,,,,5c538abae9813700018a4096,2020-11-25_16h35.19.847,lexical_decision_task_MP_exp2,2020.2.5,Linux armv8l,60,,0,0.559025743,-0.334412638,1,0,0,0.7604,button_right,0.7604,1,,,,,,204,WORD,UN,33,lounge,BURDEN,m,,,,,,0.559025743,-0.334412638,1,0,0,,0,260,260,143,1
,,,,,,,,,,,,,,,,,,5c538abae9813700018a4096,2020-11-25_16h35.19.847,lexical_decision_task_MP_exp2,2020.2.5,Linux armv8l,60,,0,0.552547201,-0.327012041,1,0,0,0.5811,button_right,0.5811,0,,,,,,325,NW,"ID",33,thruse,THRUSE,z,,,,,,0.552547201,-0.327012041,1,0,0,,0,261,261,264,1
,,,,,,,,,,,,,,,,,,5c538abae9813700018a4096,2020-11-25_16h35.19.847,lexical_decision_task_MP_exp2,2020.2.5,Linux armv8l,60,,0,0.529409112,-0.327012041,1,0,0,0.5981,button_right,0.5981,1,,,,,,151,WORD,"ID",16,mystic,MYSTIC,m,,,,,,0.529409112,-0.327012041,1,0,0,,0,262,262,90,1
,,,,,,,,,,,,,,,,,,5c538abae9813700018a4096,2020-11-25_16h35.19.847,lexical_decision_task_MP_exp2,2020.2.5,Linux armv8l,60,,0,0.493313599,-0.353839111,1,0,0,0.5274,button_right,0.5274,1,,,,,,173,WORD,"ID",16,shower,SHOWER,m,,,,,,0.493313599,-0.353839111,1,0,0,,0,263,263,112,1
,,,,,,,,,,,,,,,,,,5c538abae9813700018a4096,2020-11-25_16h35.19.847,lexical_decision_task_MP_exp2,2020.2.5,Linux armv8l,60,,0,0.510898505,-0.360314602,1,0,0,0.7119,button_right,0.7119,1,,,,,,179,WORD,"ID",16,basket,BASKET,m,,,,,,0.510898505,-0.360314602,1,0,0,,0,264,264,118,1
,,,,,,,,,,,,,,,,,,5c538abae9813700018a4096,2020-11-25_16h35.19.847,lexical_decision_task_MP_exp2,2020.2.5,Linux armv8l,60,,0,0.518302748,-0.339037916,1,0,0,0.7593,button_right,0.7593,1,,,,,,234,WORD,UN,33,poster,CLUMSY,m,,,,,,0.518302748,-0.339037916,1,0,0,,0,265,265,173,1
,,,,,,,,,,,,,,,,,,5c538abae9813700018a4096,2020-11-25_16h35.19.847,lexical_decision_task_MP_exp2,2020.2.5,Linux armv8l,60,,0,0.513674927,-0.327937147,1,0,0,1.0417,button_right,1.0417,1,,,,,,16,WORD,UN,16,charge,FAUCET,m,,,,,,0.513674927,-0.327937147,1,0,0,,0,266,266,195,1
,,,,,,,,,,,,,,,,,,5c538abae9813700018a4096,2020-11-25_16h35.19.847,lexical_decision_task_MP_exp2,2020.2.5,Linux armv8l,60,,0,0.513674927,-0.314061059,1,0,0,0.5563,button_right,0.5563,1,,,,,,210,WORD,UN,33,infect,MONKEY,m,,,,,,0.513674927,-0.314061059,1,0,0,,0,267,267,149,1
,,,,,,,,,,,,,,,,,,5c538abae9813700018a4096,2020-11-25_16h35.19.847,lexical_decision_task_MP_exp2,2020.2.5,Linux armv8l,60,,0,-0.493296856,-0.331637404,1,0,0,1.1402,button_left,1.1402,1,,,,,,319,NW,"ID",33,zomber,ZOMBER,z,,,,,,-0.493296856,-0.331637404,1,0,0,,0,268,268,258,1
,,,,,,,,,,,,,,,,,,5c538abae9813700018a4096,2020-11-25_16h35.19.847,lexical_decision_task_MP_exp2,2020.2.5,Linux armv8l,60,,0,0.521079169,-0.3177614,1,0,0,0.6631,button_right,0.6631,1,,,,,,84,WORD,"ID",33,mortal,MORTAL,m,,,,,,0.521079169,-0.3177614,1,0,0,,0,269,269,23,1
,,,,,,,,,,,,,,,,,,5c538abae9813700018a4096,2020-11-25_16h35.19.847,lexical_decision_task_MP_exp2,2020.2.5,Linux armv8l,60,,0,0.52385576,-0.315911187,1,0,0,0.8433,button_right,0.8433,0,,,,,,284,NW,UN,16,prudge,SHAPLE,z,,,,,,0.52385576,-0.315911187,1,0,0,,0,270,270,463,1
,,,,,,,,,,,,,,,,,,5c538abae9813700018a4096,2020-11-25_16h35.19.847,lexical_decision_task_MP_exp2,2020.2.5,Linux armv8l,60,,0,0.52385576,-0.306660546,1,0,0,0.7437,button_right,0.7437,1,,,,,,13,WORD,UN,16,almost,STRIVE,m,,,,,,0.52385576,-0.306660546,1,0,0,,0,271,271,192,1
,,,,,,,,,,,,,,,,,,5c538abae9813700018a4096,2020-11-25_16h35.19.847,lexical_decision_task_MP_exp2,2020.2.5,Linux armv8l,60,,0,0.525706991,-0.306660546,1,0,0,0.6652,button_right,0.6652,1,,,,,,77,WORD,"ID",33,racket,RACKET,m,,,,,,0.525706991,-0.306660546,1,0,0,,0,272,272,16,1
,,,,,,,,,,,,,,,,,,5c538abae9813700018a4096,2020-11-25_16h35.19.847,lexical_decision_task_MP_exp2,2020.2.5,Linux armv8l,60,,0,-0.494222429,-0.340888129,1,0,0,1.062,button_left,1.062,1,,,,,,424,NW,UN,33,frudge,PRAILE,z,,,,,,-0.494222429,-0.340888129,1,0,0,,0,273,273,363,1
,,,,,,,,,,,,,,,,,,5c538abae9813700018a4096,2020-11-25_16h35.19.847,lexical_decision_task_MP_exp2,2020.2.5,Linux armv8l,60,,0,0.52385576,-0.314986165,1,0,0,0.8463,button_right,0.8463,1,,,,,,164,WORD,"ID",16,market,MARKET,m,,,,,,0.52385576,-0.314986165,1,0,0,,0,274,274,103,1
,,,,,,,,,,,,,,,,,,5c538abae9813700018a4096,2020-11-25_16h35.19.847,lexical_decision_task_MP_exp2,2020.2.5,Linux armv8l,60,,0,0.530334473,-0.303885396,1,0,0,0.6515,button_right,0.6515,1,,,,,,229,WORD,UN,33,fringe,MOTHER,m,,,,,,0.530334473,-0.303885396,1,0,0,,0,275,275,168,1
,,,,,,,,,,,,,,,,,,5c538abae9813700018a4096,2020-11-25_16h35.19.847,lexical_decision_task_MP_exp2,2020.2.5,Linux armv8l,60,,0,0.529409112,-0.30573544,1,0,0,0.5428,button_right,0.5428,1,,,,,,153,WORD,"ID",16,behold,BEHOLD,m,,,,,,0.529409112,-0.30573544,1,0,0,,0,276,276,92,1
,,,,,,,,,,,,,,,,,,5c538abae9813700018a4096,2020-11-25_16h35.19.847,lexical_decision_task_MP_exp2,2020.2.5,Linux armv8l,60,,0,0.533111233,-0.306660546,1,0,0,0.6135,button_right,0.6135,1,,,,,,124,WORD,"ID",16,blouse,BLOUSE,m,,,,,,0.533111233,-0.306660546,1,0,0,,0,277,277,63,1
,,,,,,,,,,,,,,,,,,5c538abae9813700018a4096,2020-11-25_16h35.19.847,lexical_decision_task_MP_exp2,2020.2.5,Linux armv8l,60,,0,0.534036594,-0.304810418,1,0,0,0.5327,button_right,0.5327,1,,,,,,51,WORD,UN,16,impose,HUNGRY,m,,,,,,0.534036594,-0.304810418,1,0,0,,0,278,278,230,1
,,,,,,,,,,,,,,,,,,5c538abae9813700018a4096,2020-11-25_16h35.19.847,lexical_decision_task_MP_exp2,2020.2.5,Linux armv8l,60,,0,0.534962124,-0.309435696,1,0,0,1.0446,button_right,1.0446,1,,,,,,167,WORD,"ID",16,design,DESIGN,m,,,,,,0.534962124,-0.309435696,1,0,0,,0,279,279,106,1
,,,,,,,,,,,,,,,,,,5c538abae9813700018a4096,2020-11-25_16h35.19.847,lexical_decision_task_MP_exp2,2020.2.5,Linux armv8l,60,,0,0.532185533,-0.308510674,1,0,0,0.9304,button_right,0.9304,1,,,,,,175,WORD,"ID",16,fabric,FABRIC,m,,,,,,0.532185533,-0.308510674,1,0,0,,0,280,280,114,1
,,,,,,,,,,,,,,,,,,5c538abae9813700018a4096,2020-11-25_16h35.19.847,lexical_decision_task_MP_exp2,2020.2.5,Linux armv8l,60,,0,0.533111233,-0.309435696,1,0,0,0.5981,button_right,0.5981,1,,,,,,136,WORD,"ID",16,bleach,BLEACH,m,,,,,,0.533111233,-0.309435696,1,0,0,,0,281,281,75,1
,,,,,,,,,,,,,,,,,,5c538abae9813700018a4096,2020-11-25_16h35.19.847,lexical_decision_task_MP_exp2,2020.2.5,Linux armv8l,60,,0,-0.520137193,-0.303885396,1,0,0,0.9002,button_left,0.9002,1,,,,,,367,NW,"ID",16,slique,SLIQUE,z,,,,,,-0.520137193,-0.303885396,1,0,0,,0,282,282,306,1
,,,,,,,,,,,,,,,,,,5c538abae9813700018a4096,2020-11-25_16h35.19.847,lexical_decision_task_MP_exp2,2020.2.5,Linux armv8l,60,,0,0.530334473,-0.318686422,1,0,0,0.88,button_right,0.88,0,,,,,,455,NW,UN,33,broget,TONDLE,z,,,,,,0.530334473,-0.318686422,1,0,0,,0,283,283,394,1
,,,,,,,,,,,,,,,,,,5c538abae9813700018a4096,2020-11-25_16h35.19.847,lexical_decision_task_MP_exp2,2020.2.5,Linux armv8l,60,,0,-0.509956402,-0.319611528,1,0,0,0.9329,button_left,0.9329,1,,,,,,313,NW,"ID",33,paurse,PAURSE,z,,,,,,-0.509956402,-0.319611528,1,0,0,,0,284,284,252,1
,,,,,,,,,,,,,,,,,,5c538abae9813700018a4096,2020-11-25_16h35.19.847,lexical_decision_task_MP_exp2,2020.2.5,Linux armv8l,60,,0,0.542366367,-0.290009393,1,0,0,0.7115,button_right,0.7115,1,,,,,,128,WORD,"ID",16,senior,SENIOR,m,,,,,,0.542366367,-0.290009393,1,0,0,,0,285,285,67,1
,,,,,,,,,,,,,,,,,,5c538abae9813700018a4096,2020-11-25_16h35.19.847,lexical_decision_task_MP_exp2,2020.2.5,Linux armv8l,60,,0,0.542366367,-0.28815918,1,0,0,0.8255,button_right,0.8255,1,,,,,,117,WORD,"ID",33,branch,BRANCH,m,,,,,,0.542366367,-0.28815918,1,0,0,,0,286,286,56,1
,,,,,,,,,,,,,,,,,,5c538abae9813700018a4096,2020-11-25_16h35.19.847,lexical_decision_task_MP_exp2,2020.2.5,Linux armv8l,60,,0,0.540515476,-0.28815918,1,0,0,1.1471,button_right,1.1471,1,,,,,,218,WORD,UN,33,bucket,SHRINK,m,,,,,,0.540515476,-0.28815918,1,0,0,,0,287,287,157,1
,,,,,,,,,,,,,,,,,,5c538abae9813700018a4096,2020-11-25_16h35.19.847,lexical_decision_task_MP_exp2,2020.2.5,Linux armv8l,60,,0,0.545142958,-0.284458923,1,0,0,1.113,button_right,1.113,1,,,,,,114,WORD,"ID",33,placid,PLACID,m,,,,,,0.545142958,-0.284458923,1,0,0,,0,288,288,53,1
,,,,,,,,,,,,,,,,,,5c538abae9813700018a4096,2020-11-25_16h35.19.847,lexical_decision_task_MP_exp2,2020.2.5,Linux armv8l,60,,0,0.477579414,-0.328862169,1,0,0,0.7297,button_right,0.7297,0,,,,,,401,NW,"ID",16,mustil,MUSTIL,z,,,,,,0.477579414,-0.328862169,1,0,0,,0,289,289,340,1
,,,,,,,,,,,,,,,,,,5c538abae9813700018a4096,2020-11-25_16h35.19.847,lexical_decision_task_MP_exp2,2020.2.5,Linux armv8l,60,,0,0.487760247,-0.314986165,1,0,0,1.3116,button_right,1.3116,1,,,,,,193,WORD,UN,33,mildew,OBJECT,m,,,,,,0.487760247,-0.314986165,1,0,0,,0,290,290,132,1
,,,,,,,,,,,,,,,,,,5c538abae9813700018a4096,2020-11-25_16h35.19.847,lexical_decision_task_MP_exp2,2020.2.5,Linux armv8l,60,,0,0.49516449,-0.298334927,1,0,0,0.8796,button_right,0.8796,1,,,,,,95,WORD,"ID",33,thread,THREAD,m,,,,,,0.49516449,-0.298334927,1,0,0,,0,291,291,34,1
,,,,,,,,,,,,,,,,,,5c538abae9813700018a4096,2020-11-25_16h35.19.847,lexical_decision_task_MP_exp2,2020.2.5,Linux armv8l,60,,0,-0.396116681,-0.301110162,1,0,0,0.713,button_left,0.713,1,,,,,,411,NW,"ID",16,orchin,ORCHIN,z,,,,,,-0.396116681,-0.301110162,1,0,0,,0,292,292,350,1
,,,,,,,,,,,,,,,,,,5c538abae9813700018a4096,2020-11-25_16h35.19.847,lexical_decision_task_MP_exp2,2020.2.5,Linux armv8l,60,,0,-0.391489071,-0.294634671,1,0,0,0.6648,button_left,0.6648,1,,,,,,383,NW,"ID",16,aungre,AUNGRE,z,,,,,,-0.391489071,-0.294634671,1,0,0,,0,293,293,322,1
,,,,,,,,,,,,,,,,,,5c538abae9813700018a4096,2020-11-25_16h35.19.847,lexical_decision_task_MP_exp2,2020.2.5,Linux armv8l,60,,0,-0.389638011,-0.280758582,1,0,0,0.5852,button_left,0.5852,1,,,,,,460,NW,UN,33,justre,MINGAR,z,,,,,,-0.389638011,-0.280758582,1,0,0,,0,294,294,399,1
,,,,,,,,,,,,,,,,,,5c538abae9813700018a4096,2020-11-25_16h35.19.847,lexical_decision_task_MP_exp2,2020.2.5,Linux armv8l,60,,0,0.504419963,-0.324236891,1,0,0,0.7341,button_right,0.7341,1,,,,,,237,WORD,UN,33,glance,POSTER,m,,,,,,0.504419963,-0.324236891,1,0,0,,0,295,295,176,1
,,,,,,,,,,,,,,,,,,5c538abae9813700018a4096,2020-11-25_16h35.19.847,lexical_decision_task_MP_exp2,2020.2.5,Linux armv8l,60,,0,0.515525987,-0.316836378,1,0,0,0.7933,button_right,0.7933,0,,,,,,324,NW,"ID",33,steikh,STEIKH,z,,,,,,0.515525987,-0.316836378,1,0,0,,0,296,296,263,1
,,,,,,,,,,,,,,,,,,5c538abae9813700018a4096,2020-11-25_16h35.19.847,lexical_decision_task_MP_exp2,2020.2.5,Linux armv8l,60,,0,-0.385010444,-0.289084201,1,0,0,0.5449,button_left,0.5449,0,,,,,,97,WORD,"ID",33,client,CLIENT,m,,,,,,-0.385010444,-0.289084201,1,0,0,,0,297,297,36,1
,,,,,,,,,,,,,,,,,,5c538abae9813700018a4096,2020-11-25_16h35.19.847,lexical_decision_task_MP_exp2,2020.2.5,Linux armv8l,60,,0,-0.377606201,-0.293709564,1,0,0,0.7143,button_left,0.7143,1,,,,,,453,NW,UN,33,scouge,BOLVIS,z,,,,,,-0.377606201,-0.293709564,1,0,0,,0,298,298,392,1
,,,,,,,,,,,,,,,,,,5c538abae9813700018a4096,2020-11-25_16h35.19.847,lexical_decision_task_MP_exp2,2020.2.5,Linux armv8l,60,,0,0.513674927,-0.314061059,1,0,0,0.7173,button_right,0.7173,1,,,,,,215,WORD,UN,33,lumber,PHOBIA,m,,,,,,0.513674927,-0.314061059,1,0,0,,0,299,299,154,1
,,,,,,,,,,,,,,,,,,5c538abae9813700018a4096,2020-11-25_16h35.19.847,lexical_decision_task_MP_exp2,2020.2.5,Linux armv8l,60,,0,-0.380382792,-0.295559692,1,0,0,1.0437,button_left,1.0437,1,,,,,,472,NW,UN,33,gorbie,CIGNEY,z,,,,,,-0.380382792,-0.295559692,1,0,0,,0,300,300,411,1
,,,,,,,,,,,,,,,,,,5c538abae9813700018a4096,2020-11-25_16h35.19.847,lexical_decision_task_MP_exp2,2020.2.5,Linux armv8l,60,,0,0.505345323,-0.310360887,1,0,0,1.5372,button_right,1.5372,1,,,,,,213,WORD,UN,33,intake,SQUEAL,m,,,,,,0.505345323,-0.310360887,1,0,0,,0,301,301,152,1
,,,,,,,,,,,,,,,,,,5c538abae9813700018a4096,2020-11-25_16h35.19.847,lexical_decision_task_MP_exp2,2020.2.5,Linux armv8l,60,,0,0.510898505,-0.309435696,1,0,0,0.7278,button_right,0.7278,1,,,,,,103,WORD,"ID",33,bounce,BOUNCE,m,,,,,,0.510898505,-0.309435696,1,0,0,,0,302,302,42,1
,,,,,,,,,,,,,,,,,,5c538abae9813700018a4096,2020-11-25_16h35.19.847,lexical_decision_task_MP_exp2,2020.2.5,Linux armv8l,60,,0,-0.425733524,-0.324236891,1,0,0,0.8118,button_left,0.8118,1,,,,,,396,NW,"ID",16,flengy,FLENGY,z,,,,,,-0.425733524,-0.324236891,1,0,0,,0,303,303,335,1
,,,,,,,,,,,,,,,,,,5c538abae9813700018a4096,2020-11-25_16h35.19.847,lexical_decision_task_MP_exp2,2020.2.5,Linux armv8l,60,,0,-0.429435645,-0.292784458,1,0,0,0.6948,button_left,0.6948,1,,,,,,398,NW,"ID",16,blunde,BLUNDE,z,,,,,,-0.429435645,-0.292784458,1,0,0,,0,304,304,337,1
,,,,,,,,,,,,,,,,,,5c538abae9813700018a4096,2020-11-25_16h35.19.847,lexical_decision_task_MP_exp2,2020.2.5,Linux armv8l,60,,0,-0.413701714,-0.291859436,1,0,0,0.5161,button_left,0.5161,0,,,,,,115,WORD,"ID",33,guitar,GUITAR,m,,,,,,-0.413701714,-0.291859436,1,0,0,,0,305,305,54,1
,,,,,,,,,,,,,,,,,,5c538abae9813700018a4096,2020-11-25_16h35.19.847,lexical_decision_task_MP_exp2,2020.2.5,Linux armv8l,60,,0,0.522004869,-0.324236891,1,0,0,0.7936,button_right,0.7936,1,,,,,,139,WORD,"ID",16,debris,DEBRIS,m,,,,,,0.522004869,-0.324236891,1,0,0,,0,306,306,78,1
,,,,,,,,,,,,,,,,,,5c538abae9813700018a4096,2020-11-25_16h35.19.847,lexical_decision_task_MP_exp2,2020.2.5,Linux armv8l,60,,0,0.527557882,-0.301110162,1,0,0,0.6452,button_right,0.6452,1,,,,,,27,WORD,UN,16,comedy,SCREAM,m,,,,,,0.527557882,-0.301110162,1,0,0,,0,307,307,206,1
,,,,,,,,,,,,,,,,,,5c538abae9813700018a4096,2020-11-25_16h35.19.847,lexical_decision_task_MP_exp2,2020.2.5,Linux armv8l,60,,0,-0.410925123,-0.30573544,1,0,0,0.7237,button_left,0.7237,1,,,,,,428,NW,UN,33,funtle,TANDLY,z,,,,,,-0.410925123,-0.30573544,1,0,0,,0,308,308,367,1
,,,,,,,,,,,,,,,,,,5c538abae9813700018a4096,2020-11-25_16h35.19.847,lexical_decision_task_MP_exp2,2020.2.5,Linux armv8l,60,,0,-0.399818802,-0.323311869,1,0,0,0.8617,button_left,0.8617,1,,,,,,377,NW,"ID",16,injore,INJORE,z,,,,,,-0.399818802,-0.323311869,1,0,0,,0,309,309,316,1
,,,,,,,,,,,,,,,,,,5c538abae9813700018a4096,2020-11-25_16h35.19.847,lexical_decision_task_MP_exp2,2020.2.5,Linux armv8l,60,,0,-0.387787035,-0.298334927,1,0,0,0.3912,button_left,0.3912,0,,,,,,222,WORD,UN,33,export,HINDER,m,,,,,,-0.387787035,-0.298334927,1,0,0,,0,310,310,161,1
,,,,,,,,,,,,,,,,,,5c538abae9813700018a4096,2020-11-25_16h35.19.847,lexical_decision_task_MP_exp2,2020.2.5,Linux armv8l,60,,0,-0.405371984,-0.290009393,1,0,0,0.4736,button_left,0.4736,0,,,,,,104,WORD,"ID",33,studio,STUDIO,m,,,,,,-0.405371984,-0.290009393,1,0,0,,0,311,311,43,1
,,,,,,,,,,,,,,,,,,5c538abae9813700018a4096,2020-11-25_16h35.19.847,lexical_decision_task_MP_exp2,2020.2.5,Linux armv8l,60,,0,-0.412776184,-0.302960205,1,0,0,0.864,button_left,0.864,1,,,,,,290,NW,UN,16,pretch,SPLINO,z,,,,,,-0.412776184,-0.302960205,1,0,0,,0,312,312,469,1
,,,,,,,,,,,,,,,,,,5c538abae9813700018a4096,2020-11-25_16h35.19.847,lexical_decision_task_MP_exp2,2020.2.5,Linux armv8l,60,,0,,,,,,,,0.864,-1,,,,,,399,NW,"ID",16,fouret,FOURET,z,,,,,,-0.412776184,-0.302960205,0,0,0,,0,313,313,338,1
,,,,,,,,,,,,,,,,,,5c538abae9813700018a4096,2020-11-25_16h35.19.847,lexical_decision_task_MP_exp2,2020.2.5,Linux armv8l,60,,0,0.535887655,-0.3177614,1,0,0,0.8909,button_right,0.8909,1,,,,,,150,WORD,"ID",16,random,RANDOM,m,,,,,,0.535887655,-0.3177614,1,0,0,,0,314,314,89,1
,,,,,,,,,,,,,,,,,,5c538abae9813700018a4096,2020-11-25_16h35.19.847,lexical_decision_task_MP_exp2,2020.2.5,Linux armv8l,60,,0,0.533111233,-0.304810418,1,0,0,0.7792,button_right,0.7792,1,,,,,,238,WORD,UN,33,behalf,FLOWER,m,,,,,,0.533111233,-0.304810418,1,0,0,,0,315,315,177,1
,,,,,,,,,,,,,,,,,,5c538abae9813700018a4096,2020-11-25_16h35.19.847,lexical_decision_task_MP_exp2,2020.2.5,Linux armv8l,60,,0,-0.424807951,-0.294634671,1,0,0,0.7151,button_left,0.7151,1,,,,,,262,NW,UN,16,dolica,QUILEW,z,,,,,,-0.424807951,-0.294634671,1,0,0,,0,316,316,441,1
,,,,,,,,,,,,,,,,,,5c538abae9813700018a4096,2020-11-25_16h35.19.847,lexical_decision_task_MP_exp2,2020.2.5,Linux armv8l,60,,0,0.533111233,-0.313136037,1,0,0,0.7613,button_right,0.7613,1,,,,,,54,WORD,UN,16,stroke,RAMBLE,m,,,,,,0.533111233,-0.313136037,1,0,0,,0,317,317,233,1
,,,,,,,,,,,,,,,,,,5c538abae9813700018a4096,2020-11-25_16h35.19.847,lexical_decision_task_MP_exp2,2020.2.5,Linux armv8l,60,,0,-0.436839845,-0.284458923,1,0,0,0.6973,button_left,0.6973,1,,,,,,359,NW,"ID",33,fonver,FONVER,z,,,,,,-0.436839845,-0.284458923,1,0,0,,0,318,318,298,1
,,,,,,,,,,,,,,,,,,5c538abae9813700018a4096,2020-11-25_16h35.19.847,lexical_decision_task_MP_exp2,2020.2.5,Linux armv8l,60,,0,0.527557882,-0.312210931,1,0,0,0.7433,button_right,0.7433,0,,,,,,286,NW,UN,16,nymbel,RELDON,z,,,,,,0.527557882,-0.312210931,1,0,0,,0,319,319,465,1
,,,,,,,,,,,,,,,,,,5c538abae9813700018a4096,2020-11-25_16h35.19.847,lexical_decision_task_MP_exp2,2020.2.5,Linux armv8l,60,,0,-0.421105957,-0.278908454,1,0,0,0.9277,button_left,0.9277,1,,,,,,277,NW,UN,16,unighs,PETAIN,z,,,,,,-0.421105957,-0.278908454,1,0,0,,0,320,320,456,1
,,,,,,,,,,,,,,,,,,5c538abae9813700018a4096,2020-11-25_16h35.19.847,lexical_decision_task_MP_exp2,2020.2.5,Linux armv8l,60,,0,-0.419254896,-0.281683689,1,0,0,0.7154,button_left,0.7154,1,,,,,,259,NW,UN,16,unject,SOUDAL,z,,,,,,-0.419254896,-0.281683689,1,0,0,,0,321,321,438,1
,,,,,,,,,,,,,,,,,,5c538abae9813700018a4096,2020-11-25_16h35.19.847,lexical_decision_task_MP_exp2,2020.2.5,Linux armv8l,60,,0,0.527557882,-0.324236891,1,0,0,0.8893,button_right,0.8893,1,,,,,,28,WORD,UN,16,sketch,COMEDY,m,,,,,,0.527557882,-0.324236891,1,0,0,,0,322,322,207,1
,,,,,,,,,,,,,,,,,,5c538abae9813700018a4096,2020-11-25_16h35.19.847,lexical_decision_task_MP_exp2,2020.2.5,Linux armv8l,60,,0,-0.419254896,-0.292784458,1,0,0,0.6309,button_left,0.6309,0,,,,,,146,WORD,"ID",16,couple,COUPLE,m,,,,,,-0.419254896,-0.292784458,1,0,0,,0,323,323,85,1
,,,,,,,,,,,,,,,,,,5c538abae9813700018a4096,2020-11-25_16h35.19.847,lexical_decision_task_MP_exp2,2020.2.5,Linux armv8l,60,,0,0.459994507,-0.337187873,1,0,0,0.9031,button_right,0.9031,1,,,,,,66,WORD,"ID",33,gospel,GOSPEL,m,,,,,,0.459994507,-0.337187873,1,0,0,,0,324,324,5,1
,,,,,,,,,,,,,,,,,,5c538abae9813700018a4096,2020-11-25_16h35.19.847,lexical_decision_task_MP_exp2,2020.2.5,Linux armv8l,60,,0,,,,,,,,0.9031,-1,,,,,,391,NW,"ID",16,theldy,THELDY,z,,,,,,-0.275208134,0.50255216,0,0,0,,0,325,325,330,1
,,,,,,,,,,,,,,,,,,5c538abae9813700018a4096,2020-11-25_16h35.19.847,lexical_decision_task_MP_exp2,2020.2.5,Linux armv8l,60,,0,-0.574317268,-0.315986335,1,0,0,1.6521,button_left,1.6521,0,,,,,,116,WORD,"ID",33,tumble,TUMBLE,m,,,,,,-0.574317268,-0.315986335,1,0,0,,0,326,326,55,1
,,,,,,,,,,,,,,,,,,5c538abae9813700018a4096,2020-11-25_16h35.19.847,lexical_decision_task_MP_exp2,2020.2.5,Linux armv8l,60,,0,,,,,,,,1.6521,-1,,,,,,171,WORD,"ID",16,depart,DEPART,m,,,,,,0.464622328,-0.337187873,0,0,0,,0,327,327,110,1
,,,,,,,,,,,,,,,,,,5c538abae9813700018a4096,2020-11-25_16h35.19.847,lexical_decision_task_MP_exp2,2020.2.5,Linux armv8l,60,,0,-0.535871082,-0.327012041,1,0,0,0.8442,button_left,0.8442,1,,,,,,389,NW,"ID",16,witmer,WITMER,z,,,,,,-0.535871082,-0.327012041,1,0,0,,0,328,328,328,1
,,,,,,,,,,,,,,,,,,5c538abae9813700018a4096,2020-11-25_16h35.19.847,lexical_decision_task_MP_exp2,2020.2.5,Linux armv8l,60,,0,0.520153809,-0.330712382,1,0,0,0.743,button_right,0.743,0,,,,,,346,NW,"ID",33,saudic,SAUDIC,z,,,,,,0.520153809,-0.330712382,1,0,0,,0,329,329,285,1
,,,,,,,,,,,,,,,,,,5c538abae9813700018a4096,2020-11-25_16h35.19.847,lexical_decision_task_MP_exp2,2020.2.5,Linux armv8l,60,,0,-0.520137193,-0.325161913,1,0,0,1.0348,button_left,1.0348,1,,,,,,275,NW,UN,16,yarmon,SLEIRT,z,,,,,,-0.520137193,-0.325161913,1,0,0,,0,330,330,454,1
,,,,,,,,,,,,,,,,,,5c538abae9813700018a4096,2020-11-25_16h35.19.847,lexical_decision_task_MP_exp2,2020.2.5,Linux armv8l,60,,0,-0.535871082,-0.307585653,1,0,0,0.6062,button_left,0.6062,1,,,,,,307,NW,"ID",33,kirafe,KIRAFE,z,,,,,,-0.535871082,-0.307585653,1,0,0,,0,331,331,246,1
,,,,,,,,,,,,,,,,,,5c538abae9813700018a4096,2020-11-25_16h35.19.847,lexical_decision_task_MP_exp2,2020.2.5,Linux armv8l,60,,0,-0.532169003,-0.314986165,1,0,0,0.626,button_left,0.626,1,,,,,,386,NW,"ID",16,ancust,ANCUST,z,,,,,,-0.532169003,-0.314986165,1,0,0,,0,332,332,325,1
,,,,,,,,,,,,,,,,,,5c538abae9813700018a4096,2020-11-25_16h35.19.847,lexical_decision_task_MP_exp2,2020.2.5,Linux armv8l,60,,0,0.536813354,-0.351988898,1,0,0,0.7349,button_right,0.7349,1,,,,,,21,WORD,UN,16,jockey,SIMPLE,m,,,,,,0.536813354,-0.351988898,1,0,0,,0,333,333,200,1
,,,,,,,,,,,,,,,,,,5c538abae9813700018a4096,2020-11-25_16h35.19.847,lexical_decision_task_MP_exp2,2020.2.5,Linux armv8l,60,,0,0.559025743,-0.353839111,1,0,0,0.9628,button_right,0.9628,1,,,,,,52,WORD,UN,16,police,IMPOSE,m,,,,,,0.559025743,-0.353839111,1,0,0,,0,334,334,231,1
,,,,,,,,,,,,,,,,,,5c538abae9813700018a4096,2020-11-25_16h35.19.847,lexical_decision_task_MP_exp2,2020.2.5,Linux armv8l,60,,0,0.562727865,-0.362164646,1,0,0,0.7625,button_right,0.7625,1,,,,,,4,WORD,UN,16,plunge,TRENCH,m,,,,,,0.562727865,-0.362164646,1,0,0,,0,335,335,183,1
,,,,,,,,,,,,,,,,,,5c538abae9813700018a4096,2020-11-25_16h35.19.847,lexical_decision_task_MP_exp2,2020.2.5,Linux armv8l,60,,0,-0.538647673,-0.325161913,1,0,0,0.712,button_left,0.712,1,,,,,,417,NW,"ID",16,earoud,EAROUD,z,,,,,,-0.538647673,-0.325161913,1,0,0,,0,336,336,356,1
,,,,,,,,,,,,,,,,,,5c538abae9813700018a4096,2020-11-25_16h35.19.847,lexical_decision_task_MP_exp2,2020.2.5,Linux armv8l,60,,0,0.568281047,-0.354764133,1,0,0,0.643,button_right,0.643,1,,,,,,81,WORD,"ID",33,friend,FRIEND,m,,,,,,0.568281047,-0.354764133,1,0,0,,0,337,337,20,1
