counterbalancing_condition,instr_done_keyboard.keys,instr_done_keyboard.rt,instr_done_touch.x,instr_done_touch.y,instr_done_touch.leftButton,instr_done_touch.midButton,instr_done_touch.rightButton,instruction_pages.thisRepN,instruction_pages.thisTrialN,instruction_pages.thisN,instruction_pages.thisIndex,instruction_pages.ran,pageN,phase,instruct_text,has_image,instruct_image,participant,date,expName,psychopyVersion,OS,frameRate,response.keys,response.corr,response.rt,touch_resp.x,touch_resp.y,touch_resp.leftButton,touch_resp.midButton,touch_resp.rightButton,touch_resp.time,touch_resp.clicked_name,rt,corr,practice_trials.thisRepN,practice_trials.thisTrialN,practice_trials.thisN,practice_trials.thisIndex,practice_trials.ran,TrialID,StimulusType,Condition,PrimeDuration,Prime,Target,corrAns,end_of_practice_trials_pages.thisRepN,end_of_practice_trials_pages.thisTrialN,end_of_practice_trials_pages.thisN,end_of_practice_trials_pages.thisIndex,end_of_practice_trials_pages.ran,break_done_touch.x,break_done_touch.y,break_done_touch.leftButton,break_done_touch.midButton,break_done_touch.rightButton,break_done_keyboard.keys,experiment_trials.thisRepN,experiment_trials.thisTrialN,experiment_trials.thisN,experiment_trials.thisIndex,experiment_trials.ran,break_done_keyboard.rt
0,space,18.85845,0.091540542,-0.249030456,0,0,0,0,0,0,0,1,1,instructions,"INSTRUCTIONS
At the start of each trial, look at the hash marks (######) in the center of the screen. After a moment, a string of letters will appear. Your task is to indicate if the letter string forms a word or not (i.e., if it is a nonword). For example, AUTHOR is a word while AUTHON is a nonword.

Press the space bar or touch the button below to continue.",0,,5c5825dedd470300014edf4b,2020-11-27_15h03.19.590,lexical_decision_task_MP_exp2,2020.2.5,Linux x86_64,60,,,,,,,,,,,,,,,,,,,,,,,,,,,,,,,,,,,,,,,,,
,space,14.55091,0.091540542,-0.249030456,0,0,0,0,1,1,1,1,2,instructions,"If your device has a keyboard, press the 'Z' key for nonwords and the 'M' key for words.





Press the space bar or touch the button below to continue.",1,keyboard-example.gif,5c5825dedd470300014edf4b,2020-11-27_15h03.19.590,lexical_decision_task_MP_exp2,2020.2.5,Linux x86_64,60,,,,,,,,,,,,,,,,,,,,,,,,,,,,,,,,,,,,,,,,,
,space,7.000595,0.091540542,-0.249030456,0,0,0,0,2,2,2,1,3,instructions,"If you are using a touchscreen only device, use the buttons on the screen. Do not use the mouse.





Press the space bar or touch the button below to continue.",1,touchscreen-example.gif,5c5825dedd470300014edf4b,2020-11-27_15h03.19.590,lexical_decision_task_MP_exp2,2020.2.5,Linux x86_64,60,,,,,,,,,,,,,,,,,,,,,,,,,,,,,,,,,,,,,,,,,
,space,9.34485,0.091540542,-0.249030456,0,0,0,0,3,3,3,1,4,instructions,"It is very important that you respond as quickly and accurately as possible, as each letter string will only be on the screen for two seconds. If you do not respond within this time, the message 'Too slow!' will be displayed and the experiment will progress to the next letter string. The first 20 trials will be practice trials and you will receive feedback on your answers. 

Press the space bar or touch the button below to start the practice trials.",0,,5c5825dedd470300014edf4b,2020-11-27_15h03.19.590,lexical_decision_task_MP_exp2,2020.2.5,Linux x86_64,60,,,,,,,,,,,,,,,,,,,,,,,,,,,,,,,,,,,,,,,,,
,,,,,,,,,,,,,,,,,,5c5825dedd470300014edf4b,2020-11-27_15h03.19.590,lexical_decision_task_MP_exp2,2020.2.5,Linux x86_64,60,m,1,0.97053,,,,,,,,0.97053,1,0,0,0,3,1,1004,WORD,"ID",16,matrix,MATRIX,m,,,,,,,,,,,,,,,,,
,,,,,,,,,,,,,,,,,,5c5825dedd470300014edf4b,2020-11-27_15h03.19.590,lexical_decision_task_MP_exp2,2020.2.5,Linux x86_64,60,z,1,0.6989,,,,,,,,0.6989,1,0,1,1,11,1,1012,NW,"ID",16,rashet,RASHET,z,,,,,,,,,,,,,,,,,
,,,,,,,,,,,,,,,,,,5c5825dedd470300014edf4b,2020-11-27_15h03.19.590,lexical_decision_task_MP_exp2,2020.2.5,Linux x86_64,60,z,1,0.51729,,,,,,,,0.51729,1,0,2,2,12,1,1013,NW,UN,33,adveil,SPRINY,z,,,,,,,,,,,,,,,,,
,,,,,,,,,,,,,,,,,,5c5825dedd470300014edf4b,2020-11-27_15h03.19.590,lexical_decision_task_MP_exp2,2020.2.5,Linux x86_64,60,m,1,0.486225,,,,,,,,0.486225,1,0,3,3,6,1,1007,WORD,UN,16,tropic,ZOMBIE,m,,,,,,,,,,,,,,,,,
,,,,,,,,,,,,,,,,,,5c5825dedd470300014edf4b,2020-11-27_15h03.19.590,lexical_decision_task_MP_exp2,2020.2.5,Linux x86_64,60,m,1,0.548795,,,,,,,,0.548795,1,0,4,4,2,1,1003,WORD,"ID",16,almond,ALMOND,m,,,,,,,,,,,,,,,,,
,,,,,,,,,,,,,,,,,,5c5825dedd470300014edf4b,2020-11-27_15h03.19.590,lexical_decision_task_MP_exp2,2020.2.5,Linux x86_64,60,z,1,0.520125,,,,,,,,0.520125,1,0,5,5,9,1,1010,NW,"ID",33,fariny,FARINY,z,,,,,,,,,,,,,,,,,
,,,,,,,,,,,,,,,,,,5c5825dedd470300014edf4b,2020-11-27_15h03.19.590,lexical_decision_task_MP_exp2,2020.2.5,Linux x86_64,60,z,1,0.520755,,,,,,,,0.520755,1,0,6,6,8,1,1009,NW,"ID",33,aslert,ASLERT,z,,,,,,,,,,,,,,,,,
,,,,,,,,,,,,,,,,,,5c5825dedd470300014edf4b,2020-11-27_15h03.19.590,lexical_decision_task_MP_exp2,2020.2.5,Linux x86_64,60,z,1,0.605115,,,,,,,,0.605115,1,0,7,7,13,1,1014,NW,UN,33,winfer,ROUPET,z,,,,,,,,,,,,,,,,,
,,,,,,,,,,,,,,,,,,5c5825dedd470300014edf4b,2020-11-27_15h03.19.590,lexical_decision_task_MP_exp2,2020.2.5,Linux x86_64,60,z,1,0.54875,,,,,,,,0.54875,1,0,8,8,14,1,1015,NW,UN,16,miaber,THRALE,z,,,,,,,,,,,,,,,,,
,,,,,,,,,,,,,,,,,,5c5825dedd470300014edf4b,2020-11-27_15h03.19.590,lexical_decision_task_MP_exp2,2020.2.5,Linux x86_64,60,z,1,0.71806,,,,,,,,0.71806,1,0,9,9,10,1,1011,NW,"ID",16,inlade,INLADE,z,,,,,,,,,,,,,,,,,
,,,,,,,,,,,,,,,,,,5c5825dedd470300014edf4b,2020-11-27_15h03.19.590,lexical_decision_task_MP_exp2,2020.2.5,Linux x86_64,60,m,1,0.548725,,,,,,,,0.548725,1,0,10,10,5,1,1006,WORD,UN,33,frenzy,OBTAIN,m,,,,,,,,,,,,,,,,,
,,,,,,,,,,,,,,,,,,5c5825dedd470300014edf4b,2020-11-27_15h03.19.590,lexical_decision_task_MP_exp2,2020.2.5,Linux x86_64,60,z,1,0.457335,,,,,,,,0.457335,1,0,11,11,15,1,1016,NW,UN,16,mushed,WHAISE,z,,,,,,,,,,,,,,,,,
,,,,,,,,,,,,,,,,,,5c5825dedd470300014edf4b,2020-11-27_15h03.19.590,lexical_decision_task_MP_exp2,2020.2.5,Linux x86_64,60,z,0,0.489455,,,,,,,,0.489455,0,0,12,12,0,1,1001,WORD,"ID",33,utopia,UTOPIA,m,,,,,,,,,,,,,,,,,
,,,,,,,,,,,,,,,,,,5c5825dedd470300014edf4b,2020-11-27_15h03.19.590,lexical_decision_task_MP_exp2,2020.2.5,Linux x86_64,60,m,1,0.514305,,,,,,,,0.514305,1,0,13,13,7,1,1008,WORD,UN,16,hurdle,VOLUME,m,,,,,,,,,,,,,,,,,
,,,,,,,,,,,,,,,,,,5c5825dedd470300014edf4b,2020-11-27_15h03.19.590,lexical_decision_task_MP_exp2,2020.2.5,Linux x86_64,60,m,1,0.52153,,,,,,,,0.52153,1,0,14,14,1,1,1002,WORD,"ID",33,adjust,ADJUST,m,,,,,,,,,,,,,,,,,
,,,,,,,,,,,,,,,,,,5c5825dedd470300014edf4b,2020-11-27_15h03.19.590,lexical_decision_task_MP_exp2,2020.2.5,Linux x86_64,60,m,1,0.464985,,,,,,,,0.464985,1,0,15,15,4,1,1005,WORD,UN,33,abound,SQUEAK,m,,,,,,,,,,,,,,,,,
,space,15.3409,0.005475375,-0.271263643,0,0,0,,,,,,1,end_of_practice,"You have completed the practice trials. During the experimental trials, you will not receive feedback, but it is very important that you respond as quickly and accurately as possible. 
Before you begin, please ensure that you are in a comfortable and quiet location and will not be disturbed for about 15 minutes, as we cannot use your data if you do not complete all the trials. 
There will be opportunities to take breaks at regular intervals during the experiment. When you are ready to start the experimental trials, please press space or touch the button below.",,,5c5825dedd470300014edf4b,2020-11-27_15h03.19.590,lexical_decision_task_MP_exp2,2020.2.5,Linux x86_64,60,,,,,,,,,,,,,,,,,,,,,,,,,0,0,0,0,1,,,,,,,,,,,,
,,,,,,,,,,,,,,,,,,5c5825dedd470300014edf4b,2020-11-27_15h03.19.590,lexical_decision_task_MP_exp2,2020.2.5,Linux x86_64,60,m,1,1.186475,,,,,,,,1.186475,1,,,,,,177,WORD,UN,16,inform,ADVENT,m,,,,,,0.005475375,-0.271263643,0,0,0,,0,0,0,236,1,
,,,,,,,,,,,,,,,,,,5c5825dedd470300014edf4b,2020-11-27_15h03.19.590,lexical_decision_task_MP_exp2,2020.2.5,Linux x86_64,60,z,1,1.08796,,,,,,,,1.08796,1,,,,,,263,NW,"ID",16,dolica,DOLICA,z,,,,,,0.005475375,-0.271263643,0,0,0,,0,1,1,322,1,
,,,,,,,,,,,,,,,,,,5c5825dedd470300014edf4b,2020-11-27_15h03.19.590,lexical_decision_task_MP_exp2,2020.2.5,Linux x86_64,60,z,1,0.55391,,,,,,,,0.55391,1,,,,,,426,NW,"ID",33,urivel,URIVEL,z,,,,,,0.005475375,-0.271263643,0,0,0,,0,2,2,245,1,
,,,,,,,,,,,,,,,,,,5c5825dedd470300014edf4b,2020-11-27_15h03.19.590,lexical_decision_task_MP_exp2,2020.2.5,Linux x86_64,60,m,1,0.521445,,,,,,,,0.521445,1,,,,,,28,WORD,"ID",16,comedy,COMEDY,m,,,,,,0.005475375,-0.271263643,0,0,0,,0,3,3,87,1,
,,,,,,,,,,,,,,,,,,5c5825dedd470300014edf4b,2020-11-27_15h03.19.590,lexical_decision_task_MP_exp2,2020.2.5,Linux x86_64,60,z,1,0.57141,,,,,,,,0.57141,1,,,,,,371,NW,UN,16,ramily,GEILOY,z,,,,,,0.005475375,-0.271263643,0,0,0,,0,4,4,430,1,
,,,,,,,,,,,,,,,,,,5c5825dedd470300014edf4b,2020-11-27_15h03.19.590,lexical_decision_task_MP_exp2,2020.2.5,Linux x86_64,60,z,1,0.48804,,,,,,,,0.48804,1,,,,,,465,NW,"ID",33,whivex,WHIVEX,z,,,,,,0.005475375,-0.271263643,0,0,0,,0,5,5,284,1,
,,,,,,,,,,,,,,,,,,5c5825dedd470300014edf4b,2020-11-27_15h03.19.590,lexical_decision_task_MP_exp2,2020.2.5,Linux x86_64,60,m,1,0.50474,,,,,,,,0.50474,1,,,,,,198,WORD,"ID",33,wicked,WICKED,m,,,,,,0.005475375,-0.271263643,0,0,0,,0,6,6,17,1,
,,,,,,,,,,,,,,,,,,5c5825dedd470300014edf4b,2020-11-27_15h03.19.590,lexical_decision_task_MP_exp2,2020.2.5,Linux x86_64,60,m,0,0.69867,,,,,,,,0.69867,0,,,,,,440,NW,"ID",33,saride,SARIDE,z,,,,,,0.005475375,-0.271263643,0,0,0,,0,7,7,259,1,
,,,,,,,,,,,,,,,,,,5c5825dedd470300014edf4b,2020-11-27_15h03.19.590,lexical_decision_task_MP_exp2,2020.2.5,Linux x86_64,60,z,1,0.865905,,,,,,,,0.865905,1,,,,,,300,NW,"ID",16,yarion,YARION,z,,,,,,0.005475375,-0.271263643,0,0,0,,0,8,8,359,1,
,,,,,,,,,,,,,,,,,,5c5825dedd470300014edf4b,2020-11-27_15h03.19.590,lexical_decision_task_MP_exp2,2020.2.5,Linux x86_64,60,m,1,0.765515,,,,,,,,0.765515,1,,,,,,104,WORD,UN,33,number,STUDIO,m,,,,,,0.005475375,-0.271263643,0,0,0,,0,9,9,163,1,
,,,,,,,,,,,,,,,,,,5c5825dedd470300014edf4b,2020-11-27_15h03.19.590,lexical_decision_task_MP_exp2,2020.2.5,Linux x86_64,60,m,1,0.781945,,,,,,,,0.781945,1,,,,,,116,WORD,UN,33,branch,TUMBLE,m,,,,,,0.005475375,-0.271263643,0,0,0,,0,10,10,175,1,
,,,,,,,,,,,,,,,,,,5c5825dedd470300014edf4b,2020-11-27_15h03.19.590,lexical_decision_task_MP_exp2,2020.2.5,Linux x86_64,60,z,1,0.588615,,,,,,,,0.588615,1,,,,,,409,NW,UN,16,tunory,ELOPIA,z,,,,,,0.005475375,-0.271263643,0,0,0,,0,11,11,468,1,
,,,,,,,,,,,,,,,,,,5c5825dedd470300014edf4b,2020-11-27_15h03.19.590,lexical_decision_task_MP_exp2,2020.2.5,Linux x86_64,60,z,1,0.6857,,,,,,,,0.6857,1,,,,,,381,NW,UN,16,sarley,HUNIEK,z,,,,,,0.005475375,-0.271263643,0,0,0,,0,12,12,440,1,
,,,,,,,,,,,,,,,,,,5c5825dedd470300014edf4b,2020-11-27_15h03.19.590,lexical_decision_task_MP_exp2,2020.2.5,Linux x86_64,60,m,1,0.630835,,,,,,,,0.630835,1,,,,,,105,WORD,UN,33,ransom,NUMBER,m,,,,,,0.005475375,-0.271263643,0,0,0,,0,13,13,164,1,
,,,,,,,,,,,,,,,,,,5c5825dedd470300014edf4b,2020-11-27_15h03.19.590,lexical_decision_task_MP_exp2,2020.2.5,Linux x86_64,60,z,1,0.58906,,,,,,,,0.58906,1,,,,,,241,NW,"ID",16,smenco,SMENCO,z,,,,,,0.005475375,-0.271263643,0,0,0,,0,14,14,300,1,
,,,,,,,,,,,,,,,,,,5c5825dedd470300014edf4b,2020-11-27_15h03.19.590,lexical_decision_task_MP_exp2,2020.2.5,Linux x86_64,60,m,1,0.73289,,,,,,,,0.73289,1,,,,,,197,WORD,"ID",33,stream,STREAM,m,,,,,,0.005475375,-0.271263643,0,0,0,,0,15,15,16,1,
,,,,,,,,,,,,,,,,,,5c5825dedd470300014edf4b,2020-11-27_15h03.19.590,lexical_decision_task_MP_exp2,2020.2.5,Linux x86_64,60,m,1,0.85681,,,,,,,,0.85681,1,,,,,,13,WORD,"ID",16,strive,STRIVE,m,,,,,,0.005475375,-0.271263643,0,0,0,,0,16,16,72,1,
,,,,,,,,,,,,,,,,,,5c5825dedd470300014edf4b,2020-11-27_15h03.19.590,lexical_decision_task_MP_exp2,2020.2.5,Linux x86_64,60,z,1,0.75374,,,,,,,,0.75374,1,,,,,,475,NW,"ID",33,pebric,PEBRIC,z,,,,,,0.005475375,-0.271263643,0,0,0,,0,17,17,294,1,
,,,,,,,,,,,,,,,,,,5c5825dedd470300014edf4b,2020-11-27_15h03.19.590,lexical_decision_task_MP_exp2,2020.2.5,Linux x86_64,60,m,1,0.570735,,,,,,,,0.570735,1,,,,,,209,WORD,"ID",33,search,SEARCH,m,,,,,,0.005475375,-0.271263643,0,0,0,,0,18,18,28,1,
,,,,,,,,,,,,,,,,,,5c5825dedd470300014edf4b,2020-11-27_15h03.19.590,lexical_decision_task_MP_exp2,2020.2.5,Linux x86_64,60,m,1,0.587685,,,,,,,,0.587685,1,,,,,,3,WORD,"ID",16,knight,KNIGHT,m,,,,,,0.005475375,-0.271263643,0,0,0,,0,19,19,62,1,
,,,,,,,,,,,,,,,,,,5c5825dedd470300014edf4b,2020-11-27_15h03.19.590,lexical_decision_task_MP_exp2,2020.2.5,Linux x86_64,60,z,1,0.63062,,,,,,,,0.63062,1,,,,,,455,NW,"ID",33,tondle,TONDLE,z,,,,,,0.005475375,-0.271263643,0,0,0,,0,20,20,274,1,
,,,,,,,,,,,,,,,,,,5c5825dedd470300014edf4b,2020-11-27_15h03.19.590,lexical_decision_task_MP_exp2,2020.2.5,Linux x86_64,60,m,0,0.732895,,,,,,,,0.732895,0,,,,,,319,NW,UN,33,jockal,ZOMBER,z,,,,,,0.005475375,-0.271263643,0,0,0,,0,21,21,378,1,
,,,,,,,,,,,,,,,,,,5c5825dedd470300014edf4b,2020-11-27_15h03.19.590,lexical_decision_task_MP_exp2,2020.2.5,Linux x86_64,60,z,1,1.17238,,,,,,,,1.17238,1,,,,,,366,NW,UN,16,slique,TOSHEL,z,,,,,,0.005475375,-0.271263643,0,0,0,,0,22,22,425,1,
,,,,,,,,,,,,,,,,,,5c5825dedd470300014edf4b,2020-11-27_15h03.19.590,lexical_decision_task_MP_exp2,2020.2.5,Linux x86_64,60,z,1,0.638415,,,,,,,,0.638415,1,,,,,,424,NW,"ID",33,praile,PRAILE,z,,,,,,0.005475375,-0.271263643,0,0,0,,0,23,23,243,1,
,,,,,,,,,,,,,,,,,,5c5825dedd470300014edf4b,2020-11-27_15h03.19.590,lexical_decision_task_MP_exp2,2020.2.5,Linux x86_64,60,z,1,0.682765,,,,,,,,0.682765,1,,,,,,338,NW,UN,33,fachow,WREASH,z,,,,,,0.005475375,-0.271263643,0,0,0,,0,24,24,397,1,
,,,,,,,,,,,,,,,,,,5c5825dedd470300014edf4b,2020-11-27_15h03.19.590,lexical_decision_task_MP_exp2,2020.2.5,Linux x86_64,60,m,1,0.56882,,,,,,,,0.56882,1,,,,,,182,WORD,"ID",33,winter,WINTER,m,,,,,,0.005475375,-0.271263643,0,0,0,,0,25,25,1,1,
,,,,,,,,,,,,,,,,,,5c5825dedd470300014edf4b,2020-11-27_15h03.19.590,lexical_decision_task_MP_exp2,2020.2.5,Linux x86_64,60,z,1,0.653865,,,,,,,,0.653865,1,,,,,,402,NW,UN,16,bruats,SYNTIC,z,,,,,,0.005475375,-0.271263643,0,0,0,,0,26,26,461,1,
,,,,,,,,,,,,,,,,,,5c5825dedd470300014edf4b,2020-11-27_15h03.19.590,lexical_decision_task_MP_exp2,2020.2.5,Linux x86_64,60,m,1,0.639815,,,,,,,,0.639815,1,,,,,,206,WORD,"ID",33,tailor,TAILOR,m,,,,,,0.005475375,-0.271263643,0,0,0,,0,27,27,25,1,
,,,,,,,,,,,,,,,,,,5c5825dedd470300014edf4b,2020-11-27_15h03.19.590,lexical_decision_task_MP_exp2,2020.2.5,Linux x86_64,60,z,1,0.749215,,,,,,,,0.749215,1,,,,,,347,NW,UN,33,dumple,KERIFT,z,,,,,,0.005475375,-0.271263643,0,0,0,,0,28,28,406,1,
,,,,,,,,,,,,,,,,,,5c5825dedd470300014edf4b,2020-11-27_15h03.19.590,lexical_decision_task_MP_exp2,2020.2.5,Linux x86_64,60,m,1,0.63617,,,,,,,,0.63617,1,,,,,,233,WORD,"ID",33,nature,NATURE,m,,,,,,0.005475375,-0.271263643,0,0,0,,0,29,29,52,1,
,,,,,,,,,,,,,,,,,,5c5825dedd470300014edf4b,2020-11-27_15h03.19.590,lexical_decision_task_MP_exp2,2020.2.5,Linux x86_64,60,z,1,0.58388,,,,,,,,0.58388,1,,,,,,276,NW,"ID",16,yarmon,YARMON,z,,,,,,0.005475375,-0.271263643,0,0,0,,0,30,30,335,1,
,,,,,,,,,,,,,,,,,,5c5825dedd470300014edf4b,2020-11-27_15h03.19.590,lexical_decision_task_MP_exp2,2020.2.5,Linux x86_64,60,z,1,0.513355,,,,,,,,0.513355,1,,,,,,349,NW,UN,33,nagurs,ASYLEN,z,,,,,,0.005475375,-0.271263643,0,0,0,,0,31,31,408,1,
,,,,,,,,,,,,,,,,,,5c5825dedd470300014edf4b,2020-11-27_15h03.19.590,lexical_decision_task_MP_exp2,2020.2.5,Linux x86_64,60,z,1,0.82046,,,,,,,,0.82046,1,,,,,,266,NW,"ID",16,varmit,VARMIT,z,,,,,,0.005475375,-0.271263643,0,0,0,,0,32,32,325,1,
,,,,,,,,,,,,,,,,,,5c5825dedd470300014edf4b,2020-11-27_15h03.19.590,lexical_decision_task_MP_exp2,2020.2.5,Linux x86_64,60,m,1,0.587465,,,,,,,,0.587465,1,,,,,,64,WORD,UN,33,symbol,THRONE,m,,,,,,0.005475375,-0.271263643,0,0,0,,0,33,33,123,1,
,,,,,,,,,,,,,,,,,,5c5825dedd470300014edf4b,2020-11-27_15h03.19.590,lexical_decision_task_MP_exp2,2020.2.5,Linux x86_64,60,z,1,0.48283,,,,,,,,0.48283,1,,,,,,339,NW,UN,33,fiatch,FACHOW,z,,,,,,0.005475375,-0.271263643,0,0,0,,0,34,34,398,1,
,,,,,,,,,,,,,,,,,,5c5825dedd470300014edf4b,2020-11-27_15h03.19.590,lexical_decision_task_MP_exp2,2020.2.5,Linux x86_64,60,z,1,0.517235,,,,,,,,0.517235,1,,,,,,427,NW,"ID",33,schind,SCHIND,z,,,,,,0.005475375,-0.271263643,0,0,0,,0,35,35,246,1,
,,,,,,,,,,,,,,,,,,5c5825dedd470300014edf4b,2020-11-27_15h03.19.590,lexical_decision_task_MP_exp2,2020.2.5,Linux x86_64,60,z,1,0.638145,,,,,,,,0.638145,1,,,,,,418,NW,UN,16,slount,SUIDLE,z,,,,,,0.005475375,-0.271263643,0,0,0,,0,36,36,477,1,
,,,,,,,,,,,,,,,,,,5c5825dedd470300014edf4b,2020-11-27_15h03.19.590,lexical_decision_task_MP_exp2,2020.2.5,Linux x86_64,60,m,1,0.53192,,,,,,,,0.53192,1,,,,,,103,WORD,UN,33,studio,BOUNCE,m,,,,,,0.005475375,-0.271263643,0,0,0,,0,37,37,162,1,
,,,,,,,,,,,,,,,,,,5c5825dedd470300014edf4b,2020-11-27_15h03.19.590,lexical_decision_task_MP_exp2,2020.2.5,Linux x86_64,60,z,1,0.504615,,,,,,,,0.504615,1,,,,,,316,NW,UN,33,worbal,SCREGM,z,,,,,,0.005475375,-0.271263643,0,0,0,,0,38,38,375,1,
,,,,,,,,,,,,,,,,,,5c5825dedd470300014edf4b,2020-11-27_15h03.19.590,lexical_decision_task_MP_exp2,2020.2.5,Linux x86_64,60,z,1,0.52156,,,,,,,,0.52156,1,,,,,,407,NW,UN,16,hurnia,SUIVER,z,,,,,,0.005475375,-0.271263643,0,0,0,,0,39,39,466,1,
,,,,,,,,,,,,,,,,,,5c5825dedd470300014edf4b,2020-11-27_15h03.19.590,lexical_decision_task_MP_exp2,2020.2.5,Linux x86_64,60,z,1,0.91522,,,,,,,,0.91522,1,,,,,,305,NW,UN,33,sounge,FORGLE,z,,,,,,0.005475375,-0.271263643,0,0,0,,0,40,40,364,1,
,,,,,,,,,,,,,,,,,,5c5825dedd470300014edf4b,2020-11-27_15h03.19.590,lexical_decision_task_MP_exp2,2020.2.5,Linux x86_64,60,m,1,0.687595,,,,,,,,0.687595,1,,,,,,153,WORD,UN,16,author,BEHOLD,m,,,,,,0.005475375,-0.271263643,0,0,0,,0,41,41,212,1,
,,,,,,,,,,,,,,,,,,5c5825dedd470300014edf4b,2020-11-27_15h03.19.590,lexical_decision_task_MP_exp2,2020.2.5,Linux x86_64,60,m,1,0.553695,,,,,,,,0.553695,1,,,,,,173,WORD,UN,16,turkey,SHOWER,m,,,,,,0.005475375,-0.271263643,0,0,0,,0,42,42,232,1,
,,,,,,,,,,,,,,,,,,5c5825dedd470300014edf4b,2020-11-27_15h03.19.590,lexical_decision_task_MP_exp2,2020.2.5,Linux x86_64,60,z,1,0.51517,,,,,,,,0.51517,1,,,,,,479,NW,"ID",33,lobush,LOBUSH,z,,,,,,0.005475375,-0.271263643,0,0,0,,0,43,43,298,1,
,,,,,,,,,,,,,,,,,,5c5825dedd470300014edf4b,2020-11-27_15h03.19.590,lexical_decision_task_MP_exp2,2020.2.5,Linux x86_64,60,m,1,0.537515,,,,,,,,0.537515,1,,,,,,237,WORD,"ID",33,poster,POSTER,m,,,,,,0.005475375,-0.271263643,0,0,0,,0,44,44,56,1,
,,,,,,,,,,,,,,,,,,5c5825dedd470300014edf4b,2020-11-27_15h03.19.590,lexical_decision_task_MP_exp2,2020.2.5,Linux x86_64,60,z,1,0.515135,,,,,,,,0.515135,1,,,,,,428,NW,"ID",33,tandly,TANDLY,z,,,,,,0.005475375,-0.271263643,0,0,0,,0,45,45,247,1,
,,,,,,,,,,,,,,,,,,5c5825dedd470300014edf4b,2020-11-27_15h03.19.590,lexical_decision_task_MP_exp2,2020.2.5,Linux x86_64,60,z,1,0.53187,,,,,,,,0.53187,1,,,,,,389,NW,UN,16,hatrus,WITMER,z,,,,,,0.005475375,-0.271263643,0,0,0,,0,46,46,448,1,
,,,,,,,,,,,,,,,,,,5c5825dedd470300014edf4b,2020-11-27_15h03.19.590,lexical_decision_task_MP_exp2,2020.2.5,Linux x86_64,60,m,1,0.65851,,,,,,,,0.65851,1,,,,,,192,WORD,"ID",33,plague,PLAGUE,m,,,,,,0.005475375,-0.271263643,0,0,0,,0,47,47,11,1,
,,,,,,,,,,,,,,,,,,5c5825dedd470300014edf4b,2020-11-27_15h03.19.590,lexical_decision_task_MP_exp2,2020.2.5,Linux x86_64,60,m,1,0.831415,,,,,,,,0.831415,1,,,,,,33,WORD,"ID",16,butler,BUTLER,m,,,,,,0.005475375,-0.271263643,0,0,0,,0,48,48,92,1,
,,,,,,,,,,,,,,,,,,5c5825dedd470300014edf4b,2020-11-27_15h03.19.590,lexical_decision_task_MP_exp2,2020.2.5,Linux x86_64,60,m,1,0.55097,,,,,,,,0.55097,1,,,,,,67,WORD,UN,33,fumble,POLICY,m,,,,,,0.005475375,-0.271263643,0,0,0,,0,49,49,126,1,
,,,,,,,,,,,,,,,,,,5c5825dedd470300014edf4b,2020-11-27_15h03.19.590,lexical_decision_task_MP_exp2,2020.2.5,Linux x86_64,60,z,0,0.531675,,,,,,,,0.531675,0,,,,,,100,WORD,UN,33,wrench,CARBON,m,,,,,,0.005475375,-0.271263643,0,0,0,,0,50,50,159,1,
,,,,,,,,,,,,,,,,,,5c5825dedd470300014edf4b,2020-11-27_15h03.19.590,lexical_decision_task_MP_exp2,2020.2.5,Linux x86_64,60,z,1,1.171025,,,,,,,,1.171025,1,,,,,,355,NW,UN,33,othnis,ZINGLY,z,,,,,,0.005475375,-0.271263643,0,0,0,,0,51,51,414,1,
,,,,,,,,,,,,,,,,,,5c5825dedd470300014edf4b,2020-11-27_15h03.19.590,lexical_decision_task_MP_exp2,2020.2.5,Linux x86_64,60,z,1,0.799735,,,,,,,,0.799735,1,,,,,,313,NW,UN,33,sprine,PAURSE,z,,,,,,0.005475375,-0.271263643,0,0,0,,0,52,52,372,1,
,,,,,,,,,,,,,,,,,,5c5825dedd470300014edf4b,2020-11-27_15h03.19.590,lexical_decision_task_MP_exp2,2020.2.5,Linux x86_64,60,z,1,0.586915,,,,,,,,0.586915,1,,,,,,357,NW,UN,33,fleack,DERAIN,z,,,,,,0.005475375,-0.271263643,0,0,0,,0,53,53,416,1,
,,,,,,,,,,,,,,,,,,5c5825dedd470300014edf4b,2020-11-27_15h03.19.590,lexical_decision_task_MP_exp2,2020.2.5,Linux x86_64,60,z,1,0.7186,,,,,,,,0.7186,1,,,,,,477,NW,"ID",33,photie,PHOTIE,z,,,,,,0.005475375,-0.271263643,0,0,0,,0,54,54,296,1,
,,,,,,,,,,,,,,,,,,5c5825dedd470300014edf4b,2020-11-27_15h03.19.590,lexical_decision_task_MP_exp2,2020.2.5,Linux x86_64,60,z,1,0.582355,,,,,,,,0.582355,1,,,,,,273,NW,"ID",16,sortel,SORTEL,z,,,,,,0.005475375,-0.271263643,0,0,0,,0,55,55,332,1,
,,,,,,,,,,,,,,,,,,5c5825dedd470300014edf4b,2020-11-27_15h03.19.590,lexical_decision_task_MP_exp2,2020.2.5,Linux x86_64,60,z,1,0.621995,,,,,,,,0.621995,1,,,,,,434,NW,"ID",33,pitrom,PITROM,z,,,,,,0.005475375,-0.271263643,0,0,0,,0,56,56,253,1,
,,,,,,,,,,,,,,,,,,5c5825dedd470300014edf4b,2020-11-27_15h03.19.590,lexical_decision_task_MP_exp2,2020.2.5,Linux x86_64,60,z,1,0.91666,,,,,,,,0.91666,1,,,,,,318,NW,UN,33,zomber,REAGLY,z,,,,,,0.005475375,-0.271263643,0,0,0,,0,57,57,377,1,
,,,,,,,,,,,,,,,,,,5c5825dedd470300014edf4b,2020-11-27_15h03.19.590,lexical_decision_task_MP_exp2,2020.2.5,Linux x86_64,60,z,1,0.63743,,,,,,,,0.63743,1,,,,,,401,NW,UN,16,syntic,MUSTIL,z,,,,,,0.005475375,-0.271263643,0,0,0,,0,58,58,460,1,
,,,,,,,,,,,,,,,,,,5c5825dedd470300014edf4b,2020-11-27_15h03.19.590,lexical_decision_task_MP_exp2,2020.2.5,Linux x86_64,60,z,1,0.53279,,,,,,,,0.53279,1,,,,,,457,NW,"ID",33,wanigh,WANIGH,z,,,,,,0.005475375,-0.271263643,0,0,0,,0,59,59,276,1,
,,,,,,,,,,,,,,,,,,5c5825dedd470300014edf4b,2020-11-27_15h03.19.590,lexical_decision_task_MP_exp2,2020.2.5,Linux x86_64,60,z,1,0.63871,,,,,,,,0.63871,1,,,,,,337,NW,UN,33,wreash,REJOLS,z,,,,,,0.005475375,-0.271263643,0,0,0,,0,60,60,396,1,
,,,,,,,,,,,,,,,,,,5c5825dedd470300014edf4b,2020-11-27_15h03.19.590,lexical_decision_task_MP_exp2,2020.2.5,Linux x86_64,60,m,1,0.639065,,,,,,,,0.639065,1,,,,,,134,WORD,UN,16,import,STAPLE,m,,,,,,0.005475375,-0.271263643,0,0,0,,0,61,61,193,1,
,,,,,,,,,,,,,,,,,,5c5825dedd470300014edf4b,2020-11-27_15h03.19.590,lexical_decision_task_MP_exp2,2020.2.5,Linux x86_64,60,m,1,0.532595,,,,,,,,0.532595,1,,,,,,238,WORD,"ID",33,flower,FLOWER,m,,,,,,0.005475375,-0.271263643,0,0,0,,0,62,62,57,1,
,,,,,,,,,,,,,,,,,,5c5825dedd470300014edf4b,2020-11-27_15h03.19.590,lexical_decision_task_MP_exp2,2020.2.5,Linux x86_64,60,z,1,0.836965,,,,,,,,0.836965,1,,,,,,400,NW,UN,16,mustil,WEAROX,z,,,,,,0.005475375,-0.271263643,0,0,0,,0,63,63,459,1,
,,,,,,,,,,,,,,,,,,5c5825dedd470300014edf4b,2020-11-27_15h03.19.590,lexical_decision_task_MP_exp2,2020.2.5,Linux x86_64,60,m,1,0.67179,,,,,,,,0.67179,1,,,,,,89,WORD,UN,33,relish,PERMIT,m,,,,,,0.005475375,-0.271263643,0,0,0,,0,64,64,148,1,
,,,,,,,,,,,,,,,,,,5c5825dedd470300014edf4b,2020-11-27_15h03.19.590,lexical_decision_task_MP_exp2,2020.2.5,Linux x86_64,60,m,1,0.553925,,,,,,,,0.553925,1,,,,,,90,WORD,UN,33,expand,RELISH,m,,,,,,0.005475375,-0.271263643,0,0,0,,0,65,65,149,1,
,,,,,,,,,,,,,,,,,,5c5825dedd470300014edf4b,2020-11-27_15h03.19.590,lexical_decision_task_MP_exp2,2020.2.5,Linux x86_64,60,z,1,0.866185,,,,,,,,0.866185,1,,,,,,454,NW,"ID",33,scouge,SCOUGE,z,,,,,,0.005475375,-0.271263643,0,0,0,,0,66,66,273,1,
,,,,,,,,,,,,,,,,,,5c5825dedd470300014edf4b,2020-11-27_15h03.19.590,lexical_decision_task_MP_exp2,2020.2.5,Linux x86_64,60,m,1,0.54897,,,,,,,,0.54897,1,,,,,,129,WORD,UN,16,stupid,MARVEL,m,,,,,,0.005475375,-0.271263643,0,0,0,,0,67,67,188,1,
,,,,,,,,,,,,,,,,,,5c5825dedd470300014edf4b,2020-11-27_15h03.19.590,lexical_decision_task_MP_exp2,2020.2.5,Linux x86_64,60,m,1,0.49894,,,,,,,,0.49894,1,,,,,,210,WORD,"ID",33,monkey,MONKEY,m,,,,,,0.005475375,-0.271263643,0,0,0,,0,68,68,29,1,
,,,,,,,,,,,,,,,,,,5c5825dedd470300014edf4b,2020-11-27_15h03.19.590,lexical_decision_task_MP_exp2,2020.2.5,Linux x86_64,60,z,1,0.566245,,,,,,,,0.566245,1,,,,,,344,NW,UN,33,absend,SCRILY,z,,,,,,0.005475375,-0.271263643,0,0,0,,0,69,69,403,1,
,,,,,,,,,,,,,,,,,,5c5825dedd470300014edf4b,2020-11-27_15h03.19.590,lexical_decision_task_MP_exp2,2020.2.5,Linux x86_64,60,z,1,1.08684,,,,,,,,1.08684,1,,,,,,425,NW,"ID",33,frudge,FRUDGE,z,,,,,,0.005475375,-0.271263643,0,0,0,,0,70,70,244,1,
,,,,,,,,,,,,,,,,,,5c5825dedd470300014edf4b,2020-11-27_15h03.19.590,lexical_decision_task_MP_exp2,2020.2.5,Linux x86_64,60,m,1,0.66665,,,,,,,,0.66665,1,,,,,,76,WORD,UN,33,racket,EXOTIC,m,,,,,,0.005475375,-0.271263643,0,0,0,,0,71,71,135,1,
,,,,,,,,,,,,,,,,,,5c5825dedd470300014edf4b,2020-11-27_15h03.19.590,lexical_decision_task_MP_exp2,2020.2.5,Linux x86_64,60,z,1,0.73968,,,,,,,,0.73968,1,,,,,,293,NW,"ID",16,swance,SWANCE,z,,,,,,0.005475375,-0.271263643,0,0,0,,0,72,72,352,1,
,,,,,,,,,,,,,,,,,,5c5825dedd470300014edf4b,2020-11-27_15h03.19.590,lexical_decision_task_MP_exp2,2020.2.5,Linux x86_64,60,z,0,0.688165,,,,,,,,0.688165,0,,,,,,227,WORD,"ID",33,seldom,SELDOM,m,,,,,,0.005475375,-0.271263643,0,0,0,,0,73,73,46,1,
,,,,,,,,,,,,,,,,,,5c5825dedd470300014edf4b,2020-11-27_15h03.19.590,lexical_decision_task_MP_exp2,2020.2.5,Linux x86_64,60,m,1,0.61655,,,,,,,,0.61655,1,,,,,,164,WORD,UN,16,invest,MARKET,m,,,,,,0.005475375,-0.271263643,0,0,0,,0,74,74,223,1,
,,,,,,,,,,,,,,,,,,5c5825dedd470300014edf4b,2020-11-27_15h03.19.590,lexical_decision_task_MP_exp2,2020.2.5,Linux x86_64,60,z,1,0.65524,,,,,,,,0.65524,1,,,,,,274,NW,"ID",16,fumblo,FUMBLO,z,,,,,,0.005475375,-0.271263643,0,0,0,,0,75,75,333,1,
,,,,,,,,,,,,,,,,,,5c5825dedd470300014edf4b,2020-11-27_15h03.19.590,lexical_decision_task_MP_exp2,2020.2.5,Linux x86_64,60,z,1,0.655375,,,,,,,,0.655375,1,,,,,,255,NW,"ID",16,apight,APIGHT,z,,,,,,0.005475375,-0.271263643,0,0,0,,0,76,76,314,1,
,,,,,,,,,,,,,,,,,,5c5825dedd470300014edf4b,2020-11-27_15h03.19.590,lexical_decision_task_MP_exp2,2020.2.5,Linux x86_64,60,m,1,0.539295,,,,,,,,0.539295,1,,,,,,186,WORD,"ID",33,portal,PORTAL,m,,,,,,0.005475375,-0.271263643,0,0,0,,0,77,77,5,1,
,,,,,,,,,,,,,,,,,,5c5825dedd470300014edf4b,2020-11-27_15h03.19.590,lexical_decision_task_MP_exp2,2020.2.5,Linux x86_64,60,m,1,0.553145,,,,,,,,0.553145,1,,,,,,141,WORD,UN,16,spruce,ORPHAN,m,,,,,,0.005475375,-0.271263643,0,0,0,,0,78,78,200,1,
,,,,,,,,,,,,,,,,,,5c5825dedd470300014edf4b,2020-11-27_15h03.19.590,lexical_decision_task_MP_exp2,2020.2.5,Linux x86_64,60,z,1,0.55056,,,,,,,,0.55056,1,,,,,,443,NW,"ID",33,dorsex,DORSEX,z,,,,,,0.005475375,-0.271263643,0,0,0,,0,79,79,262,1,
,,,,,,,,,,,,,,,,,,5c5825dedd470300014edf4b,2020-11-27_15h03.19.590,lexical_decision_task_MP_exp2,2020.2.5,Linux x86_64,60,z,1,0.586435,,,,,,,,0.586435,1,,,,,,390,NW,UN,16,theldy,HATRUS,z,,,,,,0.005475375,-0.271263643,0,0,0,,0,80,80,449,1,
,,,,,,,,,,,,,,,,,,5c5825dedd470300014edf4b,2020-11-27_15h03.19.590,lexical_decision_task_MP_exp2,2020.2.5,Linux x86_64,60,z,1,0.56781,,,,,,,,0.56781,1,,,,,,370,NW,UN,16,geiloy,SLEACT,z,,,,,,0.005475375,-0.271263643,0,0,0,,0,81,81,429,1,
,,,,,,,,,,,,,,,,,,5c5825dedd470300014edf4b,2020-11-27_15h03.19.590,lexical_decision_task_MP_exp2,2020.2.5,Linux x86_64,60,z,1,0.61685,,,,,,,,0.61685,1,,,,,,416,NW,UN,16,earoud,PATHEL,z,,,,,,0.005475375,-0.271263643,0,0,0,,0,82,82,475,1,
,,,,,,,,,,,,,,,,,,5c5825dedd470300014edf4b,2020-11-27_15h03.19.590,lexical_decision_task_MP_exp2,2020.2.5,Linux x86_64,60,z,1,0.68342,,,,,,,,0.68342,1,,,,,,474,NW,"ID",33,hablin,HABLIN,z,,,,,,0.005475375,-0.271263643,0,0,0,,0,83,83,293,1,
,,,,,,,,,,,,,,,,,,5c5825dedd470300014edf4b,2020-11-27_15h03.19.590,lexical_decision_task_MP_exp2,2020.2.5,Linux x86_64,60,z,1,0.62101,,,,,,,,0.62101,1,,,,,,369,NW,UN,16,sleact,WRONCH,z,,,,,,0.005475375,-0.271263643,0,0,0,,0,84,84,428,1,
,,,,,,,,,,,,,,,,,,5c5825dedd470300014edf4b,2020-11-27_15h03.19.590,lexical_decision_task_MP_exp2,2020.2.5,Linux x86_64,60,m,1,0.521615,,,,,,,,0.521615,1,,,,,,203,WORD,"ID",33,phrase,PHRASE,m,,,,,,0.005475375,-0.271263643,0,0,0,,0,85,85,22,1,
,,,,,,,,,,,,,,,,,,5c5825dedd470300014edf4b,2020-11-27_15h03.19.590,lexical_decision_task_MP_exp2,2020.2.5,Linux x86_64,60,z,1,0.57106,,,,,,,,0.57106,1,,,,,,250,NW,"ID",16,milted,MILTED,z,,,,,,0.005475375,-0.271263643,0,0,0,,0,86,86,309,1,
,,,,,,,,,,,,,,,,,,5c5825dedd470300014edf4b,2020-11-27_15h03.19.590,lexical_decision_task_MP_exp2,2020.2.5,Linux x86_64,60,z,0,0.621055,,,,,,,,0.621055,0,,,,,,68,WORD,UN,33,plenty,FUMBLE,m,,,,,,0.005475375,-0.271263643,0,0,0,,0,87,87,127,1,
,,,,,,,,,,,,,,,,,,5c5825dedd470300014edf4b,2020-11-27_15h03.19.590,lexical_decision_task_MP_exp2,2020.2.5,Linux x86_64,60,m,1,0.920245,,,,,,,,0.920245,1,,,,,,145,WORD,UN,16,couple,PARISH,m,,,,,,0.005475375,-0.271263643,0,0,0,,0,88,88,204,1,
,,,,,,,,,,,,,,,,,,5c5825dedd470300014edf4b,2020-11-27_15h03.19.590,lexical_decision_task_MP_exp2,2020.2.5,Linux x86_64,60,z,1,0.540765,,,,,,,,0.540765,1,,,,,,459,NW,"ID",33,bafent,BAFENT,z,,,,,,0.005475375,-0.271263643,0,0,0,,0,89,89,278,1,
,,,,,,,,,,,,,,,,,,5c5825dedd470300014edf4b,2020-11-27_15h03.19.590,lexical_decision_task_MP_exp2,2020.2.5,Linux x86_64,60,z,1,0.62191,,,,,,,,0.62191,1,,,,,,358,NW,UN,33,fonver,FLEACK,z,,,,,,0.005475375,-0.271263643,0,0,0,,0,90,90,417,1,
,,,,,,,,,,,,,,,,,,5c5825dedd470300014edf4b,2020-11-27_15h03.19.590,lexical_decision_task_MP_exp2,2020.2.5,Linux x86_64,60,m,1,0.51625,,,,,,,,0.51625,1,,,,,,52,WORD,"ID",16,impose,IMPOSE,m,,,,,,0.005475375,-0.271263643,0,0,0,,0,91,91,111,1,
,,,,,,,,,,,,,,,,,,5c5825dedd470300014edf4b,2020-11-27_15h03.19.590,lexical_decision_task_MP_exp2,2020.2.5,Linux x86_64,60,m,1,0.599685,,,,,,,,0.599685,1,,,,,,77,WORD,UN,33,column,RACKET,m,,,,,,0.005475375,-0.271263643,0,0,0,,0,92,92,136,1,
,,,,,,,,,,,,,,,,,,5c5825dedd470300014edf4b,2020-11-27_15h03.19.590,lexical_decision_task_MP_exp2,2020.2.5,Linux x86_64,60,z,1,0.568765,,,,,,,,0.568765,1,,,,,,378,NW,UN,16,auting,SHRILE,z,,,,,,0.005475375,-0.271263643,0,0,0,,0,93,93,437,1,
,,,,,,,,,,,,,,,,,,5c5825dedd470300014edf4b,2020-11-27_15h03.19.590,lexical_decision_task_MP_exp2,2020.2.5,Linux x86_64,60,z,0,0.704785,,,,,,,,0.704785,0,,,,,,222,WORD,"ID",33,hinder,HINDER,m,,,,,,0.005475375,-0.271263643,0,0,0,,0,94,94,41,1,
,,,,,,,,,,,,,,,,,,5c5825dedd470300014edf4b,2020-11-27_15h03.19.590,lexical_decision_task_MP_exp2,2020.2.5,Linux x86_64,60,m,1,0.53895,,,,,,,,0.53895,1,,,,,,57,WORD,"ID",16,change,CHANGE,m,,,,,,0.005475375,-0.271263643,0,0,0,,0,95,95,116,1,
,,,,,,,,,,,,,,,,,,5c5825dedd470300014edf4b,2020-11-27_15h03.19.590,lexical_decision_task_MP_exp2,2020.2.5,Linux x86_64,60,z,1,0.602935,,,,,,,,0.602935,1,,,,,,435,NW,"ID",33,impurb,IMPURB,z,,,,,,0.005475375,-0.271263643,0,0,0,,0,96,96,254,1,
,,,,,,,,,,,,,,,,,,5c5825dedd470300014edf4b,2020-11-27_15h03.19.590,lexical_decision_task_MP_exp2,2020.2.5,Linux x86_64,60,m,1,0.57293,,,,,,,,0.57293,1,,,,,,71,WORD,UN,33,bright,GARDEN,m,,,,,,0.005475375,-0.271263643,0,0,0,,0,97,97,130,1,
,,,,,,,,,,,,,,,,,,5c5825dedd470300014edf4b,2020-11-27_15h03.19.590,lexical_decision_task_MP_exp2,2020.2.5,Linux x86_64,60,z,1,0.548435,,,,,,,,0.548435,1,,,,,,463,NW,"ID",33,kispel,KISPEL,z,,,,,,0.005475375,-0.271263643,0,0,0,,0,98,98,282,1,
,,,,,,,,,,,,,,,,,,5c5825dedd470300014edf4b,2020-11-27_15h03.19.590,lexical_decision_task_MP_exp2,2020.2.5,Linux x86_64,60,z,1,0.7201,,,,,,,,0.7201,1,,,,,,286,NW,"ID",16,reldon,RELDON,z,,,,,,0.005475375,-0.271263643,0,0,0,,0,99,99,345,1,
,,,,,,,,,,,,,,,,,,5c5825dedd470300014edf4b,2020-11-27_15h03.19.590,lexical_decision_task_MP_exp2,2020.2.5,Linux x86_64,60,m,0,0.783055,,,,,,,,0.783055,0,,,,,,413,NW,UN,16,serbol,EQUATS,z,,,,,,0.005475375,-0.271263643,0,0,0,,0,100,100,472,1,
,,,,,,,,,,,,,,,,,,5c5825dedd470300014edf4b,2020-11-27_15h03.19.590,lexical_decision_task_MP_exp2,2020.2.5,Linux x86_64,60,m,1,0.73189,,,,,,,,0.73189,1,,,,,,214,WORD,"ID",33,intake,INTAKE,m,,,,,,0.005475375,-0.271263643,0,0,0,,0,101,101,33,1,
,,,,,,,,,,,,,,,,,,5c5825dedd470300014edf4b,2020-11-27_15h03.19.590,lexical_decision_task_MP_exp2,2020.2.5,Linux x86_64,60,z,1,0.63185,,,,,,,,0.63185,1,,,,,,247,NW,"ID",16,blarge,BLARGE,z,,,,,,0.005475375,-0.271263643,0,0,0,,0,102,102,306,1,
,,,,,,,,,,,,,,,,,,5c5825dedd470300014edf4b,2020-11-27_15h03.19.590,lexical_decision_task_MP_exp2,2020.2.5,Linux x86_64,60,z,0,0.62028,,,,,,,,0.62028,0,,,,,,16,WORD,"ID",16,faucet,FAUCET,m,,,,,,0.005475375,-0.271263643,0,0,0,,0,103,103,75,1,
,,,,,,,,,,,,,,,,,,5c5825dedd470300014edf4b,2020-11-27_15h03.19.590,lexical_decision_task_MP_exp2,2020.2.5,Linux x86_64,60,m,1,0.58912,,,,,,,,0.58912,1,,,,,,235,WORD,"ID",33,grumpy,GRUMPY,m,,,,,,0.005475375,-0.271263643,0,0,0,,0,104,104,54,1,
,,,,,,,,,,,,,,,,,,5c5825dedd470300014edf4b,2020-11-27_15h03.19.590,lexical_decision_task_MP_exp2,2020.2.5,Linux x86_64,60,m,1,0.60443,,,,,,,,0.60443,1,,,,,,158,WORD,UN,16,detail,ISLAND,m,,,,,,0.005475375,-0.271263643,0,0,0,,0,105,105,217,1,
,,,,,,,,,,,,,,,,,,5c5825dedd470300014edf4b,2020-11-27_15h03.19.590,lexical_decision_task_MP_exp2,2020.2.5,Linux x86_64,60,z,1,0.650245,,,,,,,,0.650245,1,,,,,,261,NW,"ID",16,stunch,STUNCH,z,,,,,,0.005475375,-0.271263643,0,0,0,,0,106,106,320,1,
,,,,,,,,,,,,,,,,,,5c5825dedd470300014edf4b,2020-11-27_15h03.19.590,lexical_decision_task_MP_exp2,2020.2.5,Linux x86_64,60,z,1,0.637075,,,,,,,,0.637075,1,,,,,,244,NW,"ID",16,eatric,EATRIC,z,,,,,,0.005475375,-0.271263643,0,0,0,,0,107,107,303,1,
,,,,,,,,,,,,,,,,,,5c5825dedd470300014edf4b,2020-11-27_15h03.19.590,lexical_decision_task_MP_exp2,2020.2.5,Linux x86_64,60,z,1,0.587155,,,,,,,,0.587155,1,,,,,,376,NW,UN,16,veigma,IGUARE,z,,,,,,0.005475375,-0.271263643,0,0,0,,0,108,108,435,1,
,,,,,,,,,,,,,,,,,,5c5825dedd470300014edf4b,2020-11-27_15h03.19.590,lexical_decision_task_MP_exp2,2020.2.5,Linux x86_64,60,z,1,0.582145,,,,,,,,0.582145,1,,,,,,467,NW,"ID",33,gorbie,GORBIE,z,,,,,,0.005475375,-0.271263643,0,0,0,,0,109,109,286,1,
,,,,,,,,,,,,,,,,,,5c5825dedd470300014edf4b,2020-11-27_15h03.19.590,lexical_decision_task_MP_exp2,2020.2.5,Linux x86_64,60,z,1,0.505445,,,,,,,,0.505445,1,,,,,,351,NW,UN,33,tringe,TIESCH,z,,,,,,0.005475375,-0.271263643,0,0,0,,0,110,110,410,1,
,,,,,,,,,,,,,,,,,,5c5825dedd470300014edf4b,2020-11-27_15h03.19.590,lexical_decision_task_MP_exp2,2020.2.5,Linux x86_64,60,m,1,0.568435,,,,,,,,0.568435,1,,,,,,225,WORD,"ID",33,vulgar,VULGAR,m,,,,,,0.005475375,-0.271263643,0,0,0,,0,111,111,44,1,
,,,,,,,,,,,,,,,,,,5c5825dedd470300014edf4b,2020-11-27_15h03.19.590,lexical_decision_task_MP_exp2,2020.2.5,Linux x86_64,60,m,1,0.52067,,,,,,,,0.52067,1,,,,,,73,WORD,UN,33,plaque,SOURCE,m,,,,,,0.005475375,-0.271263643,0,0,0,,0,112,112,132,1,
,,,,,,,,,,,,,,,,,,5c5825dedd470300014edf4b,2020-11-27_15h03.19.590,lexical_decision_task_MP_exp2,2020.2.5,Linux x86_64,60,z,1,0.59911,,,,,,,,0.59911,1,,,,,,328,NW,UN,33,yarike,BROAKE,z,,,,,,0.005475375,-0.271263643,0,0,0,,0,113,113,387,1,
,,,,,,,,,,,,,,,,,,5c5825dedd470300014edf4b,2020-11-27_15h03.19.590,lexical_decision_task_MP_exp2,2020.2.5,Linux x86_64,60,m,1,0.682515,,,,,,,,0.682515,1,,,,,,101,WORD,UN,33,direct,WRENCH,m,,,,,,0.005475375,-0.271263643,0,0,0,,0,114,114,160,1,
,,,,,,,,,,,,,,,,,,5c5825dedd470300014edf4b,2020-11-27_15h03.19.590,lexical_decision_task_MP_exp2,2020.2.5,Linux x86_64,60,z,1,0.6705,,,,,,,,0.6705,1,,,,,,377,NW,UN,16,shrile,INJORE,z,,,,,,0.005475375,-0.271263643,0,0,0,,0,115,115,436,1,
,,,,,,,,,,,,,,,,,,5c5825dedd470300014edf4b,2020-11-27_15h03.19.590,lexical_decision_task_MP_exp2,2020.2.5,Linux x86_64,60,m,1,0.49859,,,,,,,,0.49859,1,,,,,,187,WORD,"ID",33,course,COURSE,m,,,,,,0.005475375,-0.271263643,0,0,0,,0,116,116,6,1,
,,,,,,,,,,,,,,,,,,5c5825dedd470300014edf4b,2020-11-27_15h03.19.590,lexical_decision_task_MP_exp2,2020.2.5,Linux x86_64,60,z,1,0.49887,,,,,,,,0.49887,1,,,,,,379,NW,UN,16,cavory,AUTING,z,,,,,,0.005475375,-0.271263643,0,0,0,,0,117,117,438,1,
,,,,,,,,,,,,,,,,,,5c5825dedd470300014edf4b,2020-11-27_15h03.19.590,lexical_decision_task_MP_exp2,2020.2.5,Linux x86_64,60,m,1,0.53258,,,,,,,,0.53258,1,,,,,,178,WORD,UN,16,basket,INFORM,m,,,,,,0.005475375,-0.271263643,0,0,0,,0,118,118,237,1,
,,,,,,,,,,,,,,,,,,5c5825dedd470300014edf4b,2020-11-27_15h03.19.590,lexical_decision_task_MP_exp2,2020.2.5,Linux x86_64,60,z,1,0.466645,,,,,,,,0.466645,1,,,,,,439,NW,"ID",33,limpor,LIMPOR,z,,,,,,0.005475375,-0.271263643,0,0,0,,0,119,119,258,1,
,,,,,,,,,,,,,,,,,,5c5825dedd470300014edf4b,2020-11-27_15h03.19.590,lexical_decision_task_MP_exp2,2020.2.5,Linux x86_64,60,z,0,0.504355,,,,,,,,0.504355,0,,,,,,8,WORD,"ID",16,abrupt,ABRUPT,m,,,,,,0.005475375,-0.271263643,0,0,0,space,0,120,120,67,1,14.5129
,,,,,,,,,,,,,,,,,,5c5825dedd470300014edf4b,2020-11-27_15h03.19.590,lexical_decision_task_MP_exp2,2020.2.5,Linux x86_64,60,m,1,0.77474,,,,,,,,0.77474,1,,,,,,120,WORD,UN,33,ponder,STRAIN,m,,,,,,0.005475375,-0.271263643,0,0,0,,0,121,121,179,1,
,,,,,,,,,,,,,,,,,,5c5825dedd470300014edf4b,2020-11-27_15h03.19.590,lexical_decision_task_MP_exp2,2020.2.5,Linux x86_64,60,z,1,0.76679,,,,,,,,0.76679,1,,,,,,280,NW,"ID",16,curbol,CURBOL,z,,,,,,0.005475375,-0.271263643,0,0,0,,0,122,122,339,1,
,,,,,,,,,,,,,,,,,,5c5825dedd470300014edf4b,2020-11-27_15h03.19.590,lexical_decision_task_MP_exp2,2020.2.5,Linux x86_64,60,m,1,0.554185,,,,,,,,0.554185,1,,,,,,27,WORD,"ID",16,scream,SCREAM,m,,,,,,0.005475375,-0.271263643,0,0,0,,0,123,123,86,1,
,,,,,,,,,,,,,,,,,,5c5825dedd470300014edf4b,2020-11-27_15h03.19.590,lexical_decision_task_MP_exp2,2020.2.5,Linux x86_64,60,z,1,0.58867,,,,,,,,0.58867,1,,,,,,448,NW,"ID",33,sadent,SADENT,z,,,,,,0.005475375,-0.271263643,0,0,0,,0,124,124,267,1,
,,,,,,,,,,,,,,,,,,5c5825dedd470300014edf4b,2020-11-27_15h03.19.590,lexical_decision_task_MP_exp2,2020.2.5,Linux x86_64,60,z,1,0.61845,,,,,,,,0.61845,1,,,,,,453,NW,"ID",33,bolvis,BOLVIS,z,,,,,,0.005475375,-0.271263643,0,0,0,,0,125,125,272,1,
,,,,,,,,,,,,,,,,,,5c5825dedd470300014edf4b,2020-11-27_15h03.19.590,lexical_decision_task_MP_exp2,2020.2.5,Linux x86_64,60,m,1,0.76543,,,,,,,,0.76543,1,,,,,,99,WORD,UN,33,carbon,FLUENT,m,,,,,,0.005475375,-0.271263643,0,0,0,,0,126,126,158,1,
,,,,,,,,,,,,,,,,,,5c5825dedd470300014edf4b,2020-11-27_15h03.19.590,lexical_decision_task_MP_exp2,2020.2.5,Linux x86_64,60,z,1,0.921185,,,,,,,,0.921185,1,,,,,,420,NW,UN,16,pauche,GUSHOP,z,,,,,,0.005475375,-0.271263643,0,0,0,,0,127,127,479,1,
,,,,,,,,,,,,,,,,,,5c5825dedd470300014edf4b,2020-11-27_15h03.19.590,lexical_decision_task_MP_exp2,2020.2.5,Linux x86_64,60,z,0,0.754095,,,,,,,,0.754095,0,,,,,,45,WORD,"ID",16,clergy,CLERGY,m,,,,,,0.005475375,-0.271263643,0,0,0,,0,128,128,104,1,
,,,,,,,,,,,,,,,,,,5c5825dedd470300014edf4b,2020-11-27_15h03.19.590,lexical_decision_task_MP_exp2,2020.2.5,Linux x86_64,60,m,1,0.58157,,,,,,,,0.58157,1,,,,,,20,WORD,"ID",16,breast,BREAST,m,,,,,,0.005475375,-0.271263643,0,0,0,,0,129,129,79,1,
,,,,,,,,,,,,,,,,,,5c5825dedd470300014edf4b,2020-11-27_15h03.19.590,lexical_decision_task_MP_exp2,2020.2.5,Linux x86_64,60,z,1,0.54878,,,,,,,,0.54878,1,,,,,,423,NW,"ID",33,streld,STRELD,z,,,,,,0.005475375,-0.271263643,0,0,0,,0,130,130,242,1,
,,,,,,,,,,,,,,,,,,5c5825dedd470300014edf4b,2020-11-27_15h03.19.590,lexical_decision_task_MP_exp2,2020.2.5,Linux x86_64,60,m,1,0.521015,,,,,,,,0.521015,1,,,,,,11,WORD,"ID",16,cruise,CRUISE,m,,,,,,0.005475375,-0.271263643,0,0,0,,0,131,131,70,1,
,,,,,,,,,,,,,,,,,,5c5825dedd470300014edf4b,2020-11-27_15h03.19.590,lexical_decision_task_MP_exp2,2020.2.5,Linux x86_64,60,m,1,1.089265,,,,,,,,1.089265,1,,,,,,63,WORD,UN,33,throne,LAUNCH,m,,,,,,0.005475375,-0.271263643,0,0,0,,0,132,132,122,1,
,,,,,,,,,,,,,,,,,,5c5825dedd470300014edf4b,2020-11-27_15h03.19.590,lexical_decision_task_MP_exp2,2020.2.5,Linux x86_64,60,m,1,0.71503,,,,,,,,0.71503,1,,,,,,21,WORD,"ID",16,simple,SIMPLE,m,,,,,,0.005475375,-0.271263643,0,0,0,,0,133,133,80,1,
,,,,,,,,,,,,,,,,,,5c5825dedd470300014edf4b,2020-11-27_15h03.19.590,lexical_decision_task_MP_exp2,2020.2.5,Linux x86_64,60,z,1,0.632355,,,,,,,,0.632355,1,,,,,,468,NW,"ID",33,wictor,WICTOR,z,,,,,,0.005475375,-0.271263643,0,0,0,,0,134,134,287,1,
,,,,,,,,,,,,,,,,,,5c5825dedd470300014edf4b,2020-11-27_15h03.19.590,lexical_decision_task_MP_exp2,2020.2.5,Linux x86_64,60,z,1,0.80482,,,,,,,,0.80482,1,,,,,,397,NW,UN,16,blunde,CAMBLE,z,,,,,,0.005475375,-0.271263643,0,0,0,,0,135,135,456,1,
,,,,,,,,,,,,,,,,,,5c5825dedd470300014edf4b,2020-11-27_15h03.19.590,lexical_decision_task_MP_exp2,2020.2.5,Linux x86_64,60,m,1,0.55343,,,,,,,,0.55343,1,,,,,,60,WORD,"ID",16,pencil,PENCIL,m,,,,,,0.005475375,-0.271263643,0,0,0,,0,136,136,119,1,
,,,,,,,,,,,,,,,,,,5c5825dedd470300014edf4b,2020-11-27_15h03.19.590,lexical_decision_task_MP_exp2,2020.2.5,Linux x86_64,60,z,1,0.570795,,,,,,,,0.570795,1,,,,,,469,NW,"ID",33,padifs,PADIFS,z,,,,,,0.005475375,-0.271263643,0,0,0,,0,137,137,288,1,
,,,,,,,,,,,,,,,,,,5c5825dedd470300014edf4b,2020-11-27_15h03.19.590,lexical_decision_task_MP_exp2,2020.2.5,Linux x86_64,60,z,1,0.588555,,,,,,,,0.588555,1,,,,,,264,NW,"ID",16,vackel,VACKEL,z,,,,,,0.005475375,-0.271263643,0,0,0,,0,138,138,323,1,
,,,,,,,,,,,,,,,,,,5c5825dedd470300014edf4b,2020-11-27_15h03.19.590,lexical_decision_task_MP_exp2,2020.2.5,Linux x86_64,60,m,1,0.82174,,,,,,,,0.82174,1,,,,,,42,WORD,"ID",16,chapel,CHAPEL,m,,,,,,0.005475375,-0.271263643,0,0,0,,0,139,139,101,1,
,,,,,,,,,,,,,,,,,,5c5825dedd470300014edf4b,2020-11-27_15h03.19.590,lexical_decision_task_MP_exp2,2020.2.5,Linux x86_64,60,m,1,0.56568,,,,,,,,0.56568,1,,,,,,55,WORD,"ID",16,stroke,STROKE,m,,,,,,0.005475375,-0.271263643,0,0,0,,0,140,140,114,1,
,,,,,,,,,,,,,,,,,,5c5825dedd470300014edf4b,2020-11-27_15h03.19.590,lexical_decision_task_MP_exp2,2020.2.5,Linux x86_64,60,z,1,0.53958,,,,,,,,0.53958,1,,,,,,441,NW,"ID",33,rastoe,RASTOE,z,,,,,,0.005475375,-0.271263643,0,0,0,,0,141,141,260,1,
,,,,,,,,,,,,,,,,,,5c5825dedd470300014edf4b,2020-11-27_15h03.19.590,lexical_decision_task_MP_exp2,2020.2.5,Linux x86_64,60,z,1,0.753515,,,,,,,,0.753515,1,,,,,,372,NW,UN,16,bigent,RAMILY,z,,,,,,0.005475375,-0.271263643,0,0,0,,0,142,142,431,1,
,,,,,,,,,,,,,,,,,,5c5825dedd470300014edf4b,2020-11-27_15h03.19.590,lexical_decision_task_MP_exp2,2020.2.5,Linux x86_64,60,m,1,0.68032,,,,,,,,0.68032,1,,,,,,117,WORD,UN,33,flight,BRANCH,m,,,,,,0.005475375,-0.271263643,0,0,0,,0,143,143,176,1,
,,,,,,,,,,,,,,,,,,5c5825dedd470300014edf4b,2020-11-27_15h03.19.590,lexical_decision_task_MP_exp2,2020.2.5,Linux x86_64,60,z,0,0.56715,,,,,,,,0.56715,0,,,,,,128,WORD,UN,16,marvel,SENIOR,m,,,,,,0.005475375,-0.271263643,0,0,0,,0,144,144,187,1,
,,,,,,,,,,,,,,,,,,5c5825dedd470300014edf4b,2020-11-27_15h03.19.590,lexical_decision_task_MP_exp2,2020.2.5,Linux x86_64,60,z,1,0.63245,,,,,,,,0.63245,1,,,,,,350,NW,UN,33,tiesch,NAGURS,z,,,,,,0.005475375,-0.271263643,0,0,0,,0,145,145,409,1,
,,,,,,,,,,,,,,,,,,5c5825dedd470300014edf4b,2020-11-27_15h03.19.590,lexical_decision_task_MP_exp2,2020.2.5,Linux x86_64,60,z,1,0.783335,,,,,,,,0.783335,1,,,,,,285,NW,"ID",16,prudge,PRUDGE,z,,,,,,0.005475375,-0.271263643,0,0,0,,0,146,146,344,1,
,,,,,,,,,,,,,,,,,,5c5825dedd470300014edf4b,2020-11-27_15h03.19.590,lexical_decision_task_MP_exp2,2020.2.5,Linux x86_64,60,m,1,0.43313,,,,,,,,0.43313,1,,,,,,174,WORD,UN,16,fabric,TURKEY,m,,,,,,0.005475375,-0.271263643,0,0,0,,0,147,147,233,1,
,,,,,,,,,,,,,,,,,,5c5825dedd470300014edf4b,2020-11-27_15h03.19.590,lexical_decision_task_MP_exp2,2020.2.5,Linux x86_64,60,z,1,0.636265,,,,,,,,0.636265,1,,,,,,422,NW,"ID",33,alcoud,ALCOUD,z,,,,,,0.005475375,-0.271263643,0,0,0,,0,148,148,241,1,
,,,,,,,,,,,,,,,,,,5c5825dedd470300014edf4b,2020-11-27_15h03.19.590,lexical_decision_task_MP_exp2,2020.2.5,Linux x86_64,60,z,1,0.555375,,,,,,,,0.555375,1,,,,,,436,NW,"ID",33,frutan,FRUTAN,z,,,,,,0.005475375,-0.271263643,0,0,0,,0,149,149,255,1,
,,,,,,,,,,,,,,,,,,5c5825dedd470300014edf4b,2020-11-27_15h03.19.590,lexical_decision_task_MP_exp2,2020.2.5,Linux x86_64,60,m,1,0.438885,,,,,,,,0.438885,1,,,,,,31,WORD,"ID",16,weapon,WEAPON,m,,,,,,0.005475375,-0.271263643,0,0,0,,0,150,150,90,1,
,,,,,,,,,,,,,,,,,,5c5825dedd470300014edf4b,2020-11-27_15h03.19.590,lexical_decision_task_MP_exp2,2020.2.5,Linux x86_64,60,m,0,0.739765,,,,,,,,0.739765,0,,,,,,284,NW,"ID",16,shaple,SHAPLE,z,,,,,,0.005475375,-0.271263643,0,0,0,,0,151,151,343,1,
,,,,,,,,,,,,,,,,,,5c5825dedd470300014edf4b,2020-11-27_15h03.19.590,lexical_decision_task_MP_exp2,2020.2.5,Linux x86_64,60,z,1,0.705405,,,,,,,,0.705405,1,,,,,,315,NW,UN,33,scregm,LASTON,z,,,,,,0.005475375,-0.271263643,0,0,0,,0,152,152,374,1,
,,,,,,,,,,,,,,,,,,5c5825dedd470300014edf4b,2020-11-27_15h03.19.590,lexical_decision_task_MP_exp2,2020.2.5,Linux x86_64,60,m,1,0.605125,,,,,,,,0.605125,1,,,,,,66,WORD,UN,33,policy,GOSPEL,m,,,,,,0.005475375,-0.271263643,0,0,0,,0,153,153,125,1,
,,,,,,,,,,,,,,,,,,5c5825dedd470300014edf4b,2020-11-27_15h03.19.590,lexical_decision_task_MP_exp2,2020.2.5,Linux x86_64,60,m,1,0.866245,,,,,,,,0.866245,1,,,,,,59,WORD,"ID",16,splint,SPLINT,m,,,,,,0.005475375,-0.271263643,0,0,0,,0,154,154,118,1,
,,,,,,,,,,,,,,,,,,5c5825dedd470300014edf4b,2020-11-27_15h03.19.590,lexical_decision_task_MP_exp2,2020.2.5,Linux x86_64,60,m,1,0.516155,,,,,,,,0.516155,1,,,,,,26,WORD,"ID",16,sprint,SPRINT,m,,,,,,0.005475375,-0.271263643,0,0,0,,0,155,155,85,1,
,,,,,,,,,,,,,,,,,,5c5825dedd470300014edf4b,2020-11-27_15h03.19.590,lexical_decision_task_MP_exp2,2020.2.5,Linux x86_64,60,z,0,0.536185,,,,,,,,0.536185,0,,,,,,82,WORD,UN,33,result,STIGMA,m,,,,,,0.005475375,-0.271263643,0,0,0,,0,156,156,141,1,
,,,,,,,,,,,,,,,,,,5c5825dedd470300014edf4b,2020-11-27_15h03.19.590,lexical_decision_task_MP_exp2,2020.2.5,Linux x86_64,60,m,1,0.648695,,,,,,,,0.648695,1,,,,,,88,WORD,UN,33,permit,HUNGER,m,,,,,,0.005475375,-0.271263643,0,0,0,,0,157,157,147,1,
,,,,,,,,,,,,,,,,,,5c5825dedd470300014edf4b,2020-11-27_15h03.19.590,lexical_decision_task_MP_exp2,2020.2.5,Linux x86_64,60,z,1,0.621865,,,,,,,,0.621865,1,,,,,,360,NW,UN,33,fainch,DESORY,z,,,,,,0.005475375,-0.271263643,0,0,0,,0,158,158,419,1,
,,,,,,,,,,,,,,,,,,5c5825dedd470300014edf4b,2020-11-27_15h03.19.590,lexical_decision_task_MP_exp2,2020.2.5,Linux x86_64,60,m,1,0.787645,,,,,,,,0.787645,1,,,,,,113,WORD,UN,33,placid,CHORUS,m,,,,,,0.005475375,-0.271263643,0,0,0,,0,159,159,172,1,
,,,,,,,,,,,,,,,,,,5c5825dedd470300014edf4b,2020-11-27_15h03.19.590,lexical_decision_task_MP_exp2,2020.2.5,Linux x86_64,60,m,1,0.537665,,,,,,,,0.537665,1,,,,,,148,WORD,UN,16,invade,CUSTOM,m,,,,,,0.005475375,-0.271263643,0,0,0,,0,160,160,207,1,
,,,,,,,,,,,,,,,,,,5c5825dedd470300014edf4b,2020-11-27_15h03.19.590,lexical_decision_task_MP_exp2,2020.2.5,Linux x86_64,60,m,1,0.62095,,,,,,,,0.62095,1,,,,,,175,WORD,UN,16,strife,FABRIC,m,,,,,,0.005475375,-0.271263643,0,0,0,,0,161,161,234,1,
,,,,,,,,,,,,,,,,,,5c5825dedd470300014edf4b,2020-11-27_15h03.19.590,lexical_decision_task_MP_exp2,2020.2.5,Linux x86_64,60,z,1,0.58816,,,,,,,,0.58816,1,,,,,,324,NW,UN,33,thruse,STEIKH,z,,,,,,0.005475375,-0.271263643,0,0,0,,0,162,162,383,1,
,,,,,,,,,,,,,,,,,,5c5825dedd470300014edf4b,2020-11-27_15h03.19.590,lexical_decision_task_MP_exp2,2020.2.5,Linux x86_64,60,z,1,0.621975,,,,,,,,0.621975,1,,,,,,252,NW,"ID",16,stapod,STAPOD,z,,,,,,0.005475375,-0.271263643,0,0,0,,0,163,163,311,1,
,,,,,,,,,,,,,,,,,,5c5825dedd470300014edf4b,2020-11-27_15h03.19.590,lexical_decision_task_MP_exp2,2020.2.5,Linux x86_64,60,z,1,0.582575,,,,,,,,0.582575,1,,,,,,259,NW,"ID",16,soudal,SOUDAL,z,,,,,,0.005475375,-0.271263643,0,0,0,,0,164,164,318,1,
,,,,,,,,,,,,,,,,,,5c5825dedd470300014edf4b,2020-11-27_15h03.19.590,lexical_decision_task_MP_exp2,2020.2.5,Linux x86_64,60,z,1,0.64881,,,,,,,,0.64881,1,,,,,,304,NW,UN,33,forgle,CLUDIE,z,,,,,,0.005475375,-0.271263643,0,0,0,,0,165,165,363,1,
,,,,,,,,,,,,,,,,,,5c5825dedd470300014edf4b,2020-11-27_15h03.19.590,lexical_decision_task_MP_exp2,2020.2.5,Linux x86_64,60,z,1,0.474745,,,,,,,,0.474745,1,,,,,,331,NW,UN,33,vangue,GILFEW,z,,,,,,0.005475375,-0.271263643,0,0,0,,0,166,166,390,1,
,,,,,,,,,,,,,,,,,,5c5825dedd470300014edf4b,2020-11-27_15h03.19.590,lexical_decision_task_MP_exp2,2020.2.5,Linux x86_64,60,z,1,0.48823,,,,,,,,0.48823,1,,,,,,309,NW,UN,33,daniet,AMILOY,z,,,,,,0.005475375,-0.271263643,0,0,0,,0,167,167,368,1,
,,,,,,,,,,,,,,,,,,5c5825dedd470300014edf4b,2020-11-27_15h03.19.590,lexical_decision_task_MP_exp2,2020.2.5,Linux x86_64,60,m,1,0.508135,,,,,,,,0.508135,1,,,,,,115,WORD,UN,33,tumble,GUITAR,m,,,,,,0.005475375,-0.271263643,0,0,0,,0,168,168,174,1,
,,,,,,,,,,,,,,,,,,5c5825dedd470300014edf4b,2020-11-27_15h03.19.590,lexical_decision_task_MP_exp2,2020.2.5,Linux x86_64,60,m,1,0.508045,,,,,,,,0.508045,1,,,,,,118,WORD,UN,33,spider,FLIGHT,m,,,,,,0.005475375,-0.271263643,0,0,0,,0,169,169,177,1,
,,,,,,,,,,,,,,,,,,5c5825dedd470300014edf4b,2020-11-27_15h03.19.590,lexical_decision_task_MP_exp2,2020.2.5,Linux x86_64,60,z,1,0.448885,,,,,,,,0.448885,1,,,,,,326,NW,UN,33,plenac,IGUADE,z,,,,,,0.005475375,-0.271263643,0,0,0,,0,170,170,385,1,
,,,,,,,,,,,,,,,,,,5c5825dedd470300014edf4b,2020-11-27_15h03.19.590,lexical_decision_task_MP_exp2,2020.2.5,Linux x86_64,60,m,1,0.588685,,,,,,,,0.588685,1,,,,,,167,WORD,UN,16,answer,DESIGN,m,,,,,,0.005475375,-0.271263643,0,0,0,,0,171,171,226,1,
,,,,,,,,,,,,,,,,,,5c5825dedd470300014edf4b,2020-11-27_15h03.19.590,lexical_decision_task_MP_exp2,2020.2.5,Linux x86_64,60,m,1,0.493385,,,,,,,,0.493385,1,,,,,,102,WORD,UN,33,bounce,DIRECT,m,,,,,,0.005475375,-0.271263643,0,0,0,,0,172,172,161,1,
,,,,,,,,,,,,,,,,,,5c5825dedd470300014edf4b,2020-11-27_15h03.19.590,lexical_decision_task_MP_exp2,2020.2.5,Linux x86_64,60,m,1,0.48168,,,,,,,,0.48168,1,,,,,,144,WORD,UN,16,parish,SPONGE,m,,,,,,0.005475375,-0.271263643,0,0,0,,0,173,173,203,1,
,,,,,,,,,,,,,,,,,,5c5825dedd470300014edf4b,2020-11-27_15h03.19.590,lexical_decision_task_MP_exp2,2020.2.5,Linux x86_64,60,z,1,0.504595,,,,,,,,0.504595,1,,,,,,374,NW,UN,16,yorque,SLIANT,z,,,,,,0.005475375,-0.271263643,0,0,0,,0,174,174,433,1,
,,,,,,,,,,,,,,,,,,5c5825dedd470300014edf4b,2020-11-27_15h03.19.590,lexical_decision_task_MP_exp2,2020.2.5,Linux x86_64,60,z,1,0.570825,,,,,,,,0.570825,1,,,,,,295,NW,"ID",16,gleath,GLEATH,z,,,,,,0.005475375,-0.271263643,0,0,0,,0,175,175,354,1,
,,,,,,,,,,,,,,,,,,5c5825dedd470300014edf4b,2020-11-27_15h03.19.590,lexical_decision_task_MP_exp2,2020.2.5,Linux x86_64,60,m,1,0.531515,,,,,,,,0.531515,1,,,,,,121,WORD,UN,16,linger,THRIVE,m,,,,,,0.005475375,-0.271263643,0,0,0,,0,176,176,180,1,
,,,,,,,,,,,,,,,,,,5c5825dedd470300014edf4b,2020-11-27_15h03.19.590,lexical_decision_task_MP_exp2,2020.2.5,Linux x86_64,60,z,1,0.51587,,,,,,,,0.51587,1,,,,,,408,NW,UN,16,elopia,HURNIA,z,,,,,,0.005475375,-0.271263643,0,0,0,,0,177,177,467,1,
,,,,,,,,,,,,,,,,,,5c5825dedd470300014edf4b,2020-11-27_15h03.19.590,lexical_decision_task_MP_exp2,2020.2.5,Linux x86_64,60,z,1,0.68272,,,,,,,,0.68272,1,,,,,,253,NW,"ID",16,resait,RESAIT,z,,,,,,0.005475375,-0.271263643,0,0,0,,0,178,178,312,1,
,,,,,,,,,,,,,,,,,,5c5825dedd470300014edf4b,2020-11-27_15h03.19.590,lexical_decision_task_MP_exp2,2020.2.5,Linux x86_64,60,m,1,0.554995,,,,,,,,0.554995,1,,,,,,50,WORD,"ID",16,snatch,SNATCH,m,,,,,,0.005475375,-0.271263643,0,0,0,,0,179,179,109,1,
,,,,,,,,,,,,,,,,,,5c5825dedd470300014edf4b,2020-11-27_15h03.19.590,lexical_decision_task_MP_exp2,2020.2.5,Linux x86_64,60,m,1,0.47291,,,,,,,,0.47291,1,,,,,,239,WORD,"ID",33,lumber,LUMBER,m,,,,,,0.005475375,-0.271263643,0,0,0,,0,180,180,58,1,
,,,,,,,,,,,,,,,,,,5c5825dedd470300014edf4b,2020-11-27_15h03.19.590,lexical_decision_task_MP_exp2,2020.2.5,Linux x86_64,60,z,1,0.47126,,,,,,,,0.47126,1,,,,,,311,NW,UN,33,nerawl,SPROLY,z,,,,,,0.005475375,-0.271263643,0,0,0,,0,181,181,370,1,
,,,,,,,,,,,,,,,,,,5c5825dedd470300014edf4b,2020-11-27_15h03.19.590,lexical_decision_task_MP_exp2,2020.2.5,Linux x86_64,60,z,0,0.53203,,,,,,,,0.53203,0,,,,,,200,WORD,"ID",33,beacon,BEACON,m,,,,,,0.005475375,-0.271263643,0,0,0,,0,182,182,19,1,
,,,,,,,,,,,,,,,,,,5c5825dedd470300014edf4b,2020-11-27_15h03.19.590,lexical_decision_task_MP_exp2,2020.2.5,Linux x86_64,60,z,0,0.73738,,,,,,,,0.73738,0,,,,,,156,WORD,UN,16,depart,CRADLE,m,,,,,,0.005475375,-0.271263643,0,0,0,,0,183,183,215,1,
,,,,,,,,,,,,,,,,,,5c5825dedd470300014edf4b,2020-11-27_15h03.19.590,lexical_decision_task_MP_exp2,2020.2.5,Linux x86_64,60,m,1,0.757505,,,,,,,,0.757505,1,,,,,,53,WORD,"ID",16,police,POLICE,m,,,,,,0.005475375,-0.271263643,0,0,0,,0,184,184,112,1,
,,,,,,,,,,,,,,,,,,5c5825dedd470300014edf4b,2020-11-27_15h03.19.590,lexical_decision_task_MP_exp2,2020.2.5,Linux x86_64,60,m,1,0.53239,,,,,,,,0.53239,1,,,,,,150,WORD,UN,16,mystic,RANDOM,m,,,,,,0.005475375,-0.271263643,0,0,0,,0,185,185,209,1,
,,,,,,,,,,,,,,,,,,5c5825dedd470300014edf4b,2020-11-27_15h03.19.590,lexical_decision_task_MP_exp2,2020.2.5,Linux x86_64,60,m,1,0.499975,,,,,,,,0.499975,1,,,,,,136,WORD,UN,16,finger,BLEACH,m,,,,,,0.005475375,-0.271263643,0,0,0,,0,186,186,195,1,
,,,,,,,,,,,,,,,,,,5c5825dedd470300014edf4b,2020-11-27_15h03.19.590,lexical_decision_task_MP_exp2,2020.2.5,Linux x86_64,60,m,1,0.520585,,,,,,,,0.520585,1,,,,,,79,WORD,UN,33,family,THEORY,m,,,,,,0.005475375,-0.271263643,0,0,0,,0,187,187,138,1,
,,,,,,,,,,,,,,,,,,5c5825dedd470300014edf4b,2020-11-27_15h03.19.590,lexical_decision_task_MP_exp2,2020.2.5,Linux x86_64,60,z,1,0.457435,,,,,,,,0.457435,1,,,,,,406,NW,UN,16,suiver,NOUPLY,z,,,,,,0.005475375,-0.271263643,0,0,0,,0,188,188,465,1,
,,,,,,,,,,,,,,,,,,5c5825dedd470300014edf4b,2020-11-27_15h03.19.590,lexical_decision_task_MP_exp2,2020.2.5,Linux x86_64,60,m,1,0.466715,,,,,,,,0.466715,1,,,,,,194,WORD,"ID",33,absent,ABSENT,m,,,,,,0.005475375,-0.271263643,0,0,0,,0,189,189,13,1,
,,,,,,,,,,,,,,,,,,5c5825dedd470300014edf4b,2020-11-27_15h03.19.590,lexical_decision_task_MP_exp2,2020.2.5,Linux x86_64,60,m,1,0.482875,,,,,,,,0.482875,1,,,,,,127,WORD,UN,16,senior,CASTLE,m,,,,,,0.005475375,-0.271263643,0,0,0,,0,190,190,186,1,
,,,,,,,,,,,,,,,,,,5c5825dedd470300014edf4b,2020-11-27_15h03.19.590,lexical_decision_task_MP_exp2,2020.2.5,Linux x86_64,60,m,1,0.485925,,,,,,,,0.485925,1,,,,,,213,WORD,"ID",33,squeal,SQUEAL,m,,,,,,0.005475375,-0.271263643,0,0,0,,0,191,191,32,1,
,,,,,,,,,,,,,,,,,,5c5825dedd470300014edf4b,2020-11-27_15h03.19.590,lexical_decision_task_MP_exp2,2020.2.5,Linux x86_64,60,z,1,0.49886,,,,,,,,0.49886,1,,,,,,447,NW,"ID",33,gircue,GIRCUE,z,,,,,,0.005475375,-0.271263643,0,0,0,,0,192,192,266,1,
,,,,,,,,,,,,,,,,,,5c5825dedd470300014edf4b,2020-11-27_15h03.19.590,lexical_decision_task_MP_exp2,2020.2.5,Linux x86_64,60,z,1,0.56596,,,,,,,,0.56596,1,,,,,,364,NW,UN,16,guairt,IMPOTE,z,,,,,,0.005475375,-0.271263643,0,0,0,,0,193,193,423,1,
,,,,,,,,,,,,,,,,,,5c5825dedd470300014edf4b,2020-11-27_15h03.19.590,lexical_decision_task_MP_exp2,2020.2.5,Linux x86_64,60,z,1,0.654375,,,,,,,,0.654375,1,,,,,,368,NW,UN,16,wronch,HORNAL,z,,,,,,0.005475375,-0.271263643,0,0,0,,0,194,194,427,1,
,,,,,,,,,,,,,,,,,,5c5825dedd470300014edf4b,2020-11-27_15h03.19.590,lexical_decision_task_MP_exp2,2020.2.5,Linux x86_64,60,z,1,0.655185,,,,,,,,0.655185,1,,,,,,341,NW,UN,33,randow,MYRTIE,z,,,,,,0.005475375,-0.271263643,0,0,0,,0,195,195,400,1,
,,,,,,,,,,,,,,,,,,5c5825dedd470300014edf4b,2020-11-27_15h03.19.590,lexical_decision_task_MP_exp2,2020.2.5,Linux x86_64,60,z,1,0.558025,,,,,,,,0.558025,1,,,,,,399,NW,UN,16,wearox,FOURET,z,,,,,,0.005475375,-0.271263643,0,0,0,,0,196,196,458,1,
,,,,,,,,,,,,,,,,,,5c5825dedd470300014edf4b,2020-11-27_15h03.19.590,lexical_decision_task_MP_exp2,2020.2.5,Linux x86_64,60,m,1,0.538295,,,,,,,,0.538295,1,,,,,,202,WORD,"ID",33,factor,FACTOR,m,,,,,,0.005475375,-0.271263643,0,0,0,,0,197,197,21,1,
,,,,,,,,,,,,,,,,,,5c5825dedd470300014edf4b,2020-11-27_15h03.19.590,lexical_decision_task_MP_exp2,2020.2.5,Linux x86_64,60,m,1,0.53246,,,,,,,,0.53246,1,,,,,,135,WORD,UN,16,bleach,IMPORT,m,,,,,,0.005475375,-0.271263643,0,0,0,,0,198,198,194,1,
,,,,,,,,,,,,,,,,,,5c5825dedd470300014edf4b,2020-11-27_15h03.19.590,lexical_decision_task_MP_exp2,2020.2.5,Linux x86_64,60,z,1,0.50349,,,,,,,,0.50349,1,,,,,,298,NW,"ID",16,piergy,PIERGY,z,,,,,,0.005475375,-0.271263643,0,0,0,,0,199,199,357,1,
,,,,,,,,,,,,,,,,,,5c5825dedd470300014edf4b,2020-11-27_15h03.19.590,lexical_decision_task_MP_exp2,2020.2.5,Linux x86_64,60,z,0,0.80524,,,,,,,,0.80524,0,,,,,,140,WORD,UN,16,chrome,PRINCE,m,,,,,,0.005475375,-0.271263643,0,0,0,,0,200,200,199,1,
,,,,,,,,,,,,,,,,,,5c5825dedd470300014edf4b,2020-11-27_15h03.19.590,lexical_decision_task_MP_exp2,2020.2.5,Linux x86_64,60,m,1,0.615905,,,,,,,,0.615905,1,,,,,,48,WORD,"ID",16,walnut,WALNUT,m,,,,,,0.005475375,-0.271263643,0,0,0,,0,201,201,107,1,
,,,,,,,,,,,,,,,,,,5c5825dedd470300014edf4b,2020-11-27_15h03.19.590,lexical_decision_task_MP_exp2,2020.2.5,Linux x86_64,60,z,1,1.181655,,,,,,,,1.181655,1,,,,,,272,NW,"ID",16,damilt,DAMILT,z,,,,,,0.005475375,-0.271263643,0,0,0,,0,202,202,331,1,
,,,,,,,,,,,,,,,,,,5c5825dedd470300014edf4b,2020-11-27_15h03.19.590,lexical_decision_task_MP_exp2,2020.2.5,Linux x86_64,60,m,1,0.598535,,,,,,,,0.598535,1,,,,,,87,WORD,UN,33,sprawl,FILTER,m,,,,,,0.005475375,-0.271263643,0,0,0,,0,203,203,146,1,
,,,,,,,,,,,,,,,,,,5c5825dedd470300014edf4b,2020-11-27_15h03.19.590,lexical_decision_task_MP_exp2,2020.2.5,Linux x86_64,60,m,1,0.537365,,,,,,,,0.537365,1,,,,,,240,WORD,"ID",33,forest,FOREST,m,,,,,,0.005475375,-0.271263643,0,0,0,,0,204,204,59,1,
,,,,,,,,,,,,,,,,,,5c5825dedd470300014edf4b,2020-11-27_15h03.19.590,lexical_decision_task_MP_exp2,2020.2.5,Linux x86_64,60,z,1,0.55372,,,,,,,,0.55372,1,,,,,,461,NW,"ID",33,justre,JUSTRE,z,,,,,,0.005475375,-0.271263643,0,0,0,,0,205,205,280,1,
,,,,,,,,,,,,,,,,,,5c5825dedd470300014edf4b,2020-11-27_15h03.19.590,lexical_decision_task_MP_exp2,2020.2.5,Linux x86_64,60,m,1,0.519665,,,,,,,,0.519665,1,,,,,,223,WORD,"ID",33,kidney,KIDNEY,m,,,,,,0.005475375,-0.271263643,0,0,0,,0,206,206,42,1,
,,,,,,,,,,,,,,,,,,5c5825dedd470300014edf4b,2020-11-27_15h03.19.590,lexical_decision_task_MP_exp2,2020.2.5,Linux x86_64,60,z,1,0.519355,,,,,,,,0.519355,1,,,,,,329,NW,UN,33,kensom,YARIKE,z,,,,,,0.005475375,-0.271263643,0,0,0,,0,207,207,388,1,
,,,,,,,,,,,,,,,,,,5c5825dedd470300014edf4b,2020-11-27_15h03.19.590,lexical_decision_task_MP_exp2,2020.2.5,Linux x86_64,60,z,1,0.620915,,,,,,,,0.620915,1,,,,,,394,NW,UN,16,colury,SPAQUX,z,,,,,,0.005475375,-0.271263643,0,0,0,,0,208,208,453,1,
,,,,,,,,,,,,,,,,,,5c5825dedd470300014edf4b,2020-11-27_15h03.19.590,lexical_decision_task_MP_exp2,2020.2.5,Linux x86_64,60,z,0,0.62078,,,,,,,,0.62078,0,,,,,,176,WORD,UN,16,advent,STRIFE,m,,,,,,0.005475375,-0.271263643,0,0,0,,0,209,209,235,1,
,,,,,,,,,,,,,,,,,,5c5825dedd470300014edf4b,2020-11-27_15h03.19.590,lexical_decision_task_MP_exp2,2020.2.5,Linux x86_64,60,m,1,0.721265,,,,,,,,0.721265,1,,,,,,97,WORD,UN,33,belong,CLIENT,m,,,,,,0.005475375,-0.271263643,0,0,0,,0,210,210,156,1,
,,,,,,,,,,,,,,,,,,5c5825dedd470300014edf4b,2020-11-27_15h03.19.590,lexical_decision_task_MP_exp2,2020.2.5,Linux x86_64,60,m,1,0.52167,,,,,,,,0.52167,1,,,,,,96,WORD,UN,33,client,IGNORE,m,,,,,,0.005475375,-0.271263643,0,0,0,,0,211,211,155,1,
,,,,,,,,,,,,,,,,,,5c5825dedd470300014edf4b,2020-11-27_15h03.19.590,lexical_decision_task_MP_exp2,2020.2.5,Linux x86_64,60,z,1,0.53292,,,,,,,,0.53292,1,,,,,,458,NW,"ID",33,barcet,BARCET,z,,,,,,0.005475375,-0.271263643,0,0,0,,0,212,212,277,1,
,,,,,,,,,,,,,,,,,,5c5825dedd470300014edf4b,2020-11-27_15h03.19.590,lexical_decision_task_MP_exp2,2020.2.5,Linux x86_64,60,z,1,0.53788,,,,,,,,0.53788,1,,,,,,405,NW,UN,16,nouply,FLUMNI,z,,,,,,0.005475375,-0.271263643,0,0,0,,0,213,213,464,1,
,,,,,,,,,,,,,,,,,,5c5825dedd470300014edf4b,2020-11-27_15h03.19.590,lexical_decision_task_MP_exp2,2020.2.5,Linux x86_64,60,m,0,0.77423,,,,,,,,0.77423,0,,,,,,464,NW,"ID",33,chaite,CHAITE,z,,,,,,0.005475375,-0.271263643,0,0,0,,0,214,214,283,1,
,,,,,,,,,,,,,,,,,,5c5825dedd470300014edf4b,2020-11-27_15h03.19.590,lexical_decision_task_MP_exp2,2020.2.5,Linux x86_64,60,z,0,0.72365,,,,,,,,0.72365,0,,,,,,61,WORD,UN,33,region,PONDER,m,,,,,,0.005475375,-0.271263643,0,0,0,,0,215,215,120,1,
,,,,,,,,,,,,,,,,,,5c5825dedd470300014edf4b,2020-11-27_15h03.19.590,lexical_decision_task_MP_exp2,2020.2.5,Linux x86_64,60,z,1,0.58052,,,,,,,,0.58052,1,,,,,,480,NW,"ID",33,robuly,ROBULY,z,,,,,,0.005475375,-0.271263643,0,0,0,,0,216,216,299,1,
,,,,,,,,,,,,,,,,,,5c5825dedd470300014edf4b,2020-11-27_15h03.19.590,lexical_decision_task_MP_exp2,2020.2.5,Linux x86_64,60,m,1,0.50754,,,,,,,,0.50754,1,,,,,,216,WORD,"ID",33,behalf,BEHALF,m,,,,,,0.005475375,-0.271263643,0,0,0,,0,217,217,35,1,
,,,,,,,,,,,,,,,,,,5c5825dedd470300014edf4b,2020-11-27_15h03.19.590,lexical_decision_task_MP_exp2,2020.2.5,Linux x86_64,60,m,1,0.469485,,,,,,,,0.469485,1,,,,,,93,WORD,UN,33,travel,PUBLIC,m,,,,,,0.005475375,-0.271263643,0,0,0,,0,218,218,152,1,
,,,,,,,,,,,,,,,,,,5c5825dedd470300014edf4b,2020-11-27_15h03.19.590,lexical_decision_task_MP_exp2,2020.2.5,Linux x86_64,60,z,1,0.49508,,,,,,,,0.49508,1,,,,,,327,NW,UN,33,broake,PLENAC,z,,,,,,0.005475375,-0.271263643,0,0,0,,0,219,219,386,1,
,,,,,,,,,,,,,,,,,,5c5825dedd470300014edf4b,2020-11-27_15h03.19.590,lexical_decision_task_MP_exp2,2020.2.5,Linux x86_64,60,z,1,0.497255,,,,,,,,0.497255,1,,,,,,356,NW,UN,33,derain,OTHNIS,z,,,,,,0.005475375,-0.271263643,0,0,0,,0,220,220,415,1,
,,,,,,,,,,,,,,,,,,5c5825dedd470300014edf4b,2020-11-27_15h03.19.590,lexical_decision_task_MP_exp2,2020.2.5,Linux x86_64,60,m,1,0.47431,,,,,,,,0.47431,1,,,,,,219,WORD,"ID",33,bucket,BUCKET,m,,,,,,0.005475375,-0.271263643,0,0,0,,0,221,221,38,1,
,,,,,,,,,,,,,,,,,,5c5825dedd470300014edf4b,2020-11-27_15h03.19.590,lexical_decision_task_MP_exp2,2020.2.5,Linux x86_64,60,z,1,0.570085,,,,,,,,0.570085,1,,,,,,290,NW,"ID",16,splino,SPLINO,z,,,,,,0.005475375,-0.271263643,0,0,0,,0,222,222,349,1,
,,,,,,,,,,,,,,,,,,5c5825dedd470300014edf4b,2020-11-27_15h03.19.590,lexical_decision_task_MP_exp2,2020.2.5,Linux x86_64,60,z,0,0.64047,,,,,,,,0.64047,0,,,,,,139,WORD,UN,16,prince,DEBRIS,m,,,,,,0.005475375,-0.271263643,0,0,0,,0,223,223,198,1,
,,,,,,,,,,,,,,,,,,5c5825dedd470300014edf4b,2020-11-27_15h03.19.590,lexical_decision_task_MP_exp2,2020.2.5,Linux x86_64,60,z,1,1.81129,,,,,,,,1.81129,1,,,,,,444,NW,"ID",33,jaunce,JAUNCE,z,,,,,,0.005475375,-0.271263643,0,0,0,,0,224,224,263,1,
,,,,,,,,,,,,,,,,,,5c5825dedd470300014edf4b,2020-11-27_15h03.19.590,lexical_decision_task_MP_exp2,2020.2.5,Linux x86_64,60,m,1,0.570385,,,,,,,,0.570385,1,,,,,,24,WORD,"ID",16,praise,PRAISE,m,,,,,,0.005475375,-0.271263643,0,0,0,,0,225,225,83,1,
,,,,,,,,,,,,,,,,,,5c5825dedd470300014edf4b,2020-11-27_15h03.19.590,lexical_decision_task_MP_exp2,2020.2.5,Linux x86_64,60,z,1,0.784285,,,,,,,,0.784285,1,,,,,,398,NW,UN,16,fouret,BLUNDE,z,,,,,,0.005475375,-0.271263643,0,0,0,,0,226,226,457,1,
,,,,,,,,,,,,,,,,,,5c5825dedd470300014edf4b,2020-11-27_15h03.19.590,lexical_decision_task_MP_exp2,2020.2.5,Linux x86_64,60,m,1,0.494425,,,,,,,,0.494425,1,,,,,,224,WORD,"ID",33,period,PERIOD,m,,,,,,0.005475375,-0.271263643,0,0,0,,0,227,227,43,1,
,,,,,,,,,,,,,,,,,,5c5825dedd470300014edf4b,2020-11-27_15h03.19.590,lexical_decision_task_MP_exp2,2020.2.5,Linux x86_64,60,m,1,0.554415,,,,,,,,0.554415,1,,,,,,34,WORD,"ID",16,jungle,JUNGLE,m,,,,,,0.005475375,-0.271263643,0,0,0,,0,228,228,93,1,
,,,,,,,,,,,,,,,,,,5c5825dedd470300014edf4b,2020-11-27_15h03.19.590,lexical_decision_task_MP_exp2,2020.2.5,Linux x86_64,60,z,0,0.503655,,,,,,,,0.503655,0,,,,,,86,WORD,UN,33,filter,RODENT,m,,,,,,0.005475375,-0.271263643,0,0,0,,0,229,229,145,1,
,,,,,,,,,,,,,,,,,,5c5825dedd470300014edf4b,2020-11-27_15h03.19.590,lexical_decision_task_MP_exp2,2020.2.5,Linux x86_64,60,z,1,0.6988,,,,,,,,0.6988,1,,,,,,346,NW,UN,33,kerift,SAUDIC,z,,,,,,0.005475375,-0.271263643,0,0,0,,0,230,230,405,1,
,,,,,,,,,,,,,,,,,,5c5825dedd470300014edf4b,2020-11-27_15h03.19.590,lexical_decision_task_MP_exp2,2020.2.5,Linux x86_64,60,m,1,0.58664,,,,,,,,0.58664,1,,,,,,37,WORD,"ID",16,insult,INSULT,m,,,,,,0.005475375,-0.271263643,0,0,0,,0,231,231,96,1,
,,,,,,,,,,,,,,,,,,5c5825dedd470300014edf4b,2020-11-27_15h03.19.590,lexical_decision_task_MP_exp2,2020.2.5,Linux x86_64,60,z,0,0.670585,,,,,,,,0.670585,0,,,,,,122,WORD,UN,16,strike,LINGER,m,,,,,,0.005475375,-0.271263643,0,0,0,,0,232,232,181,1,
,,,,,,,,,,,,,,,,,,5c5825dedd470300014edf4b,2020-11-27_15h03.19.590,lexical_decision_task_MP_exp2,2020.2.5,Linux x86_64,60,m,1,0.971535,,,,,,,,0.971535,1,,,,,,25,WORD,"ID",16,domain,DOMAIN,m,,,,,,0.005475375,-0.271263643,0,0,0,,0,233,233,84,1,
,,,,,,,,,,,,,,,,,,5c5825dedd470300014edf4b,2020-11-27_15h03.19.590,lexical_decision_task_MP_exp2,2020.2.5,Linux x86_64,60,m,1,0.60466,,,,,,,,0.60466,1,,,,,,201,WORD,"ID",33,admire,ADMIRE,m,,,,,,0.005475375,-0.271263643,0,0,0,,0,234,234,20,1,
,,,,,,,,,,,,,,,,,,5c5825dedd470300014edf4b,2020-11-27_15h03.19.590,lexical_decision_task_MP_exp2,2020.2.5,Linux x86_64,60,m,1,0.649575,,,,,,,,0.649575,1,,,,,,125,WORD,UN,16,enough,NICKEL,m,,,,,,0.005475375,-0.271263643,0,0,0,,0,235,235,184,1,
,,,,,,,,,,,,,,,,,,5c5825dedd470300014edf4b,2020-11-27_15h03.19.590,lexical_decision_task_MP_exp2,2020.2.5,Linux x86_64,60,m,1,0.5509,,,,,,,,0.5509,1,,,,,,228,WORD,"ID",33,master,MASTER,m,,,,,,0.005475375,-0.271263643,0,0,0,,0,236,236,47,1,
,,,,,,,,,,,,,,,,,,5c5825dedd470300014edf4b,2020-11-27_15h03.19.590,lexical_decision_task_MP_exp2,2020.2.5,Linux x86_64,60,m,1,0.766245,,,,,,,,0.766245,1,,,,,,4,WORD,"ID",16,trench,TRENCH,m,,,,,,0.005475375,-0.271263643,0,0,0,,0,237,237,63,1,
,,,,,,,,,,,,,,,,,,5c5825dedd470300014edf4b,2020-11-27_15h03.19.590,lexical_decision_task_MP_exp2,2020.2.5,Linux x86_64,60,m,1,0.571295,,,,,,,,0.571295,1,,,,,,98,WORD,UN,33,fluent,BELONG,m,,,,,,0.005475375,-0.271263643,0,0,0,,0,238,238,157,1,
,,,,,,,,,,,,,,,,,,5c5825dedd470300014edf4b,2020-11-27_15h03.19.590,lexical_decision_task_MP_exp2,2020.2.5,Linux x86_64,60,z,1,0.70329,,,,,,,,0.70329,1,,,,,,245,NW,"ID",16,anougs,ANOUGS,z,,,,,,0.005475375,-0.271263643,0,0,0,,0,239,239,304,1,
,,,,,,,,,,,,,,,,,,5c5825dedd470300014edf4b,2020-11-27_15h03.19.590,lexical_decision_task_MP_exp2,2020.2.5,Linux x86_64,60,z,1,0.52262,,,,,,,,0.52262,1,,,,,,466,NW,"ID",33,hocite,HOCITE,z,,,,,,0.005475375,-0.271263643,0,0,0,,0,240,240,285,1,
,,,,,,,,,,,,,,,,,,5c5825dedd470300014edf4b,2020-11-27_15h03.19.590,lexical_decision_task_MP_exp2,2020.2.5,Linux x86_64,60,z,1,0.68885,,,,,,,,0.68885,1,,,,,,251,NW,"ID",16,lupict,LUPICT,z,,,,,,0.005475375,-0.271263643,0,0,0,space,0,241,241,310,1,29.46128
,,,,,,,,,,,,,,,,,,5c5825dedd470300014edf4b,2020-11-27_15h03.19.590,lexical_decision_task_MP_exp2,2020.2.5,Linux x86_64,60,z,1,0.7006,,,,,,,,0.7006,1,,,,,,306,NW,UN,33,kirafe,SOUNGE,z,,,,,,0.005475375,-0.271263643,0,0,0,,0,242,242,365,1,
,,,,,,,,,,,,,,,,,,5c5825dedd470300014edf4b,2020-11-27_15h03.19.590,lexical_decision_task_MP_exp2,2020.2.5,Linux x86_64,60,m,1,0.482785,,,,,,,,0.482785,1,,,,,,154,WORD,UN,16,lizard,AUTHOR,m,,,,,,0.005475375,-0.271263643,0,0,0,,0,243,243,213,1,
,,,,,,,,,,,,,,,,,,5c5825dedd470300014edf4b,2020-11-27_15h03.19.590,lexical_decision_task_MP_exp2,2020.2.5,Linux x86_64,60,m,0,0.616495,,,,,,,,0.616495,0,,,,,,322,NW,UN,33,rosail,SLANCH,z,,,,,,0.005475375,-0.271263643,0,0,0,,0,244,244,381,1,
,,,,,,,,,,,,,,,,,,5c5825dedd470300014edf4b,2020-11-27_15h03.19.590,lexical_decision_task_MP_exp2,2020.2.5,Linux x86_64,60,m,0,0.570535,,,,,,,,0.570535,0,,,,,,404,NW,UN,16,flumni,CLUIRM,z,,,,,,0.005475375,-0.271263643,0,0,0,,0,245,245,463,1,
,,,,,,,,,,,,,,,,,,5c5825dedd470300014edf4b,2020-11-27_15h03.19.590,lexical_decision_task_MP_exp2,2020.2.5,Linux x86_64,60,m,0,0.804475,,,,,,,,0.804475,0,,,,,,248,NW,"ID",16,strole,STROLE,z,,,,,,0.005475375,-0.271263643,0,0,0,,0,246,246,307,1,
,,,,,,,,,,,,,,,,,,5c5825dedd470300014edf4b,2020-11-27_15h03.19.590,lexical_decision_task_MP_exp2,2020.2.5,Linux x86_64,60,z,1,0.60642,,,,,,,,0.60642,1,,,,,,415,NW,UN,16,pathel,HIGSTA,z,,,,,,0.005475375,-0.271263643,0,0,0,,0,247,247,474,1,
,,,,,,,,,,,,,,,,,,5c5825dedd470300014edf4b,2020-11-27_15h03.19.590,lexical_decision_task_MP_exp2,2020.2.5,Linux x86_64,60,m,1,0.470395,,,,,,,,0.470395,1,,,,,,172,WORD,UN,16,shower,PATROL,m,,,,,,0.005475375,-0.271263643,0,0,0,,0,248,248,231,1,
,,,,,,,,,,,,,,,,,,5c5825dedd470300014edf4b,2020-11-27_15h03.19.590,lexical_decision_task_MP_exp2,2020.2.5,Linux x86_64,60,m,1,0.57004,,,,,,,,0.57004,1,,,,,,220,WORD,"ID",33,voyage,VOYAGE,m,,,,,,0.005475375,-0.271263643,0,0,0,,0,249,249,39,1,
,,,,,,,,,,,,,,,,,,5c5825dedd470300014edf4b,2020-11-27_15h03.19.590,lexical_decision_task_MP_exp2,2020.2.5,Linux x86_64,60,m,1,0.554275,,,,,,,,0.554275,1,,,,,,180,WORD,UN,16,thrive,SILENT,m,,,,,,0.005475375,-0.271263643,0,0,0,,0,250,250,239,1,
,,,,,,,,,,,,,,,,,,5c5825dedd470300014edf4b,2020-11-27_15h03.19.590,lexical_decision_task_MP_exp2,2020.2.5,Linux x86_64,60,m,1,0.47471,,,,,,,,0.47471,1,,,,,,109,WORD,UN,33,polite,WONDER,m,,,,,,0.005475375,-0.271263643,0,0,0,,0,251,251,168,1,
,,,,,,,,,,,,,,,,,,5c5825dedd470300014edf4b,2020-11-27_15h03.19.590,lexical_decision_task_MP_exp2,2020.2.5,Linux x86_64,60,z,1,1.172185,,,,,,,,1.172185,1,,,,,,352,NW,UN,33,clurey,TRINGE,z,,,,,,0.005475375,-0.271263643,0,0,0,,0,252,252,411,1,
,,,,,,,,,,,,,,,,,,5c5825dedd470300014edf4b,2020-11-27_15h03.19.590,lexical_decision_task_MP_exp2,2020.2.5,Linux x86_64,60,m,1,0.58149,,,,,,,,0.58149,1,,,,,,155,WORD,UN,16,cradle,LIZARD,m,,,,,,0.005475375,-0.271263643,0,0,0,,0,253,253,214,1,
,,,,,,,,,,,,,,,,,,5c5825dedd470300014edf4b,2020-11-27_15h03.19.590,lexical_decision_task_MP_exp2,2020.2.5,Linux x86_64,60,z,1,0.634385,,,,,,,,0.634385,1,,,,,,476,NW,"ID",33,josted,JOSTED,z,,,,,,0.005475375,-0.271263643,0,0,0,,0,254,254,295,1,
,,,,,,,,,,,,,,,,,,5c5825dedd470300014edf4b,2020-11-27_15h03.19.590,lexical_decision_task_MP_exp2,2020.2.5,Linux x86_64,60,z,1,1.238145,,,,,,,,1.238145,1,,,,,,303,NW,UN,33,cludie,FIREAM,z,,,,,,0.005475375,-0.271263643,0,0,0,,0,255,255,362,1,
,,,,,,,,,,,,,,,,,,5c5825dedd470300014edf4b,2020-11-27_15h03.19.590,lexical_decision_task_MP_exp2,2020.2.5,Linux x86_64,60,m,1,0.687705,,,,,,,,0.687705,1,,,,,,72,WORD,UN,33,source,BRIGHT,m,,,,,,0.005475375,-0.271263643,0,0,0,,0,256,256,131,1,
,,,,,,,,,,,,,,,,,,5c5825dedd470300014edf4b,2020-11-27_15h03.19.590,lexical_decision_task_MP_exp2,2020.2.5,Linux x86_64,60,m,1,0.621465,,,,,,,,0.621465,1,,,,,,83,WORD,UN,33,mortal,RESULT,m,,,,,,0.005475375,-0.271263643,0,0,0,,0,257,257,142,1,
,,,,,,,,,,,,,,,,,,5c5825dedd470300014edf4b,2020-11-27_15h03.19.590,lexical_decision_task_MP_exp2,2020.2.5,Linux x86_64,60,z,1,0.615745,,,,,,,,0.615745,1,,,,,,268,NW,"ID",16,packes,PACKES,z,,,,,,0.005475375,-0.271263643,0,0,0,,0,258,258,327,1,
,,,,,,,,,,,,,,,,,,5c5825dedd470300014edf4b,2020-11-27_15h03.19.590,lexical_decision_task_MP_exp2,2020.2.5,Linux x86_64,60,z,1,0.65385,,,,,,,,0.65385,1,,,,,,321,NW,UN,33,slanch,MIATOR,z,,,,,,0.005475375,-0.271263643,0,0,0,,0,259,259,380,1,
,,,,,,,,,,,,,,,,,,5c5825dedd470300014edf4b,2020-11-27_15h03.19.590,lexical_decision_task_MP_exp2,2020.2.5,Linux x86_64,60,m,1,0.740395,,,,,,,,0.740395,1,,,,,,195,WORD,"ID",33,resign,RESIGN,m,,,,,,0.005475375,-0.271263643,0,0,0,,0,260,260,14,1,
,,,,,,,,,,,,,,,,,,5c5825dedd470300014edf4b,2020-11-27_15h03.19.590,lexical_decision_task_MP_exp2,2020.2.5,Linux x86_64,60,z,1,0.66657,,,,,,,,0.66657,1,,,,,,460,NW,"ID",33,mingar,MINGAR,z,,,,,,0.005475375,-0.271263643,0,0,0,,0,261,261,279,1,
,,,,,,,,,,,,,,,,,,5c5825dedd470300014edf4b,2020-11-27_15h03.19.590,lexical_decision_task_MP_exp2,2020.2.5,Linux x86_64,60,m,1,0.54953,,,,,,,,0.54953,1,,,,,,232,WORD,"ID",33,inject,INJECT,m,,,,,,0.005475375,-0.271263643,0,0,0,,0,262,262,51,1,
,,,,,,,,,,,,,,,,,,5c5825dedd470300014edf4b,2020-11-27_15h03.19.590,lexical_decision_task_MP_exp2,2020.2.5,Linux x86_64,60,z,0,0.68888,,,,,,,,0.68888,0,,,,,,131,WORD,UN,16,strong,QUENCH,m,,,,,,0.005475375,-0.271263643,0,0,0,,0,263,263,190,1,
,,,,,,,,,,,,,,,,,,5c5825dedd470300014edf4b,2020-11-27_15h03.19.590,lexical_decision_task_MP_exp2,2020.2.5,Linux x86_64,60,m,1,0.505185,,,,,,,,0.505185,1,,,,,,15,WORD,"ID",16,amount,AMOUNT,m,,,,,,0.005475375,-0.271263643,0,0,0,,0,264,264,74,1,
,,,,,,,,,,,,,,,,,,5c5825dedd470300014edf4b,2020-11-27_15h03.19.590,lexical_decision_task_MP_exp2,2020.2.5,Linux x86_64,60,m,1,0.53852,,,,,,,,0.53852,1,,,,,,92,WORD,UN,33,public,STRAND,m,,,,,,0.005475375,-0.271263643,0,0,0,,0,265,265,151,1,
,,,,,,,,,,,,,,,,,,5c5825dedd470300014edf4b,2020-11-27_15h03.19.590,lexical_decision_task_MP_exp2,2020.2.5,Linux x86_64,60,z,1,0.85562,,,,,,,,0.85562,1,,,,,,419,NW,UN,16,gushop,SLOUNT,z,,,,,,0.005475375,-0.271263643,0,0,0,,0,266,266,478,1,
,,,,,,,,,,,,,,,,,,5c5825dedd470300014edf4b,2020-11-27_15h03.19.590,lexical_decision_task_MP_exp2,2020.2.5,Linux x86_64,60,z,1,0.58786,,,,,,,,0.58786,1,,,,,,271,NW,"ID",16,aubrid,AUBRID,z,,,,,,0.005475375,-0.271263643,0,0,0,,0,267,267,330,1,
,,,,,,,,,,,,,,,,,,5c5825dedd470300014edf4b,2020-11-27_15h03.19.590,lexical_decision_task_MP_exp2,2020.2.5,Linux x86_64,60,z,1,0.5159,,,,,,,,0.5159,1,,,,,,412,NW,UN,16,equats,JILUER,z,,,,,,0.005475375,-0.271263643,0,0,0,,0,268,268,471,1,
,,,,,,,,,,,,,,,,,,5c5825dedd470300014edf4b,2020-11-27_15h03.19.590,lexical_decision_task_MP_exp2,2020.2.5,Linux x86_64,60,z,1,0.54964,,,,,,,,0.54964,1,,,,,,429,NW,"ID",33,funtle,FUNTLE,z,,,,,,0.005475375,-0.271263643,0,0,0,,0,269,269,248,1,
,,,,,,,,,,,,,,,,,,5c5825dedd470300014edf4b,2020-11-27_15h03.19.590,lexical_decision_task_MP_exp2,2020.2.5,Linux x86_64,60,z,1,0.48521,,,,,,,,0.48521,1,,,,,,334,NW,UN,33,desion,WATMEG,z,,,,,,0.005475375,-0.271263643,0,0,0,,0,270,270,393,1,
,,,,,,,,,,,,,,,,,,5c5825dedd470300014edf4b,2020-11-27_15h03.19.590,lexical_decision_task_MP_exp2,2020.2.5,Linux x86_64,60,m,1,0.59502,,,,,,,,0.59502,1,,,,,,74,WORD,UN,33,trophy,PLAQUE,m,,,,,,0.005475375,-0.271263643,0,0,0,,0,271,271,133,1,
,,,,,,,,,,,,,,,,,,5c5825dedd470300014edf4b,2020-11-27_15h03.19.590,lexical_decision_task_MP_exp2,2020.2.5,Linux x86_64,60,z,1,0.687675,,,,,,,,0.687675,1,,,,,,297,NW,"ID",16,fertic,FERTIC,z,,,,,,0.005475375,-0.271263643,0,0,0,,0,272,272,356,1,
,,,,,,,,,,,,,,,,,,5c5825dedd470300014edf4b,2020-11-27_15h03.19.590,lexical_decision_task_MP_exp2,2020.2.5,Linux x86_64,60,m,1,0.579275,,,,,,,,0.579275,1,,,,,,9,WORD,"ID",16,hustle,HUSTLE,m,,,,,,0.005475375,-0.271263643,0,0,0,,0,273,273,68,1,
,,,,,,,,,,,,,,,,,,5c5825dedd470300014edf4b,2020-11-27_15h03.19.590,lexical_decision_task_MP_exp2,2020.2.5,Linux x86_64,60,z,1,0.54953,,,,,,,,0.54953,1,,,,,,430,NW,"ID",33,caroey,CAROEY,z,,,,,,0.005475375,-0.271263643,0,0,0,,0,274,274,249,1,
,,,,,,,,,,,,,,,,,,5c5825dedd470300014edf4b,2020-11-27_15h03.19.590,lexical_decision_task_MP_exp2,2020.2.5,Linux x86_64,60,z,0,0.520875,,,,,,,,0.520875,0,,,,,,183,WORD,"ID",33,mildew,MILDEW,m,,,,,,0.005475375,-0.271263643,0,0,0,,0,275,275,2,1,
,,,,,,,,,,,,,,,,,,5c5825dedd470300014edf4b,2020-11-27_15h03.19.590,lexical_decision_task_MP_exp2,2020.2.5,Linux x86_64,60,m,1,0.472375,,,,,,,,0.472375,1,,,,,,81,WORD,UN,33,stigma,FRIEND,m,,,,,,0.005475375,-0.271263643,0,0,0,,0,276,276,140,1,
,,,,,,,,,,,,,,,,,,5c5825dedd470300014edf4b,2020-11-27_15h03.19.590,lexical_decision_task_MP_exp2,2020.2.5,Linux x86_64,60,m,1,0.52217,,,,,,,,0.52217,1,,,,,,143,WORD,UN,16,sponge,REASON,m,,,,,,0.005475375,-0.271263643,0,0,0,,0,277,277,202,1,
,,,,,,,,,,,,,,,,,,5c5825dedd470300014edf4b,2020-11-27_15h03.19.590,lexical_decision_task_MP_exp2,2020.2.5,Linux x86_64,60,m,1,0.503745,,,,,,,,0.503745,1,,,,,,146,WORD,UN,16,garlic,COUPLE,m,,,,,,0.005475375,-0.271263643,0,0,0,,0,278,278,205,1,
,,,,,,,,,,,,,,,,,,5c5825dedd470300014edf4b,2020-11-27_15h03.19.590,lexical_decision_task_MP_exp2,2020.2.5,Linux x86_64,60,m,1,0.481755,,,,,,,,0.481755,1,,,,,,126,WORD,UN,16,castle,ENOUGH,m,,,,,,0.005475375,-0.271263643,0,0,0,,0,279,279,185,1,
,,,,,,,,,,,,,,,,,,5c5825dedd470300014edf4b,2020-11-27_15h03.19.590,lexical_decision_task_MP_exp2,2020.2.5,Linux x86_64,60,m,1,0.6383,,,,,,,,0.6383,1,,,,,,78,WORD,UN,33,theory,COLUMN,m,,,,,,0.005475375,-0.271263643,0,0,0,,0,280,280,137,1,
,,,,,,,,,,,,,,,,,,5c5825dedd470300014edf4b,2020-11-27_15h03.19.590,lexical_decision_task_MP_exp2,2020.2.5,Linux x86_64,60,z,1,0.49971,,,,,,,,0.49971,1,,,,,,362,NW,UN,16,breali,TIREAU,z,,,,,,0.005475375,-0.271263643,0,0,0,,0,281,281,421,1,
,,,,,,,,,,,,,,,,,,5c5825dedd470300014edf4b,2020-11-27_15h03.19.590,lexical_decision_task_MP_exp2,2020.2.5,Linux x86_64,60,z,1,0.654915,,,,,,,,0.654915,1,,,,,,471,NW,"ID",33,nobest,NOBEST,z,,,,,,0.005475375,-0.271263643,0,0,0,,0,282,282,290,1,
,,,,,,,,,,,,,,,,,,5c5825dedd470300014edf4b,2020-11-27_15h03.19.590,lexical_decision_task_MP_exp2,2020.2.5,Linux x86_64,60,m,1,0.532075,,,,,,,,0.532075,1,,,,,,44,WORD,"ID",16,danger,DANGER,m,,,,,,0.005475375,-0.271263643,0,0,0,,0,283,283,103,1,
,,,,,,,,,,,,,,,,,,5c5825dedd470300014edf4b,2020-11-27_15h03.19.590,lexical_decision_task_MP_exp2,2020.2.5,Linux x86_64,60,m,1,0.760915,,,,,,,,0.760915,1,,,,,,29,WORD,"ID",16,sketch,SKETCH,m,,,,,,0.005475375,-0.271263643,0,0,0,,0,284,284,88,1,
,,,,,,,,,,,,,,,,,,5c5825dedd470300014edf4b,2020-11-27_15h03.19.590,lexical_decision_task_MP_exp2,2020.2.5,Linux x86_64,60,z,1,0.55292,,,,,,,,0.55292,1,,,,,,403,NW,UN,16,cluirm,BRUATS,z,,,,,,0.005475375,-0.271263643,0,0,0,,0,285,285,462,1,
,,,,,,,,,,,,,,,,,,5c5825dedd470300014edf4b,2020-11-27_15h03.19.590,lexical_decision_task_MP_exp2,2020.2.5,Linux x86_64,60,m,1,0.53255,,,,,,,,0.53255,1,,,,,,84,WORD,UN,33,strand,MORTAL,m,,,,,,0.005475375,-0.271263643,0,0,0,,0,286,286,143,1,
,,,,,,,,,,,,,,,,,,5c5825dedd470300014edf4b,2020-11-27_15h03.19.590,lexical_decision_task_MP_exp2,2020.2.5,Linux x86_64,60,z,0,0.6386,,,,,,,,0.6386,0,,,,,,106,WORD,UN,33,slogan,RANSOM,m,,,,,,0.005475375,-0.271263643,0,0,0,,0,287,287,165,1,
,,,,,,,,,,,,,,,,,,5c5825dedd470300014edf4b,2020-11-27_15h03.19.590,lexical_decision_task_MP_exp2,2020.2.5,Linux x86_64,60,m,1,0.53285,,,,,,,,0.53285,1,,,,,,234,WORD,"ID",33,clumsy,CLUMSY,m,,,,,,0.005475375,-0.271263643,0,0,0,,0,288,288,53,1,
,,,,,,,,,,,,,,,,,,5c5825dedd470300014edf4b,2020-11-27_15h03.19.590,lexical_decision_task_MP_exp2,2020.2.5,Linux x86_64,60,z,1,0.950205,,,,,,,,0.950205,1,,,,,,256,NW,"ID",16,inlors,INLORS,z,,,,,,0.005475375,-0.271263643,0,0,0,,0,289,289,315,1,
,,,,,,,,,,,,,,,,,,5c5825dedd470300014edf4b,2020-11-27_15h03.19.590,lexical_decision_task_MP_exp2,2020.2.5,Linux x86_64,60,m,0,1.489535,,,,,,,,1.489535,0,,,,,,433,NW,"ID",33,drance,DRANCE,z,,,,,,0.005475375,-0.271263643,0,0,0,,0,290,290,252,1,
,,,,,,,,,,,,,,,,,,5c5825dedd470300014edf4b,2020-11-27_15h03.19.590,lexical_decision_task_MP_exp2,2020.2.5,Linux x86_64,60,z,1,0.61701,,,,,,,,0.61701,1,,,,,,287,NW,"ID",16,nymbel,NYMBEL,z,,,,,,0.005475375,-0.271263643,0,0,0,,0,291,291,346,1,
,,,,,,,,,,,,,,,,,,5c5825dedd470300014edf4b,2020-11-27_15h03.19.590,lexical_decision_task_MP_exp2,2020.2.5,Linux x86_64,60,m,1,0.492055,,,,,,,,0.492055,1,,,,,,231,WORD,"ID",33,export,EXPORT,m,,,,,,0.005475375,-0.271263643,0,0,0,,0,292,292,50,1,
,,,,,,,,,,,,,,,,,,5c5825dedd470300014edf4b,2020-11-27_15h03.19.590,lexical_decision_task_MP_exp2,2020.2.5,Linux x86_64,60,m,1,0.450135,,,,,,,,0.450135,1,,,,,,205,WORD,"ID",33,lounge,LOUNGE,m,,,,,,0.005475375,-0.271263643,0,0,0,,0,293,293,24,1,
,,,,,,,,,,,,,,,,,,5c5825dedd470300014edf4b,2020-11-27_15h03.19.590,lexical_decision_task_MP_exp2,2020.2.5,Linux x86_64,60,m,1,0.49846,,,,,,,,0.49846,1,,,,,,137,WORD,UN,16,melody,FINGER,m,,,,,,0.005475375,-0.271263643,0,0,0,,0,294,294,196,1,
,,,,,,,,,,,,,,,,,,5c5825dedd470300014edf4b,2020-11-27_15h03.19.590,lexical_decision_task_MP_exp2,2020.2.5,Linux x86_64,60,m,1,0.520925,,,,,,,,0.520925,1,,,,,,23,WORD,"ID",16,wealth,WEALTH,m,,,,,,0.005475375,-0.271263643,0,0,0,,0,295,295,82,1,
,,,,,,,,,,,,,,,,,,5c5825dedd470300014edf4b,2020-11-27_15h03.19.590,lexical_decision_task_MP_exp2,2020.2.5,Linux x86_64,60,m,1,0.63865,,,,,,,,0.63865,1,,,,,,204,WORD,"ID",33,burden,BURDEN,m,,,,,,0.005475375,-0.271263643,0,0,0,,0,296,296,23,1,
,,,,,,,,,,,,,,,,,,5c5825dedd470300014edf4b,2020-11-27_15h03.19.590,lexical_decision_task_MP_exp2,2020.2.5,Linux x86_64,60,m,1,0.650715,,,,,,,,0.650715,1,,,,,,149,WORD,UN,16,random,INVADE,m,,,,,,0.005475375,-0.271263643,0,0,0,,0,297,297,208,1,
,,,,,,,,,,,,,,,,,,5c5825dedd470300014edf4b,2020-11-27_15h03.19.590,lexical_decision_task_MP_exp2,2020.2.5,Linux x86_64,60,m,1,0.598975,,,,,,,,0.598975,1,,,,,,226,WORD,"ID",33,casino,CASINO,m,,,,,,0.005475375,-0.271263643,0,0,0,,0,298,298,45,1,
,,,,,,,,,,,,,,,,,,5c5825dedd470300014edf4b,2020-11-27_15h03.19.590,lexical_decision_task_MP_exp2,2020.2.5,Linux x86_64,60,z,1,0.700875,,,,,,,,0.700875,1,,,,,,450,NW,"ID",33,phrect,PHRECT,z,,,,,,0.005475375,-0.271263643,0,0,0,,0,299,299,269,1,
,,,,,,,,,,,,,,,,,,5c5825dedd470300014edf4b,2020-11-27_15h03.19.590,lexical_decision_task_MP_exp2,2020.2.5,Linux x86_64,60,m,1,0.517345,,,,,,,,0.517345,1,,,,,,161,WORD,UN,16,candle,PASTOR,m,,,,,,0.005475375,-0.271263643,0,0,0,,0,300,300,220,1,
,,,,,,,,,,,,,,,,,,5c5825dedd470300014edf4b,2020-11-27_15h03.19.590,lexical_decision_task_MP_exp2,2020.2.5,Linux x86_64,60,z,1,0.755415,,,,,,,,0.755415,1,,,,,,265,NW,"ID",16,distar,DISTAR,z,,,,,,0.005475375,-0.271263643,0,0,0,,0,301,301,324,1,
,,,,,,,,,,,,,,,,,,5c5825dedd470300014edf4b,2020-11-27_15h03.19.590,lexical_decision_task_MP_exp2,2020.2.5,Linux x86_64,60,z,1,0.571005,,,,,,,,0.571005,1,,,,,,312,NW,UN,33,paurse,NERAWL,z,,,,,,0.005475375,-0.271263643,0,0,0,,0,302,302,371,1,
,,,,,,,,,,,,,,,,,,5c5825dedd470300014edf4b,2020-11-27_15h03.19.590,lexical_decision_task_MP_exp2,2020.2.5,Linux x86_64,60,z,1,0.56977,,,,,,,,0.56977,1,,,,,,282,NW,"ID",16,porlex,PORLEX,z,,,,,,0.005475375,-0.271263643,0,0,0,,0,303,303,341,1,
,,,,,,,,,,,,,,,,,,5c5825dedd470300014edf4b,2020-11-27_15h03.19.590,lexical_decision_task_MP_exp2,2020.2.5,Linux x86_64,60,m,1,0.503745,,,,,,,,0.503745,1,,,,,,207,WORD,"ID",33,wreath,WREATH,m,,,,,,0.005475375,-0.271263643,0,0,0,,0,304,304,26,1,
,,,,,,,,,,,,,,,,,,5c5825dedd470300014edf4b,2020-11-27_15h03.19.590,lexical_decision_task_MP_exp2,2020.2.5,Linux x86_64,60,m,1,0.489045,,,,,,,,0.489045,1,,,,,,193,WORD,"ID",33,object,OBJECT,m,,,,,,0.005475375,-0.271263643,0,0,0,,0,305,305,12,1,
,,,,,,,,,,,,,,,,,,5c5825dedd470300014edf4b,2020-11-27_15h03.19.590,lexical_decision_task_MP_exp2,2020.2.5,Linux x86_64,60,m,1,0.5206,,,,,,,,0.5206,1,,,,,,85,WORD,UN,33,rodent,SPRAWL,m,,,,,,0.005475375,-0.271263643,0,0,0,,0,306,306,144,1,
,,,,,,,,,,,,,,,,,,5c5825dedd470300014edf4b,2020-11-27_15h03.19.590,lexical_decision_task_MP_exp2,2020.2.5,Linux x86_64,60,m,1,0.46602,,,,,,,,0.46602,1,,,,,,229,WORD,"ID",33,mother,MOTHER,m,,,,,,0.005475375,-0.271263643,0,0,0,,0,307,307,48,1,
,,,,,,,,,,,,,,,,,,5c5825dedd470300014edf4b,2020-11-27_15h03.19.590,lexical_decision_task_MP_exp2,2020.2.5,Linux x86_64,60,m,1,0.670195,,,,,,,,0.670195,1,,,,,,170,WORD,UN,16,dragon,POUNCE,m,,,,,,0.005475375,-0.271263643,0,0,0,,0,308,308,229,1,
,,,,,,,,,,,,,,,,,,5c5825dedd470300014edf4b,2020-11-27_15h03.19.590,lexical_decision_task_MP_exp2,2020.2.5,Linux x86_64,60,z,1,0.537115,,,,,,,,0.537115,1,,,,,,354,NW,UN,33,zingly,VIRLEX,z,,,,,,0.005475375,-0.271263643,0,0,0,,0,309,309,413,1,
,,,,,,,,,,,,,,,,,,5c5825dedd470300014edf4b,2020-11-27_15h03.19.590,lexical_decision_task_MP_exp2,2020.2.5,Linux x86_64,60,z,1,0.537345,,,,,,,,0.537345,1,,,,,,361,NW,UN,16,tireau,PAUCHE,z,,,,,,0.005475375,-0.271263643,0,0,0,,0,310,310,420,1,
,,,,,,,,,,,,,,,,,,5c5825dedd470300014edf4b,2020-11-27_15h03.19.590,lexical_decision_task_MP_exp2,2020.2.5,Linux x86_64,60,m,1,0.55471,,,,,,,,0.55471,1,,,,,,166,WORD,UN,16,design,STARCH,m,,,,,,0.005475375,-0.271263643,0,0,0,,0,311,311,225,1,
,,,,,,,,,,,,,,,,,,5c5825dedd470300014edf4b,2020-11-27_15h03.19.590,lexical_decision_task_MP_exp2,2020.2.5,Linux x86_64,60,m,0,0.50427,,,,,,,,0.50427,0,,,,,,332,NW,UN,33,catrie,VANGUE,z,,,,,,0.005475375,-0.271263643,0,0,0,,0,312,312,391,1,
,,,,,,,,,,,,,,,,,,5c5825dedd470300014edf4b,2020-11-27_15h03.19.590,lexical_decision_task_MP_exp2,2020.2.5,Linux x86_64,60,z,1,0.82449,,,,,,,,0.82449,1,,,,,,391,NW,UN,16,rouncy,THELDY,z,,,,,,0.005475375,-0.271263643,0,0,0,,0,313,313,450,1,
,,,,,,,,,,,,,,,,,,5c5825dedd470300014edf4b,2020-11-27_15h03.19.590,lexical_decision_task_MP_exp2,2020.2.5,Linux x86_64,60,m,1,0.564955,,,,,,,,0.564955,1,,,,,,39,WORD,"ID",16,insect,INSECT,m,,,,,,0.005475375,-0.271263643,0,0,0,,0,314,314,98,1,
,,,,,,,,,,,,,,,,,,5c5825dedd470300014edf4b,2020-11-27_15h03.19.590,lexical_decision_task_MP_exp2,2020.2.5,Linux x86_64,60,m,1,0.50304,,,,,,,,0.50304,1,,,,,,230,WORD,"ID",33,fringe,FRINGE,m,,,,,,0.005475375,-0.271263643,0,0,0,,0,315,315,49,1,
,,,,,,,,,,,,,,,,,,5c5825dedd470300014edf4b,2020-11-27_15h03.19.590,lexical_decision_task_MP_exp2,2020.2.5,Linux x86_64,60,z,1,0.688415,,,,,,,,0.688415,1,,,,,,388,NW,UN,16,witmer,CRAGIN,z,,,,,,0.005475375,-0.271263643,0,0,0,,0,316,316,447,1,
,,,,,,,,,,,,,,,,,,5c5825dedd470300014edf4b,2020-11-27_15h03.19.590,lexical_decision_task_MP_exp2,2020.2.5,Linux x86_64,60,m,1,0.72004,,,,,,,,0.72004,1,,,,,,54,WORD,"ID",16,ramble,RAMBLE,m,,,,,,0.005475375,-0.271263643,0,0,0,,0,317,317,113,1,
,,,,,,,,,,,,,,,,,,5c5825dedd470300014edf4b,2020-11-27_15h03.19.590,lexical_decision_task_MP_exp2,2020.2.5,Linux x86_64,60,m,1,0.539135,,,,,,,,0.539135,1,,,,,,14,WORD,"ID",16,almost,ALMOST,m,,,,,,0.005475375,-0.271263643,0,0,0,,0,318,318,73,1,
,,,,,,,,,,,,,,,,,,5c5825dedd470300014edf4b,2020-11-27_15h03.19.590,lexical_decision_task_MP_exp2,2020.2.5,Linux x86_64,60,z,1,0.70361,,,,,,,,0.70361,1,,,,,,243,NW,"ID",16,musied,MUSIED,z,,,,,,0.005475375,-0.271263643,0,0,0,,0,319,319,302,1,
,,,,,,,,,,,,,,,,,,5c5825dedd470300014edf4b,2020-11-27_15h03.19.590,lexical_decision_task_MP_exp2,2020.2.5,Linux x86_64,60,m,1,0.516185,,,,,,,,0.516185,1,,,,,,1,WORD,"ID",16,fright,FRIGHT,m,,,,,,0.005475375,-0.271263643,0,0,0,,0,320,320,60,1,
,,,,,,,,,,,,,,,,,,5c5825dedd470300014edf4b,2020-11-27_15h03.19.590,lexical_decision_task_MP_exp2,2020.2.5,Linux x86_64,60,z,1,0.79226,,,,,,,,0.79226,1,,,,,,472,NW,"ID",33,cigney,CIGNEY,z,,,,,,0.005475375,-0.271263643,0,0,0,,0,321,321,291,1,
,,,,,,,,,,,,,,,,,,5c5825dedd470300014edf4b,2020-11-27_15h03.19.590,lexical_decision_task_MP_exp2,2020.2.5,Linux x86_64,60,m,1,0.554035,,,,,,,,0.554035,1,,,,,,123,WORD,UN,16,blouse,STRIKE,m,,,,,,0.005475375,-0.271263643,0,0,0,,0,322,322,182,1,
,,,,,,,,,,,,,,,,,,5c5825dedd470300014edf4b,2020-11-27_15h03.19.590,lexical_decision_task_MP_exp2,2020.2.5,Linux x86_64,60,z,1,0.53748,,,,,,,,0.53748,1,,,,,,387,NW,UN,16,cragin,GRONCE,z,,,,,,0.005475375,-0.271263643,0,0,0,,0,323,323,446,1,
,,,,,,,,,,,,,,,,,,5c5825dedd470300014edf4b,2020-11-27_15h03.19.590,lexical_decision_task_MP_exp2,2020.2.5,Linux x86_64,60,z,0,0.653775,,,,,,,,0.653775,0,,,,,,46,WORD,"ID",16,single,SINGLE,m,,,,,,0.005475375,-0.271263643,0,0,0,,0,324,324,105,1,
,,,,,,,,,,,,,,,,,,5c5825dedd470300014edf4b,2020-11-27_15h03.19.590,lexical_decision_task_MP_exp2,2020.2.5,Linux x86_64,60,m,1,0.666175,,,,,,,,0.666175,1,,,,,,151,WORD,UN,16,rocket,MYSTIC,m,,,,,,0.005475375,-0.271263643,0,0,0,,0,325,325,210,1,
,,,,,,,,,,,,,,,,,,5c5825dedd470300014edf4b,2020-11-27_15h03.19.590,lexical_decision_task_MP_exp2,2020.2.5,Linux x86_64,60,m,1,0.509015,,,,,,,,0.509015,1,,,,,,91,WORD,UN,33,hunger,EXPAND,m,,,,,,0.005475375,-0.271263643,0,0,0,,0,326,326,150,1,
,,,,,,,,,,,,,,,,,,5c5825dedd470300014edf4b,2020-11-27_15h03.19.590,lexical_decision_task_MP_exp2,2020.2.5,Linux x86_64,60,z,1,0.5349,,,,,,,,0.5349,1,,,,,,249,NW,"ID",16,batrol,BATROL,z,,,,,,0.005475375,-0.271263643,0,0,0,,0,327,327,308,1,
,,,,,,,,,,,,,,,,,,5c5825dedd470300014edf4b,2020-11-27_15h03.19.590,lexical_decision_task_MP_exp2,2020.2.5,Linux x86_64,60,m,1,0.47067,,,,,,,,0.47067,1,,,,,,132,WORD,UN,16,orphan,STRONG,m,,,,,,0.005475375,-0.271263643,0,0,0,,0,328,328,191,1,
,,,,,,,,,,,,,,,,,,5c5825dedd470300014edf4b,2020-11-27_15h03.19.590,lexical_decision_task_MP_exp2,2020.2.5,Linux x86_64,60,m,1,0.463205,,,,,,,,0.463205,1,,,,,,12,WORD,"ID",16,orange,ORANGE,m,,,,,,0.005475375,-0.271263643,0,0,0,,0,329,329,71,1,
,,,,,,,,,,,,,,,,,,5c5825dedd470300014edf4b,2020-11-27_15h03.19.590,lexical_decision_task_MP_exp2,2020.2.5,Linux x86_64,60,z,1,0.60402,,,,,,,,0.60402,1,,,,,,437,NW,"ID",33,snapel,SNAPEL,z,,,,,,0.005475375,-0.271263643,0,0,0,,0,330,330,256,1,
,,,,,,,,,,,,,,,,,,5c5825dedd470300014edf4b,2020-11-27_15h03.19.590,lexical_decision_task_MP_exp2,2020.2.5,Linux x86_64,60,m,1,0.53828,,,,,,,,0.53828,1,,,,,,95,WORD,UN,33,ignore,THREAD,m,,,,,,0.005475375,-0.271263643,0,0,0,,0,331,331,154,1,
,,,,,,,,,,,,,,,,,,5c5825dedd470300014edf4b,2020-11-27_15h03.19.590,lexical_decision_task_MP_exp2,2020.2.5,Linux x86_64,60,z,1,0.5548,,,,,,,,0.5548,1,,,,,,257,NW,"ID",16,veniod,VENIOD,z,,,,,,0.005475375,-0.271263643,0,0,0,,0,332,332,316,1,
,,,,,,,,,,,,,,,,,,5c5825dedd470300014edf4b,2020-11-27_15h03.19.590,lexical_decision_task_MP_exp2,2020.2.5,Linux x86_64,60,z,1,0.53675,,,,,,,,0.53675,1,,,,,,277,NW,"ID",16,petain,PETAIN,z,,,,,,0.005475375,-0.271263643,0,0,0,,0,333,333,336,1,
,,,,,,,,,,,,,,,,,,5c5825dedd470300014edf4b,2020-11-27_15h03.19.590,lexical_decision_task_MP_exp2,2020.2.5,Linux x86_64,60,z,1,0.73816,,,,,,,,0.73816,1,,,,,,317,NW,UN,33,reagly,WORBAL,z,,,,,,0.005475375,-0.271263643,0,0,0,,0,334,334,376,1,
,,,,,,,,,,,,,,,,,,5c5825dedd470300014edf4b,2020-11-27_15h03.19.590,lexical_decision_task_MP_exp2,2020.2.5,Linux x86_64,60,m,1,0.63731,,,,,,,,0.63731,1,,,,,,236,WORD,"ID",33,pirate,PIRATE,m,,,,,,0.005475375,-0.271263643,0,0,0,,0,335,335,55,1,
,,,,,,,,,,,,,,,,,,5c5825dedd470300014edf4b,2020-11-27_15h03.19.590,lexical_decision_task_MP_exp2,2020.2.5,Linux x86_64,60,m,1,0.568275,,,,,,,,0.568275,1,,,,,,218,WORD,"ID",33,shrink,SHRINK,m,,,,,,0.005475375,-0.271263643,0,0,0,,0,336,336,37,1,
,,,,,,,,,,,,,,,,,,5c5825dedd470300014edf4b,2020-11-27_15h03.19.590,lexical_decision_task_MP_exp2,2020.2.5,Linux x86_64,60,m,1,0.498795,,,,,,,,0.498795,1,,,,,,119,WORD,UN,33,strain,SPIDER,m,,,,,,0.005475375,-0.271263643,0,0,0,,0,337,337,178,1,
,,,,,,,,,,,,,,,,,,5c5825dedd470300014edf4b,2020-11-27_15h03.19.590,lexical_decision_task_MP_exp2,2020.2.5,Linux x86_64,60,z,0,0.606345,,,,,,,,0.606345,0,,,,,,40,WORD,"ID",16,convey,CONVEY,m,,,,,,0.005475375,-0.271263643,0,0,0,,0,338,338,99,1,
,,,,,,,,,,,,,,,,,,5c5825dedd470300014edf4b,2020-11-27_15h03.19.590,lexical_decision_task_MP_exp2,2020.2.5,Linux x86_64,60,z,1,0.58925,,,,,,,,0.58925,1,,,,,,278,NW,"ID",16,unighs,UNIGHS,z,,,,,,0.005475375,-0.271263643,0,0,0,,0,339,339,337,1,
,,,,,,,,,,,,,,,,,,5c5825dedd470300014edf4b,2020-11-27_15h03.19.590,lexical_decision_task_MP_exp2,2020.2.5,Linux x86_64,60,z,1,0.58794,,,,,,,,0.58794,1,,,,,,363,NW,UN,16,impote,BREALI,z,,,,,,0.005475375,-0.271263643,0,0,0,,0,340,340,422,1,
,,,,,,,,,,,,,,,,,,5c5825dedd470300014edf4b,2020-11-27_15h03.19.590,lexical_decision_task_MP_exp2,2020.2.5,Linux x86_64,60,m,1,0.529105,,,,,,,,0.529105,1,,,,,,191,WORD,"ID",33,stable,STABLE,m,,,,,,0.005475375,-0.271263643,0,0,0,,0,341,341,10,1,
,,,,,,,,,,,,,,,,,,5c5825dedd470300014edf4b,2020-11-27_15h03.19.590,lexical_decision_task_MP_exp2,2020.2.5,Linux x86_64,60,z,1,0.56783,,,,,,,,0.56783,1,,,,,,301,NW,UN,33,miluer,FAINCH,z,,,,,,0.005475375,-0.271263643,0,0,0,,0,342,342,360,1,
,,,,,,,,,,,,,,,,,,5c5825dedd470300014edf4b,2020-11-27_15h03.19.590,lexical_decision_task_MP_exp2,2020.2.5,Linux x86_64,60,m,1,0.55441,,,,,,,,0.55441,1,,,,,,179,WORD,UN,16,silent,BASKET,m,,,,,,0.005475375,-0.271263643,0,0,0,,0,343,343,238,1,
,,,,,,,,,,,,,,,,,,5c5825dedd470300014edf4b,2020-11-27_15h03.19.590,lexical_decision_task_MP_exp2,2020.2.5,Linux x86_64,60,z,1,0.738985,,,,,,,,0.738985,1,,,,,,330,NW,UN,33,gilfew,KENSOM,z,,,,,,0.005475375,-0.271263643,0,0,0,,0,344,344,389,1,
,,,,,,,,,,,,,,,,,,5c5825dedd470300014edf4b,2020-11-27_15h03.19.590,lexical_decision_task_MP_exp2,2020.2.5,Linux x86_64,60,m,1,0.538795,,,,,,,,0.538795,1,,,,,,35,WORD,"ID",16,socket,SOCKET,m,,,,,,0.005475375,-0.271263643,0,0,0,,0,345,345,94,1,
,,,,,,,,,,,,,,,,,,5c5825dedd470300014edf4b,2020-11-27_15h03.19.590,lexical_decision_task_MP_exp2,2020.2.5,Linux x86_64,60,m,1,0.448695,,,,,,,,0.448695,1,,,,,,94,WORD,UN,33,thread,TRAVEL,m,,,,,,0.005475375,-0.271263643,0,0,0,,0,346,346,153,1,
,,,,,,,,,,,,,,,,,,5c5825dedd470300014edf4b,2020-11-27_15h03.19.590,lexical_decision_task_MP_exp2,2020.2.5,Linux x86_64,60,z,1,0.616175,,,,,,,,0.616175,1,,,,,,452,NW,"ID",33,surden,SURDEN,z,,,,,,0.005475375,-0.271263643,0,0,0,,0,347,347,271,1,
,,,,,,,,,,,,,,,,,,5c5825dedd470300014edf4b,2020-11-27_15h03.19.590,lexical_decision_task_MP_exp2,2020.2.5,Linux x86_64,60,m,1,0.52157,,,,,,,,0.52157,1,,,,,,49,WORD,"ID",16,survey,SURVEY,m,,,,,,0.005475375,-0.271263643,0,0,0,,0,348,348,108,1,
,,,,,,,,,,,,,,,,,,5c5825dedd470300014edf4b,2020-11-27_15h03.19.590,lexical_decision_task_MP_exp2,2020.2.5,Linux x86_64,60,z,0,0.55768,,,,,,,,0.55768,0,,,,,,189,WORD,"ID",33,censor,CENSOR,m,,,,,,0.005475375,-0.271263643,0,0,0,,0,349,349,8,1,
,,,,,,,,,,,,,,,,,,5c5825dedd470300014edf4b,2020-11-27_15h03.19.590,lexical_decision_task_MP_exp2,2020.2.5,Linux x86_64,60,m,1,0.67169,,,,,,,,0.67169,1,,,,,,138,WORD,UN,16,debris,MELODY,m,,,,,,0.005475375,-0.271263643,0,0,0,,0,350,350,197,1,
,,,,,,,,,,,,,,,,,,5c5825dedd470300014edf4b,2020-11-27_15h03.19.590,lexical_decision_task_MP_exp2,2020.2.5,Linux x86_64,60,z,1,0.584295,,,,,,,,0.584295,1,,,,,,335,NW,UN,33,ghodus,DESION,z,,,,,,0.005475375,-0.271263643,0,0,0,,0,351,351,394,1,
,,,,,,,,,,,,,,,,,,5c5825dedd470300014edf4b,2020-11-27_15h03.19.590,lexical_decision_task_MP_exp2,2020.2.5,Linux x86_64,60,z,1,1.0162,,,,,,,,1.0162,1,,,,,,291,NW,"ID",16,pretch,PRETCH,z,,,,,,0.005475375,-0.271263643,0,0,0,,0,352,352,350,1,
,,,,,,,,,,,,,,,,,,5c5825dedd470300014edf4b,2020-11-27_15h03.19.590,lexical_decision_task_MP_exp2,2020.2.5,Linux x86_64,60,m,1,0.47281,,,,,,,,0.47281,1,,,,,,112,WORD,UN,33,chorus,BREATH,m,,,,,,0.005475375,-0.271263643,0,0,0,,0,353,353,171,1,
,,,,,,,,,,,,,,,,,,5c5825dedd470300014edf4b,2020-11-27_15h03.19.590,lexical_decision_task_MP_exp2,2020.2.5,Linux x86_64,60,z,1,0.587665,,,,,,,,0.587665,1,,,,,,320,NW,UN,33,miator,JOCKAL,z,,,,,,0.005475375,-0.271263643,0,0,0,,0,354,354,379,1,
,,,,,,,,,,,,,,,,,,5c5825dedd470300014edf4b,2020-11-27_15h03.19.590,lexical_decision_task_MP_exp2,2020.2.5,Linux x86_64,60,m,1,0.705145,,,,,,,,0.705145,1,,,,,,159,WORD,UN,16,violet,DETAIL,m,,,,,,0.005475375,-0.271263643,0,0,0,,0,355,355,218,1,
,,,,,,,,,,,,,,,,,,5c5825dedd470300014edf4b,2020-11-27_15h03.19.590,lexical_decision_task_MP_exp2,2020.2.5,Linux x86_64,60,z,1,0.648925,,,,,,,,0.648925,1,,,,,,325,NW,UN,33,iguade,THRUSE,z,,,,,,0.005475375,-0.271263643,0,0,0,,0,356,356,384,1,
,,,,,,,,,,,,,,,,,,5c5825dedd470300014edf4b,2020-11-27_15h03.19.590,lexical_decision_task_MP_exp2,2020.2.5,Linux x86_64,60,z,1,0.621125,,,,,,,,0.621125,1,,,,,,438,NW,"ID",33,baitch,BAITCH,z,,,,,,0.005475375,-0.271263643,0,0,0,,0,357,357,257,1,
,,,,,,,,,,,,,,,,,,5c5825dedd470300014edf4b,2020-11-27_15h03.19.590,lexical_decision_task_MP_exp2,2020.2.5,Linux x86_64,60,m,1,0.571055,,,,,,,,0.571055,1,,,,,,110,WORD,UN,33,induce,POLITE,m,,,,,,0.005475375,-0.271263643,0,0,0,,0,358,358,169,1,
,,,,,,,,,,,,,,,,,,5c5825dedd470300014edf4b,2020-11-27_15h03.19.590,lexical_decision_task_MP_exp2,2020.2.5,Linux x86_64,60,m,1,0.787515,,,,,,,,0.787515,1,,,,,,41,WORD,"ID",16,spring,SPRING,m,,,,,,0.005475375,-0.271263643,0,0,0,,0,359,359,100,1,
,,,,,,,,,,,,,,,,,,5c5825dedd470300014edf4b,2020-11-27_15h03.19.590,lexical_decision_task_MP_exp2,2020.2.5,Linux x86_64,60,m,1,0.588295,,,,,,,,0.588295,1,,,,,,160,WORD,UN,16,pastor,VIOLET,m,,,,,,0.005475375,-0.271263643,0,0,0,,0,360,360,219,1,
,,,,,,,,,,,,,,,,,,5c5825dedd470300014edf4b,2020-11-27_15h03.19.590,lexical_decision_task_MP_exp2,2020.2.5,Linux x86_64,60,z,1,1.090165,,,,,,,,1.090165,1,,,,,,478,NW,"ID",33,acrise,ACRISE,z,,,,,,0.005475375,-0.271263643,0,0,0,,0,361,361,297,1,
,,,,,,,,,,,,,,,,,,5c5825dedd470300014edf4b,2020-11-27_15h03.19.590,lexical_decision_task_MP_exp2,2020.2.5,Linux x86_64,60,z,1,0.58924,,,,,,,,0.58924,1,,,,,,414,NW,UN,16,higsta,SERBOL,z,,,,,,0.005475375,-0.271263643,0,0,0,space,0,362,362,473,1,32.80965
,,,,,,,,,,,,,,,,,,5c5825dedd470300014edf4b,2020-11-27_15h03.19.590,lexical_decision_task_MP_exp2,2020.2.5,Linux x86_64,60,m,1,0.60263,,,,,,,,0.60263,1,,,,,,162,WORD,UN,16,string,CANDLE,m,,,,,,0.005475375,-0.271263643,0,0,0,,0,363,363,221,1,
,,,,,,,,,,,,,,,,,,5c5825dedd470300014edf4b,2020-11-27_15h03.19.590,lexical_decision_task_MP_exp2,2020.2.5,Linux x86_64,60,m,1,0.46567,,,,,,,,0.46567,1,,,,,,208,WORD,"ID",33,hockey,HOCKEY,m,,,,,,0.005475375,-0.271263643,0,0,0,,0,364,364,27,1,
,,,,,,,,,,,,,,,,,,5c5825dedd470300014edf4b,2020-11-27_15h03.19.590,lexical_decision_task_MP_exp2,2020.2.5,Linux x86_64,60,z,1,0.55752,,,,,,,,0.55752,1,,,,,,292,NW,"ID",16,ablint,ABLINT,z,,,,,,0.005475375,-0.271263643,0,0,0,,0,365,365,351,1,
,,,,,,,,,,,,,,,,,,5c5825dedd470300014edf4b,2020-11-27_15h03.19.590,lexical_decision_task_MP_exp2,2020.2.5,Linux x86_64,60,m,1,0.5206,,,,,,,,0.5206,1,,,,,,147,WORD,UN,16,custom,GARLIC,m,,,,,,0.005475375,-0.271263643,0,0,0,,0,366,366,206,1,
,,,,,,,,,,,,,,,,,,5c5825dedd470300014edf4b,2020-11-27_15h03.19.590,lexical_decision_task_MP_exp2,2020.2.5,Linux x86_64,60,m,1,0.51003,,,,,,,,0.51003,1,,,,,,215,WORD,"ID",33,phobia,PHOBIA,m,,,,,,0.005475375,-0.271263643,0,0,0,,0,367,367,34,1,
,,,,,,,,,,,,,,,,,,5c5825dedd470300014edf4b,2020-11-27_15h03.19.590,lexical_decision_task_MP_exp2,2020.2.5,Linux x86_64,60,m,1,0.53864,,,,,,,,0.53864,1,,,,,,181,WORD,"ID",33,glance,GLANCE,m,,,,,,0.005475375,-0.271263643,0,0,0,,0,368,368,0,1,
,,,,,,,,,,,,,,,,,,5c5825dedd470300014edf4b,2020-11-27_15h03.19.590,lexical_decision_task_MP_exp2,2020.2.5,Linux x86_64,60,z,1,0.554615,,,,,,,,0.554615,1,,,,,,254,NW,"ID",16,varosh,VAROSH,z,,,,,,0.005475375,-0.271263643,0,0,0,,0,369,369,313,1,
,,,,,,,,,,,,,,,,,,5c5825dedd470300014edf4b,2020-11-27_15h03.19.590,lexical_decision_task_MP_exp2,2020.2.5,Linux x86_64,60,z,1,0.58229,,,,,,,,0.58229,1,,,,,,283,NW,"ID",16,veralf,VERALF,z,,,,,,0.005475375,-0.271263643,0,0,0,,0,370,370,342,1,
,,,,,,,,,,,,,,,,,,5c5825dedd470300014edf4b,2020-11-27_15h03.19.590,lexical_decision_task_MP_exp2,2020.2.5,Linux x86_64,60,z,1,0.599105,,,,,,,,0.599105,1,,,,,,340,NW,UN,33,myrtie,FIATCH,z,,,,,,0.005475375,-0.271263643,0,0,0,,0,371,371,399,1,
,,,,,,,,,,,,,,,,,,5c5825dedd470300014edf4b,2020-11-27_15h03.19.590,lexical_decision_task_MP_exp2,2020.2.5,Linux x86_64,60,m,1,0.50773,,,,,,,,0.50773,1,,,,,,184,WORD,"ID",33,sleazy,SLEAZY,m,,,,,,0.005475375,-0.271263643,0,0,0,,0,372,372,3,1,
,,,,,,,,,,,,,,,,,,5c5825dedd470300014edf4b,2020-11-27_15h03.19.590,lexical_decision_task_MP_exp2,2020.2.5,Linux x86_64,60,z,1,0.432535,,,,,,,,0.432535,1,,,,,,308,NW,UN,33,amiloy,PSETCH,z,,,,,,0.005475375,-0.271263643,0,0,0,,0,373,373,367,1,
,,,,,,,,,,,,,,,,,,5c5825dedd470300014edf4b,2020-11-27_15h03.19.590,lexical_decision_task_MP_exp2,2020.2.5,Linux x86_64,60,z,1,0.46689,,,,,,,,0.46689,1,,,,,,343,NW,UN,33,scrily,AIMOSY,z,,,,,,0.005475375,-0.271263643,0,0,0,,0,374,374,402,1,
,,,,,,,,,,,,,,,,,,5c5825dedd470300014edf4b,2020-11-27_15h03.19.590,lexical_decision_task_MP_exp2,2020.2.5,Linux x86_64,60,z,1,0.48804,,,,,,,,0.48804,1,,,,,,336,NW,UN,33,rejols,GHODUS,z,,,,,,0.005475375,-0.271263643,0,0,0,,0,375,375,395,1,
,,,,,,,,,,,,,,,,,,5c5825dedd470300014edf4b,2020-11-27_15h03.19.590,lexical_decision_task_MP_exp2,2020.2.5,Linux x86_64,60,z,1,0.56576,,,,,,,,0.56576,1,,,,,,296,NW,"ID",16,beinch,BEINCH,z,,,,,,0.005475375,-0.271263643,0,0,0,,0,376,376,355,1,
,,,,,,,,,,,,,,,,,,5c5825dedd470300014edf4b,2020-11-27_15h03.19.590,lexical_decision_task_MP_exp2,2020.2.5,Linux x86_64,60,z,0,0.606395,,,,,,,,0.606395,0,,,,,,19,WORD,"ID",16,patron,PATRON,m,,,,,,0.005475375,-0.271263643,0,0,0,,0,377,377,78,1,
,,,,,,,,,,,,,,,,,,5c5825dedd470300014edf4b,2020-11-27_15h03.19.590,lexical_decision_task_MP_exp2,2020.2.5,Linux x86_64,60,m,1,0.422185,,,,,,,,0.422185,1,,,,,,38,WORD,"ID",16,powder,POWDER,m,,,,,,0.005475375,-0.271263643,0,0,0,,0,378,378,97,1,
,,,,,,,,,,,,,,,,,,5c5825dedd470300014edf4b,2020-11-27_15h03.19.590,lexical_decision_task_MP_exp2,2020.2.5,Linux x86_64,60,m,1,0.43368,,,,,,,,0.43368,1,,,,,,130,WORD,UN,16,quench,STUPID,m,,,,,,0.005475375,-0.271263643,0,0,0,,0,379,379,189,1,
,,,,,,,,,,,,,,,,,,5c5825dedd470300014edf4b,2020-11-27_15h03.19.590,lexical_decision_task_MP_exp2,2020.2.5,Linux x86_64,60,z,1,0.483145,,,,,,,,0.483145,1,,,,,,270,NW,"ID",16,wrimsy,WRIMSY,z,,,,,,0.005475375,-0.271263643,0,0,0,,0,380,380,329,1,
,,,,,,,,,,,,,,,,,,5c5825dedd470300014edf4b,2020-11-27_15h03.19.590,lexical_decision_task_MP_exp2,2020.2.5,Linux x86_64,60,m,1,0.59097,,,,,,,,0.59097,1,,,,,,17,WORD,"ID",16,charge,CHARGE,m,,,,,,0.005475375,-0.271263643,0,0,0,,0,381,381,76,1,
,,,,,,,,,,,,,,,,,,5c5825dedd470300014edf4b,2020-11-27_15h03.19.590,lexical_decision_task_MP_exp2,2020.2.5,Linux x86_64,60,m,1,0.515365,,,,,,,,0.515365,1,,,,,,51,WORD,"ID",16,hungry,HUNGRY,m,,,,,,0.005475375,-0.271263643,0,0,0,,0,382,382,110,1,
