counterbalancing_condition,instr_done_keyboard.keys,instr_done_touch.x,instr_done_touch.y,instr_done_touch.leftButton,instr_done_touch.midButton,instr_done_touch.rightButton,instr_done_touch.clicked_name,instruction_pages.thisRepN,instruction_pages.thisTrialN,instruction_pages.thisN,instruction_pages.thisIndex,instruction_pages.ran,pageN,phase,instruct_text,has_image,instruct_image,participant,date,expName,psychopyVersion,OS,frameRate,instr_done_keyboard.rt,response.keys,response.corr,response.rt,touch_resp.x,touch_resp.y,touch_resp.leftButton,touch_resp.midButton,touch_resp.rightButton,touch_resp.time,touch_resp.clicked_name,rt,corr,practice_trials.thisRepN,practice_trials.thisTrialN,practice_trials.thisN,practice_trials.thisIndex,practice_trials.ran,TrialID,StimulusType,Condition,PrimeDuration,Prime,Target,corrAns,end_of_practice_trials_pages.thisRepN,end_of_practice_trials_pages.thisTrialN,end_of_practice_trials_pages.thisN,end_of_practice_trials_pages.thisIndex,end_of_practice_trials_pages.ran,break_done_touch.x,break_done_touch.y,break_done_touch.leftButton,break_done_touch.midButton,break_done_touch.rightButton,break_done_keyboard.keys,trials.thisRepN,trials.thisTrialN,trials.thisN,trials.thisIndex,trials.ran
0,,0.022135417,-0.403645833,1,0,0,instr_done_button,0,0,0,0,1,1,instructions,"INSTRUCTIONS
At the start of each trial, look at the hash marks (######) in the center of the screen. After a moment, a string of letters will appear. Your task is to indicate if the letter string forms a word or not (i.e., if it is a nonword). For example, AUTHOR is a word while AUTHON is a nonword.

Press the space bar or touch the button below to continue.",0,,5ce7f7ae2aa9590016af2ba7,2020-11-25_17h53.28.495,lexical_decision_task_MP_exp2,2020.2.5,Win32,60,,,,,,,,,,,,,,,,,,,,,,,,,,,,,,,,,,,,,,,,,
,space,0.127604167,-0.125,0,0,0,,0,1,1,1,1,2,instructions,"If your device has a keyboard, press the 'Z' key for nonwords and the 'M' key for words.





Press the space bar or touch the button below to continue.",1,keyboard-example.gif,5ce7f7ae2aa9590016af2ba7,2020-11-25_17h53.28.495,lexical_decision_task_MP_exp2,2020.2.5,Win32,60,15.350865,,,,,,,,,,,,,,,,,,,,,,,,,,,,,,,,,,,,,,,,
,space,0.127604167,-0.125,0,0,0,,0,2,2,2,1,3,instructions,"If you are using a touchscreen only device, use the buttons on the screen. Do not use the mouse.





Press the space bar or touch the button below to continue.",1,touchscreen-example.gif,5ce7f7ae2aa9590016af2ba7,2020-11-25_17h53.28.495,lexical_decision_task_MP_exp2,2020.2.5,Win32,60,2.77019,,,,,,,,,,,,,,,,,,,,,,,,,,,,,,,,,,,,,,,,
,space,0.127604167,-0.125,0,0,0,,0,3,3,3,1,4,instructions,"It is very important that you respond as quickly and accurately as possible, as each letter string will only be on the screen for two seconds. If you do not respond within this time, the message 'Too slow!' will be displayed and the experiment will progress to the next letter string. The first 20 trials will be practice trials and you will receive feedback on your answers. 

Press the space bar or touch the button below to start the practice trials.",0,,5ce7f7ae2aa9590016af2ba7,2020-11-25_17h53.28.495,lexical_decision_task_MP_exp2,2020.2.5,Win32,60,3.928745,,,,,,,,,,,,,,,,,,,,,,,,,,,,,,,,,,,,,,,,
,,,,,,,,,,,,,,,,,,5ce7f7ae2aa9590016af2ba7,2020-11-25_17h53.28.495,lexical_decision_task_MP_exp2,2020.2.5,Win32,60,,m,0,0.762055,,,,,,,,0.762055,0,0,0,0,9,1,1010,NW,"ID",33,fariny,FARINY,z,,,,,,,,,,,,,,,,
,,,,,,,,,,,,,,,,,,5ce7f7ae2aa9590016af2ba7,2020-11-25_17h53.28.495,lexical_decision_task_MP_exp2,2020.2.5,Win32,60,,z,1,1.1127,,,,,,,,1.1127,1,0,1,1,10,1,1011,NW,"ID",16,inlade,INLADE,z,,,,,,,,,,,,,,,,
,,,,,,,,,,,,,,,,,,5ce7f7ae2aa9590016af2ba7,2020-11-25_17h53.28.495,lexical_decision_task_MP_exp2,2020.2.5,Win32,60,,m,0,0.49857,,,,,,,,0.49857,0,0,2,2,11,1,1012,NW,"ID",16,rashet,RASHET,z,,,,,,,,,,,,,,,,
,,,,,,,,,,,,,,,,,,5ce7f7ae2aa9590016af2ba7,2020-11-25_17h53.28.495,lexical_decision_task_MP_exp2,2020.2.5,Win32,60,,m,1,0.59623,,,,,,,,0.59623,1,0,3,3,6,1,1007,WORD,UN,16,tropic,ZOMBIE,m,,,,,,,,,,,,,,,,
,,,,,,,,,,,,,,,,,,5ce7f7ae2aa9590016af2ba7,2020-11-25_17h53.28.495,lexical_decision_task_MP_exp2,2020.2.5,Win32,60,,,0,,,,,,,,,0.59623,-1,0,4,4,12,1,1013,NW,UN,33,adveil,SPRINY,z,,,,,,,,,,,,,,,,
,,,,,,,,,,,,,,,,,,5ce7f7ae2aa9590016af2ba7,2020-11-25_17h53.28.495,lexical_decision_task_MP_exp2,2020.2.5,Win32,60,,m,1,1.414495,,,,,,,,1.414495,1,0,5,5,3,1,1004,WORD,"ID",16,matrix,MATRIX,m,,,,,,,,,,,,,,,,
,,,,,,,,,,,,,,,,,,5ce7f7ae2aa9590016af2ba7,2020-11-25_17h53.28.495,lexical_decision_task_MP_exp2,2020.2.5,Win32,60,,m,1,0.541135,,,,,,,,0.541135,1,0,6,6,4,1,1005,WORD,UN,33,abound,SQUEAK,m,,,,,,,,,,,,,,,,
,,,,,,,,,,,,,,,,,,5ce7f7ae2aa9590016af2ba7,2020-11-25_17h53.28.495,lexical_decision_task_MP_exp2,2020.2.5,Win32,60,,m,1,0.597245,,,,,,,,0.597245,1,0,7,7,1,1,1002,WORD,"ID",33,adjust,ADJUST,m,,,,,,,,,,,,,,,,
,,,,,,,,,,,,,,,,,,5ce7f7ae2aa9590016af2ba7,2020-11-25_17h53.28.495,lexical_decision_task_MP_exp2,2020.2.5,Win32,60,,z,1,0.6409,,,,,,,,0.6409,1,0,8,8,15,1,1016,NW,UN,16,mushed,WHAISE,z,,,,,,,,,,,,,,,,
,,,,,,,,,,,,,,,,,,5ce7f7ae2aa9590016af2ba7,2020-11-25_17h53.28.495,lexical_decision_task_MP_exp2,2020.2.5,Win32,60,,m,1,0.616685,,,,,,,,0.616685,1,0,9,9,0,1,1001,WORD,"ID",33,utopia,UTOPIA,m,,,,,,,,,,,,,,,,
,,,,,,,,,,,,,,,,,,5ce7f7ae2aa9590016af2ba7,2020-11-25_17h53.28.495,lexical_decision_task_MP_exp2,2020.2.5,Win32,60,,z,1,0.70279,,,,,,,,0.70279,1,0,10,10,8,1,1009,NW,"ID",33,aslert,ASLERT,z,,,,,,,,,,,,,,,,
,,,,,,,,,,,,,,,,,,5ce7f7ae2aa9590016af2ba7,2020-11-25_17h53.28.495,lexical_decision_task_MP_exp2,2020.2.5,Win32,60,,m,1,0.547685,,,,,,,,0.547685,1,0,11,11,2,1,1003,WORD,"ID",16,almond,ALMOND,m,,,,,,,,,,,,,,,,
,,,,,,,,,,,,,,,,,,5ce7f7ae2aa9590016af2ba7,2020-11-25_17h53.28.495,lexical_decision_task_MP_exp2,2020.2.5,Win32,60,,z,1,0.72446,,,,,,,,0.72446,1,0,12,12,14,1,1015,NW,UN,16,miaber,THRALE,z,,,,,,,,,,,,,,,,
,,,,,,,,,,,,,,,,,,5ce7f7ae2aa9590016af2ba7,2020-11-25_17h53.28.495,lexical_decision_task_MP_exp2,2020.2.5,Win32,60,,m,1,0.65859,,,,,,,,0.65859,1,0,13,13,7,1,1008,WORD,UN,16,hurdle,VOLUME,m,,,,,,,,,,,,,,,,
,,,,,,,,,,,,,,,,,,5ce7f7ae2aa9590016af2ba7,2020-11-25_17h53.28.495,lexical_decision_task_MP_exp2,2020.2.5,Win32,60,,m,1,0.524215,,,,,,,,0.524215,1,0,14,14,5,1,1006,WORD,UN,33,frenzy,OBTAIN,m,,,,,,,,,,,,,,,,
,,,,,,,,,,,,,,,,,,5ce7f7ae2aa9590016af2ba7,2020-11-25_17h53.28.495,lexical_decision_task_MP_exp2,2020.2.5,Win32,60,,z,1,0.98208,,,,,,,,0.98208,1,0,15,15,13,1,1014,NW,UN,33,winfer,ROUPET,z,,,,,,,,,,,,,,,,
,space,0.595052083,-0.092447917,0,0,0,,,,,,,1,end_of_practice,"You have completed the practice trials. During the experimental trials, you will not receive feedback, but it is very important that you respond as quickly and accurately as possible. 
Before you begin, please ensure that you are in a comfortable and quiet location and will not be disturbed for about 15 minutes, as we cannot use your data if you do not complete all the trials. 
There will be opportunities to take breaks at regular intervals during the experiment. When you are ready to start the experimental trials, please press space or touch the button below.",,,5ce7f7ae2aa9590016af2ba7,2020-11-25_17h53.28.495,lexical_decision_task_MP_exp2,2020.2.5,Win32,60,4.54736,,,,,,,,,,,,,,,,,,,,,,,,,0,0,0,0,1,,,,,,,,,,,
,,,,,,,,,,,,,,,,,,5ce7f7ae2aa9590016af2ba7,2020-11-25_17h53.28.495,lexical_decision_task_MP_exp2,2020.2.5,Win32,60,,m,1,0.56585,,,,,,,,0.56585,1,,,,,,62,WORD,UN,33,launch,REGION,m,,,,,,0.595052083,-0.092447917,0,0,0,,0,0,0,121,1
,,,,,,,,,,,,,,,,,,5ce7f7ae2aa9590016af2ba7,2020-11-25_17h53.28.495,lexical_decision_task_MP_exp2,2020.2.5,Win32,60,,m,1,0.678215,,,,,,,,0.678215,1,,,,,,101,WORD,UN,33,direct,WRENCH,m,,,,,,0.595052083,-0.092447917,0,0,0,,0,1,1,160,1
,,,,,,,,,,,,,,,,,,5ce7f7ae2aa9590016af2ba7,2020-11-25_17h53.28.495,lexical_decision_task_MP_exp2,2020.2.5,Win32,60,,z,1,0.69659,,,,,,,,0.69659,1,,,,,,282,NW,"ID",16,porlex,PORLEX,z,,,,,,0.595052083,-0.092447917,0,0,0,,0,2,2,341,1
,,,,,,,,,,,,,,,,,,5ce7f7ae2aa9590016af2ba7,2020-11-25_17h53.28.495,lexical_decision_task_MP_exp2,2020.2.5,Win32,60,,m,1,0.57598,,,,,,,,0.57598,1,,,,,,19,WORD,"ID",16,patron,PATRON,m,,,,,,0.595052083,-0.092447917,0,0,0,,0,3,3,78,1
,,,,,,,,,,,,,,,,,,5ce7f7ae2aa9590016af2ba7,2020-11-25_17h53.28.495,lexical_decision_task_MP_exp2,2020.2.5,Win32,60,,z,1,0.627325,,,,,,,,0.627325,1,,,,,,385,NW,UN,16,ancust,VEIGMA,z,,,,,,0.595052083,-0.092447917,0,0,0,,0,4,4,444,1
,,,,,,,,,,,,,,,,,,5ce7f7ae2aa9590016af2ba7,2020-11-25_17h53.28.495,lexical_decision_task_MP_exp2,2020.2.5,Win32,60,,z,1,0.669375,,,,,,,,0.669375,1,,,,,,312,NW,UN,33,paurse,NERAWL,z,,,,,,0.595052083,-0.092447917,0,0,0,,0,5,5,371,1
,,,,,,,,,,,,,,,,,,5ce7f7ae2aa9590016af2ba7,2020-11-25_17h53.28.495,lexical_decision_task_MP_exp2,2020.2.5,Win32,60,,z,1,0.663805,,,,,,,,0.663805,1,,,,,,382,NW,UN,16,aungre,SARLEY,z,,,,,,0.595052083,-0.092447917,0,0,0,,0,6,6,441,1
,,,,,,,,,,,,,,,,,,5ce7f7ae2aa9590016af2ba7,2020-11-25_17h53.28.495,lexical_decision_task_MP_exp2,2020.2.5,Win32,60,,z,1,0.71338,,,,,,,,0.71338,1,,,,,,443,NW,"ID",33,dorsex,DORSEX,z,,,,,,0.595052083,-0.092447917,0,0,0,,0,7,7,262,1
,,,,,,,,,,,,,,,,,,5ce7f7ae2aa9590016af2ba7,2020-11-25_17h53.28.495,lexical_decision_task_MP_exp2,2020.2.5,Win32,60,,m,1,0.516045,,,,,,,,0.516045,1,,,,,,35,WORD,"ID",16,socket,SOCKET,m,,,,,,0.595052083,-0.092447917,0,0,0,,0,8,8,94,1
,,,,,,,,,,,,,,,,,,5ce7f7ae2aa9590016af2ba7,2020-11-25_17h53.28.495,lexical_decision_task_MP_exp2,2020.2.5,Win32,60,,m,1,0.62166,,,,,,,,0.62166,1,,,,,,68,WORD,UN,33,plenty,FUMBLE,m,,,,,,0.595052083,-0.092447917,0,0,0,,0,9,9,127,1
,,,,,,,,,,,,,,,,,,5ce7f7ae2aa9590016af2ba7,2020-11-25_17h53.28.495,lexical_decision_task_MP_exp2,2020.2.5,Win32,60,,z,1,0.61528,,,,,,,,0.61528,1,,,,,,403,NW,UN,16,cluirm,BRUATS,z,,,,,,0.595052083,-0.092447917,0,0,0,,0,10,10,462,1
,,,,,,,,,,,,,,,,,,5ce7f7ae2aa9590016af2ba7,2020-11-25_17h53.28.495,lexical_decision_task_MP_exp2,2020.2.5,Win32,60,,m,1,0.61885,,,,,,,,0.61885,1,,,,,,129,WORD,UN,16,stupid,MARVEL,m,,,,,,0.595052083,-0.092447917,0,0,0,,0,11,11,188,1
,,,,,,,,,,,,,,,,,,5ce7f7ae2aa9590016af2ba7,2020-11-25_17h53.28.495,lexical_decision_task_MP_exp2,2020.2.5,Win32,60,,m,1,0.480215,,,,,,,,0.480215,1,,,,,,150,WORD,UN,16,mystic,RANDOM,m,,,,,,0.595052083,-0.092447917,0,0,0,,0,12,12,209,1
,,,,,,,,,,,,,,,,,,5ce7f7ae2aa9590016af2ba7,2020-11-25_17h53.28.495,lexical_decision_task_MP_exp2,2020.2.5,Win32,60,,z,1,0.585605,,,,,,,,0.585605,1,,,,,,311,NW,UN,33,nerawl,SPROLY,z,,,,,,0.595052083,-0.092447917,0,0,0,,0,13,13,370,1
,,,,,,,,,,,,,,,,,,5ce7f7ae2aa9590016af2ba7,2020-11-25_17h53.28.495,lexical_decision_task_MP_exp2,2020.2.5,Win32,60,,z,1,0.82561,,,,,,,,0.82561,1,,,,,,281,NW,"ID",16,melaty,MELATY,z,,,,,,0.595052083,-0.092447917,0,0,0,,0,14,14,340,1
,,,,,,,,,,,,,,,,,,5ce7f7ae2aa9590016af2ba7,2020-11-25_17h53.28.495,lexical_decision_task_MP_exp2,2020.2.5,Win32,60,,m,1,0.556065,,,,,,,,0.556065,1,,,,,,78,WORD,UN,33,theory,COLUMN,m,,,,,,0.595052083,-0.092447917,0,0,0,,0,15,15,137,1
,,,,,,,,,,,,,,,,,,5ce7f7ae2aa9590016af2ba7,2020-11-25_17h53.28.495,lexical_decision_task_MP_exp2,2020.2.5,Win32,60,,m,1,0.55057,,,,,,,,0.55057,1,,,,,,111,WORD,UN,33,breath,INDUCE,m,,,,,,0.595052083,-0.092447917,0,0,0,,0,16,16,170,1
,,,,,,,,,,,,,,,,,,5ce7f7ae2aa9590016af2ba7,2020-11-25_17h53.28.495,lexical_decision_task_MP_exp2,2020.2.5,Win32,60,,z,1,0.63251,,,,,,,,0.63251,1,,,,,,451,NW,"ID",33,cainky,CAINKY,z,,,,,,0.595052083,-0.092447917,0,0,0,,0,17,17,270,1
,,,,,,,,,,,,,,,,,,5ce7f7ae2aa9590016af2ba7,2020-11-25_17h53.28.495,lexical_decision_task_MP_exp2,2020.2.5,Win32,60,,m,1,0.66447,,,,,,,,0.66447,1,,,,,,223,WORD,"ID",33,kidney,KIDNEY,m,,,,,,0.595052083,-0.092447917,0,0,0,,0,18,18,42,1
,,,,,,,,,,,,,,,,,,5ce7f7ae2aa9590016af2ba7,2020-11-25_17h53.28.495,lexical_decision_task_MP_exp2,2020.2.5,Win32,60,,m,1,0.49817,,,,,,,,0.49817,1,,,,,,151,WORD,UN,16,rocket,MYSTIC,m,,,,,,0.595052083,-0.092447917,0,0,0,,0,19,19,210,1
,,,,,,,,,,,,,,,,,,5ce7f7ae2aa9590016af2ba7,2020-11-25_17h53.28.495,lexical_decision_task_MP_exp2,2020.2.5,Win32,60,,m,1,0.541675,,,,,,,,0.541675,1,,,,,,28,WORD,"ID",16,comedy,COMEDY,m,,,,,,0.595052083,-0.092447917,0,0,0,,0,20,20,87,1
,,,,,,,,,,,,,,,,,,5ce7f7ae2aa9590016af2ba7,2020-11-25_17h53.28.495,lexical_decision_task_MP_exp2,2020.2.5,Win32,60,,m,0,0.54663,,,,,,,,0.54663,0,,,,,,260,NW,"ID",16,unject,UNJECT,z,,,,,,0.595052083,-0.092447917,0,0,0,,0,21,21,319,1
,,,,,,,,,,,,,,,,,,5ce7f7ae2aa9590016af2ba7,2020-11-25_17h53.28.495,lexical_decision_task_MP_exp2,2020.2.5,Win32,60,,m,1,0.567985,,,,,,,,0.567985,1,,,,,,72,WORD,UN,33,source,BRIGHT,m,,,,,,0.595052083,-0.092447917,0,0,0,,0,22,22,131,1
,,,,,,,,,,,,,,,,,,5ce7f7ae2aa9590016af2ba7,2020-11-25_17h53.28.495,lexical_decision_task_MP_exp2,2020.2.5,Win32,60,,m,0,0.79345,,,,,,,,0.79345,0,,,,,,437,NW,"ID",33,snapel,SNAPEL,z,,,,,,0.595052083,-0.092447917,0,0,0,,0,23,23,256,1
,,,,,,,,,,,,,,,,,,5ce7f7ae2aa9590016af2ba7,2020-11-25_17h53.28.495,lexical_decision_task_MP_exp2,2020.2.5,Win32,60,,z,1,0.741905,,,,,,,,0.741905,1,,,,,,360,NW,UN,33,fainch,DESORY,z,,,,,,0.595052083,-0.092447917,0,0,0,,0,24,24,419,1
,,,,,,,,,,,,,,,,,,5ce7f7ae2aa9590016af2ba7,2020-11-25_17h53.28.495,lexical_decision_task_MP_exp2,2020.2.5,Win32,60,,m,0,1.046805,,,,,,,,1.046805,0,,,,,,462,NW,"ID",33,absult,ABSULT,z,,,,,,0.595052083,-0.092447917,0,0,0,,0,25,25,281,1
,,,,,,,,,,,,,,,,,,5ce7f7ae2aa9590016af2ba7,2020-11-25_17h53.28.495,lexical_decision_task_MP_exp2,2020.2.5,Win32,60,,m,1,0.934025,,,,,,,,0.934025,1,,,,,,16,WORD,"ID",16,faucet,FAUCET,m,,,,,,0.595052083,-0.092447917,0,0,0,,0,26,26,75,1
,,,,,,,,,,,,,,,,,,5ce7f7ae2aa9590016af2ba7,2020-11-25_17h53.28.495,lexical_decision_task_MP_exp2,2020.2.5,Win32,60,,m,0,0.848505,,,,,,,,0.848505,0,,,,,,303,NW,UN,33,cludie,FIREAM,z,,,,,,0.595052083,-0.092447917,0,0,0,,0,27,27,362,1
,,,,,,,,,,,,,,,,,,5ce7f7ae2aa9590016af2ba7,2020-11-25_17h53.28.495,lexical_decision_task_MP_exp2,2020.2.5,Win32,60,,m,0,1.29426,,,,,,,,1.29426,0,,,,,,262,NW,"ID",16,quilew,QUILEW,z,,,,,,0.595052083,-0.092447917,0,0,0,,0,28,28,321,1
,,,,,,,,,,,,,,,,,,5ce7f7ae2aa9590016af2ba7,2020-11-25_17h53.28.495,lexical_decision_task_MP_exp2,2020.2.5,Win32,60,,m,1,0.76258,,,,,,,,0.76258,1,,,,,,63,WORD,UN,33,throne,LAUNCH,m,,,,,,0.595052083,-0.092447917,0,0,0,,0,29,29,122,1
,,,,,,,,,,,,,,,,,,5ce7f7ae2aa9590016af2ba7,2020-11-25_17h53.28.495,lexical_decision_task_MP_exp2,2020.2.5,Win32,60,,z,1,0.70129,,,,,,,,0.70129,1,,,,,,366,NW,UN,16,slique,TOSHEL,z,,,,,,0.595052083,-0.092447917,0,0,0,,0,30,30,425,1
,,,,,,,,,,,,,,,,,,5ce7f7ae2aa9590016af2ba7,2020-11-25_17h53.28.495,lexical_decision_task_MP_exp2,2020.2.5,Win32,60,,z,1,0.83176,,,,,,,,0.83176,1,,,,,,397,NW,UN,16,blunde,CAMBLE,z,,,,,,0.595052083,-0.092447917,0,0,0,,0,31,31,456,1
,,,,,,,,,,,,,,,,,,5ce7f7ae2aa9590016af2ba7,2020-11-25_17h53.28.495,lexical_decision_task_MP_exp2,2020.2.5,Win32,60,,m,1,0.70918,,,,,,,,0.70918,1,,,,,,193,WORD,"ID",33,object,OBJECT,m,,,,,,0.595052083,-0.092447917,0,0,0,,0,32,32,12,1
,,,,,,,,,,,,,,,,,,5ce7f7ae2aa9590016af2ba7,2020-11-25_17h53.28.495,lexical_decision_task_MP_exp2,2020.2.5,Win32,60,,z,1,1.803905,,,,,,,,1.803905,1,,,,,,456,NW,"ID",33,broget,BROGET,z,,,,,,0.595052083,-0.092447917,0,0,0,,0,33,33,275,1
,,,,,,,,,,,,,,,,,,5ce7f7ae2aa9590016af2ba7,2020-11-25_17h53.28.495,lexical_decision_task_MP_exp2,2020.2.5,Win32,60,,m,1,0.63069,,,,,,,,0.63069,1,,,,,,44,WORD,"ID",16,danger,DANGER,m,,,,,,0.595052083,-0.092447917,0,0,0,,0,34,34,103,1
,,,,,,,,,,,,,,,,,,5ce7f7ae2aa9590016af2ba7,2020-11-25_17h53.28.495,lexical_decision_task_MP_exp2,2020.2.5,Win32,60,,z,1,0.66683,,,,,,,,0.66683,1,,,,,,265,NW,"ID",16,distar,DISTAR,z,,,,,,0.595052083,-0.092447917,0,0,0,,0,35,35,324,1
,,,,,,,,,,,,,,,,,,5ce7f7ae2aa9590016af2ba7,2020-11-25_17h53.28.495,lexical_decision_task_MP_exp2,2020.2.5,Win32,60,,z,1,0.647785,,,,,,,,0.647785,1,,,,,,257,NW,"ID",16,veniod,VENIOD,z,,,,,,0.595052083,-0.092447917,0,0,0,,0,36,36,316,1
,,,,,,,,,,,,,,,,,,5ce7f7ae2aa9590016af2ba7,2020-11-25_17h53.28.495,lexical_decision_task_MP_exp2,2020.2.5,Win32,60,,z,1,0.63166,,,,,,,,0.63166,1,,,,,,339,NW,UN,33,fiatch,FACHOW,z,,,,,,0.595052083,-0.092447917,0,0,0,,0,37,37,398,1
,,,,,,,,,,,,,,,,,,5ce7f7ae2aa9590016af2ba7,2020-11-25_17h53.28.495,lexical_decision_task_MP_exp2,2020.2.5,Win32,60,,z,1,0.666915,,,,,,,,0.666915,1,,,,,,243,NW,"ID",16,musied,MUSIED,z,,,,,,0.595052083,-0.092447917,0,0,0,,0,38,38,302,1
,,,,,,,,,,,,,,,,,,5ce7f7ae2aa9590016af2ba7,2020-11-25_17h53.28.495,lexical_decision_task_MP_exp2,2020.2.5,Win32,60,,m,1,0.62101,,,,,,,,0.62101,1,,,,,,144,WORD,UN,16,parish,SPONGE,m,,,,,,0.595052083,-0.092447917,0,0,0,,0,39,39,203,1
,,,,,,,,,,,,,,,,,,5ce7f7ae2aa9590016af2ba7,2020-11-25_17h53.28.495,lexical_decision_task_MP_exp2,2020.2.5,Win32,60,,z,1,0.69692,,,,,,,,0.69692,1,,,,,,449,NW,"ID",33,brunge,BRUNGE,z,,,,,,0.595052083,-0.092447917,0,0,0,,0,40,40,268,1
,,,,,,,,,,,,,,,,,,5ce7f7ae2aa9590016af2ba7,2020-11-25_17h53.28.495,lexical_decision_task_MP_exp2,2020.2.5,Win32,60,,m,1,0.63499,,,,,,,,0.63499,1,,,,,,189,WORD,"ID",33,censor,CENSOR,m,,,,,,0.595052083,-0.092447917,0,0,0,,0,41,41,8,1
,,,,,,,,,,,,,,,,,,5ce7f7ae2aa9590016af2ba7,2020-11-25_17h53.28.495,lexical_decision_task_MP_exp2,2020.2.5,Win32,60,,z,1,0.64766,,,,,,,,0.64766,1,,,,,,279,NW,"ID",16,celond,CELOND,z,,,,,,0.595052083,-0.092447917,0,0,0,,0,42,42,338,1
,,,,,,,,,,,,,,,,,,5ce7f7ae2aa9590016af2ba7,2020-11-25_17h53.28.495,lexical_decision_task_MP_exp2,2020.2.5,Win32,60,,z,1,0.698205,,,,,,,,0.698205,1,,,,,,470,NW,"ID",33,crudio,CRUDIO,z,,,,,,0.595052083,-0.092447917,0,0,0,,0,43,43,289,1
,,,,,,,,,,,,,,,,,,5ce7f7ae2aa9590016af2ba7,2020-11-25_17h53.28.495,lexical_decision_task_MP_exp2,2020.2.5,Win32,60,,z,1,0.799995,,,,,,,,0.799995,1,,,,,,300,NW,"ID",16,yarion,YARION,z,,,,,,0.595052083,-0.092447917,0,0,0,,0,44,44,359,1
,,,,,,,,,,,,,,,,,,5ce7f7ae2aa9590016af2ba7,2020-11-25_17h53.28.495,lexical_decision_task_MP_exp2,2020.2.5,Win32,60,,m,0,0.712135,,,,,,,,0.712135,0,,,,,,357,NW,UN,33,fleack,DERAIN,z,,,,,,0.595052083,-0.092447917,0,0,0,,0,45,45,416,1
,,,,,,,,,,,,,,,,,,5ce7f7ae2aa9590016af2ba7,2020-11-25_17h53.28.495,lexical_decision_task_MP_exp2,2020.2.5,Win32,60,,m,1,1.08462,,,,,,,,1.08462,1,,,,,,200,WORD,"ID",33,beacon,BEACON,m,,,,,,0.595052083,-0.092447917,0,0,0,,0,46,46,19,1
,,,,,,,,,,,,,,,,,,5ce7f7ae2aa9590016af2ba7,2020-11-25_17h53.28.495,lexical_decision_task_MP_exp2,2020.2.5,Win32,60,,z,1,0.850705,,,,,,,,0.850705,1,,,,,,362,NW,UN,16,breali,TIREAU,z,,,,,,0.595052083,-0.092447917,0,0,0,,0,47,47,421,1
,,,,,,,,,,,,,,,,,,5ce7f7ae2aa9590016af2ba7,2020-11-25_17h53.28.495,lexical_decision_task_MP_exp2,2020.2.5,Win32,60,,z,1,0.63124,,,,,,,,0.63124,1,,,,,,294,NW,"ID",16,inhort,INHORT,z,,,,,,0.595052083,-0.092447917,0,0,0,,0,48,48,353,1
,,,,,,,,,,,,,,,,,,5ce7f7ae2aa9590016af2ba7,2020-11-25_17h53.28.495,lexical_decision_task_MP_exp2,2020.2.5,Win32,60,,m,1,0.65933,,,,,,,,0.65933,1,,,,,,51,WORD,"ID",16,hungry,HUNGRY,m,,,,,,0.595052083,-0.092447917,0,0,0,,0,49,49,110,1
,,,,,,,,,,,,,,,,,,5ce7f7ae2aa9590016af2ba7,2020-11-25_17h53.28.495,lexical_decision_task_MP_exp2,2020.2.5,Win32,60,,z,1,0.61379,,,,,,,,0.61379,1,,,,,,405,NW,UN,16,nouply,FLUMNI,z,,,,,,0.595052083,-0.092447917,0,0,0,,0,50,50,464,1
,,,,,,,,,,,,,,,,,,5ce7f7ae2aa9590016af2ba7,2020-11-25_17h53.28.495,lexical_decision_task_MP_exp2,2020.2.5,Win32,60,,m,1,0.58319,,,,,,,,0.58319,1,,,,,,34,WORD,"ID",16,jungle,JUNGLE,m,,,,,,0.595052083,-0.092447917,0,0,0,,0,51,51,93,1
,,,,,,,,,,,,,,,,,,5ce7f7ae2aa9590016af2ba7,2020-11-25_17h53.28.495,lexical_decision_task_MP_exp2,2020.2.5,Win32,60,,m,1,0.63848,,,,,,,,0.63848,1,,,,,,194,WORD,"ID",33,absent,ABSENT,m,,,,,,0.595052083,-0.092447917,0,0,0,,0,52,52,13,1
,,,,,,,,,,,,,,,,,,5ce7f7ae2aa9590016af2ba7,2020-11-25_17h53.28.495,lexical_decision_task_MP_exp2,2020.2.5,Win32,60,,z,1,0.807755,,,,,,,,0.807755,1,,,,,,433,NW,"ID",33,drance,DRANCE,z,,,,,,0.595052083,-0.092447917,0,0,0,,0,53,53,252,1
,,,,,,,,,,,,,,,,,,5ce7f7ae2aa9590016af2ba7,2020-11-25_17h53.28.495,lexical_decision_task_MP_exp2,2020.2.5,Win32,60,,m,1,0.68143,,,,,,,,0.68143,1,,,,,,32,WORD,"ID",16,buckle,BUCKLE,m,,,,,,0.595052083,-0.092447917,0,0,0,,0,54,54,91,1
,,,,,,,,,,,,,,,,,,5ce7f7ae2aa9590016af2ba7,2020-11-25_17h53.28.495,lexical_decision_task_MP_exp2,2020.2.5,Win32,60,,m,1,0.61618,,,,,,,,0.61618,1,,,,,,55,WORD,"ID",16,stroke,STROKE,m,,,,,,0.595052083,-0.092447917,0,0,0,,0,55,55,114,1
,,,,,,,,,,,,,,,,,,5ce7f7ae2aa9590016af2ba7,2020-11-25_17h53.28.495,lexical_decision_task_MP_exp2,2020.2.5,Win32,60,,m,1,0.57483,,,,,,,,0.57483,1,,,,,,164,WORD,UN,16,invest,MARKET,m,,,,,,0.595052083,-0.092447917,0,0,0,,0,56,56,223,1
,,,,,,,,,,,,,,,,,,5ce7f7ae2aa9590016af2ba7,2020-11-25_17h53.28.495,lexical_decision_task_MP_exp2,2020.2.5,Win32,60,,m,1,0.567915,,,,,,,,0.567915,1,,,,,,154,WORD,UN,16,lizard,AUTHOR,m,,,,,,0.595052083,-0.092447917,0,0,0,,0,57,57,213,1
,,,,,,,,,,,,,,,,,,5ce7f7ae2aa9590016af2ba7,2020-11-25_17h53.28.495,lexical_decision_task_MP_exp2,2020.2.5,Win32,60,,z,1,0.600645,,,,,,,,0.600645,1,,,,,,261,NW,"ID",16,stunch,STUNCH,z,,,,,,0.595052083,-0.092447917,0,0,0,,0,58,58,320,1
,,,,,,,,,,,,,,,,,,5ce7f7ae2aa9590016af2ba7,2020-11-25_17h53.28.495,lexical_decision_task_MP_exp2,2020.2.5,Win32,60,,m,1,0.522565,,,,,,,,0.522565,1,,,,,,214,WORD,"ID",33,intake,INTAKE,m,,,,,,0.595052083,-0.092447917,0,0,0,,0,59,59,33,1
,,,,,,,,,,,,,,,,,,5ce7f7ae2aa9590016af2ba7,2020-11-25_17h53.28.495,lexical_decision_task_MP_exp2,2020.2.5,Win32,60,,m,1,0.515975,,,,,,,,0.515975,1,,,,,,213,WORD,"ID",33,squeal,SQUEAL,m,,,,,,0.595052083,-0.092447917,0,0,0,,0,60,60,32,1
,,,,,,,,,,,,,,,,,,5ce7f7ae2aa9590016af2ba7,2020-11-25_17h53.28.495,lexical_decision_task_MP_exp2,2020.2.5,Win32,60,,z,1,0.665985,,,,,,,,0.665985,1,,,,,,468,NW,"ID",33,wictor,WICTOR,z,,,,,,0.595052083,-0.092447917,0,0,0,,0,61,61,287,1
,,,,,,,,,,,,,,,,,,5ce7f7ae2aa9590016af2ba7,2020-11-25_17h53.28.495,lexical_decision_task_MP_exp2,2020.2.5,Win32,60,,z,1,0.833665,,,,,,,,0.833665,1,,,,,,332,NW,UN,33,catrie,VANGUE,z,,,,,,0.595052083,-0.092447917,0,0,0,,0,62,62,391,1
,,,,,,,,,,,,,,,,,,5ce7f7ae2aa9590016af2ba7,2020-11-25_17h53.28.495,lexical_decision_task_MP_exp2,2020.2.5,Win32,60,,m,1,0.743845,,,,,,,,0.743845,1,,,,,,199,WORD,"ID",33,invoke,INVOKE,m,,,,,,0.595052083,-0.092447917,0,0,0,,0,63,63,18,1
,,,,,,,,,,,,,,,,,,5ce7f7ae2aa9590016af2ba7,2020-11-25_17h53.28.495,lexical_decision_task_MP_exp2,2020.2.5,Win32,60,,m,1,0.633675,,,,,,,,0.633675,1,,,,,,114,WORD,UN,33,guitar,PLACID,m,,,,,,0.595052083,-0.092447917,0,0,0,,0,64,64,173,1
,,,,,,,,,,,,,,,,,,5ce7f7ae2aa9590016af2ba7,2020-11-25_17h53.28.495,lexical_decision_task_MP_exp2,2020.2.5,Win32,60,,z,1,0.598315,,,,,,,,0.598315,1,,,,,,245,NW,"ID",16,anougs,ANOUGS,z,,,,,,0.595052083,-0.092447917,0,0,0,,0,65,65,304,1
,,,,,,,,,,,,,,,,,,5ce7f7ae2aa9590016af2ba7,2020-11-25_17h53.28.495,lexical_decision_task_MP_exp2,2020.2.5,Win32,60,,m,0,0.75492,,,,,,,,0.75492,0,,,,,,338,NW,UN,33,fachow,WREASH,z,,,,,,0.595052083,-0.092447917,0,0,0,,0,66,66,397,1
,,,,,,,,,,,,,,,,,,5ce7f7ae2aa9590016af2ba7,2020-11-25_17h53.28.495,lexical_decision_task_MP_exp2,2020.2.5,Win32,60,,z,1,1.01562,,,,,,,,1.01562,1,,,,,,431,NW,"ID",33,chrums,CHRUMS,z,,,,,,0.595052083,-0.092447917,0,0,0,,0,67,67,250,1
,,,,,,,,,,,,,,,,,,5ce7f7ae2aa9590016af2ba7,2020-11-25_17h53.28.495,lexical_decision_task_MP_exp2,2020.2.5,Win32,60,,m,1,0.54887,,,,,,,,0.54887,1,,,,,,157,WORD,UN,16,island,DRAGON,m,,,,,,0.595052083,-0.092447917,0,0,0,,0,68,68,216,1
,,,,,,,,,,,,,,,,,,5ce7f7ae2aa9590016af2ba7,2020-11-25_17h53.28.495,lexical_decision_task_MP_exp2,2020.2.5,Win32,60,,z,1,0.75106,,,,,,,,0.75106,1,,,,,,268,NW,"ID",16,packes,PACKES,z,,,,,,0.595052083,-0.092447917,0,0,0,,0,69,69,327,1
,,,,,,,,,,,,,,,,,,5ce7f7ae2aa9590016af2ba7,2020-11-25_17h53.28.495,lexical_decision_task_MP_exp2,2020.2.5,Win32,60,,z,1,0.66073,,,,,,,,0.66073,1,,,,,,373,NW,UN,16,sliant,BIGENT,z,,,,,,0.595052083,-0.092447917,0,0,0,,0,70,70,432,1
,,,,,,,,,,,,,,,,,,5ce7f7ae2aa9590016af2ba7,2020-11-25_17h53.28.495,lexical_decision_task_MP_exp2,2020.2.5,Win32,60,,m,1,0.748335,,,,,,,,0.748335,1,,,,,,82,WORD,UN,33,result,STIGMA,m,,,,,,0.595052083,-0.092447917,0,0,0,,0,71,71,141,1
,,,,,,,,,,,,,,,,,,5ce7f7ae2aa9590016af2ba7,2020-11-25_17h53.28.495,lexical_decision_task_MP_exp2,2020.2.5,Win32,60,,m,1,1.23061,,,,,,,,1.23061,1,,,,,,190,WORD,"ID",33,backup,BACKUP,m,,,,,,0.595052083,-0.092447917,0,0,0,,0,72,72,9,1
,,,,,,,,,,,,,,,,,,5ce7f7ae2aa9590016af2ba7,2020-11-25_17h53.28.495,lexical_decision_task_MP_exp2,2020.2.5,Win32,60,,z,1,0.571795,,,,,,,,0.571795,1,,,,,,347,NW,UN,33,dumple,KERIFT,z,,,,,,0.595052083,-0.092447917,0,0,0,,0,73,73,406,1
,,,,,,,,,,,,,,,,,,5ce7f7ae2aa9590016af2ba7,2020-11-25_17h53.28.495,lexical_decision_task_MP_exp2,2020.2.5,Win32,60,,m,1,0.721455,,,,,,,,0.721455,1,,,,,,87,WORD,UN,33,sprawl,FILTER,m,,,,,,0.595052083,-0.092447917,0,0,0,,0,74,74,146,1
,,,,,,,,,,,,,,,,,,5ce7f7ae2aa9590016af2ba7,2020-11-25_17h53.28.495,lexical_decision_task_MP_exp2,2020.2.5,Win32,60,,m,1,0.61342,,,,,,,,0.61342,1,,,,,,107,WORD,UN,33,reckon,SLOGAN,m,,,,,,0.595052083,-0.092447917,0,0,0,,0,75,75,166,1
,,,,,,,,,,,,,,,,,,5ce7f7ae2aa9590016af2ba7,2020-11-25_17h53.28.495,lexical_decision_task_MP_exp2,2020.2.5,Win32,60,,m,1,1.15838,,,,,,,,1.15838,1,,,,,,84,WORD,UN,33,strand,MORTAL,m,,,,,,0.595052083,-0.092447917,0,0,0,,0,76,76,143,1
,,,,,,,,,,,,,,,,,,5ce7f7ae2aa9590016af2ba7,2020-11-25_17h53.28.495,lexical_decision_task_MP_exp2,2020.2.5,Win32,60,,m,1,0.767325,,,,,,,,0.767325,1,,,,,,106,WORD,UN,33,slogan,RANSOM,m,,,,,,0.595052083,-0.092447917,0,0,0,,0,77,77,165,1
,,,,,,,,,,,,,,,,,,5ce7f7ae2aa9590016af2ba7,2020-11-25_17h53.28.495,lexical_decision_task_MP_exp2,2020.2.5,Win32,60,,z,1,0.572855,,,,,,,,0.572855,1,,,,,,359,NW,UN,33,desory,FONVER,z,,,,,,0.595052083,-0.092447917,0,0,0,,0,78,78,418,1
,,,,,,,,,,,,,,,,,,5ce7f7ae2aa9590016af2ba7,2020-11-25_17h53.28.495,lexical_decision_task_MP_exp2,2020.2.5,Win32,60,,m,1,0.761015,,,,,,,,0.761015,1,,,,,,83,WORD,UN,33,mortal,RESULT,m,,,,,,0.595052083,-0.092447917,0,0,0,,0,79,79,142,1
,,,,,,,,,,,,,,,,,,5ce7f7ae2aa9590016af2ba7,2020-11-25_17h53.28.495,lexical_decision_task_MP_exp2,2020.2.5,Win32,60,,m,1,0.83832,,,,,,,,0.83832,1,,,,,,52,WORD,"ID",16,impose,IMPOSE,m,,,,,,0.595052083,-0.092447917,0,0,0,,0,80,80,111,1
,,,,,,,,,,,,,,,,,,5ce7f7ae2aa9590016af2ba7,2020-11-25_17h53.28.495,lexical_decision_task_MP_exp2,2020.2.5,Win32,60,,z,1,0.596975,,,,,,,,0.596975,1,,,,,,253,NW,"ID",16,resait,RESAIT,z,,,,,,0.595052083,-0.092447917,0,0,0,,0,81,81,312,1
,,,,,,,,,,,,,,,,,,5ce7f7ae2aa9590016af2ba7,2020-11-25_17h53.28.495,lexical_decision_task_MP_exp2,2020.2.5,Win32,60,,m,1,0.61664,,,,,,,,0.61664,1,,,,,,210,WORD,"ID",33,monkey,MONKEY,m,,,,,,0.595052083,-0.092447917,0,0,0,,0,82,82,29,1
,,,,,,,,,,,,,,,,,,5ce7f7ae2aa9590016af2ba7,2020-11-25_17h53.28.495,lexical_decision_task_MP_exp2,2020.2.5,Win32,60,,z,0,0.587295,,,,,,,,0.587295,0,,,,,,58,WORD,"ID",16,foster,FOSTER,m,,,,,,0.595052083,-0.092447917,0,0,0,,0,83,83,117,1
,,,,,,,,,,,,,,,,,,5ce7f7ae2aa9590016af2ba7,2020-11-25_17h53.28.495,lexical_decision_task_MP_exp2,2020.2.5,Win32,60,,m,1,1.01948,,,,,,,,1.01948,1,,,,,,50,WORD,"ID",16,snatch,SNATCH,m,,,,,,0.595052083,-0.092447917,0,0,0,,0,84,84,109,1
,,,,,,,,,,,,,,,,,,5ce7f7ae2aa9590016af2ba7,2020-11-25_17h53.28.495,lexical_decision_task_MP_exp2,2020.2.5,Win32,60,,z,1,0.614855,,,,,,,,0.614855,1,,,,,,365,NW,UN,16,toshel,GUAIRT,z,,,,,,0.595052083,-0.092447917,0,0,0,,0,85,85,424,1
,,,,,,,,,,,,,,,,,,5ce7f7ae2aa9590016af2ba7,2020-11-25_17h53.28.495,lexical_decision_task_MP_exp2,2020.2.5,Win32,60,,m,1,0.823385,,,,,,,,0.823385,1,,,,,,184,WORD,"ID",33,sleazy,SLEAZY,m,,,,,,0.595052083,-0.092447917,0,0,0,,0,86,86,3,1
,,,,,,,,,,,,,,,,,,5ce7f7ae2aa9590016af2ba7,2020-11-25_17h53.28.495,lexical_decision_task_MP_exp2,2020.2.5,Win32,60,,z,1,0.569925,,,,,,,,0.569925,1,,,,,,387,NW,UN,16,cragin,GRONCE,z,,,,,,0.595052083,-0.092447917,0,0,0,,0,87,87,446,1
,,,,,,,,,,,,,,,,,,5ce7f7ae2aa9590016af2ba7,2020-11-25_17h53.28.495,lexical_decision_task_MP_exp2,2020.2.5,Win32,60,,m,1,0.962765,,,,,,,,0.962765,1,,,,,,145,WORD,UN,16,couple,PARISH,m,,,,,,0.595052083,-0.092447917,0,0,0,,0,88,88,204,1
,,,,,,,,,,,,,,,,,,5ce7f7ae2aa9590016af2ba7,2020-11-25_17h53.28.495,lexical_decision_task_MP_exp2,2020.2.5,Win32,60,,z,1,0.69385,,,,,,,,0.69385,1,,,,,,460,NW,"ID",33,mingar,MINGAR,z,,,,,,0.595052083,-0.092447917,0,0,0,,0,89,89,279,1
,,,,,,,,,,,,,,,,,,5ce7f7ae2aa9590016af2ba7,2020-11-25_17h53.28.495,lexical_decision_task_MP_exp2,2020.2.5,Win32,60,,m,1,0.585925,,,,,,,,0.585925,1,,,,,,191,WORD,"ID",33,stable,STABLE,m,,,,,,0.595052083,-0.092447917,0,0,0,,0,90,90,10,1
,,,,,,,,,,,,,,,,,,5ce7f7ae2aa9590016af2ba7,2020-11-25_17h53.28.495,lexical_decision_task_MP_exp2,2020.2.5,Win32,60,,m,1,0.586925,,,,,,,,0.586925,1,,,,,,221,WORD,"ID",33,mascot,MASCOT,m,,,,,,0.595052083,-0.092447917,0,0,0,,0,91,91,40,1
,,,,,,,,,,,,,,,,,,5ce7f7ae2aa9590016af2ba7,2020-11-25_17h53.28.495,lexical_decision_task_MP_exp2,2020.2.5,Win32,60,,m,1,0.66486,,,,,,,,0.66486,1,,,,,,2,WORD,"ID",16,bridge,BRIDGE,m,,,,,,0.595052083,-0.092447917,0,0,0,,0,92,92,61,1
,,,,,,,,,,,,,,,,,,5ce7f7ae2aa9590016af2ba7,2020-11-25_17h53.28.495,lexical_decision_task_MP_exp2,2020.2.5,Win32,60,,z,1,0.634545,,,,,,,,0.634545,1,,,,,,439,NW,"ID",33,limpor,LIMPOR,z,,,,,,0.595052083,-0.092447917,0,0,0,,0,93,93,258,1
,,,,,,,,,,,,,,,,,,5ce7f7ae2aa9590016af2ba7,2020-11-25_17h53.28.495,lexical_decision_task_MP_exp2,2020.2.5,Win32,60,,z,1,0.5656,,,,,,,,0.5656,1,,,,,,287,NW,"ID",16,nymbel,NYMBEL,z,,,,,,0.595052083,-0.092447917,0,0,0,,0,94,94,346,1
,,,,,,,,,,,,,,,,,,5ce7f7ae2aa9590016af2ba7,2020-11-25_17h53.28.495,lexical_decision_task_MP_exp2,2020.2.5,Win32,60,,z,1,0.53238,,,,,,,,0.53238,1,,,,,,305,NW,UN,33,sounge,FORGLE,z,,,,,,0.595052083,-0.092447917,0,0,0,,0,95,95,364,1
,,,,,,,,,,,,,,,,,,5ce7f7ae2aa9590016af2ba7,2020-11-25_17h53.28.495,lexical_decision_task_MP_exp2,2020.2.5,Win32,60,,z,1,0.57061,,,,,,,,0.57061,1,,,,,,306,NW,UN,33,kirafe,SOUNGE,z,,,,,,0.595052083,-0.092447917,0,0,0,,0,96,96,365,1
,,,,,,,,,,,,,,,,,,5ce7f7ae2aa9590016af2ba7,2020-11-25_17h53.28.495,lexical_decision_task_MP_exp2,2020.2.5,Win32,60,,m,1,0.57551,,,,,,,,0.57551,1,,,,,,17,WORD,"ID",16,charge,CHARGE,m,,,,,,0.595052083,-0.092447917,0,0,0,,0,97,97,76,1
,,,,,,,,,,,,,,,,,,5ce7f7ae2aa9590016af2ba7,2020-11-25_17h53.28.495,lexical_decision_task_MP_exp2,2020.2.5,Win32,60,,m,1,0.71982,,,,,,,,0.71982,1,,,,,,153,WORD,UN,16,author,BEHOLD,m,,,,,,0.595052083,-0.092447917,0,0,0,,0,98,98,212,1
,,,,,,,,,,,,,,,,,,5ce7f7ae2aa9590016af2ba7,2020-11-25_17h53.28.495,lexical_decision_task_MP_exp2,2020.2.5,Win32,60,,m,1,0.66468,,,,,,,,0.66468,1,,,,,,94,WORD,UN,33,thread,TRAVEL,m,,,,,,0.595052083,-0.092447917,0,0,0,,0,99,99,153,1
,,,,,,,,,,,,,,,,,,5ce7f7ae2aa9590016af2ba7,2020-11-25_17h53.28.495,lexical_decision_task_MP_exp2,2020.2.5,Win32,60,,z,1,0.635105,,,,,,,,0.635105,1,,,,,,400,NW,UN,16,mustil,WEAROX,z,,,,,,0.595052083,-0.092447917,0,0,0,,0,100,100,459,1
,,,,,,,,,,,,,,,,,,5ce7f7ae2aa9590016af2ba7,2020-11-25_17h53.28.495,lexical_decision_task_MP_exp2,2020.2.5,Win32,60,,m,0,0.57823,,,,,,,,0.57823,0,,,,,,285,NW,"ID",16,prudge,PRUDGE,z,,,,,,0.595052083,-0.092447917,0,0,0,,0,101,101,344,1
,,,,,,,,,,,,,,,,,,5ce7f7ae2aa9590016af2ba7,2020-11-25_17h53.28.495,lexical_decision_task_MP_exp2,2020.2.5,Win32,60,,z,1,0.650825,,,,,,,,0.650825,1,,,,,,336,NW,UN,33,rejols,GHODUS,z,,,,,,0.595052083,-0.092447917,0,0,0,,0,102,102,395,1
,,,,,,,,,,,,,,,,,,5ce7f7ae2aa9590016af2ba7,2020-11-25_17h53.28.495,lexical_decision_task_MP_exp2,2020.2.5,Win32,60,,m,1,0.88767,,,,,,,,0.88767,1,,,,,,176,WORD,UN,16,advent,STRIFE,m,,,,,,0.595052083,-0.092447917,0,0,0,,0,103,103,235,1
,,,,,,,,,,,,,,,,,,5ce7f7ae2aa9590016af2ba7,2020-11-25_17h53.28.495,lexical_decision_task_MP_exp2,2020.2.5,Win32,60,,z,1,0.67692,,,,,,,,0.67692,1,,,,,,326,NW,UN,33,plenac,IGUADE,z,,,,,,0.595052083,-0.092447917,0,0,0,,0,104,104,385,1
,,,,,,,,,,,,,,,,,,5ce7f7ae2aa9590016af2ba7,2020-11-25_17h53.28.495,lexical_decision_task_MP_exp2,2020.2.5,Win32,60,,z,1,0.63197,,,,,,,,0.63197,1,,,,,,384,NW,UN,16,injore,GUESCO,z,,,,,,0.595052083,-0.092447917,0,0,0,,0,105,105,443,1
,,,,,,,,,,,,,,,,,,5ce7f7ae2aa9590016af2ba7,2020-11-25_17h53.28.495,lexical_decision_task_MP_exp2,2020.2.5,Win32,60,,z,1,0.69632,,,,,,,,0.69632,1,,,,,,441,NW,"ID",33,rastoe,RASTOE,z,,,,,,0.595052083,-0.092447917,0,0,0,,0,106,106,260,1
,,,,,,,,,,,,,,,,,,5ce7f7ae2aa9590016af2ba7,2020-11-25_17h53.28.495,lexical_decision_task_MP_exp2,2020.2.5,Win32,60,,z,1,0.94898,,,,,,,,0.94898,1,,,,,,414,NW,UN,16,higsta,SERBOL,z,,,,,,0.595052083,-0.092447917,0,0,0,,0,107,107,473,1
,,,,,,,,,,,,,,,,,,5ce7f7ae2aa9590016af2ba7,2020-11-25_17h53.28.495,lexical_decision_task_MP_exp2,2020.2.5,Win32,60,,z,1,0.7702,,,,,,,,0.7702,1,,,,,,349,NW,UN,33,nagurs,ASYLEN,z,,,,,,0.595052083,-0.092447917,0,0,0,,0,108,108,408,1
,,,,,,,,,,,,,,,,,,5ce7f7ae2aa9590016af2ba7,2020-11-25_17h53.28.495,lexical_decision_task_MP_exp2,2020.2.5,Win32,60,,z,1,0.826115,,,,,,,,0.826115,1,,,,,,457,NW,"ID",33,wanigh,WANIGH,z,,,,,,0.595052083,-0.092447917,0,0,0,,0,109,109,276,1
,,,,,,,,,,,,,,,,,,5ce7f7ae2aa9590016af2ba7,2020-11-25_17h53.28.495,lexical_decision_task_MP_exp2,2020.2.5,Win32,60,,z,1,0.69789,,,,,,,,0.69789,1,,,,,,389,NW,UN,16,hatrus,WITMER,z,,,,,,0.595052083,-0.092447917,0,0,0,,0,110,110,448,1
,,,,,,,,,,,,,,,,,,5ce7f7ae2aa9590016af2ba7,2020-11-25_17h53.28.495,lexical_decision_task_MP_exp2,2020.2.5,Win32,60,,z,1,0.67866,,,,,,,,0.67866,1,,,,,,324,NW,UN,33,thruse,STEIKH,z,,,,,,0.595052083,-0.092447917,0,0,0,,0,111,111,383,1
,,,,,,,,,,,,,,,,,,5ce7f7ae2aa9590016af2ba7,2020-11-25_17h53.28.495,lexical_decision_task_MP_exp2,2020.2.5,Win32,60,,m,1,0.56057,,,,,,,,0.56057,1,,,,,,240,WORD,"ID",33,forest,FOREST,m,,,,,,0.595052083,-0.092447917,0,0,0,,0,112,112,59,1
,,,,,,,,,,,,,,,,,,5ce7f7ae2aa9590016af2ba7,2020-11-25_17h53.28.495,lexical_decision_task_MP_exp2,2020.2.5,Win32,60,,m,1,0.522575,,,,,,,,0.522575,1,,,,,,137,WORD,UN,16,melody,FINGER,m,,,,,,0.595052083,-0.092447917,0,0,0,,0,113,113,196,1
,,,,,,,,,,,,,,,,,,5ce7f7ae2aa9590016af2ba7,2020-11-25_17h53.28.495,lexical_decision_task_MP_exp2,2020.2.5,Win32,60,,m,1,0.553985,,,,,,,,0.553985,1,,,,,,219,WORD,"ID",33,bucket,BUCKET,m,,,,,,0.595052083,-0.092447917,0,0,0,,0,114,114,38,1
,,,,,,,,,,,,,,,,,,5ce7f7ae2aa9590016af2ba7,2020-11-25_17h53.28.495,lexical_decision_task_MP_exp2,2020.2.5,Win32,60,,m,1,0.554355,,,,,,,,0.554355,1,,,,,,93,WORD,UN,33,travel,PUBLIC,m,,,,,,0.595052083,-0.092447917,0,0,0,,0,115,115,152,1
,,,,,,,,,,,,,,,,,,5ce7f7ae2aa9590016af2ba7,2020-11-25_17h53.28.495,lexical_decision_task_MP_exp2,2020.2.5,Win32,60,,z,1,0.63118,,,,,,,,0.63118,1,,,,,,476,NW,"ID",33,josted,JOSTED,z,,,,,,0.595052083,-0.092447917,0,0,0,,0,116,116,295,1
,,,,,,,,,,,,,,,,,,5ce7f7ae2aa9590016af2ba7,2020-11-25_17h53.28.495,lexical_decision_task_MP_exp2,2020.2.5,Win32,60,,z,1,0.54664,,,,,,,,0.54664,1,,,,,,377,NW,UN,16,shrile,INJORE,z,,,,,,0.595052083,-0.092447917,0,0,0,,0,117,117,436,1
,,,,,,,,,,,,,,,,,,5ce7f7ae2aa9590016af2ba7,2020-11-25_17h53.28.495,lexical_decision_task_MP_exp2,2020.2.5,Win32,60,,z,1,0.58366,,,,,,,,0.58366,1,,,,,,401,NW,UN,16,syntic,MUSTIL,z,,,,,,0.595052083,-0.092447917,0,0,0,,0,118,118,460,1
,,,,,,,,,,,,,,,,,,5ce7f7ae2aa9590016af2ba7,2020-11-25_17h53.28.495,lexical_decision_task_MP_exp2,2020.2.5,Win32,60,,m,1,0.648035,,,,,,,,0.648035,1,,,,,,103,WORD,UN,33,studio,BOUNCE,m,,,,,,0.595052083,-0.092447917,0,0,0,,0,119,119,162,1
,,,,,,,,,,,,,,,,,,5ce7f7ae2aa9590016af2ba7,2020-11-25_17h53.28.495,lexical_decision_task_MP_exp2,2020.2.5,Win32,60,,z,1,0.80056,,,,,,,,0.80056,1,,,,,,276,NW,"ID",16,yarmon,YARMON,z,,,,,,0.595052083,-0.092447917,0,0,0,,0,120,120,335,1
,,,,,,,,,,,,,,,,,,5ce7f7ae2aa9590016af2ba7,2020-11-25_17h53.28.495,lexical_decision_task_MP_exp2,2020.2.5,Win32,60,,m,1,0.78199,,,,,,,,0.78199,1,,,,,,30,WORD,"ID",16,orient,ORIENT,m,,,,,,0.595052083,-0.092447917,0,0,0,,0,121,121,89,1
,,,,,,,,,,,,,,,,,,5ce7f7ae2aa9590016af2ba7,2020-11-25_17h53.28.495,lexical_decision_task_MP_exp2,2020.2.5,Win32,60,,m,1,0.503955,,,,,,,,0.503955,1,,,,,,81,WORD,UN,33,stigma,FRIEND,m,,,,,,0.595052083,-0.092447917,0,0,0,,0,122,122,140,1
,,,,,,,,,,,,,,,,,,5ce7f7ae2aa9590016af2ba7,2020-11-25_17h53.28.495,lexical_decision_task_MP_exp2,2020.2.5,Win32,60,,m,1,0.617925,,,,,,,,0.617925,1,,,,,,29,WORD,"ID",16,sketch,SKETCH,m,,,,,,0.595052083,-0.092447917,0,0,0,,0,123,123,88,1
,,,,,,,,,,,,,,,,,,5ce7f7ae2aa9590016af2ba7,2020-11-25_17h53.28.495,lexical_decision_task_MP_exp2,2020.2.5,Win32,60,,z,1,0.616685,,,,,,,,0.616685,1,,,,,,426,NW,"ID",33,urivel,URIVEL,z,,,,,,0.595052083,-0.092447917,0,0,0,,0,124,124,245,1
,,,,,,,,,,,,,,,,,,5ce7f7ae2aa9590016af2ba7,2020-11-25_17h53.28.495,lexical_decision_task_MP_exp2,2020.2.5,Win32,60,,z,1,0.569325,,,,,,,,0.569325,1,,,,,,381,NW,UN,16,sarley,HUNIEK,z,,,,,,0.595052083,-0.092447917,0,0,0,,0,125,125,440,1
,,,,,,,,,,,,,,,,,,5ce7f7ae2aa9590016af2ba7,2020-11-25_17h53.28.495,lexical_decision_task_MP_exp2,2020.2.5,Win32,60,,z,1,0.754315,,,,,,,,0.754315,1,,,,,,342,NW,UN,33,aimosy,RANDOW,z,,,,,,0.595052083,-0.092447917,0,0,0,,0,126,126,401,1
,,,,,,,,,,,,,,,,,,5ce7f7ae2aa9590016af2ba7,2020-11-25_17h53.28.495,lexical_decision_task_MP_exp2,2020.2.5,Win32,60,,z,1,0.566625,,,,,,,,0.566625,1,,,,,,416,NW,UN,16,earoud,PATHEL,z,,,,,,0.595052083,-0.092447917,0,0,0,,0,127,127,475,1
,,,,,,,,,,,,,,,,,,5ce7f7ae2aa9590016af2ba7,2020-11-25_17h53.28.495,lexical_decision_task_MP_exp2,2020.2.5,Win32,60,,z,1,0.600695,,,,,,,,0.600695,1,,,,,,258,NW,"ID",16,poluth,POLUTH,z,,,,,,0.595052083,-0.092447917,0,0,0,,0,128,128,317,1
,,,,,,,,,,,,,,,,,,5ce7f7ae2aa9590016af2ba7,2020-11-25_17h53.28.495,lexical_decision_task_MP_exp2,2020.2.5,Win32,60,,z,1,0.60277,,,,,,,,0.60277,1,,,,,,411,NW,UN,16,jiluer,ORCHIN,z,,,,,,0.595052083,-0.092447917,0,0,0,,0,129,129,470,1
,,,,,,,,,,,,,,,,,,5ce7f7ae2aa9590016af2ba7,2020-11-25_17h53.28.495,lexical_decision_task_MP_exp2,2020.2.5,Win32,60,,z,1,0.64732,,,,,,,,0.64732,1,,,,,,421,NW,"ID",33,knisma,KNISMA,z,,,,,,0.595052083,-0.092447917,0,0,0,,0,130,130,240,1
,,,,,,,,,,,,,,,,,,5ce7f7ae2aa9590016af2ba7,2020-11-25_17h53.28.495,lexical_decision_task_MP_exp2,2020.2.5,Win32,60,,m,1,0.616135,,,,,,,,0.616135,1,,,,,,155,WORD,UN,16,cradle,LIZARD,m,,,,,,0.595052083,-0.092447917,0,0,0,,0,131,131,214,1
,,,,,,,,,,,,,,,,,,5ce7f7ae2aa9590016af2ba7,2020-11-25_17h53.28.495,lexical_decision_task_MP_exp2,2020.2.5,Win32,60,,m,1,0.634005,,,,,,,,0.634005,1,,,,,,33,WORD,"ID",16,butler,BUTLER,m,,,,,,0.595052083,-0.092447917,0,0,0,,0,132,132,92,1
,,,,,,,,,,,,,,,,,,5ce7f7ae2aa9590016af2ba7,2020-11-25_17h53.28.495,lexical_decision_task_MP_exp2,2020.2.5,Win32,60,,z,1,0.964825,,,,,,,,0.964825,1,,,,,,407,NW,UN,16,hurnia,SUIVER,z,,,,,,0.595052083,-0.092447917,0,0,0,,0,133,133,466,1
,,,,,,,,,,,,,,,,,,5ce7f7ae2aa9590016af2ba7,2020-11-25_17h53.28.495,lexical_decision_task_MP_exp2,2020.2.5,Win32,60,,m,1,0.79379,,,,,,,,0.79379,1,,,,,,183,WORD,"ID",33,mildew,MILDEW,m,,,,,,0.595052083,-0.092447917,0,0,0,,0,134,134,2,1
,,,,,,,,,,,,,,,,,,5ce7f7ae2aa9590016af2ba7,2020-11-25_17h53.28.495,lexical_decision_task_MP_exp2,2020.2.5,Win32,60,,m,1,0.683575,,,,,,,,0.683575,1,,,,,,95,WORD,UN,33,ignore,THREAD,m,,,,,,0.595052083,-0.092447917,0,0,0,,0,135,135,154,1
,,,,,,,,,,,,,,,,,,5ce7f7ae2aa9590016af2ba7,2020-11-25_17h53.28.495,lexical_decision_task_MP_exp2,2020.2.5,Win32,60,,m,1,0.577985,,,,,,,,0.577985,1,,,,,,215,WORD,"ID",33,phobia,PHOBIA,m,,,,,,0.595052083,-0.092447917,0,0,0,,0,136,136,34,1
,,,,,,,,,,,,,,,,,,5ce7f7ae2aa9590016af2ba7,2020-11-25_17h53.28.495,lexical_decision_task_MP_exp2,2020.2.5,Win32,60,,m,1,0.547115,,,,,,,,0.547115,1,,,,,,88,WORD,UN,33,permit,HUNGER,m,,,,,,0.595052083,-0.092447917,0,0,0,,0,137,137,147,1
,,,,,,,,,,,,,,,,,,5ce7f7ae2aa9590016af2ba7,2020-11-25_17h53.28.495,lexical_decision_task_MP_exp2,2020.2.5,Win32,60,,z,1,0.69901,,,,,,,,0.69901,1,,,,,,309,NW,UN,33,daniet,AMILOY,z,,,,,,0.595052083,-0.092447917,0,0,0,,0,138,138,368,1
,,,,,,,,,,,,,,,,,,5ce7f7ae2aa9590016af2ba7,2020-11-25_17h53.28.495,lexical_decision_task_MP_exp2,2020.2.5,Win32,60,,z,1,0.76414,,,,,,,,0.76414,1,,,,,,436,NW,"ID",33,frutan,FRUTAN,z,,,,,,0.595052083,-0.092447917,0,0,0,,0,139,139,255,1
,,,,,,,,,,,,,,,,,,5ce7f7ae2aa9590016af2ba7,2020-11-25_17h53.28.495,lexical_decision_task_MP_exp2,2020.2.5,Win32,60,,z,1,0.73213,,,,,,,,0.73213,1,,,,,,454,NW,"ID",33,scouge,SCOUGE,z,,,,,,0.595052083,-0.092447917,0,0,0,,0,140,140,273,1
,,,,,,,,,,,,,,,,,,5ce7f7ae2aa9590016af2ba7,2020-11-25_17h53.28.495,lexical_decision_task_MP_exp2,2020.2.5,Win32,60,,z,1,0.63098,,,,,,,,0.63098,1,,,,,,320,NW,UN,33,miator,JOCKAL,z,,,,,,0.595052083,-0.092447917,0,0,0,,0,141,141,379,1
,,,,,,,,,,,,,,,,,,5ce7f7ae2aa9590016af2ba7,2020-11-25_17h53.28.495,lexical_decision_task_MP_exp2,2020.2.5,Win32,60,,z,1,0.740275,,,,,,,,0.740275,1,,,,,,255,NW,"ID",16,apight,APIGHT,z,,,,,,0.595052083,-0.092447917,0,0,0,,0,142,142,314,1
,,,,,,,,,,,,,,,,,,5ce7f7ae2aa9590016af2ba7,2020-11-25_17h53.28.495,lexical_decision_task_MP_exp2,2020.2.5,Win32,60,,z,1,0.601545,,,,,,,,0.601545,1,,,,,,297,NW,"ID",16,fertic,FERTIC,z,,,,,,0.595052083,-0.092447917,0,0,0,,0,143,143,356,1
,,,,,,,,,,,,,,,,,,5ce7f7ae2aa9590016af2ba7,2020-11-25_17h53.28.495,lexical_decision_task_MP_exp2,2020.2.5,Win32,60,,m,1,0.633085,,,,,,,,0.633085,1,,,,,,207,WORD,"ID",33,wreath,WREATH,m,,,,,,0.595052083,-0.092447917,0,0,0,,0,144,144,26,1
,,,,,,,,,,,,,,,,,,5ce7f7ae2aa9590016af2ba7,2020-11-25_17h53.28.495,lexical_decision_task_MP_exp2,2020.2.5,Win32,60,,z,1,0.828505,,,,,,,,0.828505,1,,,,,,364,NW,UN,16,guairt,IMPOTE,z,,,,,,0.595052083,-0.092447917,0,0,0,,0,145,145,423,1
,,,,,,,,,,,,,,,,,,5ce7f7ae2aa9590016af2ba7,2020-11-25_17h53.28.495,lexical_decision_task_MP_exp2,2020.2.5,Win32,60,,m,1,0.64352,,,,,,,,0.64352,1,,,,,,216,WORD,"ID",33,behalf,BEHALF,m,,,,,,0.595052083,-0.092447917,0,0,0,,0,146,146,35,1
,,,,,,,,,,,,,,,,,,5ce7f7ae2aa9590016af2ba7,2020-11-25_17h53.28.495,lexical_decision_task_MP_exp2,2020.2.5,Win32,60,,m,1,0.634635,,,,,,,,0.634635,1,,,,,,171,WORD,UN,16,patrol,DEPART,m,,,,,,0.595052083,-0.092447917,0,0,0,,0,147,147,230,1
,,,,,,,,,,,,,,,,,,5ce7f7ae2aa9590016af2ba7,2020-11-25_17h53.28.495,lexical_decision_task_MP_exp2,2020.2.5,Win32,60,,z,1,0.599955,,,,,,,,0.599955,1,,,,,,374,NW,UN,16,yorque,SLIANT,z,,,,,,0.595052083,-0.092447917,0,0,0,,0,148,148,433,1
,,,,,,,,,,,,,,,,,,5ce7f7ae2aa9590016af2ba7,2020-11-25_17h53.28.495,lexical_decision_task_MP_exp2,2020.2.5,Win32,60,,z,1,0.56736,,,,,,,,0.56736,1,,,,,,341,NW,UN,33,randow,MYRTIE,z,,,,,,0.595052083,-0.092447917,0,0,0,,0,149,149,400,1
,,,,,,,,,,,,,,,,,,5ce7f7ae2aa9590016af2ba7,2020-11-25_17h53.28.495,lexical_decision_task_MP_exp2,2020.2.5,Win32,60,,m,1,0.53827,,,,,,,,0.53827,1,,,,,,185,WORD,"ID",33,bother,BOTHER,m,,,,,,0.595052083,-0.092447917,0,0,0,,0,150,150,4,1
,,,,,,,,,,,,,,,,,,5ce7f7ae2aa9590016af2ba7,2020-11-25_17h53.28.495,lexical_decision_task_MP_exp2,2020.2.5,Win32,60,,z,1,0.617345,,,,,,,,0.617345,1,,,,,,329,NW,UN,33,kensom,YARIKE,z,,,,,,0.595052083,-0.092447917,0,0,0,,0,151,151,388,1
,,,,,,,,,,,,,,,,,,5ce7f7ae2aa9590016af2ba7,2020-11-25_17h53.28.495,lexical_decision_task_MP_exp2,2020.2.5,Win32,60,,m,1,1.025435,,,,,,,,1.025435,1,,,,,,122,WORD,UN,16,strike,LINGER,m,,,,,,0.595052083,-0.092447917,0,0,0,,0,152,152,181,1
,,,,,,,,,,,,,,,,,,5ce7f7ae2aa9590016af2ba7,2020-11-25_17h53.28.495,lexical_decision_task_MP_exp2,2020.2.5,Win32,60,,m,1,0.74967,,,,,,,,0.74967,1,,,,,,90,WORD,UN,33,expand,RELISH,m,,,,,,0.595052083,-0.092447917,0,0,0,,0,153,153,149,1
,,,,,,,,,,,,,,,,,,5ce7f7ae2aa9590016af2ba7,2020-11-25_17h53.28.495,lexical_decision_task_MP_exp2,2020.2.5,Win32,60,,z,1,0.930445,,,,,,,,0.930445,1,,,,,,277,NW,"ID",16,petain,PETAIN,z,,,,,,0.595052083,-0.092447917,0,0,0,,0,154,154,336,1
,,,,,,,,,,,,,,,,,,5ce7f7ae2aa9590016af2ba7,2020-11-25_17h53.28.495,lexical_decision_task_MP_exp2,2020.2.5,Win32,60,,m,1,0.55335,,,,,,,,0.55335,1,,,,,,24,WORD,"ID",16,praise,PRAISE,m,,,,,,0.595052083,-0.092447917,0,0,0,,0,155,155,83,1
,,,,,,,,,,,,,,,,,,5ce7f7ae2aa9590016af2ba7,2020-11-25_17h53.28.495,lexical_decision_task_MP_exp2,2020.2.5,Win32,60,,z,1,0.814005,,,,,,,,0.814005,1,,,,,,348,NW,UN,33,asylen,DUMPLE,z,,,,,,0.595052083,-0.092447917,0,0,0,,0,156,156,407,1
,,,,,,,,,,,,,,,,,,5ce7f7ae2aa9590016af2ba7,2020-11-25_17h53.28.495,lexical_decision_task_MP_exp2,2020.2.5,Win32,60,,m,1,0.714305,,,,,,,,0.714305,1,,,,,,60,WORD,"ID",16,pencil,PENCIL,m,,,,,,0.595052083,-0.092447917,0,0,0,,0,157,157,119,1
,,,,,,,,,,,,,,,,,,5ce7f7ae2aa9590016af2ba7,2020-11-25_17h53.28.495,lexical_decision_task_MP_exp2,2020.2.5,Win32,60,,z,1,0.65066,,,,,,,,0.65066,1,,,,,,331,NW,UN,33,vangue,GILFEW,z,,,,,,0.595052083,-0.092447917,0,0,0,,0,158,158,390,1
,,,,,,,,,,,,,,,,,,5ce7f7ae2aa9590016af2ba7,2020-11-25_17h53.28.495,lexical_decision_task_MP_exp2,2020.2.5,Win32,60,,z,1,1.180175,,,,,,,,1.180175,1,,,,,,323,NW,UN,33,steikh,ROSAIL,z,,,,,,0.595052083,-0.092447917,0,0,0,,0,159,159,382,1
,,,,,,,,,,,,,,,,,,5ce7f7ae2aa9590016af2ba7,2020-11-25_17h53.28.495,lexical_decision_task_MP_exp2,2020.2.5,Win32,60,,m,1,0.897465,,,,,,,,0.897465,1,,,,,,31,WORD,"ID",16,weapon,WEAPON,m,,,,,,0.595052083,-0.092447917,0,0,0,,0,160,160,90,1
,,,,,,,,,,,,,,,,,,5ce7f7ae2aa9590016af2ba7,2020-11-25_17h53.28.495,lexical_decision_task_MP_exp2,2020.2.5,Win32,60,,z,1,1.14838,,,,,,,,1.14838,1,,,,,,259,NW,"ID",16,soudal,SOUDAL,z,,,,,,0.595052083,-0.092447917,0,0,0,,0,161,161,318,1
,,,,,,,,,,,,,,,,,,5ce7f7ae2aa9590016af2ba7,2020-11-25_17h53.28.495,lexical_decision_task_MP_exp2,2020.2.5,Win32,60,,m,1,1.26293,,,,,,,,1.26293,1,,,,,,121,WORD,UN,16,linger,THRIVE,m,,,,,,0.595052083,-0.092447917,0,0,0,,0,162,162,180,1
,,,,,,,,,,,,,,,,,,5ce7f7ae2aa9590016af2ba7,2020-11-25_17h53.28.495,lexical_decision_task_MP_exp2,2020.2.5,Win32,60,,m,1,0.577285,,,,,,,,0.577285,1,,,,,,49,WORD,"ID",16,survey,SURVEY,m,,,,,,0.595052083,-0.092447917,0,0,0,,0,163,163,108,1
,,,,,,,,,,,,,,,,,,5ce7f7ae2aa9590016af2ba7,2020-11-25_17h53.28.495,lexical_decision_task_MP_exp2,2020.2.5,Win32,60,,m,1,0.56467,,,,,,,,0.56467,1,,,,,,146,WORD,UN,16,garlic,COUPLE,m,,,,,,0.595052083,-0.092447917,0,0,0,,0,164,164,205,1
,,,,,,,,,,,,,,,,,,5ce7f7ae2aa9590016af2ba7,2020-11-25_17h53.28.495,lexical_decision_task_MP_exp2,2020.2.5,Win32,60,,z,1,0.650035,,,,,,,,0.650035,1,,,,,,304,NW,UN,33,forgle,CLUDIE,z,,,,,,0.595052083,-0.092447917,0,0,0,,0,165,165,363,1
,,,,,,,,,,,,,,,,,,5ce7f7ae2aa9590016af2ba7,2020-11-25_17h53.28.495,lexical_decision_task_MP_exp2,2020.2.5,Win32,60,,m,0,1.08203,,,,,,,,1.08203,0,,,,,,432,NW,"ID",33,lunker,LUNKER,z,,,,,,0.595052083,-0.092447917,0,0,0,,0,166,166,251,1
,,,,,,,,,,,,,,,,,,5ce7f7ae2aa9590016af2ba7,2020-11-25_17h53.28.495,lexical_decision_task_MP_exp2,2020.2.5,Win32,60,,z,1,0.746595,,,,,,,,0.746595,1,,,,,,375,NW,UN,16,iguare,YORQUE,z,,,,,,0.595052083,-0.092447917,0,0,0,,0,167,167,434,1
,,,,,,,,,,,,,,,,,,5ce7f7ae2aa9590016af2ba7,2020-11-25_17h53.28.495,lexical_decision_task_MP_exp2,2020.2.5,Win32,60,,z,1,0.51371,,,,,,,,0.51371,1,,,,,,395,NW,UN,16,flengy,COLURY,z,,,,,,0.595052083,-0.092447917,0,0,0,,0,168,168,454,1
,,,,,,,,,,,,,,,,,,5ce7f7ae2aa9590016af2ba7,2020-11-25_17h53.28.495,lexical_decision_task_MP_exp2,2020.2.5,Win32,60,,m,1,0.64941,,,,,,,,0.64941,1,,,,,,148,WORD,UN,16,invade,CUSTOM,m,,,,,,0.595052083,-0.092447917,0,0,0,,0,169,169,207,1
,,,,,,,,,,,,,,,,,,5ce7f7ae2aa9590016af2ba7,2020-11-25_17h53.28.495,lexical_decision_task_MP_exp2,2020.2.5,Win32,60,,m,1,0.694285,,,,,,,,0.694285,1,,,,,,45,WORD,"ID",16,clergy,CLERGY,m,,,,,,0.595052083,-0.092447917,0,0,0,,0,170,170,104,1
,,,,,,,,,,,,,,,,,,5ce7f7ae2aa9590016af2ba7,2020-11-25_17h53.28.495,lexical_decision_task_MP_exp2,2020.2.5,Win32,60,,z,1,1.047425,,,,,,,,1.047425,1,,,,,,368,NW,UN,16,wronch,HORNAL,z,,,,,,0.595052083,-0.092447917,0,0,0,,0,171,171,427,1
,,,,,,,,,,,,,,,,,,5ce7f7ae2aa9590016af2ba7,2020-11-25_17h53.28.495,lexical_decision_task_MP_exp2,2020.2.5,Win32,60,,m,1,0.82006,,,,,,,,0.82006,1,,,,,,27,WORD,"ID",16,scream,SCREAM,m,,,,,,0.595052083,-0.092447917,0,0,0,,0,172,172,86,1
,,,,,,,,,,,,,,,,,,5ce7f7ae2aa9590016af2ba7,2020-11-25_17h53.28.495,lexical_decision_task_MP_exp2,2020.2.5,Win32,60,,z,1,1.23858,,,,,,,,1.23858,1,,,,,,429,NW,"ID",33,funtle,FUNTLE,z,,,,,,0.595052083,-0.092447917,0,0,0,,0,173,173,248,1
,,,,,,,,,,,,,,,,,,5ce7f7ae2aa9590016af2ba7,2020-11-25_17h53.28.495,lexical_decision_task_MP_exp2,2020.2.5,Win32,60,,z,1,0.80056,,,,,,,,0.80056,1,,,,,,399,NW,UN,16,wearox,FOURET,z,,,,,,0.595052083,-0.092447917,0,0,0,,0,174,174,458,1
,,,,,,,,,,,,,,,,,,5ce7f7ae2aa9590016af2ba7,2020-11-25_17h53.28.495,lexical_decision_task_MP_exp2,2020.2.5,Win32,60,,z,0,0.79965,,,,,,,,0.79965,0,,,,,,239,WORD,"ID",33,lumber,LUMBER,m,,,,,,0.595052083,-0.092447917,0,0,0,,0,175,175,58,1
,,,,,,,,,,,,,,,,,,5ce7f7ae2aa9590016af2ba7,2020-11-25_17h53.28.495,lexical_decision_task_MP_exp2,2020.2.5,Win32,60,,z,1,0.917335,,,,,,,,0.917335,1,,,,,,356,NW,UN,33,derain,OTHNIS,z,,,,,,0.595052083,-0.092447917,0,0,0,,0,176,176,415,1
,,,,,,,,,,,,,,,,,,5ce7f7ae2aa9590016af2ba7,2020-11-25_17h53.28.495,lexical_decision_task_MP_exp2,2020.2.5,Win32,60,,m,1,0.69266,,,,,,,,0.69266,1,,,,,,134,WORD,UN,16,import,STAPLE,m,,,,,,0.595052083,-0.092447917,0,0,0,,0,177,177,193,1
,,,,,,,,,,,,,,,,,,5ce7f7ae2aa9590016af2ba7,2020-11-25_17h53.28.495,lexical_decision_task_MP_exp2,2020.2.5,Win32,60,,z,1,1.320425,,,,,,,,1.320425,1,,,,,,473,NW,"ID",33,crible,CRIBLE,z,,,,,,0.595052083,-0.092447917,0,0,0,,0,178,178,292,1
,,,,,,,,,,,,,,,,,,5ce7f7ae2aa9590016af2ba7,2020-11-25_17h53.28.495,lexical_decision_task_MP_exp2,2020.2.5,Win32,60,,z,0,1.200825,,,,,,,,1.200825,0,,,,,,212,WORD,"ID",33,verify,VERIFY,m,,,,,,0.595052083,-0.092447917,0,0,0,,0,179,179,31,1
,,,,,,,,,,,,,,,,,,5ce7f7ae2aa9590016af2ba7,2020-11-25_17h53.28.495,lexical_decision_task_MP_exp2,2020.2.5,Win32,60,,z,1,0.783945,,,,,,,,0.783945,1,,,,,,266,NW,"ID",16,varmit,VARMIT,z,,,,,,0.595052083,-0.092447917,0,0,0,,0,180,180,325,1
,,,,,,,,,,,,,,,,,,5ce7f7ae2aa9590016af2ba7,2020-11-25_17h53.28.495,lexical_decision_task_MP_exp2,2020.2.5,Win32,60,,m,1,0.631855,,,,,,,,0.631855,1,,,,,,116,WORD,UN,33,branch,TUMBLE,m,,,,,,0.595052083,-0.092447917,0,0,0,,0,181,181,175,1
,,,,,,,,,,,,,,,,,,5ce7f7ae2aa9590016af2ba7,2020-11-25_17h53.28.495,lexical_decision_task_MP_exp2,2020.2.5,Win32,60,,m,1,0.554445,,,,,,,,0.554445,1,,,,,,110,WORD,UN,33,induce,POLITE,m,,,,,,0.595052083,-0.092447917,0,0,0,,0,182,182,169,1
,,,,,,,,,,,,,,,,,,5ce7f7ae2aa9590016af2ba7,2020-11-25_17h53.28.495,lexical_decision_task_MP_exp2,2020.2.5,Win32,60,,m,1,0.63741,,,,,,,,0.63741,1,,,,,,119,WORD,UN,33,strain,SPIDER,m,,,,,,0.595052083,-0.092447917,0,0,0,,0,183,183,178,1
,,,,,,,,,,,,,,,,,,5ce7f7ae2aa9590016af2ba7,2020-11-25_17h53.28.495,lexical_decision_task_MP_exp2,2020.2.5,Win32,60,,m,1,0.615815,,,,,,,,0.615815,1,,,,,,198,WORD,"ID",33,wicked,WICKED,m,,,,,,0.595052083,-0.092447917,0,0,0,,0,184,184,17,1
,,,,,,,,,,,,,,,,,,5ce7f7ae2aa9590016af2ba7,2020-11-25_17h53.28.495,lexical_decision_task_MP_exp2,2020.2.5,Win32,60,,m,1,0.57687,,,,,,,,0.57687,1,,,,,,181,WORD,"ID",33,glance,GLANCE,m,,,,,,0.595052083,-0.092447917,0,0,0,,0,185,185,0,1
,,,,,,,,,,,,,,,,,,5ce7f7ae2aa9590016af2ba7,2020-11-25_17h53.28.495,lexical_decision_task_MP_exp2,2020.2.5,Win32,60,,m,1,0.61895,,,,,,,,0.61895,1,,,,,,8,WORD,"ID",16,abrupt,ABRUPT,m,,,,,,0.595052083,-0.092447917,0,0,0,,0,186,186,67,1
,,,,,,,,,,,,,,,,,,5ce7f7ae2aa9590016af2ba7,2020-11-25_17h53.28.495,lexical_decision_task_MP_exp2,2020.2.5,Win32,60,,m,1,0.596775,,,,,,,,0.596775,1,,,,,,42,WORD,"ID",16,chapel,CHAPEL,m,,,,,,0.595052083,-0.092447917,0,0,0,,0,187,187,101,1
,,,,,,,,,,,,,,,,,,5ce7f7ae2aa9590016af2ba7,2020-11-25_17h53.28.495,lexical_decision_task_MP_exp2,2020.2.5,Win32,60,,z,1,0.63503,,,,,,,,0.63503,1,,,,,,475,NW,"ID",33,pebric,PEBRIC,z,,,,,,0.595052083,-0.092447917,0,0,0,,0,188,188,294,1
,,,,,,,,,,,,,,,,,,5ce7f7ae2aa9590016af2ba7,2020-11-25_17h53.28.495,lexical_decision_task_MP_exp2,2020.2.5,Win32,60,,z,1,0.552555,,,,,,,,0.552555,1,,,,,,270,NW,"ID",16,wrimsy,WRIMSY,z,,,,,,0.595052083,-0.092447917,0,0,0,,0,189,189,329,1
,,,,,,,,,,,,,,,,,,5ce7f7ae2aa9590016af2ba7,2020-11-25_17h53.28.495,lexical_decision_task_MP_exp2,2020.2.5,Win32,60,,m,1,0.54332,,,,,,,,0.54332,1,,,,,,132,WORD,UN,16,orphan,STRONG,m,,,,,,0.595052083,-0.092447917,0,0,0,,0,190,190,191,1
,,,,,,,,,,,,,,,,,,5ce7f7ae2aa9590016af2ba7,2020-11-25_17h53.28.495,lexical_decision_task_MP_exp2,2020.2.5,Win32,60,,z,1,0.651815,,,,,,,,0.651815,1,,,,,,446,NW,"ID",33,runamo,RUNAMO,z,,,,,,0.595052083,-0.092447917,0,0,0,,0,191,191,265,1
,,,,,,,,,,,,,,,,,,5ce7f7ae2aa9590016af2ba7,2020-11-25_17h53.28.495,lexical_decision_task_MP_exp2,2020.2.5,Win32,60,,z,1,0.749505,,,,,,,,0.749505,1,,,,,,249,NW,"ID",16,batrol,BATROL,z,,,,,,0.595052083,-0.092447917,0,0,0,,0,192,192,308,1
,,,,,,,,,,,,,,,,,,5ce7f7ae2aa9590016af2ba7,2020-11-25_17h53.28.495,lexical_decision_task_MP_exp2,2020.2.5,Win32,60,,m,1,0.56218,,,,,,,,0.56218,1,,,,,,53,WORD,"ID",16,police,POLICE,m,,,,,,0.595052083,-0.092447917,0,0,0,,0,193,193,112,1
,,,,,,,,,,,,,,,,,,5ce7f7ae2aa9590016af2ba7,2020-11-25_17h53.28.495,lexical_decision_task_MP_exp2,2020.2.5,Win32,60,,m,1,0.516955,,,,,,,,0.516955,1,,,,,,174,WORD,UN,16,fabric,TURKEY,m,,,,,,0.595052083,-0.092447917,0,0,0,,0,194,194,233,1
,,,,,,,,,,,,,,,,,,5ce7f7ae2aa9590016af2ba7,2020-11-25_17h53.28.495,lexical_decision_task_MP_exp2,2020.2.5,Win32,60,,m,1,0.614135,,,,,,,,0.614135,1,,,,,,169,WORD,UN,16,pounce,GENIUS,m,,,,,,0.595052083,-0.092447917,0,0,0,,0,195,195,228,1
,,,,,,,,,,,,,,,,,,5ce7f7ae2aa9590016af2ba7,2020-11-25_17h53.28.495,lexical_decision_task_MP_exp2,2020.2.5,Win32,60,,m,1,0.56648,,,,,,,,0.56648,1,,,,,,76,WORD,UN,33,racket,EXOTIC,m,,,,,,0.595052083,-0.092447917,0,0,0,,0,196,196,135,1
,,,,,,,,,,,,,,,,,,5ce7f7ae2aa9590016af2ba7,2020-11-25_17h53.28.495,lexical_decision_task_MP_exp2,2020.2.5,Win32,60,,z,1,0.66767,,,,,,,,0.66767,1,,,,,,292,NW,"ID",16,ablint,ABLINT,z,,,,,,0.595052083,-0.092447917,0,0,0,,0,197,197,351,1
,,,,,,,,,,,,,,,,,,5ce7f7ae2aa9590016af2ba7,2020-11-25_17h53.28.495,lexical_decision_task_MP_exp2,2020.2.5,Win32,60,,z,1,0.604745,,,,,,,,0.604745,1,,,,,,427,NW,"ID",33,schind,SCHIND,z,,,,,,0.595052083,-0.092447917,0,0,0,,0,198,198,246,1
,,,,,,,,,,,,,,,,,,5ce7f7ae2aa9590016af2ba7,2020-11-25_17h53.28.495,lexical_decision_task_MP_exp2,2020.2.5,Win32,60,,z,1,0.538155,,,,,,,,0.538155,1,,,,,,355,NW,UN,33,othnis,ZINGLY,z,,,,,,0.595052083,-0.092447917,0,0,0,,0,199,199,414,1
,,,,,,,,,,,,,,,,,,5ce7f7ae2aa9590016af2ba7,2020-11-25_17h53.28.495,lexical_decision_task_MP_exp2,2020.2.5,Win32,60,,z,1,0.52702,,,,,,,,0.52702,1,,,,,,471,NW,"ID",33,nobest,NOBEST,z,,,,,,0.595052083,-0.092447917,0,0,0,,0,200,200,290,1
,,,,,,,,,,,,,,,,,,5ce7f7ae2aa9590016af2ba7,2020-11-25_17h53.28.495,lexical_decision_task_MP_exp2,2020.2.5,Win32,60,,z,1,0.583045,,,,,,,,0.583045,1,,,,,,464,NW,"ID",33,chaite,CHAITE,z,,,,,,0.595052083,-0.092447917,0,0,0,,0,201,201,283,1
,,,,,,,,,,,,,,,,,,5ce7f7ae2aa9590016af2ba7,2020-11-25_17h53.28.495,lexical_decision_task_MP_exp2,2020.2.5,Win32,60,,m,1,0.61498,,,,,,,,0.61498,1,,,,,,143,WORD,UN,16,sponge,REASON,m,,,,,,0.595052083,-0.092447917,0,0,0,,0,202,202,202,1
,,,,,,,,,,,,,,,,,,5ce7f7ae2aa9590016af2ba7,2020-11-25_17h53.28.495,lexical_decision_task_MP_exp2,2020.2.5,Win32,60,,m,1,0.484285,,,,,,,,0.484285,1,,,,,,222,WORD,"ID",33,hinder,HINDER,m,,,,,,0.595052083,-0.092447917,0,0,0,,0,203,203,41,1
,,,,,,,,,,,,,,,,,,5ce7f7ae2aa9590016af2ba7,2020-11-25_17h53.28.495,lexical_decision_task_MP_exp2,2020.2.5,Win32,60,,z,1,0.56549,,,,,,,,0.56549,1,,,,,,296,NW,"ID",16,beinch,BEINCH,z,,,,,,0.595052083,-0.092447917,0,0,0,,0,204,204,355,1
,,,,,,,,,,,,,,,,,,5ce7f7ae2aa9590016af2ba7,2020-11-25_17h53.28.495,lexical_decision_task_MP_exp2,2020.2.5,Win32,60,,z,1,0.76754,,,,,,,,0.76754,1,,,,,,444,NW,"ID",33,jaunce,JAUNCE,z,,,,,,0.595052083,-0.092447917,0,0,0,,0,205,205,263,1
,,,,,,,,,,,,,,,,,,5ce7f7ae2aa9590016af2ba7,2020-11-25_17h53.28.495,lexical_decision_task_MP_exp2,2020.2.5,Win32,60,,m,1,0.632815,,,,,,,,0.632815,1,,,,,,128,WORD,UN,16,marvel,SENIOR,m,,,,,,0.595052083,-0.092447917,0,0,0,,0,206,206,187,1
,,,,,,,,,,,,,,,,,,5ce7f7ae2aa9590016af2ba7,2020-11-25_17h53.28.495,lexical_decision_task_MP_exp2,2020.2.5,Win32,60,,m,1,0.668,,,,,,,,0.668,1,,,,,,75,WORD,UN,33,exotic,TROPHY,m,,,,,,0.595052083,-0.092447917,0,0,0,,0,207,207,134,1
,,,,,,,,,,,,,,,,,,5ce7f7ae2aa9590016af2ba7,2020-11-25_17h53.28.495,lexical_decision_task_MP_exp2,2020.2.5,Win32,60,,z,1,0.613225,,,,,,,,0.613225,1,,,,,,346,NW,UN,33,kerift,SAUDIC,z,,,,,,0.595052083,-0.092447917,0,0,0,,0,208,208,405,1
,,,,,,,,,,,,,,,,,,5ce7f7ae2aa9590016af2ba7,2020-11-25_17h53.28.495,lexical_decision_task_MP_exp2,2020.2.5,Win32,60,,z,1,0.582865,,,,,,,,0.582865,1,,,,,,465,NW,"ID",33,whivex,WHIVEX,z,,,,,,0.595052083,-0.092447917,0,0,0,,0,209,209,284,1
,,,,,,,,,,,,,,,,,,5ce7f7ae2aa9590016af2ba7,2020-11-25_17h53.28.495,lexical_decision_task_MP_exp2,2020.2.5,Win32,60,,z,1,0.55438,,,,,,,,0.55438,1,,,,,,325,NW,UN,33,iguade,THRUSE,z,,,,,,0.595052083,-0.092447917,0,0,0,,0,210,210,384,1
,,,,,,,,,,,,,,,,,,5ce7f7ae2aa9590016af2ba7,2020-11-25_17h53.28.495,lexical_decision_task_MP_exp2,2020.2.5,Win32,60,,z,1,0.603355,,,,,,,,0.603355,1,,,,,,442,NW,"ID",33,aboune,ABOUNE,z,,,,,,0.595052083,-0.092447917,0,0,0,,0,211,211,261,1
,,,,,,,,,,,,,,,,,,5ce7f7ae2aa9590016af2ba7,2020-11-25_17h53.28.495,lexical_decision_task_MP_exp2,2020.2.5,Win32,60,,m,1,0.57974,,,,,,,,0.57974,1,,,,,,127,WORD,UN,16,senior,CASTLE,m,,,,,,0.595052083,-0.092447917,0,0,0,,0,212,212,186,1
,,,,,,,,,,,,,,,,,,5ce7f7ae2aa9590016af2ba7,2020-11-25_17h53.28.495,lexical_decision_task_MP_exp2,2020.2.5,Win32,60,,m,1,0.635,,,,,,,,0.635,1,,,,,,91,WORD,UN,33,hunger,EXPAND,m,,,,,,0.595052083,-0.092447917,0,0,0,,0,213,213,150,1
,,,,,,,,,,,,,,,,,,5ce7f7ae2aa9590016af2ba7,2020-11-25_17h53.28.495,lexical_decision_task_MP_exp2,2020.2.5,Win32,60,,m,1,0.622165,,,,,,,,0.622165,1,,,,,,18,WORD,"ID",16,humble,HUMBLE,m,,,,,,0.595052083,-0.092447917,0,0,0,,0,214,214,77,1
,,,,,,,,,,,,,,,,,,5ce7f7ae2aa9590016af2ba7,2020-11-25_17h53.28.495,lexical_decision_task_MP_exp2,2020.2.5,Win32,60,,z,1,1.47978,,,,,,,,1.47978,1,,,,,,417,NW,UN,16,suidle,EAROUD,z,,,,,,0.595052083,-0.092447917,0,0,0,,0,215,215,476,1
,,,,,,,,,,,,,,,,,,5ce7f7ae2aa9590016af2ba7,2020-11-25_17h53.28.495,lexical_decision_task_MP_exp2,2020.2.5,Win32,60,,m,1,0.581895,,,,,,,,0.581895,1,,,,,,192,WORD,"ID",33,plague,PLAGUE,m,,,,,,0.595052083,-0.092447917,0,0,0,,0,216,216,11,1
,,,,,,,,,,,,,,,,,,5ce7f7ae2aa9590016af2ba7,2020-11-25_17h53.28.495,lexical_decision_task_MP_exp2,2020.2.5,Win32,60,,z,1,0.58217,,,,,,,,0.58217,1,,,,,,394,NW,UN,16,colury,SPAQUX,z,,,,,,0.595052083,-0.092447917,0,0,0,,0,217,217,453,1
,,,,,,,,,,,,,,,,,,5ce7f7ae2aa9590016af2ba7,2020-11-25_17h53.28.495,lexical_decision_task_MP_exp2,2020.2.5,Win32,60,,m,1,0.68294,,,,,,,,0.68294,1,,,,,,4,WORD,"ID",16,trench,TRENCH,m,,,,,,0.595052083,-0.092447917,0,0,0,,0,218,218,63,1
,,,,,,,,,,,,,,,,,,5ce7f7ae2aa9590016af2ba7,2020-11-25_17h53.28.495,lexical_decision_task_MP_exp2,2020.2.5,Win32,60,,m,1,0.665025,,,,,,,,0.665025,1,,,,,,204,WORD,"ID",33,burden,BURDEN,m,,,,,,0.595052083,-0.092447917,0,0,0,,0,219,219,23,1
,,,,,,,,,,,,,,,,,,5ce7f7ae2aa9590016af2ba7,2020-11-25_17h53.28.495,lexical_decision_task_MP_exp2,2020.2.5,Win32,60,,z,1,0.64865,,,,,,,,0.64865,1,,,,,,383,NW,UN,16,guesco,AUNGRE,z,,,,,,0.595052083,-0.092447917,0,0,0,,0,220,220,442,1
,,,,,,,,,,,,,,,,,,5ce7f7ae2aa9590016af2ba7,2020-11-25_17h53.28.495,lexical_decision_task_MP_exp2,2020.2.5,Win32,60,,z,1,0.681795,,,,,,,,0.681795,1,,,,,,438,NW,"ID",33,baitch,BAITCH,z,,,,,,0.595052083,-0.092447917,0,0,0,,0,221,221,257,1
,,,,,,,,,,,,,,,,,,5ce7f7ae2aa9590016af2ba7,2020-11-25_17h53.28.495,lexical_decision_task_MP_exp2,2020.2.5,Win32,60,,m,1,0.76615,,,,,,,,0.76615,1,,,,,,165,WORD,UN,16,starch,INVEST,m,,,,,,0.595052083,-0.092447917,0,0,0,,0,222,222,224,1
,,,,,,,,,,,,,,,,,,5ce7f7ae2aa9590016af2ba7,2020-11-25_17h53.28.495,lexical_decision_task_MP_exp2,2020.2.5,Win32,60,,z,1,0.7264,,,,,,,,0.7264,1,,,,,,307,NW,UN,33,psetch,KIRAFE,z,,,,,,0.595052083,-0.092447917,0,0,0,,0,223,223,366,1
,,,,,,,,,,,,,,,,,,5ce7f7ae2aa9590016af2ba7,2020-11-25_17h53.28.495,lexical_decision_task_MP_exp2,2020.2.5,Win32,60,,m,1,0.50071,,,,,,,,0.50071,1,,,,,,188,WORD,"ID",33,social,SOCIAL,m,,,,,,0.595052083,-0.092447917,0,0,0,,0,224,224,7,1
,,,,,,,,,,,,,,,,,,5ce7f7ae2aa9590016af2ba7,2020-11-25_17h53.28.495,lexical_decision_task_MP_exp2,2020.2.5,Win32,60,,z,1,0.64845,,,,,,,,0.64845,1,,,,,,267,NW,"ID",16,pasink,PASINK,z,,,,,,0.595052083,-0.092447917,0,0,0,,0,225,225,326,1
,,,,,,,,,,,,,,,,,,5ce7f7ae2aa9590016af2ba7,2020-11-25_17h53.28.495,lexical_decision_task_MP_exp2,2020.2.5,Win32,60,,z,1,0.580255,,,,,,,,0.580255,1,,,,,,415,NW,UN,16,pathel,HIGSTA,z,,,,,,0.595052083,-0.092447917,0,0,0,,0,226,226,474,1
,,,,,,,,,,,,,,,,,,5ce7f7ae2aa9590016af2ba7,2020-11-25_17h53.28.495,lexical_decision_task_MP_exp2,2020.2.5,Win32,60,,z,1,0.73203,,,,,,,,0.73203,1,,,,,,370,NW,UN,16,geiloy,SLEACT,z,,,,,,0.595052083,-0.092447917,0,0,0,,0,227,227,429,1
,,,,,,,,,,,,,,,,,,5ce7f7ae2aa9590016af2ba7,2020-11-25_17h53.28.495,lexical_decision_task_MP_exp2,2020.2.5,Win32,60,,z,1,0.59214,,,,,,,,0.59214,1,,,,,,353,NW,UN,33,virlex,CLUREY,z,,,,,,0.595052083,-0.092447917,0,0,0,,0,228,228,412,1
,,,,,,,,,,,,,,,,,,5ce7f7ae2aa9590016af2ba7,2020-11-25_17h53.28.495,lexical_decision_task_MP_exp2,2020.2.5,Win32,60,,z,1,0.519365,,,,,,,,0.519365,1,,,,,,472,NW,"ID",33,cigney,CIGNEY,z,,,,,,0.595052083,-0.092447917,0,0,0,,0,229,229,291,1
,,,,,,,,,,,,,,,,,,5ce7f7ae2aa9590016af2ba7,2020-11-25_17h53.28.495,lexical_decision_task_MP_exp2,2020.2.5,Win32,60,,z,1,0.51584,,,,,,,,0.51584,1,,,,,,408,NW,UN,16,elopia,HURNIA,z,,,,,,0.595052083,-0.092447917,0,0,0,,0,230,230,467,1
,,,,,,,,,,,,,,,,,,5ce7f7ae2aa9590016af2ba7,2020-11-25_17h53.28.495,lexical_decision_task_MP_exp2,2020.2.5,Win32,60,,m,1,0.62792,,,,,,,,0.62792,1,,,,,,14,WORD,"ID",16,almost,ALMOST,m,,,,,,0.595052083,-0.092447917,0,0,0,,0,231,231,73,1
,,,,,,,,,,,,,,,,,,5ce7f7ae2aa9590016af2ba7,2020-11-25_17h53.28.495,lexical_decision_task_MP_exp2,2020.2.5,Win32,60,,m,1,0.666495,,,,,,,,0.666495,1,,,,,,113,WORD,UN,33,placid,CHORUS,m,,,,,,0.595052083,-0.092447917,0,0,0,,0,232,232,172,1
,,,,,,,,,,,,,,,,,,5ce7f7ae2aa9590016af2ba7,2020-11-25_17h53.28.495,lexical_decision_task_MP_exp2,2020.2.5,Win32,60,,m,1,0.53272,,,,,,,,0.53272,1,,,,,,79,WORD,UN,33,family,THEORY,m,,,,,,0.595052083,-0.092447917,0,0,0,,0,233,233,138,1
,,,,,,,,,,,,,,,,,,5ce7f7ae2aa9590016af2ba7,2020-11-25_17h53.28.495,lexical_decision_task_MP_exp2,2020.2.5,Win32,60,,z,1,0.65301,,,,,,,,0.65301,1,,,,,,440,NW,"ID",33,saride,SARIDE,z,,,,,,0.595052083,-0.092447917,0,0,0,,0,234,234,259,1
,,,,,,,,,,,,,,,,,,5ce7f7ae2aa9590016af2ba7,2020-11-25_17h53.28.495,lexical_decision_task_MP_exp2,2020.2.5,Win32,60,,m,1,0.62906,,,,,,,,0.62906,1,,,,,,180,WORD,UN,16,thrive,SILENT,m,,,,,,0.595052083,-0.092447917,0,0,0,,0,235,235,239,1
,,,,,,,,,,,,,,,,,,5ce7f7ae2aa9590016af2ba7,2020-11-25_17h53.28.495,lexical_decision_task_MP_exp2,2020.2.5,Win32,60,,z,1,0.675895,,,,,,,,0.675895,1,,,,,,302,NW,UN,33,fiream,MILUER,z,,,,,,0.595052083,-0.092447917,0,0,0,,0,236,236,361,1
,,,,,,,,,,,,,,,,,,5ce7f7ae2aa9590016af2ba7,2020-11-25_17h53.28.495,lexical_decision_task_MP_exp2,2020.2.5,Win32,60,,m,1,0.5357,,,,,,,,0.5357,1,,,,,,177,WORD,UN,16,inform,ADVENT,m,,,,,,0.595052083,-0.092447917,0,0,0,,0,237,237,236,1
,,,,,,,,,,,,,,,,,,5ce7f7ae2aa9590016af2ba7,2020-11-25_17h53.28.495,lexical_decision_task_MP_exp2,2020.2.5,Win32,60,,z,1,1.23456,,,,,,,,1.23456,1,,,,,,319,NW,UN,33,jockal,ZOMBER,z,,,,,,0.595052083,-0.092447917,0,0,0,,0,238,238,378,1
,,,,,,,,,,,,,,,,,,5ce7f7ae2aa9590016af2ba7,2020-11-25_17h53.28.495,lexical_decision_task_MP_exp2,2020.2.5,Win32,60,,m,1,0.588825,,,,,,,,0.588825,1,,,,,,96,WORD,UN,33,client,IGNORE,m,,,,,,0.595052083,-0.092447917,0,0,0,,0,239,239,155,1
,,,,,,,,,,,,,,,,,,5ce7f7ae2aa9590016af2ba7,2020-11-25_17h53.28.495,lexical_decision_task_MP_exp2,2020.2.5,Win32,60,,m,1,0.6323,,,,,,,,0.6323,1,,,,,,196,WORD,"ID",33,credit,CREDIT,m,,,,,,0.595052083,-0.092447917,0,0,0,,0,240,240,15,1
,,,,,,,,,,,,,,,,,,5ce7f7ae2aa9590016af2ba7,2020-11-25_17h53.28.495,lexical_decision_task_MP_exp2,2020.2.5,Win32,60,,z,1,0.632295,,,,,,,,0.632295,1,,,,,,396,NW,UN,16,camble,FLENGY,z,,,,,,0.595052083,-0.092447917,0,0,0,,0,241,241,455,1
,,,,,,,,,,,,,,,,,,5ce7f7ae2aa9590016af2ba7,2020-11-25_17h53.28.495,lexical_decision_task_MP_exp2,2020.2.5,Win32,60,,z,1,0.64609,,,,,,,,0.64609,1,,,,,,288,NW,"ID",16,yaceup,YACEUP,z,,,,,,0.595052083,-0.092447917,0,0,0,,0,242,242,347,1
,,,,,,,,,,,,,,,,,,5ce7f7ae2aa9590016af2ba7,2020-11-25_17h53.28.495,lexical_decision_task_MP_exp2,2020.2.5,Win32,60,,z,1,0.66411,,,,,,,,0.66411,1,,,,,,425,NW,"ID",33,frudge,FRUDGE,z,,,,,,0.595052083,-0.092447917,0,0,0,,0,243,243,244,1
,,,,,,,,,,,,,,,,,,5ce7f7ae2aa9590016af2ba7,2020-11-25_17h53.28.495,lexical_decision_task_MP_exp2,2020.2.5,Win32,60,,z,1,0.53097,,,,,,,,0.53097,1,,,,,,447,NW,"ID",33,gircue,GIRCUE,z,,,,,,0.595052083,-0.092447917,0,0,0,,0,244,244,266,1
,,,,,,,,,,,,,,,,,,5ce7f7ae2aa9590016af2ba7,2020-11-25_17h53.28.495,lexical_decision_task_MP_exp2,2020.2.5,Win32,60,,z,1,0.648975,,,,,,,,0.648975,1,,,,,,313,NW,UN,33,sprine,PAURSE,z,,,,,,0.595052083,-0.092447917,0,0,0,,0,245,245,372,1
,,,,,,,,,,,,,,,,,,5ce7f7ae2aa9590016af2ba7,2020-11-25_17h53.28.495,lexical_decision_task_MP_exp2,2020.2.5,Win32,60,,m,1,0.731295,,,,,,,,0.731295,1,,,,,,175,WORD,UN,16,strife,FABRIC,m,,,,,,0.595052083,-0.092447917,0,0,0,,0,246,246,234,1
,,,,,,,,,,,,,,,,,,5ce7f7ae2aa9590016af2ba7,2020-11-25_17h53.28.495,lexical_decision_task_MP_exp2,2020.2.5,Win32,60,,m,1,0.53795,,,,,,,,0.53795,1,,,,,,104,WORD,UN,33,number,STUDIO,m,,,,,,0.595052083,-0.092447917,0,0,0,,0,247,247,163,1
,,,,,,,,,,,,,,,,,,5ce7f7ae2aa9590016af2ba7,2020-11-25_17h53.28.495,lexical_decision_task_MP_exp2,2020.2.5,Win32,60,,m,1,0.563715,,,,,,,,0.563715,1,,,,,,100,WORD,UN,33,wrench,CARBON,m,,,,,,0.595052083,-0.092447917,0,0,0,,0,248,248,159,1
,,,,,,,,,,,,,,,,,,5ce7f7ae2aa9590016af2ba7,2020-11-25_17h53.28.495,lexical_decision_task_MP_exp2,2020.2.5,Win32,60,,z,1,0.56908,,,,,,,,0.56908,1,,,,,,278,NW,"ID",16,unighs,UNIGHS,z,,,,,,0.595052083,-0.092447917,0,0,0,,0,249,249,337,1
,,,,,,,,,,,,,,,,,,5ce7f7ae2aa9590016af2ba7,2020-11-25_17h53.28.495,lexical_decision_task_MP_exp2,2020.2.5,Win32,60,,m,1,0.665235,,,,,,,,0.665235,1,,,,,,15,WORD,"ID",16,amount,AMOUNT,m,,,,,,0.595052083,-0.092447917,0,0,0,,0,250,250,74,1
,,,,,,,,,,,,,,,,,,5ce7f7ae2aa9590016af2ba7,2020-11-25_17h53.28.495,lexical_decision_task_MP_exp2,2020.2.5,Win32,60,,z,1,0.78063,,,,,,,,0.78063,1,,,,,,412,NW,UN,16,equats,JILUER,z,,,,,,0.595052083,-0.092447917,0,0,0,,0,251,251,471,1
,,,,,,,,,,,,,,,,,,5ce7f7ae2aa9590016af2ba7,2020-11-25_17h53.28.495,lexical_decision_task_MP_exp2,2020.2.5,Win32,60,,m,1,0.67788,,,,,,,,0.67788,1,,,,,,172,WORD,UN,16,shower,PATROL,m,,,,,,0.595052083,-0.092447917,0,0,0,,0,252,252,231,1
,,,,,,,,,,,,,,,,,,5ce7f7ae2aa9590016af2ba7,2020-11-25_17h53.28.495,lexical_decision_task_MP_exp2,2020.2.5,Win32,60,,z,1,0.77666,,,,,,,,0.77666,1,,,,,,369,NW,UN,16,sleact,WRONCH,z,,,,,,0.595052083,-0.092447917,0,0,0,,0,253,253,428,1
,,,,,,,,,,,,,,,,,,5ce7f7ae2aa9590016af2ba7,2020-11-25_17h53.28.495,lexical_decision_task_MP_exp2,2020.2.5,Win32,60,,m,1,0.611205,,,,,,,,0.611205,1,,,,,,43,WORD,"ID",16,tongue,TONGUE,m,,,,,,0.595052083,-0.092447917,0,0,0,,0,254,254,102,1
,,,,,,,,,,,,,,,,,,5ce7f7ae2aa9590016af2ba7,2020-11-25_17h53.28.495,lexical_decision_task_MP_exp2,2020.2.5,Win32,60,,z,1,0.695565,,,,,,,,0.695565,1,,,,,,316,NW,UN,33,worbal,SCREGM,z,,,,,,0.595052083,-0.092447917,0,0,0,,0,255,255,375,1
,,,,,,,,,,,,,,,,,,5ce7f7ae2aa9590016af2ba7,2020-11-25_17h53.28.495,lexical_decision_task_MP_exp2,2020.2.5,Win32,60,,m,1,0.631865,,,,,,,,0.631865,1,,,,,,186,WORD,"ID",33,portal,PORTAL,m,,,,,,0.595052083,-0.092447917,0,0,0,,0,256,256,5,1
,,,,,,,,,,,,,,,,,,5ce7f7ae2aa9590016af2ba7,2020-11-25_17h53.28.495,lexical_decision_task_MP_exp2,2020.2.5,Win32,60,,z,1,0.572715,,,,,,,,0.572715,1,,,,,,453,NW,"ID",33,bolvis,BOLVIS,z,,,,,,0.595052083,-0.092447917,0,0,0,,0,257,257,272,1
,,,,,,,,,,,,,,,,,,5ce7f7ae2aa9590016af2ba7,2020-11-25_17h53.28.495,lexical_decision_task_MP_exp2,2020.2.5,Win32,60,,m,1,0.83508,,,,,,,,0.83508,1,,,,,,85,WORD,UN,33,rodent,SPRAWL,m,,,,,,0.595052083,-0.092447917,0,0,0,,0,258,258,144,1
,,,,,,,,,,,,,,,,,,5ce7f7ae2aa9590016af2ba7,2020-11-25_17h53.28.495,lexical_decision_task_MP_exp2,2020.2.5,Win32,60,,z,1,0.626715,,,,,,,,0.626715,1,,,,,,351,NW,UN,33,tringe,TIESCH,z,,,,,,0.595052083,-0.092447917,0,0,0,,0,259,259,410,1
,,,,,,,,,,,,,,,,,,5ce7f7ae2aa9590016af2ba7,2020-11-25_17h53.28.495,lexical_decision_task_MP_exp2,2020.2.5,Win32,60,,z,1,0.569215,,,,,,,,0.569215,1,,,,,,354,NW,UN,33,zingly,VIRLEX,z,,,,,,0.595052083,-0.092447917,0,0,0,,0,260,260,413,1
,,,,,,,,,,,,,,,,,,5ce7f7ae2aa9590016af2ba7,2020-11-25_17h53.28.495,lexical_decision_task_MP_exp2,2020.2.5,Win32,60,,z,1,0.618485,,,,,,,,0.618485,1,,,,,,430,NW,"ID",33,caroey,CAROEY,z,,,,,,0.595052083,-0.092447917,0,0,0,,0,261,261,249,1
,,,,,,,,,,,,,,,,,,5ce7f7ae2aa9590016af2ba7,2020-11-25_17h53.28.495,lexical_decision_task_MP_exp2,2020.2.5,Win32,60,,m,1,0.685325,,,,,,,,0.685325,1,,,,,,120,WORD,UN,33,ponder,STRAIN,m,,,,,,0.595052083,-0.092447917,0,0,0,,0,262,262,179,1
,,,,,,,,,,,,,,,,,,5ce7f7ae2aa9590016af2ba7,2020-11-25_17h53.28.495,lexical_decision_task_MP_exp2,2020.2.5,Win32,60,,m,1,0.658435,,,,,,,,0.658435,1,,,,,,13,WORD,"ID",16,strive,STRIVE,m,,,,,,0.595052083,-0.092447917,0,0,0,,0,263,263,72,1
,,,,,,,,,,,,,,,,,,5ce7f7ae2aa9590016af2ba7,2020-11-25_17h53.28.495,lexical_decision_task_MP_exp2,2020.2.5,Win32,60,,m,1,1.16853,,,,,,,,1.16853,1,,,,,,133,WORD,UN,16,staple,CHROME,m,,,,,,0.595052083,-0.092447917,0,0,0,,0,264,264,192,1
,,,,,,,,,,,,,,,,,,5ce7f7ae2aa9590016af2ba7,2020-11-25_17h53.28.495,lexical_decision_task_MP_exp2,2020.2.5,Win32,60,,m,1,0.16768,,,,,,,,0.16768,1,,,,,,152,WORD,UN,16,behold,ROCKET,m,,,,,,0.595052083,-0.092447917,0,0,0,,0,265,265,211,1
,,,,,,,,,,,,,,,,,,5ce7f7ae2aa9590016af2ba7,2020-11-25_17h53.28.495,lexical_decision_task_MP_exp2,2020.2.5,Win32,60,,m,1,0.604275,,,,,,,,0.604275,1,,,,,,232,WORD,"ID",33,inject,INJECT,m,,,,,,0.595052083,-0.092447917,0,0,0,,0,266,266,51,1
,,,,,,,,,,,,,,,,,,5ce7f7ae2aa9590016af2ba7,2020-11-25_17h53.28.495,lexical_decision_task_MP_exp2,2020.2.5,Win32,60,,z,1,1.366355,,,,,,,,1.366355,1,,,,,,390,NW,UN,16,theldy,HATRUS,z,,,,,,0.595052083,-0.092447917,0,0,0,,0,267,267,449,1
,,,,,,,,,,,,,,,,,,5ce7f7ae2aa9590016af2ba7,2020-11-25_17h53.28.495,lexical_decision_task_MP_exp2,2020.2.5,Win32,60,,m,1,0.767245,,,,,,,,0.767245,1,,,,,,226,WORD,"ID",33,casino,CASINO,m,,,,,,0.595052083,-0.092447917,0,0,0,,0,268,268,45,1
,,,,,,,,,,,,,,,,,,5ce7f7ae2aa9590016af2ba7,2020-11-25_17h53.28.495,lexical_decision_task_MP_exp2,2020.2.5,Win32,60,,m,1,0.84921,,,,,,,,0.84921,1,,,,,,159,WORD,UN,16,violet,DETAIL,m,,,,,,0.595052083,-0.092447917,0,0,0,,0,269,269,218,1
,,,,,,,,,,,,,,,,,,5ce7f7ae2aa9590016af2ba7,2020-11-25_17h53.28.495,lexical_decision_task_MP_exp2,2020.2.5,Win32,60,,z,1,0.82495,,,,,,,,0.82495,1,,,,,,402,NW,UN,16,bruats,SYNTIC,z,,,,,,0.595052083,-0.092447917,0,0,0,,0,270,270,461,1
,,,,,,,,,,,,,,,,,,5ce7f7ae2aa9590016af2ba7,2020-11-25_17h53.28.495,lexical_decision_task_MP_exp2,2020.2.5,Win32,60,,z,1,0.63642,,,,,,,,0.63642,1,,,,,,335,NW,UN,33,ghodus,DESION,z,,,,,,0.595052083,-0.092447917,0,0,0,,0,271,271,394,1
,,,,,,,,,,,,,,,,,,5ce7f7ae2aa9590016af2ba7,2020-11-25_17h53.28.495,lexical_decision_task_MP_exp2,2020.2.5,Win32,60,,z,1,0.548445,,,,,,,,0.548445,1,,,,,,379,NW,UN,16,cavory,AUTING,z,,,,,,0.595052083,-0.092447917,0,0,0,,0,272,272,438,1
,,,,,,,,,,,,,,,,,,5ce7f7ae2aa9590016af2ba7,2020-11-25_17h53.28.495,lexical_decision_task_MP_exp2,2020.2.5,Win32,60,,m,1,0.666355,,,,,,,,0.666355,1,,,,,,108,WORD,UN,33,wonder,RECKON,m,,,,,,0.595052083,-0.092447917,0,0,0,,0,273,273,167,1
,,,,,,,,,,,,,,,,,,5ce7f7ae2aa9590016af2ba7,2020-11-25_17h53.28.495,lexical_decision_task_MP_exp2,2020.2.5,Win32,60,,m,1,1.13125,,,,,,,,1.13125,1,,,,,,73,WORD,UN,33,plaque,SOURCE,m,,,,,,0.595052083,-0.092447917,0,0,0,,0,274,274,132,1
,,,,,,,,,,,,,,,,,,5ce7f7ae2aa9590016af2ba7,2020-11-25_17h53.28.495,lexical_decision_task_MP_exp2,2020.2.5,Win32,60,,z,1,0.597925,,,,,,,,0.597925,1,,,,,,371,NW,UN,16,ramily,GEILOY,z,,,,,,0.595052083,-0.092447917,0,0,0,,0,275,275,430,1
,,,,,,,,,,,,,,,,,,5ce7f7ae2aa9590016af2ba7,2020-11-25_17h53.28.495,lexical_decision_task_MP_exp2,2020.2.5,Win32,60,,z,1,0.64924,,,,,,,,0.64924,1,,,,,,246,NW,"ID",16,piaton,PIATON,z,,,,,,0.595052083,-0.092447917,0,0,0,,0,276,276,305,1
,,,,,,,,,,,,,,,,,,5ce7f7ae2aa9590016af2ba7,2020-11-25_17h53.28.495,lexical_decision_task_MP_exp2,2020.2.5,Win32,60,,m,1,0.780345,,,,,,,,0.780345,1,,,,,,109,WORD,UN,33,polite,WONDER,m,,,,,,0.595052083,-0.092447917,0,0,0,,0,277,277,168,1
,,,,,,,,,,,,,,,,,,5ce7f7ae2aa9590016af2ba7,2020-11-25_17h53.28.495,lexical_decision_task_MP_exp2,2020.2.5,Win32,60,,z,1,0.62435,,,,,,,,0.62435,1,,,,,,254,NW,"ID",16,varosh,VAROSH,z,,,,,,0.595052083,-0.092447917,0,0,0,,0,278,278,313,1
,,,,,,,,,,,,,,,,,,5ce7f7ae2aa9590016af2ba7,2020-11-25_17h53.28.495,lexical_decision_task_MP_exp2,2020.2.5,Win32,60,,m,1,0.665,,,,,,,,0.665,1,,,,,,140,WORD,UN,16,chrome,PRINCE,m,,,,,,0.595052083,-0.092447917,0,0,0,,0,279,279,199,1
,,,,,,,,,,,,,,,,,,5ce7f7ae2aa9590016af2ba7,2020-11-25_17h53.28.495,lexical_decision_task_MP_exp2,2020.2.5,Win32,60,,z,1,0.61304,,,,,,,,0.61304,1,,,,,,410,NW,UN,16,orchin,TUNORY,z,,,,,,0.595052083,-0.092447917,0,0,0,,0,280,280,469,1
,,,,,,,,,,,,,,,,,,5ce7f7ae2aa9590016af2ba7,2020-11-25_17h53.28.495,lexical_decision_task_MP_exp2,2020.2.5,Win32,60,,z,1,0.615675,,,,,,,,0.615675,1,,,,,,474,NW,"ID",33,hablin,HABLIN,z,,,,,,0.595052083,-0.092447917,0,0,0,,0,281,281,293,1
,,,,,,,,,,,,,,,,,,5ce7f7ae2aa9590016af2ba7,2020-11-25_17h53.28.495,lexical_decision_task_MP_exp2,2020.2.5,Win32,60,,m,1,0.733425,,,,,,,,0.733425,1,,,,,,217,WORD,"ID",33,liquor,LIQUOR,m,,,,,,0.595052083,-0.092447917,0,0,0,,0,282,282,36,1
,,,,,,,,,,,,,,,,,,5ce7f7ae2aa9590016af2ba7,2020-11-25_17h53.28.495,lexical_decision_task_MP_exp2,2020.2.5,Win32,60,,m,1,0.579515,,,,,,,,0.579515,1,,,,,,187,WORD,"ID",33,course,COURSE,m,,,,,,0.595052083,-0.092447917,0,0,0,,0,283,283,6,1
,,,,,,,,,,,,,,,,,,5ce7f7ae2aa9590016af2ba7,2020-11-25_17h53.28.495,lexical_decision_task_MP_exp2,2020.2.5,Win32,60,,z,1,0.681015,,,,,,,,0.681015,1,,,,,,455,NW,"ID",33,tondle,TONDLE,z,,,,,,0.595052083,-0.092447917,0,0,0,,0,284,284,274,1
,,,,,,,,,,,,,,,,,,5ce7f7ae2aa9590016af2ba7,2020-11-25_17h53.28.495,lexical_decision_task_MP_exp2,2020.2.5,Win32,60,,m,1,0.83548,,,,,,,,0.83548,1,,,,,,74,WORD,UN,33,trophy,PLAQUE,m,,,,,,0.595052083,-0.092447917,0,0,0,,0,285,285,133,1
,,,,,,,,,,,,,,,,,,5ce7f7ae2aa9590016af2ba7,2020-11-25_17h53.28.495,lexical_decision_task_MP_exp2,2020.2.5,Win32,60,,z,1,0.60547,,,,,,,,0.60547,1,,,,,,301,NW,UN,33,miluer,FAINCH,z,,,,,,0.595052083,-0.092447917,0,0,0,,0,286,286,360,1
,,,,,,,,,,,,,,,,,,5ce7f7ae2aa9590016af2ba7,2020-11-25_17h53.28.495,lexical_decision_task_MP_exp2,2020.2.5,Win32,60,,m,1,0.99761,,,,,,,,0.99761,1,,,,,,231,WORD,"ID",33,export,EXPORT,m,,,,,,0.595052083,-0.092447917,0,0,0,,0,287,287,50,1
,,,,,,,,,,,,,,,,,,5ce7f7ae2aa9590016af2ba7,2020-11-25_17h53.28.495,lexical_decision_task_MP_exp2,2020.2.5,Win32,60,,m,1,0.934355,,,,,,,,0.934355,1,,,,,,65,WORD,UN,33,gospel,SYMBOL,m,,,,,,0.595052083,-0.092447917,0,0,0,,0,288,288,124,1
,,,,,,,,,,,,,,,,,,5ce7f7ae2aa9590016af2ba7,2020-11-25_17h53.28.495,lexical_decision_task_MP_exp2,2020.2.5,Win32,60,,m,1,0.47887,,,,,,,,0.47887,1,,,,,,123,WORD,UN,16,blouse,STRIKE,m,,,,,,0.595052083,-0.092447917,0,0,0,,0,289,289,182,1
,,,,,,,,,,,,,,,,,,5ce7f7ae2aa9590016af2ba7,2020-11-25_17h53.28.495,lexical_decision_task_MP_exp2,2020.2.5,Win32,60,,m,1,0.462465,,,,,,,,0.462465,1,,,,,,205,WORD,"ID",33,lounge,LOUNGE,m,,,,,,0.595052083,-0.092447917,0,0,0,,0,290,290,24,1
,,,,,,,,,,,,,,,,,,5ce7f7ae2aa9590016af2ba7,2020-11-25_17h53.28.495,lexical_decision_task_MP_exp2,2020.2.5,Win32,60,,m,1,0.512915,,,,,,,,0.512915,1,,,,,,201,WORD,"ID",33,admire,ADMIRE,m,,,,,,0.595052083,-0.092447917,0,0,0,,0,291,291,20,1
,,,,,,,,,,,,,,,,,,5ce7f7ae2aa9590016af2ba7,2020-11-25_17h53.28.495,lexical_decision_task_MP_exp2,2020.2.5,Win32,60,,m,1,0.43123,,,,,,,,0.43123,1,,,,,,160,WORD,UN,16,pastor,VIOLET,m,,,,,,0.595052083,-0.092447917,0,0,0,,0,292,292,219,1
,,,,,,,,,,,,,,,,,,5ce7f7ae2aa9590016af2ba7,2020-11-25_17h53.28.495,lexical_decision_task_MP_exp2,2020.2.5,Win32,60,,z,1,0.612635,,,,,,,,0.612635,1,,,,,,340,NW,UN,33,myrtie,FIATCH,z,,,,,,0.595052083,-0.092447917,0,0,0,,0,293,293,399,1
,,,,,,,,,,,,,,,,,,5ce7f7ae2aa9590016af2ba7,2020-11-25_17h53.28.495,lexical_decision_task_MP_exp2,2020.2.5,Win32,60,,m,1,0.57911,,,,,,,,0.57911,1,,,,,,179,WORD,UN,16,silent,BASKET,m,,,,,,0.595052083,-0.092447917,0,0,0,,0,294,294,238,1
,,,,,,,,,,,,,,,,,,5ce7f7ae2aa9590016af2ba7,2020-11-25_17h53.28.495,lexical_decision_task_MP_exp2,2020.2.5,Win32,60,,z,1,0.74632,,,,,,,,0.74632,1,,,,,,263,NW,"ID",16,dolica,DOLICA,z,,,,,,0.595052083,-0.092447917,0,0,0,,0,295,295,322,1
,,,,,,,,,,,,,,,,,,5ce7f7ae2aa9590016af2ba7,2020-11-25_17h53.28.495,lexical_decision_task_MP_exp2,2020.2.5,Win32,60,,z,1,0.82996,,,,,,,,0.82996,1,,,,,,463,NW,"ID",33,kispel,KISPEL,z,,,,,,0.595052083,-0.092447917,0,0,0,,0,296,296,282,1
,,,,,,,,,,,,,,,,,,5ce7f7ae2aa9590016af2ba7,2020-11-25_17h53.28.495,lexical_decision_task_MP_exp2,2020.2.5,Win32,60,,m,0,0.64823,,,,,,,,0.64823,0,,,,,,250,NW,"ID",16,milted,MILTED,z,,,,,,0.595052083,-0.092447917,0,0,0,,0,297,297,309,1
,,,,,,,,,,,,,,,,,,5ce7f7ae2aa9590016af2ba7,2020-11-25_17h53.28.495,lexical_decision_task_MP_exp2,2020.2.5,Win32,60,,m,1,0.64743,,,,,,,,0.64743,1,,,,,,64,WORD,UN,33,symbol,THRONE,m,,,,,,0.595052083,-0.092447917,0,0,0,,0,298,298,123,1
,,,,,,,,,,,,,,,,,,5ce7f7ae2aa9590016af2ba7,2020-11-25_17h53.28.495,lexical_decision_task_MP_exp2,2020.2.5,Win32,60,,m,0,0.53459,,,,,,,,0.53459,0,,,,,,314,NW,UN,33,laston,SPRINE,z,,,,,,0.595052083,-0.092447917,0,0,0,,0,299,299,373,1
,,,,,,,,,,,,,,,,,,5ce7f7ae2aa9590016af2ba7,2020-11-25_17h53.28.495,lexical_decision_task_MP_exp2,2020.2.5,Win32,60,,m,1,0.828595,,,,,,,,0.828595,1,,,,,,166,WORD,UN,16,design,STARCH,m,,,,,,0.595052083,-0.092447917,0,0,0,,0,300,300,225,1
,,,,,,,,,,,,,,,,,,5ce7f7ae2aa9590016af2ba7,2020-11-25_17h53.28.495,lexical_decision_task_MP_exp2,2020.2.5,Win32,60,,m,1,0.57242,,,,,,,,0.57242,1,,,,,,59,WORD,"ID",16,splint,SPLINT,m,,,,,,0.595052083,-0.092447917,0,0,0,,0,301,301,118,1
,,,,,,,,,,,,,,,,,,5ce7f7ae2aa9590016af2ba7,2020-11-25_17h53.28.495,lexical_decision_task_MP_exp2,2020.2.5,Win32,60,,m,1,0.648425,,,,,,,,0.648425,1,,,,,,224,WORD,"ID",33,period,PERIOD,m,,,,,,0.595052083,-0.092447917,0,0,0,,0,302,302,43,1
,,,,,,,,,,,,,,,,,,5ce7f7ae2aa9590016af2ba7,2020-11-25_17h53.28.495,lexical_decision_task_MP_exp2,2020.2.5,Win32,60,,z,1,0.66481,,,,,,,,0.66481,1,,,,,,310,NW,UN,33,sproly,DANIET,z,,,,,,0.595052083,-0.092447917,0,0,0,,0,303,303,369,1
,,,,,,,,,,,,,,,,,,5ce7f7ae2aa9590016af2ba7,2020-11-25_17h53.28.495,lexical_decision_task_MP_exp2,2020.2.5,Win32,60,,m,1,0.809905,,,,,,,,0.809905,1,,,,,,131,WORD,UN,16,strong,QUENCH,m,,,,,,0.595052083,-0.092447917,0,0,0,,0,304,304,190,1
,,,,,,,,,,,,,,,,,,5ce7f7ae2aa9590016af2ba7,2020-11-25_17h53.28.495,lexical_decision_task_MP_exp2,2020.2.5,Win32,60,,m,1,0.58066,,,,,,,,0.58066,1,,,,,,97,WORD,UN,33,belong,CLIENT,m,,,,,,0.595052083,-0.092447917,0,0,0,,0,305,305,156,1
,,,,,,,,,,,,,,,,,,5ce7f7ae2aa9590016af2ba7,2020-11-25_17h53.28.495,lexical_decision_task_MP_exp2,2020.2.5,Win32,60,,m,1,0.5673,,,,,,,,0.5673,1,,,,,,112,WORD,UN,33,chorus,BREATH,m,,,,,,0.595052083,-0.092447917,0,0,0,,0,306,306,171,1
,,,,,,,,,,,,,,,,,,5ce7f7ae2aa9590016af2ba7,2020-11-25_17h53.28.495,lexical_decision_task_MP_exp2,2020.2.5,Win32,60,,m,1,0.68114,,,,,,,,0.68114,1,,,,,,5,WORD,"ID",16,plunge,PLUNGE,m,,,,,,0.595052083,-0.092447917,0,0,0,,0,307,307,64,1
,,,,,,,,,,,,,,,,,,5ce7f7ae2aa9590016af2ba7,2020-11-25_17h53.28.495,lexical_decision_task_MP_exp2,2020.2.5,Win32,60,,m,1,0.548345,,,,,,,,0.548345,1,,,,,,233,WORD,"ID",33,nature,NATURE,m,,,,,,0.595052083,-0.092447917,0,0,0,,0,308,308,52,1
,,,,,,,,,,,,,,,,,,5ce7f7ae2aa9590016af2ba7,2020-11-25_17h53.28.495,lexical_decision_task_MP_exp2,2020.2.5,Win32,60,,m,1,0.589055,,,,,,,,0.589055,1,,,,,,38,WORD,"ID",16,powder,POWDER,m,,,,,,0.595052083,-0.092447917,0,0,0,,0,309,309,97,1
,,,,,,,,,,,,,,,,,,5ce7f7ae2aa9590016af2ba7,2020-11-25_17h53.28.495,lexical_decision_task_MP_exp2,2020.2.5,Win32,60,,z,1,0.598125,,,,,,,,0.598125,1,,,,,,350,NW,UN,33,tiesch,NAGURS,z,,,,,,0.595052083,-0.092447917,0,0,0,,0,310,310,409,1
,,,,,,,,,,,,,,,,,,5ce7f7ae2aa9590016af2ba7,2020-11-25_17h53.28.495,lexical_decision_task_MP_exp2,2020.2.5,Win32,60,,z,1,0.999435,,,,,,,,0.999435,1,,,,,,248,NW,"ID",16,strole,STROLE,z,,,,,,0.595052083,-0.092447917,0,0,0,,0,311,311,307,1
,,,,,,,,,,,,,,,,,,5ce7f7ae2aa9590016af2ba7,2020-11-25_17h53.28.495,lexical_decision_task_MP_exp2,2020.2.5,Win32,60,,z,0,0.419365,,,,,,,,0.419365,0,,,,,,218,WORD,"ID",33,shrink,SHRINK,m,,,,,,0.595052083,-0.092447917,0,0,0,,0,312,312,37,1
,,,,,,,,,,,,,,,,,,5ce7f7ae2aa9590016af2ba7,2020-11-25_17h53.28.495,lexical_decision_task_MP_exp2,2020.2.5,Win32,60,,z,1,0.76658,,,,,,,,0.76658,1,,,,,,459,NW,"ID",33,bafent,BAFENT,z,,,,,,0.595052083,-0.092447917,0,0,0,,0,313,313,278,1
,,,,,,,,,,,,,,,,,,5ce7f7ae2aa9590016af2ba7,2020-11-25_17h53.28.495,lexical_decision_task_MP_exp2,2020.2.5,Win32,60,,z,1,0.75195,,,,,,,,0.75195,1,,,,,,406,NW,UN,16,suiver,NOUPLY,z,,,,,,0.595052083,-0.092447917,0,0,0,,0,314,314,465,1
,,,,,,,,,,,,,,,,,,5ce7f7ae2aa9590016af2ba7,2020-11-25_17h53.28.495,lexical_decision_task_MP_exp2,2020.2.5,Win32,60,,m,1,0.615355,,,,,,,,0.615355,1,,,,,,149,WORD,UN,16,random,INVADE,m,,,,,,0.595052083,-0.092447917,0,0,0,,0,315,315,208,1
,,,,,,,,,,,,,,,,,,5ce7f7ae2aa9590016af2ba7,2020-11-25_17h53.28.495,lexical_decision_task_MP_exp2,2020.2.5,Win32,60,,z,1,0.965225,,,,,,,,0.965225,1,,,,,,448,NW,"ID",33,sadent,SADENT,z,,,,,,0.595052083,-0.092447917,0,0,0,,0,316,316,267,1
,,,,,,,,,,,,,,,,,,5ce7f7ae2aa9590016af2ba7,2020-11-25_17h53.28.495,lexical_decision_task_MP_exp2,2020.2.5,Win32,60,,m,1,0.9472,,,,,,,,0.9472,1,,,,,,66,WORD,UN,33,policy,GOSPEL,m,,,,,,0.595052083,-0.092447917,0,0,0,,0,317,317,125,1
,,,,,,,,,,,,,,,,,,5ce7f7ae2aa9590016af2ba7,2020-11-25_17h53.28.495,lexical_decision_task_MP_exp2,2020.2.5,Win32,60,,z,1,0.61549,,,,,,,,0.61549,1,,,,,,388,NW,UN,16,witmer,CRAGIN,z,,,,,,0.595052083,-0.092447917,0,0,0,,0,318,318,447,1
,,,,,,,,,,,,,,,,,,5ce7f7ae2aa9590016af2ba7,2020-11-25_17h53.28.495,lexical_decision_task_MP_exp2,2020.2.5,Win32,60,,z,1,0.97713,,,,,,,,0.97713,1,,,,,,289,NW,"ID",16,starby,STARBY,z,,,,,,0.595052083,-0.092447917,0,0,0,,0,319,319,348,1
,,,,,,,,,,,,,,,,,,5ce7f7ae2aa9590016af2ba7,2020-11-25_17h53.28.495,lexical_decision_task_MP_exp2,2020.2.5,Win32,60,,m,1,0.671785,,,,,,,,0.671785,1,,,,,,26,WORD,"ID",16,sprint,SPRINT,m,,,,,,0.595052083,-0.092447917,0,0,0,,0,320,320,85,1
,,,,,,,,,,,,,,,,,,5ce7f7ae2aa9590016af2ba7,2020-11-25_17h53.28.495,lexical_decision_task_MP_exp2,2020.2.5,Win32,60,,z,1,0.57323,,,,,,,,0.57323,1,,,,,,247,NW,"ID",16,blarge,BLARGE,z,,,,,,0.595052083,-0.092447917,0,0,0,,0,321,321,306,1
,,,,,,,,,,,,,,,,,,5ce7f7ae2aa9590016af2ba7,2020-11-25_17h53.28.495,lexical_decision_task_MP_exp2,2020.2.5,Win32,60,,m,1,0.58015,,,,,,,,0.58015,1,,,,,,61,WORD,UN,33,region,PONDER,m,,,,,,0.595052083,-0.092447917,0,0,0,,0,322,322,120,1
,,,,,,,,,,,,,,,,,,5ce7f7ae2aa9590016af2ba7,2020-11-25_17h53.28.495,lexical_decision_task_MP_exp2,2020.2.5,Win32,60,,z,1,0.596815,,,,,,,,0.596815,1,,,,,,352,NW,UN,33,clurey,TRINGE,z,,,,,,0.595052083,-0.092447917,0,0,0,,0,323,323,411,1
,,,,,,,,,,,,,,,,,,5ce7f7ae2aa9590016af2ba7,2020-11-25_17h53.28.495,lexical_decision_task_MP_exp2,2020.2.5,Win32,60,,z,1,0.55013,,,,,,,,0.55013,1,,,,,,337,NW,UN,33,wreash,REJOLS,z,,,,,,0.595052083,-0.092447917,0,0,0,,0,324,324,396,1
,,,,,,,,,,,,,,,,,,5ce7f7ae2aa9590016af2ba7,2020-11-25_17h53.28.495,lexical_decision_task_MP_exp2,2020.2.5,Win32,60,,z,1,0.564285,,,,,,,,0.564285,1,,,,,,391,NW,UN,16,rouncy,THELDY,z,,,,,,0.595052083,-0.092447917,0,0,0,,0,325,325,450,1
,,,,,,,,,,,,,,,,,,5ce7f7ae2aa9590016af2ba7,2020-11-25_17h53.28.495,lexical_decision_task_MP_exp2,2020.2.5,Win32,60,,z,1,0.484975,,,,,,,,0.484975,1,,,,,,479,NW,"ID",33,lobush,LOBUSH,z,,,,,,0.595052083,-0.092447917,0,0,0,,0,326,326,298,1
,,,,,,,,,,,,,,,,,,5ce7f7ae2aa9590016af2ba7,2020-11-25_17h53.28.495,lexical_decision_task_MP_exp2,2020.2.5,Win32,60,,m,1,0.68704,,,,,,,,0.68704,1,,,,,,208,WORD,"ID",33,hockey,HOCKEY,m,,,,,,0.595052083,-0.092447917,0,0,0,,0,327,327,27,1
,,,,,,,,,,,,,,,,,,5ce7f7ae2aa9590016af2ba7,2020-11-25_17h53.28.495,lexical_decision_task_MP_exp2,2020.2.5,Win32,60,,z,1,0.766735,,,,,,,,0.766735,1,,,,,,376,NW,UN,16,veigma,IGUARE,z,,,,,,0.595052083,-0.092447917,0,0,0,,0,328,328,435,1
,,,,,,,,,,,,,,,,,,5ce7f7ae2aa9590016af2ba7,2020-11-25_17h53.28.495,lexical_decision_task_MP_exp2,2020.2.5,Win32,60,,m,1,0.66843,,,,,,,,0.66843,1,,,,,,99,WORD,UN,33,carbon,FLUENT,m,,,,,,0.595052083,-0.092447917,0,0,0,,0,329,329,158,1
,,,,,,,,,,,,,,,,,,5ce7f7ae2aa9590016af2ba7,2020-11-25_17h53.28.495,lexical_decision_task_MP_exp2,2020.2.5,Win32,60,,z,1,0.798655,,,,,,,,0.798655,1,,,,,,315,NW,UN,33,scregm,LASTON,z,,,,,,0.595052083,-0.092447917,0,0,0,,0,330,330,374,1
,,,,,,,,,,,,,,,,,,5ce7f7ae2aa9590016af2ba7,2020-11-25_17h53.28.495,lexical_decision_task_MP_exp2,2020.2.5,Win32,60,,z,1,0.81661,,,,,,,,0.81661,1,,,,,,327,NW,UN,33,broake,PLENAC,z,,,,,,0.595052083,-0.092447917,0,0,0,,0,331,331,386,1
,,,,,,,,,,,,,,,,,,5ce7f7ae2aa9590016af2ba7,2020-11-25_17h53.28.495,lexical_decision_task_MP_exp2,2020.2.5,Win32,60,,m,1,0.61554,,,,,,,,0.61554,1,,,,,,211,WORD,"ID",33,infect,INFECT,m,,,,,,0.595052083,-0.092447917,0,0,0,,0,332,332,30,1
,,,,,,,,,,,,,,,,,,5ce7f7ae2aa9590016af2ba7,2020-11-25_17h53.28.495,lexical_decision_task_MP_exp2,2020.2.5,Win32,60,,m,1,0.697155,,,,,,,,0.697155,1,,,,,,54,WORD,"ID",16,ramble,RAMBLE,m,,,,,,0.595052083,-0.092447917,0,0,0,,0,333,333,113,1
,,,,,,,,,,,,,,,,,,5ce7f7ae2aa9590016af2ba7,2020-11-25_17h53.28.495,lexical_decision_task_MP_exp2,2020.2.5,Win32,60,,m,1,0.47838,,,,,,,,0.47838,1,,,,,,41,WORD,"ID",16,spring,SPRING,m,,,,,,0.595052083,-0.092447917,0,0,0,,0,334,334,100,1
,,,,,,,,,,,,,,,,,,5ce7f7ae2aa9590016af2ba7,2020-11-25_17h53.28.495,lexical_decision_task_MP_exp2,2020.2.5,Win32,60,,z,1,0.665915,,,,,,,,0.665915,1,,,,,,378,NW,UN,16,auting,SHRILE,z,,,,,,0.595052083,-0.092447917,0,0,0,,0,335,335,437,1
,,,,,,,,,,,,,,,,,,5ce7f7ae2aa9590016af2ba7,2020-11-25_17h53.28.495,lexical_decision_task_MP_exp2,2020.2.5,Win32,60,,z,1,0.63173,,,,,,,,0.63173,1,,,,,,318,NW,UN,33,zomber,REAGLY,z,,,,,,0.595052083,-0.092447917,0,0,0,,0,336,336,377,1
,,,,,,,,,,,,,,,,,,5ce7f7ae2aa9590016af2ba7,2020-11-25_17h53.28.495,lexical_decision_task_MP_exp2,2020.2.5,Win32,60,,m,1,0.732265,,,,,,,,0.732265,1,,,,,,147,WORD,UN,16,custom,GARLIC,m,,,,,,0.595052083,-0.092447917,0,0,0,,0,337,337,206,1
,,,,,,,,,,,,,,,,,,5ce7f7ae2aa9590016af2ba7,2020-11-25_17h53.28.495,lexical_decision_task_MP_exp2,2020.2.5,Win32,60,,z,1,0.61301,,,,,,,,0.61301,1,,,,,,445,NW,"ID",33,minkel,MINKEL,z,,,,,,0.595052083,-0.092447917,0,0,0,,0,338,338,264,1
,,,,,,,,,,,,,,,,,,5ce7f7ae2aa9590016af2ba7,2020-11-25_17h53.28.495,lexical_decision_task_MP_exp2,2020.2.5,Win32,60,,m,1,0.4842,,,,,,,,0.4842,1,,,,,,162,WORD,UN,16,string,CANDLE,m,,,,,,0.595052083,-0.092447917,0,0,0,,0,339,339,221,1
,,,,,,,,,,,,,,,,,,5ce7f7ae2aa9590016af2ba7,2020-11-25_17h53.28.495,lexical_decision_task_MP_exp2,2020.2.5,Win32,60,,m,1,0.614245,,,,,,,,0.614245,1,,,,,,36,WORD,"ID",16,vanish,VANISH,m,,,,,,0.595052083,-0.092447917,0,0,0,,0,340,340,95,1
,,,,,,,,,,,,,,,,,,5ce7f7ae2aa9590016af2ba7,2020-11-25_17h53.28.495,lexical_decision_task_MP_exp2,2020.2.5,Win32,60,,z,1,0.596715,,,,,,,,0.596715,1,,,,,,291,NW,"ID",16,pretch,PRETCH,z,,,,,,0.595052083,-0.092447917,0,0,0,,0,341,341,350,1
,,,,,,,,,,,,,,,,,,5ce7f7ae2aa9590016af2ba7,2020-11-25_17h53.28.495,lexical_decision_task_MP_exp2,2020.2.5,Win32,60,,z,1,0.51425,,,,,,,,0.51425,1,,,,,,283,NW,"ID",16,veralf,VERALF,z,,,,,,0.595052083,-0.092447917,0,0,0,,0,342,342,342,1
,,,,,,,,,,,,,,,,,,5ce7f7ae2aa9590016af2ba7,2020-11-25_17h53.28.495,lexical_decision_task_MP_exp2,2020.2.5,Win32,60,,m,0,0.616125,,,,,,,,0.616125,0,,,,,,317,NW,UN,33,reagly,WORBAL,z,,,,,,0.595052083,-0.092447917,0,0,0,,0,343,343,376,1
,,,,,,,,,,,,,,,,,,5ce7f7ae2aa9590016af2ba7,2020-11-25_17h53.28.495,lexical_decision_task_MP_exp2,2020.2.5,Win32,60,,z,1,0.64702,,,,,,,,0.64702,1,,,,,,480,NW,"ID",33,robuly,ROBULY,z,,,,,,0.595052083,-0.092447917,0,0,0,,0,344,344,299,1
,,,,,,,,,,,,,,,,,,5ce7f7ae2aa9590016af2ba7,2020-11-25_17h53.28.495,lexical_decision_task_MP_exp2,2020.2.5,Win32,60,,z,1,0.63923,,,,,,,,0.63923,1,,,,,,461,NW,"ID",33,justre,JUSTRE,z,,,,,,0.595052083,-0.092447917,0,0,0,,0,345,345,280,1
,,,,,,,,,,,,,,,,,,5ce7f7ae2aa9590016af2ba7,2020-11-25_17h53.28.495,lexical_decision_task_MP_exp2,2020.2.5,Win32,60,,z,1,0.617145,,,,,,,,0.617145,1,,,,,,273,NW,"ID",16,sortel,SORTEL,z,,,,,,0.595052083,-0.092447917,0,0,0,,0,346,346,332,1
,,,,,,,,,,,,,,,,,,5ce7f7ae2aa9590016af2ba7,2020-11-25_17h53.28.495,lexical_decision_task_MP_exp2,2020.2.5,Win32,60,,z,1,0.56248,,,,,,,,0.56248,1,,,,,,251,NW,"ID",16,lupict,LUPICT,z,,,,,,0.595052083,-0.092447917,0,0,0,,0,347,347,310,1
,,,,,,,,,,,,,,,,,,5ce7f7ae2aa9590016af2ba7,2020-11-25_17h53.28.495,lexical_decision_task_MP_exp2,2020.2.5,Win32,60,,m,1,0.670785,,,,,,,,0.670785,1,,,,,,126,WORD,UN,16,castle,ENOUGH,m,,,,,,0.595052083,-0.092447917,0,0,0,,0,348,348,185,1
,,,,,,,,,,,,,,,,,,5ce7f7ae2aa9590016af2ba7,2020-11-25_17h53.28.495,lexical_decision_task_MP_exp2,2020.2.5,Win32,60,,m,1,0.726105,,,,,,,,0.726105,1,,,,,,77,WORD,UN,33,column,RACKET,m,,,,,,0.595052083,-0.092447917,0,0,0,,0,349,349,136,1
,,,,,,,,,,,,,,,,,,5ce7f7ae2aa9590016af2ba7,2020-11-25_17h53.28.495,lexical_decision_task_MP_exp2,2020.2.5,Win32,60,,m,1,0.59881,,,,,,,,0.59881,1,,,,,,202,WORD,"ID",33,factor,FACTOR,m,,,,,,0.595052083,-0.092447917,0,0,0,,0,350,350,21,1
,,,,,,,,,,,,,,,,,,5ce7f7ae2aa9590016af2ba7,2020-11-25_17h53.28.495,lexical_decision_task_MP_exp2,2020.2.5,Win32,60,,z,1,0.54691,,,,,,,,0.54691,1,,,,,,478,NW,"ID",33,acrise,ACRISE,z,,,,,,0.595052083,-0.092447917,0,0,0,,0,351,351,297,1
,,,,,,,,,,,,,,,,,,5ce7f7ae2aa9590016af2ba7,2020-11-25_17h53.28.495,lexical_decision_task_MP_exp2,2020.2.5,Win32,60,,z,1,0.65072,,,,,,,,0.65072,1,,,,,,458,NW,"ID",33,barcet,BARCET,z,,,,,,0.595052083,-0.092447917,0,0,0,,0,352,352,277,1
,,,,,,,,,,,,,,,,,,5ce7f7ae2aa9590016af2ba7,2020-11-25_17h53.28.495,lexical_decision_task_MP_exp2,2020.2.5,Win32,60,,z,1,0.515635,,,,,,,,0.515635,1,,,,,,392,NW,UN,16,ganous,ROUNCY,z,,,,,,0.595052083,-0.092447917,0,0,0,,0,353,353,451,1
,,,,,,,,,,,,,,,,,,5ce7f7ae2aa9590016af2ba7,2020-11-25_17h53.28.495,lexical_decision_task_MP_exp2,2020.2.5,Win32,60,,z,1,0.534295,,,,,,,,0.534295,1,,,,,,361,NW,UN,16,tireau,PAUCHE,z,,,,,,0.595052083,-0.092447917,0,0,0,,0,354,354,420,1
,,,,,,,,,,,,,,,,,,5ce7f7ae2aa9590016af2ba7,2020-11-25_17h53.28.495,lexical_decision_task_MP_exp2,2020.2.5,Win32,60,,z,1,0.809015,,,,,,,,0.809015,1,,,,,,450,NW,"ID",33,phrect,PHRECT,z,,,,,,0.595052083,-0.092447917,0,0,0,,0,355,355,269,1
,,,,,,,,,,,,,,,,,,5ce7f7ae2aa9590016af2ba7,2020-11-25_17h53.28.495,lexical_decision_task_MP_exp2,2020.2.5,Win32,60,,z,1,0.56422,,,,,,,,0.56422,1,,,,,,328,NW,UN,33,yarike,BROAKE,z,,,,,,0.595052083,-0.092447917,0,0,0,,0,356,356,387,1
,,,,,,,,,,,,,,,,,,5ce7f7ae2aa9590016af2ba7,2020-11-25_17h53.28.495,lexical_decision_task_MP_exp2,2020.2.5,Win32,60,,z,1,0.565845,,,,,,,,0.565845,1,,,,,,345,NW,UN,33,saudic,ABSEND,z,,,,,,0.595052083,-0.092447917,0,0,0,,0,357,357,404,1
,,,,,,,,,,,,,,,,,,5ce7f7ae2aa9590016af2ba7,2020-11-25_17h53.28.495,lexical_decision_task_MP_exp2,2020.2.5,Win32,60,,m,1,0.71487,,,,,,,,0.71487,1,,,,,,135,WORD,UN,16,bleach,IMPORT,m,,,,,,0.595052083,-0.092447917,0,0,0,,0,358,358,194,1
,,,,,,,,,,,,,,,,,,5ce7f7ae2aa9590016af2ba7,2020-11-25_17h53.28.495,lexical_decision_task_MP_exp2,2020.2.5,Win32,60,,z,0,0.66383,,,,,,,,0.66383,0,,,,,,142,WORD,UN,16,reason,SPRUCE,m,,,,,,0.595052083,-0.092447917,0,0,0,,0,359,359,201,1
,,,,,,,,,,,,,,,,,,5ce7f7ae2aa9590016af2ba7,2020-11-25_17h53.28.495,lexical_decision_task_MP_exp2,2020.2.5,Win32,60,,m,1,0.66517,,,,,,,,0.66517,1,,,,,,203,WORD,"ID",33,phrase,PHRASE,m,,,,,,0.595052083,-0.092447917,0,0,0,,0,360,360,22,1
,,,,,,,,,,,,,,,,,,5ce7f7ae2aa9590016af2ba7,2020-11-25_17h53.28.495,lexical_decision_task_MP_exp2,2020.2.5,Win32,60,,z,1,1.04244,,,,,,,,1.04244,1,,,,,,452,NW,"ID",33,surden,SURDEN,z,,,,,,0.595052083,-0.092447917,0,0,0,,0,361,361,271,1
,,,,,,,,,,,,,,,,,,5ce7f7ae2aa9590016af2ba7,2020-11-25_17h53.28.495,lexical_decision_task_MP_exp2,2020.2.5,Win32,60,,z,1,1.44973,,,,,,,,1.44973,1,,,,,,434,NW,"ID",33,pitrom,PITROM,z,,,,,,0.595052083,-0.092447917,0,0,0,,0,362,362,253,1
,,,,,,,,,,,,,,,,,,5ce7f7ae2aa9590016af2ba7,2020-11-25_17h53.28.495,lexical_decision_task_MP_exp2,2020.2.5,Win32,60,,m,1,0.670785,,,,,,,,0.670785,1,,,,,,7,WORD,"ID",16,anchor,ANCHOR,m,,,,,,0.595052083,-0.092447917,0,0,0,,0,363,363,66,1
,,,,,,,,,,,,,,,,,,5ce7f7ae2aa9590016af2ba7,2020-11-25_17h53.28.495,lexical_decision_task_MP_exp2,2020.2.5,Win32,60,,m,1,1.395795,,,,,,,,1.395795,1,,,,,,178,WORD,UN,16,basket,INFORM,m,,,,,,0.595052083,-0.092447917,0,0,0,,0,364,364,237,1
,,,,,,,,,,,,,,,,,,5ce7f7ae2aa9590016af2ba7,2020-11-25_17h53.28.495,lexical_decision_task_MP_exp2,2020.2.5,Win32,60,,m,1,0.631155,,,,,,,,0.631155,1,,,,,,69,WORD,UN,33,square,PLENTY,m,,,,,,0.595052083,-0.092447917,0,0,0,,0,365,365,128,1
,,,,,,,,,,,,,,,,,,5ce7f7ae2aa9590016af2ba7,2020-11-25_17h53.28.495,lexical_decision_task_MP_exp2,2020.2.5,Win32,60,,m,1,0.533465,,,,,,,,0.533465,1,,,,,,228,WORD,"ID",33,master,MASTER,m,,,,,,0.595052083,-0.092447917,0,0,0,,0,366,366,47,1
,,,,,,,,,,,,,,,,,,5ce7f7ae2aa9590016af2ba7,2020-11-25_17h53.28.495,lexical_decision_task_MP_exp2,2020.2.5,Win32,60,,z,1,0.769565,,,,,,,,0.769565,1,,,,,,274,NW,"ID",16,fumblo,FUMBLO,z,,,,,,0.595052083,-0.092447917,0,0,0,,0,367,367,333,1
,,,,,,,,,,,,,,,,,,5ce7f7ae2aa9590016af2ba7,2020-11-25_17h53.28.495,lexical_decision_task_MP_exp2,2020.2.5,Win32,60,,z,1,0.725235,,,,,,,,0.725235,1,,,,,,372,NW,UN,16,bigent,RAMILY,z,,,,,,0.595052083,-0.092447917,0,0,0,,0,368,368,431,1
,,,,,,,,,,,,,,,,,,5ce7f7ae2aa9590016af2ba7,2020-11-25_17h53.28.495,lexical_decision_task_MP_exp2,2020.2.5,Win32,60,,m,1,0.6223,,,,,,,,0.6223,1,,,,,,197,WORD,"ID",33,stream,STREAM,m,,,,,,0.595052083,-0.092447917,0,0,0,,0,369,369,16,1
,,,,,,,,,,,,,,,,,,5ce7f7ae2aa9590016af2ba7,2020-11-25_17h53.28.495,lexical_decision_task_MP_exp2,2020.2.5,Win32,60,,m,1,0.781525,,,,,,,,0.781525,1,,,,,,67,WORD,UN,33,fumble,POLICY,m,,,,,,0.595052083,-0.092447917,0,0,0,,0,370,370,126,1
,,,,,,,,,,,,,,,,,,5ce7f7ae2aa9590016af2ba7,2020-11-25_17h53.28.495,lexical_decision_task_MP_exp2,2020.2.5,Win32,60,,m,1,0.78685,,,,,,,,0.78685,1,,,,,,89,WORD,UN,33,relish,PERMIT,m,,,,,,0.595052083,-0.092447917,0,0,0,,0,371,371,148,1
,,,,,,,,,,,,,,,,,,5ce7f7ae2aa9590016af2ba7,2020-11-25_17h53.28.495,lexical_decision_task_MP_exp2,2020.2.5,Win32,60,,m,1,0.64888,,,,,,,,0.64888,1,,,,,,139,WORD,UN,16,prince,DEBRIS,m,,,,,,0.595052083,-0.092447917,0,0,0,,0,372,372,198,1
,,,,,,,,,,,,,,,,,,5ce7f7ae2aa9590016af2ba7,2020-11-25_17h53.28.495,lexical_decision_task_MP_exp2,2020.2.5,Win32,60,,m,1,0.732265,,,,,,,,0.732265,1,,,,,,11,WORD,"ID",16,cruise,CRUISE,m,,,,,,0.595052083,-0.092447917,0,0,0,,0,373,373,70,1
,,,,,,,,,,,,,,,,,,5ce7f7ae2aa9590016af2ba7,2020-11-25_17h53.28.495,lexical_decision_task_MP_exp2,2020.2.5,Win32,60,,z,1,0.54825,,,,,,,,0.54825,1,,,,,,286,NW,"ID",16,reldon,RELDON,z,,,,,,0.595052083,-0.092447917,0,0,0,,0,374,374,345,1
,,,,,,,,,,,,,,,,,,5ce7f7ae2aa9590016af2ba7,2020-11-25_17h53.28.495,lexical_decision_task_MP_exp2,2020.2.5,Win32,60,,z,0,0.48145,,,,,,,,0.48145,0,,,,,,40,WORD,"ID",16,convey,CONVEY,m,,,,,,0.595052083,-0.092447917,0,0,0,,0,375,375,99,1
,,,,,,,,,,,,,,,,,,5ce7f7ae2aa9590016af2ba7,2020-11-25_17h53.28.495,lexical_decision_task_MP_exp2,2020.2.5,Win32,60,,m,1,0.700485,,,,,,,,0.700485,1,,,,,,98,WORD,UN,33,fluent,BELONG,m,,,,,,0.595052083,-0.092447917,0,0,0,,0,376,376,157,1
,,,,,,,,,,,,,,,,,,5ce7f7ae2aa9590016af2ba7,2020-11-25_17h53.28.495,lexical_decision_task_MP_exp2,2020.2.5,Win32,60,,m,1,0.832745,,,,,,,,0.832745,1,,,,,,70,WORD,UN,33,garden,SQUARE,m,,,,,,0.595052083,-0.092447917,0,0,0,,0,377,377,129,1
,,,,,,,,,,,,,,,,,,5ce7f7ae2aa9590016af2ba7,2020-11-25_17h53.28.495,lexical_decision_task_MP_exp2,2020.2.5,Win32,60,,z,1,0.647085,,,,,,,,0.647085,1,,,,,,334,NW,UN,33,desion,WATMEG,z,,,,,,0.595052083,-0.092447917,0,0,0,,0,378,378,393,1
,,,,,,,,,,,,,,,,,,5ce7f7ae2aa9590016af2ba7,2020-11-25_17h53.28.495,lexical_decision_task_MP_exp2,2020.2.5,Win32,60,,z,1,0.500375,,,,,,,,0.500375,1,,,,,,271,NW,"ID",16,aubrid,AUBRID,z,,,,,,0.595052083,-0.092447917,0,0,0,,0,379,379,330,1
,,,,,,,,,,,,,,,,,,5ce7f7ae2aa9590016af2ba7,2020-11-25_17h53.28.495,lexical_decision_task_MP_exp2,2020.2.5,Win32,60,,z,1,0.61238,,,,,,,,0.61238,1,,,,,,275,NW,"ID",16,sleirt,SLEIRT,z,,,,,,0.595052083,-0.092447917,0,0,0,,0,380,380,334,1
,,,,,,,,,,,,,,,,,,5ce7f7ae2aa9590016af2ba7,2020-11-25_17h53.28.495,lexical_decision_task_MP_exp2,2020.2.5,Win32,60,,z,1,0.41489,,,,,,,,0.41489,1,,,,,,343,NW,UN,33,scrily,AIMOSY,z,,,,,,0.595052083,-0.092447917,0,0,0,,0,381,381,402,1
,,,,,,,,,,,,,,,,,,5ce7f7ae2aa9590016af2ba7,2020-11-25_17h53.28.495,lexical_decision_task_MP_exp2,2020.2.5,Win32,60,,z,1,0.433715,,,,,,,,0.433715,1,,,,,,344,NW,UN,33,absend,SCRILY,z,,,,,,0.595052083,-0.092447917,0,0,0,,0,382,382,403,1
,,,,,,,,,,,,,,,,,,5ce7f7ae2aa9590016af2ba7,2020-11-25_17h53.28.495,lexical_decision_task_MP_exp2,2020.2.5,Win32,60,,m,1,0.66511,,,,,,,,0.66511,1,,,,,,105,WORD,UN,33,ransom,NUMBER,m,,,,,,0.595052083,-0.092447917,0,0,0,,0,383,383,164,1
,,,,,,,,,,,,,,,,,,5ce7f7ae2aa9590016af2ba7,2020-11-25_17h53.28.495,lexical_decision_task_MP_exp2,2020.2.5,Win32,60,,m,1,0.499975,,,,,,,,0.499975,1,,,,,,237,WORD,"ID",33,poster,POSTER,m,,,,,,0.595052083,-0.092447917,0,0,0,,0,384,384,56,1
,,,,,,,,,,,,,,,,,,5ce7f7ae2aa9590016af2ba7,2020-11-25_17h53.28.495,lexical_decision_task_MP_exp2,2020.2.5,Win32,60,,z,1,0.867885,,,,,,,,0.867885,1,,,,,,424,NW,"ID",33,praile,PRAILE,z,,,,,,0.595052083,-0.092447917,0,0,0,,0,385,385,243,1
,,,,,,,,,,,,,,,,,,5ce7f7ae2aa9590016af2ba7,2020-11-25_17h53.28.495,lexical_decision_task_MP_exp2,2020.2.5,Win32,60,,m,1,0.565745,,,,,,,,0.565745,1,,,,,,182,WORD,"ID",33,winter,WINTER,m,,,,,,0.595052083,-0.092447917,0,0,0,,0,386,386,1,1
,,,,,,,,,,,,,,,,,,5ce7f7ae2aa9590016af2ba7,2020-11-25_17h53.28.495,lexical_decision_task_MP_exp2,2020.2.5,Win32,60,,m,1,0.665095,,,,,,,,0.665095,1,,,,,,56,WORD,"ID",16,ambush,AMBUSH,m,,,,,,0.595052083,-0.092447917,0,0,0,,0,387,387,115,1
,,,,,,,,,,,,,,,,,,5ce7f7ae2aa9590016af2ba7,2020-11-25_17h53.28.495,lexical_decision_task_MP_exp2,2020.2.5,Win32,60,,m,1,0.51995,,,,,,,,0.51995,1,,,,,,130,WORD,UN,16,quench,STUPID,m,,,,,,0.595052083,-0.092447917,0,0,0,,0,388,388,189,1
,,,,,,,,,,,,,,,,,,5ce7f7ae2aa9590016af2ba7,2020-11-25_17h53.28.495,lexical_decision_task_MP_exp2,2020.2.5,Win32,60,,m,1,0.582945,,,,,,,,0.582945,1,,,,,,47,WORD,"ID",16,income,INCOME,m,,,,,,0.595052083,-0.092447917,0,0,0,,0,389,389,106,1
,,,,,,,,,,,,,,,,,,5ce7f7ae2aa9590016af2ba7,2020-11-25_17h53.28.495,lexical_decision_task_MP_exp2,2020.2.5,Win32,60,,m,1,0.77037,,,,,,,,0.77037,1,,,,,,163,WORD,UN,16,market,STRING,m,,,,,,0.595052083,-0.092447917,0,0,0,,0,390,390,222,1
,,,,,,,,,,,,,,,,,,5ce7f7ae2aa9590016af2ba7,2020-11-25_17h53.28.495,lexical_decision_task_MP_exp2,2020.2.5,Win32,60,,z,1,0.566965,,,,,,,,0.566965,1,,,,,,321,NW,UN,33,slanch,MIATOR,z,,,,,,0.595052083,-0.092447917,0,0,0,,0,391,391,380,1
,,,,,,,,,,,,,,,,,,5ce7f7ae2aa9590016af2ba7,2020-11-25_17h53.28.495,lexical_decision_task_MP_exp2,2020.2.5,Win32,60,,z,1,0.56507,,,,,,,,0.56507,1,,,,,,280,NW,"ID",16,curbol,CURBOL,z,,,,,,0.595052083,-0.092447917,0,0,0,,0,392,392,339,1
,,,,,,,,,,,,,,,,,,5ce7f7ae2aa9590016af2ba7,2020-11-25_17h53.28.495,lexical_decision_task_MP_exp2,2020.2.5,Win32,60,,z,1,0.61779,,,,,,,,0.61779,1,,,,,,393,NW,UN,16,spaqux,GANOUS,z,,,,,,0.595052083,-0.092447917,0,0,0,,0,393,393,452,1
,,,,,,,,,,,,,,,,,,5ce7f7ae2aa9590016af2ba7,2020-11-25_17h53.28.495,lexical_decision_task_MP_exp2,2020.2.5,Win32,60,,m,1,0.71354,,,,,,,,0.71354,1,,,,,,57,WORD,"ID",16,change,CHANGE,m,,,,,,0.595052083,-0.092447917,0,0,0,,0,394,394,116,1
,,,,,,,,,,,,,,,,,,5ce7f7ae2aa9590016af2ba7,2020-11-25_17h53.28.495,lexical_decision_task_MP_exp2,2020.2.5,Win32,60,,z,1,0.667265,,,,,,,,0.667265,1,,,,,,404,NW,UN,16,flumni,CLUIRM,z,,,,,,0.595052083,-0.092447917,0,0,0,,0,395,395,463,1
