counterbalancing_condition,instr_done_keyboard.keys,instr_done_keyboard.rt,instr_done_touch.x,instr_done_touch.y,instr_done_touch.leftButton,instr_done_touch.midButton,instr_done_touch.rightButton,instruction_pages.thisRepN,instruction_pages.thisTrialN,instruction_pages.thisN,instruction_pages.thisIndex,instruction_pages.ran,pageN,phase,instruct_text,has_image,instruct_image,participant,date,expName,psychopyVersion,OS,frameRate,response.keys,response.corr,response.rt,touch_resp.x,touch_resp.y,touch_resp.leftButton,touch_resp.midButton,touch_resp.rightButton,touch_resp.time,touch_resp.clicked_name,rt,corr,practice_trials.thisRepN,practice_trials.thisTrialN,practice_trials.thisN,practice_trials.thisIndex,practice_trials.ran,TrialID,StimulusType,Condition,PrimeDuration,Prime,Target,corrAns,end_of_practice_trials_pages.thisRepN,end_of_practice_trials_pages.thisTrialN,end_of_practice_trials_pages.thisN,end_of_practice_trials_pages.thisIndex,end_of_practice_trials_pages.ran,break_done_touch.x,break_done_touch.y,break_done_touch.leftButton,break_done_touch.midButton,break_done_touch.rightButton,break_done_keyboard.keys,experiment_trials.thisRepN,experiment_trials.thisTrialN,experiment_trials.thisN,experiment_trials.thisIndex,experiment_trials.ran,break_done_keyboard.rt
2,space,8.734635,0.039407776,-0.396117017,0,0,0,0,0,0,0,1,1,instructions,"INSTRUCTIONS
At the start of each trial, look at the hash marks (######) in the center of the screen. After a moment, a string of letters will appear. Your task is to indicate if the letter string forms a word or not (i.e., if it is a nonword). For example, AUTHOR is a word while AUTHON is a nonword.

Press the space bar or touch the button below to continue.",0,,5cf272137e2e1400157f2b3b,2020-11-26_11h00.22.783,lexical_decision_task_MP_exp2,2020.2.5,Win32,60,,,,,,,,,,,,,,,,,,,,,,,,,,,,,,,,,,,,,,,,,
,space,9.701545,0.039407776,-0.396117017,0,0,0,0,1,1,1,1,2,instructions,"If your device has a keyboard, press the 'Z' key for nonwords and the 'M' key for words.





Press the space bar or touch the button below to continue.",1,keyboard-example.gif,5cf272137e2e1400157f2b3b,2020-11-26_11h00.22.783,lexical_decision_task_MP_exp2,2020.2.5,Win32,60,,,,,,,,,,,,,,,,,,,,,,,,,,,,,,,,,,,,,,,,,
,space,5.144215,0.039407776,-0.396117017,0,0,0,0,2,2,2,1,3,instructions,"If you are using a touchscreen only device, use the buttons on the screen. Do not use the mouse.





Press the space bar or touch the button below to continue.",1,touchscreen-example.gif,5cf272137e2e1400157f2b3b,2020-11-26_11h00.22.783,lexical_decision_task_MP_exp2,2020.2.5,Win32,60,,,,,,,,,,,,,,,,,,,,,,,,,,,,,,,,,,,,,,,,,
,space,6.78645,0.039407776,-0.396117017,0,0,0,0,3,3,3,1,4,instructions,"It is very important that you respond as quickly and accurately as possible, as each letter string will only be on the screen for two seconds. If you do not respond within this time, the message 'Too slow!' will be displayed and the experiment will progress to the next letter string. The first 20 trials will be practice trials and you will receive feedback on your answers. 

Press the space bar or touch the button below to start the practice trials.",0,,5cf272137e2e1400157f2b3b,2020-11-26_11h00.22.783,lexical_decision_task_MP_exp2,2020.2.5,Win32,60,,,,,,,,,,,,,,,,,,,,,,,,,,,,,,,,,,,,,,,,,
,,,,,,,,,,,,,,,,,,5cf272137e2e1400157f2b3b,2020-11-26_11h00.22.783,lexical_decision_task_MP_exp2,2020.2.5,Win32,60,m,1,1.12628,,,,,,,,1.12628,1,0,0,0,0,1,1001,WORD,"ID",33,utopia,UTOPIA,m,,,,,,,,,,,,,,,,,
,,,,,,,,,,,,,,,,,,5cf272137e2e1400157f2b3b,2020-11-26_11h00.22.783,lexical_decision_task_MP_exp2,2020.2.5,Win32,60,m,1,0.566575,,,,,,,,0.566575,1,0,1,1,5,1,1006,WORD,UN,33,frenzy,OBTAIN,m,,,,,,,,,,,,,,,,,
,,,,,,,,,,,,,,,,,,5cf272137e2e1400157f2b3b,2020-11-26_11h00.22.783,lexical_decision_task_MP_exp2,2020.2.5,Win32,60,m,1,0.49641,,,,,,,,0.49641,1,0,2,2,6,1,1007,WORD,UN,16,tropic,ZOMBIE,m,,,,,,,,,,,,,,,,,
,,,,,,,,,,,,,,,,,,5cf272137e2e1400157f2b3b,2020-11-26_11h00.22.783,lexical_decision_task_MP_exp2,2020.2.5,Win32,60,z,1,0.788975,,,,,,,,0.788975,1,0,3,3,10,1,1011,NW,"ID",16,inlade,INLADE,z,,,,,,,,,,,,,,,,,
,,,,,,,,,,,,,,,,,,5cf272137e2e1400157f2b3b,2020-11-26_11h00.22.783,lexical_decision_task_MP_exp2,2020.2.5,Win32,60,m,1,0.666,,,,,,,,0.666,1,0,4,4,3,1,1004,WORD,"ID",16,matrix,MATRIX,m,,,,,,,,,,,,,,,,,
,,,,,,,,,,,,,,,,,,5cf272137e2e1400157f2b3b,2020-11-26_11h00.22.783,lexical_decision_task_MP_exp2,2020.2.5,Win32,60,z,1,0.7009,,,,,,,,0.7009,1,0,5,5,8,1,1009,NW,"ID",33,aslert,ASLERT,z,,,,,,,,,,,,,,,,,
,,,,,,,,,,,,,,,,,,5cf272137e2e1400157f2b3b,2020-11-26_11h00.22.783,lexical_decision_task_MP_exp2,2020.2.5,Win32,60,z,1,0.73215,,,,,,,,0.73215,1,0,6,6,14,1,1015,NW,UN,16,miaber,THRALE,z,,,,,,,,,,,,,,,,,
,,,,,,,,,,,,,,,,,,5cf272137e2e1400157f2b3b,2020-11-26_11h00.22.783,lexical_decision_task_MP_exp2,2020.2.5,Win32,60,m,1,0.533165,,,,,,,,0.533165,1,0,7,7,4,1,1005,WORD,UN,33,abound,SQUEAK,m,,,,,,,,,,,,,,,,,
,,,,,,,,,,,,,,,,,,5cf272137e2e1400157f2b3b,2020-11-26_11h00.22.783,lexical_decision_task_MP_exp2,2020.2.5,Win32,60,z,1,0.60152,,,,,,,,0.60152,1,0,8,8,13,1,1014,NW,UN,33,winfer,ROUPET,z,,,,,,,,,,,,,,,,,
,,,,,,,,,,,,,,,,,,5cf272137e2e1400157f2b3b,2020-11-26_11h00.22.783,lexical_decision_task_MP_exp2,2020.2.5,Win32,60,m,1,0.53074,,,,,,,,0.53074,1,0,9,9,1,1,1002,WORD,"ID",33,adjust,ADJUST,m,,,,,,,,,,,,,,,,,
,,,,,,,,,,,,,,,,,,5cf272137e2e1400157f2b3b,2020-11-26_11h00.22.783,lexical_decision_task_MP_exp2,2020.2.5,Win32,60,m,1,0.464035,,,,,,,,0.464035,1,0,10,10,2,1,1003,WORD,"ID",16,almond,ALMOND,m,,,,,,,,,,,,,,,,,
,,,,,,,,,,,,,,,,,,5cf272137e2e1400157f2b3b,2020-11-26_11h00.22.783,lexical_decision_task_MP_exp2,2020.2.5,Win32,60,z,1,0.662685,,,,,,,,0.662685,1,0,11,11,9,1,1010,NW,"ID",33,fariny,FARINY,z,,,,,,,,,,,,,,,,,
,,,,,,,,,,,,,,,,,,5cf272137e2e1400157f2b3b,2020-11-26_11h00.22.783,lexical_decision_task_MP_exp2,2020.2.5,Win32,60,m,1,0.510285,,,,,,,,0.510285,1,0,12,12,7,1,1008,WORD,UN,16,hurdle,VOLUME,m,,,,,,,,,,,,,,,,,
,,,,,,,,,,,,,,,,,,5cf272137e2e1400157f2b3b,2020-11-26_11h00.22.783,lexical_decision_task_MP_exp2,2020.2.5,Win32,60,z,1,0.63593,,,,,,,,0.63593,1,0,13,13,12,1,1013,NW,UN,33,adveil,SPRINY,z,,,,,,,,,,,,,,,,,
,,,,,,,,,,,,,,,,,,5cf272137e2e1400157f2b3b,2020-11-26_11h00.22.783,lexical_decision_task_MP_exp2,2020.2.5,Win32,60,z,1,0.6987,,,,,,,,0.6987,1,0,14,14,11,1,1012,NW,"ID",16,rashet,RASHET,z,,,,,,,,,,,,,,,,,
,,,,,,,,,,,,,,,,,,5cf272137e2e1400157f2b3b,2020-11-26_11h00.22.783,lexical_decision_task_MP_exp2,2020.2.5,Win32,60,z,1,0.61576,,,,,,,,0.61576,1,0,15,15,15,1,1016,NW,UN,16,mushed,WHAISE,z,,,,,,,,,,,,,,,,,
,space,47.937375,0.039407776,-0.396117017,0,0,0,,,,,,1,end_of_practice,"You have completed the practice trials. During the experimental trials, you will not receive feedback, but it is very important that you respond as quickly and accurately as possible. 
Before you begin, please ensure that you are in a comfortable and quiet location and will not be disturbed for about 15 minutes, as we cannot use your data if you do not complete all the trials. 
There will be opportunities to take breaks at regular intervals during the experiment. When you are ready to start the experimental trials, please press space or touch the button below.",,,5cf272137e2e1400157f2b3b,2020-11-26_11h00.22.783,lexical_decision_task_MP_exp2,2020.2.5,Win32,60,,,,,,,,,,,,,,,,,,,,,,,,,0,0,0,0,1,,,,,,,,,,,,
,,,,,,,,,,,,,,,,,,5cf272137e2e1400157f2b3b,2020-11-26_11h00.22.783,lexical_decision_task_MP_exp2,2020.2.5,Win32,60,m,1,0.80209,,,,,,,,0.80209,1,,,,,,35,WORD,UN,16,vanish,SOCKET,m,,,,,,0.039407776,-0.396117017,0,0,0,,0,0,0,214,1,
,,,,,,,,,,,,,,,,,,5cf272137e2e1400157f2b3b,2020-11-26_11h00.22.783,lexical_decision_task_MP_exp2,2020.2.5,Win32,60,z,1,0.737325,,,,,,,,0.737325,1,,,,,,325,NW,"ID",33,thruse,THRUSE,z,,,,,,0.039407776,-0.396117017,0,0,0,,0,1,1,264,1,
,,,,,,,,,,,,,,,,,,5cf272137e2e1400157f2b3b,2020-11-26_11h00.22.783,lexical_decision_task_MP_exp2,2020.2.5,Win32,60,z,1,0.680205,,,,,,,,0.680205,1,,,,,,479,NW,UN,33,crible,LOBUSH,z,,,,,,0.039407776,-0.396117017,0,0,0,,0,2,2,418,1,
,,,,,,,,,,,,,,,,,,5cf272137e2e1400157f2b3b,2020-11-26_11h00.22.783,lexical_decision_task_MP_exp2,2020.2.5,Win32,60,z,1,0.565135,,,,,,,,0.565135,1,,,,,,279,NW,UN,16,curbol,CELOND,z,,,,,,0.039407776,-0.396117017,0,0,0,,0,3,3,458,1,
,,,,,,,,,,,,,,,,,,5cf272137e2e1400157f2b3b,2020-11-26_11h00.22.783,lexical_decision_task_MP_exp2,2020.2.5,Win32,60,z,1,0.5443,,,,,,,,0.5443,1,,,,,,374,NW,"ID",16,sliant,SLIANT,z,,,,,,0.039407776,-0.396117017,0,0,0,,0,4,4,313,1,
,,,,,,,,,,,,,,,,,,5cf272137e2e1400157f2b3b,2020-11-26_11h00.22.783,lexical_decision_task_MP_exp2,2020.2.5,Win32,60,m,1,0.517835,,,,,,,,0.517835,1,,,,,,128,WORD,"ID",16,senior,SENIOR,m,,,,,,0.039407776,-0.396117017,0,0,0,,0,5,5,67,1,
,,,,,,,,,,,,,,,,,,5cf272137e2e1400157f2b3b,2020-11-26_11h00.22.783,lexical_decision_task_MP_exp2,2020.2.5,Win32,60,z,1,0.53226,,,,,,,,0.53226,1,,,,,,343,NW,"ID",33,aimosy,AIMOSY,z,,,,,,0.039407776,-0.396117017,0,0,0,,0,6,6,282,1,
,,,,,,,,,,,,,,,,,,5cf272137e2e1400157f2b3b,2020-11-26_11h00.22.783,lexical_decision_task_MP_exp2,2020.2.5,Win32,60,m,1,0.53814,,,,,,,,0.53814,1,,,,,,137,WORD,"ID",16,finger,FINGER,m,,,,,,0.039407776,-0.396117017,0,0,0,,0,7,7,76,1,
,,,,,,,,,,,,,,,,,,5cf272137e2e1400157f2b3b,2020-11-26_11h00.22.783,lexical_decision_task_MP_exp2,2020.2.5,Win32,60,z,1,1.13244,,,,,,,,1.13244,1,,,,,,335,NW,"ID",33,desion,DESION,z,,,,,,0.039407776,-0.396117017,0,0,0,,0,8,8,274,1,
,,,,,,,,,,,,,,,,,,5cf272137e2e1400157f2b3b,2020-11-26_11h00.22.783,lexical_decision_task_MP_exp2,2020.2.5,Win32,60,z,1,0.59629,,,,,,,,0.59629,1,,,,,,394,NW,"ID",16,spaqux,SPAQUX,z,,,,,,0.039407776,-0.396117017,0,0,0,,0,9,9,333,1,
,,,,,,,,,,,,,,,,,,5cf272137e2e1400157f2b3b,2020-11-26_11h00.22.783,lexical_decision_task_MP_exp2,2020.2.5,Win32,60,z,1,0.516785,,,,,,,,0.516785,1,,,,,,241,NW,UN,16,unwert,SMENCO,z,,,,,,0.039407776,-0.396117017,0,0,0,,0,10,10,420,1,
,,,,,,,,,,,,,,,,,,5cf272137e2e1400157f2b3b,2020-11-26_11h00.22.783,lexical_decision_task_MP_exp2,2020.2.5,Win32,60,z,1,0.533145,,,,,,,,0.533145,1,,,,,,401,NW,"ID",16,mustil,MUSTIL,z,,,,,,0.039407776,-0.396117017,0,0,0,,0,11,11,340,1,
,,,,,,,,,,,,,,,,,,5cf272137e2e1400157f2b3b,2020-11-26_11h00.22.783,lexical_decision_task_MP_exp2,2020.2.5,Win32,60,m,1,0.652305,,,,,,,,0.652305,1,,,,,,214,WORD,UN,33,phobia,INTAKE,m,,,,,,0.039407776,-0.396117017,0,0,0,,0,12,12,153,1,
,,,,,,,,,,,,,,,,,,5cf272137e2e1400157f2b3b,2020-11-26_11h00.22.783,lexical_decision_task_MP_exp2,2020.2.5,Win32,60,z,1,0.69789,,,,,,,,0.69789,1,,,,,,313,NW,"ID",33,paurse,PAURSE,z,,,,,,0.039407776,-0.396117017,0,0,0,,0,13,13,252,1,
,,,,,,,,,,,,,,,,,,5cf272137e2e1400157f2b3b,2020-11-26_11h00.22.783,lexical_decision_task_MP_exp2,2020.2.5,Win32,60,z,1,0.54532,,,,,,,,0.54532,1,,,,,,458,NW,UN,33,hocite,BARCET,z,,,,,,0.039407776,-0.396117017,0,0,0,,0,14,14,397,1,
,,,,,,,,,,,,,,,,,,5cf272137e2e1400157f2b3b,2020-11-26_11h00.22.783,lexical_decision_task_MP_exp2,2020.2.5,Win32,60,m,1,0.581225,,,,,,,,0.581225,1,,,,,,100,WORD,"ID",33,carbon,CARBON,m,,,,,,0.039407776,-0.396117017,0,0,0,,0,15,15,39,1,
,,,,,,,,,,,,,,,,,,5cf272137e2e1400157f2b3b,2020-11-26_11h00.22.783,lexical_decision_task_MP_exp2,2020.2.5,Win32,60,m,1,0.53383,,,,,,,,0.53383,1,,,,,,173,WORD,"ID",16,shower,SHOWER,m,,,,,,0.039407776,-0.396117017,0,0,0,,0,16,16,112,1,
,,,,,,,,,,,,,,,,,,5cf272137e2e1400157f2b3b,2020-11-26_11h00.22.783,lexical_decision_task_MP_exp2,2020.2.5,Win32,60,z,1,0.833375,,,,,,,,0.833375,1,,,,,,249,NW,UN,16,milted,BATROL,z,,,,,,0.039407776,-0.396117017,0,0,0,,0,17,17,428,1,
,,,,,,,,,,,,,,,,,,5cf272137e2e1400157f2b3b,2020-11-26_11h00.22.783,lexical_decision_task_MP_exp2,2020.2.5,Win32,60,m,1,0.62949,,,,,,,,0.62949,1,,,,,,179,WORD,"ID",16,basket,BASKET,m,,,,,,0.039407776,-0.396117017,0,0,0,,0,18,18,118,1,
,,,,,,,,,,,,,,,,,,5cf272137e2e1400157f2b3b,2020-11-26_11h00.22.783,lexical_decision_task_MP_exp2,2020.2.5,Win32,60,m,1,0.51943,,,,,,,,0.51943,1,,,,,,234,WORD,UN,33,poster,CLUMSY,m,,,,,,0.039407776,-0.396117017,0,0,0,,0,19,19,173,1,
,,,,,,,,,,,,,,,,,,5cf272137e2e1400157f2b3b,2020-11-26_11h00.22.783,lexical_decision_task_MP_exp2,2020.2.5,Win32,60,m,1,0.75816,,,,,,,,0.75816,1,,,,,,78,WORD,"ID",33,column,COLUMN,m,,,,,,0.039407776,-0.396117017,0,0,0,,0,20,20,17,1,
,,,,,,,,,,,,,,,,,,5cf272137e2e1400157f2b3b,2020-11-26_11h00.22.783,lexical_decision_task_MP_exp2,2020.2.5,Win32,60,m,1,0.71878,,,,,,,,0.71878,1,,,,,,106,WORD,"ID",33,ransom,RANSOM,m,,,,,,0.039407776,-0.396117017,0,0,0,,0,21,21,45,1,
,,,,,,,,,,,,,,,,,,5cf272137e2e1400157f2b3b,2020-11-26_11h00.22.783,lexical_decision_task_MP_exp2,2020.2.5,Win32,60,m,1,0.51166,,,,,,,,0.51166,1,,,,,,228,WORD,UN,33,kidney,MASTER,m,,,,,,0.039407776,-0.396117017,0,0,0,,0,22,22,167,1,
,,,,,,,,,,,,,,,,,,5cf272137e2e1400157f2b3b,2020-11-26_11h00.22.783,lexical_decision_task_MP_exp2,2020.2.5,Win32,60,m,1,0.48668,,,,,,,,0.48668,1,,,,,,71,WORD,"ID",33,garden,GARDEN,m,,,,,,0.039407776,-0.396117017,0,0,0,,0,23,23,10,1,
,,,,,,,,,,,,,,,,,,5cf272137e2e1400157f2b3b,2020-11-26_11h00.22.783,lexical_decision_task_MP_exp2,2020.2.5,Win32,60,m,1,0.443315,,,,,,,,0.443315,1,,,,,,77,WORD,"ID",33,racket,RACKET,m,,,,,,0.039407776,-0.396117017,0,0,0,,0,24,24,16,1,
,,,,,,,,,,,,,,,,,,5cf272137e2e1400157f2b3b,2020-11-26_11h00.22.783,lexical_decision_task_MP_exp2,2020.2.5,Win32,60,m,1,0.454505,,,,,,,,0.454505,1,,,,,,213,WORD,UN,33,intake,SQUEAL,m,,,,,,0.039407776,-0.396117017,0,0,0,,0,25,25,152,1,
,,,,,,,,,,,,,,,,,,5cf272137e2e1400157f2b3b,2020-11-26_11h00.22.783,lexical_decision_task_MP_exp2,2020.2.5,Win32,60,m,0,0.64081,,,,,,,,0.64081,0,,,,,,260,NW,UN,16,stunch,UNJECT,z,,,,,,0.039407776,-0.396117017,0,0,0,,0,26,26,439,1,
,,,,,,,,,,,,,,,,,,5cf272137e2e1400157f2b3b,2020-11-26_11h00.22.783,lexical_decision_task_MP_exp2,2020.2.5,Win32,60,m,1,0.56935,,,,,,,,0.56935,1,,,,,,198,WORD,UN,33,invoke,WICKED,m,,,,,,0.039407776,-0.396117017,0,0,0,,0,27,27,137,1,
,,,,,,,,,,,,,,,,,,5cf272137e2e1400157f2b3b,2020-11-26_11h00.22.783,lexical_decision_task_MP_exp2,2020.2.5,Win32,60,m,1,0.7267,,,,,,,,0.7267,1,,,,,,156,WORD,"ID",16,cradle,CRADLE,m,,,,,,0.039407776,-0.396117017,0,0,0,,0,28,28,95,1,
,,,,,,,,,,,,,,,,,,5cf272137e2e1400157f2b3b,2020-11-26_11h00.22.783,lexical_decision_task_MP_exp2,2020.2.5,Win32,60,z,1,0.641905,,,,,,,,0.641905,1,,,,,,344,NW,"ID",33,scrily,SCRILY,z,,,,,,0.039407776,-0.396117017,0,0,0,,0,29,29,283,1,
,,,,,,,,,,,,,,,,,,5cf272137e2e1400157f2b3b,2020-11-26_11h00.22.783,lexical_decision_task_MP_exp2,2020.2.5,Win32,60,m,1,0.569645,,,,,,,,0.569645,1,,,,,,160,WORD,"ID",16,violet,VIOLET,m,,,,,,0.039407776,-0.396117017,0,0,0,,0,30,30,99,1,
,,,,,,,,,,,,,,,,,,5cf272137e2e1400157f2b3b,2020-11-26_11h00.22.783,lexical_decision_task_MP_exp2,2020.2.5,Win32,60,m,1,0.555895,,,,,,,,0.555895,1,,,,,,5,WORD,UN,16,bundle,PLUNGE,m,,,,,,0.039407776,-0.396117017,0,0,0,,0,31,31,184,1,
,,,,,,,,,,,,,,,,,,5cf272137e2e1400157f2b3b,2020-11-26_11h00.22.783,lexical_decision_task_MP_exp2,2020.2.5,Win32,60,m,1,0.53869,,,,,,,,0.53869,1,,,,,,84,WORD,"ID",33,mortal,MORTAL,m,,,,,,0.039407776,-0.396117017,0,0,0,,0,32,32,23,1,
,,,,,,,,,,,,,,,,,,5cf272137e2e1400157f2b3b,2020-11-26_11h00.22.783,lexical_decision_task_MP_exp2,2020.2.5,Win32,60,z,1,0.521485,,,,,,,,0.521485,1,,,,,,278,NW,UN,16,celond,UNIGHS,z,,,,,,0.039407776,-0.396117017,0,0,0,,0,33,33,457,1,
,,,,,,,,,,,,,,,,,,5cf272137e2e1400157f2b3b,2020-11-26_11h00.22.783,lexical_decision_task_MP_exp2,2020.2.5,Win32,60,m,1,0.518635,,,,,,,,0.518635,1,,,,,,44,WORD,UN,16,clergy,DANGER,m,,,,,,0.039407776,-0.396117017,0,0,0,,0,34,34,223,1,
,,,,,,,,,,,,,,,,,,5cf272137e2e1400157f2b3b,2020-11-26_11h00.22.783,lexical_decision_task_MP_exp2,2020.2.5,Win32,60,z,1,0.587005,,,,,,,,0.587005,1,,,,,,403,NW,"ID",16,bruats,BRUATS,z,,,,,,0.039407776,-0.396117017,0,0,0,,0,35,35,342,1,
,,,,,,,,,,,,,,,,,,5cf272137e2e1400157f2b3b,2020-11-26_11h00.22.783,lexical_decision_task_MP_exp2,2020.2.5,Win32,60,m,1,0.52522,,,,,,,,0.52522,1,,,,,,146,WORD,"ID",16,couple,COUPLE,m,,,,,,0.039407776,-0.396117017,0,0,0,,0,36,36,85,1,
,,,,,,,,,,,,,,,,,,5cf272137e2e1400157f2b3b,2020-11-26_11h00.22.783,lexical_decision_task_MP_exp2,2020.2.5,Win32,60,m,1,0.514135,,,,,,,,0.514135,1,,,,,,31,WORD,UN,16,buckle,WEAPON,m,,,,,,0.039407776,-0.396117017,0,0,0,,0,37,37,210,1,
,,,,,,,,,,,,,,,,,,5cf272137e2e1400157f2b3b,2020-11-26_11h00.22.783,lexical_decision_task_MP_exp2,2020.2.5,Win32,60,z,1,0.67466,,,,,,,,0.67466,1,,,,,,376,NW,"ID",16,iguare,IGUARE,z,,,,,,0.039407776,-0.396117017,0,0,0,,0,38,38,315,1,
,,,,,,,,,,,,,,,,,,5cf272137e2e1400157f2b3b,2020-11-26_11h00.22.783,lexical_decision_task_MP_exp2,2020.2.5,Win32,60,z,1,0.669395,,,,,,,,0.669395,1,,,,,,361,NW,"ID",16,pauche,PAUCHE,z,,,,,,0.039407776,-0.396117017,0,0,0,,0,39,39,300,1,
,,,,,,,,,,,,,,,,,,5cf272137e2e1400157f2b3b,2020-11-26_11h00.22.783,lexical_decision_task_MP_exp2,2020.2.5,Win32,60,m,1,0.641915,,,,,,,,0.641915,1,,,,,,3,WORD,UN,16,trench,KNIGHT,m,,,,,,0.039407776,-0.396117017,0,0,0,,0,40,40,182,1,
,,,,,,,,,,,,,,,,,,5cf272137e2e1400157f2b3b,2020-11-26_11h00.22.783,lexical_decision_task_MP_exp2,2020.2.5,Win32,60,z,1,0.522325,,,,,,,,0.522325,1,,,,,,267,NW,UN,16,packes,PASINK,z,,,,,,0.039407776,-0.396117017,0,0,0,,0,41,41,446,1,
,,,,,,,,,,,,,,,,,,5cf272137e2e1400157f2b3b,2020-11-26_11h00.22.783,lexical_decision_task_MP_exp2,2020.2.5,Win32,60,m,1,0.551605,,,,,,,,0.551605,1,,,,,,141,WORD,"ID",16,orphan,ORPHAN,m,,,,,,0.039407776,-0.396117017,0,0,0,,0,42,42,80,1,
,,,,,,,,,,,,,,,,,,5cf272137e2e1400157f2b3b,2020-11-26_11h00.22.783,lexical_decision_task_MP_exp2,2020.2.5,Win32,60,z,1,0.523905,,,,,,,,0.523905,1,,,,,,434,NW,UN,33,impurb,PITROM,z,,,,,,0.039407776,-0.396117017,0,0,0,,0,43,43,373,1,
,,,,,,,,,,,,,,,,,,5cf272137e2e1400157f2b3b,2020-11-26_11h00.22.783,lexical_decision_task_MP_exp2,2020.2.5,Win32,60,m,1,0.52874,,,,,,,,0.52874,1,,,,,,171,WORD,"ID",16,depart,DEPART,m,,,,,,0.039407776,-0.396117017,0,0,0,,0,44,44,110,1,
,,,,,,,,,,,,,,,,,,5cf272137e2e1400157f2b3b,2020-11-26_11h00.22.783,lexical_decision_task_MP_exp2,2020.2.5,Win32,60,z,0,0.49072,,,,,,,,0.49072,0,,,,,,139,WORD,"ID",16,debris,DEBRIS,m,,,,,,0.039407776,-0.396117017,0,0,0,,0,45,45,78,1,
,,,,,,,,,,,,,,,,,,5cf272137e2e1400157f2b3b,2020-11-26_11h00.22.783,lexical_decision_task_MP_exp2,2020.2.5,Win32,60,m,1,0.58166,,,,,,,,0.58166,1,,,,,,28,WORD,UN,16,sketch,COMEDY,m,,,,,,0.039407776,-0.396117017,0,0,0,,0,46,46,207,1,
,,,,,,,,,,,,,,,,,,5cf272137e2e1400157f2b3b,2020-11-26_11h00.22.783,lexical_decision_task_MP_exp2,2020.2.5,Win32,60,m,1,0.49483,,,,,,,,0.49483,1,,,,,,12,WORD,UN,16,strive,ORANGE,m,,,,,,0.039407776,-0.396117017,0,0,0,,0,47,47,191,1,
,,,,,,,,,,,,,,,,,,5cf272137e2e1400157f2b3b,2020-11-26_11h00.22.783,lexical_decision_task_MP_exp2,2020.2.5,Win32,60,z,1,0.518065,,,,,,,,0.518065,1,,,,,,290,NW,UN,16,pretch,SPLINO,z,,,,,,0.039407776,-0.396117017,0,0,0,,0,48,48,469,1,
,,,,,,,,,,,,,,,,,,5cf272137e2e1400157f2b3b,2020-11-26_11h00.22.783,lexical_decision_task_MP_exp2,2020.2.5,Win32,60,z,1,0.527315,,,,,,,,0.527315,1,,,,,,295,NW,UN,16,beinch,GLEATH,z,,,,,,0.039407776,-0.396117017,0,0,0,,0,49,49,474,1,
,,,,,,,,,,,,,,,,,,5cf272137e2e1400157f2b3b,2020-11-26_11h00.22.783,lexical_decision_task_MP_exp2,2020.2.5,Win32,60,m,1,0.56046,,,,,,,,0.56046,1,,,,,,55,WORD,UN,16,ambush,STROKE,m,,,,,,0.039407776,-0.396117017,0,0,0,,0,50,50,234,1,
,,,,,,,,,,,,,,,,,,5cf272137e2e1400157f2b3b,2020-11-26_11h00.22.783,lexical_decision_task_MP_exp2,2020.2.5,Win32,60,z,1,0.56228,,,,,,,,0.56228,1,,,,,,333,NW,"ID",33,catrie,CATRIE,z,,,,,,0.039407776,-0.396117017,0,0,0,,0,51,51,272,1,
,,,,,,,,,,,,,,,,,,5cf272137e2e1400157f2b3b,2020-11-26_11h00.22.783,lexical_decision_task_MP_exp2,2020.2.5,Win32,60,z,1,0.55105,,,,,,,,0.55105,1,,,,,,286,NW,UN,16,nymbel,RELDON,z,,,,,,0.039407776,-0.396117017,0,0,0,,0,52,52,465,1,
,,,,,,,,,,,,,,,,,,5cf272137e2e1400157f2b3b,2020-11-26_11h00.22.783,lexical_decision_task_MP_exp2,2020.2.5,Win32,60,z,1,0.58762,,,,,,,,0.58762,1,,,,,,243,NW,UN,16,eatric,MUSIED,z,,,,,,0.039407776,-0.396117017,0,0,0,,0,53,53,422,1,
,,,,,,,,,,,,,,,,,,5cf272137e2e1400157f2b3b,2020-11-26_11h00.22.783,lexical_decision_task_MP_exp2,2020.2.5,Win32,60,z,1,0.48839,,,,,,,,0.48839,1,,,,,,389,NW,"ID",16,witmer,WITMER,z,,,,,,0.039407776,-0.396117017,0,0,0,,0,54,54,328,1,
,,,,,,,,,,,,,,,,,,5cf272137e2e1400157f2b3b,2020-11-26_11h00.22.783,lexical_decision_task_MP_exp2,2020.2.5,Win32,60,z,0,0.421065,,,,,,,,0.421065,0,,,,,,118,WORD,"ID",33,flight,FLIGHT,m,,,,,,0.039407776,-0.396117017,0,0,0,,0,55,55,57,1,
,,,,,,,,,,,,,,,,,,5cf272137e2e1400157f2b3b,2020-11-26_11h00.22.783,lexical_decision_task_MP_exp2,2020.2.5,Win32,60,m,1,0.57512,,,,,,,,0.57512,1,,,,,,211,WORD,UN,33,verify,INFECT,m,,,,,,0.039407776,-0.396117017,0,0,0,,0,56,56,150,1,
,,,,,,,,,,,,,,,,,,5cf272137e2e1400157f2b3b,2020-11-26_11h00.22.783,lexical_decision_task_MP_exp2,2020.2.5,Win32,60,z,1,0.521465,,,,,,,,0.521465,1,,,,,,263,NW,UN,16,vackel,DOLICA,z,,,,,,0.039407776,-0.396117017,0,0,0,,0,57,57,442,1,
,,,,,,,,,,,,,,,,,,5cf272137e2e1400157f2b3b,2020-11-26_11h00.22.783,lexical_decision_task_MP_exp2,2020.2.5,Win32,60,z,1,0.55641,,,,,,,,0.55641,1,,,,,,328,NW,"ID",33,broake,BROAKE,z,,,,,,0.039407776,-0.396117017,0,0,0,,0,58,58,267,1,
,,,,,,,,,,,,,,,,,,5cf272137e2e1400157f2b3b,2020-11-26_11h00.22.783,lexical_decision_task_MP_exp2,2020.2.5,Win32,60,z,1,0.527935,,,,,,,,0.527935,1,,,,,,253,NW,UN,16,varosh,RESAIT,z,,,,,,0.039407776,-0.396117017,0,0,0,,0,59,59,432,1,
,,,,,,,,,,,,,,,,,,5cf272137e2e1400157f2b3b,2020-11-26_11h00.22.783,lexical_decision_task_MP_exp2,2020.2.5,Win32,60,m,1,0.49936,,,,,,,,0.49936,1,,,,,,70,WORD,"ID",33,square,SQUARE,m,,,,,,0.039407776,-0.396117017,0,0,0,,0,60,60,9,1,
,,,,,,,,,,,,,,,,,,5cf272137e2e1400157f2b3b,2020-11-26_11h00.22.783,lexical_decision_task_MP_exp2,2020.2.5,Win32,60,z,1,0.47637,,,,,,,,0.47637,1,,,,,,320,NW,"ID",33,jockal,JOCKAL,z,,,,,,0.039407776,-0.396117017,0,0,0,,0,61,61,259,1,
,,,,,,,,,,,,,,,,,,5cf272137e2e1400157f2b3b,2020-11-26_11h00.22.783,lexical_decision_task_MP_exp2,2020.2.5,Win32,60,m,1,0.494795,,,,,,,,0.494795,1,,,,,,187,WORD,UN,33,social,COURSE,m,,,,,,0.039407776,-0.396117017,0,0,0,,0,62,62,126,1,
,,,,,,,,,,,,,,,,,,5cf272137e2e1400157f2b3b,2020-11-26_11h00.22.783,lexical_decision_task_MP_exp2,2020.2.5,Win32,60,m,1,0.540925,,,,,,,,0.540925,1,,,,,,88,WORD,"ID",33,hunger,HUNGER,m,,,,,,0.039407776,-0.396117017,0,0,0,,0,63,63,27,1,
,,,,,,,,,,,,,,,,,,5cf272137e2e1400157f2b3b,2020-11-26_11h00.22.783,lexical_decision_task_MP_exp2,2020.2.5,Win32,60,z,1,0.48861,,,,,,,,0.48861,1,,,,,,446,NW,UN,33,gircue,RUNAMO,z,,,,,,0.039407776,-0.396117017,0,0,0,,0,64,64,385,1,
,,,,,,,,,,,,,,,,,,5cf272137e2e1400157f2b3b,2020-11-26_11h00.22.783,lexical_decision_task_MP_exp2,2020.2.5,Win32,60,m,1,0.563835,,,,,,,,0.563835,1,,,,,,129,WORD,"ID",16,marvel,MARVEL,m,,,,,,0.039407776,-0.396117017,0,0,0,,0,65,65,68,1,
,,,,,,,,,,,,,,,,,,5cf272137e2e1400157f2b3b,2020-11-26_11h00.22.783,lexical_decision_task_MP_exp2,2020.2.5,Win32,60,m,1,0.57725,,,,,,,,0.57725,1,,,,,,166,WORD,"ID",16,starch,STARCH,m,,,,,,0.039407776,-0.396117017,0,0,0,,0,66,66,105,1,
,,,,,,,,,,,,,,,,,,5cf272137e2e1400157f2b3b,2020-11-26_11h00.22.783,lexical_decision_task_MP_exp2,2020.2.5,Win32,60,z,1,0.510295,,,,,,,,0.510295,1,,,,,,331,NW,"ID",33,gilfew,GILFEW,z,,,,,,0.039407776,-0.396117017,0,0,0,,0,67,67,270,1,
,,,,,,,,,,,,,,,,,,5cf272137e2e1400157f2b3b,2020-11-26_11h00.22.783,lexical_decision_task_MP_exp2,2020.2.5,Win32,60,z,1,0.65507,,,,,,,,0.65507,1,,,,,,307,NW,"ID",33,kirafe,KIRAFE,z,,,,,,0.039407776,-0.396117017,0,0,0,,0,68,68,246,1,
,,,,,,,,,,,,,,,,,,5cf272137e2e1400157f2b3b,2020-11-26_11h00.22.783,lexical_decision_task_MP_exp2,2020.2.5,Win32,60,z,1,0.53907,,,,,,,,0.53907,1,,,,,,378,NW,"ID",16,shrile,SHRILE,z,,,,,,0.039407776,-0.396117017,0,0,0,,0,69,69,317,1,
,,,,,,,,,,,,,,,,,,5cf272137e2e1400157f2b3b,2020-11-26_11h00.22.783,lexical_decision_task_MP_exp2,2020.2.5,Win32,60,z,1,0.54913,,,,,,,,0.54913,1,,,,,,301,NW,"ID",33,fainch,FAINCH,z,,,,,,0.039407776,-0.396117017,0,0,0,,0,70,70,240,1,
,,,,,,,,,,,,,,,,,,5cf272137e2e1400157f2b3b,2020-11-26_11h00.22.783,lexical_decision_task_MP_exp2,2020.2.5,Win32,60,z,1,0.536285,,,,,,,,0.536285,1,,,,,,254,NW,UN,16,apight,VAROSH,z,,,,,,0.039407776,-0.396117017,0,0,0,,0,71,71,433,1,
,,,,,,,,,,,,,,,,,,5cf272137e2e1400157f2b3b,2020-11-26_11h00.22.783,lexical_decision_task_MP_exp2,2020.2.5,Win32,60,m,1,0.50638,,,,,,,,0.50638,1,,,,,,91,WORD,"ID",33,expand,EXPAND,m,,,,,,0.039407776,-0.396117017,0,0,0,,0,72,72,30,1,
,,,,,,,,,,,,,,,,,,5cf272137e2e1400157f2b3b,2020-11-26_11h00.22.783,lexical_decision_task_MP_exp2,2020.2.5,Win32,60,z,1,0.48266,,,,,,,,0.48266,1,,,,,,421,NW,UN,33,alcoud,KNISMA,z,,,,,,0.039407776,-0.396117017,0,0,0,,0,73,73,360,1,
,,,,,,,,,,,,,,,,,,5cf272137e2e1400157f2b3b,2020-11-26_11h00.22.783,lexical_decision_task_MP_exp2,2020.2.5,Win32,60,z,1,0.623075,,,,,,,,0.623075,1,,,,,,306,NW,"ID",33,sounge,SOUNGE,z,,,,,,0.039407776,-0.396117017,0,0,0,,0,74,74,245,1,
,,,,,,,,,,,,,,,,,,5cf272137e2e1400157f2b3b,2020-11-26_11h00.22.783,lexical_decision_task_MP_exp2,2020.2.5,Win32,60,z,1,0.57944,,,,,,,,0.57944,1,,,,,,369,NW,"ID",16,wronch,WRONCH,z,,,,,,0.039407776,-0.396117017,0,0,0,,0,75,75,308,1,
,,,,,,,,,,,,,,,,,,5cf272137e2e1400157f2b3b,2020-11-26_11h00.22.783,lexical_decision_task_MP_exp2,2020.2.5,Win32,60,m,1,0.75229,,,,,,,,0.75229,1,,,,,,1,WORD,UN,16,ethnic,FRIGHT,m,,,,,,0.039407776,-0.396117017,0,0,0,,0,76,76,180,1,
,,,,,,,,,,,,,,,,,,5cf272137e2e1400157f2b3b,2020-11-26_11h00.22.783,lexical_decision_task_MP_exp2,2020.2.5,Win32,60,m,1,0.44612,,,,,,,,0.44612,1,,,,,,182,WORD,UN,33,absent,WINTER,m,,,,,,0.039407776,-0.396117017,0,0,0,,0,77,77,121,1,
,,,,,,,,,,,,,,,,,,5cf272137e2e1400157f2b3b,2020-11-26_11h00.22.783,lexical_decision_task_MP_exp2,2020.2.5,Win32,60,m,1,0.56137,,,,,,,,0.56137,1,,,,,,131,WORD,"ID",16,quench,QUENCH,m,,,,,,0.039407776,-0.396117017,0,0,0,,0,78,78,70,1,
,,,,,,,,,,,,,,,,,,5cf272137e2e1400157f2b3b,2020-11-26_11h00.22.783,lexical_decision_task_MP_exp2,2020.2.5,Win32,60,z,1,0.544545,,,,,,,,0.544545,1,,,,,,470,NW,UN,33,nobest,CRUDIO,z,,,,,,0.039407776,-0.396117017,0,0,0,,0,79,79,409,1,
,,,,,,,,,,,,,,,,,,5cf272137e2e1400157f2b3b,2020-11-26_11h00.22.783,lexical_decision_task_MP_exp2,2020.2.5,Win32,60,z,1,0.45536,,,,,,,,0.45536,1,,,,,,463,NW,UN,33,chaite,KISPEL,z,,,,,,0.039407776,-0.396117017,0,0,0,,0,80,80,402,1,
,,,,,,,,,,,,,,,,,,5cf272137e2e1400157f2b3b,2020-11-26_11h00.22.783,lexical_decision_task_MP_exp2,2020.2.5,Win32,60,z,1,0.533055,,,,,,,,0.533055,1,,,,,,471,NW,UN,33,cigney,NOBEST,z,,,,,,0.039407776,-0.396117017,0,0,0,,0,81,81,410,1,
,,,,,,,,,,,,,,,,,,5cf272137e2e1400157f2b3b,2020-11-26_11h00.22.783,lexical_decision_task_MP_exp2,2020.2.5,Win32,60,z,1,0.531005,,,,,,,,0.531005,1,,,,,,445,NW,UN,33,runamo,MINKEL,z,,,,,,0.039407776,-0.396117017,0,0,0,,0,82,82,384,1,
,,,,,,,,,,,,,,,,,,5cf272137e2e1400157f2b3b,2020-11-26_11h00.22.783,lexical_decision_task_MP_exp2,2020.2.5,Win32,60,z,1,0.42406,,,,,,,,0.42406,1,,,,,,459,NW,UN,33,mingar,BAFENT,z,,,,,,0.039407776,-0.396117017,0,0,0,,0,83,83,398,1,
,,,,,,,,,,,,,,,,,,5cf272137e2e1400157f2b3b,2020-11-26_11h00.22.783,lexical_decision_task_MP_exp2,2020.2.5,Win32,60,m,1,0.53994,,,,,,,,0.53994,1,,,,,,121,WORD,"ID",16,thrive,THRIVE,m,,,,,,0.039407776,-0.396117017,0,0,0,,0,84,84,60,1,
,,,,,,,,,,,,,,,,,,5cf272137e2e1400157f2b3b,2020-11-26_11h00.22.783,lexical_decision_task_MP_exp2,2020.2.5,Win32,60,z,1,0.478775,,,,,,,,0.478775,1,,,,,,310,NW,"ID",33,daniet,DANIET,z,,,,,,0.039407776,-0.396117017,0,0,0,,0,85,85,249,1,
,,,,,,,,,,,,,,,,,,5cf272137e2e1400157f2b3b,2020-11-26_11h00.22.783,lexical_decision_task_MP_exp2,2020.2.5,Win32,60,m,1,0.58679,,,,,,,,0.58679,1,,,,,,81,WORD,"ID",33,friend,FRIEND,m,,,,,,0.039407776,-0.396117017,0,0,0,,0,86,86,20,1,
,,,,,,,,,,,,,,,,,,5cf272137e2e1400157f2b3b,2020-11-26_11h00.22.783,lexical_decision_task_MP_exp2,2020.2.5,Win32,60,m,1,0.53561,,,,,,,,0.53561,1,,,,,,29,WORD,UN,16,orient,SKETCH,m,,,,,,0.039407776,-0.396117017,0,0,0,,0,87,87,208,1,
,,,,,,,,,,,,,,,,,,5cf272137e2e1400157f2b3b,2020-11-26_11h00.22.783,lexical_decision_task_MP_exp2,2020.2.5,Win32,60,z,1,0.77952,,,,,,,,0.77952,1,,,,,,397,NW,"ID",16,camble,CAMBLE,z,,,,,,0.039407776,-0.396117017,0,0,0,,0,88,88,336,1,
,,,,,,,,,,,,,,,,,,5cf272137e2e1400157f2b3b,2020-11-26_11h00.22.783,lexical_decision_task_MP_exp2,2020.2.5,Win32,60,z,1,0.51268,,,,,,,,0.51268,1,,,,,,294,NW,UN,16,gleath,INHORT,z,,,,,,0.039407776,-0.396117017,0,0,0,,0,89,89,473,1,
,,,,,,,,,,,,,,,,,,5cf272137e2e1400157f2b3b,2020-11-26_11h00.22.783,lexical_decision_task_MP_exp2,2020.2.5,Win32,60,m,1,0.52871,,,,,,,,0.52871,1,,,,,,54,WORD,UN,16,stroke,RAMBLE,m,,,,,,0.039407776,-0.396117017,0,0,0,,0,90,90,233,1,
,,,,,,,,,,,,,,,,,,5cf272137e2e1400157f2b3b,2020-11-26_11h00.22.783,lexical_decision_task_MP_exp2,2020.2.5,Win32,60,m,1,0.56569,,,,,,,,0.56569,1,,,,,,162,WORD,"ID",16,candle,CANDLE,m,,,,,,0.039407776,-0.396117017,0,0,0,,0,91,91,101,1,
,,,,,,,,,,,,,,,,,,5cf272137e2e1400157f2b3b,2020-11-26_11h00.22.783,lexical_decision_task_MP_exp2,2020.2.5,Win32,60,z,1,0.498585,,,,,,,,0.498585,1,,,,,,244,NW,UN,16,anougs,EATRIC,z,,,,,,0.039407776,-0.396117017,0,0,0,,0,92,92,423,1,
,,,,,,,,,,,,,,,,,,5cf272137e2e1400157f2b3b,2020-11-26_11h00.22.783,lexical_decision_task_MP_exp2,2020.2.5,Win32,60,m,1,0.49538,,,,,,,,0.49538,1,,,,,,124,WORD,"ID",16,blouse,BLOUSE,m,,,,,,0.039407776,-0.396117017,0,0,0,,0,93,93,63,1,
,,,,,,,,,,,,,,,,,,5cf272137e2e1400157f2b3b,2020-11-26_11h00.22.783,lexical_decision_task_MP_exp2,2020.2.5,Win32,60,m,1,0.47586,,,,,,,,0.47586,1,,,,,,180,WORD,"ID",16,silent,SILENT,m,,,,,,0.039407776,-0.396117017,0,0,0,,0,94,94,119,1,
,,,,,,,,,,,,,,,,,,5cf272137e2e1400157f2b3b,2020-11-26_11h00.22.783,lexical_decision_task_MP_exp2,2020.2.5,Win32,60,z,1,0.57422,,,,,,,,0.57422,1,,,,,,341,NW,"ID",33,myrtie,MYRTIE,z,,,,,,0.039407776,-0.396117017,0,0,0,,0,95,95,280,1,
,,,,,,,,,,,,,,,,,,5cf272137e2e1400157f2b3b,2020-11-26_11h00.22.783,lexical_decision_task_MP_exp2,2020.2.5,Win32,60,z,1,0.692365,,,,,,,,0.692365,1,,,,,,304,NW,"ID",33,cludie,CLUDIE,z,,,,,,0.039407776,-0.396117017,0,0,0,,0,96,96,243,1,
,,,,,,,,,,,,,,,,,,5cf272137e2e1400157f2b3b,2020-11-26_11h00.22.783,lexical_decision_task_MP_exp2,2020.2.5,Win32,60,m,1,0.572665,,,,,,,,0.572665,1,,,,,,185,WORD,UN,33,portal,BOTHER,m,,,,,,0.039407776,-0.396117017,0,0,0,,0,97,97,124,1,
,,,,,,,,,,,,,,,,,,5cf272137e2e1400157f2b3b,2020-11-26_11h00.22.783,lexical_decision_task_MP_exp2,2020.2.5,Win32,60,z,1,0.564985,,,,,,,,0.564985,1,,,,,,364,NW,"ID",16,impote,IMPOTE,z,,,,,,0.039407776,-0.396117017,0,0,0,,0,98,98,303,1,
,,,,,,,,,,,,,,,,,,5cf272137e2e1400157f2b3b,2020-11-26_11h00.22.783,lexical_decision_task_MP_exp2,2020.2.5,Win32,60,m,1,0.551415,,,,,,,,0.551415,1,,,,,,169,WORD,"ID",16,genius,GENIUS,m,,,,,,0.039407776,-0.396117017,0,0,0,,0,99,99,108,1,
,,,,,,,,,,,,,,,,,,5cf272137e2e1400157f2b3b,2020-11-26_11h00.22.783,lexical_decision_task_MP_exp2,2020.2.5,Win32,60,m,1,0.4886,,,,,,,,0.4886,1,,,,,,135,WORD,"ID",16,import,IMPORT,m,,,,,,0.039407776,-0.396117017,0,0,0,,0,100,100,74,1,
,,,,,,,,,,,,,,,,,,5cf272137e2e1400157f2b3b,2020-11-26_11h00.22.783,lexical_decision_task_MP_exp2,2020.2.5,Win32,60,z,1,0.509585,,,,,,,,0.509585,1,,,,,,252,NW,UN,16,resait,STAPOD,z,,,,,,0.039407776,-0.396117017,0,0,0,,0,101,101,431,1,
,,,,,,,,,,,,,,,,,,5cf272137e2e1400157f2b3b,2020-11-26_11h00.22.783,lexical_decision_task_MP_exp2,2020.2.5,Win32,60,z,1,0.78598,,,,,,,,0.78598,1,,,,,,355,NW,"ID",33,zingly,ZINGLY,z,,,,,,0.039407776,-0.396117017,0,0,0,,0,102,102,294,1,
,,,,,,,,,,,,,,,,,,5cf272137e2e1400157f2b3b,2020-11-26_11h00.22.783,lexical_decision_task_MP_exp2,2020.2.5,Win32,60,z,1,0.54874,,,,,,,,0.54874,1,,,,,,430,NW,UN,33,chrums,CAROEY,z,,,,,,0.039407776,-0.396117017,0,0,0,,0,103,103,369,1,
,,,,,,,,,,,,,,,,,,5cf272137e2e1400157f2b3b,2020-11-26_11h00.22.783,lexical_decision_task_MP_exp2,2020.2.5,Win32,60,m,1,0.756065,,,,,,,,0.756065,1,,,,,,111,WORD,"ID",33,induce,INDUCE,m,,,,,,0.039407776,-0.396117017,0,0,0,,0,104,104,50,1,
,,,,,,,,,,,,,,,,,,5cf272137e2e1400157f2b3b,2020-11-26_11h00.22.783,lexical_decision_task_MP_exp2,2020.2.5,Win32,60,m,1,0.794645,,,,,,,,0.794645,1,,,,,,4,WORD,UN,16,plunge,TRENCH,m,,,,,,0.039407776,-0.396117017,0,0,0,,0,105,105,183,1,
,,,,,,,,,,,,,,,,,,5cf272137e2e1400157f2b3b,2020-11-26_11h00.22.783,lexical_decision_task_MP_exp2,2020.2.5,Win32,60,m,1,0.790215,,,,,,,,0.790215,1,,,,,,76,WORD,"ID",33,exotic,EXOTIC,m,,,,,,0.039407776,-0.396117017,0,0,0,,0,106,106,15,1,
,,,,,,,,,,,,,,,,,,5cf272137e2e1400157f2b3b,2020-11-26_11h00.22.783,lexical_decision_task_MP_exp2,2020.2.5,Win32,60,m,1,0.44563,,,,,,,,0.44563,1,,,,,,51,WORD,UN,16,impose,HUNGRY,m,,,,,,0.039407776,-0.396117017,0,0,0,,0,107,107,230,1,
,,,,,,,,,,,,,,,,,,5cf272137e2e1400157f2b3b,2020-11-26_11h00.22.783,lexical_decision_task_MP_exp2,2020.2.5,Win32,60,m,1,0.489245,,,,,,,,0.489245,1,,,,,,237,WORD,UN,33,glance,POSTER,m,,,,,,0.039407776,-0.396117017,0,0,0,,0,108,108,176,1,
,,,,,,,,,,,,,,,,,,5cf272137e2e1400157f2b3b,2020-11-26_11h00.22.783,lexical_decision_task_MP_exp2,2020.2.5,Win32,60,z,1,0.482365,,,,,,,,0.482365,1,,,,,,427,NW,UN,33,tandly,SCHIND,z,,,,,,0.039407776,-0.396117017,0,0,0,,0,109,109,366,1,
,,,,,,,,,,,,,,,,,,5cf272137e2e1400157f2b3b,2020-11-26_11h00.22.783,lexical_decision_task_MP_exp2,2020.2.5,Win32,60,z,1,0.486555,,,,,,,,0.486555,1,,,,,,356,NW,"ID",33,othnis,OTHNIS,z,,,,,,0.039407776,-0.396117017,0,0,0,,0,110,110,295,1,
,,,,,,,,,,,,,,,,,,5cf272137e2e1400157f2b3b,2020-11-26_11h00.22.783,lexical_decision_task_MP_exp2,2020.2.5,Win32,60,m,1,0.702525,,,,,,,,0.702525,1,,,,,,207,WORD,UN,33,hockey,WREATH,m,,,,,,0.039407776,-0.396117017,0,0,0,,0,111,111,146,1,
,,,,,,,,,,,,,,,,,,5cf272137e2e1400157f2b3b,2020-11-26_11h00.22.783,lexical_decision_task_MP_exp2,2020.2.5,Win32,60,z,1,0.50103,,,,,,,,0.50103,1,,,,,,321,NW,"ID",33,miator,MIATOR,z,,,,,,0.039407776,-0.396117017,0,0,0,,0,112,112,260,1,
,,,,,,,,,,,,,,,,,,5cf272137e2e1400157f2b3b,2020-11-26_11h00.22.783,lexical_decision_task_MP_exp2,2020.2.5,Win32,60,z,1,0.55499,,,,,,,,0.55499,1,,,,,,309,NW,"ID",33,amiloy,AMILOY,z,,,,,,0.039407776,-0.396117017,0,0,0,,0,113,113,248,1,
,,,,,,,,,,,,,,,,,,5cf272137e2e1400157f2b3b,2020-11-26_11h00.22.783,lexical_decision_task_MP_exp2,2020.2.5,Win32,60,z,0,0.47528,,,,,,,,0.47528,0,,,,,,114,WORD,"ID",33,placid,PLACID,m,,,,,,0.039407776,-0.396117017,0,0,0,,0,114,114,53,1,
,,,,,,,,,,,,,,,,,,5cf272137e2e1400157f2b3b,2020-11-26_11h00.22.783,lexical_decision_task_MP_exp2,2020.2.5,Win32,60,m,1,0.509865,,,,,,,,0.509865,1,,,,,,235,WORD,UN,33,pirate,GRUMPY,m,,,,,,0.039407776,-0.396117017,0,0,0,,0,115,115,174,1,
,,,,,,,,,,,,,,,,,,5cf272137e2e1400157f2b3b,2020-11-26_11h00.22.783,lexical_decision_task_MP_exp2,2020.2.5,Win32,60,m,1,0.502405,,,,,,,,0.502405,1,,,,,,47,WORD,UN,16,walnut,INCOME,m,,,,,,0.039407776,-0.396117017,0,0,0,,0,116,116,226,1,
,,,,,,,,,,,,,,,,,,5cf272137e2e1400157f2b3b,2020-11-26_11h00.22.783,lexical_decision_task_MP_exp2,2020.2.5,Win32,60,m,1,0.585445,,,,,,,,0.585445,1,,,,,,40,WORD,UN,16,spring,CONVEY,m,,,,,,0.039407776,-0.396117017,0,0,0,,0,117,117,219,1,
,,,,,,,,,,,,,,,,,,5cf272137e2e1400157f2b3b,2020-11-26_11h00.22.783,lexical_decision_task_MP_exp2,2020.2.5,Win32,60,z,1,0.55403,,,,,,,,0.55403,1,,,,,,246,NW,UN,16,blarge,PIATON,z,,,,,,0.039407776,-0.396117017,0,0,0,,0,118,118,425,1,
,,,,,,,,,,,,,,,,,,5cf272137e2e1400157f2b3b,2020-11-26_11h00.22.783,lexical_decision_task_MP_exp2,2020.2.5,Win32,60,m,1,0.56933,,,,,,,,0.56933,1,,,,,,190,WORD,UN,33,stable,BACKUP,m,,,,,,0.039407776,-0.396117017,0,0,0,,0,119,119,129,1,
,,,,,,,,,,,,,,,,,,5cf272137e2e1400157f2b3b,2020-11-26_11h00.22.783,lexical_decision_task_MP_exp2,2020.2.5,Win32,60,m,1,0.50467,,,,,,,,0.50467,1,,,,,,112,WORD,"ID",33,breath,BREATH,m,,,,,,0.039407776,-0.396117017,0,0,0,space,0,120,120,51,1,60.470095
,,,,,,,,,,,,,,,,,,5cf272137e2e1400157f2b3b,2020-11-26_11h00.22.783,lexical_decision_task_MP_exp2,2020.2.5,Win32,60,z,1,0.6211,,,,,,,,0.6211,1,,,,,,381,NW,"ID",16,huniek,HUNIEK,z,,,,,,0.039407776,-0.396117017,0,0,0,,0,121,121,320,1,
,,,,,,,,,,,,,,,,,,5cf272137e2e1400157f2b3b,2020-11-26_11h00.22.783,lexical_decision_task_MP_exp2,2020.2.5,Win32,60,m,1,0.5566,,,,,,,,0.5566,1,,,,,,193,WORD,UN,33,mildew,OBJECT,m,,,,,,0.039407776,-0.396117017,0,0,0,,0,122,122,132,1,
,,,,,,,,,,,,,,,,,,5cf272137e2e1400157f2b3b,2020-11-26_11h00.22.783,lexical_decision_task_MP_exp2,2020.2.5,Win32,60,z,1,0.47326,,,,,,,,0.47326,1,,,,,,329,NW,"ID",33,yarike,YARIKE,z,,,,,,0.039407776,-0.396117017,0,0,0,,0,123,123,268,1,
,,,,,,,,,,,,,,,,,,5cf272137e2e1400157f2b3b,2020-11-26_11h00.22.783,lexical_decision_task_MP_exp2,2020.2.5,Win32,60,m,1,0.488975,,,,,,,,0.488975,1,,,,,,107,WORD,"ID",33,slogan,SLOGAN,m,,,,,,0.039407776,-0.396117017,0,0,0,,0,124,124,46,1,
,,,,,,,,,,,,,,,,,,5cf272137e2e1400157f2b3b,2020-11-26_11h00.22.783,lexical_decision_task_MP_exp2,2020.2.5,Win32,60,m,1,0.540575,,,,,,,,0.540575,1,,,,,,130,WORD,"ID",16,stupid,STUPID,m,,,,,,0.039407776,-0.396117017,0,0,0,,0,125,125,69,1,
,,,,,,,,,,,,,,,,,,5cf272137e2e1400157f2b3b,2020-11-26_11h00.22.783,lexical_decision_task_MP_exp2,2020.2.5,Win32,60,m,1,0.623955,,,,,,,,0.623955,1,,,,,,184,WORD,UN,33,bother,SLEAZY,m,,,,,,0.039407776,-0.396117017,0,0,0,,0,126,126,123,1,
,,,,,,,,,,,,,,,,,,5cf272137e2e1400157f2b3b,2020-11-26_11h00.22.783,lexical_decision_task_MP_exp2,2020.2.5,Win32,60,m,1,0.543705,,,,,,,,0.543705,1,,,,,,104,WORD,"ID",33,studio,STUDIO,m,,,,,,0.039407776,-0.396117017,0,0,0,,0,127,127,43,1,
,,,,,,,,,,,,,,,,,,5cf272137e2e1400157f2b3b,2020-11-26_11h00.22.783,lexical_decision_task_MP_exp2,2020.2.5,Win32,60,m,1,0.47053,,,,,,,,0.47053,1,,,,,,20,WORD,UN,16,simple,BREAST,m,,,,,,0.039407776,-0.396117017,0,0,0,,0,128,128,199,1,
,,,,,,,,,,,,,,,,,,5cf272137e2e1400157f2b3b,2020-11-26_11h00.22.783,lexical_decision_task_MP_exp2,2020.2.5,Win32,60,m,1,0.5227,,,,,,,,0.5227,1,,,,,,36,WORD,UN,16,insult,VANISH,m,,,,,,0.039407776,-0.396117017,0,0,0,,0,129,129,215,1,
,,,,,,,,,,,,,,,,,,5cf272137e2e1400157f2b3b,2020-11-26_11h00.22.783,lexical_decision_task_MP_exp2,2020.2.5,Win32,60,z,1,0.57835,,,,,,,,0.57835,1,,,,,,456,NW,UN,33,wanigh,BROGET,z,,,,,,0.039407776,-0.396117017,0,0,0,,0,130,130,395,1,
,,,,,,,,,,,,,,,,,,5cf272137e2e1400157f2b3b,2020-11-26_11h00.22.783,lexical_decision_task_MP_exp2,2020.2.5,Win32,60,z,1,0.527385,,,,,,,,0.527385,1,,,,,,457,NW,UN,33,barcet,WANIGH,z,,,,,,0.039407776,-0.396117017,0,0,0,,0,131,131,396,1,
,,,,,,,,,,,,,,,,,,5cf272137e2e1400157f2b3b,2020-11-26_11h00.22.783,lexical_decision_task_MP_exp2,2020.2.5,Win32,60,z,1,0.453455,,,,,,,,0.453455,1,,,,,,351,NW,"ID",33,tiesch,TIESCH,z,,,,,,0.039407776,-0.396117017,0,0,0,,0,132,132,290,1,
,,,,,,,,,,,,,,,,,,5cf272137e2e1400157f2b3b,2020-11-26_11h00.22.783,lexical_decision_task_MP_exp2,2020.2.5,Win32,60,z,1,0.59827,,,,,,,,0.59827,1,,,,,,428,NW,UN,33,funtle,TANDLY,z,,,,,,0.039407776,-0.396117017,0,0,0,,0,133,133,367,1,
,,,,,,,,,,,,,,,,,,5cf272137e2e1400157f2b3b,2020-11-26_11h00.22.783,lexical_decision_task_MP_exp2,2020.2.5,Win32,60,z,1,0.54352,,,,,,,,0.54352,1,,,,,,426,NW,UN,33,schind,URIVEL,z,,,,,,0.039407776,-0.396117017,0,0,0,,0,134,134,365,1,
,,,,,,,,,,,,,,,,,,5cf272137e2e1400157f2b3b,2020-11-26_11h00.22.783,lexical_decision_task_MP_exp2,2020.2.5,Win32,60,m,1,0.58112,,,,,,,,0.58112,1,,,,,,181,WORD,UN,33,winter,GLANCE,m,,,,,,0.039407776,-0.396117017,0,0,0,,0,135,135,120,1,
,,,,,,,,,,,,,,,,,,5cf272137e2e1400157f2b3b,2020-11-26_11h00.22.783,lexical_decision_task_MP_exp2,2020.2.5,Win32,60,z,1,0.52105,,,,,,,,0.52105,1,,,,,,405,NW,"ID",16,flumni,FLUMNI,z,,,,,,0.039407776,-0.396117017,0,0,0,,0,136,136,344,1,
,,,,,,,,,,,,,,,,,,5cf272137e2e1400157f2b3b,2020-11-26_11h00.22.783,lexical_decision_task_MP_exp2,2020.2.5,Win32,60,z,1,0.44464,,,,,,,,0.44464,1,,,,,,436,NW,UN,33,snapel,FRUTAN,z,,,,,,0.039407776,-0.396117017,0,0,0,,0,137,137,375,1,
,,,,,,,,,,,,,,,,,,5cf272137e2e1400157f2b3b,2020-11-26_11h00.22.783,lexical_decision_task_MP_exp2,2020.2.5,Win32,60,m,1,0.490375,,,,,,,,0.490375,1,,,,,,95,WORD,"ID",33,thread,THREAD,m,,,,,,0.039407776,-0.396117017,0,0,0,,0,138,138,34,1,
,,,,,,,,,,,,,,,,,,5cf272137e2e1400157f2b3b,2020-11-26_11h00.22.783,lexical_decision_task_MP_exp2,2020.2.5,Win32,60,z,1,0.653325,,,,,,,,0.653325,1,,,,,,322,NW,"ID",33,slanch,SLANCH,z,,,,,,0.039407776,-0.396117017,0,0,0,,0,139,139,261,1,
,,,,,,,,,,,,,,,,,,5cf272137e2e1400157f2b3b,2020-11-26_11h00.22.783,lexical_decision_task_MP_exp2,2020.2.5,Win32,60,m,1,0.520495,,,,,,,,0.520495,1,,,,,,219,WORD,UN,33,voyage,BUCKET,m,,,,,,0.039407776,-0.396117017,0,0,0,,0,140,140,158,1,
,,,,,,,,,,,,,,,,,,5cf272137e2e1400157f2b3b,2020-11-26_11h00.22.783,lexical_decision_task_MP_exp2,2020.2.5,Win32,60,m,1,0.53613,,,,,,,,0.53613,1,,,,,,194,WORD,UN,33,resign,ABSENT,m,,,,,,0.039407776,-0.396117017,0,0,0,,0,141,141,133,1,
,,,,,,,,,,,,,,,,,,5cf272137e2e1400157f2b3b,2020-11-26_11h00.22.783,lexical_decision_task_MP_exp2,2020.2.5,Win32,60,m,0,0.722985,,,,,,,,0.722985,0,,,,,,437,NW,UN,33,baitch,SNAPEL,z,,,,,,0.039407776,-0.396117017,0,0,0,,0,142,142,376,1,
,,,,,,,,,,,,,,,,,,5cf272137e2e1400157f2b3b,2020-11-26_11h00.22.783,lexical_decision_task_MP_exp2,2020.2.5,Win32,60,m,1,0.51594,,,,,,,,0.51594,1,,,,,,97,WORD,"ID",33,client,CLIENT,m,,,,,,0.039407776,-0.396117017,0,0,0,,0,143,143,36,1,
,,,,,,,,,,,,,,,,,,5cf272137e2e1400157f2b3b,2020-11-26_11h00.22.783,lexical_decision_task_MP_exp2,2020.2.5,Win32,60,m,1,0.423325,,,,,,,,0.423325,1,,,,,,17,WORD,UN,16,humble,CHARGE,m,,,,,,0.039407776,-0.396117017,0,0,0,,0,144,144,196,1,
,,,,,,,,,,,,,,,,,,5cf272137e2e1400157f2b3b,2020-11-26_11h00.22.783,lexical_decision_task_MP_exp2,2020.2.5,Win32,60,m,1,0.50425,,,,,,,,0.50425,1,,,,,,19,WORD,UN,16,breast,PATRON,m,,,,,,0.039407776,-0.396117017,0,0,0,,0,145,145,198,1,
,,,,,,,,,,,,,,,,,,5cf272137e2e1400157f2b3b,2020-11-26_11h00.22.783,lexical_decision_task_MP_exp2,2020.2.5,Win32,60,z,1,0.56017,,,,,,,,0.56017,1,,,,,,475,NW,UN,33,josted,PEBRIC,z,,,,,,0.039407776,-0.396117017,0,0,0,,0,146,146,414,1,
,,,,,,,,,,,,,,,,,,5cf272137e2e1400157f2b3b,2020-11-26_11h00.22.783,lexical_decision_task_MP_exp2,2020.2.5,Win32,60,m,1,0.44416,,,,,,,,0.44416,1,,,,,,68,WORD,"ID",33,fumble,FUMBLE,m,,,,,,0.039407776,-0.396117017,0,0,0,,0,147,147,7,1,
,,,,,,,,,,,,,,,,,,5cf272137e2e1400157f2b3b,2020-11-26_11h00.22.783,lexical_decision_task_MP_exp2,2020.2.5,Win32,60,z,1,0.574405,,,,,,,,0.574405,1,,,,,,441,NW,UN,33,aboune,RASTOE,z,,,,,,0.039407776,-0.396117017,0,0,0,,0,148,148,380,1,
,,,,,,,,,,,,,,,,,,5cf272137e2e1400157f2b3b,2020-11-26_11h00.22.783,lexical_decision_task_MP_exp2,2020.2.5,Win32,60,z,1,0.522415,,,,,,,,0.522415,1,,,,,,453,NW,UN,33,scouge,BOLVIS,z,,,,,,0.039407776,-0.396117017,0,0,0,,0,149,149,392,1,
,,,,,,,,,,,,,,,,,,5cf272137e2e1400157f2b3b,2020-11-26_11h00.22.783,lexical_decision_task_MP_exp2,2020.2.5,Win32,60,z,1,0.5518,,,,,,,,0.5518,1,,,,,,311,NW,"ID",33,sproly,SPROLY,z,,,,,,0.039407776,-0.396117017,0,0,0,,0,150,150,250,1,
,,,,,,,,,,,,,,,,,,5cf272137e2e1400157f2b3b,2020-11-26_11h00.22.783,lexical_decision_task_MP_exp2,2020.2.5,Win32,60,m,1,0.495685,,,,,,,,0.495685,1,,,,,,2,WORD,UN,16,knight,BRIDGE,m,,,,,,0.039407776,-0.396117017,0,0,0,,0,151,151,181,1,
,,,,,,,,,,,,,,,,,,5cf272137e2e1400157f2b3b,2020-11-26_11h00.22.783,lexical_decision_task_MP_exp2,2020.2.5,Win32,60,z,1,0.50825,,,,,,,,0.50825,1,,,,,,371,NW,"ID",16,geiloy,GEILOY,z,,,,,,0.039407776,-0.396117017,0,0,0,,0,152,152,310,1,
,,,,,,,,,,,,,,,,,,5cf272137e2e1400157f2b3b,2020-11-26_11h00.22.783,lexical_decision_task_MP_exp2,2020.2.5,Win32,60,z,1,0.695225,,,,,,,,0.695225,1,,,,,,316,NW,"ID",33,scregm,SCREGM,z,,,,,,0.039407776,-0.396117017,0,0,0,,0,153,153,255,1,
,,,,,,,,,,,,,,,,,,5cf272137e2e1400157f2b3b,2020-11-26_11h00.22.783,lexical_decision_task_MP_exp2,2020.2.5,Win32,60,z,1,0.527985,,,,,,,,0.527985,1,,,,,,477,NW,UN,33,lobush,PHOTIE,z,,,,,,0.039407776,-0.396117017,0,0,0,,0,154,154,416,1,
,,,,,,,,,,,,,,,,,,5cf272137e2e1400157f2b3b,2020-11-26_11h00.22.783,lexical_decision_task_MP_exp2,2020.2.5,Win32,60,m,1,0.588735,,,,,,,,0.588735,1,,,,,,122,WORD,"ID",16,linger,LINGER,m,,,,,,0.039407776,-0.396117017,0,0,0,,0,155,155,61,1,
,,,,,,,,,,,,,,,,,,5cf272137e2e1400157f2b3b,2020-11-26_11h00.22.783,lexical_decision_task_MP_exp2,2020.2.5,Win32,60,m,1,0.492905,,,,,,,,0.492905,1,,,,,,43,WORD,UN,16,foster,TONGUE,m,,,,,,0.039407776,-0.396117017,0,0,0,,0,156,156,222,1,
,,,,,,,,,,,,,,,,,,5cf272137e2e1400157f2b3b,2020-11-26_11h00.22.783,lexical_decision_task_MP_exp2,2020.2.5,Win32,60,z,1,0.6545,,,,,,,,0.6545,1,,,,,,379,NW,"ID",16,auting,AUTING,z,,,,,,0.039407776,-0.396117017,0,0,0,,0,157,157,318,1,
,,,,,,,,,,,,,,,,,,5cf272137e2e1400157f2b3b,2020-11-26_11h00.22.783,lexical_decision_task_MP_exp2,2020.2.5,Win32,60,m,1,0.49052,,,,,,,,0.49052,1,,,,,,125,WORD,"ID",16,nickel,NICKEL,m,,,,,,0.039407776,-0.396117017,0,0,0,,0,158,158,64,1,
,,,,,,,,,,,,,,,,,,5cf272137e2e1400157f2b3b,2020-11-26_11h00.22.783,lexical_decision_task_MP_exp2,2020.2.5,Win32,60,z,1,0.52618,,,,,,,,0.52618,1,,,,,,418,NW,"ID",16,suidle,SUIDLE,z,,,,,,0.039407776,-0.396117017,0,0,0,,0,159,159,357,1,
,,,,,,,,,,,,,,,,,,5cf272137e2e1400157f2b3b,2020-11-26_11h00.22.783,lexical_decision_task_MP_exp2,2020.2.5,Win32,60,z,1,0.55479,,,,,,,,0.55479,1,,,,,,407,NW,"ID",16,suiver,SUIVER,z,,,,,,0.039407776,-0.396117017,0,0,0,,0,160,160,346,1,
,,,,,,,,,,,,,,,,,,5cf272137e2e1400157f2b3b,2020-11-26_11h00.22.783,lexical_decision_task_MP_exp2,2020.2.5,Win32,60,m,1,0.55898,,,,,,,,0.55898,1,,,,,,33,WORD,UN,16,jungle,BUTLER,m,,,,,,0.039407776,-0.396117017,0,0,0,,0,161,161,212,1,
,,,,,,,,,,,,,,,,,,5cf272137e2e1400157f2b3b,2020-11-26_11h00.22.783,lexical_decision_task_MP_exp2,2020.2.5,Win32,60,m,1,0.53551,,,,,,,,0.53551,1,,,,,,205,WORD,UN,33,tailor,LOUNGE,m,,,,,,0.039407776,-0.396117017,0,0,0,,0,162,162,144,1,
,,,,,,,,,,,,,,,,,,5cf272137e2e1400157f2b3b,2020-11-26_11h00.22.783,lexical_decision_task_MP_exp2,2020.2.5,Win32,60,z,1,0.540385,,,,,,,,0.540385,1,,,,,,274,NW,UN,16,sleirt,FUMBLO,z,,,,,,0.039407776,-0.396117017,0,0,0,,0,163,163,453,1,
,,,,,,,,,,,,,,,,,,5cf272137e2e1400157f2b3b,2020-11-26_11h00.22.783,lexical_decision_task_MP_exp2,2020.2.5,Win32,60,z,1,0.55469,,,,,,,,0.55469,1,,,,,,377,NW,"ID",16,injore,INJORE,z,,,,,,0.039407776,-0.396117017,0,0,0,,0,164,164,316,1,
,,,,,,,,,,,,,,,,,,5cf272137e2e1400157f2b3b,2020-11-26_11h00.22.783,lexical_decision_task_MP_exp2,2020.2.5,Win32,60,z,1,0.47283,,,,,,,,0.47283,1,,,,,,308,NW,"ID",33,psetch,PSETCH,z,,,,,,0.039407776,-0.396117017,0,0,0,,0,165,165,247,1,
,,,,,,,,,,,,,,,,,,5cf272137e2e1400157f2b3b,2020-11-26_11h00.22.783,lexical_decision_task_MP_exp2,2020.2.5,Win32,60,m,1,0.473805,,,,,,,,0.473805,1,,,,,,116,WORD,"ID",33,tumble,TUMBLE,m,,,,,,0.039407776,-0.396117017,0,0,0,,0,166,166,55,1,
,,,,,,,,,,,,,,,,,,5cf272137e2e1400157f2b3b,2020-11-26_11h00.22.783,lexical_decision_task_MP_exp2,2020.2.5,Win32,60,z,1,0.462905,,,,,,,,0.462905,1,,,,,,451,NW,UN,33,surden,CAINKY,z,,,,,,0.039407776,-0.396117017,0,0,0,,0,167,167,390,1,
,,,,,,,,,,,,,,,,,,5cf272137e2e1400157f2b3b,2020-11-26_11h00.22.783,lexical_decision_task_MP_exp2,2020.2.5,Win32,60,m,1,0.49585,,,,,,,,0.49585,1,,,,,,140,WORD,"ID",16,prince,PRINCE,m,,,,,,0.039407776,-0.396117017,0,0,0,,0,168,168,79,1,
,,,,,,,,,,,,,,,,,,5cf272137e2e1400157f2b3b,2020-11-26_11h00.22.783,lexical_decision_task_MP_exp2,2020.2.5,Win32,60,z,1,0.61961,,,,,,,,0.61961,1,,,,,,416,NW,"ID",16,pathel,PATHEL,z,,,,,,0.039407776,-0.396117017,0,0,0,,0,169,169,355,1,
,,,,,,,,,,,,,,,,,,5cf272137e2e1400157f2b3b,2020-11-26_11h00.22.783,lexical_decision_task_MP_exp2,2020.2.5,Win32,60,m,1,0.488135,,,,,,,,0.488135,1,,,,,,224,WORD,UN,33,vulgar,PERIOD,m,,,,,,0.039407776,-0.396117017,0,0,0,,0,170,170,163,1,
,,,,,,,,,,,,,,,,,,5cf272137e2e1400157f2b3b,2020-11-26_11h00.22.783,lexical_decision_task_MP_exp2,2020.2.5,Win32,60,z,1,0.66142,,,,,,,,0.66142,1,,,,,,303,NW,"ID",33,fiream,FIREAM,z,,,,,,0.039407776,-0.396117017,0,0,0,,0,171,171,242,1,
,,,,,,,,,,,,,,,,,,5cf272137e2e1400157f2b3b,2020-11-26_11h00.22.783,lexical_decision_task_MP_exp2,2020.2.5,Win32,60,m,0,0.597955,,,,,,,,0.597955,0,,,,,,338,NW,"ID",33,wreash,WREASH,z,,,,,,0.039407776,-0.396117017,0,0,0,,0,172,172,277,1,
,,,,,,,,,,,,,,,,,,5cf272137e2e1400157f2b3b,2020-11-26_11h00.22.783,lexical_decision_task_MP_exp2,2020.2.5,Win32,60,z,1,0.54492,,,,,,,,0.54492,1,,,,,,265,NW,UN,16,varmit,DISTAR,z,,,,,,0.039407776,-0.396117017,0,0,0,,0,173,173,444,1,
,,,,,,,,,,,,,,,,,,5cf272137e2e1400157f2b3b,2020-11-26_11h00.22.783,lexical_decision_task_MP_exp2,2020.2.5,Win32,60,z,0,0.43821,,,,,,,,0.43821,0,,,,,,226,WORD,UN,33,flower,CASINO,m,,,,,,0.039407776,-0.396117017,0,0,0,,0,174,174,165,1,
,,,,,,,,,,,,,,,,,,5cf272137e2e1400157f2b3b,2020-11-26_11h00.22.783,lexical_decision_task_MP_exp2,2020.2.5,Win32,60,m,1,0.422075,,,,,,,,0.422075,1,,,,,,27,WORD,UN,16,comedy,SCREAM,m,,,,,,0.039407776,-0.396117017,0,0,0,,0,175,175,206,1,
,,,,,,,,,,,,,,,,,,5cf272137e2e1400157f2b3b,2020-11-26_11h00.22.783,lexical_decision_task_MP_exp2,2020.2.5,Win32,60,z,1,0.518185,,,,,,,,0.518185,1,,,,,,273,NW,UN,16,fumblo,SORTEL,z,,,,,,0.039407776,-0.396117017,0,0,0,,0,176,176,452,1,
,,,,,,,,,,,,,,,,,,5cf272137e2e1400157f2b3b,2020-11-26_11h00.22.783,lexical_decision_task_MP_exp2,2020.2.5,Win32,60,m,1,0.54108,,,,,,,,0.54108,1,,,,,,206,WORD,UN,33,wreath,TAILOR,m,,,,,,0.039407776,-0.396117017,0,0,0,,0,177,177,145,1,
,,,,,,,,,,,,,,,,,,5cf272137e2e1400157f2b3b,2020-11-26_11h00.22.783,lexical_decision_task_MP_exp2,2020.2.5,Win32,60,z,1,0.52091,,,,,,,,0.52091,1,,,,,,429,NW,UN,33,caroey,FUNTLE,z,,,,,,0.039407776,-0.396117017,0,0,0,,0,178,178,368,1,
,,,,,,,,,,,,,,,,,,5cf272137e2e1400157f2b3b,2020-11-26_11h00.22.783,lexical_decision_task_MP_exp2,2020.2.5,Win32,60,m,1,0.45891,,,,,,,,0.45891,1,,,,,,127,WORD,"ID",16,castle,CASTLE,m,,,,,,0.039407776,-0.396117017,0,0,0,,0,179,179,66,1,
,,,,,,,,,,,,,,,,,,5cf272137e2e1400157f2b3b,2020-11-26_11h00.22.783,lexical_decision_task_MP_exp2,2020.2.5,Win32,60,m,1,0.48953,,,,,,,,0.48953,1,,,,,,87,WORD,"ID",33,filter,FILTER,m,,,,,,0.039407776,-0.396117017,0,0,0,,0,180,180,26,1,
,,,,,,,,,,,,,,,,,,5cf272137e2e1400157f2b3b,2020-11-26_11h00.22.783,lexical_decision_task_MP_exp2,2020.2.5,Win32,60,z,1,0.476655,,,,,,,,0.476655,1,,,,,,387,NW,"ID",16,gronce,GRONCE,z,,,,,,0.039407776,-0.396117017,0,0,0,,0,181,181,326,1,
,,,,,,,,,,,,,,,,,,5cf272137e2e1400157f2b3b,2020-11-26_11h00.22.783,lexical_decision_task_MP_exp2,2020.2.5,Win32,60,m,1,0.47931,,,,,,,,0.47931,1,,,,,,208,WORD,UN,33,search,HOCKEY,m,,,,,,0.039407776,-0.396117017,0,0,0,,0,182,182,147,1,
,,,,,,,,,,,,,,,,,,5cf272137e2e1400157f2b3b,2020-11-26_11h00.22.783,lexical_decision_task_MP_exp2,2020.2.5,Win32,60,z,1,0.53938,,,,,,,,0.53938,1,,,,,,461,NW,UN,33,absult,JUSTRE,z,,,,,,0.039407776,-0.396117017,0,0,0,,0,183,183,400,1,
,,,,,,,,,,,,,,,,,,5cf272137e2e1400157f2b3b,2020-11-26_11h00.22.783,lexical_decision_task_MP_exp2,2020.2.5,Win32,60,z,1,0.51288,,,,,,,,0.51288,1,,,,,,435,NW,UN,33,frutan,IMPURB,z,,,,,,0.039407776,-0.396117017,0,0,0,,0,184,184,374,1,
,,,,,,,,,,,,,,,,,,5cf272137e2e1400157f2b3b,2020-11-26_11h00.22.783,lexical_decision_task_MP_exp2,2020.2.5,Win32,60,z,1,0.482175,,,,,,,,0.482175,1,,,,,,326,NW,"ID",33,iguade,IGUADE,z,,,,,,0.039407776,-0.396117017,0,0,0,,0,185,185,265,1,
,,,,,,,,,,,,,,,,,,5cf272137e2e1400157f2b3b,2020-11-26_11h00.22.783,lexical_decision_task_MP_exp2,2020.2.5,Win32,60,z,1,0.5367,,,,,,,,0.5367,1,,,,,,480,NW,UN,33,knisma,ROBULY,z,,,,,,0.039407776,-0.396117017,0,0,0,,0,186,186,419,1,
,,,,,,,,,,,,,,,,,,5cf272137e2e1400157f2b3b,2020-11-26_11h00.22.783,lexical_decision_task_MP_exp2,2020.2.5,Win32,60,z,1,0.52476,,,,,,,,0.52476,1,,,,,,269,NW,UN,16,wrimsy,ORCHET,z,,,,,,0.039407776,-0.396117017,0,0,0,,0,187,187,448,1,
,,,,,,,,,,,,,,,,,,5cf272137e2e1400157f2b3b,2020-11-26_11h00.22.783,lexical_decision_task_MP_exp2,2020.2.5,Win32,60,m,1,0.504565,,,,,,,,0.504565,1,,,,,,115,WORD,"ID",33,guitar,GUITAR,m,,,,,,0.039407776,-0.396117017,0,0,0,,0,188,188,54,1,
,,,,,,,,,,,,,,,,,,5cf272137e2e1400157f2b3b,2020-11-26_11h00.22.783,lexical_decision_task_MP_exp2,2020.2.5,Win32,60,z,1,0.502835,,,,,,,,0.502835,1,,,,,,468,NW,UN,33,padifs,WICTOR,z,,,,,,0.039407776,-0.396117017,0,0,0,,0,189,189,407,1,
,,,,,,,,,,,,,,,,,,5cf272137e2e1400157f2b3b,2020-11-26_11h00.22.783,lexical_decision_task_MP_exp2,2020.2.5,Win32,60,m,1,0.47927,,,,,,,,0.47927,1,,,,,,32,WORD,UN,16,scream,BUCKLE,m,,,,,,0.039407776,-0.396117017,0,0,0,,0,190,190,211,1,
,,,,,,,,,,,,,,,,,,5cf272137e2e1400157f2b3b,2020-11-26_11h00.22.783,lexical_decision_task_MP_exp2,2020.2.5,Win32,60,m,1,0.45691,,,,,,,,0.45691,1,,,,,,15,WORD,UN,16,faucet,AMOUNT,m,,,,,,0.039407776,-0.396117017,0,0,0,,0,191,191,194,1,
,,,,,,,,,,,,,,,,,,5cf272137e2e1400157f2b3b,2020-11-26_11h00.22.783,lexical_decision_task_MP_exp2,2020.2.5,Win32,60,z,1,0.642255,,,,,,,,0.642255,1,,,,,,291,NW,UN,16,ablint,PRETCH,z,,,,,,0.039407776,-0.396117017,0,0,0,,0,192,192,470,1,
,,,,,,,,,,,,,,,,,,5cf272137e2e1400157f2b3b,2020-11-26_11h00.22.783,lexical_decision_task_MP_exp2,2020.2.5,Win32,60,z,1,0.76894,,,,,,,,0.76894,1,,,,,,248,NW,UN,16,batrol,STROLE,z,,,,,,0.039407776,-0.396117017,0,0,0,,0,193,193,427,1,
,,,,,,,,,,,,,,,,,,5cf272137e2e1400157f2b3b,2020-11-26_11h00.22.783,lexical_decision_task_MP_exp2,2020.2.5,Win32,60,m,0,0.595465,,,,,,,,0.595465,0,,,,,,409,NW,"ID",16,elopia,ELOPIA,z,,,,,,0.039407776,-0.396117017,0,0,0,,0,194,194,348,1,
,,,,,,,,,,,,,,,,,,5cf272137e2e1400157f2b3b,2020-11-26_11h00.22.783,lexical_decision_task_MP_exp2,2020.2.5,Win32,60,z,1,0.510715,,,,,,,,0.510715,1,,,,,,340,NW,"ID",33,fiatch,FIATCH,z,,,,,,0.039407776,-0.396117017,0,0,0,,0,195,195,279,1,
,,,,,,,,,,,,,,,,,,5cf272137e2e1400157f2b3b,2020-11-26_11h00.22.783,lexical_decision_task_MP_exp2,2020.2.5,Win32,60,z,1,0.53955,,,,,,,,0.53955,1,,,,,,465,NW,UN,33,bafent,WHIVEX,z,,,,,,0.039407776,-0.396117017,0,0,0,,0,196,196,404,1,
,,,,,,,,,,,,,,,,,,5cf272137e2e1400157f2b3b,2020-11-26_11h00.22.783,lexical_decision_task_MP_exp2,2020.2.5,Win32,60,z,1,0.488905,,,,,,,,0.488905,1,,,,,,271,NW,UN,16,damilt,AUBRID,z,,,,,,0.039407776,-0.396117017,0,0,0,,0,197,197,450,1,
,,,,,,,,,,,,,,,,,,5cf272137e2e1400157f2b3b,2020-11-26_11h00.22.783,lexical_decision_task_MP_exp2,2020.2.5,Win32,60,z,1,0.494615,,,,,,,,0.494615,1,,,,,,439,NW,UN,33,saride,LIMPOR,z,,,,,,0.039407776,-0.396117017,0,0,0,,0,198,198,378,1,
,,,,,,,,,,,,,,,,,,5cf272137e2e1400157f2b3b,2020-11-26_11h00.22.783,lexical_decision_task_MP_exp2,2020.2.5,Win32,60,z,1,0.527145,,,,,,,,0.527145,1,,,,,,404,NW,"ID",16,cluirm,CLUIRM,z,,,,,,0.039407776,-0.396117017,0,0,0,,0,199,199,343,1,
,,,,,,,,,,,,,,,,,,5cf272137e2e1400157f2b3b,2020-11-26_11h00.22.783,lexical_decision_task_MP_exp2,2020.2.5,Win32,60,z,1,0.445975,,,,,,,,0.445975,1,,,,,,438,NW,UN,33,limpor,BAITCH,z,,,,,,0.039407776,-0.396117017,0,0,0,,0,200,200,377,1,
,,,,,,,,,,,,,,,,,,5cf272137e2e1400157f2b3b,2020-11-26_11h00.22.783,lexical_decision_task_MP_exp2,2020.2.5,Win32,60,m,1,0.618925,,,,,,,,0.618925,1,,,,,,119,WORD,"ID",33,spider,SPIDER,m,,,,,,0.039407776,-0.396117017,0,0,0,,0,201,201,58,1,
,,,,,,,,,,,,,,,,,,5cf272137e2e1400157f2b3b,2020-11-26_11h00.22.783,lexical_decision_task_MP_exp2,2020.2.5,Win32,60,m,1,0.59785,,,,,,,,0.59785,1,,,,,,59,WORD,UN,16,pencil,SPLINT,m,,,,,,0.039407776,-0.396117017,0,0,0,,0,202,202,238,1,
,,,,,,,,,,,,,,,,,,5cf272137e2e1400157f2b3b,2020-11-26_11h00.22.783,lexical_decision_task_MP_exp2,2020.2.5,Win32,60,m,1,0.585565,,,,,,,,0.585565,1,,,,,,222,WORD,UN,33,export,HINDER,m,,,,,,0.039407776,-0.396117017,0,0,0,,0,203,203,161,1,
,,,,,,,,,,,,,,,,,,5cf272137e2e1400157f2b3b,2020-11-26_11h00.22.783,lexical_decision_task_MP_exp2,2020.2.5,Win32,60,m,1,0.563405,,,,,,,,0.563405,1,,,,,,189,WORD,UN,33,backup,CENSOR,m,,,,,,0.039407776,-0.396117017,0,0,0,,0,204,204,128,1,
,,,,,,,,,,,,,,,,,,5cf272137e2e1400157f2b3b,2020-11-26_11h00.22.783,lexical_decision_task_MP_exp2,2020.2.5,Win32,60,z,1,0.474885,,,,,,,,0.474885,1,,,,,,395,NW,"ID",16,colury,COLURY,z,,,,,,0.039407776,-0.396117017,0,0,0,,0,205,205,334,1,
,,,,,,,,,,,,,,,,,,5cf272137e2e1400157f2b3b,2020-11-26_11h00.22.783,lexical_decision_task_MP_exp2,2020.2.5,Win32,60,m,1,0.462445,,,,,,,,0.462445,1,,,,,,239,WORD,UN,33,forest,LUMBER,m,,,,,,0.039407776,-0.396117017,0,0,0,,0,206,206,178,1,
,,,,,,,,,,,,,,,,,,5cf272137e2e1400157f2b3b,2020-11-26_11h00.22.783,lexical_decision_task_MP_exp2,2020.2.5,Win32,60,m,1,0.597815,,,,,,,,0.597815,1,,,,,,183,WORD,UN,33,sleazy,MILDEW,m,,,,,,0.039407776,-0.396117017,0,0,0,,0,207,207,122,1,
,,,,,,,,,,,,,,,,,,5cf272137e2e1400157f2b3b,2020-11-26_11h00.22.783,lexical_decision_task_MP_exp2,2020.2.5,Win32,60,m,1,0.49414,,,,,,,,0.49414,1,,,,,,21,WORD,UN,16,jockey,SIMPLE,m,,,,,,0.039407776,-0.396117017,0,0,0,,0,208,208,200,1,
,,,,,,,,,,,,,,,,,,5cf272137e2e1400157f2b3b,2020-11-26_11h00.22.783,lexical_decision_task_MP_exp2,2020.2.5,Win32,60,m,1,0.66056,,,,,,,,0.66056,1,,,,,,212,WORD,UN,33,squeal,VERIFY,m,,,,,,0.039407776,-0.396117017,0,0,0,,0,209,209,151,1,
,,,,,,,,,,,,,,,,,,5cf272137e2e1400157f2b3b,2020-11-26_11h00.22.783,lexical_decision_task_MP_exp2,2020.2.5,Win32,60,m,1,0.488485,,,,,,,,0.488485,1,,,,,,108,WORD,"ID",33,reckon,RECKON,m,,,,,,0.039407776,-0.396117017,0,0,0,,0,210,210,47,1,
,,,,,,,,,,,,,,,,,,5cf272137e2e1400157f2b3b,2020-11-26_11h00.22.783,lexical_decision_task_MP_exp2,2020.2.5,Win32,60,m,1,0.455795,,,,,,,,0.455795,1,,,,,,143,WORD,"ID",16,reason,REASON,m,,,,,,0.039407776,-0.396117017,0,0,0,,0,211,211,82,1,
,,,,,,,,,,,,,,,,,,5cf272137e2e1400157f2b3b,2020-11-26_11h00.22.783,lexical_decision_task_MP_exp2,2020.2.5,Win32,60,m,1,0.60271,,,,,,,,0.60271,1,,,,,,117,WORD,"ID",33,branch,BRANCH,m,,,,,,0.039407776,-0.396117017,0,0,0,,0,212,212,56,1,
,,,,,,,,,,,,,,,,,,5cf272137e2e1400157f2b3b,2020-11-26_11h00.22.783,lexical_decision_task_MP_exp2,2020.2.5,Win32,60,m,1,0.50972,,,,,,,,0.50972,1,,,,,,110,WORD,"ID",33,polite,POLITE,m,,,,,,0.039407776,-0.396117017,0,0,0,,0,213,213,49,1,
,,,,,,,,,,,,,,,,,,5cf272137e2e1400157f2b3b,2020-11-26_11h00.22.783,lexical_decision_task_MP_exp2,2020.2.5,Win32,60,z,1,0.50952,,,,,,,,0.50952,1,,,,,,347,NW,"ID",33,kerift,KERIFT,z,,,,,,0.039407776,-0.396117017,0,0,0,,0,214,214,286,1,
,,,,,,,,,,,,,,,,,,5cf272137e2e1400157f2b3b,2020-11-26_11h00.22.783,lexical_decision_task_MP_exp2,2020.2.5,Win32,60,z,1,0.579485,,,,,,,,0.579485,1,,,,,,417,NW,"ID",16,earoud,EAROUD,z,,,,,,0.039407776,-0.396117017,0,0,0,,0,215,215,356,1,
,,,,,,,,,,,,,,,,,,5cf272137e2e1400157f2b3b,2020-11-26_11h00.22.783,lexical_decision_task_MP_exp2,2020.2.5,Win32,60,z,1,0.51285,,,,,,,,0.51285,1,,,,,,419,NW,"ID",16,slount,SLOUNT,z,,,,,,0.039407776,-0.396117017,0,0,0,,0,216,216,358,1,
,,,,,,,,,,,,,,,,,,5cf272137e2e1400157f2b3b,2020-11-26_11h00.22.783,lexical_decision_task_MP_exp2,2020.2.5,Win32,60,z,0,0.42313,,,,,,,,0.42313,0,,,,,,215,WORD,UN,33,lumber,PHOBIA,m,,,,,,0.039407776,-0.396117017,0,0,0,,0,217,217,154,1,
,,,,,,,,,,,,,,,,,,5cf272137e2e1400157f2b3b,2020-11-26_11h00.22.783,lexical_decision_task_MP_exp2,2020.2.5,Win32,60,m,1,0.46958,,,,,,,,0.46958,1,,,,,,152,WORD,"ID",16,rocket,ROCKET,m,,,,,,0.039407776,-0.396117017,0,0,0,,0,218,218,91,1,
,,,,,,,,,,,,,,,,,,5cf272137e2e1400157f2b3b,2020-11-26_11h00.22.783,lexical_decision_task_MP_exp2,2020.2.5,Win32,60,m,1,0.448395,,,,,,,,0.448395,1,,,,,,93,WORD,"ID",33,public,PUBLIC,m,,,,,,0.039407776,-0.396117017,0,0,0,,0,219,219,32,1,
,,,,,,,,,,,,,,,,,,5cf272137e2e1400157f2b3b,2020-11-26_11h00.22.783,lexical_decision_task_MP_exp2,2020.2.5,Win32,60,z,1,0.558895,,,,,,,,0.558895,1,,,,,,466,NW,UN,33,robuly,HOCITE,z,,,,,,0.039407776,-0.396117017,0,0,0,,0,220,220,405,1,
,,,,,,,,,,,,,,,,,,5cf272137e2e1400157f2b3b,2020-11-26_11h00.22.783,lexical_decision_task_MP_exp2,2020.2.5,Win32,60,z,1,0.605425,,,,,,,,0.605425,1,,,,,,448,NW,UN,33,brunge,SADENT,z,,,,,,0.039407776,-0.396117017,0,0,0,,0,221,221,387,1,
,,,,,,,,,,,,,,,,,,5cf272137e2e1400157f2b3b,2020-11-26_11h00.22.783,lexical_decision_task_MP_exp2,2020.2.5,Win32,60,z,0,0.506675,,,,,,,,0.506675,0,,,,,,236,WORD,UN,33,grumpy,PIRATE,m,,,,,,0.039407776,-0.396117017,0,0,0,,0,222,222,175,1,
,,,,,,,,,,,,,,,,,,5cf272137e2e1400157f2b3b,2020-11-26_11h00.22.783,lexical_decision_task_MP_exp2,2020.2.5,Win32,60,m,1,0.507625,,,,,,,,0.507625,1,,,,,,133,WORD,"ID",16,chrome,CHROME,m,,,,,,0.039407776,-0.396117017,0,0,0,,0,223,223,72,1,
,,,,,,,,,,,,,,,,,,5cf272137e2e1400157f2b3b,2020-11-26_11h00.22.783,lexical_decision_task_MP_exp2,2020.2.5,Win32,60,z,1,0.707215,,,,,,,,0.707215,1,,,,,,367,NW,"ID",16,slique,SLIQUE,z,,,,,,0.039407776,-0.396117017,0,0,0,,0,224,224,306,1,
,,,,,,,,,,,,,,,,,,5cf272137e2e1400157f2b3b,2020-11-26_11h00.22.783,lexical_decision_task_MP_exp2,2020.2.5,Win32,60,m,1,0.52378,,,,,,,,0.52378,1,,,,,,144,WORD,"ID",16,sponge,SPONGE,m,,,,,,0.039407776,-0.396117017,0,0,0,,0,225,225,83,1,
,,,,,,,,,,,,,,,,,,5cf272137e2e1400157f2b3b,2020-11-26_11h00.22.783,lexical_decision_task_MP_exp2,2020.2.5,Win32,60,m,1,0.589305,,,,,,,,0.589305,1,,,,,,96,WORD,"ID",33,ignore,IGNORE,m,,,,,,0.039407776,-0.396117017,0,0,0,,0,226,226,35,1,
,,,,,,,,,,,,,,,,,,5cf272137e2e1400157f2b3b,2020-11-26_11h00.22.783,lexical_decision_task_MP_exp2,2020.2.5,Win32,60,m,1,0.628645,,,,,,,,0.628645,1,,,,,,161,WORD,"ID",16,pastor,PASTOR,m,,,,,,0.039407776,-0.396117017,0,0,0,,0,227,227,100,1,
,,,,,,,,,,,,,,,,,,5cf272137e2e1400157f2b3b,2020-11-26_11h00.22.783,lexical_decision_task_MP_exp2,2020.2.5,Win32,60,z,1,0.590045,,,,,,,,0.590045,1,,,,,,423,NW,UN,33,praile,STRELD,z,,,,,,0.039407776,-0.396117017,0,0,0,,0,228,228,362,1,
,,,,,,,,,,,,,,,,,,5cf272137e2e1400157f2b3b,2020-11-26_11h00.22.783,lexical_decision_task_MP_exp2,2020.2.5,Win32,60,m,1,0.58844,,,,,,,,0.58844,1,,,,,,26,WORD,UN,16,butler,SPRINT,m,,,,,,0.039407776,-0.396117017,0,0,0,,0,229,229,205,1,
,,,,,,,,,,,,,,,,,,5cf272137e2e1400157f2b3b,2020-11-26_11h00.22.783,lexical_decision_task_MP_exp2,2020.2.5,Win32,60,m,1,0.45611,,,,,,,,0.45611,1,,,,,,18,WORD,UN,16,patron,HUMBLE,m,,,,,,0.039407776,-0.396117017,0,0,0,,0,230,230,197,1,
,,,,,,,,,,,,,,,,,,5cf272137e2e1400157f2b3b,2020-11-26_11h00.22.783,lexical_decision_task_MP_exp2,2020.2.5,Win32,60,z,1,0.530075,,,,,,,,0.530075,1,,,,,,330,NW,"ID",33,kensom,KENSOM,z,,,,,,0.039407776,-0.396117017,0,0,0,,0,231,231,269,1,
,,,,,,,,,,,,,,,,,,5cf272137e2e1400157f2b3b,2020-11-26_11h00.22.783,lexical_decision_task_MP_exp2,2020.2.5,Win32,60,z,1,0.490215,,,,,,,,0.490215,1,,,,,,302,NW,"ID",33,miluer,MILUER,z,,,,,,0.039407776,-0.396117017,0,0,0,,0,232,232,241,1,
,,,,,,,,,,,,,,,,,,5cf272137e2e1400157f2b3b,2020-11-26_11h00.22.783,lexical_decision_task_MP_exp2,2020.2.5,Win32,60,m,1,0.50763,,,,,,,,0.50763,1,,,,,,30,WORD,UN,16,weapon,ORIENT,m,,,,,,0.039407776,-0.396117017,0,0,0,,0,233,233,209,1,
,,,,,,,,,,,,,,,,,,5cf272137e2e1400157f2b3b,2020-11-26_11h00.22.783,lexical_decision_task_MP_exp2,2020.2.5,Win32,60,z,1,0.506975,,,,,,,,0.506975,1,,,,,,408,NW,"ID",16,hurnia,HURNIA,z,,,,,,0.039407776,-0.396117017,0,0,0,,0,234,234,347,1,
,,,,,,,,,,,,,,,,,,5cf272137e2e1400157f2b3b,2020-11-26_11h00.22.783,lexical_decision_task_MP_exp2,2020.2.5,Win32,60,m,1,0.471505,,,,,,,,0.471505,1,,,,,,230,WORD,UN,33,mother,FRINGE,m,,,,,,0.039407776,-0.396117017,0,0,0,,0,235,235,169,1,
,,,,,,,,,,,,,,,,,,5cf272137e2e1400157f2b3b,2020-11-26_11h00.22.783,lexical_decision_task_MP_exp2,2020.2.5,Win32,60,m,1,0.512765,,,,,,,,0.512765,1,,,,,,159,WORD,"ID",16,detail,DETAIL,m,,,,,,0.039407776,-0.396117017,0,0,0,,0,236,236,98,1,
,,,,,,,,,,,,,,,,,,5cf272137e2e1400157f2b3b,2020-11-26_11h00.22.783,lexical_decision_task_MP_exp2,2020.2.5,Win32,60,m,1,0.579315,,,,,,,,0.579315,1,,,,,,8,WORD,UN,16,hustle,ABRUPT,m,,,,,,0.039407776,-0.396117017,0,0,0,,0,237,237,187,1,
,,,,,,,,,,,,,,,,,,5cf272137e2e1400157f2b3b,2020-11-26_11h00.22.783,lexical_decision_task_MP_exp2,2020.2.5,Win32,60,z,1,0.852975,,,,,,,,0.852975,1,,,,,,462,NW,UN,33,kispel,ABSULT,z,,,,,,0.039407776,-0.396117017,0,0,0,,0,238,238,401,1,
,,,,,,,,,,,,,,,,,,5cf272137e2e1400157f2b3b,2020-11-26_11h00.22.783,lexical_decision_task_MP_exp2,2020.2.5,Win32,60,z,1,0.491845,,,,,,,,0.491845,1,,,,,,288,NW,UN,16,starby,YACEUP,z,,,,,,0.039407776,-0.396117017,0,0,0,,0,239,239,467,1,
,,,,,,,,,,,,,,,,,,5cf272137e2e1400157f2b3b,2020-11-26_11h00.22.783,lexical_decision_task_MP_exp2,2020.2.5,Win32,60,z,1,0.671945,,,,,,,,0.671945,1,,,,,,261,NW,UN,16,quilew,STUNCH,z,,,,,,0.039407776,-0.396117017,0,0,0,,0,240,240,440,1,
,,,,,,,,,,,,,,,,,,5cf272137e2e1400157f2b3b,2020-11-26_11h00.22.783,lexical_decision_task_MP_exp2,2020.2.5,Win32,60,m,1,0.540315,,,,,,,,0.540315,1,,,,,,155,WORD,"ID",16,lizard,LIZARD,m,,,,,,0.039407776,-0.396117017,0,0,0,space,0,241,241,94,1,1.72398
,,,,,,,,,,,,,,,,,,5cf272137e2e1400157f2b3b,2020-11-26_11h00.22.783,lexical_decision_task_MP_exp2,2020.2.5,Win32,60,z,1,0.571935,,,,,,,,0.571935,1,,,,,,390,NW,"ID",16,hatrus,HATRUS,z,,,,,,0.039407776,-0.396117017,0,0,0,,0,242,242,329,1,
,,,,,,,,,,,,,,,,,,5cf272137e2e1400157f2b3b,2020-11-26_11h00.22.783,lexical_decision_task_MP_exp2,2020.2.5,Win32,60,z,1,0.511945,,,,,,,,0.511945,1,,,,,,257,NW,UN,16,poluth,VENIOD,z,,,,,,0.039407776,-0.396117017,0,0,0,,0,243,243,436,1,
,,,,,,,,,,,,,,,,,,5cf272137e2e1400157f2b3b,2020-11-26_11h00.22.783,lexical_decision_task_MP_exp2,2020.2.5,Win32,60,m,1,0.522255,,,,,,,,0.522255,1,,,,,,164,WORD,"ID",16,market,MARKET,m,,,,,,0.039407776,-0.396117017,0,0,0,,0,244,244,103,1,
,,,,,,,,,,,,,,,,,,5cf272137e2e1400157f2b3b,2020-11-26_11h00.22.783,lexical_decision_task_MP_exp2,2020.2.5,Win32,60,z,1,0.5388,,,,,,,,0.5388,1,,,,,,396,NW,"ID",16,flengy,FLENGY,z,,,,,,0.039407776,-0.396117017,0,0,0,,0,245,245,335,1,
,,,,,,,,,,,,,,,,,,5cf272137e2e1400157f2b3b,2020-11-26_11h00.22.783,lexical_decision_task_MP_exp2,2020.2.5,Win32,60,m,1,0.525065,,,,,,,,0.525065,1,,,,,,57,WORD,UN,16,danger,CHANGE,m,,,,,,0.039407776,-0.396117017,0,0,0,,0,246,246,236,1,
,,,,,,,,,,,,,,,,,,5cf272137e2e1400157f2b3b,2020-11-26_11h00.22.783,lexical_decision_task_MP_exp2,2020.2.5,Win32,60,m,1,0.471035,,,,,,,,0.471035,1,,,,,,109,WORD,"ID",33,wonder,WONDER,m,,,,,,0.039407776,-0.396117017,0,0,0,,0,247,247,48,1,
,,,,,,,,,,,,,,,,,,5cf272137e2e1400157f2b3b,2020-11-26_11h00.22.783,lexical_decision_task_MP_exp2,2020.2.5,Win32,60,m,1,0.396085,,,,,,,,0.396085,1,,,,,,38,WORD,UN,16,insect,POWDER,m,,,,,,0.039407776,-0.396117017,0,0,0,,0,248,248,217,1,
,,,,,,,,,,,,,,,,,,5cf272137e2e1400157f2b3b,2020-11-26_11h00.22.783,lexical_decision_task_MP_exp2,2020.2.5,Win32,60,z,1,0.72147,,,,,,,,0.72147,1,,,,,,473,NW,UN,33,hablin,CRIBLE,z,,,,,,0.039407776,-0.396117017,0,0,0,,0,249,249,412,1,
,,,,,,,,,,,,,,,,,,5cf272137e2e1400157f2b3b,2020-11-26_11h00.22.783,lexical_decision_task_MP_exp2,2020.2.5,Win32,60,m,1,0.50898,,,,,,,,0.50898,1,,,,,,197,WORD,UN,33,wicked,STREAM,m,,,,,,0.039407776,-0.396117017,0,0,0,,0,250,250,136,1,
,,,,,,,,,,,,,,,,,,5cf272137e2e1400157f2b3b,2020-11-26_11h00.22.783,lexical_decision_task_MP_exp2,2020.2.5,Win32,60,z,0,0.522885,,,,,,,,0.522885,0,,,,,,176,WORD,"ID",16,strife,STRIFE,m,,,,,,0.039407776,-0.396117017,0,0,0,,0,251,251,115,1,
,,,,,,,,,,,,,,,,,,5cf272137e2e1400157f2b3b,2020-11-26_11h00.22.783,lexical_decision_task_MP_exp2,2020.2.5,Win32,60,m,1,0.54251,,,,,,,,0.54251,1,,,,,,216,WORD,UN,33,liquor,BEHALF,m,,,,,,0.039407776,-0.396117017,0,0,0,,0,252,252,155,1,
,,,,,,,,,,,,,,,,,,5cf272137e2e1400157f2b3b,2020-11-26_11h00.22.783,lexical_decision_task_MP_exp2,2020.2.5,Win32,60,z,1,0.819025,,,,,,,,0.819025,1,,,,,,348,NW,"ID",33,dumple,DUMPLE,z,,,,,,0.039407776,-0.396117017,0,0,0,,0,253,253,287,1,
,,,,,,,,,,,,,,,,,,5cf272137e2e1400157f2b3b,2020-11-26_11h00.22.783,lexical_decision_task_MP_exp2,2020.2.5,Win32,60,z,1,0.555405,,,,,,,,0.555405,1,,,,,,433,NW,UN,33,pitrom,DRANCE,z,,,,,,0.039407776,-0.396117017,0,0,0,,0,254,254,372,1,
,,,,,,,,,,,,,,,,,,5cf272137e2e1400157f2b3b,2020-11-26_11h00.22.783,lexical_decision_task_MP_exp2,2020.2.5,Win32,60,z,1,0.45329,,,,,,,,0.45329,1,,,,,,460,NW,UN,33,justre,MINGAR,z,,,,,,0.039407776,-0.396117017,0,0,0,,0,255,255,399,1,
,,,,,,,,,,,,,,,,,,5cf272137e2e1400157f2b3b,2020-11-26_11h00.22.783,lexical_decision_task_MP_exp2,2020.2.5,Win32,60,z,1,0.52251,,,,,,,,0.52251,1,,,,,,358,NW,"ID",33,fleack,FLEACK,z,,,,,,0.039407776,-0.396117017,0,0,0,,0,256,256,297,1,
,,,,,,,,,,,,,,,,,,5cf272137e2e1400157f2b3b,2020-11-26_11h00.22.783,lexical_decision_task_MP_exp2,2020.2.5,Win32,60,m,1,0.677695,,,,,,,,0.677695,1,,,,,,209,WORD,UN,33,monkey,SEARCH,m,,,,,,0.039407776,-0.396117017,0,0,0,,0,257,257,148,1,
,,,,,,,,,,,,,,,,,,5cf272137e2e1400157f2b3b,2020-11-26_11h00.22.783,lexical_decision_task_MP_exp2,2020.2.5,Win32,60,m,1,0.562105,,,,,,,,0.562105,1,,,,,,186,WORD,UN,33,course,PORTAL,m,,,,,,0.039407776,-0.396117017,0,0,0,,0,258,258,125,1,
,,,,,,,,,,,,,,,,,,5cf272137e2e1400157f2b3b,2020-11-26_11h00.22.783,lexical_decision_task_MP_exp2,2020.2.5,Win32,60,z,0,0.62176,,,,,,,,0.62176,0,,,,,,22,WORD,UN,16,wealth,JOCKEY,m,,,,,,0.039407776,-0.396117017,0,0,0,,0,259,259,201,1,
,,,,,,,,,,,,,,,,,,5cf272137e2e1400157f2b3b,2020-11-26_11h00.22.783,lexical_decision_task_MP_exp2,2020.2.5,Win32,60,z,1,0.53804,,,,,,,,0.53804,1,,,,,,297,NW,UN,16,piergy,FERTIC,z,,,,,,0.039407776,-0.396117017,0,0,0,,0,260,260,476,1,
,,,,,,,,,,,,,,,,,,5cf272137e2e1400157f2b3b,2020-11-26_11h00.22.783,lexical_decision_task_MP_exp2,2020.2.5,Win32,60,m,1,0.66085,,,,,,,,0.66085,1,,,,,,90,WORD,"ID",33,relish,RELISH,m,,,,,,0.039407776,-0.396117017,0,0,0,,0,261,261,29,1,
,,,,,,,,,,,,,,,,,,5cf272137e2e1400157f2b3b,2020-11-26_11h00.22.783,lexical_decision_task_MP_exp2,2020.2.5,Win32,60,m,0,0.50494,,,,,,,,0.50494,0,,,,,,425,NW,UN,33,urivel,FRUDGE,z,,,,,,0.039407776,-0.396117017,0,0,0,,0,262,262,364,1,
,,,,,,,,,,,,,,,,,,5cf272137e2e1400157f2b3b,2020-11-26_11h00.22.783,lexical_decision_task_MP_exp2,2020.2.5,Win32,60,m,1,0.504665,,,,,,,,0.504665,1,,,,,,24,WORD,UN,16,domain,PRAISE,m,,,,,,0.039407776,-0.396117017,0,0,0,,0,263,263,203,1,
,,,,,,,,,,,,,,,,,,5cf272137e2e1400157f2b3b,2020-11-26_11h00.22.783,lexical_decision_task_MP_exp2,2020.2.5,Win32,60,z,1,0.5351,,,,,,,,0.5351,1,,,,,,406,NW,"ID",16,nouply,NOUPLY,z,,,,,,0.039407776,-0.396117017,0,0,0,,0,264,264,345,1,
,,,,,,,,,,,,,,,,,,5cf272137e2e1400157f2b3b,2020-11-26_11h00.22.783,lexical_decision_task_MP_exp2,2020.2.5,Win32,60,z,1,0.506185,,,,,,,,0.506185,1,,,,,,450,NW,UN,33,cainky,PHRECT,z,,,,,,0.039407776,-0.396117017,0,0,0,,0,265,265,389,1,
,,,,,,,,,,,,,,,,,,5cf272137e2e1400157f2b3b,2020-11-26_11h00.22.783,lexical_decision_task_MP_exp2,2020.2.5,Win32,60,z,1,0.4654,,,,,,,,0.4654,1,,,,,,327,NW,"ID",33,plenac,PLENAC,z,,,,,,0.039407776,-0.396117017,0,0,0,,0,266,266,266,1,
,,,,,,,,,,,,,,,,,,5cf272137e2e1400157f2b3b,2020-11-26_11h00.22.783,lexical_decision_task_MP_exp2,2020.2.5,Win32,60,z,1,0.54471,,,,,,,,0.54471,1,,,,,,443,NW,UN,33,jaunce,DORSEX,z,,,,,,0.039407776,-0.396117017,0,0,0,,0,267,267,382,1,
,,,,,,,,,,,,,,,,,,5cf272137e2e1400157f2b3b,2020-11-26_11h00.22.783,lexical_decision_task_MP_exp2,2020.2.5,Win32,60,z,1,0.715505,,,,,,,,0.715505,1,,,,,,262,NW,UN,16,dolica,QUILEW,z,,,,,,0.039407776,-0.396117017,0,0,0,,0,268,268,441,1,
,,,,,,,,,,,,,,,,,,5cf272137e2e1400157f2b3b,2020-11-26_11h00.22.783,lexical_decision_task_MP_exp2,2020.2.5,Win32,60,m,1,0.57977,,,,,,,,0.57977,1,,,,,,98,WORD,"ID",33,belong,BELONG,m,,,,,,0.039407776,-0.396117017,0,0,0,,0,269,269,37,1,
,,,,,,,,,,,,,,,,,,5cf272137e2e1400157f2b3b,2020-11-26_11h00.22.783,lexical_decision_task_MP_exp2,2020.2.5,Win32,60,z,1,0.525685,,,,,,,,0.525685,1,,,,,,323,NW,"ID",33,rosail,ROSAIL,z,,,,,,0.039407776,-0.396117017,0,0,0,,0,270,270,262,1,
,,,,,,,,,,,,,,,,,,5cf272137e2e1400157f2b3b,2020-11-26_11h00.22.783,lexical_decision_task_MP_exp2,2020.2.5,Win32,60,m,0,1.103565,,,,,,,,1.103565,0,,,,,,476,NW,UN,33,photie,JOSTED,z,,,,,,0.039407776,-0.396117017,0,0,0,,0,271,271,415,1,
,,,,,,,,,,,,,,,,,,5cf272137e2e1400157f2b3b,2020-11-26_11h00.22.783,lexical_decision_task_MP_exp2,2020.2.5,Win32,60,m,1,0.67699,,,,,,,,0.67699,1,,,,,,177,WORD,"ID",16,advent,ADVENT,m,,,,,,0.039407776,-0.396117017,0,0,0,,0,272,272,116,1,
,,,,,,,,,,,,,,,,,,5cf272137e2e1400157f2b3b,2020-11-26_11h00.22.783,lexical_decision_task_MP_exp2,2020.2.5,Win32,60,z,1,1.053715,,,,,,,,1.053715,1,,,,,,454,NW,UN,33,tondle,SCOUGE,z,,,,,,0.039407776,-0.396117017,0,0,0,,0,273,273,393,1,
,,,,,,,,,,,,,,,,,,5cf272137e2e1400157f2b3b,2020-11-26_11h00.22.783,lexical_decision_task_MP_exp2,2020.2.5,Win32,60,,0,,,,,,,,,1.053715,-1,,,,,,299,NW,UN,16,yarion,STURCH,z,,,,,,0.087596078,-0.395190375,0,0,0,,0,274,274,478,1,
,,,,,,,,,,,,,,,,,,5cf272137e2e1400157f2b3b,2020-11-26_11h00.22.783,lexical_decision_task_MP_exp2,2020.2.5,Win32,60,,0,,,,,,,,,1.053715,-1,,,,,,414,NW,"ID",16,serbol,SERBOL,z,,,,,,0.087596078,-0.395190375,0,0,0,,0,275,275,353,1,
,,,,,,,,,,,,,,,,,,5cf272137e2e1400157f2b3b,2020-11-26_11h00.22.783,lexical_decision_task_MP_exp2,2020.2.5,Win32,60,z,1,0.5174,,,,,,,,0.5174,1,,,,,,384,NW,"ID",16,guesco,GUESCO,z,,,,,,0.087596078,-0.395190375,0,0,0,,0,276,276,323,1,
,,,,,,,,,,,,,,,,,,5cf272137e2e1400157f2b3b,2020-11-26_11h00.22.783,lexical_decision_task_MP_exp2,2020.2.5,Win32,60,m,1,0.64227,,,,,,,,0.64227,1,,,,,,165,WORD,"ID",16,invest,INVEST,m,,,,,,0.087596078,-0.395190375,0,0,0,,0,277,277,104,1,
,,,,,,,,,,,,,,,,,,5cf272137e2e1400157f2b3b,2020-11-26_11h00.22.783,lexical_decision_task_MP_exp2,2020.2.5,Win32,60,m,0,0.769115,,,,,,,,0.769115,0,,,,,,270,NW,UN,16,aubrid,WRIMSY,z,,,,,,0.087596078,-0.395190375,0,0,0,,0,278,278,449,1,
,,,,,,,,,,,,,,,,,,5cf272137e2e1400157f2b3b,2020-11-26_11h00.22.783,lexical_decision_task_MP_exp2,2020.2.5,Win32,60,m,0,0.521515,,,,,,,,0.521515,0,,,,,,285,NW,UN,16,reldon,PRUDGE,z,,,,,,0.087596078,-0.395190375,0,0,0,,0,279,279,464,1,
,,,,,,,,,,,,,,,,,,5cf272137e2e1400157f2b3b,2020-11-26_11h00.22.783,lexical_decision_task_MP_exp2,2020.2.5,Win32,60,m,1,0.593665,,,,,,,,0.593665,1,,,,,,217,WORD,UN,33,shrink,LIQUOR,m,,,,,,0.087596078,-0.395190375,0,0,0,,0,280,280,156,1,
,,,,,,,,,,,,,,,,,,5cf272137e2e1400157f2b3b,2020-11-26_11h00.22.783,lexical_decision_task_MP_exp2,2020.2.5,Win32,60,m,1,0.554525,,,,,,,,0.554525,1,,,,,,62,WORD,"ID",33,region,REGION,m,,,,,,0.087596078,-0.395190375,0,0,0,,0,281,281,1,1,
,,,,,,,,,,,,,,,,,,5cf272137e2e1400157f2b3b,2020-11-26_11h00.22.783,lexical_decision_task_MP_exp2,2020.2.5,Win32,60,m,1,0.47463,,,,,,,,0.47463,1,,,,,,63,WORD,"ID",33,launch,LAUNCH,m,,,,,,0.087596078,-0.395190375,0,0,0,,0,282,282,2,1,
,,,,,,,,,,,,,,,,,,5cf272137e2e1400157f2b3b,2020-11-26_11h00.22.783,lexical_decision_task_MP_exp2,2020.2.5,Win32,60,z,1,0.522,,,,,,,,0.522,1,,,,,,282,NW,UN,16,veralf,PORLEX,z,,,,,,0.087596078,-0.395190375,0,0,0,,0,283,283,461,1,
,,,,,,,,,,,,,,,,,,5cf272137e2e1400157f2b3b,2020-11-26_11h00.22.783,lexical_decision_task_MP_exp2,2020.2.5,Win32,60,z,1,0.601975,,,,,,,,0.601975,1,,,,,,431,NW,UN,33,lunker,CHRUMS,z,,,,,,0.087596078,-0.395190375,0,0,0,,0,284,284,370,1,
,,,,,,,,,,,,,,,,,,5cf272137e2e1400157f2b3b,2020-11-26_11h00.22.783,lexical_decision_task_MP_exp2,2020.2.5,Win32,60,z,1,0.589935,,,,,,,,0.589935,1,,,,,,398,NW,"ID",16,blunde,BLUNDE,z,,,,,,0.087596078,-0.395190375,0,0,0,,0,285,285,337,1,
,,,,,,,,,,,,,,,,,,5cf272137e2e1400157f2b3b,2020-11-26_11h00.22.783,lexical_decision_task_MP_exp2,2020.2.5,Win32,60,z,1,0.613175,,,,,,,,0.613175,1,,,,,,317,NW,"ID",33,worbal,WORBAL,z,,,,,,0.087596078,-0.395190375,0,0,0,,0,286,286,256,1,
,,,,,,,,,,,,,,,,,,5cf272137e2e1400157f2b3b,2020-11-26_11h00.22.783,lexical_decision_task_MP_exp2,2020.2.5,Win32,60,m,1,0.491325,,,,,,,,0.491325,1,,,,,,39,WORD,UN,16,convey,INSECT,m,,,,,,0.087596078,-0.395190375,0,0,0,,0,287,287,218,1,
,,,,,,,,,,,,,,,,,,5cf272137e2e1400157f2b3b,2020-11-26_11h00.22.783,lexical_decision_task_MP_exp2,2020.2.5,Win32,60,z,1,0.47641,,,,,,,,0.47641,1,,,,,,385,NW,"ID",16,veigma,VEIGMA,z,,,,,,0.087596078,-0.395190375,0,0,0,,0,288,288,324,1,
,,,,,,,,,,,,,,,,,,5cf272137e2e1400157f2b3b,2020-11-26_11h00.22.783,lexical_decision_task_MP_exp2,2020.2.5,Win32,60,z,1,0.573255,,,,,,,,0.573255,1,,,,,,251,NW,UN,16,stapod,LUPICT,z,,,,,,0.087596078,-0.395190375,0,0,0,,0,289,289,430,1,
,,,,,,,,,,,,,,,,,,5cf272137e2e1400157f2b3b,2020-11-26_11h00.22.783,lexical_decision_task_MP_exp2,2020.2.5,Win32,60,z,1,0.622415,,,,,,,,0.622415,1,,,,,,375,NW,"ID",16,yorque,YORQUE,z,,,,,,0.087596078,-0.395190375,0,0,0,,0,290,290,314,1,
,,,,,,,,,,,,,,,,,,5cf272137e2e1400157f2b3b,2020-11-26_11h00.22.783,lexical_decision_task_MP_exp2,2020.2.5,Win32,60,m,1,0.527975,,,,,,,,0.527975,1,,,,,,201,WORD,UN,33,factor,ADMIRE,m,,,,,,0.087596078,-0.395190375,0,0,0,,0,291,291,140,1,
,,,,,,,,,,,,,,,,,,5cf272137e2e1400157f2b3b,2020-11-26_11h00.22.783,lexical_decision_task_MP_exp2,2020.2.5,Win32,60,m,1,0.567805,,,,,,,,0.567805,1,,,,,,225,WORD,UN,33,casino,VULGAR,m,,,,,,0.087596078,-0.395190375,0,0,0,,0,292,292,164,1,
,,,,,,,,,,,,,,,,,,5cf272137e2e1400157f2b3b,2020-11-26_11h00.22.783,lexical_decision_task_MP_exp2,2020.2.5,Win32,60,m,1,0.4219,,,,,,,,0.4219,1,,,,,,229,WORD,UN,33,fringe,MOTHER,m,,,,,,0.087596078,-0.395190375,0,0,0,,0,293,293,168,1,
,,,,,,,,,,,,,,,,,,5cf272137e2e1400157f2b3b,2020-11-26_11h00.22.783,lexical_decision_task_MP_exp2,2020.2.5,Win32,60,z,1,0.469015,,,,,,,,0.469015,1,,,,,,349,NW,"ID",33,asylen,ASYLEN,z,,,,,,0.087596078,-0.395190375,0,0,0,,0,294,294,288,1,
,,,,,,,,,,,,,,,,,,5cf272137e2e1400157f2b3b,2020-11-26_11h00.22.783,lexical_decision_task_MP_exp2,2020.2.5,Win32,60,z,1,0.5362,,,,,,,,0.5362,1,,,,,,444,NW,UN,33,minkel,JAUNCE,z,,,,,,0.087596078,-0.395190375,0,0,0,,0,295,295,383,1,
,,,,,,,,,,,,,,,,,,5cf272137e2e1400157f2b3b,2020-11-26_11h00.22.783,lexical_decision_task_MP_exp2,2020.2.5,Win32,60,m,1,0.52784,,,,,,,,0.52784,1,,,,,,42,WORD,UN,16,tongue,CHAPEL,m,,,,,,0.087596078,-0.395190375,0,0,0,,0,296,296,221,1,
,,,,,,,,,,,,,,,,,,5cf272137e2e1400157f2b3b,2020-11-26_11h00.22.783,lexical_decision_task_MP_exp2,2020.2.5,Win32,60,z,1,0.46013,,,,,,,,0.46013,1,,,,,,300,NW,UN,16,smenco,YARION,z,,,,,,0.087596078,-0.395190375,0,0,0,,0,297,297,479,1,
,,,,,,,,,,,,,,,,,,5cf272137e2e1400157f2b3b,2020-11-26_11h00.22.783,lexical_decision_task_MP_exp2,2020.2.5,Win32,60,z,1,0.516535,,,,,,,,0.516535,1,,,,,,432,NW,UN,33,drance,LUNKER,z,,,,,,0.087596078,-0.395190375,0,0,0,,0,298,298,371,1,
,,,,,,,,,,,,,,,,,,5cf272137e2e1400157f2b3b,2020-11-26_11h00.22.783,lexical_decision_task_MP_exp2,2020.2.5,Win32,60,z,1,0.78978,,,,,,,,0.78978,1,,,,,,352,NW,"ID",33,tringe,TRINGE,z,,,,,,0.087596078,-0.395190375,0,0,0,,0,299,299,291,1,
,,,,,,,,,,,,,,,,,,5cf272137e2e1400157f2b3b,2020-11-26_11h00.22.783,lexical_decision_task_MP_exp2,2020.2.5,Win32,60,z,1,0.509465,,,,,,,,0.509465,1,,,,,,391,NW,"ID",16,theldy,THELDY,z,,,,,,0.087596078,-0.395190375,0,0,0,,0,300,300,330,1,
,,,,,,,,,,,,,,,,,,5cf272137e2e1400157f2b3b,2020-11-26_11h00.22.783,lexical_decision_task_MP_exp2,2020.2.5,Win32,60,z,1,0.43824,,,,,,,,0.43824,1,,,,,,298,NW,UN,16,sturch,PIERGY,z,,,,,,0.087596078,-0.395190375,0,0,0,,0,301,301,477,1,
,,,,,,,,,,,,,,,,,,5cf272137e2e1400157f2b3b,2020-11-26_11h00.22.783,lexical_decision_task_MP_exp2,2020.2.5,Win32,60,m,1,0.503785,,,,,,,,0.503785,1,,,,,,23,WORD,UN,16,praise,WEALTH,m,,,,,,0.087596078,-0.395190375,0,0,0,,0,302,302,202,1,
,,,,,,,,,,,,,,,,,,5cf272137e2e1400157f2b3b,2020-11-26_11h00.22.783,lexical_decision_task_MP_exp2,2020.2.5,Win32,60,z,1,0.451695,,,,,,,,0.451695,1,,,,,,312,NW,"ID",33,nerawl,NERAWL,z,,,,,,0.087596078,-0.395190375,0,0,0,,0,303,303,251,1,
,,,,,,,,,,,,,,,,,,5cf272137e2e1400157f2b3b,2020-11-26_11h00.22.783,lexical_decision_task_MP_exp2,2020.2.5,Win32,60,z,0,0.618415,,,,,,,,0.618415,0,,,,,,203,WORD,UN,33,burden,PHRASE,m,,,,,,0.087596078,-0.395190375,0,0,0,,0,304,304,142,1,
,,,,,,,,,,,,,,,,,,5cf272137e2e1400157f2b3b,2020-11-26_11h00.22.783,lexical_decision_task_MP_exp2,2020.2.5,Win32,60,z,1,0.735425,,,,,,,,0.735425,1,,,,,,357,NW,"ID",33,derain,DERAIN,z,,,,,,0.087596078,-0.395190375,0,0,0,,0,305,305,296,1,
,,,,,,,,,,,,,,,,,,5cf272137e2e1400157f2b3b,2020-11-26_11h00.22.783,lexical_decision_task_MP_exp2,2020.2.5,Win32,60,m,1,0.52956,,,,,,,,0.52956,1,,,,,,58,WORD,UN,16,splint,FOSTER,m,,,,,,0.087596078,-0.395190375,0,0,0,,0,306,306,237,1,
,,,,,,,,,,,,,,,,,,5cf272137e2e1400157f2b3b,2020-11-26_11h00.22.783,lexical_decision_task_MP_exp2,2020.2.5,Win32,60,z,1,0.454735,,,,,,,,0.454735,1,,,,,,283,NW,UN,16,shaple,VERALF,z,,,,,,0.087596078,-0.395190375,0,0,0,,0,307,307,462,1,
,,,,,,,,,,,,,,,,,,5cf272137e2e1400157f2b3b,2020-11-26_11h00.22.783,lexical_decision_task_MP_exp2,2020.2.5,Win32,60,m,1,0.540835,,,,,,,,0.540835,1,,,,,,192,WORD,UN,33,object,PLAGUE,m,,,,,,0.087596078,-0.395190375,0,0,0,,0,308,308,131,1,
,,,,,,,,,,,,,,,,,,5cf272137e2e1400157f2b3b,2020-11-26_11h00.22.783,lexical_decision_task_MP_exp2,2020.2.5,Win32,60,m,1,0.47204,,,,,,,,0.47204,1,,,,,,163,WORD,"ID",16,string,STRING,m,,,,,,0.087596078,-0.395190375,0,0,0,,0,309,309,102,1,
,,,,,,,,,,,,,,,,,,5cf272137e2e1400157f2b3b,2020-11-26_11h00.22.783,lexical_decision_task_MP_exp2,2020.2.5,Win32,60,z,1,0.50435,,,,,,,,0.50435,1,,,,,,382,NW,"ID",16,sarley,SARLEY,z,,,,,,0.087596078,-0.395190375,0,0,0,,0,310,310,321,1,
,,,,,,,,,,,,,,,,,,5cf272137e2e1400157f2b3b,2020-11-26_11h00.22.783,lexical_decision_task_MP_exp2,2020.2.5,Win32,60,z,1,0.48575,,,,,,,,0.48575,1,,,,,,296,NW,UN,16,fertic,BEINCH,z,,,,,,0.087596078,-0.395190375,0,0,0,,0,311,311,475,1,
,,,,,,,,,,,,,,,,,,5cf272137e2e1400157f2b3b,2020-11-26_11h00.22.783,lexical_decision_task_MP_exp2,2020.2.5,Win32,60,z,0,0.443005,,,,,,,,0.443005,0,,,,,,10,WORD,UN,16,cruise,ETHNIC,m,,,,,,0.087596078,-0.395190375,0,0,0,,0,312,312,189,1,
,,,,,,,,,,,,,,,,,,5cf272137e2e1400157f2b3b,2020-11-26_11h00.22.783,lexical_decision_task_MP_exp2,2020.2.5,Win32,60,z,1,0.561555,,,,,,,,0.561555,1,,,,,,442,NW,UN,33,dorsex,ABOUNE,z,,,,,,0.087596078,-0.395190375,0,0,0,,0,313,313,381,1,
,,,,,,,,,,,,,,,,,,5cf272137e2e1400157f2b3b,2020-11-26_11h00.22.783,lexical_decision_task_MP_exp2,2020.2.5,Win32,60,m,1,0.56055,,,,,,,,0.56055,1,,,,,,48,WORD,UN,16,survey,WALNUT,m,,,,,,0.087596078,-0.395190375,0,0,0,,0,314,314,227,1,
,,,,,,,,,,,,,,,,,,5cf272137e2e1400157f2b3b,2020-11-26_11h00.22.783,lexical_decision_task_MP_exp2,2020.2.5,Win32,60,m,1,0.46188,,,,,,,,0.46188,1,,,,,,83,WORD,"ID",33,result,RESULT,m,,,,,,0.087596078,-0.395190375,0,0,0,,0,315,315,22,1,
,,,,,,,,,,,,,,,,,,5cf272137e2e1400157f2b3b,2020-11-26_11h00.22.783,lexical_decision_task_MP_exp2,2020.2.5,Win32,60,m,1,0.495245,,,,,,,,0.495245,1,,,,,,157,WORD,"ID",16,dragon,DRAGON,m,,,,,,0.087596078,-0.395190375,0,0,0,,0,316,316,96,1,
,,,,,,,,,,,,,,,,,,5cf272137e2e1400157f2b3b,2020-11-26_11h00.22.783,lexical_decision_task_MP_exp2,2020.2.5,Win32,60,z,1,0.60206,,,,,,,,0.60206,1,,,,,,280,NW,UN,16,melaty,CURBOL,z,,,,,,0.087596078,-0.395190375,0,0,0,,0,317,317,459,1,
,,,,,,,,,,,,,,,,,,5cf272137e2e1400157f2b3b,2020-11-26_11h00.22.783,lexical_decision_task_MP_exp2,2020.2.5,Win32,60,z,1,0.441575,,,,,,,,0.441575,1,,,,,,365,NW,"ID",16,guairt,GUAIRT,z,,,,,,0.087596078,-0.395190375,0,0,0,,0,318,318,304,1,
,,,,,,,,,,,,,,,,,,5cf272137e2e1400157f2b3b,2020-11-26_11h00.22.783,lexical_decision_task_MP_exp2,2020.2.5,Win32,60,z,1,0.47782,,,,,,,,0.47782,1,,,,,,266,NW,UN,16,pasink,VARMIT,z,,,,,,0.087596078,-0.395190375,0,0,0,,0,319,319,445,1,
,,,,,,,,,,,,,,,,,,5cf272137e2e1400157f2b3b,2020-11-26_11h00.22.783,lexical_decision_task_MP_exp2,2020.2.5,Win32,60,z,1,0.49363,,,,,,,,0.49363,1,,,,,,336,NW,"ID",33,ghodus,GHODUS,z,,,,,,0.087596078,-0.395190375,0,0,0,,0,320,320,275,1,
,,,,,,,,,,,,,,,,,,5cf272137e2e1400157f2b3b,2020-11-26_11h00.22.783,lexical_decision_task_MP_exp2,2020.2.5,Win32,60,m,1,0.486755,,,,,,,,0.486755,1,,,,,,6,WORD,UN,16,anchor,BUNDLE,m,,,,,,0.087596078,-0.395190375,0,0,0,,0,321,321,185,1,
,,,,,,,,,,,,,,,,,,5cf272137e2e1400157f2b3b,2020-11-26_11h00.22.783,lexical_decision_task_MP_exp2,2020.2.5,Win32,60,z,1,0.55496,,,,,,,,0.55496,1,,,,,,464,NW,UN,33,whivex,CHAITE,z,,,,,,0.087596078,-0.395190375,0,0,0,,0,322,322,403,1,
,,,,,,,,,,,,,,,,,,5cf272137e2e1400157f2b3b,2020-11-26_11h00.22.783,lexical_decision_task_MP_exp2,2020.2.5,Win32,60,z,1,0.7717,,,,,,,,0.7717,1,,,,,,284,NW,UN,16,prudge,SHAPLE,z,,,,,,0.087596078,-0.395190375,0,0,0,,0,323,323,463,1,
,,,,,,,,,,,,,,,,,,5cf272137e2e1400157f2b3b,2020-11-26_11h00.22.783,lexical_decision_task_MP_exp2,2020.2.5,Win32,60,m,0,0.61144,,,,,,,,0.61144,0,,,,,,250,NW,UN,16,lupict,MILTED,z,,,,,,0.087596078,-0.395190375,0,0,0,,0,324,324,429,1,
,,,,,,,,,,,,,,,,,,5cf272137e2e1400157f2b3b,2020-11-26_11h00.22.783,lexical_decision_task_MP_exp2,2020.2.5,Win32,60,m,1,0.48033,,,,,,,,0.48033,1,,,,,,75,WORD,"ID",33,trophy,TROPHY,m,,,,,,0.087596078,-0.395190375,0,0,0,,0,325,325,14,1,
,,,,,,,,,,,,,,,,,,5cf272137e2e1400157f2b3b,2020-11-26_11h00.22.783,lexical_decision_task_MP_exp2,2020.2.5,Win32,60,z,1,0.53193,,,,,,,,0.53193,1,,,,,,440,NW,UN,33,rastoe,SARIDE,z,,,,,,0.087596078,-0.395190375,0,0,0,,0,326,326,379,1,
,,,,,,,,,,,,,,,,,,5cf272137e2e1400157f2b3b,2020-11-26_11h00.22.783,lexical_decision_task_MP_exp2,2020.2.5,Win32,60,z,1,0.618845,,,,,,,,0.618845,1,,,,,,342,NW,"ID",33,randow,RANDOW,z,,,,,,0.087596078,-0.395190375,0,0,0,,0,327,327,281,1,
,,,,,,,,,,,,,,,,,,5cf272137e2e1400157f2b3b,2020-11-26_11h00.22.783,lexical_decision_task_MP_exp2,2020.2.5,Win32,60,m,1,0.571035,,,,,,,,0.571035,1,,,,,,145,WORD,"ID",16,parish,PARISH,m,,,,,,0.087596078,-0.395190375,0,0,0,,0,328,328,84,1,
,,,,,,,,,,,,,,,,,,5cf272137e2e1400157f2b3b,2020-11-26_11h00.22.783,lexical_decision_task_MP_exp2,2020.2.5,Win32,60,m,1,0.535285,,,,,,,,0.535285,1,,,,,,175,WORD,"ID",16,fabric,FABRIC,m,,,,,,0.087596078,-0.395190375,0,0,0,,0,329,329,114,1,
,,,,,,,,,,,,,,,,,,5cf272137e2e1400157f2b3b,2020-11-26_11h00.22.783,lexical_decision_task_MP_exp2,2020.2.5,Win32,60,z,1,0.511985,,,,,,,,0.511985,1,,,,,,362,NW,"ID",16,tireau,TIREAU,z,,,,,,0.087596078,-0.395190375,0,0,0,,0,330,330,301,1,
,,,,,,,,,,,,,,,,,,5cf272137e2e1400157f2b3b,2020-11-26_11h00.22.783,lexical_decision_task_MP_exp2,2020.2.5,Win32,60,z,1,0.438075,,,,,,,,0.438075,1,,,,,,256,NW,UN,16,veniod,INLORS,z,,,,,,0.087596078,-0.395190375,0,0,0,,0,331,331,435,1,
,,,,,,,,,,,,,,,,,,5cf272137e2e1400157f2b3b,2020-11-26_11h00.22.783,lexical_decision_task_MP_exp2,2020.2.5,Win32,60,z,0,0.438205,,,,,,,,0.438205,0,,,,,,199,WORD,UN,33,plague,INVOKE,m,,,,,,0.087596078,-0.395190375,0,0,0,,0,332,332,138,1,
,,,,,,,,,,,,,,,,,,5cf272137e2e1400157f2b3b,2020-11-26_11h00.22.783,lexical_decision_task_MP_exp2,2020.2.5,Win32,60,z,1,0.52688,,,,,,,,0.52688,1,,,,,,370,NW,"ID",16,sleact,SLEACT,z,,,,,,0.087596078,-0.395190375,0,0,0,,0,333,333,309,1,
,,,,,,,,,,,,,,,,,,5cf272137e2e1400157f2b3b,2020-11-26_11h00.22.783,lexical_decision_task_MP_exp2,2020.2.5,Win32,60,m,1,0.41317,,,,,,,,0.41317,1,,,,,,14,WORD,UN,16,orange,ALMOST,m,,,,,,0.087596078,-0.395190375,0,0,0,,0,334,334,193,1,
,,,,,,,,,,,,,,,,,,5cf272137e2e1400157f2b3b,2020-11-26_11h00.22.783,lexical_decision_task_MP_exp2,2020.2.5,Win32,60,m,1,0.44534,,,,,,,,0.44534,1,,,,,,138,WORD,"ID",16,melody,MELODY,m,,,,,,0.087596078,-0.395190375,0,0,0,,0,335,335,77,1,
,,,,,,,,,,,,,,,,,,5cf272137e2e1400157f2b3b,2020-11-26_11h00.22.783,lexical_decision_task_MP_exp2,2020.2.5,Win32,60,m,1,0.457045,,,,,,,,0.457045,1,,,,,,34,WORD,UN,16,socket,JUNGLE,m,,,,,,0.087596078,-0.395190375,0,0,0,,0,336,336,213,1,
,,,,,,,,,,,,,,,,,,5cf272137e2e1400157f2b3b,2020-11-26_11h00.22.783,lexical_decision_task_MP_exp2,2020.2.5,Win32,60,z,1,0.493085,,,,,,,,0.493085,1,,,,,,474,NW,UN,33,acrise,HABLIN,z,,,,,,0.087596078,-0.395190375,0,0,0,,0,337,337,413,1,
,,,,,,,,,,,,,,,,,,5cf272137e2e1400157f2b3b,2020-11-26_11h00.22.783,lexical_decision_task_MP_exp2,2020.2.5,Win32,60,m,0,0.5885,,,,,,,,0.5885,0,,,,,,452,NW,UN,33,bolvis,SURDEN,z,,,,,,0.087596078,-0.395190375,0,0,0,,0,338,338,391,1,
,,,,,,,,,,,,,,,,,,5cf272137e2e1400157f2b3b,2020-11-26_11h00.22.783,lexical_decision_task_MP_exp2,2020.2.5,Win32,60,z,1,0.50227,,,,,,,,0.50227,1,,,,,,412,NW,"ID",16,jiluer,JILUER,z,,,,,,0.087596078,-0.395190375,0,0,0,,0,339,339,351,1,
,,,,,,,,,,,,,,,,,,5cf272137e2e1400157f2b3b,2020-11-26_11h00.22.783,lexical_decision_task_MP_exp2,2020.2.5,Win32,60,m,1,0.50443,,,,,,,,0.50443,1,,,,,,188,WORD,UN,33,censor,SOCIAL,m,,,,,,0.087596078,-0.395190375,0,0,0,,0,340,340,127,1,
,,,,,,,,,,,,,,,,,,5cf272137e2e1400157f2b3b,2020-11-26_11h00.22.783,lexical_decision_task_MP_exp2,2020.2.5,Win32,60,m,1,0.480715,,,,,,,,0.480715,1,,,,,,178,WORD,"ID",16,inform,INFORM,m,,,,,,0.087596078,-0.395190375,0,0,0,,0,341,341,117,1,
,,,,,,,,,,,,,,,,,,5cf272137e2e1400157f2b3b,2020-11-26_11h00.22.783,lexical_decision_task_MP_exp2,2020.2.5,Win32,60,m,1,0.47156,,,,,,,,0.47156,1,,,,,,49,WORD,UN,16,snatch,SURVEY,m,,,,,,0.087596078,-0.395190375,0,0,0,,0,342,342,228,1,
,,,,,,,,,,,,,,,,,,5cf272137e2e1400157f2b3b,2020-11-26_11h00.22.783,lexical_decision_task_MP_exp2,2020.2.5,Win32,60,z,1,0.506915,,,,,,,,0.506915,1,,,,,,337,NW,"ID",33,rejols,REJOLS,z,,,,,,0.087596078,-0.395190375,0,0,0,,0,343,343,276,1,
,,,,,,,,,,,,,,,,,,5cf272137e2e1400157f2b3b,2020-11-26_11h00.22.783,lexical_decision_task_MP_exp2,2020.2.5,Win32,60,m,1,0.44724,,,,,,,,0.44724,1,,,,,,37,WORD,UN,16,powder,INSULT,m,,,,,,0.087596078,-0.395190375,0,0,0,,0,344,344,216,1,
,,,,,,,,,,,,,,,,,,5cf272137e2e1400157f2b3b,2020-11-26_11h00.22.783,lexical_decision_task_MP_exp2,2020.2.5,Win32,60,m,1,0.48083,,,,,,,,0.48083,1,,,,,,154,WORD,"ID",16,author,AUTHOR,m,,,,,,0.087596078,-0.395190375,0,0,0,,0,345,345,93,1,
,,,,,,,,,,,,,,,,,,5cf272137e2e1400157f2b3b,2020-11-26_11h00.22.783,lexical_decision_task_MP_exp2,2020.2.5,Win32,60,z,1,0.50779,,,,,,,,0.50779,1,,,,,,386,NW,"ID",16,ancust,ANCUST,z,,,,,,0.087596078,-0.395190375,0,0,0,,0,346,346,325,1,
,,,,,,,,,,,,,,,,,,5cf272137e2e1400157f2b3b,2020-11-26_11h00.22.783,lexical_decision_task_MP_exp2,2020.2.5,Win32,60,m,1,0.54086,,,,,,,,0.54086,1,,,,,,172,WORD,"ID",16,patrol,PATROL,m,,,,,,0.087596078,-0.395190375,0,0,0,,0,347,347,111,1,
,,,,,,,,,,,,,,,,,,5cf272137e2e1400157f2b3b,2020-11-26_11h00.22.783,lexical_decision_task_MP_exp2,2020.2.5,Win32,60,m,1,0.58661,,,,,,,,0.58661,1,,,,,,66,WORD,"ID",33,gospel,GOSPEL,m,,,,,,0.087596078,-0.395190375,0,0,0,,0,348,348,5,1,
,,,,,,,,,,,,,,,,,,5cf272137e2e1400157f2b3b,2020-11-26_11h00.22.783,lexical_decision_task_MP_exp2,2020.2.5,Win32,60,m,1,0.509805,,,,,,,,0.509805,1,,,,,,99,WORD,"ID",33,fluent,FLUENT,m,,,,,,0.087596078,-0.395190375,0,0,0,,0,349,349,38,1,
,,,,,,,,,,,,,,,,,,5cf272137e2e1400157f2b3b,2020-11-26_11h00.22.783,lexical_decision_task_MP_exp2,2020.2.5,Win32,60,z,1,0.51387,,,,,,,,0.51387,1,,,,,,455,NW,UN,33,broget,TONDLE,z,,,,,,0.087596078,-0.395190375,0,0,0,,0,350,350,394,1,
,,,,,,,,,,,,,,,,,,5cf272137e2e1400157f2b3b,2020-11-26_11h00.22.783,lexical_decision_task_MP_exp2,2020.2.5,Win32,60,m,1,0.50766,,,,,,,,0.50766,1,,,,,,41,WORD,UN,16,chapel,SPRING,m,,,,,,0.087596078,-0.395190375,0,0,0,,0,351,351,220,1,
,,,,,,,,,,,,,,,,,,5cf272137e2e1400157f2b3b,2020-11-26_11h00.22.783,lexical_decision_task_MP_exp2,2020.2.5,Win32,60,m,1,0.46311,,,,,,,,0.46311,1,,,,,,231,WORD,UN,33,inject,EXPORT,m,,,,,,0.087596078,-0.395190375,0,0,0,,0,352,352,170,1,
,,,,,,,,,,,,,,,,,,5cf272137e2e1400157f2b3b,2020-11-26_11h00.22.783,lexical_decision_task_MP_exp2,2020.2.5,Win32,60,m,1,0.54966,,,,,,,,0.54966,1,,,,,,227,WORD,UN,33,master,SELDOM,m,,,,,,0.087596078,-0.395190375,0,0,0,,0,353,353,166,1,
,,,,,,,,,,,,,,,,,,5cf272137e2e1400157f2b3b,2020-11-26_11h00.22.783,lexical_decision_task_MP_exp2,2020.2.5,Win32,60,z,1,0.52958,,,,,,,,0.52958,1,,,,,,422,NW,UN,33,streld,ALCOUD,z,,,,,,0.087596078,-0.395190375,0,0,0,,0,354,354,361,1,
,,,,,,,,,,,,,,,,,,5cf272137e2e1400157f2b3b,2020-11-26_11h00.22.783,lexical_decision_task_MP_exp2,2020.2.5,Win32,60,m,1,0.451845,,,,,,,,0.451845,1,,,,,,94,WORD,"ID",33,travel,TRAVEL,m,,,,,,0.087596078,-0.395190375,0,0,0,,0,355,355,33,1,
,,,,,,,,,,,,,,,,,,5cf272137e2e1400157f2b3b,2020-11-26_11h00.22.783,lexical_decision_task_MP_exp2,2020.2.5,Win32,60,m,1,0.505055,,,,,,,,0.505055,1,,,,,,60,WORD,UN,16,fright,PENCIL,m,,,,,,0.087596078,-0.395190375,0,0,0,,0,356,356,239,1,
,,,,,,,,,,,,,,,,,,5cf272137e2e1400157f2b3b,2020-11-26_11h00.22.783,lexical_decision_task_MP_exp2,2020.2.5,Win32,60,z,1,0.49472,,,,,,,,0.49472,1,,,,,,258,NW,UN,16,soudal,POLUTH,z,,,,,,0.087596078,-0.395190375,0,0,0,,0,357,357,437,1,
,,,,,,,,,,,,,,,,,,5cf272137e2e1400157f2b3b,2020-11-26_11h00.22.783,lexical_decision_task_MP_exp2,2020.2.5,Win32,60,z,1,0.59495,,,,,,,,0.59495,1,,,,,,332,NW,"ID",33,vangue,VANGUE,z,,,,,,0.087596078,-0.395190375,0,0,0,,0,358,358,271,1,
,,,,,,,,,,,,,,,,,,5cf272137e2e1400157f2b3b,2020-11-26_11h00.22.783,lexical_decision_task_MP_exp2,2020.2.5,Win32,60,m,1,0.577185,,,,,,,,0.577185,1,,,,,,79,WORD,"ID",33,theory,THEORY,m,,,,,,0.087596078,-0.395190375,0,0,0,,0,359,359,18,1,
,,,,,,,,,,,,,,,,,,5cf272137e2e1400157f2b3b,2020-11-26_11h00.22.783,lexical_decision_task_MP_exp2,2020.2.5,Win32,60,z,0,0.479685,,,,,,,,0.479685,0,,,,,,16,WORD,UN,16,charge,FAUCET,m,,,,,,0.087596078,-0.395190375,0,0,0,,0,360,360,195,1,
,,,,,,,,,,,,,,,,,,5cf272137e2e1400157f2b3b,2020-11-26_11h00.22.783,lexical_decision_task_MP_exp2,2020.2.5,Win32,60,m,1,0.531335,,,,,,,,0.531335,1,,,,,,25,WORD,UN,16,sprint,DOMAIN,m,,,,,,0.087596078,-0.395190375,0,0,0,,0,361,361,204,1,
,,,,,,,,,,,,,,,,,,5cf272137e2e1400157f2b3b,2020-11-26_11h00.22.783,lexical_decision_task_MP_exp2,2020.2.5,Win32,60,m,1,0.53139,,,,,,,,0.53139,1,,,,,,221,WORD,UN,33,hinder,MASCOT,m,,,,,,0.087596078,-0.393336922,0,0,0,space,0,362,362,160,1,1.494095
,,,,,,,,,,,,,,,,,,5cf272137e2e1400157f2b3b,2020-11-26_11h00.22.783,lexical_decision_task_MP_exp2,2020.2.5,Win32,60,m,0,0.92041,,,,,,,,0.92041,0,,,,,,319,NW,"ID",33,zomber,ZOMBER,z,,,,,,0.087596078,-0.393336922,0,0,0,,0,363,363,258,1,
,,,,,,,,,,,,,,,,,,5cf272137e2e1400157f2b3b,2020-11-26_11h00.22.783,lexical_decision_task_MP_exp2,2020.2.5,Win32,60,m,1,0.48028,,,,,,,,0.48028,1,,,,,,102,WORD,"ID",33,direct,DIRECT,m,,,,,,0.087596078,-0.393336922,0,0,0,,0,364,364,41,1,
,,,,,,,,,,,,,,,,,,5cf272137e2e1400157f2b3b,2020-11-26_11h00.22.783,lexical_decision_task_MP_exp2,2020.2.5,Win32,60,z,1,0.50164,,,,,,,,0.50164,1,,,,,,292,NW,UN,16,swance,ABLINT,z,,,,,,0.087596078,-0.393336922,0,0,0,,0,365,365,471,1,
,,,,,,,,,,,,,,,,,,5cf272137e2e1400157f2b3b,2020-11-26_11h00.22.783,lexical_decision_task_MP_exp2,2020.2.5,Win32,60,m,1,0.468255,,,,,,,,0.468255,1,,,,,,46,WORD,UN,16,income,SINGLE,m,,,,,,0.087596078,-0.393336922,0,0,0,,0,366,366,225,1,
,,,,,,,,,,,,,,,,,,5cf272137e2e1400157f2b3b,2020-11-26_11h00.22.783,lexical_decision_task_MP_exp2,2020.2.5,Win32,60,m,1,0.46961,,,,,,,,0.46961,1,,,,,,123,WORD,"ID",16,strike,STRIKE,m,,,,,,0.087596078,-0.393336922,0,0,0,,0,367,367,62,1,
,,,,,,,,,,,,,,,,,,5cf272137e2e1400157f2b3b,2020-11-26_11h00.22.783,lexical_decision_task_MP_exp2,2020.2.5,Win32,60,z,1,0.74834,,,,,,,,0.74834,1,,,,,,411,NW,"ID",16,orchin,ORCHIN,z,,,,,,0.087596078,-0.393336922,0,0,0,,0,368,368,350,1,
,,,,,,,,,,,,,,,,,,5cf272137e2e1400157f2b3b,2020-11-26_11h00.22.783,lexical_decision_task_MP_exp2,2020.2.5,Win32,60,z,1,0.553735,,,,,,,,0.553735,1,,,,,,315,NW,"ID",33,laston,LASTON,z,,,,,,0.087596078,-0.393336922,0,0,0,,0,369,369,254,1,
,,,,,,,,,,,,,,,,,,5cf272137e2e1400157f2b3b,2020-11-26_11h00.22.783,lexical_decision_task_MP_exp2,2020.2.5,Win32,60,m,1,0.50329,,,,,,,,0.50329,1,,,,,,65,WORD,"ID",33,symbol,SYMBOL,m,,,,,,0.087596078,-0.393336922,0,0,0,,0,370,370,4,1,
,,,,,,,,,,,,,,,,,,5cf272137e2e1400157f2b3b,2020-11-26_11h00.22.783,lexical_decision_task_MP_exp2,2020.2.5,Win32,60,z,1,0.48647,,,,,,,,0.48647,1,,,,,,410,NW,"ID",16,tunory,TUNORY,z,,,,,,0.087596078,-0.393336922,0,0,0,,0,371,371,349,1,
,,,,,,,,,,,,,,,,,,5cf272137e2e1400157f2b3b,2020-11-26_11h00.22.783,lexical_decision_task_MP_exp2,2020.2.5,Win32,60,m,1,0.513405,,,,,,,,0.513405,1,,,,,,11,WORD,UN,16,amount,CRUISE,m,,,,,,0.087596078,-0.393336922,0,0,0,,0,372,372,190,1,
,,,,,,,,,,,,,,,,,,5cf272137e2e1400157f2b3b,2020-11-26_11h00.22.783,lexical_decision_task_MP_exp2,2020.2.5,Win32,60,m,1,0.50508,,,,,,,,0.50508,1,,,,,,120,WORD,"ID",33,strain,STRAIN,m,,,,,,0.087596078,-0.393336922,0,0,0,,0,373,373,59,1,
,,,,,,,,,,,,,,,,,,5cf272137e2e1400157f2b3b,2020-11-26_11h00.22.783,lexical_decision_task_MP_exp2,2020.2.5,Win32,60,m,1,0.49035,,,,,,,,0.49035,1,,,,,,167,WORD,"ID",16,design,DESIGN,m,,,,,,0.087596078,-0.393336922,0,0,0,,0,374,374,106,1,
,,,,,,,,,,,,,,,,,,5cf272137e2e1400157f2b3b,2020-11-26_11h00.22.783,lexical_decision_task_MP_exp2,2020.2.5,Win32,60,z,1,0.585875,,,,,,,,0.585875,1,,,,,,314,NW,"ID",33,sprine,SPRINE,z,,,,,,0.087596078,-0.393336922,0,0,0,,0,375,375,253,1,
,,,,,,,,,,,,,,,,,,5cf272137e2e1400157f2b3b,2020-11-26_11h00.22.783,lexical_decision_task_MP_exp2,2020.2.5,Win32,60,m,1,0.486505,,,,,,,,0.486505,1,,,,,,136,WORD,"ID",16,bleach,BLEACH,m,,,,,,0.087596078,-0.393336922,0,0,0,,0,376,376,75,1,
,,,,,,,,,,,,,,,,,,5cf272137e2e1400157f2b3b,2020-11-26_11h00.22.783,lexical_decision_task_MP_exp2,2020.2.5,Win32,60,z,0,0.690445,,,,,,,,0.690445,0,,,,,,195,WORD,UN,33,credit,RESIGN,m,,,,,,0.087596078,-0.393336922,0,0,0,,0,377,377,134,1,
,,,,,,,,,,,,,,,,,,5cf272137e2e1400157f2b3b,2020-11-26_11h00.22.783,lexical_decision_task_MP_exp2,2020.2.5,Win32,60,z,1,0.95589,,,,,,,,0.95589,1,,,,,,449,NW,UN,33,phrect,BRUNGE,z,,,,,,0.087596078,-0.393336922,0,0,0,,0,378,378,388,1,
,,,,,,,,,,,,,,,,,,5cf272137e2e1400157f2b3b,2020-11-26_11h00.22.783,lexical_decision_task_MP_exp2,2020.2.5,Win32,60,z,1,0.65305,,,,,,,,0.65305,1,,,,,,247,NW,UN,16,strole,BLARGE,z,,,,,,0.087596078,-0.393336922,0,0,0,,0,379,379,426,1,
,,,,,,,,,,,,,,,,,,5cf272137e2e1400157f2b3b,2020-11-26_11h00.22.783,lexical_decision_task_MP_exp2,2020.2.5,Win32,60,m,1,0.49808,,,,,,,,0.49808,1,,,,,,204,WORD,UN,33,lounge,BURDEN,m,,,,,,0.087596078,-0.393336922,0,0,0,,0,380,380,143,1,
,,,,,,,,,,,,,,,,,,5cf272137e2e1400157f2b3b,2020-11-26_11h00.22.783,lexical_decision_task_MP_exp2,2020.2.5,Win32,60,z,1,0.463505,,,,,,,,0.463505,1,,,,,,334,NW,"ID",33,watmeg,WATMEG,z,,,,,,0.087596078,-0.393336922,0,0,0,,0,381,381,273,1,
,,,,,,,,,,,,,,,,,,5cf272137e2e1400157f2b3b,2020-11-26_11h00.22.783,lexical_decision_task_MP_exp2,2020.2.5,Win32,60,z,0,0.552115,,,,,,,,0.552115,0,,,,,,61,WORD,"ID",33,ponder,PONDER,m,,,,,,0.087596078,-0.393336922,0,0,0,,0,382,382,0,1,
,,,,,,,,,,,,,,,,,,5cf272137e2e1400157f2b3b,2020-11-26_11h00.22.783,lexical_decision_task_MP_exp2,2020.2.5,Win32,60,z,1,0.586825,,,,,,,,0.586825,1,,,,,,383,NW,"ID",16,aungre,AUNGRE,z,,,,,,0.087596078,-0.393336922,0,0,0,,0,383,383,322,1,
,,,,,,,,,,,,,,,,,,5cf272137e2e1400157f2b3b,2020-11-26_11h00.22.783,lexical_decision_task_MP_exp2,2020.2.5,Win32,60,m,1,0.61418,,,,,,,,0.61418,1,,,,,,45,WORD,UN,16,single,CLERGY,m,,,,,,0.087596078,-0.393336922,0,0,0,,0,384,384,224,1,
,,,,,,,,,,,,,,,,,,5cf272137e2e1400157f2b3b,2020-11-26_11h00.22.783,lexical_decision_task_MP_exp2,2020.2.5,Win32,60,m,1,0.478515,,,,,,,,0.478515,1,,,,,,113,WORD,"ID",33,chorus,CHORUS,m,,,,,,0.087596078,-0.393336922,0,0,0,,0,385,385,52,1,
,,,,,,,,,,,,,,,,,,5cf272137e2e1400157f2b3b,2020-11-26_11h00.22.783,lexical_decision_task_MP_exp2,2020.2.5,Win32,60,z,1,0.523315,,,,,,,,0.523315,1,,,,,,467,NW,UN,33,wictor,GORBIE,z,,,,,,0.087596078,-0.393336922,0,0,0,,0,386,386,406,1,
,,,,,,,,,,,,,,,,,,5cf272137e2e1400157f2b3b,2020-11-26_11h00.22.783,lexical_decision_task_MP_exp2,2020.2.5,Win32,60,z,1,0.540195,,,,,,,,0.540195,1,,,,,,368,NW,"ID",16,hornal,HORNAL,z,,,,,,0.087596078,-0.393336922,0,0,0,,0,387,387,307,1,
,,,,,,,,,,,,,,,,,,5cf272137e2e1400157f2b3b,2020-11-26_11h00.22.783,lexical_decision_task_MP_exp2,2020.2.5,Win32,60,m,1,0.519685,,,,,,,,0.519685,1,,,,,,92,WORD,"ID",33,strand,STRAND,m,,,,,,0.087596078,-0.393336922,0,0,0,,0,388,388,31,1,
,,,,,,,,,,,,,,,,,,5cf272137e2e1400157f2b3b,2020-11-26_11h00.22.783,lexical_decision_task_MP_exp2,2020.2.5,Win32,60,m,1,0.602385,,,,,,,,0.602385,1,,,,,,89,WORD,"ID",33,permit,PERMIT,m,,,,,,0.087596078,-0.393336922,0,0,0,,0,389,389,28,1,
,,,,,,,,,,,,,,,,,,5cf272137e2e1400157f2b3b,2020-11-26_11h00.22.783,lexical_decision_task_MP_exp2,2020.2.5,Win32,60,m,1,0.535615,,,,,,,,0.535615,1,,,,,,50,WORD,UN,16,hungry,SNATCH,m,,,,,,0.087596078,-0.393336922,0,0,0,,0,390,390,229,1,
,,,,,,,,,,,,,,,,,,5cf272137e2e1400157f2b3b,2020-11-26_11h00.22.783,lexical_decision_task_MP_exp2,2020.2.5,Win32,60,z,1,0.567925,,,,,,,,0.567925,1,,,,,,353,NW,"ID",33,clurey,CLUREY,z,,,,,,0.087596078,-0.393336922,0,0,0,,0,391,391,292,1,
,,,,,,,,,,,,,,,,,,5cf272137e2e1400157f2b3b,2020-11-26_11h00.22.783,lexical_decision_task_MP_exp2,2020.2.5,Win32,60,z,1,0.53507,,,,,,,,0.53507,1,,,,,,380,NW,"ID",16,cavory,CAVORY,z,,,,,,0.087596078,-0.393336922,0,0,0,,0,392,392,319,1,
,,,,,,,,,,,,,,,,,,5cf272137e2e1400157f2b3b,2020-11-26_11h00.22.783,lexical_decision_task_MP_exp2,2020.2.5,Win32,60,z,1,0.563365,,,,,,,,0.563365,1,,,,,,393,NW,"ID",16,ganous,GANOUS,z,,,,,,0.087596078,-0.393336922,0,0,0,,0,393,393,332,1,
,,,,,,,,,,,,,,,,,,5cf272137e2e1400157f2b3b,2020-11-26_11h00.22.783,lexical_decision_task_MP_exp2,2020.2.5,Win32,60,z,1,0.555255,,,,,,,,0.555255,1,,,,,,272,NW,UN,16,sortel,DAMILT,z,,,,,,0.087596078,-0.393336922,0,0,0,,0,394,394,451,1,
