counterbalancing_condition,instr_done_keyboard.keys,instr_done_touch.x,instr_done_touch.y,instr_done_touch.leftButton,instr_done_touch.midButton,instr_done_touch.rightButton,instr_done_touch.clicked_name,instruction_pages.thisRepN,instruction_pages.thisTrialN,instruction_pages.thisN,instruction_pages.thisIndex,instruction_pages.ran,pageN,phase,instruct_text,has_image,instruct_image,participant,date,expName,psychopyVersion,OS,frameRate,response.keys,response.corr,touch_resp.x,touch_resp.y,touch_resp.leftButton,touch_resp.midButton,touch_resp.rightButton,touch_resp.time,touch_resp.clicked_name,rt,corr,practice_trials.thisRepN,practice_trials.thisTrialN,practice_trials.thisN,practice_trials.thisIndex,practice_trials.ran,TrialID,StimulusType,Condition,PrimeDuration,Prime,Target,corrAns,response.rt,end_of_practice_trials_pages.thisRepN,end_of_practice_trials_pages.thisTrialN,end_of_practice_trials_pages.thisN,end_of_practice_trials_pages.thisIndex,end_of_practice_trials_pages.ran,break_done_touch.x,break_done_touch.y,break_done_touch.leftButton,break_done_touch.midButton,break_done_touch.rightButton,break_done_keyboard.keys,experiment_trials.thisRepN,experiment_trials.thisTrialN,experiment_trials.thisN,experiment_trials.thisIndex,experiment_trials.ran,break_done_keyboard.rt
0,,0.009913273,-0.373358129,1,0,0,instr_done_button,0,0,0,0,1,1,instructions,"INSTRUCTIONS
At the start of each trial, look at the hash marks (######) in the center of the screen. After a moment, a string of letters will appear. Your task is to indicate if the letter string forms a word or not (i.e., if it is a nonword). For example, AUTHOR is a word while AUTHON is a nonword.

Press the space bar or touch the button below to continue.",0,,5cf5134c8f8ff80019e76721,2020-11-27_10h21.59.728,lexical_decision_task_MP_exp2,2020.2.5,Win32,60,,,,,,,,,,,,,,,,,,,,,,,,,,,,,,,,,,,,,,,,,
,,0.081288739,-0.400123929,1,0,0,instr_done_button,0,1,1,1,1,2,instructions,"If your device has a keyboard, press the 'Z' key for nonwords and the 'M' key for words.





Press the space bar or touch the button below to continue.",1,keyboard-example.gif,5cf5134c8f8ff80019e76721,2020-11-27_10h21.59.728,lexical_decision_task_MP_exp2,2020.2.5,Win32,60,,,,,,,,,,,,,,,,,,,,,,,,,,,,,,,,,,,,,,,,,
,,0.082280065,-0.401115255,1,0,0,instr_done_button,0,2,2,2,1,3,instructions,"If you are using a touchscreen only device, use the buttons on the screen. Do not use the mouse.





Press the space bar or touch the button below to continue.",1,touchscreen-example.gif,5cf5134c8f8ff80019e76721,2020-11-27_10h21.59.728,lexical_decision_task_MP_exp2,2020.2.5,Win32,60,,,,,,,,,,,,,,,,,,,,,,,,,,,,,,,,,,,,,,,,,
,,-0.024783134,-0.400123929,1,0,0,instr_done_button,0,3,3,3,1,4,instructions,"It is very important that you respond as quickly and accurately as possible, as each letter string will only be on the screen for two seconds. If you do not respond within this time, the message 'Too slow!' will be displayed and the experiment will progress to the next letter string. The first 20 trials will be practice trials and you will receive feedback on your answers. 

Press the space bar or touch the button below to start the practice trials.",0,,5cf5134c8f8ff80019e76721,2020-11-27_10h21.59.728,lexical_decision_task_MP_exp2,2020.2.5,Win32,60,,,,,,,,,,,,,,,,,,,,,,,,,,,,,,,,,,,,,,,,,
,,,,,,,,,,,,,,,,,,5cf5134c8f8ff80019e76721,2020-11-27_10h21.59.728,lexical_decision_task_MP_exp2,2020.2.5,Win32,60,,0,,,,,,,,,-1,0,0,0,8,1,1009,NW,"ID",33,aslert,ASLERT,z,,,,,,,,,,,,,,,,,,
,,,,,,,,,,,,,,,,,,5cf5134c8f8ff80019e76721,2020-11-27_10h21.59.728,lexical_decision_task_MP_exp2,2020.2.5,Win32,60,z,1,,,,,,,,0.65144,1,0,1,1,10,1,1011,NW,"ID",16,inlade,INLADE,z,0.65144,,,,,,,,,,,,,,,,,
,,,,,,,,,,,,,,,,,,5cf5134c8f8ff80019e76721,2020-11-27_10h21.59.728,lexical_decision_task_MP_exp2,2020.2.5,Win32,60,z,1,,,,,,,,0.905135,1,0,2,2,12,1,1013,NW,UN,33,adveil,SPRINY,z,0.905135,,,,,,,,,,,,,,,,,
,,,,,,,,,,,,,,,,,,5cf5134c8f8ff80019e76721,2020-11-27_10h21.59.728,lexical_decision_task_MP_exp2,2020.2.5,Win32,60,m,1,,,,,,,,0.68785,1,0,3,3,1,1,1002,WORD,"ID",33,adjust,ADJUST,m,0.68785,,,,,,,,,,,,,,,,,
,,,,,,,,,,,,,,,,,,5cf5134c8f8ff80019e76721,2020-11-27_10h21.59.728,lexical_decision_task_MP_exp2,2020.2.5,Win32,60,z,1,,,,,,,,0.581705,1,0,4,4,11,1,1012,NW,"ID",16,rashet,RASHET,z,0.581705,,,,,,,,,,,,,,,,,
,,,,,,,,,,,,,,,,,,5cf5134c8f8ff80019e76721,2020-11-27_10h21.59.728,lexical_decision_task_MP_exp2,2020.2.5,Win32,60,m,1,,,,,,,,0.67896,1,0,5,5,7,1,1008,WORD,UN,16,hurdle,VOLUME,m,0.67896,,,,,,,,,,,,,,,,,
,,,,,,,,,,,,,,,,,,5cf5134c8f8ff80019e76721,2020-11-27_10h21.59.728,lexical_decision_task_MP_exp2,2020.2.5,Win32,60,z,1,,,,,,,,0.54738,1,0,6,6,13,1,1014,NW,UN,33,winfer,ROUPET,z,0.54738,,,,,,,,,,,,,,,,,
,,,,,,,,,,,,,,,,,,5cf5134c8f8ff80019e76721,2020-11-27_10h21.59.728,lexical_decision_task_MP_exp2,2020.2.5,Win32,60,m,1,,,,,,,,0.550335,1,0,7,7,5,1,1006,WORD,UN,33,frenzy,OBTAIN,m,0.550335,,,,,,,,,,,,,,,,,
,,,,,,,,,,,,,,,,,,5cf5134c8f8ff80019e76721,2020-11-27_10h21.59.728,lexical_decision_task_MP_exp2,2020.2.5,Win32,60,m,1,,,,,,,,0.5381,1,0,8,8,3,1,1004,WORD,"ID",16,matrix,MATRIX,m,0.5381,,,,,,,,,,,,,,,,,
,,,,,,,,,,,,,,,,,,5cf5134c8f8ff80019e76721,2020-11-27_10h21.59.728,lexical_decision_task_MP_exp2,2020.2.5,Win32,60,m,1,,,,,,,,0.49997,1,0,9,9,4,1,1005,WORD,UN,33,abound,SQUEAK,m,0.49997,,,,,,,,,,,,,,,,,
,,,,,,,,,,,,,,,,,,5cf5134c8f8ff80019e76721,2020-11-27_10h21.59.728,lexical_decision_task_MP_exp2,2020.2.5,Win32,60,m,1,,,,,,,,0.55858,1,0,10,10,0,1,1001,WORD,"ID",33,utopia,UTOPIA,m,0.55858,,,,,,,,,,,,,,,,,
,,,,,,,,,,,,,,,,,,5cf5134c8f8ff80019e76721,2020-11-27_10h21.59.728,lexical_decision_task_MP_exp2,2020.2.5,Win32,60,z,1,,,,,,,,0.513865,1,0,11,11,14,1,1015,NW,UN,16,miaber,THRALE,z,0.513865,,,,,,,,,,,,,,,,,
,,,,,,,,,,,,,,,,,,5cf5134c8f8ff80019e76721,2020-11-27_10h21.59.728,lexical_decision_task_MP_exp2,2020.2.5,Win32,60,z,1,,,,,,,,0.549,1,0,12,12,15,1,1016,NW,UN,16,mushed,WHAISE,z,0.549,,,,,,,,,,,,,,,,,
,,,,,,,,,,,,,,,,,,5cf5134c8f8ff80019e76721,2020-11-27_10h21.59.728,lexical_decision_task_MP_exp2,2020.2.5,Win32,60,z,1,,,,,,,,0.54603,1,0,13,13,9,1,1010,NW,"ID",33,fariny,FARINY,z,0.54603,,,,,,,,,,,,,,,,,
,,,,,,,,,,,,,,,,,,5cf5134c8f8ff80019e76721,2020-11-27_10h21.59.728,lexical_decision_task_MP_exp2,2020.2.5,Win32,60,m,1,,,,,,,,0.511275,1,0,14,14,2,1,1003,WORD,"ID",16,almond,ALMOND,m,0.511275,,,,,,,,,,,,,,,,,
,,,,,,,,,,,,,,,,,,5cf5134c8f8ff80019e76721,2020-11-27_10h21.59.728,lexical_decision_task_MP_exp2,2020.2.5,Win32,60,m,1,,,,,,,,0.54961,1,0,15,15,6,1,1007,WORD,UN,16,tropic,ZOMBIE,m,0.54961,,,,,,,,,,,,,,,,,
,,0.094175976,-0.422924425,1,0,0,instr_done_button,,,,,,1,end_of_practice,"You have completed the practice trials. During the experimental trials, you will not receive feedback, but it is very important that you respond as quickly and accurately as possible. 
Before you begin, please ensure that you are in a comfortable and quiet location and will not be disturbed for about 15 minutes, as we cannot use your data if you do not complete all the trials. 
There will be opportunities to take breaks at regular intervals during the experiment. When you are ready to start the experimental trials, please press space or touch the button below.",,,5cf5134c8f8ff80019e76721,2020-11-27_10h21.59.728,lexical_decision_task_MP_exp2,2020.2.5,Win32,60,,,,,,,,,,,,,,,,,,,,,,,,,0,0,0,0,1,,,,,,,,,,,,
,,,,,,,,,,,,,,,,,,5cf5134c8f8ff80019e76721,2020-11-27_10h21.59.728,lexical_decision_task_MP_exp2,2020.2.5,Win32,60,z,1,,,,,,,,1.00984,1,,,,,,394,NW,UN,16,colury,SPAQUX,z,1.00984,,,,,,0.946716261,-0.400123929,0,0,0,,0,0,0,453,1,
,,,,,,,,,,,,,,,,,,5cf5134c8f8ff80019e76721,2020-11-27_10h21.59.728,lexical_decision_task_MP_exp2,2020.2.5,Win32,60,z,1,,,,,,,,1.051415,1,,,,,,306,NW,UN,33,kirafe,SOUNGE,z,1.051415,,,,,,0.946716261,-0.400123929,0,0,0,,0,1,1,365,1,
,,,,,,,,,,,,,,,,,,5cf5134c8f8ff80019e76721,2020-11-27_10h21.59.728,lexical_decision_task_MP_exp2,2020.2.5,Win32,60,z,1,,,,,,,,0.592015,1,,,,,,457,NW,"ID",33,wanigh,WANIGH,z,0.592015,,,,,,0.946716261,-0.400123929,0,0,0,,0,2,2,276,1,
,,,,,,,,,,,,,,,,,,5cf5134c8f8ff80019e76721,2020-11-27_10h21.59.728,lexical_decision_task_MP_exp2,2020.2.5,Win32,60,m,1,,,,,,,,0.63064,1,,,,,,227,WORD,"ID",33,seldom,SELDOM,m,0.63064,,,,,,0.946716261,-0.400123929,0,0,0,,0,3,3,46,1,
,,,,,,,,,,,,,,,,,,5cf5134c8f8ff80019e76721,2020-11-27_10h21.59.728,lexical_decision_task_MP_exp2,2020.2.5,Win32,60,m,1,,,,,,,,0.52116,1,,,,,,43,WORD,"ID",16,tongue,TONGUE,m,0.52116,,,,,,0.946716261,-0.400123929,0,0,0,,0,4,4,102,1,
,,,,,,,,,,,,,,,,,,5cf5134c8f8ff80019e76721,2020-11-27_10h21.59.728,lexical_decision_task_MP_exp2,2020.2.5,Win32,60,z,1,,,,,,,,0.517255,1,,,,,,436,NW,"ID",33,frutan,FRUTAN,z,0.517255,,,,,,0.946716261,-0.400123929,0,0,0,,0,5,5,255,1,
,,,,,,,,,,,,,,,,,,5cf5134c8f8ff80019e76721,2020-11-27_10h21.59.728,lexical_decision_task_MP_exp2,2020.2.5,Win32,60,m,1,,,,,,,,0.60479,1,,,,,,85,WORD,UN,33,rodent,SPRAWL,m,0.60479,,,,,,0.946716261,-0.400123929,0,0,0,,0,6,6,144,1,
,,,,,,,,,,,,,,,,,,5cf5134c8f8ff80019e76721,2020-11-27_10h21.59.728,lexical_decision_task_MP_exp2,2020.2.5,Win32,60,z,1,,,,,,,,0.70122,1,,,,,,422,NW,"ID",33,alcoud,ALCOUD,z,0.70122,,,,,,0.946716261,-0.400123929,0,0,0,,0,7,7,241,1,
,,,,,,,,,,,,,,,,,,5cf5134c8f8ff80019e76721,2020-11-27_10h21.59.728,lexical_decision_task_MP_exp2,2020.2.5,Win32,60,z,1,,,,,,,,0.70519,1,,,,,,247,NW,"ID",16,blarge,BLARGE,z,0.70519,,,,,,0.946716261,-0.400123929,0,0,0,,0,8,8,306,1,
,,,,,,,,,,,,,,,,,,5cf5134c8f8ff80019e76721,2020-11-27_10h21.59.728,lexical_decision_task_MP_exp2,2020.2.5,Win32,60,m,1,,,,,,,,0.648285,1,,,,,,69,WORD,UN,33,square,PLENTY,m,0.648285,,,,,,0.946716261,-0.400123929,0,0,0,,0,9,9,128,1,
,,,,,,,,,,,,,,,,,,5cf5134c8f8ff80019e76721,2020-11-27_10h21.59.728,lexical_decision_task_MP_exp2,2020.2.5,Win32,60,m,0,,,,,,,,0.85363,0,,,,,,405,NW,UN,16,nouply,FLUMNI,z,0.85363,,,,,,0.946716261,-0.400123929,0,0,0,,0,10,10,464,1,
,,,,,,,,,,,,,,,,,,5cf5134c8f8ff80019e76721,2020-11-27_10h21.59.728,lexical_decision_task_MP_exp2,2020.2.5,Win32,60,z,1,,,,,,,,0.711205,1,,,,,,410,NW,UN,16,orchin,TUNORY,z,0.711205,,,,,,0.946716261,-0.400123929,0,0,0,,0,11,11,469,1,
,,,,,,,,,,,,,,,,,,5cf5134c8f8ff80019e76721,2020-11-27_10h21.59.728,lexical_decision_task_MP_exp2,2020.2.5,Win32,60,z,1,,,,,,,,0.67119,1,,,,,,289,NW,"ID",16,starby,STARBY,z,0.67119,,,,,,0.946716261,-0.400123929,0,0,0,,0,12,12,348,1,
,,,,,,,,,,,,,,,,,,5cf5134c8f8ff80019e76721,2020-11-27_10h21.59.728,lexical_decision_task_MP_exp2,2020.2.5,Win32,60,z,1,,,,,,,,0.576085,1,,,,,,287,NW,"ID",16,nymbel,NYMBEL,z,0.576085,,,,,,0.946716261,-0.400123929,0,0,0,,0,13,13,346,1,
,,,,,,,,,,,,,,,,,,5cf5134c8f8ff80019e76721,2020-11-27_10h21.59.728,lexical_decision_task_MP_exp2,2020.2.5,Win32,60,m,1,,,,,,,,0.683285,1,,,,,,229,WORD,"ID",33,mother,MOTHER,m,0.683285,,,,,,0.946716261,-0.400123929,0,0,0,,0,14,14,48,1,
,,,,,,,,,,,,,,,,,,5cf5134c8f8ff80019e76721,2020-11-27_10h21.59.728,lexical_decision_task_MP_exp2,2020.2.5,Win32,60,m,1,,,,,,,,0.86402,1,,,,,,25,WORD,"ID",16,domain,DOMAIN,m,0.86402,,,,,,0.946716261,-0.400123929,0,0,0,,0,15,15,84,1,
,,,,,,,,,,,,,,,,,,5cf5134c8f8ff80019e76721,2020-11-27_10h21.59.728,lexical_decision_task_MP_exp2,2020.2.5,Win32,60,m,1,,,,,,,,0.599425,1,,,,,,232,WORD,"ID",33,inject,INJECT,m,0.599425,,,,,,0.946716261,-0.400123929,0,0,0,,0,16,16,51,1,
,,,,,,,,,,,,,,,,,,5cf5134c8f8ff80019e76721,2020-11-27_10h21.59.728,lexical_decision_task_MP_exp2,2020.2.5,Win32,60,z,1,,,,,,,,0.88916,1,,,,,,396,NW,UN,16,camble,FLENGY,z,0.88916,,,,,,0.946716261,-0.400123929,0,0,0,,0,17,17,455,1,
,,,,,,,,,,,,,,,,,,5cf5134c8f8ff80019e76721,2020-11-27_10h21.59.728,lexical_decision_task_MP_exp2,2020.2.5,Win32,60,m,1,,,,,,,,0.632435,1,,,,,,93,WORD,UN,33,travel,PUBLIC,m,0.632435,,,,,,0.946716261,-0.400123929,0,0,0,,0,18,18,152,1,
,,,,,,,,,,,,,,,,,,5cf5134c8f8ff80019e76721,2020-11-27_10h21.59.728,lexical_decision_task_MP_exp2,2020.2.5,Win32,60,m,1,,,,,,,,0.71671,1,,,,,,239,WORD,"ID",33,lumber,LUMBER,m,0.71671,,,,,,0.946716261,-0.400123929,0,0,0,,0,19,19,58,1,
,,,,,,,,,,,,,,,,,,5cf5134c8f8ff80019e76721,2020-11-27_10h21.59.728,lexical_decision_task_MP_exp2,2020.2.5,Win32,60,m,1,,,,,,,,0.810415,1,,,,,,166,WORD,UN,16,design,STARCH,m,0.810415,,,,,,0.946716261,-0.400123929,0,0,0,,0,20,20,225,1,
,,,,,,,,,,,,,,,,,,5cf5134c8f8ff80019e76721,2020-11-27_10h21.59.728,lexical_decision_task_MP_exp2,2020.2.5,Win32,60,m,1,,,,,,,,0.694145,1,,,,,,184,WORD,"ID",33,sleazy,SLEAZY,m,0.694145,,,,,,0.946716261,-0.400123929,0,0,0,,0,21,21,3,1,
,,,,,,,,,,,,,,,,,,5cf5134c8f8ff80019e76721,2020-11-27_10h21.59.728,lexical_decision_task_MP_exp2,2020.2.5,Win32,60,m,1,,,,,,,,0.627005,1,,,,,,209,WORD,"ID",33,search,SEARCH,m,0.627005,,,,,,0.946716261,-0.400123929,0,0,0,,0,22,22,28,1,
,,,,,,,,,,,,,,,,,,5cf5134c8f8ff80019e76721,2020-11-27_10h21.59.728,lexical_decision_task_MP_exp2,2020.2.5,Win32,60,m,1,,,,,,,,0.61736,1,,,,,,62,WORD,UN,33,launch,REGION,m,0.61736,,,,,,0.946716261,-0.400123929,0,0,0,,0,23,23,121,1,
,,,,,,,,,,,,,,,,,,5cf5134c8f8ff80019e76721,2020-11-27_10h21.59.728,lexical_decision_task_MP_exp2,2020.2.5,Win32,60,z,1,,,,,,,,0.52146,1,,,,,,432,NW,"ID",33,lunker,LUNKER,z,0.52146,,,,,,0.946716261,-0.400123929,0,0,0,,0,24,24,251,1,
,,,,,,,,,,,,,,,,,,5cf5134c8f8ff80019e76721,2020-11-27_10h21.59.728,lexical_decision_task_MP_exp2,2020.2.5,Win32,60,m,1,,,,,,,,0.6908,1,,,,,,79,WORD,UN,33,family,THEORY,m,0.6908,,,,,,0.946716261,-0.400123929,0,0,0,,0,25,25,138,1,
,,,,,,,,,,,,,,,,,,5cf5134c8f8ff80019e76721,2020-11-27_10h21.59.728,lexical_decision_task_MP_exp2,2020.2.5,Win32,60,m,1,,,,,,,,0.62512,1,,,,,,183,WORD,"ID",33,mildew,MILDEW,m,0.62512,,,,,,0.946716261,-0.400123929,0,0,0,,0,26,26,2,1,
,,,,,,,,,,,,,,,,,,5cf5134c8f8ff80019e76721,2020-11-27_10h21.59.728,lexical_decision_task_MP_exp2,2020.2.5,Win32,60,m,1,,,,,,,,0.66843,1,,,,,,109,WORD,UN,33,polite,WONDER,m,0.66843,,,,,,0.946716261,-0.400123929,0,0,0,,0,27,27,168,1,
,,,,,,,,,,,,,,,,,,5cf5134c8f8ff80019e76721,2020-11-27_10h21.59.728,lexical_decision_task_MP_exp2,2020.2.5,Win32,60,z,1,,,,,,,,0.651175,1,,,,,,370,NW,UN,16,geiloy,SLEACT,z,0.651175,,,,,,0.946716261,-0.400123929,0,0,0,,0,28,28,429,1,
,,,,,,,,,,,,,,,,,,5cf5134c8f8ff80019e76721,2020-11-27_10h21.59.728,lexical_decision_task_MP_exp2,2020.2.5,Win32,60,m,1,,,,,,,,0.71217,1,,,,,,7,WORD,"ID",16,anchor,ANCHOR,m,0.71217,,,,,,0.946716261,-0.400123929,0,0,0,,0,29,29,66,1,
,,,,,,,,,,,,,,,,,,5cf5134c8f8ff80019e76721,2020-11-27_10h21.59.728,lexical_decision_task_MP_exp2,2020.2.5,Win32,60,m,1,,,,,,,,0.652735,1,,,,,,225,WORD,"ID",33,vulgar,VULGAR,m,0.652735,,,,,,0.946716261,-0.400123929,0,0,0,,0,30,30,44,1,
,,,,,,,,,,,,,,,,,,5cf5134c8f8ff80019e76721,2020-11-27_10h21.59.728,lexical_decision_task_MP_exp2,2020.2.5,Win32,60,m,1,,,,,,,,0.66923,1,,,,,,114,WORD,UN,33,guitar,PLACID,m,0.66923,,,,,,0.946716261,-0.400123929,0,0,0,,0,31,31,173,1,
,,,,,,,,,,,,,,,,,,5cf5134c8f8ff80019e76721,2020-11-27_10h21.59.728,lexical_decision_task_MP_exp2,2020.2.5,Win32,60,z,1,,,,,,,,0.683515,1,,,,,,418,NW,UN,16,slount,SUIDLE,z,0.683515,,,,,,0.946716261,-0.400123929,0,0,0,,0,32,32,477,1,
,,,,,,,,,,,,,,,,,,5cf5134c8f8ff80019e76721,2020-11-27_10h21.59.728,lexical_decision_task_MP_exp2,2020.2.5,Win32,60,m,1,,,,,,,,0.691685,1,,,,,,63,WORD,UN,33,throne,LAUNCH,m,0.691685,,,,,,0.946716261,-0.400123929,0,0,0,,0,33,33,122,1,
,,,,,,,,,,,,,,,,,,5cf5134c8f8ff80019e76721,2020-11-27_10h21.59.728,lexical_decision_task_MP_exp2,2020.2.5,Win32,60,z,1,,,,,,,,0.69671,1,,,,,,384,NW,UN,16,injore,GUESCO,z,0.69671,,,,,,0.946716261,-0.400123929,0,0,0,,0,34,34,443,1,
,,,,,,,,,,,,,,,,,,5cf5134c8f8ff80019e76721,2020-11-27_10h21.59.728,lexical_decision_task_MP_exp2,2020.2.5,Win32,60,m,0,,,,,,,,0.661055,0,,,,,,348,NW,UN,33,asylen,DUMPLE,z,0.661055,,,,,,0.946716261,-0.400123929,0,0,0,,0,35,35,407,1,
,,,,,,,,,,,,,,,,,,5cf5134c8f8ff80019e76721,2020-11-27_10h21.59.728,lexical_decision_task_MP_exp2,2020.2.5,Win32,60,z,1,,,,,,,,0.82812,1,,,,,,369,NW,UN,16,sleact,WRONCH,z,0.82812,,,,,,0.946716261,-0.400123929,0,0,0,,0,36,36,428,1,
,,,,,,,,,,,,,,,,,,5cf5134c8f8ff80019e76721,2020-11-27_10h21.59.728,lexical_decision_task_MP_exp2,2020.2.5,Win32,60,z,1,,,,,,,,0.68141,1,,,,,,430,NW,"ID",33,caroey,CAROEY,z,0.68141,,,,,,0.946716261,-0.400123929,0,0,0,,0,37,37,249,1,
,,,,,,,,,,,,,,,,,,5cf5134c8f8ff80019e76721,2020-11-27_10h21.59.728,lexical_decision_task_MP_exp2,2020.2.5,Win32,60,z,1,,,,,,,,0.721535,1,,,,,,297,NW,"ID",16,fertic,FERTIC,z,0.721535,,,,,,0.946716261,-0.400123929,0,0,0,,0,38,38,356,1,
,,,,,,,,,,,,,,,,,,5cf5134c8f8ff80019e76721,2020-11-27_10h21.59.728,lexical_decision_task_MP_exp2,2020.2.5,Win32,60,z,1,,,,,,,,0.72723,1,,,,,,367,NW,UN,16,hornal,SLIQUE,z,0.72723,,,,,,0.946716261,-0.400123929,0,0,0,,0,39,39,426,1,
,,,,,,,,,,,,,,,,,,5cf5134c8f8ff80019e76721,2020-11-27_10h21.59.728,lexical_decision_task_MP_exp2,2020.2.5,Win32,60,m,1,,,,,,,,0.674695,1,,,,,,221,WORD,"ID",33,mascot,MASCOT,m,0.674695,,,,,,0.946716261,-0.400123929,0,0,0,,0,40,40,40,1,
,,,,,,,,,,,,,,,,,,5cf5134c8f8ff80019e76721,2020-11-27_10h21.59.728,lexical_decision_task_MP_exp2,2020.2.5,Win32,60,m,1,,,,,,,,0.68479,1,,,,,,27,WORD,"ID",16,scream,SCREAM,m,0.68479,,,,,,0.946716261,-0.400123929,0,0,0,,0,41,41,86,1,
,,,,,,,,,,,,,,,,,,5cf5134c8f8ff80019e76721,2020-11-27_10h21.59.728,lexical_decision_task_MP_exp2,2020.2.5,Win32,60,z,1,,,,,,,,0.74238,1,,,,,,444,NW,"ID",33,jaunce,JAUNCE,z,0.74238,,,,,,0.946716261,-0.400123929,0,0,0,,0,42,42,263,1,
,,,,,,,,,,,,,,,,,,5cf5134c8f8ff80019e76721,2020-11-27_10h21.59.728,lexical_decision_task_MP_exp2,2020.2.5,Win32,60,m,1,,,,,,,,0.723795,1,,,,,,120,WORD,UN,33,ponder,STRAIN,m,0.723795,,,,,,0.946716261,-0.400123929,0,0,0,,0,43,43,179,1,
,,,,,,,,,,,,,,,,,,5cf5134c8f8ff80019e76721,2020-11-27_10h21.59.728,lexical_decision_task_MP_exp2,2020.2.5,Win32,60,m,1,,,,,,,,0.748735,1,,,,,,66,WORD,UN,33,policy,GOSPEL,m,0.748735,,,,,,0.946716261,-0.400123929,0,0,0,,0,44,44,125,1,
,,,,,,,,,,,,,,,,,,5cf5134c8f8ff80019e76721,2020-11-27_10h21.59.728,lexical_decision_task_MP_exp2,2020.2.5,Win32,60,m,1,,,,,,,,0.79301,1,,,,,,46,WORD,"ID",16,single,SINGLE,m,0.79301,,,,,,0.946716261,-0.400123929,0,0,0,,0,45,45,105,1,
,,,,,,,,,,,,,,,,,,5cf5134c8f8ff80019e76721,2020-11-27_10h21.59.728,lexical_decision_task_MP_exp2,2020.2.5,Win32,60,m,1,,,,,,,,0.719145,1,,,,,,188,WORD,"ID",33,social,SOCIAL,m,0.719145,,,,,,0.946716261,-0.400123929,0,0,0,,0,46,46,7,1,
,,,,,,,,,,,,,,,,,,5cf5134c8f8ff80019e76721,2020-11-27_10h21.59.728,lexical_decision_task_MP_exp2,2020.2.5,Win32,60,z,1,,,,,,,,0.65459,1,,,,,,379,NW,UN,16,cavory,AUTING,z,0.65459,,,,,,0.946716261,-0.400123929,0,0,0,,0,47,47,438,1,
,,,,,,,,,,,,,,,,,,5cf5134c8f8ff80019e76721,2020-11-27_10h21.59.728,lexical_decision_task_MP_exp2,2020.2.5,Win32,60,z,1,,,,,,,,0.737135,1,,,,,,408,NW,UN,16,elopia,HURNIA,z,0.737135,,,,,,0.946716261,-0.400123929,0,0,0,,0,48,48,467,1,
,,,,,,,,,,,,,,,,,,5cf5134c8f8ff80019e76721,2020-11-27_10h21.59.728,lexical_decision_task_MP_exp2,2020.2.5,Win32,60,z,1,,,,,,,,0.79937,1,,,,,,450,NW,"ID",33,phrect,PHRECT,z,0.79937,,,,,,0.946716261,-0.400123929,0,0,0,,0,49,49,269,1,
,,,,,,,,,,,,,,,,,,5cf5134c8f8ff80019e76721,2020-11-27_10h21.59.728,lexical_decision_task_MP_exp2,2020.2.5,Win32,60,m,1,,,,,,,,0.77438,1,,,,,,35,WORD,"ID",16,socket,SOCKET,m,0.77438,,,,,,0.946716261,-0.400123929,0,0,0,,0,50,50,94,1,
,,,,,,,,,,,,,,,,,,5cf5134c8f8ff80019e76721,2020-11-27_10h21.59.728,lexical_decision_task_MP_exp2,2020.2.5,Win32,60,m,1,,,,,,,,0.77519,1,,,,,,61,WORD,UN,33,region,PONDER,m,0.77519,,,,,,0.946716261,-0.400123929,0,0,0,,0,51,51,120,1,
,,,,,,,,,,,,,,,,,,5cf5134c8f8ff80019e76721,2020-11-27_10h21.59.728,lexical_decision_task_MP_exp2,2020.2.5,Win32,60,z,1,,,,,,,,0.727845,1,,,,,,440,NW,"ID",33,saride,SARIDE,z,0.727845,,,,,,0.946716261,-0.400123929,0,0,0,,0,52,52,259,1,
,,,,,,,,,,,,,,,,,,5cf5134c8f8ff80019e76721,2020-11-27_10h21.59.728,lexical_decision_task_MP_exp2,2020.2.5,Win32,60,m,1,,,,,,,,0.74815,1,,,,,,112,WORD,UN,33,chorus,BREATH,m,0.74815,,,,,,0.946716261,-0.400123929,0,0,0,,0,53,53,171,1,
,,,,,,,,,,,,,,,,,,5cf5134c8f8ff80019e76721,2020-11-27_10h21.59.728,lexical_decision_task_MP_exp2,2020.2.5,Win32,60,z,1,,,,,,,,0.767895,1,,,,,,424,NW,"ID",33,praile,PRAILE,z,0.767895,,,,,,0.946716261,-0.400123929,0,0,0,,0,54,54,243,1,
,,,,,,,,,,,,,,,,,,5cf5134c8f8ff80019e76721,2020-11-27_10h21.59.728,lexical_decision_task_MP_exp2,2020.2.5,Win32,60,z,1,,,,,,,,0.804195,1,,,,,,299,NW,"ID",16,sturch,STURCH,z,0.804195,,,,,,0.946716261,-0.400123929,0,0,0,,0,55,55,358,1,
,,,,,,,,,,,,,,,,,,5cf5134c8f8ff80019e76721,2020-11-27_10h21.59.728,lexical_decision_task_MP_exp2,2020.2.5,Win32,60,z,1,,,,,,,,0.82378,1,,,,,,411,NW,UN,16,jiluer,ORCHIN,z,0.82378,,,,,,0.946716261,-0.400123929,0,0,0,,0,56,56,470,1,
,,,,,,,,,,,,,,,,,,5cf5134c8f8ff80019e76721,2020-11-27_10h21.59.728,lexical_decision_task_MP_exp2,2020.2.5,Win32,60,m,1,,,,,,,,0.75323,1,,,,,,163,WORD,UN,16,market,STRING,m,0.75323,,,,,,0.946716261,-0.400123929,0,0,0,,0,57,57,222,1,
,,,,,,,,,,,,,,,,,,5cf5134c8f8ff80019e76721,2020-11-27_10h21.59.728,lexical_decision_task_MP_exp2,2020.2.5,Win32,60,z,1,,,,,,,,0.75784,1,,,,,,378,NW,UN,16,auting,SHRILE,z,0.75784,,,,,,0.946716261,-0.400123929,0,0,0,,0,58,58,437,1,
,,,,,,,,,,,,,,,,,,5cf5134c8f8ff80019e76721,2020-11-27_10h21.59.728,lexical_decision_task_MP_exp2,2020.2.5,Win32,60,m,1,,,,,,,,0.8218,1,,,,,,45,WORD,"ID",16,clergy,CLERGY,m,0.8218,,,,,,0.946716261,-0.400123929,0,0,0,,0,59,59,104,1,
,,,,,,,,,,,,,,,,,,5cf5134c8f8ff80019e76721,2020-11-27_10h21.59.728,lexical_decision_task_MP_exp2,2020.2.5,Win32,60,z,1,,,,,,,,0.722915,1,,,,,,350,NW,UN,33,tiesch,NAGURS,z,0.722915,,,,,,0.946716261,-0.400123929,0,0,0,,0,60,60,409,1,
,,,,,,,,,,,,,,,,,,5cf5134c8f8ff80019e76721,2020-11-27_10h21.59.728,lexical_decision_task_MP_exp2,2020.2.5,Win32,60,m,1,,,,,,,,0.79608,1,,,,,,204,WORD,"ID",33,burden,BURDEN,m,0.79608,,,,,,0.946716261,-0.400123929,0,0,0,,0,61,61,23,1,
,,,,,,,,,,,,,,,,,,5cf5134c8f8ff80019e76721,2020-11-27_10h21.59.728,lexical_decision_task_MP_exp2,2020.2.5,Win32,60,m,1,,,,,,,,0.765805,1,,,,,,2,WORD,"ID",16,bridge,BRIDGE,m,0.765805,,,,,,0.946716261,-0.400123929,0,0,0,,0,62,62,61,1,
,,,,,,,,,,,,,,,,,,5cf5134c8f8ff80019e76721,2020-11-27_10h21.59.728,lexical_decision_task_MP_exp2,2020.2.5,Win32,60,z,1,,,,,,,,0.758165,1,,,,,,438,NW,"ID",33,baitch,BAITCH,z,0.758165,,,,,,0.946716261,-0.400123929,0,0,0,,0,63,63,257,1,
,,,,,,,,,,,,,,,,,,5cf5134c8f8ff80019e76721,2020-11-27_10h21.59.728,lexical_decision_task_MP_exp2,2020.2.5,Win32,60,z,1,,,,,,,,0.792915,1,,,,,,277,NW,"ID",16,petain,PETAIN,z,0.792915,,,,,,0.946716261,-0.400123929,0,0,0,,0,64,64,336,1,
,,,,,,,,,,,,,,,,,,5cf5134c8f8ff80019e76721,2020-11-27_10h21.59.728,lexical_decision_task_MP_exp2,2020.2.5,Win32,60,m,1,,,,,,,,0.773245,1,,,,,,119,WORD,UN,33,strain,SPIDER,m,0.773245,,,,,,0.946716261,-0.400123929,0,0,0,,0,65,65,178,1,
,,,,,,,,,,,,,,,,,,5cf5134c8f8ff80019e76721,2020-11-27_10h21.59.728,lexical_decision_task_MP_exp2,2020.2.5,Win32,60,z,1,,,,,,,,0.79006,1,,,,,,353,NW,UN,33,virlex,CLUREY,z,0.79006,,,,,,0.946716261,-0.400123929,0,0,0,,0,66,66,412,1,
,,,,,,,,,,,,,,,,,,5cf5134c8f8ff80019e76721,2020-11-27_10h21.59.728,lexical_decision_task_MP_exp2,2020.2.5,Win32,60,z,1,,,,,,,,0.804315,1,,,,,,355,NW,UN,33,othnis,ZINGLY,z,0.804315,,,,,,0.946716261,-0.400123929,0,0,0,,0,67,67,414,1,
,,,,,,,,,,,,,,,,,,5cf5134c8f8ff80019e76721,2020-11-27_10h21.59.728,lexical_decision_task_MP_exp2,2020.2.5,Win32,60,m,1,,,,,,,,0.799105,1,,,,,,233,WORD,"ID",33,nature,NATURE,m,0.799105,,,,,,0.946716261,-0.400123929,0,0,0,,0,68,68,52,1,
,,,,,,,,,,,,,,,,,,5cf5134c8f8ff80019e76721,2020-11-27_10h21.59.728,lexical_decision_task_MP_exp2,2020.2.5,Win32,60,m,0,,,,,,,,0.913205,0,,,,,,266,NW,"ID",16,varmit,VARMIT,z,0.913205,,,,,,0.946716261,-0.400123929,0,0,0,,0,69,69,325,1,
,,,,,,,,,,,,,,,,,,5cf5134c8f8ff80019e76721,2020-11-27_10h21.59.728,lexical_decision_task_MP_exp2,2020.2.5,Win32,60,m,1,,,,,,,,0.80311,1,,,,,,150,WORD,UN,16,mystic,RANDOM,m,0.80311,,,,,,0.946716261,-0.400123929,0,0,0,,0,70,70,209,1,
,,,,,,,,,,,,,,,,,,5cf5134c8f8ff80019e76721,2020-11-27_10h21.59.728,lexical_decision_task_MP_exp2,2020.2.5,Win32,60,m,1,,,,,,,,0.75277,1,,,,,,94,WORD,UN,33,thread,TRAVEL,m,0.75277,,,,,,0.946716261,-0.400123929,0,0,0,,0,71,71,153,1,
,,,,,,,,,,,,,,,,,,5cf5134c8f8ff80019e76721,2020-11-27_10h21.59.728,lexical_decision_task_MP_exp2,2020.2.5,Win32,60,m,1,,,,,,,,0.57705,1,,,,,,236,WORD,"ID",33,pirate,PIRATE,m,0.57705,,,,,,0.946716261,-0.400123929,0,0,0,,0,72,72,55,1,
,,,,,,,,,,,,,,,,,,5cf5134c8f8ff80019e76721,2020-11-27_10h21.59.728,lexical_decision_task_MP_exp2,2020.2.5,Win32,60,z,1,,,,,,,,0.55173,1,,,,,,241,NW,"ID",16,smenco,SMENCO,z,0.55173,,,,,,0.946716261,-0.400123929,0,0,0,,0,73,73,300,1,
,,,,,,,,,,,,,,,,,,5cf5134c8f8ff80019e76721,2020-11-27_10h21.59.728,lexical_decision_task_MP_exp2,2020.2.5,Win32,60,z,1,,,,,,,,0.480715,1,,,,,,459,NW,"ID",33,bafent,BAFENT,z,0.480715,,,,,,0.946716261,-0.400123929,0,0,0,,0,74,74,278,1,
,,,,,,,,,,,,,,,,,,5cf5134c8f8ff80019e76721,2020-11-27_10h21.59.728,lexical_decision_task_MP_exp2,2020.2.5,Win32,60,m,1,,,,,,,,0.48786,1,,,,,,44,WORD,"ID",16,danger,DANGER,m,0.48786,,,,,,0.946716261,-0.400123929,0,0,0,,0,75,75,103,1,
,,,,,,,,,,,,,,,,,,5cf5134c8f8ff80019e76721,2020-11-27_10h21.59.728,lexical_decision_task_MP_exp2,2020.2.5,Win32,60,z,1,,,,,,,,0.665645,1,,,,,,452,NW,"ID",33,surden,SURDEN,z,0.665645,,,,,,0.946716261,-0.400123929,0,0,0,,0,76,76,271,1,
,,,,,,,,,,,,,,,,,,5cf5134c8f8ff80019e76721,2020-11-27_10h21.59.728,lexical_decision_task_MP_exp2,2020.2.5,Win32,60,m,1,,,,,,,,0.677985,1,,,,,,167,WORD,UN,16,answer,DESIGN,m,0.677985,,,,,,0.946716261,-0.400123929,0,0,0,,0,77,77,226,1,
,,,,,,,,,,,,,,,,,,5cf5134c8f8ff80019e76721,2020-11-27_10h21.59.728,lexical_decision_task_MP_exp2,2020.2.5,Win32,60,m,1,,,,,,,,0.57245,1,,,,,,10,WORD,"ID",16,ethnic,ETHNIC,m,0.57245,,,,,,0.946716261,-0.400123929,0,0,0,,0,78,78,69,1,
,,,,,,,,,,,,,,,,,,5cf5134c8f8ff80019e76721,2020-11-27_10h21.59.728,lexical_decision_task_MP_exp2,2020.2.5,Win32,60,z,1,,,,,,,,0.534665,1,,,,,,325,NW,UN,33,iguade,THRUSE,z,0.534665,,,,,,0.946716261,-0.400123929,0,0,0,,0,79,79,384,1,
,,,,,,,,,,,,,,,,,,5cf5134c8f8ff80019e76721,2020-11-27_10h21.59.728,lexical_decision_task_MP_exp2,2020.2.5,Win32,60,z,1,,,,,,,,0.51618,1,,,,,,445,NW,"ID",33,minkel,MINKEL,z,0.51618,,,,,,0.946716261,-0.400123929,0,0,0,,0,80,80,264,1,
,,,,,,,,,,,,,,,,,,5cf5134c8f8ff80019e76721,2020-11-27_10h21.59.728,lexical_decision_task_MP_exp2,2020.2.5,Win32,60,z,1,,,,,,,,0.531895,1,,,,,,347,NW,UN,33,dumple,KERIFT,z,0.531895,,,,,,0.946716261,-0.400123929,0,0,0,,0,81,81,406,1,
,,,,,,,,,,,,,,,,,,5cf5134c8f8ff80019e76721,2020-11-27_10h21.59.728,lexical_decision_task_MP_exp2,2020.2.5,Win32,60,m,1,,,,,,,,0.533865,1,,,,,,59,WORD,"ID",16,splint,SPLINT,m,0.533865,,,,,,0.946716261,-0.400123929,0,0,0,,0,82,82,118,1,
,,,,,,,,,,,,,,,,,,5cf5134c8f8ff80019e76721,2020-11-27_10h21.59.728,lexical_decision_task_MP_exp2,2020.2.5,Win32,60,z,1,,,,,,,,0.552555,1,,,,,,470,NW,"ID",33,crudio,CRUDIO,z,0.552555,,,,,,0.946716261,-0.400123929,0,0,0,,0,83,83,289,1,
,,,,,,,,,,,,,,,,,,5cf5134c8f8ff80019e76721,2020-11-27_10h21.59.728,lexical_decision_task_MP_exp2,2020.2.5,Win32,60,m,1,,,,,,,,0.614975,1,,,,,,202,WORD,"ID",33,factor,FACTOR,m,0.614975,,,,,,0.946716261,-0.400123929,0,0,0,,0,84,84,21,1,
,,,,,,,,,,,,,,,,,,5cf5134c8f8ff80019e76721,2020-11-27_10h21.59.728,lexical_decision_task_MP_exp2,2020.2.5,Win32,60,z,1,,,,,,,,0.575735,1,,,,,,480,NW,"ID",33,robuly,ROBULY,z,0.575735,,,,,,0.946716261,-0.400123929,0,0,0,,0,85,85,299,1,
,,,,,,,,,,,,,,,,,,5cf5134c8f8ff80019e76721,2020-11-27_10h21.59.728,lexical_decision_task_MP_exp2,2020.2.5,Win32,60,m,1,,,,,,,,0.66439,1,,,,,,228,WORD,"ID",33,master,MASTER,m,0.66439,,,,,,0.946716261,-0.400123929,0,0,0,,0,86,86,47,1,
,,,,,,,,,,,,,,,,,,5cf5134c8f8ff80019e76721,2020-11-27_10h21.59.728,lexical_decision_task_MP_exp2,2020.2.5,Win32,60,z,1,,,,,,,,0.582975,1,,,,,,305,NW,UN,33,sounge,FORGLE,z,0.582975,,,,,,0.946716261,-0.400123929,0,0,0,,0,87,87,364,1,
,,,,,,,,,,,,,,,,,,5cf5134c8f8ff80019e76721,2020-11-27_10h21.59.728,lexical_decision_task_MP_exp2,2020.2.5,Win32,60,z,1,,,,,,,,0.60722,1,,,,,,304,NW,UN,33,forgle,CLUDIE,z,0.60722,,,,,,0.946716261,-0.400123929,0,0,0,,0,88,88,363,1,
,,,,,,,,,,,,,,,,,,5cf5134c8f8ff80019e76721,2020-11-27_10h21.59.728,lexical_decision_task_MP_exp2,2020.2.5,Win32,60,m,1,,,,,,,,0.63269,1,,,,,,145,WORD,UN,16,couple,PARISH,m,0.63269,,,,,,0.946716261,-0.400123929,0,0,0,,0,89,89,204,1,
,,,,,,,,,,,,,,,,,,5cf5134c8f8ff80019e76721,2020-11-27_10h21.59.728,lexical_decision_task_MP_exp2,2020.2.5,Win32,60,z,1,,,,,,,,0.70141,1,,,,,,434,NW,"ID",33,pitrom,PITROM,z,0.70141,,,,,,0.946716261,-0.400123929,0,0,0,,0,90,90,253,1,
,,,,,,,,,,,,,,,,,,5cf5134c8f8ff80019e76721,2020-11-27_10h21.59.728,lexical_decision_task_MP_exp2,2020.2.5,Win32,60,z,1,,,,,,,,0.566395,1,,,,,,351,NW,UN,33,tringe,TIESCH,z,0.566395,,,,,,0.946716261,-0.400123929,0,0,0,,0,91,91,410,1,
,,,,,,,,,,,,,,,,,,5cf5134c8f8ff80019e76721,2020-11-27_10h21.59.728,lexical_decision_task_MP_exp2,2020.2.5,Win32,60,m,1,,,,,,,,0.50492,1,,,,,,220,WORD,"ID",33,voyage,VOYAGE,m,0.50492,,,,,,0.946716261,-0.400123929,0,0,0,,0,92,92,39,1,
,,,,,,,,,,,,,,,,,,5cf5134c8f8ff80019e76721,2020-11-27_10h21.59.728,lexical_decision_task_MP_exp2,2020.2.5,Win32,60,z,1,,,,,,,,0.58658,1,,,,,,323,NW,UN,33,steikh,ROSAIL,z,0.58658,,,,,,0.946716261,-0.400123929,0,0,0,,0,93,93,382,1,
,,,,,,,,,,,,,,,,,,5cf5134c8f8ff80019e76721,2020-11-27_10h21.59.728,lexical_decision_task_MP_exp2,2020.2.5,Win32,60,m,0,,,,,,,,0.72358,0,,,,,,345,NW,UN,33,saudic,ABSEND,z,0.72358,,,,,,0.946716261,-0.400123929,0,0,0,,0,94,94,404,1,
,,,,,,,,,,,,,,,,,,5cf5134c8f8ff80019e76721,2020-11-27_10h21.59.728,lexical_decision_task_MP_exp2,2020.2.5,Win32,60,z,1,,,,,,,,0.81674,1,,,,,,332,NW,UN,33,catrie,VANGUE,z,0.81674,,,,,,0.946716261,-0.400123929,0,0,0,,0,95,95,391,1,
,,,,,,,,,,,,,,,,,,5cf5134c8f8ff80019e76721,2020-11-27_10h21.59.728,lexical_decision_task_MP_exp2,2020.2.5,Win32,60,z,1,,,,,,,,0.528795,1,,,,,,479,NW,"ID",33,lobush,LOBUSH,z,0.528795,,,,,,0.946716261,-0.400123929,0,0,0,,0,96,96,298,1,
,,,,,,,,,,,,,,,,,,5cf5134c8f8ff80019e76721,2020-11-27_10h21.59.728,lexical_decision_task_MP_exp2,2020.2.5,Win32,60,m,1,,,,,,,,0.509005,1,,,,,,201,WORD,"ID",33,admire,ADMIRE,m,0.509005,,,,,,0.946716261,-0.400123929,0,0,0,,0,97,97,20,1,
,,,,,,,,,,,,,,,,,,5cf5134c8f8ff80019e76721,2020-11-27_10h21.59.728,lexical_decision_task_MP_exp2,2020.2.5,Win32,60,m,1,,,,,,,,0.73968,1,,,,,,97,WORD,UN,33,belong,CLIENT,m,0.73968,,,,,,0.946716261,-0.400123929,0,0,0,,0,98,98,156,1,
,,,,,,,,,,,,,,,,,,5cf5134c8f8ff80019e76721,2020-11-27_10h21.59.728,lexical_decision_task_MP_exp2,2020.2.5,Win32,60,z,1,,,,,,,,0.63483,1,,,,,,321,NW,UN,33,slanch,MIATOR,z,0.63483,,,,,,0.946716261,-0.400123929,0,0,0,,0,99,99,380,1,
,,,,,,,,,,,,,,,,,,5cf5134c8f8ff80019e76721,2020-11-27_10h21.59.728,lexical_decision_task_MP_exp2,2020.2.5,Win32,60,z,1,,,,,,,,0.546365,1,,,,,,383,NW,UN,16,guesco,AUNGRE,z,0.546365,,,,,,0.946716261,-0.400123929,0,0,0,,0,100,100,442,1,
,,,,,,,,,,,,,,,,,,5cf5134c8f8ff80019e76721,2020-11-27_10h21.59.728,lexical_decision_task_MP_exp2,2020.2.5,Win32,60,m,1,,,,,,,,0.646065,1,,,,,,178,WORD,UN,16,basket,INFORM,m,0.646065,,,,,,0.946716261,-0.400123929,0,0,0,,0,101,101,237,1,
,,,,,,,,,,,,,,,,,,5cf5134c8f8ff80019e76721,2020-11-27_10h21.59.728,lexical_decision_task_MP_exp2,2020.2.5,Win32,60,z,1,,,,,,,,0.555185,1,,,,,,329,NW,UN,33,kensom,YARIKE,z,0.555185,,,,,,0.946716261,-0.400123929,0,0,0,,0,102,102,388,1,
,,,,,,,,,,,,,,,,,,5cf5134c8f8ff80019e76721,2020-11-27_10h21.59.728,lexical_decision_task_MP_exp2,2020.2.5,Win32,60,m,1,,,,,,,,0.53342,1,,,,,,72,WORD,UN,33,source,BRIGHT,m,0.53342,,,,,,0.946716261,-0.400123929,0,0,0,,0,103,103,131,1,
,,,,,,,,,,,,,,,,,,5cf5134c8f8ff80019e76721,2020-11-27_10h21.59.728,lexical_decision_task_MP_exp2,2020.2.5,Win32,60,z,1,,,,,,,,0.523555,1,,,,,,363,NW,UN,16,impote,BREALI,z,0.523555,,,,,,0.946716261,-0.400123929,0,0,0,,0,104,104,422,1,
,,,,,,,,,,,,,,,,,,5cf5134c8f8ff80019e76721,2020-11-27_10h21.59.728,lexical_decision_task_MP_exp2,2020.2.5,Win32,60,m,1,,,,,,,,0.642925,1,,,,,,5,WORD,"ID",16,plunge,PLUNGE,m,0.642925,,,,,,0.946716261,-0.400123929,0,0,0,,0,105,105,64,1,
,,,,,,,,,,,,,,,,,,5cf5134c8f8ff80019e76721,2020-11-27_10h21.59.728,lexical_decision_task_MP_exp2,2020.2.5,Win32,60,z,1,,,,,,,,0.538585,1,,,,,,257,NW,"ID",16,veniod,VENIOD,z,0.538585,,,,,,0.946716261,-0.400123929,0,0,0,,0,106,106,316,1,
,,,,,,,,,,,,,,,,,,5cf5134c8f8ff80019e76721,2020-11-27_10h21.59.728,lexical_decision_task_MP_exp2,2020.2.5,Win32,60,m,1,,,,,,,,0.640215,1,,,,,,91,WORD,UN,33,hunger,EXPAND,m,0.640215,,,,,,0.946716261,-0.400123929,0,0,0,,0,107,107,150,1,
,,,,,,,,,,,,,,,,,,5cf5134c8f8ff80019e76721,2020-11-27_10h21.59.728,lexical_decision_task_MP_exp2,2020.2.5,Win32,60,m,1,,,,,,,,0.591805,1,,,,,,76,WORD,UN,33,racket,EXOTIC,m,0.591805,,,,,,0.946716261,-0.400123929,0,0,0,,0,108,108,135,1,
,,,,,,,,,,,,,,,,,,5cf5134c8f8ff80019e76721,2020-11-27_10h21.59.728,lexical_decision_task_MP_exp2,2020.2.5,Win32,60,m,1,,,,,,,,0.578875,1,,,,,,235,WORD,"ID",33,grumpy,GRUMPY,m,0.578875,,,,,,0.946716261,-0.400123929,0,0,0,,0,109,109,54,1,
,,,,,,,,,,,,,,,,,,5cf5134c8f8ff80019e76721,2020-11-27_10h21.59.728,lexical_decision_task_MP_exp2,2020.2.5,Win32,60,m,1,,,,,,,,0.60192,1,,,,,,215,WORD,"ID",33,phobia,PHOBIA,m,0.60192,,,,,,0.946716261,-0.400123929,0,0,0,,0,110,110,34,1,
,,,,,,,,,,,,,,,,,,5cf5134c8f8ff80019e76721,2020-11-27_10h21.59.728,lexical_decision_task_MP_exp2,2020.2.5,Win32,60,z,1,,,,,,,,0.58709,1,,,,,,291,NW,"ID",16,pretch,PRETCH,z,0.58709,,,,,,0.946716261,-0.400123929,0,0,0,,0,111,111,350,1,
,,,,,,,,,,,,,,,,,,5cf5134c8f8ff80019e76721,2020-11-27_10h21.59.728,lexical_decision_task_MP_exp2,2020.2.5,Win32,60,z,1,,,,,,,,0.59891,1,,,,,,310,NW,UN,33,sproly,DANIET,z,0.59891,,,,,,0.946716261,-0.400123929,0,0,0,,0,112,112,369,1,
,,,,,,,,,,,,,,,,,,5cf5134c8f8ff80019e76721,2020-11-27_10h21.59.728,lexical_decision_task_MP_exp2,2020.2.5,Win32,60,m,1,,,,,,,,0.515085,1,,,,,,80,WORD,UN,33,friend,FAMILY,m,0.515085,,,,,,0.946716261,-0.400123929,0,0,0,,0,113,113,139,1,
,,,,,,,,,,,,,,,,,,5cf5134c8f8ff80019e76721,2020-11-27_10h21.59.728,lexical_decision_task_MP_exp2,2020.2.5,Win32,60,z,1,,,,,,,,0.65063,1,,,,,,334,NW,UN,33,desion,WATMEG,z,0.65063,,,,,,0.946716261,-0.400123929,0,0,0,,0,114,114,393,1,
,,,,,,,,,,,,,,,,,,5cf5134c8f8ff80019e76721,2020-11-27_10h21.59.728,lexical_decision_task_MP_exp2,2020.2.5,Win32,60,z,1,,,,,,,,0.514185,1,,,,,,275,NW,"ID",16,sleirt,SLEIRT,z,0.514185,,,,,,0.946716261,-0.400123929,0,0,0,,0,115,115,334,1,
,,,,,,,,,,,,,,,,,,5cf5134c8f8ff80019e76721,2020-11-27_10h21.59.728,lexical_decision_task_MP_exp2,2020.2.5,Win32,60,m,1,,,,,,,,0.547495,1,,,,,,231,WORD,"ID",33,export,EXPORT,m,0.547495,,,,,,0.946716261,-0.400123929,0,0,0,,0,116,116,50,1,
,,,,,,,,,,,,,,,,,,5cf5134c8f8ff80019e76721,2020-11-27_10h21.59.728,lexical_decision_task_MP_exp2,2020.2.5,Win32,60,z,0,,,,,,,,0.65519,0,,,,,,117,WORD,UN,33,flight,BRANCH,m,0.65519,,,,,,0.946716261,-0.400123929,0,0,0,,0,117,117,176,1,
,,,,,,,,,,,,,,,,,,5cf5134c8f8ff80019e76721,2020-11-27_10h21.59.728,lexical_decision_task_MP_exp2,2020.2.5,Win32,60,z,1,,,,,,,,0.661475,1,,,,,,392,NW,UN,16,ganous,ROUNCY,z,0.661475,,,,,,0.946716261,-0.400123929,0,0,0,,0,118,118,451,1,
,,,,,,,,,,,,,,,,,,5cf5134c8f8ff80019e76721,2020-11-27_10h21.59.728,lexical_decision_task_MP_exp2,2020.2.5,Win32,60,z,1,,,,,,,,0.66224,1,,,,,,268,NW,"ID",16,packes,PACKES,z,0.66224,,,,,,0.946716261,-0.400123929,0,0,0,,0,119,119,327,1,
,,,,,,,,,,,,,,,,,,5cf5134c8f8ff80019e76721,2020-11-27_10h21.59.728,lexical_decision_task_MP_exp2,2020.2.5,Win32,60,m,1,,,,,,,,0.583875,1,,,,,,123,WORD,UN,16,blouse,STRIKE,m,0.583875,,,,,,0.946716261,-0.400123929,0,0,0,space,0,120,120,182,1,12.910755
,,,,,,,,,,,,,,,,,,5cf5134c8f8ff80019e76721,2020-11-27_10h21.59.728,lexical_decision_task_MP_exp2,2020.2.5,Win32,60,z,1,,,,,,,,0.687785,1,,,,,,453,NW,"ID",33,bolvis,BOLVIS,z,0.687785,,,,,,0.946716261,-0.400123929,0,0,0,,0,121,121,272,1,
,,,,,,,,,,,,,,,,,,5cf5134c8f8ff80019e76721,2020-11-27_10h21.59.728,lexical_decision_task_MP_exp2,2020.2.5,Win32,60,z,0,,,,,,,,0.507425,0,,,,,,40,WORD,"ID",16,convey,CONVEY,m,0.507425,,,,,,0.946716261,-0.400123929,0,0,0,,0,122,122,99,1,
,,,,,,,,,,,,,,,,,,5cf5134c8f8ff80019e76721,2020-11-27_10h21.59.728,lexical_decision_task_MP_exp2,2020.2.5,Win32,60,z,1,,,,,,,,0.53899,1,,,,,,361,NW,UN,16,tireau,PAUCHE,z,0.53899,,,,,,0.946716261,-0.400123929,0,0,0,,0,123,123,420,1,
,,,,,,,,,,,,,,,,,,5cf5134c8f8ff80019e76721,2020-11-27_10h21.59.728,lexical_decision_task_MP_exp2,2020.2.5,Win32,60,m,1,,,,,,,,0.817095,1,,,,,,191,WORD,"ID",33,stable,STABLE,m,0.817095,,,,,,0.946716261,-0.400123929,0,0,0,,0,124,124,10,1,
,,,,,,,,,,,,,,,,,,5cf5134c8f8ff80019e76721,2020-11-27_10h21.59.728,lexical_decision_task_MP_exp2,2020.2.5,Win32,60,m,1,,,,,,,,0.656405,1,,,,,,99,WORD,UN,33,carbon,FLUENT,m,0.656405,,,,,,0.946716261,-0.400123929,0,0,0,,0,125,125,158,1,
,,,,,,,,,,,,,,,,,,5cf5134c8f8ff80019e76721,2020-11-27_10h21.59.728,lexical_decision_task_MP_exp2,2020.2.5,Win32,60,z,1,,,,,,,,0.584585,1,,,,,,360,NW,UN,33,fainch,DESORY,z,0.584585,,,,,,0.946716261,-0.400123929,0,0,0,,0,126,126,419,1,
,,,,,,,,,,,,,,,,,,5cf5134c8f8ff80019e76721,2020-11-27_10h21.59.728,lexical_decision_task_MP_exp2,2020.2.5,Win32,60,z,1,,,,,,,,0.74285,1,,,,,,307,NW,UN,33,psetch,KIRAFE,z,0.74285,,,,,,0.946716261,-0.400123929,0,0,0,,0,127,127,366,1,
,,,,,,,,,,,,,,,,,,5cf5134c8f8ff80019e76721,2020-11-27_10h21.59.728,lexical_decision_task_MP_exp2,2020.2.5,Win32,60,z,1,,,,,,,,0.54116,1,,,,,,274,NW,"ID",16,fumblo,FUMBLO,z,0.54116,,,,,,0.946716261,-0.400123929,0,0,0,,0,128,128,333,1,
,,,,,,,,,,,,,,,,,,5cf5134c8f8ff80019e76721,2020-11-27_10h21.59.728,lexical_decision_task_MP_exp2,2020.2.5,Win32,60,m,1,,,,,,,,0.550975,1,,,,,,161,WORD,UN,16,candle,PASTOR,m,0.550975,,,,,,0.946716261,-0.400123929,0,0,0,,0,129,129,220,1,
,,,,,,,,,,,,,,,,,,5cf5134c8f8ff80019e76721,2020-11-27_10h21.59.728,lexical_decision_task_MP_exp2,2020.2.5,Win32,60,m,1,,,,,,,,0.690805,1,,,,,,100,WORD,UN,33,wrench,CARBON,m,0.690805,,,,,,0.946716261,-0.400123929,0,0,0,,0,130,130,159,1,
,,,,,,,,,,,,,,,,,,5cf5134c8f8ff80019e76721,2020-11-27_10h21.59.728,lexical_decision_task_MP_exp2,2020.2.5,Win32,60,m,1,,,,,,,,0.53505,1,,,,,,194,WORD,"ID",33,absent,ABSENT,m,0.53505,,,,,,0.946716261,-0.400123929,0,0,0,,0,131,131,13,1,
,,,,,,,,,,,,,,,,,,5cf5134c8f8ff80019e76721,2020-11-27_10h21.59.728,lexical_decision_task_MP_exp2,2020.2.5,Win32,60,z,1,,,,,,,,0.466775,1,,,,,,421,NW,"ID",33,knisma,KNISMA,z,0.466775,,,,,,0.946716261,-0.400123929,0,0,0,,0,132,132,240,1,
,,,,,,,,,,,,,,,,,,5cf5134c8f8ff80019e76721,2020-11-27_10h21.59.728,lexical_decision_task_MP_exp2,2020.2.5,Win32,60,m,1,,,,,,,,0.55471,1,,,,,,168,WORD,UN,16,genius,ANSWER,m,0.55471,,,,,,0.946716261,-0.400123929,0,0,0,,0,133,133,227,1,
,,,,,,,,,,,,,,,,,,5cf5134c8f8ff80019e76721,2020-11-27_10h21.59.728,lexical_decision_task_MP_exp2,2020.2.5,Win32,60,z,1,,,,,,,,0.67845,1,,,,,,371,NW,UN,16,ramily,GEILOY,z,0.67845,,,,,,0.946716261,-0.400123929,0,0,0,,0,134,134,430,1,
,,,,,,,,,,,,,,,,,,5cf5134c8f8ff80019e76721,2020-11-27_10h21.59.728,lexical_decision_task_MP_exp2,2020.2.5,Win32,60,z,1,,,,,,,,0.55104,1,,,,,,312,NW,UN,33,paurse,NERAWL,z,0.55104,,,,,,0.946716261,-0.400123929,0,0,0,,0,135,135,371,1,
,,,,,,,,,,,,,,,,,,5cf5134c8f8ff80019e76721,2020-11-27_10h21.59.728,lexical_decision_task_MP_exp2,2020.2.5,Win32,60,m,1,,,,,,,,0.5768,1,,,,,,68,WORD,UN,33,plenty,FUMBLE,m,0.5768,,,,,,0.946716261,-0.400123929,0,0,0,,0,136,136,127,1,
,,,,,,,,,,,,,,,,,,5cf5134c8f8ff80019e76721,2020-11-27_10h21.59.728,lexical_decision_task_MP_exp2,2020.2.5,Win32,60,z,1,,,,,,,,0.649385,1,,,,,,322,NW,UN,33,rosail,SLANCH,z,0.649385,,,,,,0.946716261,-0.400123929,0,0,0,,0,137,137,381,1,
,,,,,,,,,,,,,,,,,,5cf5134c8f8ff80019e76721,2020-11-27_10h21.59.728,lexical_decision_task_MP_exp2,2020.2.5,Win32,60,m,1,,,,,,,,0.580455,1,,,,,,149,WORD,UN,16,random,INVADE,m,0.580455,,,,,,0.946716261,-0.400123929,0,0,0,,0,138,138,208,1,
,,,,,,,,,,,,,,,,,,5cf5134c8f8ff80019e76721,2020-11-27_10h21.59.728,lexical_decision_task_MP_exp2,2020.2.5,Win32,60,m,1,,,,,,,,0.56775,1,,,,,,152,WORD,UN,16,behold,ROCKET,m,0.56775,,,,,,0.946716261,-0.400123929,0,0,0,,0,139,139,211,1,
,,,,,,,,,,,,,,,,,,5cf5134c8f8ff80019e76721,2020-11-27_10h21.59.728,lexical_decision_task_MP_exp2,2020.2.5,Win32,60,m,1,,,,,,,,0.631595,1,,,,,,13,WORD,"ID",16,strive,STRIVE,m,0.631595,,,,,,0.946716261,-0.400123929,0,0,0,,0,140,140,72,1,
,,,,,,,,,,,,,,,,,,5cf5134c8f8ff80019e76721,2020-11-27_10h21.59.728,lexical_decision_task_MP_exp2,2020.2.5,Win32,60,m,1,,,,,,,,0.568155,1,,,,,,39,WORD,"ID",16,insect,INSECT,m,0.568155,,,,,,0.946716261,-0.400123929,0,0,0,,0,141,141,98,1,
,,,,,,,,,,,,,,,,,,5cf5134c8f8ff80019e76721,2020-11-27_10h21.59.728,lexical_decision_task_MP_exp2,2020.2.5,Win32,60,m,1,,,,,,,,0.54094,1,,,,,,165,WORD,UN,16,starch,INVEST,m,0.54094,,,,,,0.946716261,-0.400123929,0,0,0,,0,142,142,224,1,
,,,,,,,,,,,,,,,,,,5cf5134c8f8ff80019e76721,2020-11-27_10h21.59.728,lexical_decision_task_MP_exp2,2020.2.5,Win32,60,m,1,,,,,,,,0.557545,1,,,,,,218,WORD,"ID",33,shrink,SHRINK,m,0.557545,,,,,,0.946716261,-0.400123929,0,0,0,,0,143,143,37,1,
,,,,,,,,,,,,,,,,,,5cf5134c8f8ff80019e76721,2020-11-27_10h21.59.728,lexical_decision_task_MP_exp2,2020.2.5,Win32,60,m,1,,,,,,,,0.54381,1,,,,,,192,WORD,"ID",33,plague,PLAGUE,m,0.54381,,,,,,0.946716261,-0.400123929,0,0,0,,0,144,144,11,1,
,,,,,,,,,,,,,,,,,,5cf5134c8f8ff80019e76721,2020-11-27_10h21.59.728,lexical_decision_task_MP_exp2,2020.2.5,Win32,60,m,1,,,,,,,,0.48797,1,,,,,,175,WORD,UN,16,strife,FABRIC,m,0.48797,,,,,,0.946716261,-0.400123929,0,0,0,,0,145,145,234,1,
,,,,,,,,,,,,,,,,,,5cf5134c8f8ff80019e76721,2020-11-27_10h21.59.728,lexical_decision_task_MP_exp2,2020.2.5,Win32,60,z,1,,,,,,,,0.73427,1,,,,,,462,NW,"ID",33,absult,ABSULT,z,0.73427,,,,,,0.946716261,-0.400123929,0,0,0,,0,146,146,281,1,
,,,,,,,,,,,,,,,,,,5cf5134c8f8ff80019e76721,2020-11-27_10h21.59.728,lexical_decision_task_MP_exp2,2020.2.5,Win32,60,z,1,,,,,,,,0.457465,1,,,,,,375,NW,UN,16,iguare,YORQUE,z,0.457465,,,,,,0.946716261,-0.400123929,0,0,0,,0,147,147,434,1,
,,,,,,,,,,,,,,,,,,5cf5134c8f8ff80019e76721,2020-11-27_10h21.59.728,lexical_decision_task_MP_exp2,2020.2.5,Win32,60,z,1,,,,,,,,0.515425,1,,,,,,286,NW,"ID",16,reldon,RELDON,z,0.515425,,,,,,0.946716261,-0.400123929,0,0,0,,0,148,148,345,1,
,,,,,,,,,,,,,,,,,,5cf5134c8f8ff80019e76721,2020-11-27_10h21.59.728,lexical_decision_task_MP_exp2,2020.2.5,Win32,60,m,1,,,,,,,,0.58356,1,,,,,,196,WORD,"ID",33,credit,CREDIT,m,0.58356,,,,,,0.946716261,-0.400123929,0,0,0,,0,149,149,15,1,
,,,,,,,,,,,,,,,,,,5cf5134c8f8ff80019e76721,2020-11-27_10h21.59.728,lexical_decision_task_MP_exp2,2020.2.5,Win32,60,m,1,,,,,,,,0.849635,1,,,,,,144,WORD,UN,16,parish,SPONGE,m,0.849635,,,,,,0.946716261,-0.400123929,0,0,0,,0,150,150,203,1,
,,,,,,,,,,,,,,,,,,5cf5134c8f8ff80019e76721,2020-11-27_10h21.59.728,lexical_decision_task_MP_exp2,2020.2.5,Win32,60,z,1,,,,,,,,0.54817,1,,,,,,472,NW,"ID",33,cigney,CIGNEY,z,0.54817,,,,,,0.946716261,-0.400123929,0,0,0,,0,151,151,291,1,
,,,,,,,,,,,,,,,,,,5cf5134c8f8ff80019e76721,2020-11-27_10h21.59.728,lexical_decision_task_MP_exp2,2020.2.5,Win32,60,m,1,,,,,,,,0.673825,1,,,,,,115,WORD,UN,33,tumble,GUITAR,m,0.673825,,,,,,0.946716261,-0.400123929,0,0,0,,0,152,152,174,1,
,,,,,,,,,,,,,,,,,,5cf5134c8f8ff80019e76721,2020-11-27_10h21.59.728,lexical_decision_task_MP_exp2,2020.2.5,Win32,60,z,1,,,,,,,,0.833615,1,,,,,,280,NW,"ID",16,curbol,CURBOL,z,0.833615,,,,,,0.946716261,-0.400123929,0,0,0,,0,153,153,339,1,
,,,,,,,,,,,,,,,,,,5cf5134c8f8ff80019e76721,2020-11-27_10h21.59.728,lexical_decision_task_MP_exp2,2020.2.5,Win32,60,m,1,,,,,,,,0.550925,1,,,,,,3,WORD,"ID",16,knight,KNIGHT,m,0.550925,,,,,,0.946716261,-0.400123929,0,0,0,,0,154,154,62,1,
,,,,,,,,,,,,,,,,,,5cf5134c8f8ff80019e76721,2020-11-27_10h21.59.728,lexical_decision_task_MP_exp2,2020.2.5,Win32,60,m,1,,,,,,,,0.72861,1,,,,,,77,WORD,UN,33,column,RACKET,m,0.72861,,,,,,0.946716261,-0.400123929,0,0,0,,0,155,155,136,1,
,,,,,,,,,,,,,,,,,,5cf5134c8f8ff80019e76721,2020-11-27_10h21.59.728,lexical_decision_task_MP_exp2,2020.2.5,Win32,60,m,1,,,,,,,,0.55702,1,,,,,,234,WORD,"ID",33,clumsy,CLUMSY,m,0.55702,,,,,,0.946716261,-0.400123929,0,0,0,,0,156,156,53,1,
,,,,,,,,,,,,,,,,,,5cf5134c8f8ff80019e76721,2020-11-27_10h21.59.728,lexical_decision_task_MP_exp2,2020.2.5,Win32,60,z,1,,,,,,,,0.572615,1,,,,,,467,NW,"ID",33,gorbie,GORBIE,z,0.572615,,,,,,0.946716261,-0.400123929,0,0,0,,0,157,157,286,1,
,,,,,,,,,,,,,,,,,,5cf5134c8f8ff80019e76721,2020-11-27_10h21.59.728,lexical_decision_task_MP_exp2,2020.2.5,Win32,60,z,1,,,,,,,,0.50742,1,,,,,,270,NW,"ID",16,wrimsy,WRIMSY,z,0.50742,,,,,,0.946716261,-0.400123929,0,0,0,,0,158,158,329,1,
,,,,,,,,,,,,,,,,,,5cf5134c8f8ff80019e76721,2020-11-27_10h21.59.728,lexical_decision_task_MP_exp2,2020.2.5,Win32,60,m,1,,,,,,,,0.58247,1,,,,,,88,WORD,UN,33,permit,HUNGER,m,0.58247,,,,,,0.946716261,-0.400123929,0,0,0,,0,159,159,147,1,
,,,,,,,,,,,,,,,,,,5cf5134c8f8ff80019e76721,2020-11-27_10h21.59.728,lexical_decision_task_MP_exp2,2020.2.5,Win32,60,m,1,,,,,,,,0.57109,1,,,,,,128,WORD,UN,16,marvel,SENIOR,m,0.57109,,,,,,0.946716261,-0.400123929,0,0,0,,0,160,160,187,1,
,,,,,,,,,,,,,,,,,,5cf5134c8f8ff80019e76721,2020-11-27_10h21.59.728,lexical_decision_task_MP_exp2,2020.2.5,Win32,60,z,1,,,,,,,,0.54098,1,,,,,,330,NW,UN,33,gilfew,KENSOM,z,0.54098,,,,,,0.946716261,-0.400123929,0,0,0,,0,161,161,389,1,
,,,,,,,,,,,,,,,,,,5cf5134c8f8ff80019e76721,2020-11-27_10h21.59.728,lexical_decision_task_MP_exp2,2020.2.5,Win32,60,m,0,,,,,,,,0.62561,0,,,,,,454,NW,"ID",33,scouge,SCOUGE,z,0.62561,,,,,,0.946716261,-0.400123929,0,0,0,,0,162,162,273,1,
,,,,,,,,,,,,,,,,,,5cf5134c8f8ff80019e76721,2020-11-27_10h21.59.728,lexical_decision_task_MP_exp2,2020.2.5,Win32,60,z,1,,,,,,,,0.574885,1,,,,,,388,NW,UN,16,witmer,CRAGIN,z,0.574885,,,,,,0.946716261,-0.400123929,0,0,0,,0,163,163,447,1,
,,,,,,,,,,,,,,,,,,5cf5134c8f8ff80019e76721,2020-11-27_10h21.59.728,lexical_decision_task_MP_exp2,2020.2.5,Win32,60,m,1,,,,,,,,0.61849,1,,,,,,132,WORD,UN,16,orphan,STRONG,m,0.61849,,,,,,0.946716261,-0.400123929,0,0,0,,0,164,164,191,1,
,,,,,,,,,,,,,,,,,,5cf5134c8f8ff80019e76721,2020-11-27_10h21.59.728,lexical_decision_task_MP_exp2,2020.2.5,Win32,60,z,1,,,,,,,,0.89244,1,,,,,,357,NW,UN,33,fleack,DERAIN,z,0.89244,,,,,,0.946716261,-0.400123929,0,0,0,,0,165,165,416,1,
,,,,,,,,,,,,,,,,,,5cf5134c8f8ff80019e76721,2020-11-27_10h21.59.728,lexical_decision_task_MP_exp2,2020.2.5,Win32,60,z,1,,,,,,,,0.59235,1,,,,,,420,NW,UN,16,pauche,GUSHOP,z,0.59235,,,,,,0.946716261,-0.400123929,0,0,0,,0,166,166,479,1,
,,,,,,,,,,,,,,,,,,5cf5134c8f8ff80019e76721,2020-11-27_10h21.59.728,lexical_decision_task_MP_exp2,2020.2.5,Win32,60,z,1,,,,,,,,0.54905,1,,,,,,328,NW,UN,33,yarike,BROAKE,z,0.54905,,,,,,0.946716261,-0.400123929,0,0,0,,0,167,167,387,1,
,,,,,,,,,,,,,,,,,,5cf5134c8f8ff80019e76721,2020-11-27_10h21.59.728,lexical_decision_task_MP_exp2,2020.2.5,Win32,60,m,1,,,,,,,,0.618525,1,,,,,,197,WORD,"ID",33,stream,STREAM,m,0.618525,,,,,,0.946716261,-0.400123929,0,0,0,,0,168,168,16,1,
,,,,,,,,,,,,,,,,,,5cf5134c8f8ff80019e76721,2020-11-27_10h21.59.728,lexical_decision_task_MP_exp2,2020.2.5,Win32,60,m,1,,,,,,,,0.749575,1,,,,,,54,WORD,"ID",16,ramble,RAMBLE,m,0.749575,,,,,,0.946716261,-0.400123929,0,0,0,,0,169,169,113,1,
,,,,,,,,,,,,,,,,,,5cf5134c8f8ff80019e76721,2020-11-27_10h21.59.728,lexical_decision_task_MP_exp2,2020.2.5,Win32,60,m,0,,,,,,,,0.65426,0,,,,,,285,NW,"ID",16,prudge,PRUDGE,z,0.65426,,,,,,0.946716261,-0.400123929,0,0,0,,0,170,170,344,1,
,,,,,,,,,,,,,,,,,,5cf5134c8f8ff80019e76721,2020-11-27_10h21.59.728,lexical_decision_task_MP_exp2,2020.2.5,Win32,60,m,1,,,,,,,,0.650275,1,,,,,,222,WORD,"ID",33,hinder,HINDER,m,0.650275,,,,,,0.946716261,-0.400123929,0,0,0,,0,171,171,41,1,
,,,,,,,,,,,,,,,,,,5cf5134c8f8ff80019e76721,2020-11-27_10h21.59.728,lexical_decision_task_MP_exp2,2020.2.5,Win32,60,z,1,,,,,,,,0.63181,1,,,,,,290,NW,"ID",16,splino,SPLINO,z,0.63181,,,,,,0.946716261,-0.400123929,0,0,0,,0,172,172,349,1,
,,,,,,,,,,,,,,,,,,5cf5134c8f8ff80019e76721,2020-11-27_10h21.59.728,lexical_decision_task_MP_exp2,2020.2.5,Win32,60,z,0,,,,,,,,0.621015,0,,,,,,135,WORD,UN,16,bleach,IMPORT,m,0.621015,,,,,,0.946716261,-0.400123929,0,0,0,,0,173,173,194,1,
,,,,,,,,,,,,,,,,,,5cf5134c8f8ff80019e76721,2020-11-27_10h21.59.728,lexical_decision_task_MP_exp2,2020.2.5,Win32,60,z,1,,,,,,,,0.67427,1,,,,,,251,NW,"ID",16,lupict,LUPICT,z,0.67427,,,,,,0.946716261,-0.400123929,0,0,0,,0,174,174,310,1,
,,,,,,,,,,,,,,,,,,5cf5134c8f8ff80019e76721,2020-11-27_10h21.59.728,lexical_decision_task_MP_exp2,2020.2.5,Win32,60,m,1,,,,,,,,0.83333,1,,,,,,181,WORD,"ID",33,glance,GLANCE,m,0.83333,,,,,,0.946716261,-0.400123929,0,0,0,,0,175,175,0,1,
,,,,,,,,,,,,,,,,,,5cf5134c8f8ff80019e76721,2020-11-27_10h21.59.728,lexical_decision_task_MP_exp2,2020.2.5,Win32,60,z,1,,,,,,,,0.655905,1,,,,,,433,NW,"ID",33,drance,DRANCE,z,0.655905,,,,,,0.946716261,-0.400123929,0,0,0,,0,176,176,252,1,
,,,,,,,,,,,,,,,,,,5cf5134c8f8ff80019e76721,2020-11-27_10h21.59.728,lexical_decision_task_MP_exp2,2020.2.5,Win32,60,m,1,,,,,,,,0.591535,1,,,,,,49,WORD,"ID",16,survey,SURVEY,m,0.591535,,,,,,0.946716261,-0.400123929,0,0,0,,0,177,177,108,1,
,,,,,,,,,,,,,,,,,,5cf5134c8f8ff80019e76721,2020-11-27_10h21.59.728,lexical_decision_task_MP_exp2,2020.2.5,Win32,60,m,1,,,,,,,,0.61597,1,,,,,,162,WORD,UN,16,string,CANDLE,m,0.61597,,,,,,0.946716261,-0.400123929,0,0,0,,0,178,178,221,1,
,,,,,,,,,,,,,,,,,,5cf5134c8f8ff80019e76721,2020-11-27_10h21.59.728,lexical_decision_task_MP_exp2,2020.2.5,Win32,60,z,1,,,,,,,,0.553965,1,,,,,,358,NW,UN,33,fonver,FLEACK,z,0.553965,,,,,,0.946716261,-0.400123929,0,0,0,,0,179,179,417,1,
,,,,,,,,,,,,,,,,,,5cf5134c8f8ff80019e76721,2020-11-27_10h21.59.728,lexical_decision_task_MP_exp2,2020.2.5,Win32,60,m,1,,,,,,,,0.74291,1,,,,,,139,WORD,UN,16,prince,DEBRIS,m,0.74291,,,,,,0.946716261,-0.400123929,0,0,0,,0,180,180,198,1,
,,,,,,,,,,,,,,,,,,5cf5134c8f8ff80019e76721,2020-11-27_10h21.59.728,lexical_decision_task_MP_exp2,2020.2.5,Win32,60,m,1,,,,,,,,0.64835,1,,,,,,212,WORD,"ID",33,verify,VERIFY,m,0.64835,,,,,,0.946716261,-0.400123929,0,0,0,,0,181,181,31,1,
,,,,,,,,,,,,,,,,,,5cf5134c8f8ff80019e76721,2020-11-27_10h21.59.728,lexical_decision_task_MP_exp2,2020.2.5,Win32,60,m,1,,,,,,,,0.59917,1,,,,,,136,WORD,UN,16,finger,BLEACH,m,0.59917,,,,,,0.946716261,-0.400123929,0,0,0,,0,182,182,195,1,
,,,,,,,,,,,,,,,,,,5cf5134c8f8ff80019e76721,2020-11-27_10h21.59.728,lexical_decision_task_MP_exp2,2020.2.5,Win32,60,m,1,,,,,,,,0.59127,1,,,,,,55,WORD,"ID",16,stroke,STROKE,m,0.59127,,,,,,0.946716261,-0.400123929,0,0,0,,0,183,183,114,1,
,,,,,,,,,,,,,,,,,,5cf5134c8f8ff80019e76721,2020-11-27_10h21.59.728,lexical_decision_task_MP_exp2,2020.2.5,Win32,60,m,1,,,,,,,,0.569405,1,,,,,,67,WORD,UN,33,fumble,POLICY,m,0.569405,,,,,,0.946716261,-0.400123929,0,0,0,,0,184,184,126,1,
,,,,,,,,,,,,,,,,,,5cf5134c8f8ff80019e76721,2020-11-27_10h21.59.728,lexical_decision_task_MP_exp2,2020.2.5,Win32,60,z,1,,,,,,,,0.607565,1,,,,,,261,NW,"ID",16,stunch,STUNCH,z,0.607565,,,,,,0.946716261,-0.400123929,0,0,0,,0,185,185,320,1,
,,,,,,,,,,,,,,,,,,5cf5134c8f8ff80019e76721,2020-11-27_10h21.59.728,lexical_decision_task_MP_exp2,2020.2.5,Win32,60,m,1,,,,,,,,0.637855,1,,,,,,8,WORD,"ID",16,abrupt,ABRUPT,m,0.637855,,,,,,0.946716261,-0.400123929,0,0,0,,0,186,186,67,1,
,,,,,,,,,,,,,,,,,,5cf5134c8f8ff80019e76721,2020-11-27_10h21.59.728,lexical_decision_task_MP_exp2,2020.2.5,Win32,60,z,1,,,,,,,,0.58779,1,,,,,,469,NW,"ID",33,padifs,PADIFS,z,0.58779,,,,,,0.946716261,-0.400123929,0,0,0,,0,187,187,288,1,
,,,,,,,,,,,,,,,,,,5cf5134c8f8ff80019e76721,2020-11-27_10h21.59.728,lexical_decision_task_MP_exp2,2020.2.5,Win32,60,z,1,,,,,,,,0.547955,1,,,,,,356,NW,UN,33,derain,OTHNIS,z,0.547955,,,,,,0.946716261,-0.400123929,0,0,0,,0,188,188,415,1,
,,,,,,,,,,,,,,,,,,5cf5134c8f8ff80019e76721,2020-11-27_10h21.59.728,lexical_decision_task_MP_exp2,2020.2.5,Win32,60,z,1,,,,,,,,0.60608,1,,,,,,281,NW,"ID",16,melaty,MELATY,z,0.60608,,,,,,0.946716261,-0.400123929,0,0,0,,0,189,189,340,1,
,,,,,,,,,,,,,,,,,,5cf5134c8f8ff80019e76721,2020-11-27_10h21.59.728,lexical_decision_task_MP_exp2,2020.2.5,Win32,60,z,1,,,,,,,,0.56452,1,,,,,,477,NW,"ID",33,photie,PHOTIE,z,0.56452,,,,,,0.946716261,-0.400123929,0,0,0,,0,190,190,296,1,
,,,,,,,,,,,,,,,,,,5cf5134c8f8ff80019e76721,2020-11-27_10h21.59.728,lexical_decision_task_MP_exp2,2020.2.5,Win32,60,m,1,,,,,,,,0.52436,1,,,,,,20,WORD,"ID",16,breast,BREAST,m,0.52436,,,,,,0.946716261,-0.400123929,0,0,0,,0,191,191,79,1,
,,,,,,,,,,,,,,,,,,5cf5134c8f8ff80019e76721,2020-11-27_10h21.59.728,lexical_decision_task_MP_exp2,2020.2.5,Win32,60,m,1,,,,,,,,0.565715,1,,,,,,214,WORD,"ID",33,intake,INTAKE,m,0.565715,,,,,,0.946716261,-0.400123929,0,0,0,,0,192,192,33,1,
,,,,,,,,,,,,,,,,,,5cf5134c8f8ff80019e76721,2020-11-27_10h21.59.728,lexical_decision_task_MP_exp2,2020.2.5,Win32,60,z,1,,,,,,,,0.63418,1,,,,,,471,NW,"ID",33,nobest,NOBEST,z,0.63418,,,,,,0.946716261,-0.400123929,0,0,0,,0,193,193,290,1,
,,,,,,,,,,,,,,,,,,5cf5134c8f8ff80019e76721,2020-11-27_10h21.59.728,lexical_decision_task_MP_exp2,2020.2.5,Win32,60,z,1,,,,,,,,0.558755,1,,,,,,311,NW,UN,33,nerawl,SPROLY,z,0.558755,,,,,,0.946716261,-0.400123929,0,0,0,,0,194,194,370,1,
,,,,,,,,,,,,,,,,,,5cf5134c8f8ff80019e76721,2020-11-27_10h21.59.728,lexical_decision_task_MP_exp2,2020.2.5,Win32,60,z,1,,,,,,,,0.534075,1,,,,,,265,NW,"ID",16,distar,DISTAR,z,0.534075,,,,,,0.946716261,-0.400123929,0,0,0,,0,195,195,324,1,
,,,,,,,,,,,,,,,,,,5cf5134c8f8ff80019e76721,2020-11-27_10h21.59.728,lexical_decision_task_MP_exp2,2020.2.5,Win32,60,z,1,,,,,,,,0.54126,1,,,,,,402,NW,UN,16,bruats,SYNTIC,z,0.54126,,,,,,0.946716261,-0.400123929,0,0,0,,0,196,196,461,1,
,,,,,,,,,,,,,,,,,,5cf5134c8f8ff80019e76721,2020-11-27_10h21.59.728,lexical_decision_task_MP_exp2,2020.2.5,Win32,60,z,1,,,,,,,,0.48006,1,,,,,,429,NW,"ID",33,funtle,FUNTLE,z,0.48006,,,,,,0.946716261,-0.400123929,0,0,0,,0,197,197,248,1,
,,,,,,,,,,,,,,,,,,5cf5134c8f8ff80019e76721,2020-11-27_10h21.59.728,lexical_decision_task_MP_exp2,2020.2.5,Win32,60,m,1,,,,,,,,0.54872,1,,,,,,224,WORD,"ID",33,period,PERIOD,m,0.54872,,,,,,0.946716261,-0.400123929,0,0,0,,0,198,198,43,1,
,,,,,,,,,,,,,,,,,,5cf5134c8f8ff80019e76721,2020-11-27_10h21.59.728,lexical_decision_task_MP_exp2,2020.2.5,Win32,60,z,0,,,,,,,,0.5833,0,,,,,,142,WORD,UN,16,reason,SPRUCE,m,0.5833,,,,,,0.946716261,-0.400123929,0,0,0,,0,199,199,201,1,
,,,,,,,,,,,,,,,,,,5cf5134c8f8ff80019e76721,2020-11-27_10h21.59.728,lexical_decision_task_MP_exp2,2020.2.5,Win32,60,m,1,,,,,,,,0.687295,1,,,,,,113,WORD,UN,33,placid,CHORUS,m,0.687295,,,,,,0.946716261,-0.400123929,0,0,0,,0,200,200,172,1,
,,,,,,,,,,,,,,,,,,5cf5134c8f8ff80019e76721,2020-11-27_10h21.59.728,lexical_decision_task_MP_exp2,2020.2.5,Win32,60,z,1,,,,,,,,0.58112,1,,,,,,415,NW,UN,16,pathel,HIGSTA,z,0.58112,,,,,,0.946716261,-0.400123929,0,0,0,,0,201,201,474,1,
,,,,,,,,,,,,,,,,,,5cf5134c8f8ff80019e76721,2020-11-27_10h21.59.728,lexical_decision_task_MP_exp2,2020.2.5,Win32,60,m,1,,,,,,,,0.580205,1,,,,,,129,WORD,UN,16,stupid,MARVEL,m,0.580205,,,,,,0.946716261,-0.400123929,0,0,0,,0,202,202,188,1,
,,,,,,,,,,,,,,,,,,5cf5134c8f8ff80019e76721,2020-11-27_10h21.59.728,lexical_decision_task_MP_exp2,2020.2.5,Win32,60,m,1,,,,,,,,0.59094,1,,,,,,22,WORD,"ID",16,jockey,JOCKEY,m,0.59094,,,,,,0.946716261,-0.400123929,0,0,0,,0,203,203,81,1,
,,,,,,,,,,,,,,,,,,5cf5134c8f8ff80019e76721,2020-11-27_10h21.59.728,lexical_decision_task_MP_exp2,2020.2.5,Win32,60,z,1,,,,,,,,0.55795,1,,,,,,318,NW,UN,33,zomber,REAGLY,z,0.55795,,,,,,0.946716261,-0.400123929,0,0,0,,0,204,204,377,1,
,,,,,,,,,,,,,,,,,,5cf5134c8f8ff80019e76721,2020-11-27_10h21.59.728,lexical_decision_task_MP_exp2,2020.2.5,Win32,60,z,1,,,,,,,,0.59942,1,,,,,,296,NW,"ID",16,beinch,BEINCH,z,0.59942,,,,,,0.946716261,-0.400123929,0,0,0,,0,205,205,355,1,
,,,,,,,,,,,,,,,,,,5cf5134c8f8ff80019e76721,2020-11-27_10h21.59.728,lexical_decision_task_MP_exp2,2020.2.5,Win32,60,m,1,,,,,,,,0.619995,1,,,,,,140,WORD,UN,16,chrome,PRINCE,m,0.619995,,,,,,0.946716261,-0.400123929,0,0,0,,0,206,206,199,1,
,,,,,,,,,,,,,,,,,,5cf5134c8f8ff80019e76721,2020-11-27_10h21.59.728,lexical_decision_task_MP_exp2,2020.2.5,Win32,60,m,1,,,,,,,,0.571135,1,,,,,,186,WORD,"ID",33,portal,PORTAL,m,0.571135,,,,,,0.946716261,-0.400123929,0,0,0,,0,207,207,5,1,
,,,,,,,,,,,,,,,,,,5cf5134c8f8ff80019e76721,2020-11-27_10h21.59.728,lexical_decision_task_MP_exp2,2020.2.5,Win32,60,z,1,,,,,,,,0.60142,1,,,,,,320,NW,UN,33,miator,JOCKAL,z,0.60142,,,,,,0.946716261,-0.400123929,0,0,0,,0,208,208,379,1,
,,,,,,,,,,,,,,,,,,5cf5134c8f8ff80019e76721,2020-11-27_10h21.59.728,lexical_decision_task_MP_exp2,2020.2.5,Win32,60,z,1,,,,,,,,0.627705,1,,,,,,248,NW,"ID",16,strole,STROLE,z,0.627705,,,,,,0.946716261,-0.400123929,0,0,0,,0,209,209,307,1,
,,,,,,,,,,,,,,,,,,5cf5134c8f8ff80019e76721,2020-11-27_10h21.59.728,lexical_decision_task_MP_exp2,2020.2.5,Win32,60,z,1,,,,,,,,0.632765,1,,,,,,293,NW,"ID",16,swance,SWANCE,z,0.632765,,,,,,0.946716261,-0.400123929,0,0,0,,0,210,210,352,1,
,,,,,,,,,,,,,,,,,,5cf5134c8f8ff80019e76721,2020-11-27_10h21.59.728,lexical_decision_task_MP_exp2,2020.2.5,Win32,60,m,1,,,,,,,,0.56176,1,,,,,,126,WORD,UN,16,castle,ENOUGH,m,0.56176,,,,,,0.946716261,-0.400123929,0,0,0,,0,211,211,185,1,
,,,,,,,,,,,,,,,,,,5cf5134c8f8ff80019e76721,2020-11-27_10h21.59.728,lexical_decision_task_MP_exp2,2020.2.5,Win32,60,m,1,,,,,,,,0.637665,1,,,,,,29,WORD,"ID",16,sketch,SKETCH,m,0.637665,,,,,,0.946716261,-0.400123929,0,0,0,,0,212,212,88,1,
,,,,,,,,,,,,,,,,,,5cf5134c8f8ff80019e76721,2020-11-27_10h21.59.728,lexical_decision_task_MP_exp2,2020.2.5,Win32,60,z,1,,,,,,,,0.56452,1,,,,,,382,NW,UN,16,aungre,SARLEY,z,0.56452,,,,,,0.946716261,-0.400123929,0,0,0,,0,213,213,441,1,
,,,,,,,,,,,,,,,,,,5cf5134c8f8ff80019e76721,2020-11-27_10h21.59.728,lexical_decision_task_MP_exp2,2020.2.5,Win32,60,z,1,,,,,,,,0.572055,1,,,,,,409,NW,UN,16,tunory,ELOPIA,z,0.572055,,,,,,0.946716261,-0.400123929,0,0,0,,0,214,214,468,1,
,,,,,,,,,,,,,,,,,,5cf5134c8f8ff80019e76721,2020-11-27_10h21.59.728,lexical_decision_task_MP_exp2,2020.2.5,Win32,60,m,1,,,,,,,,0.55133,1,,,,,,89,WORD,UN,33,relish,PERMIT,m,0.55133,,,,,,0.946716261,-0.400123929,0,0,0,,0,215,215,148,1,
,,,,,,,,,,,,,,,,,,5cf5134c8f8ff80019e76721,2020-11-27_10h21.59.728,lexical_decision_task_MP_exp2,2020.2.5,Win32,60,m,1,,,,,,,,0.588585,1,,,,,,52,WORD,"ID",16,impose,IMPOSE,m,0.588585,,,,,,0.946716261,-0.400123929,0,0,0,,0,216,216,111,1,
,,,,,,,,,,,,,,,,,,5cf5134c8f8ff80019e76721,2020-11-27_10h21.59.728,lexical_decision_task_MP_exp2,2020.2.5,Win32,60,z,1,,,,,,,,0.515585,1,,,,,,464,NW,"ID",33,chaite,CHAITE,z,0.515585,,,,,,0.946716261,-0.400123929,0,0,0,,0,217,217,283,1,
,,,,,,,,,,,,,,,,,,5cf5134c8f8ff80019e76721,2020-11-27_10h21.59.728,lexical_decision_task_MP_exp2,2020.2.5,Win32,60,m,1,,,,,,,,0.597105,1,,,,,,174,WORD,UN,16,fabric,TURKEY,m,0.597105,,,,,,0.946716261,-0.400123929,0,0,0,,0,218,218,233,1,
,,,,,,,,,,,,,,,,,,5cf5134c8f8ff80019e76721,2020-11-27_10h21.59.728,lexical_decision_task_MP_exp2,2020.2.5,Win32,60,z,1,,,,,,,,0.51818,1,,,,,,393,NW,UN,16,spaqux,GANOUS,z,0.51818,,,,,,0.946716261,-0.400123929,0,0,0,,0,219,219,452,1,
,,,,,,,,,,,,,,,,,,5cf5134c8f8ff80019e76721,2020-11-27_10h21.59.728,lexical_decision_task_MP_exp2,2020.2.5,Win32,60,z,1,,,,,,,,0.5953,1,,,,,,390,NW,UN,16,theldy,HATRUS,z,0.5953,,,,,,0.946716261,-0.400123929,0,0,0,,0,220,220,449,1,
,,,,,,,,,,,,,,,,,,5cf5134c8f8ff80019e76721,2020-11-27_10h21.59.728,lexical_decision_task_MP_exp2,2020.2.5,Win32,60,z,1,,,,,,,,0.553335,1,,,,,,365,NW,UN,16,toshel,GUAIRT,z,0.553335,,,,,,0.946716261,-0.400123929,0,0,0,,0,221,221,424,1,
,,,,,,,,,,,,,,,,,,5cf5134c8f8ff80019e76721,2020-11-27_10h21.59.728,lexical_decision_task_MP_exp2,2020.2.5,Win32,60,m,1,,,,,,,,0.66476,1,,,,,,106,WORD,UN,33,slogan,RANSOM,m,0.66476,,,,,,0.946716261,-0.400123929,0,0,0,,0,222,222,165,1,
,,,,,,,,,,,,,,,,,,5cf5134c8f8ff80019e76721,2020-11-27_10h21.59.728,lexical_decision_task_MP_exp2,2020.2.5,Win32,60,z,1,,,,,,,,0.51766,1,,,,,,242,NW,"ID",16,unwert,UNWERT,z,0.51766,,,,,,0.946716261,-0.400123929,0,0,0,,0,223,223,301,1,
,,,,,,,,,,,,,,,,,,5cf5134c8f8ff80019e76721,2020-11-27_10h21.59.728,lexical_decision_task_MP_exp2,2020.2.5,Win32,60,m,1,,,,,,,,0.660025,1,,,,,,102,WORD,UN,33,bounce,DIRECT,m,0.660025,,,,,,0.946716261,-0.400123929,0,0,0,,0,224,224,161,1,
,,,,,,,,,,,,,,,,,,5cf5134c8f8ff80019e76721,2020-11-27_10h21.59.728,lexical_decision_task_MP_exp2,2020.2.5,Win32,60,z,1,,,,,,,,0.557075,1,,,,,,377,NW,UN,16,shrile,INJORE,z,0.557075,,,,,,0.946716261,-0.400123929,0,0,0,,0,225,225,436,1,
,,,,,,,,,,,,,,,,,,5cf5134c8f8ff80019e76721,2020-11-27_10h21.59.728,lexical_decision_task_MP_exp2,2020.2.5,Win32,60,m,1,,,,,,,,0.52763,1,,,,,,169,WORD,UN,16,pounce,GENIUS,m,0.52763,,,,,,0.946716261,-0.400123929,0,0,0,,0,226,226,228,1,
,,,,,,,,,,,,,,,,,,5cf5134c8f8ff80019e76721,2020-11-27_10h21.59.728,lexical_decision_task_MP_exp2,2020.2.5,Win32,60,m,1,,,,,,,,0.590825,1,,,,,,96,WORD,UN,33,client,IGNORE,m,0.590825,,,,,,0.946716261,-0.400123929,0,0,0,,0,227,227,155,1,
,,,,,,,,,,,,,,,,,,5cf5134c8f8ff80019e76721,2020-11-27_10h21.59.728,lexical_decision_task_MP_exp2,2020.2.5,Win32,60,z,1,,,,,,,,0.52378,1,,,,,,373,NW,UN,16,sliant,BIGENT,z,0.52378,,,,,,0.946716261,-0.400123929,0,0,0,,0,228,228,432,1,
,,,,,,,,,,,,,,,,,,5cf5134c8f8ff80019e76721,2020-11-27_10h21.59.728,lexical_decision_task_MP_exp2,2020.2.5,Win32,60,z,1,,,,,,,,0.567175,1,,,,,,354,NW,UN,33,zingly,VIRLEX,z,0.567175,,,,,,0.946716261,-0.400123929,0,0,0,,0,229,229,413,1,
,,,,,,,,,,,,,,,,,,5cf5134c8f8ff80019e76721,2020-11-27_10h21.59.728,lexical_decision_task_MP_exp2,2020.2.5,Win32,60,z,1,,,,,,,,0.55283,1,,,,,,258,NW,"ID",16,poluth,POLUTH,z,0.55283,,,,,,0.946716261,-0.400123929,0,0,0,,0,230,230,317,1,
,,,,,,,,,,,,,,,,,,5cf5134c8f8ff80019e76721,2020-11-27_10h21.59.728,lexical_decision_task_MP_exp2,2020.2.5,Win32,60,m,1,,,,,,,,0.51069,1,,,,,,226,WORD,"ID",33,casino,CASINO,m,0.51069,,,,,,0.946716261,-0.400123929,0,0,0,,0,231,231,45,1,
,,,,,,,,,,,,,,,,,,5cf5134c8f8ff80019e76721,2020-11-27_10h21.59.728,lexical_decision_task_MP_exp2,2020.2.5,Win32,60,z,1,,,,,,,,0.637715,1,,,,,,352,NW,UN,33,clurey,TRINGE,z,0.637715,,,,,,0.946716261,-0.400123929,0,0,0,,0,232,232,411,1,
,,,,,,,,,,,,,,,,,,5cf5134c8f8ff80019e76721,2020-11-27_10h21.59.728,lexical_decision_task_MP_exp2,2020.2.5,Win32,60,m,1,,,,,,,,0.649915,1,,,,,,219,WORD,"ID",33,bucket,BUCKET,m,0.649915,,,,,,0.946716261,-0.400123929,0,0,0,,0,233,233,38,1,
,,,,,,,,,,,,,,,,,,5cf5134c8f8ff80019e76721,2020-11-27_10h21.59.728,lexical_decision_task_MP_exp2,2020.2.5,Win32,60,z,0,,,,,,,,0.58553,0,,,,,,37,WORD,"ID",16,insult,INSULT,m,0.58553,,,,,,0.946716261,-0.400123929,0,0,0,,0,234,234,96,1,
,,,,,,,,,,,,,,,,,,5cf5134c8f8ff80019e76721,2020-11-27_10h21.59.728,lexical_decision_task_MP_exp2,2020.2.5,Win32,60,z,1,,,,,,,,0.57674,1,,,,,,395,NW,UN,16,flengy,COLURY,z,0.57674,,,,,,0.946716261,-0.400123929,0,0,0,,0,235,235,454,1,
,,,,,,,,,,,,,,,,,,5cf5134c8f8ff80019e76721,2020-11-27_10h21.59.728,lexical_decision_task_MP_exp2,2020.2.5,Win32,60,z,1,,,,,,,,0.799685,1,,,,,,315,NW,UN,33,scregm,LASTON,z,0.799685,,,,,,0.946716261,-0.400123929,0,0,0,,0,236,236,374,1,
,,,,,,,,,,,,,,,,,,5cf5134c8f8ff80019e76721,2020-11-27_10h21.59.728,lexical_decision_task_MP_exp2,2020.2.5,Win32,60,m,1,,,,,,,,0.5834,1,,,,,,146,WORD,UN,16,garlic,COUPLE,m,0.5834,,,,,,0.946716261,-0.400123929,0,0,0,,0,237,237,205,1,
,,,,,,,,,,,,,,,,,,5cf5134c8f8ff80019e76721,2020-11-27_10h21.59.728,lexical_decision_task_MP_exp2,2020.2.5,Win32,60,z,1,,,,,,,,0.533075,1,,,,,,399,NW,UN,16,wearox,FOURET,z,0.533075,,,,,,0.946716261,-0.400123929,0,0,0,,0,238,238,458,1,
,,,,,,,,,,,,,,,,,,5cf5134c8f8ff80019e76721,2020-11-27_10h21.59.728,lexical_decision_task_MP_exp2,2020.2.5,Win32,60,m,1,,,,,,,,0.60326,1,,,,,,26,WORD,"ID",16,sprint,SPRINT,m,0.60326,,,,,,0.946716261,-0.400123929,0,0,0,,0,239,239,85,1,
,,,,,,,,,,,,,,,,,,5cf5134c8f8ff80019e76721,2020-11-27_10h21.59.728,lexical_decision_task_MP_exp2,2020.2.5,Win32,60,m,1,,,,,,,,0.563015,1,,,,,,47,WORD,"ID",16,income,INCOME,m,0.563015,,,,,,0.946716261,-0.400123929,0,0,0,,0,240,240,106,1,
,,,,,,,,,,,,,,,,,,5cf5134c8f8ff80019e76721,2020-11-27_10h21.59.728,lexical_decision_task_MP_exp2,2020.2.5,Win32,60,z,1,,,,,,,,0.51564,1,,,,,,427,NW,"ID",33,schind,SCHIND,z,0.51564,,,,,,0.946716261,-0.400123929,0,0,0,space,0,241,241,246,1,21.765835
,,,,,,,,,,,,,,,,,,5cf5134c8f8ff80019e76721,2020-11-27_10h21.59.728,lexical_decision_task_MP_exp2,2020.2.5,Win32,60,m,1,,,,,,,,0.97002,1,,,,,,111,WORD,UN,33,breath,INDUCE,m,0.97002,,,,,,0.946716261,-0.400123929,0,0,0,,0,242,242,170,1,
,,,,,,,,,,,,,,,,,,5cf5134c8f8ff80019e76721,2020-11-27_10h21.59.728,lexical_decision_task_MP_exp2,2020.2.5,Win32,60,z,1,,,,,,,,0.659235,1,,,,,,425,NW,"ID",33,frudge,FRUDGE,z,0.659235,,,,,,0.946716261,-0.400123929,0,0,0,,0,243,243,244,1,
,,,,,,,,,,,,,,,,,,5cf5134c8f8ff80019e76721,2020-11-27_10h21.59.728,lexical_decision_task_MP_exp2,2020.2.5,Win32,60,m,1,,,,,,,,0.58774,1,,,,,,56,WORD,"ID",16,ambush,AMBUSH,m,0.58774,,,,,,0.946716261,-0.400123929,0,0,0,,0,244,244,115,1,
,,,,,,,,,,,,,,,,,,5cf5134c8f8ff80019e76721,2020-11-27_10h21.59.728,lexical_decision_task_MP_exp2,2020.2.5,Win32,60,z,1,,,,,,,,0.852195,1,,,,,,443,NW,"ID",33,dorsex,DORSEX,z,0.852195,,,,,,0.946716261,-0.400123929,0,0,0,,0,245,245,262,1,
,,,,,,,,,,,,,,,,,,5cf5134c8f8ff80019e76721,2020-11-27_10h21.59.728,lexical_decision_task_MP_exp2,2020.2.5,Win32,60,m,1,,,,,,,,0.566825,1,,,,,,211,WORD,"ID",33,infect,INFECT,m,0.566825,,,,,,0.946716261,-0.400123929,0,0,0,,0,246,246,30,1,
,,,,,,,,,,,,,,,,,,5cf5134c8f8ff80019e76721,2020-11-27_10h21.59.728,lexical_decision_task_MP_exp2,2020.2.5,Win32,60,z,1,,,,,,,,0.59792,1,,,,,,244,NW,"ID",16,eatric,EATRIC,z,0.59792,,,,,,0.946716261,-0.400123929,0,0,0,,0,247,247,303,1,
,,,,,,,,,,,,,,,,,,5cf5134c8f8ff80019e76721,2020-11-27_10h21.59.728,lexical_decision_task_MP_exp2,2020.2.5,Win32,60,m,1,,,,,,,,0.648035,1,,,,,,206,WORD,"ID",33,tailor,TAILOR,m,0.648035,,,,,,0.946716261,-0.400123929,0,0,0,,0,248,248,25,1,
,,,,,,,,,,,,,,,,,,5cf5134c8f8ff80019e76721,2020-11-27_10h21.59.728,lexical_decision_task_MP_exp2,2020.2.5,Win32,60,z,1,,,,,,,,0.50292,1,,,,,,327,NW,UN,33,broake,PLENAC,z,0.50292,,,,,,0.946716261,-0.400123929,0,0,0,,0,249,249,386,1,
,,,,,,,,,,,,,,,,,,5cf5134c8f8ff80019e76721,2020-11-27_10h21.59.728,lexical_decision_task_MP_exp2,2020.2.5,Win32,60,z,1,,,,,,,,0.69433,1,,,,,,243,NW,"ID",16,musied,MUSIED,z,0.69433,,,,,,0.946716261,-0.400123929,0,0,0,,0,250,250,302,1,
,,,,,,,,,,,,,,,,,,5cf5134c8f8ff80019e76721,2020-11-27_10h21.59.728,lexical_decision_task_MP_exp2,2020.2.5,Win32,60,m,1,,,,,,,,0.99276,1,,,,,,92,WORD,UN,33,public,STRAND,m,0.99276,,,,,,0.946716261,-0.400123929,0,0,0,,0,251,251,151,1,
,,,,,,,,,,,,,,,,,,5cf5134c8f8ff80019e76721,2020-11-27_10h21.59.728,lexical_decision_task_MP_exp2,2020.2.5,Win32,60,m,1,,,,,,,,0.690675,1,,,,,,90,WORD,UN,33,expand,RELISH,m,0.690675,,,,,,0.946716261,-0.400123929,0,0,0,,0,252,252,149,1,
,,,,,,,,,,,,,,,,,,5cf5134c8f8ff80019e76721,2020-11-27_10h21.59.728,lexical_decision_task_MP_exp2,2020.2.5,Win32,60,m,1,,,,,,,,0.56996,1,,,,,,127,WORD,UN,16,senior,CASTLE,m,0.56996,,,,,,0.946716261,-0.400123929,0,0,0,,0,253,253,186,1,
,,,,,,,,,,,,,,,,,,5cf5134c8f8ff80019e76721,2020-11-27_10h21.59.728,lexical_decision_task_MP_exp2,2020.2.5,Win32,60,m,1,,,,,,,,0.556675,1,,,,,,21,WORD,"ID",16,simple,SIMPLE,m,0.556675,,,,,,0.946716261,-0.400123929,0,0,0,,0,254,254,80,1,
,,,,,,,,,,,,,,,,,,5cf5134c8f8ff80019e76721,2020-11-27_10h21.59.728,lexical_decision_task_MP_exp2,2020.2.5,Win32,60,m,1,,,,,,,,0.551455,1,,,,,,179,WORD,UN,16,silent,BASKET,m,0.551455,,,,,,0.946716261,-0.400123929,0,0,0,,0,255,255,238,1,
,,,,,,,,,,,,,,,,,,5cf5134c8f8ff80019e76721,2020-11-27_10h21.59.728,lexical_decision_task_MP_exp2,2020.2.5,Win32,60,z,1,,,,,,,,0.493295,1,,,,,,326,NW,UN,33,plenac,IGUADE,z,0.493295,,,,,,0.946716261,-0.400123929,0,0,0,,0,256,256,385,1,
,,,,,,,,,,,,,,,,,,5cf5134c8f8ff80019e76721,2020-11-27_10h21.59.728,lexical_decision_task_MP_exp2,2020.2.5,Win32,60,m,1,,,,,,,,0.629275,1,,,,,,216,WORD,"ID",33,behalf,BEHALF,m,0.629275,,,,,,0.946716261,-0.400123929,0,0,0,,0,257,257,35,1,
,,,,,,,,,,,,,,,,,,5cf5134c8f8ff80019e76721,2020-11-27_10h21.59.728,lexical_decision_task_MP_exp2,2020.2.5,Win32,60,m,1,,,,,,,,0.55291,1,,,,,,133,WORD,UN,16,staple,CHROME,m,0.55291,,,,,,0.946716261,-0.400123929,0,0,0,,0,258,258,192,1,
,,,,,,,,,,,,,,,,,,5cf5134c8f8ff80019e76721,2020-11-27_10h21.59.728,lexical_decision_task_MP_exp2,2020.2.5,Win32,60,m,1,,,,,,,,0.60386,1,,,,,,36,WORD,"ID",16,vanish,VANISH,m,0.60386,,,,,,0.946716261,-0.400123929,0,0,0,,0,259,259,95,1,
,,,,,,,,,,,,,,,,,,5cf5134c8f8ff80019e76721,2020-11-27_10h21.59.728,lexical_decision_task_MP_exp2,2020.2.5,Win32,60,m,1,,,,,,,,0.697145,1,,,,,,64,WORD,UN,33,symbol,THRONE,m,0.697145,,,,,,0.946716261,-0.400123929,0,0,0,,0,260,260,123,1,
,,,,,,,,,,,,,,,,,,5cf5134c8f8ff80019e76721,2020-11-27_10h21.59.728,lexical_decision_task_MP_exp2,2020.2.5,Win32,60,z,1,,,,,,,,0.557935,1,,,,,,272,NW,"ID",16,damilt,DAMILT,z,0.557935,,,,,,0.946716261,-0.400123929,0,0,0,,0,261,261,331,1,
,,,,,,,,,,,,,,,,,,5cf5134c8f8ff80019e76721,2020-11-27_10h21.59.728,lexical_decision_task_MP_exp2,2020.2.5,Win32,60,z,1,,,,,,,,0.579405,1,,,,,,456,NW,"ID",33,broget,BROGET,z,0.579405,,,,,,0.946716261,-0.400123929,0,0,0,,0,262,262,275,1,
,,,,,,,,,,,,,,,,,,5cf5134c8f8ff80019e76721,2020-11-27_10h21.59.728,lexical_decision_task_MP_exp2,2020.2.5,Win32,60,z,1,,,,,,,,0.721025,1,,,,,,398,NW,UN,16,fouret,BLUNDE,z,0.721025,,,,,,0.946716261,-0.400123929,0,0,0,,0,263,263,457,1,
,,,,,,,,,,,,,,,,,,5cf5134c8f8ff80019e76721,2020-11-27_10h21.59.728,lexical_decision_task_MP_exp2,2020.2.5,Win32,60,m,1,,,,,,,,0.579505,1,,,,,,70,WORD,UN,33,garden,SQUARE,m,0.579505,,,,,,0.946716261,-0.400123929,0,0,0,,0,264,264,129,1,
,,,,,,,,,,,,,,,,,,5cf5134c8f8ff80019e76721,2020-11-27_10h21.59.728,lexical_decision_task_MP_exp2,2020.2.5,Win32,60,z,1,,,,,,,,0.68206,1,,,,,,468,NW,"ID",33,wictor,WICTOR,z,0.68206,,,,,,0.946716261,-0.400123929,0,0,0,,0,265,265,287,1,
,,,,,,,,,,,,,,,,,,5cf5134c8f8ff80019e76721,2020-11-27_10h21.59.728,lexical_decision_task_MP_exp2,2020.2.5,Win32,60,z,1,,,,,,,,0.580665,1,,,,,,387,NW,UN,16,cragin,GRONCE,z,0.580665,,,,,,0.946716261,-0.400123929,0,0,0,,0,266,266,446,1,
,,,,,,,,,,,,,,,,,,5cf5134c8f8ff80019e76721,2020-11-27_10h21.59.728,lexical_decision_task_MP_exp2,2020.2.5,Win32,60,z,1,,,,,,,,0.57566,1,,,,,,292,NW,"ID",16,ablint,ABLINT,z,0.57566,,,,,,0.946716261,-0.400123929,0,0,0,,0,267,267,351,1,
,,,,,,,,,,,,,,,,,,5cf5134c8f8ff80019e76721,2020-11-27_10h21.59.728,lexical_decision_task_MP_exp2,2020.2.5,Win32,60,z,1,,,,,,,,0.85495,1,,,,,,319,NW,UN,33,jockal,ZOMBER,z,0.85495,,,,,,0.946716261,-0.400123929,0,0,0,,0,268,268,378,1,
,,,,,,,,,,,,,,,,,,5cf5134c8f8ff80019e76721,2020-11-27_10h21.59.728,lexical_decision_task_MP_exp2,2020.2.5,Win32,60,z,1,,,,,,,,0.656805,1,,,,,,473,NW,"ID",33,crible,CRIBLE,z,0.656805,,,,,,0.946716261,-0.400123929,0,0,0,,0,269,269,292,1,
,,,,,,,,,,,,,,,,,,5cf5134c8f8ff80019e76721,2020-11-27_10h21.59.728,lexical_decision_task_MP_exp2,2020.2.5,Win32,60,z,1,,,,,,,,0.548355,1,,,,,,346,NW,UN,33,kerift,SAUDIC,z,0.548355,,,,,,0.946716261,-0.400123929,0,0,0,,0,270,270,405,1,
,,,,,,,,,,,,,,,,,,5cf5134c8f8ff80019e76721,2020-11-27_10h21.59.728,lexical_decision_task_MP_exp2,2020.2.5,Win32,60,m,1,,,,,,,,0.530445,1,,,,,,53,WORD,"ID",16,police,POLICE,m,0.530445,,,,,,0.946716261,-0.400123929,0,0,0,,0,271,271,112,1,
,,,,,,,,,,,,,,,,,,5cf5134c8f8ff80019e76721,2020-11-27_10h21.59.728,lexical_decision_task_MP_exp2,2020.2.5,Win32,60,z,1,,,,,,,,0.81275,1,,,,,,476,NW,"ID",33,josted,JOSTED,z,0.81275,,,,,,0.946716261,-0.400123929,0,0,0,,0,272,272,295,1,
,,,,,,,,,,,,,,,,,,5cf5134c8f8ff80019e76721,2020-11-27_10h21.59.728,lexical_decision_task_MP_exp2,2020.2.5,Win32,60,z,1,,,,,,,,0.63047,1,,,,,,262,NW,"ID",16,quilew,QUILEW,z,0.63047,,,,,,0.946716261,-0.400123929,0,0,0,,0,273,273,321,1,
,,,,,,,,,,,,,,,,,,5cf5134c8f8ff80019e76721,2020-11-27_10h21.59.728,lexical_decision_task_MP_exp2,2020.2.5,Win32,60,z,1,,,,,,,,0.533575,1,,,,,,300,NW,"ID",16,yarion,YARION,z,0.533575,,,,,,0.946716261,-0.400123929,0,0,0,,0,274,274,359,1,
,,,,,,,,,,,,,,,,,,5cf5134c8f8ff80019e76721,2020-11-27_10h21.59.728,lexical_decision_task_MP_exp2,2020.2.5,Win32,60,m,1,,,,,,,,0.566115,1,,,,,,73,WORD,UN,33,plaque,SOURCE,m,0.566115,,,,,,0.946716261,-0.400123929,0,0,0,,0,275,275,132,1,
,,,,,,,,,,,,,,,,,,5cf5134c8f8ff80019e76721,2020-11-27_10h21.59.728,lexical_decision_task_MP_exp2,2020.2.5,Win32,60,m,1,,,,,,,,0.632325,1,,,,,,240,WORD,"ID",33,forest,FOREST,m,0.632325,,,,,,0.946716261,-0.400123929,0,0,0,,0,276,276,59,1,
,,,,,,,,,,,,,,,,,,5cf5134c8f8ff80019e76721,2020-11-27_10h21.59.728,lexical_decision_task_MP_exp2,2020.2.5,Win32,60,z,1,,,,,,,,0.68299,1,,,,,,416,NW,UN,16,earoud,PATHEL,z,0.68299,,,,,,0.946716261,-0.400123929,0,0,0,,0,277,277,475,1,
,,,,,,,,,,,,,,,,,,5cf5134c8f8ff80019e76721,2020-11-27_10h21.59.728,lexical_decision_task_MP_exp2,2020.2.5,Win32,60,z,1,,,,,,,,0.552805,1,,,,,,317,NW,UN,33,reagly,WORBAL,z,0.552805,,,,,,0.946716261,-0.400123929,0,0,0,,0,278,278,376,1,
,,,,,,,,,,,,,,,,,,5cf5134c8f8ff80019e76721,2020-11-27_10h21.59.728,lexical_decision_task_MP_exp2,2020.2.5,Win32,60,z,1,,,,,,,,0.582645,1,,,,,,253,NW,"ID",16,resait,RESAIT,z,0.582645,,,,,,0.946716261,-0.400123929,0,0,0,,0,279,279,312,1,
,,,,,,,,,,,,,,,,,,5cf5134c8f8ff80019e76721,2020-11-27_10h21.59.728,lexical_decision_task_MP_exp2,2020.2.5,Win32,60,m,1,,,,,,,,0.535155,1,,,,,,148,WORD,UN,16,invade,CUSTOM,m,0.535155,,,,,,0.946716261,-0.400123929,0,0,0,,0,280,280,207,1,
,,,,,,,,,,,,,,,,,,5cf5134c8f8ff80019e76721,2020-11-27_10h21.59.728,lexical_decision_task_MP_exp2,2020.2.5,Win32,60,z,1,,,,,,,,0.603375,1,,,,,,455,NW,"ID",33,tondle,TONDLE,z,0.603375,,,,,,0.946716261,-0.400123929,0,0,0,,0,281,281,274,1,
,,,,,,,,,,,,,,,,,,5cf5134c8f8ff80019e76721,2020-11-27_10h21.59.728,lexical_decision_task_MP_exp2,2020.2.5,Win32,60,z,1,,,,,,,,0.562875,1,,,,,,324,NW,UN,33,thruse,STEIKH,z,0.562875,,,,,,0.946716261,-0.400123929,0,0,0,,0,282,282,383,1,
,,,,,,,,,,,,,,,,,,5cf5134c8f8ff80019e76721,2020-11-27_10h21.59.728,lexical_decision_task_MP_exp2,2020.2.5,Win32,60,z,1,,,,,,,,0.639995,1,,,,,,249,NW,"ID",16,batrol,BATROL,z,0.639995,,,,,,0.946716261,-0.400123929,0,0,0,,0,283,283,308,1,
,,,,,,,,,,,,,,,,,,5cf5134c8f8ff80019e76721,2020-11-27_10h21.59.728,lexical_decision_task_MP_exp2,2020.2.5,Win32,60,m,1,,,,,,,,0.696605,1,,,,,,230,WORD,"ID",33,fringe,FRINGE,m,0.696605,,,,,,0.946716261,-0.400123929,0,0,0,,0,284,284,49,1,
,,,,,,,,,,,,,,,,,,5cf5134c8f8ff80019e76721,2020-11-27_10h21.59.728,lexical_decision_task_MP_exp2,2020.2.5,Win32,60,z,1,,,,,,,,0.559585,1,,,,,,447,NW,"ID",33,gircue,GIRCUE,z,0.559585,,,,,,0.946716261,-0.400123929,0,0,0,,0,285,285,266,1,
,,,,,,,,,,,,,,,,,,5cf5134c8f8ff80019e76721,2020-11-27_10h21.59.728,lexical_decision_task_MP_exp2,2020.2.5,Win32,60,z,1,,,,,,,,0.63811,1,,,,,,246,NW,"ID",16,piaton,PIATON,z,0.63811,,,,,,0.946716261,-0.400123929,0,0,0,,0,286,286,305,1,
,,,,,,,,,,,,,,,,,,5cf5134c8f8ff80019e76721,2020-11-27_10h21.59.728,lexical_decision_task_MP_exp2,2020.2.5,Win32,60,m,1,,,,,,,,0.699355,1,,,,,,138,WORD,UN,16,debris,MELODY,m,0.699355,,,,,,0.946716261,-0.400123929,0,0,0,,0,287,287,197,1,
,,,,,,,,,,,,,,,,,,5cf5134c8f8ff80019e76721,2020-11-27_10h21.59.728,lexical_decision_task_MP_exp2,2020.2.5,Win32,60,m,1,,,,,,,,0.57647,1,,,,,,82,WORD,UN,33,result,STIGMA,m,0.57647,,,,,,0.946716261,-0.400123929,0,0,0,,0,288,288,141,1,
,,,,,,,,,,,,,,,,,,5cf5134c8f8ff80019e76721,2020-11-27_10h21.59.728,lexical_decision_task_MP_exp2,2020.2.5,Win32,60,m,1,,,,,,,,0.50582,1,,,,,,193,WORD,"ID",33,object,OBJECT,m,0.50582,,,,,,0.946716261,-0.400123929,0,0,0,,0,289,289,12,1,
,,,,,,,,,,,,,,,,,,5cf5134c8f8ff80019e76721,2020-11-27_10h21.59.728,lexical_decision_task_MP_exp2,2020.2.5,Win32,60,m,1,,,,,,,,0.547425,1,,,,,,24,WORD,"ID",16,praise,PRAISE,m,0.547425,,,,,,0.946716261,-0.400123929,0,0,0,,0,290,290,83,1,
,,,,,,,,,,,,,,,,,,5cf5134c8f8ff80019e76721,2020-11-27_10h21.59.728,lexical_decision_task_MP_exp2,2020.2.5,Win32,60,z,1,,,,,,,,0.55122,1,,,,,,474,NW,"ID",33,hablin,HABLIN,z,0.55122,,,,,,0.946716261,-0.400123929,0,0,0,,0,291,291,293,1,
,,,,,,,,,,,,,,,,,,5cf5134c8f8ff80019e76721,2020-11-27_10h21.59.728,lexical_decision_task_MP_exp2,2020.2.5,Win32,60,m,1,,,,,,,,0.67955,1,,,,,,170,WORD,UN,16,dragon,POUNCE,m,0.67955,,,,,,0.946716261,-0.400123929,0,0,0,,0,292,292,229,1,
,,,,,,,,,,,,,,,,,,5cf5134c8f8ff80019e76721,2020-11-27_10h21.59.728,lexical_decision_task_MP_exp2,2020.2.5,Win32,60,z,1,,,,,,,,0.699965,1,,,,,,385,NW,UN,16,ancust,VEIGMA,z,0.699965,,,,,,0.946716261,-0.400123929,0,0,0,,0,293,293,444,1,
,,,,,,,,,,,,,,,,,,5cf5134c8f8ff80019e76721,2020-11-27_10h21.59.728,lexical_decision_task_MP_exp2,2020.2.5,Win32,60,m,1,,,,,,,,0.57776,1,,,,,,154,WORD,UN,16,lizard,AUTHOR,m,0.57776,,,,,,0.946716261,-0.400123929,0,0,0,,0,294,294,213,1,
,,,,,,,,,,,,,,,,,,5cf5134c8f8ff80019e76721,2020-11-27_10h21.59.728,lexical_decision_task_MP_exp2,2020.2.5,Win32,60,m,1,,,,,,,,0.663365,1,,,,,,87,WORD,UN,33,sprawl,FILTER,m,0.663365,,,,,,0.946716261,-0.400123929,0,0,0,,0,295,295,146,1,
,,,,,,,,,,,,,,,,,,5cf5134c8f8ff80019e76721,2020-11-27_10h21.59.728,lexical_decision_task_MP_exp2,2020.2.5,Win32,60,z,1,,,,,,,,0.517965,1,,,,,,446,NW,"ID",33,runamo,RUNAMO,z,0.517965,,,,,,0.946716261,-0.400123929,0,0,0,,0,296,296,265,1,
,,,,,,,,,,,,,,,,,,5cf5134c8f8ff80019e76721,2020-11-27_10h21.59.728,lexical_decision_task_MP_exp2,2020.2.5,Win32,60,m,1,,,,,,,,0.53358,1,,,,,,84,WORD,UN,33,strand,MORTAL,m,0.53358,,,,,,0.946716261,-0.400123929,0,0,0,,0,297,297,143,1,
,,,,,,,,,,,,,,,,,,5cf5134c8f8ff80019e76721,2020-11-27_10h21.59.728,lexical_decision_task_MP_exp2,2020.2.5,Win32,60,m,1,,,,,,,,0.50975,1,,,,,,210,WORD,"ID",33,monkey,MONKEY,m,0.50975,,,,,,0.946716261,-0.400123929,0,0,0,,0,298,298,29,1,
,,,,,,,,,,,,,,,,,,5cf5134c8f8ff80019e76721,2020-11-27_10h21.59.728,lexical_decision_task_MP_exp2,2020.2.5,Win32,60,z,1,,,,,,,,0.56585,1,,,,,,372,NW,UN,16,bigent,RAMILY,z,0.56585,,,,,,0.946716261,-0.400123929,0,0,0,,0,299,299,431,1,
,,,,,,,,,,,,,,,,,,5cf5134c8f8ff80019e76721,2020-11-27_10h21.59.728,lexical_decision_task_MP_exp2,2020.2.5,Win32,60,m,1,,,,,,,,0.604105,1,,,,,,143,WORD,UN,16,sponge,REASON,m,0.604105,,,,,,0.946716261,-0.400123929,0,0,0,,0,300,300,202,1,
,,,,,,,,,,,,,,,,,,5cf5134c8f8ff80019e76721,2020-11-27_10h21.59.728,lexical_decision_task_MP_exp2,2020.2.5,Win32,60,m,1,,,,,,,,0.49128,1,,,,,,28,WORD,"ID",16,comedy,COMEDY,m,0.49128,,,,,,0.946716261,-0.400123929,0,0,0,,0,301,301,87,1,
,,,,,,,,,,,,,,,,,,5cf5134c8f8ff80019e76721,2020-11-27_10h21.59.728,lexical_decision_task_MP_exp2,2020.2.5,Win32,60,z,1,,,,,,,,0.504225,1,,,,,,463,NW,"ID",33,kispel,KISPEL,z,0.504225,,,,,,0.946716261,-0.400123929,0,0,0,,0,302,302,282,1,
,,,,,,,,,,,,,,,,,,5cf5134c8f8ff80019e76721,2020-11-27_10h21.59.728,lexical_decision_task_MP_exp2,2020.2.5,Win32,60,z,1,,,,,,,,0.58143,1,,,,,,343,NW,UN,33,scrily,AIMOSY,z,0.58143,,,,,,0.946716261,-0.400123929,0,0,0,,0,303,303,402,1,
,,,,,,,,,,,,,,,,,,5cf5134c8f8ff80019e76721,2020-11-27_10h21.59.728,lexical_decision_task_MP_exp2,2020.2.5,Win32,60,z,1,,,,,,,,0.67116,1,,,,,,314,NW,UN,33,laston,SPRINE,z,0.67116,,,,,,0.946716261,-0.400123929,0,0,0,,0,304,304,373,1,
,,,,,,,,,,,,,,,,,,5cf5134c8f8ff80019e76721,2020-11-27_10h21.59.728,lexical_decision_task_MP_exp2,2020.2.5,Win32,60,m,1,,,,,,,,0.5861,1,,,,,,122,WORD,UN,16,strike,LINGER,m,0.5861,,,,,,0.946716261,-0.400123929,0,0,0,,0,305,305,181,1,
,,,,,,,,,,,,,,,,,,5cf5134c8f8ff80019e76721,2020-11-27_10h21.59.728,lexical_decision_task_MP_exp2,2020.2.5,Win32,60,m,1,,,,,,,,0.61835,1,,,,,,237,WORD,"ID",33,poster,POSTER,m,0.61835,,,,,,0.946716261,-0.400123929,0,0,0,,0,306,306,56,1,
,,,,,,,,,,,,,,,,,,5cf5134c8f8ff80019e76721,2020-11-27_10h21.59.728,lexical_decision_task_MP_exp2,2020.2.5,Win32,60,m,1,,,,,,,,0.554665,1,,,,,,41,WORD,"ID",16,spring,SPRING,m,0.554665,,,,,,0.946716261,-0.400123929,0,0,0,,0,307,307,100,1,
,,,,,,,,,,,,,,,,,,5cf5134c8f8ff80019e76721,2020-11-27_10h21.59.728,lexical_decision_task_MP_exp2,2020.2.5,Win32,60,z,1,,,,,,,,0.567855,1,,,,,,386,NW,UN,16,gronce,ANCUST,z,0.567855,,,,,,0.946716261,-0.400123929,0,0,0,,0,308,308,445,1,
,,,,,,,,,,,,,,,,,,5cf5134c8f8ff80019e76721,2020-11-27_10h21.59.728,lexical_decision_task_MP_exp2,2020.2.5,Win32,60,z,1,,,,,,,,0.52809,1,,,,,,339,NW,UN,33,fiatch,FACHOW,z,0.52809,,,,,,0.946716261,-0.400123929,0,0,0,,0,309,309,398,1,
,,,,,,,,,,,,,,,,,,5cf5134c8f8ff80019e76721,2020-11-27_10h21.59.728,lexical_decision_task_MP_exp2,2020.2.5,Win32,60,m,1,,,,,,,,0.5125,1,,,,,,217,WORD,"ID",33,liquor,LIQUOR,m,0.5125,,,,,,0.946716261,-0.400123929,0,0,0,,0,310,310,36,1,
,,,,,,,,,,,,,,,,,,5cf5134c8f8ff80019e76721,2020-11-27_10h21.59.728,lexical_decision_task_MP_exp2,2020.2.5,Win32,60,z,1,,,,,,,,0.507165,1,,,,,,442,NW,"ID",33,aboune,ABOUNE,z,0.507165,,,,,,0.946716261,-0.400123929,0,0,0,,0,311,311,261,1,
,,,,,,,,,,,,,,,,,,5cf5134c8f8ff80019e76721,2020-11-27_10h21.59.728,lexical_decision_task_MP_exp2,2020.2.5,Win32,60,m,1,,,,,,,,0.59092,1,,,,,,208,WORD,"ID",33,hockey,HOCKEY,m,0.59092,,,,,,0.946716261,-0.400123929,0,0,0,,0,312,312,27,1,
,,,,,,,,,,,,,,,,,,5cf5134c8f8ff80019e76721,2020-11-27_10h21.59.728,lexical_decision_task_MP_exp2,2020.2.5,Win32,60,z,1,,,,,,,,0.497855,1,,,,,,401,NW,UN,16,syntic,MUSTIL,z,0.497855,,,,,,0.946716261,-0.400123929,0,0,0,,0,313,313,460,1,
,,,,,,,,,,,,,,,,,,5cf5134c8f8ff80019e76721,2020-11-27_10h21.59.728,lexical_decision_task_MP_exp2,2020.2.5,Win32,60,m,0,,,,,,,,0.52146,0,,,,,,344,NW,UN,33,absend,SCRILY,z,0.52146,,,,,,0.946716261,-0.400123929,0,0,0,,0,314,314,403,1,
,,,,,,,,,,,,,,,,,,5cf5134c8f8ff80019e76721,2020-11-27_10h21.59.728,lexical_decision_task_MP_exp2,2020.2.5,Win32,60,m,1,,,,,,,,0.60314,1,,,,,,205,WORD,"ID",33,lounge,LOUNGE,m,0.60314,,,,,,0.946716261,-0.400123929,0,0,0,,0,315,315,24,1,
,,,,,,,,,,,,,,,,,,5cf5134c8f8ff80019e76721,2020-11-27_10h21.59.728,lexical_decision_task_MP_exp2,2020.2.5,Win32,60,m,1,,,,,,,,0.520525,1,,,,,,187,WORD,"ID",33,course,COURSE,m,0.520525,,,,,,0.946716261,-0.400123929,0,0,0,,0,316,316,6,1,
,,,,,,,,,,,,,,,,,,5cf5134c8f8ff80019e76721,2020-11-27_10h21.59.728,lexical_decision_task_MP_exp2,2020.2.5,Win32,60,z,1,,,,,,,,0.51312,1,,,,,,426,NW,"ID",33,urivel,URIVEL,z,0.51312,,,,,,0.946716261,-0.400123929,0,0,0,,0,317,317,245,1,
,,,,,,,,,,,,,,,,,,5cf5134c8f8ff80019e76721,2020-11-27_10h21.59.728,lexical_decision_task_MP_exp2,2020.2.5,Win32,60,z,1,,,,,,,,0.554725,1,,,,,,466,NW,"ID",33,hocite,HOCITE,z,0.554725,,,,,,0.946716261,-0.400123929,0,0,0,,0,318,318,285,1,
,,,,,,,,,,,,,,,,,,5cf5134c8f8ff80019e76721,2020-11-27_10h21.59.728,lexical_decision_task_MP_exp2,2020.2.5,Win32,60,z,1,,,,,,,,0.615575,1,,,,,,461,NW,"ID",33,justre,JUSTRE,z,0.615575,,,,,,0.946716261,-0.400123929,0,0,0,,0,319,319,280,1,
,,,,,,,,,,,,,,,,,,5cf5134c8f8ff80019e76721,2020-11-27_10h21.59.728,lexical_decision_task_MP_exp2,2020.2.5,Win32,60,z,1,,,,,,,,0.54776,1,,,,,,264,NW,"ID",16,vackel,VACKEL,z,0.54776,,,,,,0.946716261,-0.400123929,0,0,0,,0,320,320,323,1,
,,,,,,,,,,,,,,,,,,5cf5134c8f8ff80019e76721,2020-11-27_10h21.59.728,lexical_decision_task_MP_exp2,2020.2.5,Win32,60,m,1,,,,,,,,0.60491,1,,,,,,42,WORD,"ID",16,chapel,CHAPEL,m,0.60491,,,,,,0.946716261,-0.400123929,0,0,0,,0,321,321,101,1,
,,,,,,,,,,,,,,,,,,5cf5134c8f8ff80019e76721,2020-11-27_10h21.59.728,lexical_decision_task_MP_exp2,2020.2.5,Win32,60,m,1,,,,,,,,0.584655,1,,,,,,137,WORD,UN,16,melody,FINGER,m,0.584655,,,,,,0.946716261,-0.400123929,0,0,0,,0,322,322,196,1,
,,,,,,,,,,,,,,,,,,5cf5134c8f8ff80019e76721,2020-11-27_10h21.59.728,lexical_decision_task_MP_exp2,2020.2.5,Win32,60,z,1,,,,,,,,0.63077,1,,,,,,303,NW,UN,33,cludie,FIREAM,z,0.63077,,,,,,0.946716261,-0.400123929,0,0,0,,0,323,323,362,1,
,,,,,,,,,,,,,,,,,,5cf5134c8f8ff80019e76721,2020-11-27_10h21.59.728,lexical_decision_task_MP_exp2,2020.2.5,Win32,60,m,1,,,,,,,,0.65908,1,,,,,,155,WORD,UN,16,cradle,LIZARD,m,0.65908,,,,,,0.946716261,-0.400123929,0,0,0,,0,324,324,214,1,
,,,,,,,,,,,,,,,,,,5cf5134c8f8ff80019e76721,2020-11-27_10h21.59.728,lexical_decision_task_MP_exp2,2020.2.5,Win32,60,m,1,,,,,,,,0.53414,1,,,,,,164,WORD,UN,16,invest,MARKET,m,0.53414,,,,,,0.946716261,-0.400123929,0,0,0,,0,325,325,223,1,
,,,,,,,,,,,,,,,,,,5cf5134c8f8ff80019e76721,2020-11-27_10h21.59.728,lexical_decision_task_MP_exp2,2020.2.5,Win32,60,z,1,,,,,,,,0.539355,1,,,,,,458,NW,"ID",33,barcet,BARCET,z,0.539355,,,,,,0.946716261,-0.400123929,0,0,0,,0,326,326,277,1,
,,,,,,,,,,,,,,,,,,5cf5134c8f8ff80019e76721,2020-11-27_10h21.59.728,lexical_decision_task_MP_exp2,2020.2.5,Win32,60,z,1,,,,,,,,0.71479,1,,,,,,276,NW,"ID",16,yarmon,YARMON,z,0.71479,,,,,,0.946716261,-0.400123929,0,0,0,,0,327,327,335,1,
,,,,,,,,,,,,,,,,,,5cf5134c8f8ff80019e76721,2020-11-27_10h21.59.728,lexical_decision_task_MP_exp2,2020.2.5,Win32,60,m,1,,,,,,,,0.55225,1,,,,,,147,WORD,UN,16,custom,GARLIC,m,0.55225,,,,,,0.946716261,-0.400123929,0,0,0,,0,328,328,206,1,
,,,,,,,,,,,,,,,,,,5cf5134c8f8ff80019e76721,2020-11-27_10h21.59.728,lexical_decision_task_MP_exp2,2020.2.5,Win32,60,m,1,,,,,,,,0.60731,1,,,,,,101,WORD,UN,33,direct,WRENCH,m,0.60731,,,,,,0.946716261,-0.400123929,0,0,0,,0,329,329,160,1,
,,,,,,,,,,,,,,,,,,5cf5134c8f8ff80019e76721,2020-11-27_10h21.59.728,lexical_decision_task_MP_exp2,2020.2.5,Win32,60,m,1,,,,,,,,0.604015,1,,,,,,158,WORD,UN,16,detail,ISLAND,m,0.604015,,,,,,0.946716261,-0.400123929,0,0,0,,0,330,330,217,1,
,,,,,,,,,,,,,,,,,,5cf5134c8f8ff80019e76721,2020-11-27_10h21.59.728,lexical_decision_task_MP_exp2,2020.2.5,Win32,60,z,1,,,,,,,,0.55137,1,,,,,,256,NW,"ID",16,inlors,INLORS,z,0.55137,,,,,,0.946716261,-0.400123929,0,0,0,,0,331,331,315,1,
,,,,,,,,,,,,,,,,,,5cf5134c8f8ff80019e76721,2020-11-27_10h21.59.728,lexical_decision_task_MP_exp2,2020.2.5,Win32,60,m,1,,,,,,,,1.0545,1,,,,,,176,WORD,UN,16,advent,STRIFE,m,1.0545,,,,,,0.946716261,-0.400123929,0,0,0,,0,332,332,235,1,
,,,,,,,,,,,,,,,,,,5cf5134c8f8ff80019e76721,2020-11-27_10h21.59.728,lexical_decision_task_MP_exp2,2020.2.5,Win32,60,z,1,,,,,,,,0.60112,1,,,,,,380,NW,UN,16,huniek,CAVORY,z,0.60112,,,,,,0.946716261,-0.400123929,0,0,0,,0,333,333,439,1,
,,,,,,,,,,,,,,,,,,5cf5134c8f8ff80019e76721,2020-11-27_10h21.59.728,lexical_decision_task_MP_exp2,2020.2.5,Win32,60,z,1,,,,,,,,0.70882,1,,,,,,449,NW,"ID",33,brunge,BRUNGE,z,0.70882,,,,,,0.946716261,-0.400123929,0,0,0,,0,334,334,268,1,
,,,,,,,,,,,,,,,,,,5cf5134c8f8ff80019e76721,2020-11-27_10h21.59.728,lexical_decision_task_MP_exp2,2020.2.5,Win32,60,z,1,,,,,,,,0.58144,1,,,,,,273,NW,"ID",16,sortel,SORTEL,z,0.58144,,,,,,0.946716261,-0.400123929,0,0,0,,0,335,335,332,1,
,,,,,,,,,,,,,,,,,,5cf5134c8f8ff80019e76721,2020-11-27_10h21.59.728,lexical_decision_task_MP_exp2,2020.2.5,Win32,60,m,1,,,,,,,,0.61544,1,,,,,,65,WORD,UN,33,gospel,SYMBOL,m,0.61544,,,,,,0.946716261,-0.400123929,0,0,0,,0,336,336,124,1,
,,,,,,,,,,,,,,,,,,5cf5134c8f8ff80019e76721,2020-11-27_10h21.59.728,lexical_decision_task_MP_exp2,2020.2.5,Win32,60,m,1,,,,,,,,0.56896,1,,,,,,141,WORD,UN,16,spruce,ORPHAN,m,0.56896,,,,,,0.946716261,-0.400123929,0,0,0,,0,337,337,200,1,
,,,,,,,,,,,,,,,,,,5cf5134c8f8ff80019e76721,2020-11-27_10h21.59.728,lexical_decision_task_MP_exp2,2020.2.5,Win32,60,z,1,,,,,,,,0.553655,1,,,,,,414,NW,UN,16,higsta,SERBOL,z,0.553655,,,,,,0.946716261,-0.400123929,0,0,0,,0,338,338,473,1,
,,,,,,,,,,,,,,,,,,5cf5134c8f8ff80019e76721,2020-11-27_10h21.59.728,lexical_decision_task_MP_exp2,2020.2.5,Win32,60,m,1,,,,,,,,0.548,1,,,,,,200,WORD,"ID",33,beacon,BEACON,m,0.548,,,,,,0.946716261,-0.400123929,0,0,0,,0,339,339,19,1,
,,,,,,,,,,,,,,,,,,5cf5134c8f8ff80019e76721,2020-11-27_10h21.59.728,lexical_decision_task_MP_exp2,2020.2.5,Win32,60,z,1,,,,,,,,0.54445,1,,,,,,441,NW,"ID",33,rastoe,RASTOE,z,0.54445,,,,,,0.946716261,-0.400123929,0,0,0,,0,340,340,260,1,
,,,,,,,,,,,,,,,,,,5cf5134c8f8ff80019e76721,2020-11-27_10h21.59.728,lexical_decision_task_MP_exp2,2020.2.5,Win32,60,z,1,,,,,,,,0.61696,1,,,,,,381,NW,UN,16,sarley,HUNIEK,z,0.61696,,,,,,0.946716261,-0.400123929,0,0,0,,0,341,341,440,1,
,,,,,,,,,,,,,,,,,,5cf5134c8f8ff80019e76721,2020-11-27_10h21.59.728,lexical_decision_task_MP_exp2,2020.2.5,Win32,60,z,1,,,,,,,,0.81844,1,,,,,,260,NW,"ID",16,unject,UNJECT,z,0.81844,,,,,,0.946716261,-0.400123929,0,0,0,,0,342,342,319,1,
,,,,,,,,,,,,,,,,,,5cf5134c8f8ff80019e76721,2020-11-27_10h21.59.728,lexical_decision_task_MP_exp2,2020.2.5,Win32,60,z,1,,,,,,,,0.538805,1,,,,,,465,NW,"ID",33,whivex,WHIVEX,z,0.538805,,,,,,0.946716261,-0.400123929,0,0,0,,0,343,343,284,1,
,,,,,,,,,,,,,,,,,,5cf5134c8f8ff80019e76721,2020-11-27_10h21.59.728,lexical_decision_task_MP_exp2,2020.2.5,Win32,60,m,1,,,,,,,,0.688165,1,,,,,,98,WORD,UN,33,fluent,BELONG,m,0.688165,,,,,,0.946716261,-0.400123929,0,0,0,,0,344,344,157,1,
,,,,,,,,,,,,,,,,,,5cf5134c8f8ff80019e76721,2020-11-27_10h21.59.728,lexical_decision_task_MP_exp2,2020.2.5,Win32,60,m,1,,,,,,,,0.674795,1,,,,,,16,WORD,"ID",16,faucet,FAUCET,m,0.674795,,,,,,0.946716261,-0.400123929,0,0,0,,0,345,345,75,1,
,,,,,,,,,,,,,,,,,,5cf5134c8f8ff80019e76721,2020-11-27_10h21.59.728,lexical_decision_task_MP_exp2,2020.2.5,Win32,60,z,1,,,,,,,,0.75971,1,,,,,,364,NW,UN,16,guairt,IMPOTE,z,0.75971,,,,,,0.946716261,-0.400123929,0,0,0,,0,346,346,423,1,
,,,,,,,,,,,,,,,,,,5cf5134c8f8ff80019e76721,2020-11-27_10h21.59.728,lexical_decision_task_MP_exp2,2020.2.5,Win32,60,z,1,,,,,,,,0.68222,1,,,,,,475,NW,"ID",33,pebric,PEBRIC,z,0.68222,,,,,,0.946716261,-0.400123929,0,0,0,,0,347,347,294,1,
,,,,,,,,,,,,,,,,,,5cf5134c8f8ff80019e76721,2020-11-27_10h21.59.728,lexical_decision_task_MP_exp2,2020.2.5,Win32,60,z,1,,,,,,,,0.518035,1,,,,,,362,NW,UN,16,breali,TIREAU,z,0.518035,,,,,,0.946716261,-0.400123929,0,0,0,,0,348,348,421,1,
,,,,,,,,,,,,,,,,,,5cf5134c8f8ff80019e76721,2020-11-27_10h21.59.728,lexical_decision_task_MP_exp2,2020.2.5,Win32,60,m,1,,,,,,,,0.575955,1,,,,,,153,WORD,UN,16,author,BEHOLD,m,0.575955,,,,,,0.946716261,-0.400123929,0,0,0,,0,349,349,212,1,
,,,,,,,,,,,,,,,,,,5cf5134c8f8ff80019e76721,2020-11-27_10h21.59.728,lexical_decision_task_MP_exp2,2020.2.5,Win32,60,m,1,,,,,,,,0.583575,1,,,,,,4,WORD,"ID",16,trench,TRENCH,m,0.583575,,,,,,0.946716261,-0.400123929,0,0,0,,0,350,350,63,1,
,,,,,,,,,,,,,,,,,,5cf5134c8f8ff80019e76721,2020-11-27_10h21.59.728,lexical_decision_task_MP_exp2,2020.2.5,Win32,60,z,1,,,,,,,,0.53548,1,,,,,,278,NW,"ID",16,unighs,UNIGHS,z,0.53548,,,,,,0.946716261,-0.400123929,0,0,0,,0,351,351,337,1,
,,,,,,,,,,,,,,,,,,5cf5134c8f8ff80019e76721,2020-11-27_10h21.59.728,lexical_decision_task_MP_exp2,2020.2.5,Win32,60,z,1,,,,,,,,0.650085,1,,,,,,478,NW,"ID",33,acrise,ACRISE,z,0.650085,,,,,,0.946716261,-0.400123929,0,0,0,,0,352,352,297,1,
,,,,,,,,,,,,,,,,,,5cf5134c8f8ff80019e76721,2020-11-27_10h21.59.728,lexical_decision_task_MP_exp2,2020.2.5,Win32,60,z,1,,,,,,,,0.55671,1,,,,,,460,NW,"ID",33,mingar,MINGAR,z,0.55671,,,,,,0.946716261,-0.400123929,0,0,0,,0,353,353,279,1,
,,,,,,,,,,,,,,,,,,5cf5134c8f8ff80019e76721,2020-11-27_10h21.59.728,lexical_decision_task_MP_exp2,2020.2.5,Win32,60,z,1,,,,,,,,0.531585,1,,,,,,439,NW,"ID",33,limpor,LIMPOR,z,0.531585,,,,,,0.946716261,-0.400123929,0,0,0,,0,354,354,258,1,
,,,,,,,,,,,,,,,,,,5cf5134c8f8ff80019e76721,2020-11-27_10h21.59.728,lexical_decision_task_MP_exp2,2020.2.5,Win32,60,z,0,,,,,,,,0.5146,0,,,,,,108,WORD,UN,33,wonder,RECKON,m,0.5146,,,,,,0.946716261,-0.400123929,0,0,0,,0,355,355,167,1,
,,,,,,,,,,,,,,,,,,5cf5134c8f8ff80019e76721,2020-11-27_10h21.59.728,lexical_decision_task_MP_exp2,2020.2.5,Win32,60,z,0,,,,,,,,0.499255,0,,,,,,110,WORD,UN,33,induce,POLITE,m,0.499255,,,,,,0.946716261,-0.400123929,0,0,0,,0,356,356,169,1,
,,,,,,,,,,,,,,,,,,5cf5134c8f8ff80019e76721,2020-11-27_10h21.59.728,lexical_decision_task_MP_exp2,2020.2.5,Win32,60,m,1,,,,,,,,0.51307,1,,,,,,103,WORD,UN,33,studio,BOUNCE,m,0.51307,,,,,,0.946716261,-0.400123929,0,0,0,,0,357,357,162,1,
,,,,,,,,,,,,,,,,,,5cf5134c8f8ff80019e76721,2020-11-27_10h21.59.728,lexical_decision_task_MP_exp2,2020.2.5,Win32,60,z,1,,,,,,,,0.591845,1,,,,,,308,NW,UN,33,amiloy,PSETCH,z,0.591845,,,,,,0.946716261,-0.400123929,0,0,0,,0,358,358,367,1,
,,,,,,,,,,,,,,,,,,5cf5134c8f8ff80019e76721,2020-11-27_10h21.59.728,lexical_decision_task_MP_exp2,2020.2.5,Win32,60,m,1,,,,,,,,1.105155,1,,,,,,177,WORD,UN,16,inform,ADVENT,m,1.105155,,,,,,0.946716261,-0.400123929,0,0,0,,0,359,359,236,1,
,,,,,,,,,,,,,,,,,,5cf5134c8f8ff80019e76721,2020-11-27_10h21.59.728,lexical_decision_task_MP_exp2,2020.2.5,Win32,60,m,1,,,,,,,,0.50275,1,,,,,,60,WORD,"ID",16,pencil,PENCIL,m,0.50275,,,,,,0.946716261,-0.400123929,0,0,0,,0,360,360,119,1,
,,,,,,,,,,,,,,,,,,5cf5134c8f8ff80019e76721,2020-11-27_10h21.59.728,lexical_decision_task_MP_exp2,2020.2.5,Win32,60,z,1,,,,,,,,0.75488,1,,,,,,282,NW,"ID",16,porlex,PORLEX,z,0.75488,,,,,,0.946716261,-0.400123929,0,0,0,,0,361,361,341,1,
,,,,,,,,,,,,,,,,,,5cf5134c8f8ff80019e76721,2020-11-27_10h21.59.728,lexical_decision_task_MP_exp2,2020.2.5,Win32,60,z,1,,,,,,,,0.571915,1,,,,,,302,NW,UN,33,fiream,MILUER,z,0.571915,,,,,,0.946716261,-0.400123929,0,0,0,space,0,362,362,361,1,2.187585
,,,,,,,,,,,,,,,,,,5cf5134c8f8ff80019e76721,2020-11-27_10h21.59.728,lexical_decision_task_MP_exp2,2020.2.5,Win32,60,z,1,,,,,,,,0.71446,1,,,,,,435,NW,"ID",33,impurb,IMPURB,z,0.71446,,,,,,0.946716261,-0.400123929,0,0,0,,0,363,363,254,1,
,,,,,,,,,,,,,,,,,,5cf5134c8f8ff80019e76721,2020-11-27_10h21.59.728,lexical_decision_task_MP_exp2,2020.2.5,Win32,60,m,1,,,,,,,,0.70903,1,,,,,,86,WORD,UN,33,filter,RODENT,m,0.70903,,,,,,0.946716261,-0.400123929,0,0,0,,0,364,364,145,1,
,,,,,,,,,,,,,,,,,,5cf5134c8f8ff80019e76721,2020-11-27_10h21.59.728,lexical_decision_task_MP_exp2,2020.2.5,Win32,60,m,1,,,,,,,,0.534995,1,,,,,,157,WORD,UN,16,island,DRAGON,m,0.534995,,,,,,0.946716261,-0.400123929,0,0,0,,0,365,365,216,1,
,,,,,,,,,,,,,,,,,,5cf5134c8f8ff80019e76721,2020-11-27_10h21.59.728,lexical_decision_task_MP_exp2,2020.2.5,Win32,60,m,1,,,,,,,,0.543435,1,,,,,,81,WORD,UN,33,stigma,FRIEND,m,0.543435,,,,,,0.946716261,-0.400123929,0,0,0,,0,366,366,140,1,
,,,,,,,,,,,,,,,,,,5cf5134c8f8ff80019e76721,2020-11-27_10h21.59.728,lexical_decision_task_MP_exp2,2020.2.5,Win32,60,z,1,,,,,,,,0.65096,1,,,,,,437,NW,"ID",33,snapel,SNAPEL,z,0.65096,,,,,,0.946716261,-0.400123929,0,0,0,,0,367,367,256,1,
,,,,,,,,,,,,,,,,,,5cf5134c8f8ff80019e76721,2020-11-27_10h21.59.728,lexical_decision_task_MP_exp2,2020.2.5,Win32,60,m,1,,,,,,,,0.550515,1,,,,,,195,WORD,"ID",33,resign,RESIGN,m,0.550515,,,,,,0.946716261,-0.400123929,0,0,0,,0,368,368,14,1,
,,,,,,,,,,,,,,,,,,5cf5134c8f8ff80019e76721,2020-11-27_10h21.59.728,lexical_decision_task_MP_exp2,2020.2.5,Win32,60,m,1,,,,,,,,0.587025,1,,,,,,14,WORD,"ID",16,almost,ALMOST,m,0.587025,,,,,,0.946716261,-0.400123929,0,0,0,,0,369,369,73,1,
,,,,,,,,,,,,,,,,,,5cf5134c8f8ff80019e76721,2020-11-27_10h21.59.728,lexical_decision_task_MP_exp2,2020.2.5,Win32,60,z,1,,,,,,,,0.569965,1,,,,,,331,NW,UN,33,vangue,GILFEW,z,0.569965,,,,,,0.946716261,-0.400123929,0,0,0,,0,370,370,390,1,
,,,,,,,,,,,,,,,,,,5cf5134c8f8ff80019e76721,2020-11-27_10h21.59.728,lexical_decision_task_MP_exp2,2020.2.5,Win32,60,z,1,,,,,,,,0.73416,1,,,,,,417,NW,UN,16,suidle,EAROUD,z,0.73416,,,,,,0.946716261,-0.400123929,0,0,0,,0,371,371,476,1,
,,,,,,,,,,,,,,,,,,5cf5134c8f8ff80019e76721,2020-11-27_10h21.59.728,lexical_decision_task_MP_exp2,2020.2.5,Win32,60,z,1,,,,,,,,0.62889,1,,,,,,368,NW,UN,16,wronch,HORNAL,z,0.62889,,,,,,0.946716261,-0.400123929,0,0,0,,0,372,372,427,1,
,,,,,,,,,,,,,,,,,,5cf5134c8f8ff80019e76721,2020-11-27_10h21.59.728,lexical_decision_task_MP_exp2,2020.2.5,Win32,60,m,1,,,,,,,,0.580555,1,,,,,,151,WORD,UN,16,rocket,MYSTIC,m,0.580555,,,,,,0.946716261,-0.400123929,0,0,0,,0,373,373,210,1,
,,,,,,,,,,,,,,,,,,5cf5134c8f8ff80019e76721,2020-11-27_10h21.59.728,lexical_decision_task_MP_exp2,2020.2.5,Win32,60,z,1,,,,,,,,0.55333,1,,,,,,451,NW,"ID",33,cainky,CAINKY,z,0.55333,,,,,,0.946716261,-0.400123929,0,0,0,,0,374,374,270,1,
,,,,,,,,,,,,,,,,,,5cf5134c8f8ff80019e76721,2020-11-27_10h21.59.728,lexical_decision_task_MP_exp2,2020.2.5,Win32,60,m,1,,,,,,,,0.61669,1,,,,,,171,WORD,UN,16,patrol,DEPART,m,0.61669,,,,,,0.946716261,-0.400123929,0,0,0,,0,375,375,230,1,
,,,,,,,,,,,,,,,,,,5cf5134c8f8ff80019e76721,2020-11-27_10h21.59.728,lexical_decision_task_MP_exp2,2020.2.5,Win32,60,m,1,,,,,,,,0.557195,1,,,,,,173,WORD,UN,16,turkey,SHOWER,m,0.557195,,,,,,0.946716261,-0.400123929,0,0,0,,0,376,376,232,1,
,,,,,,,,,,,,,,,,,,5cf5134c8f8ff80019e76721,2020-11-27_10h21.59.728,lexical_decision_task_MP_exp2,2020.2.5,Win32,60,z,1,,,,,,,,0.517385,1,,,,,,413,NW,UN,16,serbol,EQUATS,z,0.517385,,,,,,0.946716261,-0.400123929,0,0,0,,0,377,377,472,1,
,,,,,,,,,,,,,,,,,,5cf5134c8f8ff80019e76721,2020-11-27_10h21.59.728,lexical_decision_task_MP_exp2,2020.2.5,Win32,60,m,1,,,,,,,,0.661945,1,,,,,,23,WORD,"ID",16,wealth,WEALTH,m,0.661945,,,,,,0.946716261,-0.400123929,0,0,0,,0,378,378,82,1,
,,,,,,,,,,,,,,,,,,5cf5134c8f8ff80019e76721,2020-11-27_10h21.59.728,lexical_decision_task_MP_exp2,2020.2.5,Win32,60,m,1,,,,,,,,0.571165,1,,,,,,32,WORD,"ID",16,buckle,BUCKLE,m,0.571165,,,,,,0.946716261,-0.400123929,0,0,0,,0,379,379,91,1,
,,,,,,,,,,,,,,,,,,5cf5134c8f8ff80019e76721,2020-11-27_10h21.59.728,lexical_decision_task_MP_exp2,2020.2.5,Win32,60,m,1,,,,,,,,0.583855,1,,,,,,51,WORD,"ID",16,hungry,HUNGRY,m,0.583855,,,,,,0.946716261,-0.400123929,0,0,0,,0,380,380,110,1,
,,,,,,,,,,,,,,,,,,5cf5134c8f8ff80019e76721,2020-11-27_10h21.59.728,lexical_decision_task_MP_exp2,2020.2.5,Win32,60,z,1,,,,,,,,0.65072,1,,,,,,283,NW,"ID",16,veralf,VERALF,z,0.65072,,,,,,0.946716261,-0.400123929,0,0,0,,0,381,381,342,1,
,,,,,,,,,,,,,,,,,,5cf5134c8f8ff80019e76721,2020-11-27_10h21.59.728,lexical_decision_task_MP_exp2,2020.2.5,Win32,60,m,1,,,,,,,,0.741755,1,,,,,,48,WORD,"ID",16,walnut,WALNUT,m,0.741755,,,,,,0.946716261,-0.400123929,0,0,0,,0,382,382,107,1,
,,,,,,,,,,,,,,,,,,5cf5134c8f8ff80019e76721,2020-11-27_10h21.59.728,lexical_decision_task_MP_exp2,2020.2.5,Win32,60,m,1,,,,,,,,0.593895,1,,,,,,185,WORD,"ID",33,bother,BOTHER,m,0.593895,,,,,,0.946716261,-0.400123929,0,0,0,,0,383,383,4,1,
,,,,,,,,,,,,,,,,,,5cf5134c8f8ff80019e76721,2020-11-27_10h21.59.728,lexical_decision_task_MP_exp2,2020.2.5,Win32,60,z,1,,,,,,,,0.58139,1,,,,,,335,NW,UN,33,ghodus,DESION,z,0.58139,,,,,,0.946716261,-0.400123929,0,0,0,,0,384,384,394,1,
,,,,,,,,,,,,,,,,,,5cf5134c8f8ff80019e76721,2020-11-27_10h21.59.728,lexical_decision_task_MP_exp2,2020.2.5,Win32,60,z,1,,,,,,,,0.686645,1,,,,,,250,NW,"ID",16,milted,MILTED,z,0.686645,,,,,,0.946716261,-0.400123929,0,0,0,,0,385,385,309,1,
,,,,,,,,,,,,,,,,,,5cf5134c8f8ff80019e76721,2020-11-27_10h21.59.728,lexical_decision_task_MP_exp2,2020.2.5,Win32,60,z,1,,,,,,,,0.5737,1,,,,,,428,NW,"ID",33,tandly,TANDLY,z,0.5737,,,,,,0.946716261,-0.400123929,0,0,0,,0,386,386,247,1,
,,,,,,,,,,,,,,,,,,5cf5134c8f8ff80019e76721,2020-11-27_10h21.59.728,lexical_decision_task_MP_exp2,2020.2.5,Win32,60,z,1,,,,,,,,0.53445,1,,,,,,316,NW,UN,33,worbal,SCREGM,z,0.53445,,,,,,0.946716261,-0.400123929,0,0,0,,0,387,387,375,1,
,,,,,,,,,,,,,,,,,,5cf5134c8f8ff80019e76721,2020-11-27_10h21.59.728,lexical_decision_task_MP_exp2,2020.2.5,Win32,60,m,1,,,,,,,,0.548935,1,,,,,,105,WORD,UN,33,ransom,NUMBER,m,0.548935,,,,,,0.946716261,-0.400123929,0,0,0,,0,388,388,164,1,
,,,,,,,,,,,,,,,,,,5cf5134c8f8ff80019e76721,2020-11-27_10h21.59.728,lexical_decision_task_MP_exp2,2020.2.5,Win32,60,m,1,,,,,,,,0.53799,1,,,,,,75,WORD,UN,33,exotic,TROPHY,m,0.53799,,,,,,0.946716261,-0.400123929,0,0,0,,0,389,389,134,1,
,,,,,,,,,,,,,,,,,,5cf5134c8f8ff80019e76721,2020-11-27_10h21.59.728,lexical_decision_task_MP_exp2,2020.2.5,Win32,60,m,0,,,,,,,,0.523025,0,,,,,,342,NW,UN,33,aimosy,RANDOW,z,0.523025,,,,,,0.946716261,-0.400123929,0,0,0,,0,390,390,401,1,
,,,,,,,,,,,,,,,,,,5cf5134c8f8ff80019e76721,2020-11-27_10h21.59.728,lexical_decision_task_MP_exp2,2020.2.5,Win32,60,m,1,,,,,,,,0.50801,1,,,,,,203,WORD,"ID",33,phrase,PHRASE,m,0.50801,,,,,,0.946716261,-0.400123929,0,0,0,,0,391,391,22,1,
,,,,,,,,,,,,,,,,,,5cf5134c8f8ff80019e76721,2020-11-27_10h21.59.728,lexical_decision_task_MP_exp2,2020.2.5,Win32,60,m,0,,,,,,,,0.600485,0,,,,,,298,NW,"ID",16,piergy,PIERGY,z,0.600485,,,,,,0.946716261,-0.400123929,0,0,0,,0,392,392,357,1,
,,,,,,,,,,,,,,,,,,5cf5134c8f8ff80019e76721,2020-11-27_10h21.59.728,lexical_decision_task_MP_exp2,2020.2.5,Win32,60,z,1,,,,,,,,0.575575,1,,,,,,431,NW,"ID",33,chrums,CHRUMS,z,0.575575,,,,,,0.946716261,-0.400123929,0,0,0,,0,393,393,250,1,
,,,,,,,,,,,,,,,,,,5cf5134c8f8ff80019e76721,2020-11-27_10h21.59.728,lexical_decision_task_MP_exp2,2020.2.5,Win32,60,z,1,,,,,,,,0.47015,1,,,,,,333,NW,UN,33,watmeg,CATRIE,z,0.47015,,,,,,0.946716261,-0.400123929,0,0,0,,0,394,394,392,1,
