counterbalancing_condition,instr_done_keyboard.keys,instr_done_keyboard.rt,instr_done_touch.x,instr_done_touch.y,instr_done_touch.leftButton,instr_done_touch.midButton,instr_done_touch.rightButton,instruction_pages.thisRepN,instruction_pages.thisTrialN,instruction_pages.thisN,instruction_pages.thisIndex,instruction_pages.ran,pageN,phase,instruct_text,has_image,instruct_image,participant,date,expName,psychopyVersion,OS,frameRate,response.keys,response.corr,response.rt,touch_resp.x,touch_resp.y,touch_resp.leftButton,touch_resp.midButton,touch_resp.rightButton,touch_resp.time,touch_resp.clicked_name,rt,corr,practice_trials.thisRepN,practice_trials.thisTrialN,practice_trials.thisN,practice_trials.thisIndex,practice_trials.ran,TrialID,StimulusType,Condition,PrimeDuration,Prime,Target,corrAns,end_of_practice_trials_pages.thisRepN,end_of_practice_trials_pages.thisTrialN,end_of_practice_trials_pages.thisN,end_of_practice_trials_pages.thisIndex,end_of_practice_trials_pages.ran,break_done_touch.x,break_done_touch.y,break_done_touch.leftButton,break_done_touch.midButton,break_done_touch.rightButton,break_done_keyboard.keys,experiment_trials.thisRepN,experiment_trials.thisTrialN,experiment_trials.thisN,experiment_trials.thisIndex,experiment_trials.ran,break_done_touch.clicked_name,break_done_keyboard.rt
0,space,9.402235,0.020603299,-0.410868056,0,0,0,0,0,0,0,1,1,instructions,"INSTRUCTIONS
At the start of each trial, look at the hash marks (######) in the center of the screen. After a moment, a string of letters will appear. Your task is to indicate if the letter string forms a word or not (i.e., if it is a nonword). For example, AUTHOR is a word while AUTHON is a nonword.

Press the space bar or touch the button below to continue.",0,,5d3cfeabbaf11000151ed4cd,2020-12-03_00h21.19.364,lexical_decision_task_MP_exp2,2020.2.8,MacIntel,60,,,,,,,,,,,,,,,,,,,,,,,,,,,,,,,,,,,,,,,,,,
,space,3.4913,0.020603299,-0.410868056,0,0,0,0,1,1,1,1,2,instructions,"If your device has a keyboard, press the 'Z' key for nonwords and the 'M' key for words.





Press the space bar or touch the button below to continue.",1,keyboard-example.gif,5d3cfeabbaf11000151ed4cd,2020-12-03_00h21.19.364,lexical_decision_task_MP_exp2,2020.2.8,MacIntel,60,,,,,,,,,,,,,,,,,,,,,,,,,,,,,,,,,,,,,,,,,,
,space,4.681065,0.020603299,-0.410868056,0,0,0,0,2,2,2,1,3,instructions,"If you are using a touchscreen only device, use the buttons on the screen. Do not use the mouse.





Press the space bar or touch the button below to continue.",1,touchscreen-example.gif,5d3cfeabbaf11000151ed4cd,2020-12-03_00h21.19.364,lexical_decision_task_MP_exp2,2020.2.8,MacIntel,60,,,,,,,,,,,,,,,,,,,,,,,,,,,,,,,,,,,,,,,,,,
,space,7.53506,0.020603299,-0.410868056,0,0,0,0,3,3,3,1,4,instructions,"It is very important that you respond as quickly and accurately as possible, as each letter string will only be on the screen for two seconds. If you do not respond within this time, the message 'Too slow!' will be displayed and the experiment will progress to the next letter string. The first 20 trials will be practice trials and you will receive feedback on your answers. 

Press the space bar or touch the button below to start the practice trials.",0,,5d3cfeabbaf11000151ed4cd,2020-12-03_00h21.19.364,lexical_decision_task_MP_exp2,2020.2.8,MacIntel,60,,,,,,,,,,,,,,,,,,,,,,,,,,,,,,,,,,,,,,,,,,
,,,,,,,,,,,,,,,,,,5d3cfeabbaf11000151ed4cd,2020-12-03_00h21.19.364,lexical_decision_task_MP_exp2,2020.2.8,MacIntel,60,z,1,0.83379,,,,,,,,0.83379,1,0,0,0,9,1,1010,NW,"ID",33,fariny,FARINY,z,,,,,,,,,,,,,,,,,,
,,,,,,,,,,,,,,,,,,5d3cfeabbaf11000151ed4cd,2020-12-03_00h21.19.364,lexical_decision_task_MP_exp2,2020.2.8,MacIntel,60,m,1,0.4529,,,,,,,,0.4529,1,0,1,1,6,1,1007,WORD,UN,16,tropic,ZOMBIE,m,,,,,,,,,,,,,,,,,,
,,,,,,,,,,,,,,,,,,5d3cfeabbaf11000151ed4cd,2020-12-03_00h21.19.364,lexical_decision_task_MP_exp2,2020.2.8,MacIntel,60,z,0,0.667975,,,,,,,,0.667975,0,0,2,2,5,1,1006,WORD,UN,33,frenzy,OBTAIN,m,,,,,,,,,,,,,,,,,,
,,,,,,,,,,,,,,,,,,5d3cfeabbaf11000151ed4cd,2020-12-03_00h21.19.364,lexical_decision_task_MP_exp2,2020.2.8,MacIntel,60,m,0,0.583,,,,,,,,0.583,0,0,3,3,11,1,1012,NW,"ID",16,rashet,RASHET,z,,,,,,,,,,,,,,,,,,
,,,,,,,,,,,,,,,,,,5d3cfeabbaf11000151ed4cd,2020-12-03_00h21.19.364,lexical_decision_task_MP_exp2,2020.2.8,MacIntel,60,m,0,0.7224,,,,,,,,0.7224,0,0,4,4,14,1,1015,NW,UN,16,miaber,THRALE,z,,,,,,,,,,,,,,,,,,
,,,,,,,,,,,,,,,,,,5d3cfeabbaf11000151ed4cd,2020-12-03_00h21.19.364,lexical_decision_task_MP_exp2,2020.2.8,MacIntel,60,z,0,0.983215,,,,,,,,0.983215,0,0,5,5,1,1,1002,WORD,"ID",33,adjust,ADJUST,m,,,,,,,,,,,,,,,,,,
,,,,,,,,,,,,,,,,,,5d3cfeabbaf11000151ed4cd,2020-12-03_00h21.19.364,lexical_decision_task_MP_exp2,2020.2.8,MacIntel,60,z,1,1.30811,,,,,,,,1.30811,1,0,6,6,15,1,1016,NW,UN,16,mushed,WHAISE,z,,,,,,,,,,,,,,,,,,
,,,,,,,,,,,,,,,,,,5d3cfeabbaf11000151ed4cd,2020-12-03_00h21.19.364,lexical_decision_task_MP_exp2,2020.2.8,MacIntel,60,m,1,0.89313,,,,,,,,0.89313,1,0,7,7,2,1,1003,WORD,"ID",16,almond,ALMOND,m,,,,,,,,,,,,,,,,,,
,,,,,,,,,,,,,,,,,,5d3cfeabbaf11000151ed4cd,2020-12-03_00h21.19.364,lexical_decision_task_MP_exp2,2020.2.8,MacIntel,60,z,1,1.00485,,,,,,,,1.00485,1,0,8,8,13,1,1014,NW,UN,33,winfer,ROUPET,z,,,,,,,,,,,,,,,,,,
,,,,,,,,,,,,,,,,,,5d3cfeabbaf11000151ed4cd,2020-12-03_00h21.19.364,lexical_decision_task_MP_exp2,2020.2.8,MacIntel,60,z,1,0.76646,,,,,,,,0.76646,1,0,9,9,8,1,1009,NW,"ID",33,aslert,ASLERT,z,,,,,,,,,,,,,,,,,,
,,,,,,,,,,,,,,,,,,5d3cfeabbaf11000151ed4cd,2020-12-03_00h21.19.364,lexical_decision_task_MP_exp2,2020.2.8,MacIntel,60,m,1,0.68122,,,,,,,,0.68122,1,0,10,10,7,1,1008,WORD,UN,16,hurdle,VOLUME,m,,,,,,,,,,,,,,,,,,
,,,,,,,,,,,,,,,,,,5d3cfeabbaf11000151ed4cd,2020-12-03_00h21.19.364,lexical_decision_task_MP_exp2,2020.2.8,MacIntel,60,m,1,0.89927,,,,,,,,0.89927,1,0,11,11,0,1,1001,WORD,"ID",33,utopia,UTOPIA,m,,,,,,,,,,,,,,,,,,
,,,,,,,,,,,,,,,,,,5d3cfeabbaf11000151ed4cd,2020-12-03_00h21.19.364,lexical_decision_task_MP_exp2,2020.2.8,MacIntel,60,m,1,0.62106,,,,,,,,0.62106,1,0,12,12,4,1,1005,WORD,UN,33,abound,SQUEAK,m,,,,,,,,,,,,,,,,,,
,,,,,,,,,,,,,,,,,,5d3cfeabbaf11000151ed4cd,2020-12-03_00h21.19.364,lexical_decision_task_MP_exp2,2020.2.8,MacIntel,60,z,1,0.664305,,,,,,,,0.664305,1,0,13,13,12,1,1013,NW,UN,33,adveil,SPRINY,z,,,,,,,,,,,,,,,,,,
,,,,,,,,,,,,,,,,,,5d3cfeabbaf11000151ed4cd,2020-12-03_00h21.19.364,lexical_decision_task_MP_exp2,2020.2.8,MacIntel,60,m,1,0.655605,,,,,,,,0.655605,1,0,14,14,3,1,1004,WORD,"ID",16,matrix,MATRIX,m,,,,,,,,,,,,,,,,,,
,,,,,,,,,,,,,,,,,,5d3cfeabbaf11000151ed4cd,2020-12-03_00h21.19.364,lexical_decision_task_MP_exp2,2020.2.8,MacIntel,60,z,1,0.71341,,,,,,,,0.71341,1,0,15,15,10,1,1011,NW,"ID",16,inlade,INLADE,z,,,,,,,,,,,,,,,,,,
,space,7.907265,0.020603299,-0.410868056,0,0,0,,,,,,1,end_of_practice,"You have completed the practice trials. During the experimental trials, you will not receive feedback, but it is very important that you respond as quickly and accurately as possible. 
Before you begin, please ensure that you are in a comfortable and quiet location and will not be disturbed for about 15 minutes, as we cannot use your data if you do not complete all the trials. 
There will be opportunities to take breaks at regular intervals during the experiment. When you are ready to start the experimental trials, please press space or touch the button below.",,,5d3cfeabbaf11000151ed4cd,2020-12-03_00h21.19.364,lexical_decision_task_MP_exp2,2020.2.8,MacIntel,60,,,,,,,,,,,,,,,,,,,,,,,,,0,0,0,0,1,,,,,,,,,,,,,
,,,,,,,,,,,,,,,,,,5d3cfeabbaf11000151ed4cd,2020-12-03_00h21.19.364,lexical_decision_task_MP_exp2,2020.2.8,MacIntel,60,z,1,0.783155,,,,,,,,0.783155,1,,,,,,437,NW,"ID",33,snapel,SNAPEL,z,,,,,,0.020603299,-0.410868056,0,0,0,,0,0,0,256,1,,
,,,,,,,,,,,,,,,,,,5d3cfeabbaf11000151ed4cd,2020-12-03_00h21.19.364,lexical_decision_task_MP_exp2,2020.2.8,MacIntel,60,z,1,0.6022,,,,,,,,0.6022,1,,,,,,288,NW,"ID",16,yaceup,YACEUP,z,,,,,,0.020603299,-0.410868056,0,0,0,,0,1,1,347,1,,
,,,,,,,,,,,,,,,,,,5d3cfeabbaf11000151ed4cd,2020-12-03_00h21.19.364,lexical_decision_task_MP_exp2,2020.2.8,MacIntel,60,z,1,0.51757,,,,,,,,0.51757,1,,,,,,351,NW,UN,33,tringe,TIESCH,z,,,,,,0.020603299,-0.410868056,0,0,0,,0,2,2,410,1,,
,,,,,,,,,,,,,,,,,,5d3cfeabbaf11000151ed4cd,2020-12-03_00h21.19.364,lexical_decision_task_MP_exp2,2020.2.8,MacIntel,60,z,1,0.633595,,,,,,,,0.633595,1,,,,,,399,NW,UN,16,wearox,FOURET,z,,,,,,0.020603299,-0.410868056,0,0,0,,0,3,3,458,1,,
,,,,,,,,,,,,,,,,,,5d3cfeabbaf11000151ed4cd,2020-12-03_00h21.19.364,lexical_decision_task_MP_exp2,2020.2.8,MacIntel,60,m,0,0.533655,,,,,,,,0.533655,0,,,,,,303,NW,UN,33,cludie,FIREAM,z,,,,,,0.020603299,-0.410868056,0,0,0,,0,4,4,362,1,,
,,,,,,,,,,,,,,,,,,5d3cfeabbaf11000151ed4cd,2020-12-03_00h21.19.364,lexical_decision_task_MP_exp2,2020.2.8,MacIntel,60,z,1,0.884325,,,,,,,,0.884325,1,,,,,,360,NW,UN,33,fainch,DESORY,z,,,,,,0.020603299,-0.410868056,0,0,0,,0,5,5,419,1,,
,,,,,,,,,,,,,,,,,,5d3cfeabbaf11000151ed4cd,2020-12-03_00h21.19.364,lexical_decision_task_MP_exp2,2020.2.8,MacIntel,60,z,1,0.7496,,,,,,,,0.7496,1,,,,,,293,NW,"ID",16,swance,SWANCE,z,,,,,,0.020603299,-0.410868056,0,0,0,,0,6,6,352,1,,
,,,,,,,,,,,,,,,,,,5d3cfeabbaf11000151ed4cd,2020-12-03_00h21.19.364,lexical_decision_task_MP_exp2,2020.2.8,MacIntel,60,z,1,0.700295,,,,,,,,0.700295,1,,,,,,364,NW,UN,16,guairt,IMPOTE,z,,,,,,0.020603299,-0.410868056,0,0,0,,0,7,7,423,1,,
,,,,,,,,,,,,,,,,,,5d3cfeabbaf11000151ed4cd,2020-12-03_00h21.19.364,lexical_decision_task_MP_exp2,2020.2.8,MacIntel,60,m,1,0.51524,,,,,,,,0.51524,1,,,,,,192,WORD,"ID",33,plague,PLAGUE,m,,,,,,0.020603299,-0.410868056,0,0,0,,0,8,8,11,1,,
,,,,,,,,,,,,,,,,,,5d3cfeabbaf11000151ed4cd,2020-12-03_00h21.19.364,lexical_decision_task_MP_exp2,2020.2.8,MacIntel,60,z,1,0.79845,,,,,,,,0.79845,1,,,,,,357,NW,UN,33,fleack,DERAIN,z,,,,,,0.020603299,-0.410868056,0,0,0,,0,9,9,416,1,,
,,,,,,,,,,,,,,,,,,5d3cfeabbaf11000151ed4cd,2020-12-03_00h21.19.364,lexical_decision_task_MP_exp2,2020.2.8,MacIntel,60,z,1,0.60032,,,,,,,,0.60032,1,,,,,,337,NW,UN,33,wreash,REJOLS,z,,,,,,0.020603299,-0.410868056,0,0,0,,0,10,10,396,1,,
,,,,,,,,,,,,,,,,,,5d3cfeabbaf11000151ed4cd,2020-12-03_00h21.19.364,lexical_decision_task_MP_exp2,2020.2.8,MacIntel,60,z,1,0.634895,,,,,,,,0.634895,1,,,,,,340,NW,UN,33,myrtie,FIATCH,z,,,,,,0.020603299,-0.410868056,0,0,0,,0,11,11,399,1,,
,,,,,,,,,,,,,,,,,,5d3cfeabbaf11000151ed4cd,2020-12-03_00h21.19.364,lexical_decision_task_MP_exp2,2020.2.8,MacIntel,60,z,1,0.5726,,,,,,,,0.5726,1,,,,,,463,NW,"ID",33,kispel,KISPEL,z,,,,,,0.020603299,-0.410868056,0,0,0,,0,12,12,282,1,,
,,,,,,,,,,,,,,,,,,5d3cfeabbaf11000151ed4cd,2020-12-03_00h21.19.364,lexical_decision_task_MP_exp2,2020.2.8,MacIntel,60,m,1,0.503845,,,,,,,,0.503845,1,,,,,,157,WORD,UN,16,island,DRAGON,m,,,,,,0.020603299,-0.410868056,0,0,0,,0,13,13,216,1,,
,,,,,,,,,,,,,,,,,,5d3cfeabbaf11000151ed4cd,2020-12-03_00h21.19.364,lexical_decision_task_MP_exp2,2020.2.8,MacIntel,60,m,1,0.624665,,,,,,,,0.624665,1,,,,,,120,WORD,UN,33,ponder,STRAIN,m,,,,,,0.020603299,-0.410868056,0,0,0,,0,14,14,179,1,,
,,,,,,,,,,,,,,,,,,5d3cfeabbaf11000151ed4cd,2020-12-03_00h21.19.364,lexical_decision_task_MP_exp2,2020.2.8,MacIntel,60,z,1,0.5834,,,,,,,,0.5834,1,,,,,,304,NW,UN,33,forgle,CLUDIE,z,,,,,,0.020603299,-0.410868056,0,0,0,,0,15,15,363,1,,
,,,,,,,,,,,,,,,,,,5d3cfeabbaf11000151ed4cd,2020-12-03_00h21.19.364,lexical_decision_task_MP_exp2,2020.2.8,MacIntel,60,m,1,0.619435,,,,,,,,0.619435,1,,,,,,129,WORD,UN,16,stupid,MARVEL,m,,,,,,0.020603299,-0.410868056,0,0,0,,0,16,16,188,1,,
,,,,,,,,,,,,,,,,,,5d3cfeabbaf11000151ed4cd,2020-12-03_00h21.19.364,lexical_decision_task_MP_exp2,2020.2.8,MacIntel,60,m,1,0.749015,,,,,,,,0.749015,1,,,,,,61,WORD,UN,33,region,PONDER,m,,,,,,0.020603299,-0.410868056,0,0,0,,0,17,17,120,1,,
,,,,,,,,,,,,,,,,,,5d3cfeabbaf11000151ed4cd,2020-12-03_00h21.19.364,lexical_decision_task_MP_exp2,2020.2.8,MacIntel,60,m,1,0.60015,,,,,,,,0.60015,1,,,,,,100,WORD,UN,33,wrench,CARBON,m,,,,,,0.020603299,-0.410868056,0,0,0,,0,18,18,159,1,,
,,,,,,,,,,,,,,,,,,5d3cfeabbaf11000151ed4cd,2020-12-03_00h21.19.364,lexical_decision_task_MP_exp2,2020.2.8,MacIntel,60,z,1,0.716565,,,,,,,,0.716565,1,,,,,,417,NW,UN,16,suidle,EAROUD,z,,,,,,0.020603299,-0.410868056,0,0,0,,0,19,19,476,1,,
,,,,,,,,,,,,,,,,,,5d3cfeabbaf11000151ed4cd,2020-12-03_00h21.19.364,lexical_decision_task_MP_exp2,2020.2.8,MacIntel,60,z,1,0.567765,,,,,,,,0.567765,1,,,,,,245,NW,"ID",16,anougs,ANOUGS,z,,,,,,0.020603299,-0.410868056,0,0,0,,0,20,20,304,1,,
,,,,,,,,,,,,,,,,,,5d3cfeabbaf11000151ed4cd,2020-12-03_00h21.19.364,lexical_decision_task_MP_exp2,2020.2.8,MacIntel,60,z,1,0.567555,,,,,,,,0.567555,1,,,,,,410,NW,UN,16,orchin,TUNORY,z,,,,,,0.020603299,-0.410868056,0,0,0,,0,21,21,469,1,,
,,,,,,,,,,,,,,,,,,5d3cfeabbaf11000151ed4cd,2020-12-03_00h21.19.364,lexical_decision_task_MP_exp2,2020.2.8,MacIntel,60,z,1,0.56925,,,,,,,,0.56925,1,,,,,,315,NW,UN,33,scregm,LASTON,z,,,,,,0.020603299,-0.410868056,0,0,0,,0,22,22,374,1,,
,,,,,,,,,,,,,,,,,,5d3cfeabbaf11000151ed4cd,2020-12-03_00h21.19.364,lexical_decision_task_MP_exp2,2020.2.8,MacIntel,60,m,1,0.709425,,,,,,,,0.709425,1,,,,,,85,WORD,UN,33,rodent,SPRAWL,m,,,,,,0.020603299,-0.410868056,0,0,0,,0,23,23,144,1,,
,,,,,,,,,,,,,,,,,,5d3cfeabbaf11000151ed4cd,2020-12-03_00h21.19.364,lexical_decision_task_MP_exp2,2020.2.8,MacIntel,60,z,1,0.57908,,,,,,,,0.57908,1,,,,,,258,NW,"ID",16,poluth,POLUTH,z,,,,,,0.020603299,-0.410868056,0,0,0,,0,24,24,317,1,,
,,,,,,,,,,,,,,,,,,5d3cfeabbaf11000151ed4cd,2020-12-03_00h21.19.364,lexical_decision_task_MP_exp2,2020.2.8,MacIntel,60,m,1,0.65259,,,,,,,,0.65259,1,,,,,,73,WORD,UN,33,plaque,SOURCE,m,,,,,,0.020603299,-0.410868056,0,0,0,,0,25,25,132,1,,
,,,,,,,,,,,,,,,,,,5d3cfeabbaf11000151ed4cd,2020-12-03_00h21.19.364,lexical_decision_task_MP_exp2,2020.2.8,MacIntel,60,m,1,0.66972,,,,,,,,0.66972,1,,,,,,154,WORD,UN,16,lizard,AUTHOR,m,,,,,,0.020603299,-0.410868056,0,0,0,,0,26,26,213,1,,
,,,,,,,,,,,,,,,,,,5d3cfeabbaf11000151ed4cd,2020-12-03_00h21.19.364,lexical_decision_task_MP_exp2,2020.2.8,MacIntel,60,z,1,0.605975,,,,,,,,0.605975,1,,,,,,244,NW,"ID",16,eatric,EATRIC,z,,,,,,0.020603299,-0.410868056,0,0,0,,0,27,27,303,1,,
,,,,,,,,,,,,,,,,,,5d3cfeabbaf11000151ed4cd,2020-12-03_00h21.19.364,lexical_decision_task_MP_exp2,2020.2.8,MacIntel,60,z,1,0.700815,,,,,,,,0.700815,1,,,,,,344,NW,UN,33,absend,SCRILY,z,,,,,,0.020603299,-0.410868056,0,0,0,,0,28,28,403,1,,
,,,,,,,,,,,,,,,,,,5d3cfeabbaf11000151ed4cd,2020-12-03_00h21.19.364,lexical_decision_task_MP_exp2,2020.2.8,MacIntel,60,z,1,0.480805,,,,,,,,0.480805,1,,,,,,466,NW,"ID",33,hocite,HOCITE,z,,,,,,0.020603299,-0.410868056,0,0,0,,0,29,29,285,1,,
,,,,,,,,,,,,,,,,,,5d3cfeabbaf11000151ed4cd,2020-12-03_00h21.19.364,lexical_decision_task_MP_exp2,2020.2.8,MacIntel,60,z,1,0.43919,,,,,,,,0.43919,1,,,,,,419,NW,UN,16,gushop,SLOUNT,z,,,,,,0.020603299,-0.410868056,0,0,0,,0,30,30,478,1,,
,,,,,,,,,,,,,,,,,,5d3cfeabbaf11000151ed4cd,2020-12-03_00h21.19.364,lexical_decision_task_MP_exp2,2020.2.8,MacIntel,60,z,0,0.486035,,,,,,,,0.486035,0,,,,,,45,WORD,"ID",16,clergy,CLERGY,m,,,,,,0.020603299,-0.410868056,0,0,0,,0,31,31,104,1,,
,,,,,,,,,,,,,,,,,,5d3cfeabbaf11000151ed4cd,2020-12-03_00h21.19.364,lexical_decision_task_MP_exp2,2020.2.8,MacIntel,60,z,1,0.70783,,,,,,,,0.70783,1,,,,,,336,NW,UN,33,rejols,GHODUS,z,,,,,,0.020603299,-0.410868056,0,0,0,,0,32,32,395,1,,
,,,,,,,,,,,,,,,,,,5d3cfeabbaf11000151ed4cd,2020-12-03_00h21.19.364,lexical_decision_task_MP_exp2,2020.2.8,MacIntel,60,m,1,0.484835,,,,,,,,0.484835,1,,,,,,238,WORD,"ID",33,flower,FLOWER,m,,,,,,0.020603299,-0.410868056,0,0,0,,0,33,33,57,1,,
,,,,,,,,,,,,,,,,,,5d3cfeabbaf11000151ed4cd,2020-12-03_00h21.19.364,lexical_decision_task_MP_exp2,2020.2.8,MacIntel,60,m,1,0.70943,,,,,,,,0.70943,1,,,,,,228,WORD,"ID",33,master,MASTER,m,,,,,,0.020603299,-0.410868056,0,0,0,,0,34,34,47,1,,
,,,,,,,,,,,,,,,,,,5d3cfeabbaf11000151ed4cd,2020-12-03_00h21.19.364,lexical_decision_task_MP_exp2,2020.2.8,MacIntel,60,m,1,0.575,,,,,,,,0.575,1,,,,,,25,WORD,"ID",16,domain,DOMAIN,m,,,,,,0.020603299,-0.410868056,0,0,0,,0,35,35,84,1,,
,,,,,,,,,,,,,,,,,,5d3cfeabbaf11000151ed4cd,2020-12-03_00h21.19.364,lexical_decision_task_MP_exp2,2020.2.8,MacIntel,60,z,1,0.60026,,,,,,,,0.60026,1,,,,,,367,NW,UN,16,hornal,SLIQUE,z,,,,,,0.020603299,-0.410868056,0,0,0,,0,36,36,426,1,,
,,,,,,,,,,,,,,,,,,5d3cfeabbaf11000151ed4cd,2020-12-03_00h21.19.364,lexical_decision_task_MP_exp2,2020.2.8,MacIntel,60,z,1,0.58406,,,,,,,,0.58406,1,,,,,,256,NW,"ID",16,inlors,INLORS,z,,,,,,0.020603299,-0.410868056,0,0,0,,0,37,37,315,1,,
,,,,,,,,,,,,,,,,,,5d3cfeabbaf11000151ed4cd,2020-12-03_00h21.19.364,lexical_decision_task_MP_exp2,2020.2.8,MacIntel,60,m,1,0.584595,,,,,,,,0.584595,1,,,,,,167,WORD,UN,16,answer,DESIGN,m,,,,,,0.020603299,-0.410868056,0,0,0,,0,38,38,226,1,,
,,,,,,,,,,,,,,,,,,5d3cfeabbaf11000151ed4cd,2020-12-03_00h21.19.364,lexical_decision_task_MP_exp2,2020.2.8,MacIntel,60,m,1,0.581605,,,,,,,,0.581605,1,,,,,,178,WORD,UN,16,basket,INFORM,m,,,,,,0.020603299,-0.410868056,0,0,0,,0,39,39,237,1,,
,,,,,,,,,,,,,,,,,,5d3cfeabbaf11000151ed4cd,2020-12-03_00h21.19.364,lexical_decision_task_MP_exp2,2020.2.8,MacIntel,60,z,1,0.764655,,,,,,,,0.764655,1,,,,,,269,NW,"ID",16,orchet,ORCHET,z,,,,,,0.020603299,-0.410868056,0,0,0,,0,40,40,328,1,,
,,,,,,,,,,,,,,,,,,5d3cfeabbaf11000151ed4cd,2020-12-03_00h21.19.364,lexical_decision_task_MP_exp2,2020.2.8,MacIntel,60,z,1,0.67254,,,,,,,,0.67254,1,,,,,,477,NW,"ID",33,photie,PHOTIE,z,,,,,,0.020603299,-0.410868056,0,0,0,,0,41,41,296,1,,
,,,,,,,,,,,,,,,,,,5d3cfeabbaf11000151ed4cd,2020-12-03_00h21.19.364,lexical_decision_task_MP_exp2,2020.2.8,MacIntel,60,z,1,0.66421,,,,,,,,0.66421,1,,,,,,398,NW,UN,16,fouret,BLUNDE,z,,,,,,0.020603299,-0.410868056,0,0,0,,0,42,42,457,1,,
,,,,,,,,,,,,,,,,,,5d3cfeabbaf11000151ed4cd,2020-12-03_00h21.19.364,lexical_decision_task_MP_exp2,2020.2.8,MacIntel,60,m,1,0.564875,,,,,,,,0.564875,1,,,,,,42,WORD,"ID",16,chapel,CHAPEL,m,,,,,,0.020603299,-0.410868056,0,0,0,,0,43,43,101,1,,
,,,,,,,,,,,,,,,,,,5d3cfeabbaf11000151ed4cd,2020-12-03_00h21.19.364,lexical_decision_task_MP_exp2,2020.2.8,MacIntel,60,m,1,0.71709,,,,,,,,0.71709,1,,,,,,21,WORD,"ID",16,simple,SIMPLE,m,,,,,,0.020603299,-0.410868056,0,0,0,,0,44,44,80,1,,
,,,,,,,,,,,,,,,,,,5d3cfeabbaf11000151ed4cd,2020-12-03_00h21.19.364,lexical_decision_task_MP_exp2,2020.2.8,MacIntel,60,m,1,0.766245,,,,,,,,0.766245,1,,,,,,166,WORD,UN,16,design,STARCH,m,,,,,,0.020603299,-0.410868056,0,0,0,,0,45,45,225,1,,
,,,,,,,,,,,,,,,,,,5d3cfeabbaf11000151ed4cd,2020-12-03_00h21.19.364,lexical_decision_task_MP_exp2,2020.2.8,MacIntel,60,m,1,0.836535,,,,,,,,0.836535,1,,,,,,124,WORD,UN,16,nickel,BLOUSE,m,,,,,,0.020603299,-0.410868056,0,0,0,,0,46,46,183,1,,
,,,,,,,,,,,,,,,,,,5d3cfeabbaf11000151ed4cd,2020-12-03_00h21.19.364,lexical_decision_task_MP_exp2,2020.2.8,MacIntel,60,m,1,0.719525,,,,,,,,0.719525,1,,,,,,175,WORD,UN,16,strife,FABRIC,m,,,,,,0.020603299,-0.410868056,0,0,0,,0,47,47,234,1,,
,,,,,,,,,,,,,,,,,,5d3cfeabbaf11000151ed4cd,2020-12-03_00h21.19.364,lexical_decision_task_MP_exp2,2020.2.8,MacIntel,60,z,1,0.754995,,,,,,,,0.754995,1,,,,,,394,NW,UN,16,colury,SPAQUX,z,,,,,,0.020603299,-0.410868056,0,0,0,,0,48,48,453,1,,
,,,,,,,,,,,,,,,,,,5d3cfeabbaf11000151ed4cd,2020-12-03_00h21.19.364,lexical_decision_task_MP_exp2,2020.2.8,MacIntel,60,m,1,0.625125,,,,,,,,0.625125,1,,,,,,122,WORD,UN,16,strike,LINGER,m,,,,,,0.020603299,-0.410868056,0,0,0,,0,49,49,181,1,,
,,,,,,,,,,,,,,,,,,5d3cfeabbaf11000151ed4cd,2020-12-03_00h21.19.364,lexical_decision_task_MP_exp2,2020.2.8,MacIntel,60,m,1,0.66599,,,,,,,,0.66599,1,,,,,,201,WORD,"ID",33,admire,ADMIRE,m,,,,,,0.020603299,-0.410868056,0,0,0,,0,50,50,20,1,,
,,,,,,,,,,,,,,,,,,5d3cfeabbaf11000151ed4cd,2020-12-03_00h21.19.364,lexical_decision_task_MP_exp2,2020.2.8,MacIntel,60,m,1,0.559235,,,,,,,,0.559235,1,,,,,,101,WORD,UN,33,direct,WRENCH,m,,,,,,0.020603299,-0.410868056,0,0,0,,0,51,51,160,1,,
,,,,,,,,,,,,,,,,,,5d3cfeabbaf11000151ed4cd,2020-12-03_00h21.19.364,lexical_decision_task_MP_exp2,2020.2.8,MacIntel,60,z,1,0.682495,,,,,,,,0.682495,1,,,,,,371,NW,UN,16,ramily,GEILOY,z,,,,,,0.020603299,-0.410868056,0,0,0,,0,52,52,430,1,,
,,,,,,,,,,,,,,,,,,5d3cfeabbaf11000151ed4cd,2020-12-03_00h21.19.364,lexical_decision_task_MP_exp2,2020.2.8,MacIntel,60,z,1,1.01753,,,,,,,,1.01753,1,,,,,,445,NW,"ID",33,minkel,MINKEL,z,,,,,,0.020603299,-0.410868056,0,0,0,,0,53,53,264,1,,
,,,,,,,,,,,,,,,,,,5d3cfeabbaf11000151ed4cd,2020-12-03_00h21.19.364,lexical_decision_task_MP_exp2,2020.2.8,MacIntel,60,z,1,0.747195,,,,,,,,0.747195,1,,,,,,342,NW,UN,33,aimosy,RANDOW,z,,,,,,0.020603299,-0.410868056,0,0,0,,0,54,54,401,1,,
,,,,,,,,,,,,,,,,,,5d3cfeabbaf11000151ed4cd,2020-12-03_00h21.19.364,lexical_decision_task_MP_exp2,2020.2.8,MacIntel,60,z,1,0.63332,,,,,,,,0.63332,1,,,,,,282,NW,"ID",16,porlex,PORLEX,z,,,,,,0.020603299,-0.410868056,0,0,0,,0,55,55,341,1,,
,,,,,,,,,,,,,,,,,,5d3cfeabbaf11000151ed4cd,2020-12-03_00h21.19.364,lexical_decision_task_MP_exp2,2020.2.8,MacIntel,60,m,1,0.64904,,,,,,,,0.64904,1,,,,,,65,WORD,UN,33,gospel,SYMBOL,m,,,,,,0.020603299,-0.410868056,0,0,0,,0,56,56,124,1,,
,,,,,,,,,,,,,,,,,,5d3cfeabbaf11000151ed4cd,2020-12-03_00h21.19.364,lexical_decision_task_MP_exp2,2020.2.8,MacIntel,60,m,1,0.485515,,,,,,,,0.485515,1,,,,,,179,WORD,UN,16,silent,BASKET,m,,,,,,0.020603299,-0.410868056,0,0,0,,0,57,57,238,1,,
,,,,,,,,,,,,,,,,,,5d3cfeabbaf11000151ed4cd,2020-12-03_00h21.19.364,lexical_decision_task_MP_exp2,2020.2.8,MacIntel,60,z,1,0.665905,,,,,,,,0.665905,1,,,,,,373,NW,UN,16,sliant,BIGENT,z,,,,,,0.020603299,-0.410868056,0,0,0,,0,58,58,432,1,,
,,,,,,,,,,,,,,,,,,5d3cfeabbaf11000151ed4cd,2020-12-03_00h21.19.364,lexical_decision_task_MP_exp2,2020.2.8,MacIntel,60,z,1,0.58525,,,,,,,,0.58525,1,,,,,,312,NW,UN,33,paurse,NERAWL,z,,,,,,0.020603299,-0.410868056,0,0,0,,0,59,59,371,1,,
,,,,,,,,,,,,,,,,,,5d3cfeabbaf11000151ed4cd,2020-12-03_00h21.19.364,lexical_decision_task_MP_exp2,2020.2.8,MacIntel,60,z,1,0.65062,,,,,,,,0.65062,1,,,,,,462,NW,"ID",33,absult,ABSULT,z,,,,,,0.020603299,-0.410868056,0,0,0,,0,60,60,281,1,,
,,,,,,,,,,,,,,,,,,5d3cfeabbaf11000151ed4cd,2020-12-03_00h21.19.364,lexical_decision_task_MP_exp2,2020.2.8,MacIntel,60,z,1,0.62949,,,,,,,,0.62949,1,,,,,,401,NW,UN,16,syntic,MUSTIL,z,,,,,,0.020603299,-0.410868056,0,0,0,,0,61,61,460,1,,
,,,,,,,,,,,,,,,,,,5d3cfeabbaf11000151ed4cd,2020-12-03_00h21.19.364,lexical_decision_task_MP_exp2,2020.2.8,MacIntel,60,z,1,0.518985,,,,,,,,0.518985,1,,,,,,267,NW,"ID",16,pasink,PASINK,z,,,,,,0.020603299,-0.410868056,0,0,0,,0,62,62,326,1,,
,,,,,,,,,,,,,,,,,,5d3cfeabbaf11000151ed4cd,2020-12-03_00h21.19.364,lexical_decision_task_MP_exp2,2020.2.8,MacIntel,60,z,1,0.55703,,,,,,,,0.55703,1,,,,,,395,NW,UN,16,flengy,COLURY,z,,,,,,0.020603299,-0.410868056,0,0,0,,0,63,63,454,1,,
,,,,,,,,,,,,,,,,,,5d3cfeabbaf11000151ed4cd,2020-12-03_00h21.19.364,lexical_decision_task_MP_exp2,2020.2.8,MacIntel,60,m,1,0.537365,,,,,,,,0.537365,1,,,,,,26,WORD,"ID",16,sprint,SPRINT,m,,,,,,0.020603299,-0.410868056,0,0,0,,0,64,64,85,1,,
,,,,,,,,,,,,,,,,,,5d3cfeabbaf11000151ed4cd,2020-12-03_00h21.19.364,lexical_decision_task_MP_exp2,2020.2.8,MacIntel,60,z,1,0.533925,,,,,,,,0.533925,1,,,,,,290,NW,"ID",16,splino,SPLINO,z,,,,,,0.020603299,-0.410868056,0,0,0,,0,65,65,349,1,,
,,,,,,,,,,,,,,,,,,5d3cfeabbaf11000151ed4cd,2020-12-03_00h21.19.364,lexical_decision_task_MP_exp2,2020.2.8,MacIntel,60,m,1,0.49133,,,,,,,,0.49133,1,,,,,,205,WORD,"ID",33,lounge,LOUNGE,m,,,,,,0.020603299,-0.410868056,0,0,0,,0,66,66,24,1,,
,,,,,,,,,,,,,,,,,,5d3cfeabbaf11000151ed4cd,2020-12-03_00h21.19.364,lexical_decision_task_MP_exp2,2020.2.8,MacIntel,60,z,0,0.55318,,,,,,,,0.55318,0,,,,,,128,WORD,UN,16,marvel,SENIOR,m,,,,,,0.020603299,-0.410868056,0,0,0,,0,67,67,187,1,,
,,,,,,,,,,,,,,,,,,5d3cfeabbaf11000151ed4cd,2020-12-03_00h21.19.364,lexical_decision_task_MP_exp2,2020.2.8,MacIntel,60,m,1,0.650235,,,,,,,,0.650235,1,,,,,,190,WORD,"ID",33,backup,BACKUP,m,,,,,,0.020603299,-0.410868056,0,0,0,,0,68,68,9,1,,
,,,,,,,,,,,,,,,,,,5d3cfeabbaf11000151ed4cd,2020-12-03_00h21.19.364,lexical_decision_task_MP_exp2,2020.2.8,MacIntel,60,m,1,0.752965,,,,,,,,0.752965,1,,,,,,209,WORD,"ID",33,search,SEARCH,m,,,,,,0.020603299,-0.410868056,0,0,0,,0,69,69,28,1,,
,,,,,,,,,,,,,,,,,,5d3cfeabbaf11000151ed4cd,2020-12-03_00h21.19.364,lexical_decision_task_MP_exp2,2020.2.8,MacIntel,60,z,1,0.707465,,,,,,,,0.707465,1,,,,,,250,NW,"ID",16,milted,MILTED,z,,,,,,0.020603299,-0.410868056,0,0,0,,0,70,70,309,1,,
,,,,,,,,,,,,,,,,,,5d3cfeabbaf11000151ed4cd,2020-12-03_00h21.19.364,lexical_decision_task_MP_exp2,2020.2.8,MacIntel,60,z,1,0.587585,,,,,,,,0.587585,1,,,,,,460,NW,"ID",33,mingar,MINGAR,z,,,,,,0.020603299,-0.410868056,0,0,0,,0,71,71,279,1,,
,,,,,,,,,,,,,,,,,,5d3cfeabbaf11000151ed4cd,2020-12-03_00h21.19.364,lexical_decision_task_MP_exp2,2020.2.8,MacIntel,60,z,1,0.588815,,,,,,,,0.588815,1,,,,,,323,NW,UN,33,steikh,ROSAIL,z,,,,,,0.020603299,-0.410868056,0,0,0,,0,72,72,382,1,,
,,,,,,,,,,,,,,,,,,5d3cfeabbaf11000151ed4cd,2020-12-03_00h21.19.364,lexical_decision_task_MP_exp2,2020.2.8,MacIntel,60,m,1,0.5504,,,,,,,,0.5504,1,,,,,,194,WORD,"ID",33,absent,ABSENT,m,,,,,,0.020603299,-0.410868056,0,0,0,,0,73,73,13,1,,
,,,,,,,,,,,,,,,,,,5d3cfeabbaf11000151ed4cd,2020-12-03_00h21.19.364,lexical_decision_task_MP_exp2,2020.2.8,MacIntel,60,m,1,0.491225,,,,,,,,0.491225,1,,,,,,174,WORD,UN,16,fabric,TURKEY,m,,,,,,0.020603299,-0.410868056,0,0,0,,0,74,74,233,1,,
,,,,,,,,,,,,,,,,,,5d3cfeabbaf11000151ed4cd,2020-12-03_00h21.19.364,lexical_decision_task_MP_exp2,2020.2.8,MacIntel,60,m,1,0.59981,,,,,,,,0.59981,1,,,,,,8,WORD,"ID",16,abrupt,ABRUPT,m,,,,,,0.020603299,-0.410868056,0,0,0,,0,75,75,67,1,,
,,,,,,,,,,,,,,,,,,5d3cfeabbaf11000151ed4cd,2020-12-03_00h21.19.364,lexical_decision_task_MP_exp2,2020.2.8,MacIntel,60,z,1,0.667445,,,,,,,,0.667445,1,,,,,,329,NW,UN,33,kensom,YARIKE,z,,,,,,0.020603299,-0.410868056,0,0,0,,0,76,76,388,1,,
,,,,,,,,,,,,,,,,,,5d3cfeabbaf11000151ed4cd,2020-12-03_00h21.19.364,lexical_decision_task_MP_exp2,2020.2.8,MacIntel,60,z,1,0.63263,,,,,,,,0.63263,1,,,,,,370,NW,UN,16,geiloy,SLEACT,z,,,,,,0.020603299,-0.410868056,0,0,0,,0,77,77,429,1,,
,,,,,,,,,,,,,,,,,,5d3cfeabbaf11000151ed4cd,2020-12-03_00h21.19.364,lexical_decision_task_MP_exp2,2020.2.8,MacIntel,60,z,1,0.49902,,,,,,,,0.49902,1,,,,,,326,NW,UN,33,plenac,IGUADE,z,,,,,,0.020603299,-0.410868056,0,0,0,,0,78,78,385,1,,
,,,,,,,,,,,,,,,,,,5d3cfeabbaf11000151ed4cd,2020-12-03_00h21.19.364,lexical_decision_task_MP_exp2,2020.2.8,MacIntel,60,z,1,0.51613,,,,,,,,0.51613,1,,,,,,353,NW,UN,33,virlex,CLUREY,z,,,,,,0.020603299,-0.410868056,0,0,0,,0,79,79,412,1,,
,,,,,,,,,,,,,,,,,,5d3cfeabbaf11000151ed4cd,2020-12-03_00h21.19.364,lexical_decision_task_MP_exp2,2020.2.8,MacIntel,60,m,1,0.586015,,,,,,,,0.586015,1,,,,,,207,WORD,"ID",33,wreath,WREATH,m,,,,,,0.020603299,-0.410868056,0,0,0,,0,80,80,26,1,,
,,,,,,,,,,,,,,,,,,5d3cfeabbaf11000151ed4cd,2020-12-03_00h21.19.364,lexical_decision_task_MP_exp2,2020.2.8,MacIntel,60,m,1,0.517335,,,,,,,,0.517335,1,,,,,,81,WORD,UN,33,stigma,FRIEND,m,,,,,,0.020603299,-0.410868056,0,0,0,,0,81,81,140,1,,
,,,,,,,,,,,,,,,,,,5d3cfeabbaf11000151ed4cd,2020-12-03_00h21.19.364,lexical_decision_task_MP_exp2,2020.2.8,MacIntel,60,m,1,0.520995,,,,,,,,0.520995,1,,,,,,108,WORD,UN,33,wonder,RECKON,m,,,,,,0.020603299,-0.410868056,0,0,0,,0,82,82,167,1,,
,,,,,,,,,,,,,,,,,,5d3cfeabbaf11000151ed4cd,2020-12-03_00h21.19.364,lexical_decision_task_MP_exp2,2020.2.8,MacIntel,60,m,1,0.538455,,,,,,,,0.538455,1,,,,,,9,WORD,"ID",16,hustle,HUSTLE,m,,,,,,0.020603299,-0.410868056,0,0,0,,0,83,83,68,1,,
,,,,,,,,,,,,,,,,,,5d3cfeabbaf11000151ed4cd,2020-12-03_00h21.19.364,lexical_decision_task_MP_exp2,2020.2.8,MacIntel,60,m,1,0.530665,,,,,,,,0.530665,1,,,,,,223,WORD,"ID",33,kidney,KIDNEY,m,,,,,,0.020603299,-0.410868056,0,0,0,,0,84,84,42,1,,
,,,,,,,,,,,,,,,,,,5d3cfeabbaf11000151ed4cd,2020-12-03_00h21.19.364,lexical_decision_task_MP_exp2,2020.2.8,MacIntel,60,z,1,0.58405,,,,,,,,0.58405,1,,,,,,291,NW,"ID",16,pretch,PRETCH,z,,,,,,0.020603299,-0.410868056,0,0,0,,0,85,85,350,1,,
,,,,,,,,,,,,,,,,,,5d3cfeabbaf11000151ed4cd,2020-12-03_00h21.19.364,lexical_decision_task_MP_exp2,2020.2.8,MacIntel,60,z,1,0.50809,,,,,,,,0.50809,1,,,,,,299,NW,"ID",16,sturch,STURCH,z,,,,,,0.020603299,-0.410868056,0,0,0,,0,86,86,358,1,,
,,,,,,,,,,,,,,,,,,5d3cfeabbaf11000151ed4cd,2020-12-03_00h21.19.364,lexical_decision_task_MP_exp2,2020.2.8,MacIntel,60,z,1,0.521285,,,,,,,,0.521285,1,,,,,,308,NW,UN,33,amiloy,PSETCH,z,,,,,,0.020603299,-0.410868056,0,0,0,,0,87,87,367,1,,
,,,,,,,,,,,,,,,,,,5d3cfeabbaf11000151ed4cd,2020-12-03_00h21.19.364,lexical_decision_task_MP_exp2,2020.2.8,MacIntel,60,m,1,0.67549,,,,,,,,0.67549,1,,,,,,84,WORD,UN,33,strand,MORTAL,m,,,,,,0.020603299,-0.410868056,0,0,0,,0,88,88,143,1,,
,,,,,,,,,,,,,,,,,,5d3cfeabbaf11000151ed4cd,2020-12-03_00h21.19.364,lexical_decision_task_MP_exp2,2020.2.8,MacIntel,60,z,1,0.58277,,,,,,,,0.58277,1,,,,,,391,NW,UN,16,rouncy,THELDY,z,,,,,,0.020603299,-0.410868056,0,0,0,,0,89,89,450,1,,
,,,,,,,,,,,,,,,,,,5d3cfeabbaf11000151ed4cd,2020-12-03_00h21.19.364,lexical_decision_task_MP_exp2,2020.2.8,MacIntel,60,m,1,0.63548,,,,,,,,0.63548,1,,,,,,79,WORD,UN,33,family,THEORY,m,,,,,,0.020603299,-0.410868056,0,0,0,,0,90,90,138,1,,
,,,,,,,,,,,,,,,,,,5d3cfeabbaf11000151ed4cd,2020-12-03_00h21.19.364,lexical_decision_task_MP_exp2,2020.2.8,MacIntel,60,m,1,0.66903,,,,,,,,0.66903,1,,,,,,168,WORD,UN,16,genius,ANSWER,m,,,,,,0.020603299,-0.410868056,0,0,0,,0,91,91,227,1,,
,,,,,,,,,,,,,,,,,,5d3cfeabbaf11000151ed4cd,2020-12-03_00h21.19.364,lexical_decision_task_MP_exp2,2020.2.8,MacIntel,60,z,1,0.692035,,,,,,,,0.692035,1,,,,,,396,NW,UN,16,camble,FLENGY,z,,,,,,0.020603299,-0.410868056,0,0,0,,0,92,92,455,1,,
,,,,,,,,,,,,,,,,,,5d3cfeabbaf11000151ed4cd,2020-12-03_00h21.19.364,lexical_decision_task_MP_exp2,2020.2.8,MacIntel,60,z,1,0.524485,,,,,,,,0.524485,1,,,,,,249,NW,"ID",16,batrol,BATROL,z,,,,,,0.020603299,-0.410868056,0,0,0,,0,93,93,308,1,,
,,,,,,,,,,,,,,,,,,5d3cfeabbaf11000151ed4cd,2020-12-03_00h21.19.364,lexical_decision_task_MP_exp2,2020.2.8,MacIntel,60,m,1,0.556585,,,,,,,,0.556585,1,,,,,,239,WORD,"ID",33,lumber,LUMBER,m,,,,,,0.020603299,-0.410868056,0,0,0,,0,94,94,58,1,,
,,,,,,,,,,,,,,,,,,5d3cfeabbaf11000151ed4cd,2020-12-03_00h21.19.364,lexical_decision_task_MP_exp2,2020.2.8,MacIntel,60,m,1,0.49154,,,,,,,,0.49154,1,,,,,,109,WORD,UN,33,polite,WONDER,m,,,,,,0.020603299,-0.410868056,0,0,0,,0,95,95,168,1,,
,,,,,,,,,,,,,,,,,,5d3cfeabbaf11000151ed4cd,2020-12-03_00h21.19.364,lexical_decision_task_MP_exp2,2020.2.8,MacIntel,60,m,1,0.983795,,,,,,,,0.983795,1,,,,,,52,WORD,"ID",16,impose,IMPOSE,m,,,,,,0.020603299,-0.410868056,0,0,0,,0,96,96,111,1,,
,,,,,,,,,,,,,,,,,,5d3cfeabbaf11000151ed4cd,2020-12-03_00h21.19.364,lexical_decision_task_MP_exp2,2020.2.8,MacIntel,60,z,1,0.65219,,,,,,,,0.65219,1,,,,,,279,NW,"ID",16,celond,CELOND,z,,,,,,0.020603299,-0.410868056,0,0,0,,0,97,97,338,1,,
,,,,,,,,,,,,,,,,,,5d3cfeabbaf11000151ed4cd,2020-12-03_00h21.19.364,lexical_decision_task_MP_exp2,2020.2.8,MacIntel,60,m,1,0.803395,,,,,,,,0.803395,1,,,,,,37,WORD,"ID",16,insult,INSULT,m,,,,,,0.020603299,-0.410868056,0,0,0,,0,98,98,96,1,,
,,,,,,,,,,,,,,,,,,5d3cfeabbaf11000151ed4cd,2020-12-03_00h21.19.364,lexical_decision_task_MP_exp2,2020.2.8,MacIntel,60,z,1,0.631055,,,,,,,,0.631055,1,,,,,,379,NW,UN,16,cavory,AUTING,z,,,,,,0.020603299,-0.410868056,0,0,0,,0,99,99,438,1,,
,,,,,,,,,,,,,,,,,,5d3cfeabbaf11000151ed4cd,2020-12-03_00h21.19.364,lexical_decision_task_MP_exp2,2020.2.8,MacIntel,60,z,1,0.632885,,,,,,,,0.632885,1,,,,,,461,NW,"ID",33,justre,JUSTRE,z,,,,,,0.020603299,-0.410868056,0,0,0,,0,100,100,280,1,,
,,,,,,,,,,,,,,,,,,5d3cfeabbaf11000151ed4cd,2020-12-03_00h21.19.364,lexical_decision_task_MP_exp2,2020.2.8,MacIntel,60,z,1,0.537025,,,,,,,,0.537025,1,,,,,,283,NW,"ID",16,veralf,VERALF,z,,,,,,0.020603299,-0.410868056,0,0,0,,0,101,101,342,1,,
,,,,,,,,,,,,,,,,,,5d3cfeabbaf11000151ed4cd,2020-12-03_00h21.19.364,lexical_decision_task_MP_exp2,2020.2.8,MacIntel,60,m,1,0.53939,,,,,,,,0.53939,1,,,,,,181,WORD,"ID",33,glance,GLANCE,m,,,,,,0.020603299,-0.410868056,0,0,0,,0,102,102,0,1,,
,,,,,,,,,,,,,,,,,,5d3cfeabbaf11000151ed4cd,2020-12-03_00h21.19.364,lexical_decision_task_MP_exp2,2020.2.8,MacIntel,60,z,1,0.803025,,,,,,,,0.803025,1,,,,,,352,NW,UN,33,clurey,TRINGE,z,,,,,,0.020603299,-0.410868056,0,0,0,,0,103,103,411,1,,
,,,,,,,,,,,,,,,,,,5d3cfeabbaf11000151ed4cd,2020-12-03_00h21.19.364,lexical_decision_task_MP_exp2,2020.2.8,MacIntel,60,z,1,0.608455,,,,,,,,0.608455,1,,,,,,473,NW,"ID",33,crible,CRIBLE,z,,,,,,0.020603299,-0.410868056,0,0,0,,0,104,104,292,1,,
,,,,,,,,,,,,,,,,,,5d3cfeabbaf11000151ed4cd,2020-12-03_00h21.19.364,lexical_decision_task_MP_exp2,2020.2.8,MacIntel,60,m,1,0.786155,,,,,,,,0.786155,1,,,,,,4,WORD,"ID",16,trench,TRENCH,m,,,,,,0.020603299,-0.410868056,0,0,0,,0,105,105,63,1,,
,,,,,,,,,,,,,,,,,,5d3cfeabbaf11000151ed4cd,2020-12-03_00h21.19.364,lexical_decision_task_MP_exp2,2020.2.8,MacIntel,60,z,1,0.86713,,,,,,,,0.86713,1,,,,,,268,NW,"ID",16,packes,PACKES,z,,,,,,0.020603299,-0.410868056,0,0,0,,0,106,106,327,1,,
,,,,,,,,,,,,,,,,,,5d3cfeabbaf11000151ed4cd,2020-12-03_00h21.19.364,lexical_decision_task_MP_exp2,2020.2.8,MacIntel,60,m,0,0.684,,,,,,,,0.684,0,,,,,,289,NW,"ID",16,starby,STARBY,z,,,,,,0.020603299,-0.410868056,0,0,0,,0,107,107,348,1,,
,,,,,,,,,,,,,,,,,,5d3cfeabbaf11000151ed4cd,2020-12-03_00h21.19.364,lexical_decision_task_MP_exp2,2020.2.8,MacIntel,60,z,1,0.76666,,,,,,,,0.76666,1,,,,,,415,NW,UN,16,pathel,HIGSTA,z,,,,,,0.020603299,-0.410868056,0,0,0,,0,108,108,474,1,,
,,,,,,,,,,,,,,,,,,5d3cfeabbaf11000151ed4cd,2020-12-03_00h21.19.364,lexical_decision_task_MP_exp2,2020.2.8,MacIntel,60,m,1,0.614125,,,,,,,,0.614125,1,,,,,,156,WORD,UN,16,depart,CRADLE,m,,,,,,0.020603299,-0.410868056,0,0,0,,0,109,109,215,1,,
,,,,,,,,,,,,,,,,,,5d3cfeabbaf11000151ed4cd,2020-12-03_00h21.19.364,lexical_decision_task_MP_exp2,2020.2.8,MacIntel,60,m,1,0.78537,,,,,,,,0.78537,1,,,,,,221,WORD,"ID",33,mascot,MASCOT,m,,,,,,0.020603299,-0.410868056,0,0,0,,0,110,110,40,1,,
,,,,,,,,,,,,,,,,,,5d3cfeabbaf11000151ed4cd,2020-12-03_00h21.19.364,lexical_decision_task_MP_exp2,2020.2.8,MacIntel,60,m,1,0.49964,,,,,,,,0.49964,1,,,,,,31,WORD,"ID",16,weapon,WEAPON,m,,,,,,0.020603299,-0.410868056,0,0,0,,0,111,111,90,1,,
,,,,,,,,,,,,,,,,,,5d3cfeabbaf11000151ed4cd,2020-12-03_00h21.19.364,lexical_decision_task_MP_exp2,2020.2.8,MacIntel,60,z,1,0.63231,,,,,,,,0.63231,1,,,,,,406,NW,UN,16,suiver,NOUPLY,z,,,,,,0.020603299,-0.410868056,0,0,0,,0,112,112,465,1,,
,,,,,,,,,,,,,,,,,,5d3cfeabbaf11000151ed4cd,2020-12-03_00h21.19.364,lexical_decision_task_MP_exp2,2020.2.8,MacIntel,60,m,1,0.65506,,,,,,,,0.65506,1,,,,,,58,WORD,"ID",16,foster,FOSTER,m,,,,,,0.020603299,-0.410868056,0,0,0,,0,113,113,117,1,,
,,,,,,,,,,,,,,,,,,5d3cfeabbaf11000151ed4cd,2020-12-03_00h21.19.364,lexical_decision_task_MP_exp2,2020.2.8,MacIntel,60,z,1,0.609475,,,,,,,,0.609475,1,,,,,,431,NW,"ID",33,chrums,CHRUMS,z,,,,,,0.020603299,-0.410868056,0,0,0,,0,114,114,250,1,,
,,,,,,,,,,,,,,,,,,5d3cfeabbaf11000151ed4cd,2020-12-03_00h21.19.364,lexical_decision_task_MP_exp2,2020.2.8,MacIntel,60,z,1,0.840795,,,,,,,,0.840795,1,,,,,,469,NW,"ID",33,padifs,PADIFS,z,,,,,,0.020603299,-0.410868056,0,0,0,,0,115,115,288,1,,
,,,,,,,,,,,,,,,,,,5d3cfeabbaf11000151ed4cd,2020-12-03_00h21.19.364,lexical_decision_task_MP_exp2,2020.2.8,MacIntel,60,m,1,0.597205,,,,,,,,0.597205,1,,,,,,29,WORD,"ID",16,sketch,SKETCH,m,,,,,,0.020603299,-0.410868056,0,0,0,,0,116,116,88,1,,
,,,,,,,,,,,,,,,,,,5d3cfeabbaf11000151ed4cd,2020-12-03_00h21.19.364,lexical_decision_task_MP_exp2,2020.2.8,MacIntel,60,m,1,0.6825,,,,,,,,0.6825,1,,,,,,106,WORD,UN,33,slogan,RANSOM,m,,,,,,0.020603299,-0.410868056,0,0,0,,0,117,117,165,1,,
,,,,,,,,,,,,,,,,,,5d3cfeabbaf11000151ed4cd,2020-12-03_00h21.19.364,lexical_decision_task_MP_exp2,2020.2.8,MacIntel,60,m,1,0.58294,,,,,,,,0.58294,1,,,,,,50,WORD,"ID",16,snatch,SNATCH,m,,,,,,0.020603299,-0.410868056,0,0,0,,0,118,118,109,1,,
,,,,,,,,,,,,,,,,,,5d3cfeabbaf11000151ed4cd,2020-12-03_00h21.19.364,lexical_decision_task_MP_exp2,2020.2.8,MacIntel,60,m,1,0.55485,,,,,,,,0.55485,1,,,,,,161,WORD,UN,16,candle,PASTOR,m,,,,,,0.020603299,-0.410868056,0,0,0,,0,119,119,220,1,,
,,,,,,,,,,,,,,,,,,5d3cfeabbaf11000151ed4cd,2020-12-03_00h21.19.364,lexical_decision_task_MP_exp2,2020.2.8,MacIntel,60,m,1,0.654995,,,,,,,,0.654995,1,,,,,,177,WORD,UN,16,inform,ADVENT,m,,,,,,-0.005763889,-0.407322049,1,0,0,,0,120,120,236,1,break_done_button,
,,,,,,,,,,,,,,,,,,5d3cfeabbaf11000151ed4cd,2020-12-03_00h21.19.364,lexical_decision_task_MP_exp2,2020.2.8,MacIntel,60,m,1,0.7357,,,,,,,,0.7357,1,,,,,,202,WORD,"ID",33,factor,FACTOR,m,,,,,,-0.005763889,-0.407322049,0,0,0,,0,121,121,21,1,,
,,,,,,,,,,,,,,,,,,5d3cfeabbaf11000151ed4cd,2020-12-03_00h21.19.364,lexical_decision_task_MP_exp2,2020.2.8,MacIntel,60,z,1,0.601085,,,,,,,,0.601085,1,,,,,,264,NW,"ID",16,vackel,VACKEL,z,,,,,,-0.005763889,-0.407322049,0,0,0,,0,122,122,323,1,,
,,,,,,,,,,,,,,,,,,5d3cfeabbaf11000151ed4cd,2020-12-03_00h21.19.364,lexical_decision_task_MP_exp2,2020.2.8,MacIntel,60,m,1,0.53484,,,,,,,,0.53484,1,,,,,,158,WORD,UN,16,detail,ISLAND,m,,,,,,-0.005763889,-0.407322049,0,0,0,,0,123,123,217,1,,
,,,,,,,,,,,,,,,,,,5d3cfeabbaf11000151ed4cd,2020-12-03_00h21.19.364,lexical_decision_task_MP_exp2,2020.2.8,MacIntel,60,z,1,0.551785,,,,,,,,0.551785,1,,,,,,441,NW,"ID",33,rastoe,RASTOE,z,,,,,,-0.005763889,-0.407322049,0,0,0,,0,124,124,260,1,,
,,,,,,,,,,,,,,,,,,5d3cfeabbaf11000151ed4cd,2020-12-03_00h21.19.364,lexical_decision_task_MP_exp2,2020.2.8,MacIntel,60,m,1,0.6002,,,,,,,,0.6002,1,,,,,,36,WORD,"ID",16,vanish,VANISH,m,,,,,,-0.005763889,-0.407322049,0,0,0,,0,125,125,95,1,,
,,,,,,,,,,,,,,,,,,5d3cfeabbaf11000151ed4cd,2020-12-03_00h21.19.364,lexical_decision_task_MP_exp2,2020.2.8,MacIntel,60,z,1,0.650515,,,,,,,,0.650515,1,,,,,,339,NW,UN,33,fiatch,FACHOW,z,,,,,,-0.005763889,-0.407322049,0,0,0,,0,126,126,398,1,,
,,,,,,,,,,,,,,,,,,5d3cfeabbaf11000151ed4cd,2020-12-03_00h21.19.364,lexical_decision_task_MP_exp2,2020.2.8,MacIntel,60,m,1,0.454325,,,,,,,,0.454325,1,,,,,,32,WORD,"ID",16,buckle,BUCKLE,m,,,,,,-0.005763889,-0.407322049,0,0,0,,0,127,127,91,1,,
,,,,,,,,,,,,,,,,,,5d3cfeabbaf11000151ed4cd,2020-12-03_00h21.19.364,lexical_decision_task_MP_exp2,2020.2.8,MacIntel,60,z,0,0.50361,,,,,,,,0.50361,0,,,,,,23,WORD,"ID",16,wealth,WEALTH,m,,,,,,-0.005763889,-0.407322049,0,0,0,,0,128,128,82,1,,
,,,,,,,,,,,,,,,,,,5d3cfeabbaf11000151ed4cd,2020-12-03_00h21.19.364,lexical_decision_task_MP_exp2,2020.2.8,MacIntel,60,z,1,0.78332,,,,,,,,0.78332,1,,,,,,281,NW,"ID",16,melaty,MELATY,z,,,,,,-0.005763889,-0.407322049,0,0,0,,0,129,129,340,1,,
,,,,,,,,,,,,,,,,,,5d3cfeabbaf11000151ed4cd,2020-12-03_00h21.19.364,lexical_decision_task_MP_exp2,2020.2.8,MacIntel,60,z,1,0.66598,,,,,,,,0.66598,1,,,,,,350,NW,UN,33,tiesch,NAGURS,z,,,,,,-0.005763889,-0.407322049,0,0,0,,0,130,130,409,1,,
,,,,,,,,,,,,,,,,,,5d3cfeabbaf11000151ed4cd,2020-12-03_00h21.19.364,lexical_decision_task_MP_exp2,2020.2.8,MacIntel,60,m,1,0.73818,,,,,,,,0.73818,1,,,,,,222,WORD,"ID",33,hinder,HINDER,m,,,,,,-0.005763889,-0.407322049,0,0,0,,0,131,131,41,1,,
,,,,,,,,,,,,,,,,,,5d3cfeabbaf11000151ed4cd,2020-12-03_00h21.19.364,lexical_decision_task_MP_exp2,2020.2.8,MacIntel,60,z,1,0.73394,,,,,,,,0.73394,1,,,,,,285,NW,"ID",16,prudge,PRUDGE,z,,,,,,-0.005763889,-0.407322049,0,0,0,,0,132,132,344,1,,
,,,,,,,,,,,,,,,,,,5d3cfeabbaf11000151ed4cd,2020-12-03_00h21.19.364,lexical_decision_task_MP_exp2,2020.2.8,MacIntel,60,z,1,0.723205,,,,,,,,0.723205,1,,,,,,314,NW,UN,33,laston,SPRINE,z,,,,,,-0.005763889,-0.407322049,0,0,0,,0,133,133,373,1,,
,,,,,,,,,,,,,,,,,,5d3cfeabbaf11000151ed4cd,2020-12-03_00h21.19.364,lexical_decision_task_MP_exp2,2020.2.8,MacIntel,60,m,1,0.633165,,,,,,,,0.633165,1,,,,,,216,WORD,"ID",33,behalf,BEHALF,m,,,,,,-0.005763889,-0.407322049,0,0,0,,0,134,134,35,1,,
,,,,,,,,,,,,,,,,,,5d3cfeabbaf11000151ed4cd,2020-12-03_00h21.19.364,lexical_decision_task_MP_exp2,2020.2.8,MacIntel,60,z,1,0.73308,,,,,,,,0.73308,1,,,,,,418,NW,UN,16,slount,SUIDLE,z,,,,,,-0.005763889,-0.407322049,0,0,0,,0,135,135,477,1,,
,,,,,,,,,,,,,,,,,,5d3cfeabbaf11000151ed4cd,2020-12-03_00h21.19.364,lexical_decision_task_MP_exp2,2020.2.8,MacIntel,60,m,1,0.58288,,,,,,,,0.58288,1,,,,,,94,WORD,UN,33,thread,TRAVEL,m,,,,,,-0.005763889,-0.407322049,0,0,0,,0,136,136,153,1,,
,,,,,,,,,,,,,,,,,,5d3cfeabbaf11000151ed4cd,2020-12-03_00h21.19.364,lexical_decision_task_MP_exp2,2020.2.8,MacIntel,60,z,1,0.63461,,,,,,,,0.63461,1,,,,,,354,NW,UN,33,zingly,VIRLEX,z,,,,,,-0.005763889,-0.407322049,0,0,0,,0,137,137,413,1,,
,,,,,,,,,,,,,,,,,,5d3cfeabbaf11000151ed4cd,2020-12-03_00h21.19.364,lexical_decision_task_MP_exp2,2020.2.8,MacIntel,60,m,1,0.632275,,,,,,,,0.632275,1,,,,,,200,WORD,"ID",33,beacon,BEACON,m,,,,,,-0.005763889,-0.407322049,0,0,0,,0,138,138,19,1,,
,,,,,,,,,,,,,,,,,,5d3cfeabbaf11000151ed4cd,2020-12-03_00h21.19.364,lexical_decision_task_MP_exp2,2020.2.8,MacIntel,60,m,1,0.71644,,,,,,,,0.71644,1,,,,,,170,WORD,UN,16,dragon,POUNCE,m,,,,,,-0.005763889,-0.407322049,0,0,0,,0,139,139,229,1,,
,,,,,,,,,,,,,,,,,,5d3cfeabbaf11000151ed4cd,2020-12-03_00h21.19.364,lexical_decision_task_MP_exp2,2020.2.8,MacIntel,60,z,1,0.605415,,,,,,,,0.605415,1,,,,,,457,NW,"ID",33,wanigh,WANIGH,z,,,,,,-0.005763889,-0.407322049,0,0,0,,0,140,140,276,1,,
,,,,,,,,,,,,,,,,,,5d3cfeabbaf11000151ed4cd,2020-12-03_00h21.19.364,lexical_decision_task_MP_exp2,2020.2.8,MacIntel,60,z,0,0.83367,,,,,,,,0.83367,0,,,,,,139,WORD,UN,16,prince,DEBRIS,m,,,,,,-0.005763889,-0.407322049,0,0,0,,0,141,141,198,1,,
,,,,,,,,,,,,,,,,,,5d3cfeabbaf11000151ed4cd,2020-12-03_00h21.19.364,lexical_decision_task_MP_exp2,2020.2.8,MacIntel,60,z,1,0.738525,,,,,,,,0.738525,1,,,,,,369,NW,UN,16,sleact,WRONCH,z,,,,,,-0.005763889,-0.407322049,0,0,0,,0,142,142,428,1,,
,,,,,,,,,,,,,,,,,,5d3cfeabbaf11000151ed4cd,2020-12-03_00h21.19.364,lexical_decision_task_MP_exp2,2020.2.8,MacIntel,60,m,1,0.765425,,,,,,,,0.765425,1,,,,,,47,WORD,"ID",16,income,INCOME,m,,,,,,-0.005763889,-0.407322049,0,0,0,,0,143,143,106,1,,
,,,,,,,,,,,,,,,,,,5d3cfeabbaf11000151ed4cd,2020-12-03_00h21.19.364,lexical_decision_task_MP_exp2,2020.2.8,MacIntel,60,z,1,0.68597,,,,,,,,0.68597,1,,,,,,263,NW,"ID",16,dolica,DOLICA,z,,,,,,-0.005763889,-0.407322049,0,0,0,,0,144,144,322,1,,
,,,,,,,,,,,,,,,,,,5d3cfeabbaf11000151ed4cd,2020-12-03_00h21.19.364,lexical_decision_task_MP_exp2,2020.2.8,MacIntel,60,z,1,0.66632,,,,,,,,0.66632,1,,,,,,453,NW,"ID",33,bolvis,BOLVIS,z,,,,,,-0.005763889,-0.407322049,0,0,0,,0,145,145,272,1,,
,,,,,,,,,,,,,,,,,,5d3cfeabbaf11000151ed4cd,2020-12-03_00h21.19.364,lexical_decision_task_MP_exp2,2020.2.8,MacIntel,60,z,1,0.65156,,,,,,,,0.65156,1,,,,,,257,NW,"ID",16,veniod,VENIOD,z,,,,,,-0.005763889,-0.407322049,0,0,0,,0,146,146,316,1,,
,,,,,,,,,,,,,,,,,,5d3cfeabbaf11000151ed4cd,2020-12-03_00h21.19.364,lexical_decision_task_MP_exp2,2020.2.8,MacIntel,60,z,1,0.62262,,,,,,,,0.62262,1,,,,,,365,NW,UN,16,toshel,GUAIRT,z,,,,,,-0.005763889,-0.407322049,0,0,0,,0,147,147,424,1,,
,,,,,,,,,,,,,,,,,,5d3cfeabbaf11000151ed4cd,2020-12-03_00h21.19.364,lexical_decision_task_MP_exp2,2020.2.8,MacIntel,60,z,1,0.585385,,,,,,,,0.585385,1,,,,,,278,NW,"ID",16,unighs,UNIGHS,z,,,,,,-0.005763889,-0.407322049,0,0,0,,0,148,148,337,1,,
,,,,,,,,,,,,,,,,,,5d3cfeabbaf11000151ed4cd,2020-12-03_00h21.19.364,lexical_decision_task_MP_exp2,2020.2.8,MacIntel,60,m,1,0.60269,,,,,,,,0.60269,1,,,,,,104,WORD,UN,33,number,STUDIO,m,,,,,,-0.005763889,-0.407322049,0,0,0,,0,149,149,163,1,,
,,,,,,,,,,,,,,,,,,5d3cfeabbaf11000151ed4cd,2020-12-03_00h21.19.364,lexical_decision_task_MP_exp2,2020.2.8,MacIntel,60,z,1,0.56726,,,,,,,,0.56726,1,,,,,,412,NW,UN,16,equats,JILUER,z,,,,,,-0.005763889,-0.407322049,0,0,0,,0,150,150,471,1,,
,,,,,,,,,,,,,,,,,,5d3cfeabbaf11000151ed4cd,2020-12-03_00h21.19.364,lexical_decision_task_MP_exp2,2020.2.8,MacIntel,60,z,1,0.66566,,,,,,,,0.66566,1,,,,,,426,NW,"ID",33,urivel,URIVEL,z,,,,,,-0.005763889,-0.407322049,0,0,0,,0,151,151,245,1,,
,,,,,,,,,,,,,,,,,,5d3cfeabbaf11000151ed4cd,2020-12-03_00h21.19.364,lexical_decision_task_MP_exp2,2020.2.8,MacIntel,60,m,1,0.652275,,,,,,,,0.652275,1,,,,,,118,WORD,UN,33,spider,FLIGHT,m,,,,,,-0.005763889,-0.407322049,0,0,0,,0,152,152,177,1,,
,,,,,,,,,,,,,,,,,,5d3cfeabbaf11000151ed4cd,2020-12-03_00h21.19.364,lexical_decision_task_MP_exp2,2020.2.8,MacIntel,60,m,1,0.54744,,,,,,,,0.54744,1,,,,,,59,WORD,"ID",16,splint,SPLINT,m,,,,,,-0.005763889,-0.407322049,0,0,0,,0,153,153,118,1,,
,,,,,,,,,,,,,,,,,,5d3cfeabbaf11000151ed4cd,2020-12-03_00h21.19.364,lexical_decision_task_MP_exp2,2020.2.8,MacIntel,60,m,1,0.486635,,,,,,,,0.486635,1,,,,,,46,WORD,"ID",16,single,SINGLE,m,,,,,,-0.005763889,-0.407322049,0,0,0,,0,154,154,105,1,,
,,,,,,,,,,,,,,,,,,5d3cfeabbaf11000151ed4cd,2020-12-03_00h21.19.364,lexical_decision_task_MP_exp2,2020.2.8,MacIntel,60,z,1,0.68353,,,,,,,,0.68353,1,,,,,,440,NW,"ID",33,saride,SARIDE,z,,,,,,-0.005763889,-0.407322049,0,0,0,,0,155,155,259,1,,
,,,,,,,,,,,,,,,,,,5d3cfeabbaf11000151ed4cd,2020-12-03_00h21.19.364,lexical_decision_task_MP_exp2,2020.2.8,MacIntel,60,z,1,0.63627,,,,,,,,0.63627,1,,,,,,446,NW,"ID",33,runamo,RUNAMO,z,,,,,,-0.005763889,-0.407322049,0,0,0,,0,156,156,265,1,,
,,,,,,,,,,,,,,,,,,5d3cfeabbaf11000151ed4cd,2020-12-03_00h21.19.364,lexical_decision_task_MP_exp2,2020.2.8,MacIntel,60,m,1,0.684275,,,,,,,,0.684275,1,,,,,,145,WORD,UN,16,couple,PARISH,m,,,,,,-0.005763889,-0.407322049,0,0,0,,0,157,157,204,1,,
,,,,,,,,,,,,,,,,,,5d3cfeabbaf11000151ed4cd,2020-12-03_00h21.19.364,lexical_decision_task_MP_exp2,2020.2.8,MacIntel,60,z,1,0.641005,,,,,,,,0.641005,1,,,,,,383,NW,UN,16,guesco,AUNGRE,z,,,,,,-0.005763889,-0.407322049,0,0,0,,0,158,158,442,1,,
,,,,,,,,,,,,,,,,,,5d3cfeabbaf11000151ed4cd,2020-12-03_00h21.19.364,lexical_decision_task_MP_exp2,2020.2.8,MacIntel,60,z,1,0.78736,,,,,,,,0.78736,1,,,,,,253,NW,"ID",16,resait,RESAIT,z,,,,,,-0.005763889,-0.407322049,0,0,0,,0,159,159,312,1,,
,,,,,,,,,,,,,,,,,,5d3cfeabbaf11000151ed4cd,2020-12-03_00h21.19.364,lexical_decision_task_MP_exp2,2020.2.8,MacIntel,60,m,1,0.61728,,,,,,,,0.61728,1,,,,,,233,WORD,"ID",33,nature,NATURE,m,,,,,,-0.005763889,-0.407322049,0,0,0,,0,160,160,52,1,,
,,,,,,,,,,,,,,,,,,5d3cfeabbaf11000151ed4cd,2020-12-03_00h21.19.364,lexical_decision_task_MP_exp2,2020.2.8,MacIntel,60,z,1,0.684835,,,,,,,,0.684835,1,,,,,,376,NW,UN,16,veigma,IGUARE,z,,,,,,-0.005763889,-0.407322049,0,0,0,,0,161,161,435,1,,
,,,,,,,,,,,,,,,,,,5d3cfeabbaf11000151ed4cd,2020-12-03_00h21.19.364,lexical_decision_task_MP_exp2,2020.2.8,MacIntel,60,z,0,0.746285,,,,,,,,0.746285,0,,,,,,98,WORD,UN,33,fluent,BELONG,m,,,,,,-0.005763889,-0.407322049,0,0,0,,0,162,162,157,1,,
,,,,,,,,,,,,,,,,,,5d3cfeabbaf11000151ed4cd,2020-12-03_00h21.19.364,lexical_decision_task_MP_exp2,2020.2.8,MacIntel,60,m,1,0.58015,,,,,,,,0.58015,1,,,,,,172,WORD,UN,16,shower,PATROL,m,,,,,,-0.005763889,-0.407322049,0,0,0,,0,163,163,231,1,,
,,,,,,,,,,,,,,,,,,5d3cfeabbaf11000151ed4cd,2020-12-03_00h21.19.364,lexical_decision_task_MP_exp2,2020.2.8,MacIntel,60,m,1,0.49905,,,,,,,,0.49905,1,,,,,,1,WORD,"ID",16,fright,FRIGHT,m,,,,,,-0.005763889,-0.407322049,0,0,0,,0,164,164,60,1,,
,,,,,,,,,,,,,,,,,,5d3cfeabbaf11000151ed4cd,2020-12-03_00h21.19.364,lexical_decision_task_MP_exp2,2020.2.8,MacIntel,60,m,1,0.442625,,,,,,,,0.442625,1,,,,,,229,WORD,"ID",33,mother,MOTHER,m,,,,,,-0.005763889,-0.407322049,0,0,0,,0,165,165,48,1,,
,,,,,,,,,,,,,,,,,,5d3cfeabbaf11000151ed4cd,2020-12-03_00h21.19.364,lexical_decision_task_MP_exp2,2020.2.8,MacIntel,60,m,1,0.39813,,,,,,,,0.39813,1,,,,,,197,WORD,"ID",33,stream,STREAM,m,,,,,,-0.005763889,-0.407322049,0,0,0,,0,166,166,16,1,,
,,,,,,,,,,,,,,,,,,5d3cfeabbaf11000151ed4cd,2020-12-03_00h21.19.364,lexical_decision_task_MP_exp2,2020.2.8,MacIntel,60,z,1,0.6416,,,,,,,,0.6416,1,,,,,,356,NW,UN,33,derain,OTHNIS,z,,,,,,-0.005763889,-0.407322049,0,0,0,,0,167,167,415,1,,
,,,,,,,,,,,,,,,,,,5d3cfeabbaf11000151ed4cd,2020-12-03_00h21.19.364,lexical_decision_task_MP_exp2,2020.2.8,MacIntel,60,m,1,0.692435,,,,,,,,0.692435,1,,,,,,126,WORD,UN,16,castle,ENOUGH,m,,,,,,-0.005763889,-0.407322049,0,0,0,,0,168,168,185,1,,
,,,,,,,,,,,,,,,,,,5d3cfeabbaf11000151ed4cd,2020-12-03_00h21.19.364,lexical_decision_task_MP_exp2,2020.2.8,MacIntel,60,z,1,0.656565,,,,,,,,0.656565,1,,,,,,434,NW,"ID",33,pitrom,PITROM,z,,,,,,-0.005763889,-0.407322049,0,0,0,,0,169,169,253,1,,
,,,,,,,,,,,,,,,,,,5d3cfeabbaf11000151ed4cd,2020-12-03_00h21.19.364,lexical_decision_task_MP_exp2,2020.2.8,MacIntel,60,z,1,0.67249,,,,,,,,0.67249,1,,,,,,248,NW,"ID",16,strole,STROLE,z,,,,,,-0.005763889,-0.407322049,0,0,0,,0,170,170,307,1,,
,,,,,,,,,,,,,,,,,,5d3cfeabbaf11000151ed4cd,2020-12-03_00h21.19.364,lexical_decision_task_MP_exp2,2020.2.8,MacIntel,60,m,1,0.63316,,,,,,,,0.63316,1,,,,,,136,WORD,UN,16,finger,BLEACH,m,,,,,,-0.005763889,-0.407322049,0,0,0,,0,171,171,195,1,,
,,,,,,,,,,,,,,,,,,5d3cfeabbaf11000151ed4cd,2020-12-03_00h21.19.364,lexical_decision_task_MP_exp2,2020.2.8,MacIntel,60,m,1,0.55293,,,,,,,,0.55293,1,,,,,,121,WORD,UN,16,linger,THRIVE,m,,,,,,-0.005763889,-0.407322049,0,0,0,,0,172,172,180,1,,
,,,,,,,,,,,,,,,,,,5d3cfeabbaf11000151ed4cd,2020-12-03_00h21.19.364,lexical_decision_task_MP_exp2,2020.2.8,MacIntel,60,m,1,0.533115,,,,,,,,0.533115,1,,,,,,66,WORD,UN,33,policy,GOSPEL,m,,,,,,-0.005763889,-0.407322049,0,0,0,,0,173,173,125,1,,
,,,,,,,,,,,,,,,,,,5d3cfeabbaf11000151ed4cd,2020-12-03_00h21.19.364,lexical_decision_task_MP_exp2,2020.2.8,MacIntel,60,z,1,0.56682,,,,,,,,0.56682,1,,,,,,301,NW,UN,33,miluer,FAINCH,z,,,,,,-0.005763889,-0.407322049,0,0,0,,0,174,174,360,1,,
,,,,,,,,,,,,,,,,,,5d3cfeabbaf11000151ed4cd,2020-12-03_00h21.19.364,lexical_decision_task_MP_exp2,2020.2.8,MacIntel,60,m,1,0.66373,,,,,,,,0.66373,1,,,,,,164,WORD,UN,16,invest,MARKET,m,,,,,,-0.005763889,-0.407322049,0,0,0,,0,175,175,223,1,,
,,,,,,,,,,,,,,,,,,5d3cfeabbaf11000151ed4cd,2020-12-03_00h21.19.364,lexical_decision_task_MP_exp2,2020.2.8,MacIntel,60,m,1,0.59032,,,,,,,,0.59032,1,,,,,,150,WORD,UN,16,mystic,RANDOM,m,,,,,,-0.005763889,-0.407322049,0,0,0,,0,176,176,209,1,,
,,,,,,,,,,,,,,,,,,5d3cfeabbaf11000151ed4cd,2020-12-03_00h21.19.364,lexical_decision_task_MP_exp2,2020.2.8,MacIntel,60,m,1,0.580175,,,,,,,,0.580175,1,,,,,,19,WORD,"ID",16,patron,PATRON,m,,,,,,-0.005763889,-0.407322049,0,0,0,,0,177,177,78,1,,
,,,,,,,,,,,,,,,,,,5d3cfeabbaf11000151ed4cd,2020-12-03_00h21.19.364,lexical_decision_task_MP_exp2,2020.2.8,MacIntel,60,z,1,0.60899,,,,,,,,0.60899,1,,,,,,407,NW,UN,16,hurnia,SUIVER,z,,,,,,-0.005763889,-0.407322049,0,0,0,,0,178,178,466,1,,
,,,,,,,,,,,,,,,,,,5d3cfeabbaf11000151ed4cd,2020-12-03_00h21.19.364,lexical_decision_task_MP_exp2,2020.2.8,MacIntel,60,z,1,0.583475,,,,,,,,0.583475,1,,,,,,454,NW,"ID",33,scouge,SCOUGE,z,,,,,,-0.005763889,-0.407322049,0,0,0,,0,179,179,273,1,,
,,,,,,,,,,,,,,,,,,5d3cfeabbaf11000151ed4cd,2020-12-03_00h21.19.364,lexical_decision_task_MP_exp2,2020.2.8,MacIntel,60,m,1,0.53358,,,,,,,,0.53358,1,,,,,,149,WORD,UN,16,random,INVADE,m,,,,,,-0.005763889,-0.407322049,0,0,0,,0,180,180,208,1,,
,,,,,,,,,,,,,,,,,,5d3cfeabbaf11000151ed4cd,2020-12-03_00h21.19.364,lexical_decision_task_MP_exp2,2020.2.8,MacIntel,60,m,1,0.551355,,,,,,,,0.551355,1,,,,,,20,WORD,"ID",16,breast,BREAST,m,,,,,,-0.005763889,-0.407322049,0,0,0,,0,181,181,79,1,,
,,,,,,,,,,,,,,,,,,5d3cfeabbaf11000151ed4cd,2020-12-03_00h21.19.364,lexical_decision_task_MP_exp2,2020.2.8,MacIntel,60,z,1,0.616055,,,,,,,,0.616055,1,,,,,,280,NW,"ID",16,curbol,CURBOL,z,,,,,,-0.005763889,-0.407322049,0,0,0,,0,182,182,339,1,,
,,,,,,,,,,,,,,,,,,5d3cfeabbaf11000151ed4cd,2020-12-03_00h21.19.364,lexical_decision_task_MP_exp2,2020.2.8,MacIntel,60,m,1,0.58291,,,,,,,,0.58291,1,,,,,,240,WORD,"ID",33,forest,FOREST,m,,,,,,-0.005763889,-0.407322049,0,0,0,,0,183,183,59,1,,
,,,,,,,,,,,,,,,,,,5d3cfeabbaf11000151ed4cd,2020-12-03_00h21.19.364,lexical_decision_task_MP_exp2,2020.2.8,MacIntel,60,z,1,0.75717,,,,,,,,0.75717,1,,,,,,260,NW,"ID",16,unject,UNJECT,z,,,,,,-0.005763889,-0.407322049,0,0,0,,0,184,184,319,1,,
,,,,,,,,,,,,,,,,,,5d3cfeabbaf11000151ed4cd,2020-12-03_00h21.19.364,lexical_decision_task_MP_exp2,2020.2.8,MacIntel,60,m,1,0.630605,,,,,,,,0.630605,1,,,,,,17,WORD,"ID",16,charge,CHARGE,m,,,,,,-0.005763889,-0.407322049,0,0,0,,0,185,185,76,1,,
,,,,,,,,,,,,,,,,,,5d3cfeabbaf11000151ed4cd,2020-12-03_00h21.19.364,lexical_decision_task_MP_exp2,2020.2.8,MacIntel,60,z,0,0.584155,,,,,,,,0.584155,0,,,,,,96,WORD,UN,33,client,IGNORE,m,,,,,,-0.005763889,-0.407322049,0,0,0,,0,186,186,155,1,,
,,,,,,,,,,,,,,,,,,5d3cfeabbaf11000151ed4cd,2020-12-03_00h21.19.364,lexical_decision_task_MP_exp2,2020.2.8,MacIntel,60,m,1,0.65813,,,,,,,,0.65813,1,,,,,,7,WORD,"ID",16,anchor,ANCHOR,m,,,,,,-0.005763889,-0.407322049,0,0,0,,0,187,187,66,1,,
,,,,,,,,,,,,,,,,,,5d3cfeabbaf11000151ed4cd,2020-12-03_00h21.19.364,lexical_decision_task_MP_exp2,2020.2.8,MacIntel,60,z,1,0.90296,,,,,,,,0.90296,1,,,,,,348,NW,UN,33,asylen,DUMPLE,z,,,,,,-0.005763889,-0.407322049,0,0,0,,0,188,188,407,1,,
,,,,,,,,,,,,,,,,,,5d3cfeabbaf11000151ed4cd,2020-12-03_00h21.19.364,lexical_decision_task_MP_exp2,2020.2.8,MacIntel,60,m,1,0.73765,,,,,,,,0.73765,1,,,,,,199,WORD,"ID",33,invoke,INVOKE,m,,,,,,-0.005763889,-0.407322049,0,0,0,,0,189,189,18,1,,
,,,,,,,,,,,,,,,,,,5d3cfeabbaf11000151ed4cd,2020-12-03_00h21.19.364,lexical_decision_task_MP_exp2,2020.2.8,MacIntel,60,z,1,0.633615,,,,,,,,0.633615,1,,,,,,266,NW,"ID",16,varmit,VARMIT,z,,,,,,-0.005763889,-0.407322049,0,0,0,,0,190,190,325,1,,
,,,,,,,,,,,,,,,,,,5d3cfeabbaf11000151ed4cd,2020-12-03_00h21.19.364,lexical_decision_task_MP_exp2,2020.2.8,MacIntel,60,z,1,0.83781,,,,,,,,0.83781,1,,,,,,275,NW,"ID",16,sleirt,SLEIRT,z,,,,,,-0.005763889,-0.407322049,0,0,0,,0,191,191,334,1,,
,,,,,,,,,,,,,,,,,,5d3cfeabbaf11000151ed4cd,2020-12-03_00h21.19.364,lexical_decision_task_MP_exp2,2020.2.8,MacIntel,60,m,1,0.600455,,,,,,,,0.600455,1,,,,,,183,WORD,"ID",33,mildew,MILDEW,m,,,,,,-0.005763889,-0.407322049,0,0,0,,0,192,192,2,1,,
,,,,,,,,,,,,,,,,,,5d3cfeabbaf11000151ed4cd,2020-12-03_00h21.19.364,lexical_decision_task_MP_exp2,2020.2.8,MacIntel,60,m,1,0.550205,,,,,,,,0.550205,1,,,,,,86,WORD,UN,33,filter,RODENT,m,,,,,,-0.005763889,-0.407322049,0,0,0,,0,193,193,145,1,,
,,,,,,,,,,,,,,,,,,5d3cfeabbaf11000151ed4cd,2020-12-03_00h21.19.364,lexical_decision_task_MP_exp2,2020.2.8,MacIntel,60,m,1,1.000245,,,,,,,,1.000245,1,,,,,,193,WORD,"ID",33,object,OBJECT,m,,,,,,-0.005763889,-0.407322049,0,0,0,,0,194,194,12,1,,
,,,,,,,,,,,,,,,,,,5d3cfeabbaf11000151ed4cd,2020-12-03_00h21.19.364,lexical_decision_task_MP_exp2,2020.2.8,MacIntel,60,z,1,0.832735,,,,,,,,0.832735,1,,,,,,243,NW,"ID",16,musied,MUSIED,z,,,,,,-0.005763889,-0.407322049,0,0,0,,0,195,195,302,1,,
,,,,,,,,,,,,,,,,,,5d3cfeabbaf11000151ed4cd,2020-12-03_00h21.19.364,lexical_decision_task_MP_exp2,2020.2.8,MacIntel,60,m,1,0.80212,,,,,,,,0.80212,1,,,,,,68,WORD,UN,33,plenty,FUMBLE,m,,,,,,-0.005763889,-0.407322049,0,0,0,,0,196,196,127,1,,
,,,,,,,,,,,,,,,,,,5d3cfeabbaf11000151ed4cd,2020-12-03_00h21.19.364,lexical_decision_task_MP_exp2,2020.2.8,MacIntel,60,m,1,0.632685,,,,,,,,0.632685,1,,,,,,151,WORD,UN,16,rocket,MYSTIC,m,,,,,,-0.005763889,-0.407322049,0,0,0,,0,197,197,210,1,,
,,,,,,,,,,,,,,,,,,5d3cfeabbaf11000151ed4cd,2020-12-03_00h21.19.364,lexical_decision_task_MP_exp2,2020.2.8,MacIntel,60,z,1,0.933895,,,,,,,,0.933895,1,,,,,,307,NW,UN,33,psetch,KIRAFE,z,,,,,,-0.005763889,-0.407322049,0,0,0,,0,198,198,366,1,,
,,,,,,,,,,,,,,,,,,5d3cfeabbaf11000151ed4cd,2020-12-03_00h21.19.364,lexical_decision_task_MP_exp2,2020.2.8,MacIntel,60,m,1,0.79945,,,,,,,,0.79945,1,,,,,,185,WORD,"ID",33,bother,BOTHER,m,,,,,,-0.005763889,-0.407322049,0,0,0,,0,199,199,4,1,,
,,,,,,,,,,,,,,,,,,5d3cfeabbaf11000151ed4cd,2020-12-03_00h21.19.364,lexical_decision_task_MP_exp2,2020.2.8,MacIntel,60,z,1,0.852215,,,,,,,,0.852215,1,,,,,,421,NW,"ID",33,knisma,KNISMA,z,,,,,,-0.005763889,-0.407322049,0,0,0,,0,200,200,240,1,,
,,,,,,,,,,,,,,,,,,5d3cfeabbaf11000151ed4cd,2020-12-03_00h21.19.364,lexical_decision_task_MP_exp2,2020.2.8,MacIntel,60,m,1,0.574535,,,,,,,,0.574535,1,,,,,,184,WORD,"ID",33,sleazy,SLEAZY,m,,,,,,-0.005763889,-0.407322049,0,0,0,,0,201,201,3,1,,
,,,,,,,,,,,,,,,,,,5d3cfeabbaf11000151ed4cd,2020-12-03_00h21.19.364,lexical_decision_task_MP_exp2,2020.2.8,MacIntel,60,z,1,0.763875,,,,,,,,0.763875,1,,,,,,424,NW,"ID",33,praile,PRAILE,z,,,,,,-0.005763889,-0.407322049,0,0,0,,0,202,202,243,1,,
,,,,,,,,,,,,,,,,,,5d3cfeabbaf11000151ed4cd,2020-12-03_00h21.19.364,lexical_decision_task_MP_exp2,2020.2.8,MacIntel,60,m,1,0.63242,,,,,,,,0.63242,1,,,,,,10,WORD,"ID",16,ethnic,ETHNIC,m,,,,,,-0.005763889,-0.407322049,0,0,0,,0,203,203,69,1,,
,,,,,,,,,,,,,,,,,,5d3cfeabbaf11000151ed4cd,2020-12-03_00h21.19.364,lexical_decision_task_MP_exp2,2020.2.8,MacIntel,60,z,0,0.6696,,,,,,,,0.6696,0,,,,,,13,WORD,"ID",16,strive,STRIVE,m,,,,,,-0.005763889,-0.407322049,0,0,0,,0,204,204,72,1,,
,,,,,,,,,,,,,,,,,,5d3cfeabbaf11000151ed4cd,2020-12-03_00h21.19.364,lexical_decision_task_MP_exp2,2020.2.8,MacIntel,60,z,1,0.83623,,,,,,,,0.83623,1,,,,,,319,NW,UN,33,jockal,ZOMBER,z,,,,,,-0.005763889,-0.407322049,0,0,0,,0,205,205,378,1,,
,,,,,,,,,,,,,,,,,,5d3cfeabbaf11000151ed4cd,2020-12-03_00h21.19.364,lexical_decision_task_MP_exp2,2020.2.8,MacIntel,60,z,1,0.788845,,,,,,,,0.788845,1,,,,,,411,NW,UN,16,jiluer,ORCHIN,z,,,,,,-0.005763889,-0.407322049,0,0,0,,0,206,206,470,1,,
,,,,,,,,,,,,,,,,,,5d3cfeabbaf11000151ed4cd,2020-12-03_00h21.19.364,lexical_decision_task_MP_exp2,2020.2.8,MacIntel,60,m,1,0.625185,,,,,,,,0.625185,1,,,,,,35,WORD,"ID",16,socket,SOCKET,m,,,,,,-0.005763889,-0.407322049,0,0,0,,0,207,207,94,1,,
,,,,,,,,,,,,,,,,,,5d3cfeabbaf11000151ed4cd,2020-12-03_00h21.19.364,lexical_decision_task_MP_exp2,2020.2.8,MacIntel,60,z,1,0.6673,,,,,,,,0.6673,1,,,,,,358,NW,UN,33,fonver,FLEACK,z,,,,,,-0.005763889,-0.407322049,0,0,0,,0,208,208,417,1,,
,,,,,,,,,,,,,,,,,,5d3cfeabbaf11000151ed4cd,2020-12-03_00h21.19.364,lexical_decision_task_MP_exp2,2020.2.8,MacIntel,60,z,1,0.617545,,,,,,,,0.617545,1,,,,,,478,NW,"ID",33,acrise,ACRISE,z,,,,,,-0.005763889,-0.407322049,0,0,0,,0,209,209,297,1,,
,,,,,,,,,,,,,,,,,,5d3cfeabbaf11000151ed4cd,2020-12-03_00h21.19.364,lexical_decision_task_MP_exp2,2020.2.8,MacIntel,60,m,1,0.647255,,,,,,,,0.647255,1,,,,,,48,WORD,"ID",16,walnut,WALNUT,m,,,,,,-0.005763889,-0.407322049,0,0,0,,0,210,210,107,1,,
,,,,,,,,,,,,,,,,,,5d3cfeabbaf11000151ed4cd,2020-12-03_00h21.19.364,lexical_decision_task_MP_exp2,2020.2.8,MacIntel,60,z,1,0.70674,,,,,,,,0.70674,1,,,,,,270,NW,"ID",16,wrimsy,WRIMSY,z,,,,,,-0.005763889,-0.407322049,0,0,0,,0,211,211,329,1,,
,,,,,,,,,,,,,,,,,,5d3cfeabbaf11000151ed4cd,2020-12-03_00h21.19.364,lexical_decision_task_MP_exp2,2020.2.8,MacIntel,60,z,1,0.62359,,,,,,,,0.62359,1,,,,,,390,NW,UN,16,theldy,HATRUS,z,,,,,,-0.005763889,-0.407322049,0,0,0,,0,212,212,449,1,,
,,,,,,,,,,,,,,,,,,5d3cfeabbaf11000151ed4cd,2020-12-03_00h21.19.364,lexical_decision_task_MP_exp2,2020.2.8,MacIntel,60,m,1,0.54945,,,,,,,,0.54945,1,,,,,,40,WORD,"ID",16,convey,CONVEY,m,,,,,,-0.005763889,-0.407322049,0,0,0,,0,213,213,99,1,,
,,,,,,,,,,,,,,,,,,5d3cfeabbaf11000151ed4cd,2020-12-03_00h21.19.364,lexical_decision_task_MP_exp2,2020.2.8,MacIntel,60,z,1,0.81768,,,,,,,,0.81768,1,,,,,,335,NW,UN,33,ghodus,DESION,z,,,,,,-0.005763889,-0.407322049,0,0,0,,0,214,214,394,1,,
,,,,,,,,,,,,,,,,,,5d3cfeabbaf11000151ed4cd,2020-12-03_00h21.19.364,lexical_decision_task_MP_exp2,2020.2.8,MacIntel,60,z,1,0.60115,,,,,,,,0.60115,1,,,,,,311,NW,UN,33,nerawl,SPROLY,z,,,,,,-0.005763889,-0.407322049,0,0,0,,0,215,215,370,1,,
,,,,,,,,,,,,,,,,,,5d3cfeabbaf11000151ed4cd,2020-12-03_00h21.19.364,lexical_decision_task_MP_exp2,2020.2.8,MacIntel,60,m,1,0.586245,,,,,,,,0.586245,1,,,,,,74,WORD,UN,33,trophy,PLAQUE,m,,,,,,-0.005763889,-0.407322049,0,0,0,,0,216,216,133,1,,
,,,,,,,,,,,,,,,,,,5d3cfeabbaf11000151ed4cd,2020-12-03_00h21.19.364,lexical_decision_task_MP_exp2,2020.2.8,MacIntel,60,m,1,0.617745,,,,,,,,0.617745,1,,,,,,187,WORD,"ID",33,course,COURSE,m,,,,,,-0.005763889,-0.407322049,0,0,0,,0,217,217,6,1,,
,,,,,,,,,,,,,,,,,,5d3cfeabbaf11000151ed4cd,2020-12-03_00h21.19.364,lexical_decision_task_MP_exp2,2020.2.8,MacIntel,60,z,1,0.683465,,,,,,,,0.683465,1,,,,,,455,NW,"ID",33,tondle,TONDLE,z,,,,,,-0.005763889,-0.407322049,0,0,0,,0,218,218,274,1,,
,,,,,,,,,,,,,,,,,,5d3cfeabbaf11000151ed4cd,2020-12-03_00h21.19.364,lexical_decision_task_MP_exp2,2020.2.8,MacIntel,60,m,1,0.599405,,,,,,,,0.599405,1,,,,,,114,WORD,UN,33,guitar,PLACID,m,,,,,,-0.005763889,-0.407322049,0,0,0,,0,219,219,173,1,,
,,,,,,,,,,,,,,,,,,5d3cfeabbaf11000151ed4cd,2020-12-03_00h21.19.364,lexical_decision_task_MP_exp2,2020.2.8,MacIntel,60,m,1,0.718465,,,,,,,,0.718465,1,,,,,,162,WORD,UN,16,string,CANDLE,m,,,,,,-0.005763889,-0.407322049,0,0,0,,0,220,220,221,1,,
,,,,,,,,,,,,,,,,,,5d3cfeabbaf11000151ed4cd,2020-12-03_00h21.19.364,lexical_decision_task_MP_exp2,2020.2.8,MacIntel,60,m,1,0.488775,,,,,,,,0.488775,1,,,,,,27,WORD,"ID",16,scream,SCREAM,m,,,,,,-0.005763889,-0.407322049,0,0,0,,0,221,221,86,1,,
,,,,,,,,,,,,,,,,,,5d3cfeabbaf11000151ed4cd,2020-12-03_00h21.19.364,lexical_decision_task_MP_exp2,2020.2.8,MacIntel,60,m,1,0.56669,,,,,,,,0.56669,1,,,,,,115,WORD,UN,33,tumble,GUITAR,m,,,,,,-0.005763889,-0.407322049,0,0,0,,0,222,222,174,1,,
,,,,,,,,,,,,,,,,,,5d3cfeabbaf11000151ed4cd,2020-12-03_00h21.19.364,lexical_decision_task_MP_exp2,2020.2.8,MacIntel,60,z,1,0.714935,,,,,,,,0.714935,1,,,,,,261,NW,"ID",16,stunch,STUNCH,z,,,,,,-0.005763889,-0.407322049,0,0,0,,0,223,223,320,1,,
,,,,,,,,,,,,,,,,,,5d3cfeabbaf11000151ed4cd,2020-12-03_00h21.19.364,lexical_decision_task_MP_exp2,2020.2.8,MacIntel,60,m,1,0.56774,,,,,,,,0.56774,1,,,,,,226,WORD,"ID",33,casino,CASINO,m,,,,,,-0.005763889,-0.407322049,0,0,0,,0,224,224,45,1,,
,,,,,,,,,,,,,,,,,,5d3cfeabbaf11000151ed4cd,2020-12-03_00h21.19.364,lexical_decision_task_MP_exp2,2020.2.8,MacIntel,60,z,1,0.63663,,,,,,,,0.63663,1,,,,,,274,NW,"ID",16,fumblo,FUMBLO,z,,,,,,-0.005763889,-0.407322049,0,0,0,,0,225,225,333,1,,
,,,,,,,,,,,,,,,,,,5d3cfeabbaf11000151ed4cd,2020-12-03_00h21.19.364,lexical_decision_task_MP_exp2,2020.2.8,MacIntel,60,z,0,0.97871,,,,,,,,0.97871,0,,,,,,131,WORD,UN,16,strong,QUENCH,m,,,,,,-0.005763889,-0.407322049,0,0,0,,0,226,226,190,1,,
,,,,,,,,,,,,,,,,,,5d3cfeabbaf11000151ed4cd,2020-12-03_00h21.19.364,lexical_decision_task_MP_exp2,2020.2.8,MacIntel,60,z,1,0.72068,,,,,,,,0.72068,1,,,,,,321,NW,UN,33,slanch,MIATOR,z,,,,,,-0.005763889,-0.407322049,0,0,0,,0,227,227,380,1,,
,,,,,,,,,,,,,,,,,,5d3cfeabbaf11000151ed4cd,2020-12-03_00h21.19.364,lexical_decision_task_MP_exp2,2020.2.8,MacIntel,60,m,1,0.73164,,,,,,,,0.73164,1,,,,,,67,WORD,UN,33,fumble,POLICY,m,,,,,,-0.005763889,-0.407322049,0,0,0,,0,228,228,126,1,,
,,,,,,,,,,,,,,,,,,5d3cfeabbaf11000151ed4cd,2020-12-03_00h21.19.364,lexical_decision_task_MP_exp2,2020.2.8,MacIntel,60,m,0,1.033525,,,,,,,,1.033525,0,,,,,,294,NW,"ID",16,inhort,INHORT,z,,,,,,-0.005763889,-0.407322049,0,0,0,,0,229,229,353,1,,
,,,,,,,,,,,,,,,,,,5d3cfeabbaf11000151ed4cd,2020-12-03_00h21.19.364,lexical_decision_task_MP_exp2,2020.2.8,MacIntel,60,z,1,0.78362,,,,,,,,0.78362,1,,,,,,322,NW,UN,33,rosail,SLANCH,z,,,,,,-0.005763889,-0.407322049,0,0,0,,0,230,230,381,1,,
,,,,,,,,,,,,,,,,,,5d3cfeabbaf11000151ed4cd,2020-12-03_00h21.19.364,lexical_decision_task_MP_exp2,2020.2.8,MacIntel,60,z,1,0.684345,,,,,,,,0.684345,1,,,,,,332,NW,UN,33,catrie,VANGUE,z,,,,,,-0.005763889,-0.407322049,0,0,0,,0,231,231,391,1,,
,,,,,,,,,,,,,,,,,,5d3cfeabbaf11000151ed4cd,2020-12-03_00h21.19.364,lexical_decision_task_MP_exp2,2020.2.8,MacIntel,60,m,1,0.55067,,,,,,,,0.55067,1,,,,,,11,WORD,"ID",16,cruise,CRUISE,m,,,,,,-0.005763889,-0.407322049,0,0,0,,0,232,232,70,1,,
,,,,,,,,,,,,,,,,,,5d3cfeabbaf11000151ed4cd,2020-12-03_00h21.19.364,lexical_decision_task_MP_exp2,2020.2.8,MacIntel,60,z,1,0.75202,,,,,,,,0.75202,1,,,,,,479,NW,"ID",33,lobush,LOBUSH,z,,,,,,-0.005763889,-0.407322049,0,0,0,,0,233,233,298,1,,
,,,,,,,,,,,,,,,,,,5d3cfeabbaf11000151ed4cd,2020-12-03_00h21.19.364,lexical_decision_task_MP_exp2,2020.2.8,MacIntel,60,m,1,0.58676,,,,,,,,0.58676,1,,,,,,173,WORD,UN,16,turkey,SHOWER,m,,,,,,-0.005763889,-0.407322049,0,0,0,,0,234,234,232,1,,
,,,,,,,,,,,,,,,,,,5d3cfeabbaf11000151ed4cd,2020-12-03_00h21.19.364,lexical_decision_task_MP_exp2,2020.2.8,MacIntel,60,z,1,0.602895,,,,,,,,0.602895,1,,,,,,381,NW,UN,16,sarley,HUNIEK,z,,,,,,-0.005763889,-0.407322049,0,0,0,,0,235,235,440,1,,
,,,,,,,,,,,,,,,,,,5d3cfeabbaf11000151ed4cd,2020-12-03_00h21.19.364,lexical_decision_task_MP_exp2,2020.2.8,MacIntel,60,m,1,0.53318,,,,,,,,0.53318,1,,,,,,203,WORD,"ID",33,phrase,PHRASE,m,,,,,,-0.005763889,-0.407322049,0,0,0,,0,236,236,22,1,,
,,,,,,,,,,,,,,,,,,5d3cfeabbaf11000151ed4cd,2020-12-03_00h21.19.364,lexical_decision_task_MP_exp2,2020.2.8,MacIntel,60,m,1,0.801765,,,,,,,,0.801765,1,,,,,,220,WORD,"ID",33,voyage,VOYAGE,m,,,,,,-0.005763889,-0.407322049,0,0,0,,0,237,237,39,1,,
,,,,,,,,,,,,,,,,,,5d3cfeabbaf11000151ed4cd,2020-12-03_00h21.19.364,lexical_decision_task_MP_exp2,2020.2.8,MacIntel,60,z,1,0.62317,,,,,,,,0.62317,1,,,,,,349,NW,UN,33,nagurs,ASYLEN,z,,,,,,-0.005763889,-0.407322049,0,0,0,,0,238,238,408,1,,
,,,,,,,,,,,,,,,,,,5d3cfeabbaf11000151ed4cd,2020-12-03_00h21.19.364,lexical_decision_task_MP_exp2,2020.2.8,MacIntel,60,m,1,0.562185,,,,,,,,0.562185,1,,,,,,144,WORD,UN,16,parish,SPONGE,m,,,,,,-0.005763889,-0.407322049,0,0,0,,0,239,239,203,1,,
,,,,,,,,,,,,,,,,,,5d3cfeabbaf11000151ed4cd,2020-12-03_00h21.19.364,lexical_decision_task_MP_exp2,2020.2.8,MacIntel,60,z,1,0.63856,,,,,,,,0.63856,1,,,,,,247,NW,"ID",16,blarge,BLARGE,z,,,,,,-0.005763889,-0.407322049,0,0,0,,0,240,240,306,1,,
,,,,,,,,,,,,,,,,,,5d3cfeabbaf11000151ed4cd,2020-12-03_00h21.19.364,lexical_decision_task_MP_exp2,2020.2.8,MacIntel,60,m,1,0.74027,,,,,,,,0.74027,1,,,,,,143,WORD,UN,16,sponge,REASON,m,,,,,,-0.065091146,-0.387673611,1,0,0,,0,241,241,202,1,break_done_button,
,,,,,,,,,,,,,,,,,,5d3cfeabbaf11000151ed4cd,2020-12-03_00h21.19.364,lexical_decision_task_MP_exp2,2020.2.8,MacIntel,60,z,1,0.775225,,,,,,,,0.775225,1,,,,,,451,NW,"ID",33,cainky,CAINKY,z,,,,,,-0.065091146,-0.387673611,0,0,0,,0,242,242,270,1,,
,,,,,,,,,,,,,,,,,,5d3cfeabbaf11000151ed4cd,2020-12-03_00h21.19.364,lexical_decision_task_MP_exp2,2020.2.8,MacIntel,60,z,1,0.485205,,,,,,,,0.485205,1,,,,,,359,NW,UN,33,desory,FONVER,z,,,,,,-0.065091146,-0.387673611,0,0,0,,0,243,243,418,1,,
,,,,,,,,,,,,,,,,,,5d3cfeabbaf11000151ed4cd,2020-12-03_00h21.19.364,lexical_decision_task_MP_exp2,2020.2.8,MacIntel,60,z,1,0.53771,,,,,,,,0.53771,1,,,,,,402,NW,UN,16,bruats,SYNTIC,z,,,,,,-0.065091146,-0.387673611,0,0,0,,0,244,244,461,1,,
,,,,,,,,,,,,,,,,,,5d3cfeabbaf11000151ed4cd,2020-12-03_00h21.19.364,lexical_decision_task_MP_exp2,2020.2.8,MacIntel,60,z,1,0.482965,,,,,,,,0.482965,1,,,,,,387,NW,UN,16,cragin,GRONCE,z,,,,,,-0.065091146,-0.387673611,0,0,0,,0,245,245,446,1,,
,,,,,,,,,,,,,,,,,,5d3cfeabbaf11000151ed4cd,2020-12-03_00h21.19.364,lexical_decision_task_MP_exp2,2020.2.8,MacIntel,60,z,1,0.486325,,,,,,,,0.486325,1,,,,,,272,NW,"ID",16,damilt,DAMILT,z,,,,,,-0.065091146,-0.387673611,0,0,0,,0,246,246,331,1,,
,,,,,,,,,,,,,,,,,,5d3cfeabbaf11000151ed4cd,2020-12-03_00h21.19.364,lexical_decision_task_MP_exp2,2020.2.8,MacIntel,60,z,1,0.51798,,,,,,,,0.51798,1,,,,,,316,NW,UN,33,worbal,SCREGM,z,,,,,,-0.065091146,-0.387673611,0,0,0,,0,247,247,375,1,,
,,,,,,,,,,,,,,,,,,5d3cfeabbaf11000151ed4cd,2020-12-03_00h21.19.364,lexical_decision_task_MP_exp2,2020.2.8,MacIntel,60,m,1,0.476615,,,,,,,,0.476615,1,,,,,,236,WORD,"ID",33,pirate,PIRATE,m,,,,,,-0.065091146,-0.387673611,0,0,0,,0,248,248,55,1,,
,,,,,,,,,,,,,,,,,,5d3cfeabbaf11000151ed4cd,2020-12-03_00h21.19.364,lexical_decision_task_MP_exp2,2020.2.8,MacIntel,60,z,1,0.55739,,,,,,,,0.55739,1,,,,,,403,NW,UN,16,cluirm,BRUATS,z,,,,,,-0.065091146,-0.387673611,0,0,0,,0,249,249,462,1,,
,,,,,,,,,,,,,,,,,,5d3cfeabbaf11000151ed4cd,2020-12-03_00h21.19.364,lexical_decision_task_MP_exp2,2020.2.8,MacIntel,60,m,1,0.524255,,,,,,,,0.524255,1,,,,,,43,WORD,"ID",16,tongue,TONGUE,m,,,,,,-0.065091146,-0.387673611,0,0,0,,0,250,250,102,1,,
,,,,,,,,,,,,,,,,,,5d3cfeabbaf11000151ed4cd,2020-12-03_00h21.19.364,lexical_decision_task_MP_exp2,2020.2.8,MacIntel,60,m,1,0.466365,,,,,,,,0.466365,1,,,,,,180,WORD,UN,16,thrive,SILENT,m,,,,,,-0.065091146,-0.387673611,0,0,0,,0,251,251,239,1,,
,,,,,,,,,,,,,,,,,,5d3cfeabbaf11000151ed4cd,2020-12-03_00h21.19.364,lexical_decision_task_MP_exp2,2020.2.8,MacIntel,60,z,1,0.51706,,,,,,,,0.51706,1,,,,,,443,NW,"ID",33,dorsex,DORSEX,z,,,,,,-0.065091146,-0.387673611,0,0,0,,0,252,252,262,1,,
,,,,,,,,,,,,,,,,,,5d3cfeabbaf11000151ed4cd,2020-12-03_00h21.19.364,lexical_decision_task_MP_exp2,2020.2.8,MacIntel,60,z,1,0.485675,,,,,,,,0.485675,1,,,,,,413,NW,UN,16,serbol,EQUATS,z,,,,,,-0.065091146,-0.387673611,0,0,0,,0,253,253,472,1,,
,,,,,,,,,,,,,,,,,,5d3cfeabbaf11000151ed4cd,2020-12-03_00h21.19.364,lexical_decision_task_MP_exp2,2020.2.8,MacIntel,60,m,0,0.40069,,,,,,,,0.40069,0,,,,,,385,NW,UN,16,ancust,VEIGMA,z,,,,,,-0.065091146,-0.387673611,0,0,0,,0,254,254,444,1,,
,,,,,,,,,,,,,,,,,,5d3cfeabbaf11000151ed4cd,2020-12-03_00h21.19.364,lexical_decision_task_MP_exp2,2020.2.8,MacIntel,60,m,1,0.65152,,,,,,,,0.65152,1,,,,,,142,WORD,UN,16,reason,SPRUCE,m,,,,,,-0.065091146,-0.387673611,0,0,0,,0,255,255,201,1,,
,,,,,,,,,,,,,,,,,,5d3cfeabbaf11000151ed4cd,2020-12-03_00h21.19.364,lexical_decision_task_MP_exp2,2020.2.8,MacIntel,60,z,0,0.517135,,,,,,,,0.517135,0,,,,,,39,WORD,"ID",16,insect,INSECT,m,,,,,,-0.065091146,-0.387673611,0,0,0,,0,256,256,98,1,,
,,,,,,,,,,,,,,,,,,5d3cfeabbaf11000151ed4cd,2020-12-03_00h21.19.364,lexical_decision_task_MP_exp2,2020.2.8,MacIntel,60,z,1,0.68288,,,,,,,,0.68288,1,,,,,,386,NW,UN,16,gronce,ANCUST,z,,,,,,-0.065091146,-0.387673611,0,0,0,,0,257,257,445,1,,
,,,,,,,,,,,,,,,,,,5d3cfeabbaf11000151ed4cd,2020-12-03_00h21.19.364,lexical_decision_task_MP_exp2,2020.2.8,MacIntel,60,z,1,0.58448,,,,,,,,0.58448,1,,,,,,449,NW,"ID",33,brunge,BRUNGE,z,,,,,,-0.065091146,-0.387673611,0,0,0,,0,258,258,268,1,,
,,,,,,,,,,,,,,,,,,5d3cfeabbaf11000151ed4cd,2020-12-03_00h21.19.364,lexical_decision_task_MP_exp2,2020.2.8,MacIntel,60,z,1,0.598695,,,,,,,,0.598695,1,,,,,,254,NW,"ID",16,varosh,VAROSH,z,,,,,,-0.065091146,-0.387673611,0,0,0,,0,259,259,313,1,,
,,,,,,,,,,,,,,,,,,5d3cfeabbaf11000151ed4cd,2020-12-03_00h21.19.364,lexical_decision_task_MP_exp2,2020.2.8,MacIntel,60,m,1,0.65396,,,,,,,,0.65396,1,,,,,,64,WORD,UN,33,symbol,THRONE,m,,,,,,-0.065091146,-0.387673611,0,0,0,,0,260,260,123,1,,
,,,,,,,,,,,,,,,,,,5d3cfeabbaf11000151ed4cd,2020-12-03_00h21.19.364,lexical_decision_task_MP_exp2,2020.2.8,MacIntel,60,z,1,0.60443,,,,,,,,0.60443,1,,,,,,246,NW,"ID",16,piaton,PIATON,z,,,,,,-0.065091146,-0.387673611,0,0,0,,0,261,261,305,1,,
,,,,,,,,,,,,,,,,,,5d3cfeabbaf11000151ed4cd,2020-12-03_00h21.19.364,lexical_decision_task_MP_exp2,2020.2.8,MacIntel,60,z,1,0.572355,,,,,,,,0.572355,1,,,,,,416,NW,UN,16,earoud,PATHEL,z,,,,,,-0.065091146,-0.387673611,0,0,0,,0,262,262,475,1,,
,,,,,,,,,,,,,,,,,,5d3cfeabbaf11000151ed4cd,2020-12-03_00h21.19.364,lexical_decision_task_MP_exp2,2020.2.8,MacIntel,60,z,1,0.555475,,,,,,,,0.555475,1,,,,,,325,NW,UN,33,iguade,THRUSE,z,,,,,,-0.065091146,-0.387673611,0,0,0,,0,263,263,384,1,,
,,,,,,,,,,,,,,,,,,5d3cfeabbaf11000151ed4cd,2020-12-03_00h21.19.364,lexical_decision_task_MP_exp2,2020.2.8,MacIntel,60,z,1,0.66321,,,,,,,,0.66321,1,,,,,,362,NW,UN,16,breali,TIREAU,z,,,,,,-0.065091146,-0.387673611,0,0,0,,0,264,264,421,1,,
,,,,,,,,,,,,,,,,,,5d3cfeabbaf11000151ed4cd,2020-12-03_00h21.19.364,lexical_decision_task_MP_exp2,2020.2.8,MacIntel,60,z,1,0.46684,,,,,,,,0.46684,1,,,,,,305,NW,UN,33,sounge,FORGLE,z,,,,,,-0.065091146,-0.387673611,0,0,0,,0,265,265,364,1,,
,,,,,,,,,,,,,,,,,,5d3cfeabbaf11000151ed4cd,2020-12-03_00h21.19.364,lexical_decision_task_MP_exp2,2020.2.8,MacIntel,60,z,1,0.441685,,,,,,,,0.441685,1,,,,,,471,NW,"ID",33,nobest,NOBEST,z,,,,,,-0.065091146,-0.387673611,0,0,0,,0,266,266,290,1,,
,,,,,,,,,,,,,,,,,,5d3cfeabbaf11000151ed4cd,2020-12-03_00h21.19.364,lexical_decision_task_MP_exp2,2020.2.8,MacIntel,60,m,1,0.46486,,,,,,,,0.46486,1,,,,,,22,WORD,"ID",16,jockey,JOCKEY,m,,,,,,-0.065091146,-0.387673611,0,0,0,,0,267,267,81,1,,
,,,,,,,,,,,,,,,,,,5d3cfeabbaf11000151ed4cd,2020-12-03_00h21.19.364,lexical_decision_task_MP_exp2,2020.2.8,MacIntel,60,m,1,0.54908,,,,,,,,0.54908,1,,,,,,88,WORD,UN,33,permit,HUNGER,m,,,,,,-0.065091146,-0.387673611,0,0,0,,0,268,268,147,1,,
,,,,,,,,,,,,,,,,,,5d3cfeabbaf11000151ed4cd,2020-12-03_00h21.19.364,lexical_decision_task_MP_exp2,2020.2.8,MacIntel,60,z,1,0.80022,,,,,,,,0.80022,1,,,,,,414,NW,UN,16,higsta,SERBOL,z,,,,,,-0.065091146,-0.387673611,0,0,0,,0,269,269,473,1,,
,,,,,,,,,,,,,,,,,,5d3cfeabbaf11000151ed4cd,2020-12-03_00h21.19.364,lexical_decision_task_MP_exp2,2020.2.8,MacIntel,60,z,1,0.88785,,,,,,,,0.88785,1,,,,,,309,NW,UN,33,daniet,AMILOY,z,,,,,,-0.065091146,-0.387673611,0,0,0,,0,270,270,368,1,,
,,,,,,,,,,,,,,,,,,5d3cfeabbaf11000151ed4cd,2020-12-03_00h21.19.364,lexical_decision_task_MP_exp2,2020.2.8,MacIntel,60,z,1,0.51784,,,,,,,,0.51784,1,,,,,,476,NW,"ID",33,josted,JOSTED,z,,,,,,-0.065091146,-0.387673611,0,0,0,,0,271,271,295,1,,
,,,,,,,,,,,,,,,,,,5d3cfeabbaf11000151ed4cd,2020-12-03_00h21.19.364,lexical_decision_task_MP_exp2,2020.2.8,MacIntel,60,m,1,0.53135,,,,,,,,0.53135,1,,,,,,133,WORD,UN,16,staple,CHROME,m,,,,,,-0.065091146,-0.387673611,0,0,0,,0,272,272,192,1,,
,,,,,,,,,,,,,,,,,,5d3cfeabbaf11000151ed4cd,2020-12-03_00h21.19.364,lexical_decision_task_MP_exp2,2020.2.8,MacIntel,60,m,1,0.54213,,,,,,,,0.54213,1,,,,,,155,WORD,UN,16,cradle,LIZARD,m,,,,,,-0.065091146,-0.387673611,0,0,0,,0,273,273,214,1,,
,,,,,,,,,,,,,,,,,,5d3cfeabbaf11000151ed4cd,2020-12-03_00h21.19.364,lexical_decision_task_MP_exp2,2020.2.8,MacIntel,60,z,0,0.60009,,,,,,,,0.60009,0,,,,,,77,WORD,UN,33,column,RACKET,m,,,,,,-0.065091146,-0.387673611,0,0,0,,0,274,274,136,1,,
,,,,,,,,,,,,,,,,,,5d3cfeabbaf11000151ed4cd,2020-12-03_00h21.19.364,lexical_decision_task_MP_exp2,2020.2.8,MacIntel,60,m,1,0.683765,,,,,,,,0.683765,1,,,,,,219,WORD,"ID",33,bucket,BUCKET,m,,,,,,-0.065091146,-0.387673611,0,0,0,,0,275,275,38,1,,
,,,,,,,,,,,,,,,,,,5d3cfeabbaf11000151ed4cd,2020-12-03_00h21.19.364,lexical_decision_task_MP_exp2,2020.2.8,MacIntel,60,m,1,0.536315,,,,,,,,0.536315,1,,,,,,125,WORD,UN,16,enough,NICKEL,m,,,,,,-0.065091146,-0.387673611,0,0,0,,0,276,276,184,1,,
,,,,,,,,,,,,,,,,,,5d3cfeabbaf11000151ed4cd,2020-12-03_00h21.19.364,lexical_decision_task_MP_exp2,2020.2.8,MacIntel,60,z,1,0.64983,,,,,,,,0.64983,1,,,,,,313,NW,UN,33,sprine,PAURSE,z,,,,,,-0.065091146,-0.387673611,0,0,0,,0,277,277,372,1,,
,,,,,,,,,,,,,,,,,,5d3cfeabbaf11000151ed4cd,2020-12-03_00h21.19.364,lexical_decision_task_MP_exp2,2020.2.8,MacIntel,60,z,1,0.623675,,,,,,,,0.623675,1,,,,,,324,NW,UN,33,thruse,STEIKH,z,,,,,,-0.065091146,-0.387673611,0,0,0,,0,278,278,383,1,,
,,,,,,,,,,,,,,,,,,5d3cfeabbaf11000151ed4cd,2020-12-03_00h21.19.364,lexical_decision_task_MP_exp2,2020.2.8,MacIntel,60,m,1,0.520315,,,,,,,,0.520315,1,,,,,,15,WORD,"ID",16,amount,AMOUNT,m,,,,,,-0.065091146,-0.387673611,0,0,0,,0,279,279,74,1,,
,,,,,,,,,,,,,,,,,,5d3cfeabbaf11000151ed4cd,2020-12-03_00h21.19.364,lexical_decision_task_MP_exp2,2020.2.8,MacIntel,60,m,1,0.46484,,,,,,,,0.46484,1,,,,,,237,WORD,"ID",33,poster,POSTER,m,,,,,,-0.065091146,-0.387673611,0,0,0,,0,280,280,56,1,,
,,,,,,,,,,,,,,,,,,5d3cfeabbaf11000151ed4cd,2020-12-03_00h21.19.364,lexical_decision_task_MP_exp2,2020.2.8,MacIntel,60,m,1,0.56711,,,,,,,,0.56711,1,,,,,,18,WORD,"ID",16,humble,HUMBLE,m,,,,,,-0.065091146,-0.387673611,0,0,0,,0,281,281,77,1,,
,,,,,,,,,,,,,,,,,,5d3cfeabbaf11000151ed4cd,2020-12-03_00h21.19.364,lexical_decision_task_MP_exp2,2020.2.8,MacIntel,60,z,1,0.765175,,,,,,,,0.765175,1,,,,,,432,NW,"ID",33,lunker,LUNKER,z,,,,,,-0.065091146,-0.387673611,0,0,0,,0,282,282,251,1,,
,,,,,,,,,,,,,,,,,,5d3cfeabbaf11000151ed4cd,2020-12-03_00h21.19.364,lexical_decision_task_MP_exp2,2020.2.8,MacIntel,60,m,1,0.59789,,,,,,,,0.59789,1,,,,,,3,WORD,"ID",16,knight,KNIGHT,m,,,,,,-0.065091146,-0.387673611,0,0,0,,0,283,283,62,1,,
,,,,,,,,,,,,,,,,,,5d3cfeabbaf11000151ed4cd,2020-12-03_00h21.19.364,lexical_decision_task_MP_exp2,2020.2.8,MacIntel,60,z,1,0.66749,,,,,,,,0.66749,1,,,,,,459,NW,"ID",33,bafent,BAFENT,z,,,,,,-0.065091146,-0.387673611,0,0,0,,0,284,284,278,1,,
,,,,,,,,,,,,,,,,,,5d3cfeabbaf11000151ed4cd,2020-12-03_00h21.19.364,lexical_decision_task_MP_exp2,2020.2.8,MacIntel,60,m,1,0.66758,,,,,,,,0.66758,1,,,,,,196,WORD,"ID",33,credit,CREDIT,m,,,,,,-0.065091146,-0.387673611,0,0,0,,0,285,285,15,1,,
,,,,,,,,,,,,,,,,,,5d3cfeabbaf11000151ed4cd,2020-12-03_00h21.19.364,lexical_decision_task_MP_exp2,2020.2.8,MacIntel,60,z,1,0.6564,,,,,,,,0.6564,1,,,,,,375,NW,UN,16,iguare,YORQUE,z,,,,,,-0.065091146,-0.387673611,0,0,0,,0,286,286,434,1,,
,,,,,,,,,,,,,,,,,,5d3cfeabbaf11000151ed4cd,2020-12-03_00h21.19.364,lexical_decision_task_MP_exp2,2020.2.8,MacIntel,60,m,1,0.708295,,,,,,,,0.708295,1,,,,,,76,WORD,UN,33,racket,EXOTIC,m,,,,,,-0.065091146,-0.387673611,0,0,0,,0,287,287,135,1,,
,,,,,,,,,,,,,,,,,,5d3cfeabbaf11000151ed4cd,2020-12-03_00h21.19.364,lexical_decision_task_MP_exp2,2020.2.8,MacIntel,60,z,1,0.70732,,,,,,,,0.70732,1,,,,,,302,NW,UN,33,fiream,MILUER,z,,,,,,-0.065091146,-0.387673611,0,0,0,,0,288,288,361,1,,
,,,,,,,,,,,,,,,,,,5d3cfeabbaf11000151ed4cd,2020-12-03_00h21.19.364,lexical_decision_task_MP_exp2,2020.2.8,MacIntel,60,m,1,0.55094,,,,,,,,0.55094,1,,,,,,204,WORD,"ID",33,burden,BURDEN,m,,,,,,-0.065091146,-0.387673611,0,0,0,,0,289,289,23,1,,
,,,,,,,,,,,,,,,,,,5d3cfeabbaf11000151ed4cd,2020-12-03_00h21.19.364,lexical_decision_task_MP_exp2,2020.2.8,MacIntel,60,z,1,0.588075,,,,,,,,0.588075,1,,,,,,458,NW,"ID",33,barcet,BARCET,z,,,,,,-0.065091146,-0.387673611,0,0,0,,0,290,290,277,1,,
,,,,,,,,,,,,,,,,,,5d3cfeabbaf11000151ed4cd,2020-12-03_00h21.19.364,lexical_decision_task_MP_exp2,2020.2.8,MacIntel,60,z,0,0.71782,,,,,,,,0.71782,0,,,,,,176,WORD,UN,16,advent,STRIFE,m,,,,,,-0.065091146,-0.387673611,0,0,0,,0,291,291,235,1,,
,,,,,,,,,,,,,,,,,,5d3cfeabbaf11000151ed4cd,2020-12-03_00h21.19.364,lexical_decision_task_MP_exp2,2020.2.8,MacIntel,60,z,1,0.684065,,,,,,,,0.684065,1,,,,,,467,NW,"ID",33,gorbie,GORBIE,z,,,,,,-0.065091146,-0.387673611,0,0,0,,0,292,292,286,1,,
,,,,,,,,,,,,,,,,,,5d3cfeabbaf11000151ed4cd,2020-12-03_00h21.19.364,lexical_decision_task_MP_exp2,2020.2.8,MacIntel,60,z,1,0.620585,,,,,,,,0.620585,1,,,,,,405,NW,UN,16,nouply,FLUMNI,z,,,,,,-0.065091146,-0.387673611,0,0,0,,0,293,293,464,1,,
,,,,,,,,,,,,,,,,,,5d3cfeabbaf11000151ed4cd,2020-12-03_00h21.19.364,lexical_decision_task_MP_exp2,2020.2.8,MacIntel,60,m,1,0.600225,,,,,,,,0.600225,1,,,,,,2,WORD,"ID",16,bridge,BRIDGE,m,,,,,,-0.065091146,-0.387673611,0,0,0,,0,294,294,61,1,,
,,,,,,,,,,,,,,,,,,5d3cfeabbaf11000151ed4cd,2020-12-03_00h21.19.364,lexical_decision_task_MP_exp2,2020.2.8,MacIntel,60,m,1,1.08996,,,,,,,,1.08996,1,,,,,,163,WORD,UN,16,market,STRING,m,,,,,,-0.065091146,-0.387673611,0,0,0,,0,295,295,222,1,,
,,,,,,,,,,,,,,,,,,5d3cfeabbaf11000151ed4cd,2020-12-03_00h21.19.364,lexical_decision_task_MP_exp2,2020.2.8,MacIntel,60,z,1,0.6549,,,,,,,,0.6549,1,,,,,,361,NW,UN,16,tireau,PAUCHE,z,,,,,,-0.065091146,-0.387673611,0,0,0,,0,296,296,420,1,,
,,,,,,,,,,,,,,,,,,5d3cfeabbaf11000151ed4cd,2020-12-03_00h21.19.364,lexical_decision_task_MP_exp2,2020.2.8,MacIntel,60,m,1,0.71692,,,,,,,,0.71692,1,,,,,,6,WORD,"ID",16,bundle,BUNDLE,m,,,,,,-0.065091146,-0.387673611,0,0,0,,0,297,297,65,1,,
,,,,,,,,,,,,,,,,,,5d3cfeabbaf11000151ed4cd,2020-12-03_00h21.19.364,lexical_decision_task_MP_exp2,2020.2.8,MacIntel,60,z,1,0.884855,,,,,,,,0.884855,1,,,,,,389,NW,UN,16,hatrus,WITMER,z,,,,,,-0.065091146,-0.387673611,0,0,0,,0,298,298,448,1,,
,,,,,,,,,,,,,,,,,,5d3cfeabbaf11000151ed4cd,2020-12-03_00h21.19.364,lexical_decision_task_MP_exp2,2020.2.8,MacIntel,60,m,1,0.650015,,,,,,,,0.650015,1,,,,,,159,WORD,UN,16,violet,DETAIL,m,,,,,,-0.065091146,-0.387673611,0,0,0,,0,299,299,218,1,,
,,,,,,,,,,,,,,,,,,5d3cfeabbaf11000151ed4cd,2020-12-03_00h21.19.364,lexical_decision_task_MP_exp2,2020.2.8,MacIntel,60,m,1,0.75355,,,,,,,,0.75355,1,,,,,,41,WORD,"ID",16,spring,SPRING,m,,,,,,-0.065091146,-0.387673611,0,0,0,,0,300,300,100,1,,
,,,,,,,,,,,,,,,,,,5d3cfeabbaf11000151ed4cd,2020-12-03_00h21.19.364,lexical_decision_task_MP_exp2,2020.2.8,MacIntel,60,m,1,1.01544,,,,,,,,1.01544,1,,,,,,135,WORD,UN,16,bleach,IMPORT,m,,,,,,-0.065091146,-0.387673611,0,0,0,,0,301,301,194,1,,
,,,,,,,,,,,,,,,,,,5d3cfeabbaf11000151ed4cd,2020-12-03_00h21.19.364,lexical_decision_task_MP_exp2,2020.2.8,MacIntel,60,m,1,0.500035,,,,,,,,0.500035,1,,,,,,93,WORD,UN,33,travel,PUBLIC,m,,,,,,-0.065091146,-0.387673611,0,0,0,,0,302,302,152,1,,
,,,,,,,,,,,,,,,,,,5d3cfeabbaf11000151ed4cd,2020-12-03_00h21.19.364,lexical_decision_task_MP_exp2,2020.2.8,MacIntel,60,z,1,0.61876,,,,,,,,0.61876,1,,,,,,255,NW,"ID",16,apight,APIGHT,z,,,,,,-0.065091146,-0.387673611,0,0,0,,0,303,303,314,1,,
,,,,,,,,,,,,,,,,,,5d3cfeabbaf11000151ed4cd,2020-12-03_00h21.19.364,lexical_decision_task_MP_exp2,2020.2.8,MacIntel,60,z,1,0.707105,,,,,,,,0.707105,1,,,,,,252,NW,"ID",16,stapod,STAPOD,z,,,,,,-0.065091146,-0.387673611,0,0,0,,0,304,304,311,1,,
,,,,,,,,,,,,,,,,,,5d3cfeabbaf11000151ed4cd,2020-12-03_00h21.19.364,lexical_decision_task_MP_exp2,2020.2.8,MacIntel,60,z,1,0.99737,,,,,,,,0.99737,1,,,,,,464,NW,"ID",33,chaite,CHAITE,z,,,,,,-0.065091146,-0.387673611,0,0,0,,0,305,305,283,1,,
,,,,,,,,,,,,,,,,,,5d3cfeabbaf11000151ed4cd,2020-12-03_00h21.19.364,lexical_decision_task_MP_exp2,2020.2.8,MacIntel,60,m,1,0.5857,,,,,,,,0.5857,1,,,,,,130,WORD,UN,16,quench,STUPID,m,,,,,,-0.065091146,-0.387673611,0,0,0,,0,306,306,189,1,,
,,,,,,,,,,,,,,,,,,5d3cfeabbaf11000151ed4cd,2020-12-03_00h21.19.364,lexical_decision_task_MP_exp2,2020.2.8,MacIntel,60,m,1,0.62143,,,,,,,,0.62143,1,,,,,,123,WORD,UN,16,blouse,STRIKE,m,,,,,,-0.065091146,-0.387673611,0,0,0,,0,307,307,182,1,,
,,,,,,,,,,,,,,,,,,5d3cfeabbaf11000151ed4cd,2020-12-03_00h21.19.364,lexical_decision_task_MP_exp2,2020.2.8,MacIntel,60,m,1,0.63288,,,,,,,,0.63288,1,,,,,,62,WORD,UN,33,launch,REGION,m,,,,,,-0.065091146,-0.387673611,0,0,0,,0,308,308,121,1,,
,,,,,,,,,,,,,,,,,,5d3cfeabbaf11000151ed4cd,2020-12-03_00h21.19.364,lexical_decision_task_MP_exp2,2020.2.8,MacIntel,60,z,1,0.71747,,,,,,,,0.71747,1,,,,,,388,NW,UN,16,witmer,CRAGIN,z,,,,,,-0.065091146,-0.387673611,0,0,0,,0,309,309,447,1,,
,,,,,,,,,,,,,,,,,,5d3cfeabbaf11000151ed4cd,2020-12-03_00h21.19.364,lexical_decision_task_MP_exp2,2020.2.8,MacIntel,60,m,1,0.733935,,,,,,,,0.733935,1,,,,,,38,WORD,"ID",16,powder,POWDER,m,,,,,,-0.065091146,-0.387673611,0,0,0,,0,310,310,97,1,,
,,,,,,,,,,,,,,,,,,5d3cfeabbaf11000151ed4cd,2020-12-03_00h21.19.364,lexical_decision_task_MP_exp2,2020.2.8,MacIntel,60,m,1,0.75438,,,,,,,,0.75438,1,,,,,,49,WORD,"ID",16,survey,SURVEY,m,,,,,,-0.065091146,-0.387673611,0,0,0,,0,311,311,108,1,,
,,,,,,,,,,,,,,,,,,5d3cfeabbaf11000151ed4cd,2020-12-03_00h21.19.364,lexical_decision_task_MP_exp2,2020.2.8,MacIntel,60,z,1,0.582865,,,,,,,,0.582865,1,,,,,,430,NW,"ID",33,caroey,CAROEY,z,,,,,,-0.065091146,-0.387673611,0,0,0,,0,312,312,249,1,,
,,,,,,,,,,,,,,,,,,5d3cfeabbaf11000151ed4cd,2020-12-03_00h21.19.364,lexical_decision_task_MP_exp2,2020.2.8,MacIntel,60,m,1,0.582425,,,,,,,,0.582425,1,,,,,,53,WORD,"ID",16,police,POLICE,m,,,,,,-0.065091146,-0.387673611,0,0,0,,0,313,313,112,1,,
,,,,,,,,,,,,,,,,,,5d3cfeabbaf11000151ed4cd,2020-12-03_00h21.19.364,lexical_decision_task_MP_exp2,2020.2.8,MacIntel,60,m,1,0.533785,,,,,,,,0.533785,1,,,,,,211,WORD,"ID",33,infect,INFECT,m,,,,,,-0.065091146,-0.387673611,0,0,0,,0,314,314,30,1,,
,,,,,,,,,,,,,,,,,,5d3cfeabbaf11000151ed4cd,2020-12-03_00h21.19.364,lexical_decision_task_MP_exp2,2020.2.8,MacIntel,60,z,1,0.68229,,,,,,,,0.68229,1,,,,,,300,NW,"ID",16,yarion,YARION,z,,,,,,-0.065091146,-0.387673611,0,0,0,,0,315,315,359,1,,
,,,,,,,,,,,,,,,,,,5d3cfeabbaf11000151ed4cd,2020-12-03_00h21.19.364,lexical_decision_task_MP_exp2,2020.2.8,MacIntel,60,m,1,0.65016,,,,,,,,0.65016,1,,,,,,24,WORD,"ID",16,praise,PRAISE,m,,,,,,-0.065091146,-0.387673611,0,0,0,,0,316,316,83,1,,
,,,,,,,,,,,,,,,,,,5d3cfeabbaf11000151ed4cd,2020-12-03_00h21.19.364,lexical_decision_task_MP_exp2,2020.2.8,MacIntel,60,z,1,0.684995,,,,,,,,0.684995,1,,,,,,428,NW,"ID",33,tandly,TANDLY,z,,,,,,-0.065091146,-0.387673611,0,0,0,,0,317,317,247,1,,
,,,,,,,,,,,,,,,,,,5d3cfeabbaf11000151ed4cd,2020-12-03_00h21.19.364,lexical_decision_task_MP_exp2,2020.2.8,MacIntel,60,z,1,0.737585,,,,,,,,0.737585,1,,,,,,377,NW,UN,16,shrile,INJORE,z,,,,,,-0.065091146,-0.387673611,0,0,0,,0,318,318,436,1,,
,,,,,,,,,,,,,,,,,,5d3cfeabbaf11000151ed4cd,2020-12-03_00h21.19.364,lexical_decision_task_MP_exp2,2020.2.8,MacIntel,60,z,1,0.58011,,,,,,,,0.58011,1,,,,,,292,NW,"ID",16,ablint,ABLINT,z,,,,,,-0.065091146,-0.387673611,0,0,0,,0,319,319,351,1,,
,,,,,,,,,,,,,,,,,,5d3cfeabbaf11000151ed4cd,2020-12-03_00h21.19.364,lexical_decision_task_MP_exp2,2020.2.8,MacIntel,60,z,1,0.588975,,,,,,,,0.588975,1,,,,,,436,NW,"ID",33,frutan,FRUTAN,z,,,,,,-0.065091146,-0.387673611,0,0,0,,0,320,320,255,1,,
,,,,,,,,,,,,,,,,,,5d3cfeabbaf11000151ed4cd,2020-12-03_00h21.19.364,lexical_decision_task_MP_exp2,2020.2.8,MacIntel,60,z,1,0.64865,,,,,,,,0.64865,1,,,,,,286,NW,"ID",16,reldon,RELDON,z,,,,,,-0.065091146,-0.387673611,0,0,0,,0,321,321,345,1,,
,,,,,,,,,,,,,,,,,,5d3cfeabbaf11000151ed4cd,2020-12-03_00h21.19.364,lexical_decision_task_MP_exp2,2020.2.8,MacIntel,60,z,1,0.53504,,,,,,,,0.53504,1,,,,,,295,NW,"ID",16,gleath,GLEATH,z,,,,,,-0.065091146,-0.387673611,0,0,0,,0,322,322,354,1,,
,,,,,,,,,,,,,,,,,,5d3cfeabbaf11000151ed4cd,2020-12-03_00h21.19.364,lexical_decision_task_MP_exp2,2020.2.8,MacIntel,60,m,1,0.588695,,,,,,,,0.588695,1,,,,,,141,WORD,UN,16,spruce,ORPHAN,m,,,,,,-0.065091146,-0.387673611,0,0,0,,0,323,323,200,1,,
,,,,,,,,,,,,,,,,,,5d3cfeabbaf11000151ed4cd,2020-12-03_00h21.19.364,lexical_decision_task_MP_exp2,2020.2.8,MacIntel,60,m,1,0.468035,,,,,,,,0.468035,1,,,,,,215,WORD,"ID",33,phobia,PHOBIA,m,,,,,,-0.065091146,-0.387673611,0,0,0,,0,324,324,34,1,,
,,,,,,,,,,,,,,,,,,5d3cfeabbaf11000151ed4cd,2020-12-03_00h21.19.364,lexical_decision_task_MP_exp2,2020.2.8,MacIntel,60,m,1,0.492555,,,,,,,,0.492555,1,,,,,,227,WORD,"ID",33,seldom,SELDOM,m,,,,,,-0.065091146,-0.387673611,0,0,0,,0,325,325,46,1,,
,,,,,,,,,,,,,,,,,,5d3cfeabbaf11000151ed4cd,2020-12-03_00h21.19.364,lexical_decision_task_MP_exp2,2020.2.8,MacIntel,60,z,1,0.83331,,,,,,,,0.83331,1,,,,,,397,NW,UN,16,blunde,CAMBLE,z,,,,,,-0.065091146,-0.387673611,0,0,0,,0,326,326,456,1,,
,,,,,,,,,,,,,,,,,,5d3cfeabbaf11000151ed4cd,2020-12-03_00h21.19.364,lexical_decision_task_MP_exp2,2020.2.8,MacIntel,60,z,1,0.50439,,,,,,,,0.50439,1,,,,,,429,NW,"ID",33,funtle,FUNTLE,z,,,,,,-0.065091146,-0.387673611,0,0,0,,0,327,327,248,1,,
,,,,,,,,,,,,,,,,,,5d3cfeabbaf11000151ed4cd,2020-12-03_00h21.19.364,lexical_decision_task_MP_exp2,2020.2.8,MacIntel,60,m,1,0.571765,,,,,,,,0.571765,1,,,,,,70,WORD,UN,33,garden,SQUARE,m,,,,,,-0.065091146,-0.387673611,0,0,0,,0,328,328,129,1,,
,,,,,,,,,,,,,,,,,,5d3cfeabbaf11000151ed4cd,2020-12-03_00h21.19.364,lexical_decision_task_MP_exp2,2020.2.8,MacIntel,60,m,1,0.519365,,,,,,,,0.519365,1,,,,,,60,WORD,"ID",16,pencil,PENCIL,m,,,,,,-0.065091146,-0.387673611,0,0,0,,0,329,329,119,1,,
,,,,,,,,,,,,,,,,,,5d3cfeabbaf11000151ed4cd,2020-12-03_00h21.19.364,lexical_decision_task_MP_exp2,2020.2.8,MacIntel,60,m,1,0.563815,,,,,,,,0.563815,1,,,,,,78,WORD,UN,33,theory,COLUMN,m,,,,,,-0.065091146,-0.387673611,0,0,0,,0,330,330,137,1,,
,,,,,,,,,,,,,,,,,,5d3cfeabbaf11000151ed4cd,2020-12-03_00h21.19.364,lexical_decision_task_MP_exp2,2020.2.8,MacIntel,60,m,1,0.650625,,,,,,,,0.650625,1,,,,,,160,WORD,UN,16,pastor,VIOLET,m,,,,,,-0.065091146,-0.387673611,0,0,0,,0,331,331,219,1,,
,,,,,,,,,,,,,,,,,,5d3cfeabbaf11000151ed4cd,2020-12-03_00h21.19.364,lexical_decision_task_MP_exp2,2020.2.8,MacIntel,60,m,1,0.51865,,,,,,,,0.51865,1,,,,,,147,WORD,UN,16,custom,GARLIC,m,,,,,,-0.065091146,-0.387673611,0,0,0,,0,332,332,206,1,,
,,,,,,,,,,,,,,,,,,5d3cfeabbaf11000151ed4cd,2020-12-03_00h21.19.364,lexical_decision_task_MP_exp2,2020.2.8,MacIntel,60,z,1,0.720875,,,,,,,,0.720875,1,,,,,,372,NW,UN,16,bigent,RAMILY,z,,,,,,-0.065091146,-0.387673611,0,0,0,,0,333,333,431,1,,
,,,,,,,,,,,,,,,,,,5d3cfeabbaf11000151ed4cd,2020-12-03_00h21.19.364,lexical_decision_task_MP_exp2,2020.2.8,MacIntel,60,z,0,0.485945,,,,,,,,0.485945,0,,,,,,12,WORD,"ID",16,orange,ORANGE,m,,,,,,-0.065091146,-0.387673611,0,0,0,,0,334,334,71,1,,
,,,,,,,,,,,,,,,,,,5d3cfeabbaf11000151ed4cd,2020-12-03_00h21.19.364,lexical_decision_task_MP_exp2,2020.2.8,MacIntel,60,z,1,0.67563,,,,,,,,0.67563,1,,,,,,310,NW,UN,33,sproly,DANIET,z,,,,,,-0.065091146,-0.387673611,0,0,0,,0,335,335,369,1,,
,,,,,,,,,,,,,,,,,,5d3cfeabbaf11000151ed4cd,2020-12-03_00h21.19.364,lexical_decision_task_MP_exp2,2020.2.8,MacIntel,60,z,1,0.683785,,,,,,,,0.683785,1,,,,,,338,NW,UN,33,fachow,WREASH,z,,,,,,-0.065091146,-0.387673611,0,0,0,,0,336,336,397,1,,
,,,,,,,,,,,,,,,,,,5d3cfeabbaf11000151ed4cd,2020-12-03_00h21.19.364,lexical_decision_task_MP_exp2,2020.2.8,MacIntel,60,z,1,0.66669,,,,,,,,0.66669,1,,,,,,435,NW,"ID",33,impurb,IMPURB,z,,,,,,-0.065091146,-0.387673611,0,0,0,,0,337,337,254,1,,
,,,,,,,,,,,,,,,,,,5d3cfeabbaf11000151ed4cd,2020-12-03_00h21.19.364,lexical_decision_task_MP_exp2,2020.2.8,MacIntel,60,m,1,0.51562,,,,,,,,0.51562,1,,,,,,153,WORD,UN,16,author,BEHOLD,m,,,,,,-0.065091146,-0.387673611,0,0,0,,0,338,338,212,1,,
,,,,,,,,,,,,,,,,,,5d3cfeabbaf11000151ed4cd,2020-12-03_00h21.19.364,lexical_decision_task_MP_exp2,2020.2.8,MacIntel,60,m,1,0.54943,,,,,,,,0.54943,1,,,,,,140,WORD,UN,16,chrome,PRINCE,m,,,,,,-0.065091146,-0.387673611,0,0,0,,0,339,339,199,1,,
,,,,,,,,,,,,,,,,,,5d3cfeabbaf11000151ed4cd,2020-12-03_00h21.19.364,lexical_decision_task_MP_exp2,2020.2.8,MacIntel,60,m,1,0.552135,,,,,,,,0.552135,1,,,,,,54,WORD,"ID",16,ramble,RAMBLE,m,,,,,,-0.065091146,-0.387673611,0,0,0,,0,340,340,113,1,,
,,,,,,,,,,,,,,,,,,5d3cfeabbaf11000151ed4cd,2020-12-03_00h21.19.364,lexical_decision_task_MP_exp2,2020.2.8,MacIntel,60,m,1,0.56717,,,,,,,,0.56717,1,,,,,,117,WORD,UN,33,flight,BRANCH,m,,,,,,-0.065091146,-0.387673611,0,0,0,,0,341,341,176,1,,
,,,,,,,,,,,,,,,,,,5d3cfeabbaf11000151ed4cd,2020-12-03_00h21.19.364,lexical_decision_task_MP_exp2,2020.2.8,MacIntel,60,m,1,0.50391,,,,,,,,0.50391,1,,,,,,225,WORD,"ID",33,vulgar,VULGAR,m,,,,,,-0.065091146,-0.387673611,0,0,0,,0,342,342,44,1,,
,,,,,,,,,,,,,,,,,,5d3cfeabbaf11000151ed4cd,2020-12-03_00h21.19.364,lexical_decision_task_MP_exp2,2020.2.8,MacIntel,60,m,1,0.482205,,,,,,,,0.482205,1,,,,,,210,WORD,"ID",33,monkey,MONKEY,m,,,,,,-0.065091146,-0.387673611,0,0,0,,0,343,343,29,1,,
,,,,,,,,,,,,,,,,,,5d3cfeabbaf11000151ed4cd,2020-12-03_00h21.19.364,lexical_decision_task_MP_exp2,2020.2.8,MacIntel,60,m,1,0.519575,,,,,,,,0.519575,1,,,,,,107,WORD,UN,33,reckon,SLOGAN,m,,,,,,-0.065091146,-0.387673611,0,0,0,,0,344,344,166,1,,
,,,,,,,,,,,,,,,,,,5d3cfeabbaf11000151ed4cd,2020-12-03_00h21.19.364,lexical_decision_task_MP_exp2,2020.2.8,MacIntel,60,m,1,0.45391,,,,,,,,0.45391,1,,,,,,44,WORD,"ID",16,danger,DANGER,m,,,,,,-0.065091146,-0.387673611,0,0,0,,0,345,345,103,1,,
,,,,,,,,,,,,,,,,,,5d3cfeabbaf11000151ed4cd,2020-12-03_00h21.19.364,lexical_decision_task_MP_exp2,2020.2.8,MacIntel,60,z,1,0.58925,,,,,,,,0.58925,1,,,,,,251,NW,"ID",16,lupict,LUPICT,z,,,,,,-0.065091146,-0.387673611,0,0,0,,0,346,346,310,1,,
,,,,,,,,,,,,,,,,,,5d3cfeabbaf11000151ed4cd,2020-12-03_00h21.19.364,lexical_decision_task_MP_exp2,2020.2.8,MacIntel,60,z,1,0.496605,,,,,,,,0.496605,1,,,,,,273,NW,"ID",16,sortel,SORTEL,z,,,,,,-0.065091146,-0.387673611,0,0,0,,0,347,347,332,1,,
,,,,,,,,,,,,,,,,,,5d3cfeabbaf11000151ed4cd,2020-12-03_00h21.19.364,lexical_decision_task_MP_exp2,2020.2.8,MacIntel,60,m,1,0.58876,,,,,,,,0.58876,1,,,,,,92,WORD,UN,33,public,STRAND,m,,,,,,-0.065091146,-0.387673611,0,0,0,,0,348,348,151,1,,
,,,,,,,,,,,,,,,,,,5d3cfeabbaf11000151ed4cd,2020-12-03_00h21.19.364,lexical_decision_task_MP_exp2,2020.2.8,MacIntel,60,z,1,0.67191,,,,,,,,0.67191,1,,,,,,382,NW,UN,16,aungre,SARLEY,z,,,,,,-0.065091146,-0.387673611,0,0,0,,0,349,349,441,1,,
,,,,,,,,,,,,,,,,,,5d3cfeabbaf11000151ed4cd,2020-12-03_00h21.19.364,lexical_decision_task_MP_exp2,2020.2.8,MacIntel,60,m,1,0.58546,,,,,,,,0.58546,1,,,,,,218,WORD,"ID",33,shrink,SHRINK,m,,,,,,-0.065091146,-0.387673611,0,0,0,,0,350,350,37,1,,
,,,,,,,,,,,,,,,,,,5d3cfeabbaf11000151ed4cd,2020-12-03_00h21.19.364,lexical_decision_task_MP_exp2,2020.2.8,MacIntel,60,m,1,0.66692,,,,,,,,0.66692,1,,,,,,224,WORD,"ID",33,period,PERIOD,m,,,,,,-0.065091146,-0.387673611,0,0,0,,0,351,351,43,1,,
,,,,,,,,,,,,,,,,,,5d3cfeabbaf11000151ed4cd,2020-12-03_00h21.19.364,lexical_decision_task_MP_exp2,2020.2.8,MacIntel,60,z,1,0.60495,,,,,,,,0.60495,1,,,,,,277,NW,"ID",16,petain,PETAIN,z,,,,,,-0.065091146,-0.387673611,0,0,0,,0,352,352,336,1,,
,,,,,,,,,,,,,,,,,,5d3cfeabbaf11000151ed4cd,2020-12-03_00h21.19.364,lexical_decision_task_MP_exp2,2020.2.8,MacIntel,60,z,1,0.73519,,,,,,,,0.73519,1,,,,,,409,NW,UN,16,tunory,ELOPIA,z,,,,,,-0.065091146,-0.387673611,0,0,0,,0,353,353,468,1,,
,,,,,,,,,,,,,,,,,,5d3cfeabbaf11000151ed4cd,2020-12-03_00h21.19.364,lexical_decision_task_MP_exp2,2020.2.8,MacIntel,60,m,1,0.482435,,,,,,,,0.482435,1,,,,,,212,WORD,"ID",33,verify,VERIFY,m,,,,,,-0.065091146,-0.387673611,0,0,0,,0,354,354,31,1,,
,,,,,,,,,,,,,,,,,,5d3cfeabbaf11000151ed4cd,2020-12-03_00h21.19.364,lexical_decision_task_MP_exp2,2020.2.8,MacIntel,60,z,1,0.656455,,,,,,,,0.656455,1,,,,,,271,NW,"ID",16,aubrid,AUBRID,z,,,,,,-0.065091146,-0.387673611,0,0,0,,0,355,355,330,1,,
,,,,,,,,,,,,,,,,,,5d3cfeabbaf11000151ed4cd,2020-12-03_00h21.19.364,lexical_decision_task_MP_exp2,2020.2.8,MacIntel,60,z,1,0.567505,,,,,,,,0.567505,1,,,,,,366,NW,UN,16,slique,TOSHEL,z,,,,,,-0.065091146,-0.387673611,0,0,0,,0,356,356,425,1,,
,,,,,,,,,,,,,,,,,,5d3cfeabbaf11000151ed4cd,2020-12-03_00h21.19.364,lexical_decision_task_MP_exp2,2020.2.8,MacIntel,60,m,1,0.507275,,,,,,,,0.507275,1,,,,,,105,WORD,UN,33,ransom,NUMBER,m,,,,,,-0.065091146,-0.387673611,0,0,0,,0,357,357,164,1,,
,,,,,,,,,,,,,,,,,,5d3cfeabbaf11000151ed4cd,2020-12-03_00h21.19.364,lexical_decision_task_MP_exp2,2020.2.8,MacIntel,60,z,1,0.702895,,,,,,,,0.702895,1,,,,,,241,NW,"ID",16,smenco,SMENCO,z,,,,,,-0.065091146,-0.387673611,0,0,0,,0,358,358,300,1,,
,,,,,,,,,,,,,,,,,,5d3cfeabbaf11000151ed4cd,2020-12-03_00h21.19.364,lexical_decision_task_MP_exp2,2020.2.8,MacIntel,60,m,1,0.59682,,,,,,,,0.59682,1,,,,,,137,WORD,UN,16,melody,FINGER,m,,,,,,-0.065091146,-0.387673611,0,0,0,,0,359,359,196,1,,
,,,,,,,,,,,,,,,,,,5d3cfeabbaf11000151ed4cd,2020-12-03_00h21.19.364,lexical_decision_task_MP_exp2,2020.2.8,MacIntel,60,m,1,0.550155,,,,,,,,0.550155,1,,,,,,127,WORD,UN,16,senior,CASTLE,m,,,,,,-0.065091146,-0.387673611,0,0,0,,0,360,360,186,1,,
,,,,,,,,,,,,,,,,,,5d3cfeabbaf11000151ed4cd,2020-12-03_00h21.19.364,lexical_decision_task_MP_exp2,2020.2.8,MacIntel,60,m,1,0.53358,,,,,,,,0.53358,1,,,,,,75,WORD,UN,33,exotic,TROPHY,m,,,,,,-0.065091146,-0.387673611,0,0,0,,0,361,361,134,1,,
,,,,,,,,,,,,,,,,,,5d3cfeabbaf11000151ed4cd,2020-12-03_00h21.19.364,lexical_decision_task_MP_exp2,2020.2.8,MacIntel,60,m,1,0.489225,,,,,,,,0.489225,1,,,,,,95,WORD,UN,33,ignore,THREAD,m,,,,,,-0.065091146,-0.387673611,0,0,0,space,0,362,362,154,1,,5.430195
,,,,,,,,,,,,,,,,,,5d3cfeabbaf11000151ed4cd,2020-12-03_00h21.19.364,lexical_decision_task_MP_exp2,2020.2.8,MacIntel,60,m,1,0.561815,,,,,,,,0.561815,1,,,,,,51,WORD,"ID",16,hungry,HUNGRY,m,,,,,,-0.065091146,-0.387673611,0,0,0,,0,363,363,110,1,,
,,,,,,,,,,,,,,,,,,5d3cfeabbaf11000151ed4cd,2020-12-03_00h21.19.364,lexical_decision_task_MP_exp2,2020.2.8,MacIntel,60,z,1,0.549765,,,,,,,,0.549765,1,,,,,,306,NW,UN,33,kirafe,SOUNGE,z,,,,,,-0.065091146,-0.387673611,0,0,0,,0,364,364,365,1,,
,,,,,,,,,,,,,,,,,,5d3cfeabbaf11000151ed4cd,2020-12-03_00h21.19.364,lexical_decision_task_MP_exp2,2020.2.8,MacIntel,60,m,1,0.67058,,,,,,,,0.67058,1,,,,,,148,WORD,UN,16,invade,CUSTOM,m,,,,,,-0.065091146,-0.387673611,0,0,0,,0,365,365,207,1,,
,,,,,,,,,,,,,,,,,,5d3cfeabbaf11000151ed4cd,2020-12-03_00h21.19.364,lexical_decision_task_MP_exp2,2020.2.8,MacIntel,60,m,1,0.55775,,,,,,,,0.55775,1,,,,,,217,WORD,"ID",33,liquor,LIQUOR,m,,,,,,-0.065091146,-0.387673611,0,0,0,,0,366,366,36,1,,
,,,,,,,,,,,,,,,,,,5d3cfeabbaf11000151ed4cd,2020-12-03_00h21.19.364,lexical_decision_task_MP_exp2,2020.2.8,MacIntel,60,m,0,0.64989,,,,,,,,0.64989,0,,,,,,355,NW,UN,33,othnis,ZINGLY,z,,,,,,-0.065091146,-0.387673611,0,0,0,,0,367,367,414,1,,
,,,,,,,,,,,,,,,,,,5d3cfeabbaf11000151ed4cd,2020-12-03_00h21.19.364,lexical_decision_task_MP_exp2,2020.2.8,MacIntel,60,z,1,0.56994,,,,,,,,0.56994,1,,,,,,393,NW,UN,16,spaqux,GANOUS,z,,,,,,-0.065091146,-0.387673611,0,0,0,,0,368,368,452,1,,
,,,,,,,,,,,,,,,,,,5d3cfeabbaf11000151ed4cd,2020-12-03_00h21.19.364,lexical_decision_task_MP_exp2,2020.2.8,MacIntel,60,m,1,0.66761,,,,,,,,0.66761,1,,,,,,90,WORD,UN,33,expand,RELISH,m,,,,,,-0.065091146,-0.387673611,0,0,0,,0,369,369,149,1,,
,,,,,,,,,,,,,,,,,,5d3cfeabbaf11000151ed4cd,2020-12-03_00h21.19.364,lexical_decision_task_MP_exp2,2020.2.8,MacIntel,60,z,1,0.652495,,,,,,,,0.652495,1,,,,,,368,NW,UN,16,wronch,HORNAL,z,,,,,,-0.065091146,-0.387673611,0,0,0,,0,370,370,427,1,,
,,,,,,,,,,,,,,,,,,5d3cfeabbaf11000151ed4cd,2020-12-03_00h21.19.364,lexical_decision_task_MP_exp2,2020.2.8,MacIntel,60,z,1,0.58071,,,,,,,,0.58071,1,,,,,,328,NW,UN,33,yarike,BROAKE,z,,,,,,-0.065091146,-0.387673611,0,0,0,,0,371,371,387,1,,
,,,,,,,,,,,,,,,,,,5d3cfeabbaf11000151ed4cd,2020-12-03_00h21.19.364,lexical_decision_task_MP_exp2,2020.2.8,MacIntel,60,z,1,0.500795,,,,,,,,0.500795,1,,,,,,331,NW,UN,33,vangue,GILFEW,z,,,,,,-0.065091146,-0.387673611,0,0,0,,0,372,372,390,1,,
,,,,,,,,,,,,,,,,,,5d3cfeabbaf11000151ed4cd,2020-12-03_00h21.19.364,lexical_decision_task_MP_exp2,2020.2.8,MacIntel,60,z,1,0.531085,,,,,,,,0.531085,1,,,,,,343,NW,UN,33,scrily,AIMOSY,z,,,,,,-0.065091146,-0.387673611,0,0,0,,0,373,373,402,1,,
,,,,,,,,,,,,,,,,,,5d3cfeabbaf11000151ed4cd,2020-12-03_00h21.19.364,lexical_decision_task_MP_exp2,2020.2.8,MacIntel,60,z,0,0.452875,,,,,,,,0.452875,0,,,,,,82,WORD,UN,33,result,STIGMA,m,,,,,,-0.065091146,-0.387673611,0,0,0,,0,374,374,141,1,,
,,,,,,,,,,,,,,,,,,5d3cfeabbaf11000151ed4cd,2020-12-03_00h21.19.364,lexical_decision_task_MP_exp2,2020.2.8,MacIntel,60,z,1,0.63443,,,,,,,,0.63443,1,,,,,,465,NW,"ID",33,whivex,WHIVEX,z,,,,,,-0.065091146,-0.387673611,0,0,0,,0,375,375,284,1,,
,,,,,,,,,,,,,,,,,,5d3cfeabbaf11000151ed4cd,2020-12-03_00h21.19.364,lexical_decision_task_MP_exp2,2020.2.8,MacIntel,60,z,1,0.57184,,,,,,,,0.57184,1,,,,,,474,NW,"ID",33,hablin,HABLIN,z,,,,,,-0.065091146,-0.387673611,0,0,0,,0,376,376,293,1,,
,,,,,,,,,,,,,,,,,,5d3cfeabbaf11000151ed4cd,2020-12-03_00h21.19.364,lexical_decision_task_MP_exp2,2020.2.8,MacIntel,60,z,1,0.60639,,,,,,,,0.60639,1,,,,,,242,NW,"ID",16,unwert,UNWERT,z,,,,,,-0.065091146,-0.387673611,0,0,0,,0,377,377,301,1,,
,,,,,,,,,,,,,,,,,,5d3cfeabbaf11000151ed4cd,2020-12-03_00h21.19.364,lexical_decision_task_MP_exp2,2020.2.8,MacIntel,60,z,1,0.48473,,,,,,,,0.48473,1,,,,,,456,NW,"ID",33,broget,BROGET,z,,,,,,-0.065091146,-0.387673611,0,0,0,,0,378,378,275,1,,
,,,,,,,,,,,,,,,,,,5d3cfeabbaf11000151ed4cd,2020-12-03_00h21.19.364,lexical_decision_task_MP_exp2,2020.2.8,MacIntel,60,z,1,0.533765,,,,,,,,0.533765,1,,,,,,423,NW,"ID",33,streld,STRELD,z,,,,,,-0.065091146,-0.387673611,0,0,0,,0,379,379,242,1,,
,,,,,,,,,,,,,,,,,,5d3cfeabbaf11000151ed4cd,2020-12-03_00h21.19.364,lexical_decision_task_MP_exp2,2020.2.8,MacIntel,60,z,1,0.72276,,,,,,,,0.72276,1,,,,,,374,NW,UN,16,yorque,SLIANT,z,,,,,,-0.065091146,-0.387673611,0,0,0,,0,380,380,433,1,,
,,,,,,,,,,,,,,,,,,5d3cfeabbaf11000151ed4cd,2020-12-03_00h21.19.364,lexical_decision_task_MP_exp2,2020.2.8,MacIntel,60,m,1,0.582865,,,,,,,,0.582865,1,,,,,,234,WORD,"ID",33,clumsy,CLUMSY,m,,,,,,-0.065091146,-0.387673611,0,0,0,,0,381,381,53,1,,
,,,,,,,,,,,,,,,,,,5d3cfeabbaf11000151ed4cd,2020-12-03_00h21.19.364,lexical_decision_task_MP_exp2,2020.2.8,MacIntel,60,z,1,0.615835,,,,,,,,0.615835,1,,,,,,296,NW,"ID",16,beinch,BEINCH,z,,,,,,-0.065091146,-0.387673611,0,0,0,,0,382,382,355,1,,
,,,,,,,,,,,,,,,,,,5d3cfeabbaf11000151ed4cd,2020-12-03_00h21.19.364,lexical_decision_task_MP_exp2,2020.2.8,MacIntel,60,m,1,0.61839,,,,,,,,0.61839,1,,,,,,99,WORD,UN,33,carbon,FLUENT,m,,,,,,-0.065091146,-0.387673611,0,0,0,,0,383,383,158,1,,
,,,,,,,,,,,,,,,,,,5d3cfeabbaf11000151ed4cd,2020-12-03_00h21.19.364,lexical_decision_task_MP_exp2,2020.2.8,MacIntel,60,m,1,0.542925,,,,,,,,0.542925,1,,,,,,182,WORD,"ID",33,winter,WINTER,m,,,,,,-0.065091146,-0.387673611,0,0,0,,0,384,384,1,1,,
,,,,,,,,,,,,,,,,,,5d3cfeabbaf11000151ed4cd,2020-12-03_00h21.19.364,lexical_decision_task_MP_exp2,2020.2.8,MacIntel,60,z,1,0.688455,,,,,,,,0.688455,1,,,,,,265,NW,"ID",16,distar,DISTAR,z,,,,,,-0.065091146,-0.387673611,0,0,0,,0,385,385,324,1,,
,,,,,,,,,,,,,,,,,,5d3cfeabbaf11000151ed4cd,2020-12-03_00h21.19.364,lexical_decision_task_MP_exp2,2020.2.8,MacIntel,60,z,1,0.65097,,,,,,,,0.65097,1,,,,,,334,NW,UN,33,desion,WATMEG,z,,,,,,-0.065091146,-0.387673611,0,0,0,,0,386,386,393,1,,
