counterbalancing_condition,instr_done_keyboard.keys,instr_done_touch.x,instr_done_touch.y,instr_done_touch.leftButton,instr_done_touch.midButton,instr_done_touch.rightButton,instr_done_touch.clicked_name,instruction_pages.thisRepN,instruction_pages.thisTrialN,instruction_pages.thisN,instruction_pages.thisIndex,instruction_pages.ran,pageN,phase,instruct_text,has_image,instruct_image,participant,date,expName,psychopyVersion,OS,frameRate,instr_done_keyboard.rt,response.keys,response.corr,touch_resp.x,touch_resp.y,touch_resp.leftButton,touch_resp.midButton,touch_resp.rightButton,touch_resp.time,touch_resp.clicked_name,rt,corr,practice_trials.thisRepN,practice_trials.thisTrialN,practice_trials.thisN,practice_trials.thisIndex,practice_trials.ran,TrialID,StimulusType,Condition,PrimeDuration,Prime,Target,corrAns,response.rt,end_of_practice_trials_pages.thisRepN,end_of_practice_trials_pages.thisTrialN,end_of_practice_trials_pages.thisN,end_of_practice_trials_pages.thisIndex,end_of_practice_trials_pages.ran,break_done_touch.x,break_done_touch.y,break_done_touch.leftButton,break_done_touch.midButton,break_done_touch.rightButton,break_done_keyboard.keys,experiment_trials.thisRepN,experiment_trials.thisTrialN,experiment_trials.thisN,experiment_trials.thisIndex,experiment_trials.ran,break_done_keyboard.rt
3,,0.037554904,-0.402874784,1,0,0,instr_done_button,0,0,0,0,1,1,instructions,"INSTRUCTIONS
At the start of each trial, look at the hash marks (######) in the center of the screen. After a moment, a string of letters will appear. Your task is to indicate if the letter string forms a word or not (i.e., if it is a nonword). For example, AUTHOR is a word while AUTHON is a nonword.

Press the space bar or touch the button below to continue.",0,,5d5db7f7ca179000180b17cc,2020-11-27_15h04.24.830,lexical_decision_task_MP_exp2,2020.2.5,MacIntel,60,,,,,,,,,,,,,,,,,,,,,,,,,,,,,,,,,,,,,,,,,,
,space,0.037554904,-0.402874784,0,0,0,,0,1,1,1,1,2,instructions,"If your device has a keyboard, press the 'Z' key for nonwords and the 'M' key for words.





Press the space bar or touch the button below to continue.",1,keyboard-example.gif,5d5db7f7ca179000180b17cc,2020-11-27_15h04.24.830,lexical_decision_task_MP_exp2,2020.2.5,MacIntel,60,4.63925,,,,,,,,,,,,,,,,,,,,,,,,,,,,,,,,,,,,,,,,,
,space,0.037554904,-0.402874784,0,0,0,,0,2,2,2,1,3,instructions,"If you are using a touchscreen only device, use the buttons on the screen. Do not use the mouse.





Press the space bar or touch the button below to continue.",1,touchscreen-example.gif,5d5db7f7ca179000180b17cc,2020-11-27_15h04.24.830,lexical_decision_task_MP_exp2,2020.2.5,MacIntel,60,3.703005,,,,,,,,,,,,,,,,,,,,,,,,,,,,,,,,,,,,,,,,,
,space,0.037554904,-0.402874784,0,0,0,,0,3,3,3,1,4,instructions,"It is very important that you respond as quickly and accurately as possible, as each letter string will only be on the screen for two seconds. If you do not respond within this time, the message 'Too slow!' will be displayed and the experiment will progress to the next letter string. The first 20 trials will be practice trials and you will receive feedback on your answers. 

Press the space bar or touch the button below to start the practice trials.",0,,5d5db7f7ca179000180b17cc,2020-11-27_15h04.24.830,lexical_decision_task_MP_exp2,2020.2.5,MacIntel,60,3.905335,,,,,,,,,,,,,,,,,,,,,,,,,,,,,,,,,,,,,,,,,
,,,,,,,,,,,,,,,,,,5d5db7f7ca179000180b17cc,2020-11-27_15h04.24.830,lexical_decision_task_MP_exp2,2020.2.5,MacIntel,60,,,0,,,,,,,,,-1,0,0,0,11,1,1012,NW,"ID",16,rashet,RASHET,z,,,,,,,,,,,,,,,,,,
,,,,,,,,,,,,,,,,,,5d5db7f7ca179000180b17cc,2020-11-27_15h04.24.830,lexical_decision_task_MP_exp2,2020.2.5,MacIntel,60,,m,0,,,,,,,,1.151775,0,0,1,1,8,1,1009,NW,"ID",33,aslert,ASLERT,z,1.151775,,,,,,,,,,,,,,,,,
,,,,,,,,,,,,,,,,,,5d5db7f7ca179000180b17cc,2020-11-27_15h04.24.830,lexical_decision_task_MP_exp2,2020.2.5,MacIntel,60,,,0,,,,,,,,1.151775,-1,0,2,2,10,1,1011,NW,"ID",16,inlade,INLADE,z,,,,,,,,,,,,,,,,,,
,,,,,,,,,,,,,,,,,,5d5db7f7ca179000180b17cc,2020-11-27_15h04.24.830,lexical_decision_task_MP_exp2,2020.2.5,MacIntel,60,,,0,,,,,,,,1.151775,-1,0,3,3,4,1,1005,WORD,UN,33,abound,SQUEAK,m,,,,,,,,,,,,,,,,,,
,,,,,,,,,,,,,,,,,,5d5db7f7ca179000180b17cc,2020-11-27_15h04.24.830,lexical_decision_task_MP_exp2,2020.2.5,MacIntel,60,,m,1,,,,,,,,0.990625,1,0,4,4,3,1,1004,WORD,"ID",16,matrix,MATRIX,m,0.990625,,,,,,,,,,,,,,,,,
,,,,,,,,,,,,,,,,,,5d5db7f7ca179000180b17cc,2020-11-27_15h04.24.830,lexical_decision_task_MP_exp2,2020.2.5,MacIntel,60,,,0,0.553602931,-0.04500288,1,0,0,1.268605,,0.990625,-1,0,5,5,15,1,1016,NW,UN,16,mushed,WHAISE,z,,,,,,,,,,,,,,,,,,
,,,,,,,,,,,,,,,,,,5d5db7f7ca179000180b17cc,2020-11-27_15h04.24.830,lexical_decision_task_MP_exp2,2020.2.5,MacIntel,60,,,0,,,,,,,,0.990625,-1,0,6,6,12,1,1013,NW,UN,33,adveil,SPRINY,z,,,,,,,,,,,,,,,,,,
,,,,,,,,,,,,,,,,,,5d5db7f7ca179000180b17cc,2020-11-27_15h04.24.830,lexical_decision_task_MP_exp2,2020.2.5,MacIntel,60,,m,1,,,,,,,,0.34143,1,0,7,7,5,1,1006,WORD,UN,33,frenzy,OBTAIN,m,0.34143,,,,,,,,,,,,,,,,,
,,,,,,,,,,,,,,,,,,5d5db7f7ca179000180b17cc,2020-11-27_15h04.24.830,lexical_decision_task_MP_exp2,2020.2.5,MacIntel,60,,,0,,,,,,,,0.34143,-1,0,8,8,2,1,1003,WORD,"ID",16,almond,ALMOND,m,,,,,,,,,,,,,,,,,,
,,,,,,,,,,,,,,,,,,5d5db7f7ca179000180b17cc,2020-11-27_15h04.24.830,lexical_decision_task_MP_exp2,2020.2.5,MacIntel,60,,m,1,,,,,,,,0.4554,1,0,9,9,0,1,1001,WORD,"ID",33,utopia,UTOPIA,m,0.4554,,,,,,,,,,,,,,,,,
,,,,,,,,,,,,,,,,,,5d5db7f7ca179000180b17cc,2020-11-27_15h04.24.830,lexical_decision_task_MP_exp2,2020.2.5,MacIntel,60,,,0,,,,,,,,0.4554,-1,0,10,10,1,1,1002,WORD,"ID",33,adjust,ADJUST,m,,,,,,,,,,,,,,,,,,
,,,,,,,,,,,,,,,,,,5d5db7f7ca179000180b17cc,2020-11-27_15h04.24.830,lexical_decision_task_MP_exp2,2020.2.5,MacIntel,60,,m,0,,,,,,,,1.3705,0,0,11,11,14,1,1015,NW,UN,16,miaber,THRALE,z,1.3705,,,,,,,,,,,,,,,,,
,,,,,,,,,,,,,,,,,,5d5db7f7ca179000180b17cc,2020-11-27_15h04.24.830,lexical_decision_task_MP_exp2,2020.2.5,MacIntel,60,,,0,,,,,,,,1.3705,-1,0,12,12,13,1,1014,NW,UN,33,winfer,ROUPET,z,,,,,,,,,,,,,,,,,,
,,,,,,,,,,,,,,,,,,5d5db7f7ca179000180b17cc,2020-11-27_15h04.24.830,lexical_decision_task_MP_exp2,2020.2.5,MacIntel,60,,,0,,,,,,,,1.3705,-1,0,13,13,9,1,1010,NW,"ID",33,fariny,FARINY,z,,,,,,,,,,,,,,,,,,
,,,,,,,,,,,,,,,,,,5d5db7f7ca179000180b17cc,2020-11-27_15h04.24.830,lexical_decision_task_MP_exp2,2020.2.5,MacIntel,60,,,0,,,,,,,,1.3705,-1,0,14,14,6,1,1007,WORD,UN,16,tropic,ZOMBIE,m,,,,,,,,,,,,,,,,,,
,,,,,,,,,,,,,,,,,,5d5db7f7ca179000180b17cc,2020-11-27_15h04.24.830,lexical_decision_task_MP_exp2,2020.2.5,MacIntel,60,,,0,,,,,,,,1.3705,-1,0,15,15,7,1,1008,WORD,UN,16,hurdle,VOLUME,m,,,,,,,,,,,,,,,,,,
,space,0.549898413,0.077951658,0,0,1,,,,,,,1,end_of_practice,"You have completed the practice trials. During the experimental trials, you will not receive feedback, but it is very important that you respond as quickly and accurately as possible. 
Before you begin, please ensure that you are in a comfortable and quiet location and will not be disturbed for about 15 minutes, as we cannot use your data if you do not complete all the trials. 
There will be opportunities to take breaks at regular intervals during the experiment. When you are ready to start the experimental trials, please press space or touch the button below.",,,5d5db7f7ca179000180b17cc,2020-11-27_15h04.24.830,lexical_decision_task_MP_exp2,2020.2.5,MacIntel,60,5.85412,,,,,,,,,,,,,,,,,,,,,,,,,0,0,0,0,1,,,,,,,,,,,,
,,,,,,,,,,,,,,,,,,5d5db7f7ca179000180b17cc,2020-11-27_15h04.24.830,lexical_decision_task_MP_exp2,2020.2.5,MacIntel,60,,,0,,,,,,,,1.3705,-1,,,,,,314,NW,"ID",33,sprine,SPRINE,z,,,,,,,0.549898413,0.077951658,0,0,1,,0,0,0,253,1,
,,,,,,,,,,,,,,,,,,5d5db7f7ca179000180b17cc,2020-11-27_15h04.24.830,lexical_decision_task_MP_exp2,2020.2.5,MacIntel,60,,m,1,,,,,,,,0.718305,1,,,,,,118,WORD,"ID",33,flight,FLIGHT,m,0.718305,,,,,,0.549898413,0.077951658,0,0,1,,0,1,1,57,1,
,,,,,,,,,,,,,,,,,,5d5db7f7ca179000180b17cc,2020-11-27_15h04.24.830,lexical_decision_task_MP_exp2,2020.2.5,MacIntel,60,,m,1,,,,,,,,0.835815,1,,,,,,94,WORD,"ID",33,travel,TRAVEL,m,0.835815,,,,,,0.549898413,0.077951658,0,0,1,,0,2,2,33,1,
,,,,,,,,,,,,,,,,,,5d5db7f7ca179000180b17cc,2020-11-27_15h04.24.830,lexical_decision_task_MP_exp2,2020.2.5,MacIntel,60,,m,1,,,,,,,,1.64826,1,,,,,,145,WORD,"ID",16,parish,PARISH,m,1.64826,,,,,,0.549898413,0.077951658,0,0,1,,0,3,3,84,1,
,,,,,,,,,,,,,,,,,,5d5db7f7ca179000180b17cc,2020-11-27_15h04.24.830,lexical_decision_task_MP_exp2,2020.2.5,MacIntel,60,,z,1,,,,,,,,0.85345,1,,,,,,358,NW,"ID",33,fleack,FLEACK,z,0.85345,,,,,,0.549898413,0.077951658,0,0,1,,0,4,4,297,1,
,,,,,,,,,,,,,,,,,,5d5db7f7ca179000180b17cc,2020-11-27_15h04.24.830,lexical_decision_task_MP_exp2,2020.2.5,MacIntel,60,,m,1,,,,,,,,0.665795,1,,,,,,90,WORD,"ID",33,relish,RELISH,m,0.665795,,,,,,0.549898413,0.077951658,0,0,1,,0,5,5,29,1,
,,,,,,,,,,,,,,,,,,5d5db7f7ca179000180b17cc,2020-11-27_15h04.24.830,lexical_decision_task_MP_exp2,2020.2.5,MacIntel,60,,z,1,,,,,,,,1.169065,1,,,,,,307,NW,"ID",33,kirafe,KIRAFE,z,1.169065,,,,,,0.549898413,0.077951658,0,0,1,,0,6,6,246,1,
,,,,,,,,,,,,,,,,,,5d5db7f7ca179000180b17cc,2020-11-27_15h04.24.830,lexical_decision_task_MP_exp2,2020.2.5,MacIntel,60,,m,1,,,,,,,,0.5576,1,,,,,,205,WORD,UN,33,tailor,LOUNGE,m,0.5576,,,,,,0.549898413,0.077951658,0,0,1,,0,7,7,144,1,
,,,,,,,,,,,,,,,,,,5d5db7f7ca179000180b17cc,2020-11-27_15h04.24.830,lexical_decision_task_MP_exp2,2020.2.5,MacIntel,60,,m,1,,,,,,,,0.54022,1,,,,,,238,WORD,UN,33,behalf,FLOWER,m,0.54022,,,,,,0.549898413,0.077951658,0,0,1,,0,8,8,177,1,
,,,,,,,,,,,,,,,,,,5d5db7f7ca179000180b17cc,2020-11-27_15h04.24.830,lexical_decision_task_MP_exp2,2020.2.5,MacIntel,60,,m,0,,,,,,,,0.622895,0,,,,,,342,NW,"ID",33,randow,RANDOW,z,0.622895,,,,,,0.549898413,0.077951658,0,0,1,,0,9,9,281,1,
,,,,,,,,,,,,,,,,,,5d5db7f7ca179000180b17cc,2020-11-27_15h04.24.830,lexical_decision_task_MP_exp2,2020.2.5,MacIntel,60,,m,1,,,,,,,,1.006135,1,,,,,,210,WORD,UN,33,infect,MONKEY,m,1.006135,,,,,,0.549898413,0.077951658,0,0,1,,0,10,10,149,1,
,,,,,,,,,,,,,,,,,,5d5db7f7ca179000180b17cc,2020-11-27_15h04.24.830,lexical_decision_task_MP_exp2,2020.2.5,MacIntel,60,,m,1,,,,,,,,0.701985,1,,,,,,116,WORD,"ID",33,tumble,TUMBLE,m,0.701985,,,,,,0.549898413,0.077951658,0,0,1,,0,11,11,55,1,
,,,,,,,,,,,,,,,,,,5d5db7f7ca179000180b17cc,2020-11-27_15h04.24.830,lexical_decision_task_MP_exp2,2020.2.5,MacIntel,60,,z,1,,,,,,,,0.70587,1,,,,,,413,NW,"ID",16,equats,EQUATS,z,0.70587,,,,,,0.549898413,0.077951658,0,0,1,,0,12,12,352,1,
,,,,,,,,,,,,,,,,,,5d5db7f7ca179000180b17cc,2020-11-27_15h04.24.830,lexical_decision_task_MP_exp2,2020.2.5,MacIntel,60,,m,1,,,,,,,,0.724625,1,,,,,,99,WORD,"ID",33,fluent,FLUENT,m,0.724625,,,,,,0.549898413,0.077951658,0,0,1,,0,13,13,38,1,
,,,,,,,,,,,,,,,,,,5d5db7f7ca179000180b17cc,2020-11-27_15h04.24.830,lexical_decision_task_MP_exp2,2020.2.5,MacIntel,60,,m,1,,,,,,,,0.71868,1,,,,,,58,WORD,UN,16,splint,FOSTER,m,0.71868,,,,,,0.549898413,0.077951658,0,0,1,,0,14,14,237,1,
,,,,,,,,,,,,,,,,,,5d5db7f7ca179000180b17cc,2020-11-27_15h04.24.830,lexical_decision_task_MP_exp2,2020.2.5,MacIntel,60,,z,1,,,,,,,,0.73778,1,,,,,,389,NW,"ID",16,witmer,WITMER,z,0.73778,,,,,,0.549898413,0.077951658,0,0,1,,0,15,15,328,1,
,,,,,,,,,,,,,,,,,,5d5db7f7ca179000180b17cc,2020-11-27_15h04.24.830,lexical_decision_task_MP_exp2,2020.2.5,MacIntel,60,,z,1,,,,,,,,0.883765,1,,,,,,380,NW,"ID",16,cavory,CAVORY,z,0.883765,,,,,,0.549898413,0.077951658,0,0,1,,0,16,16,319,1,
,,,,,,,,,,,,,,,,,,5d5db7f7ca179000180b17cc,2020-11-27_15h04.24.830,lexical_decision_task_MP_exp2,2020.2.5,MacIntel,60,,z,1,,,,,,,,0.61862,1,,,,,,258,NW,UN,16,soudal,POLUTH,z,0.61862,,,,,,0.549898413,0.077951658,0,0,1,,0,17,17,437,1,
,,,,,,,,,,,,,,,,,,5d5db7f7ca179000180b17cc,2020-11-27_15h04.24.830,lexical_decision_task_MP_exp2,2020.2.5,MacIntel,60,,m,1,,,,,,,,0.852595,1,,,,,,13,WORD,UN,16,almost,STRIVE,m,0.852595,,,,,,0.549898413,0.077951658,0,0,1,,0,18,18,192,1,
,,,,,,,,,,,,,,,,,,5d5db7f7ca179000180b17cc,2020-11-27_15h04.24.830,lexical_decision_task_MP_exp2,2020.2.5,MacIntel,60,,z,1,,,,,,,,0.768085,1,,,,,,272,NW,UN,16,sortel,DAMILT,z,0.768085,,,,,,0.549898413,0.077951658,0,0,1,,0,19,19,451,1,
,,,,,,,,,,,,,,,,,,5d5db7f7ca179000180b17cc,2020-11-27_15h04.24.830,lexical_decision_task_MP_exp2,2020.2.5,MacIntel,60,,m,1,,,,,,,,0.60776,1,,,,,,55,WORD,UN,16,ambush,STROKE,m,0.60776,,,,,,0.549898413,0.077951658,0,0,1,,0,20,20,234,1,
,,,,,,,,,,,,,,,,,,5d5db7f7ca179000180b17cc,2020-11-27_15h04.24.830,lexical_decision_task_MP_exp2,2020.2.5,MacIntel,60,,m,1,,,,,,,,0.63623,1,,,,,,108,WORD,"ID",33,reckon,RECKON,m,0.63623,,,,,,0.549898413,0.077951658,0,0,1,,0,21,21,47,1,
,,,,,,,,,,,,,,,,,,5d5db7f7ca179000180b17cc,2020-11-27_15h04.24.830,lexical_decision_task_MP_exp2,2020.2.5,MacIntel,60,,z,1,,,,,,,,0.641245,1,,,,,,404,NW,"ID",16,cluirm,CLUIRM,z,0.641245,,,,,,0.549898413,0.077951658,0,0,1,,0,22,22,343,1,
,,,,,,,,,,,,,,,,,,5d5db7f7ca179000180b17cc,2020-11-27_15h04.24.830,lexical_decision_task_MP_exp2,2020.2.5,MacIntel,60,,m,1,,,,,,,,0.60022,1,,,,,,15,WORD,UN,16,faucet,AMOUNT,m,0.60022,,,,,,0.549898413,0.077951658,0,0,1,,0,23,23,194,1,
,,,,,,,,,,,,,,,,,,5d5db7f7ca179000180b17cc,2020-11-27_15h04.24.830,lexical_decision_task_MP_exp2,2020.2.5,MacIntel,60,,z,0,,,,,,,,0.770875,0,,,,,,122,WORD,"ID",16,linger,LINGER,m,0.770875,,,,,,0.549898413,0.077951658,0,0,1,,0,24,24,61,1,
,,,,,,,,,,,,,,,,,,5d5db7f7ca179000180b17cc,2020-11-27_15h04.24.830,lexical_decision_task_MP_exp2,2020.2.5,MacIntel,60,,m,1,,,,,,,,1.08666,1,,,,,,114,WORD,"ID",33,placid,PLACID,m,1.08666,,,,,,0.549898413,0.077951658,0,0,1,,0,25,25,53,1,
,,,,,,,,,,,,,,,,,,5d5db7f7ca179000180b17cc,2020-11-27_15h04.24.830,lexical_decision_task_MP_exp2,2020.2.5,MacIntel,60,,m,1,,,,,,,,0.74231,1,,,,,,204,WORD,UN,33,lounge,BURDEN,m,0.74231,,,,,,0.549898413,0.077951658,0,0,1,,0,26,26,143,1,
,,,,,,,,,,,,,,,,,,5d5db7f7ca179000180b17cc,2020-11-27_15h04.24.830,lexical_decision_task_MP_exp2,2020.2.5,MacIntel,60,,z,1,,,,,,,,0.73729,1,,,,,,412,NW,"ID",16,jiluer,JILUER,z,0.73729,,,,,,0.549898413,0.077951658,0,0,1,,0,27,27,351,1,
,,,,,,,,,,,,,,,,,,5d5db7f7ca179000180b17cc,2020-11-27_15h04.24.830,lexical_decision_task_MP_exp2,2020.2.5,MacIntel,60,,z,1,,,,,,,,0.725935,1,,,,,,271,NW,UN,16,damilt,AUBRID,z,0.725935,,,,,,0.549898413,0.077951658,0,0,1,,0,28,28,450,1,
,,,,,,,,,,,,,,,,,,5d5db7f7ca179000180b17cc,2020-11-27_15h04.24.830,lexical_decision_task_MP_exp2,2020.2.5,MacIntel,60,,z,1,,,,,,,,0.677545,1,,,,,,300,NW,UN,16,smenco,YARION,z,0.677545,,,,,,0.549898413,0.077951658,0,0,1,,0,29,29,479,1,
,,,,,,,,,,,,,,,,,,5d5db7f7ca179000180b17cc,2020-11-27_15h04.24.830,lexical_decision_task_MP_exp2,2020.2.5,MacIntel,60,,z,1,,,,,,,,0.73932,1,,,,,,443,NW,UN,33,jaunce,DORSEX,z,0.73932,,,,,,0.549898413,0.077951658,0,0,1,,0,30,30,382,1,
,,,,,,,,,,,,,,,,,,5d5db7f7ca179000180b17cc,2020-11-27_15h04.24.830,lexical_decision_task_MP_exp2,2020.2.5,MacIntel,60,,z,1,,,,,,,,0.802025,1,,,,,,261,NW,UN,16,quilew,STUNCH,z,0.802025,,,,,,0.549898413,0.077951658,0,0,1,,0,31,31,440,1,
,,,,,,,,,,,,,,,,,,5d5db7f7ca179000180b17cc,2020-11-27_15h04.24.830,lexical_decision_task_MP_exp2,2020.2.5,MacIntel,60,,m,1,,,,,,,,0.686805,1,,,,,,207,WORD,UN,33,hockey,WREATH,m,0.686805,,,,,,0.549898413,0.077951658,0,0,1,,0,32,32,146,1,
,,,,,,,,,,,,,,,,,,5d5db7f7ca179000180b17cc,2020-11-27_15h04.24.830,lexical_decision_task_MP_exp2,2020.2.5,MacIntel,60,,z,1,,,,,,,,0.67495,1,,,,,,475,NW,UN,33,josted,PEBRIC,z,0.67495,,,,,,0.549898413,0.077951658,0,0,1,,0,33,33,414,1,
,,,,,,,,,,,,,,,,,,5d5db7f7ca179000180b17cc,2020-11-27_15h04.24.830,lexical_decision_task_MP_exp2,2020.2.5,MacIntel,60,,z,1,,,,,,,,0.63581,1,,,,,,350,NW,"ID",33,nagurs,NAGURS,z,0.63581,,,,,,0.549898413,0.077951658,0,0,1,,0,34,34,289,1,
,,,,,,,,,,,,,,,,,,5d5db7f7ca179000180b17cc,2020-11-27_15h04.24.830,lexical_decision_task_MP_exp2,2020.2.5,MacIntel,60,,z,1,,,,,,,,0.641765,1,,,,,,315,NW,"ID",33,laston,LASTON,z,0.641765,,,,,,0.549898413,0.077951658,0,0,1,,0,35,35,254,1,
,,,,,,,,,,,,,,,,,,5d5db7f7ca179000180b17cc,2020-11-27_15h04.24.830,lexical_decision_task_MP_exp2,2020.2.5,MacIntel,60,,m,1,,,,,,,,1.01726,1,,,,,,61,WORD,"ID",33,ponder,PONDER,m,1.01726,,,,,,0.549898413,0.077951658,0,0,1,,0,36,36,0,1,
,,,,,,,,,,,,,,,,,,5d5db7f7ca179000180b17cc,2020-11-27_15h04.24.830,lexical_decision_task_MP_exp2,2020.2.5,MacIntel,60,,z,0,,,,,,,,0.775295,0,,,,,,176,WORD,"ID",16,strife,STRIFE,m,0.775295,,,,,,0.549898413,0.077951658,0,0,1,,0,37,37,115,1,
,,,,,,,,,,,,,,,,,,5d5db7f7ca179000180b17cc,2020-11-27_15h04.24.830,lexical_decision_task_MP_exp2,2020.2.5,MacIntel,60,,z,1,,,,,,,,0.667985,1,,,,,,275,NW,UN,16,yarmon,SLEIRT,z,0.667985,,,,,,0.549898413,0.077951658,0,0,1,,0,38,38,454,1,
,,,,,,,,,,,,,,,,,,5d5db7f7ca179000180b17cc,2020-11-27_15h04.24.830,lexical_decision_task_MP_exp2,2020.2.5,MacIntel,60,,z,1,,,,,,,,1.17013,1,,,,,,260,NW,UN,16,stunch,UNJECT,z,1.17013,,,,,,0.549898413,0.077951658,0,0,1,,0,39,39,439,1,
,,,,,,,,,,,,,,,,,,5d5db7f7ca179000180b17cc,2020-11-27_15h04.24.830,lexical_decision_task_MP_exp2,2020.2.5,MacIntel,60,,m,1,,,,,,,,0.61881,1,,,,,,197,WORD,UN,33,wicked,STREAM,m,0.61881,,,,,,0.549898413,0.077951658,0,0,1,,0,40,40,136,1,
,,,,,,,,,,,,,,,,,,5d5db7f7ca179000180b17cc,2020-11-27_15h04.24.830,lexical_decision_task_MP_exp2,2020.2.5,MacIntel,60,,m,1,,,,,,,,0.725605,1,,,,,,69,WORD,"ID",33,plenty,PLENTY,m,0.725605,,,,,,0.549898413,0.077951658,0,0,1,,0,41,41,8,1,
,,,,,,,,,,,,,,,,,,5d5db7f7ca179000180b17cc,2020-11-27_15h04.24.830,lexical_decision_task_MP_exp2,2020.2.5,MacIntel,60,,m,1,,,,,,,,0.59095,1,,,,,,192,WORD,UN,33,object,PLAGUE,m,0.59095,,,,,,0.549898413,0.077951658,0,0,1,,0,42,42,131,1,
,,,,,,,,,,,,,,,,,,5d5db7f7ca179000180b17cc,2020-11-27_15h04.24.830,lexical_decision_task_MP_exp2,2020.2.5,MacIntel,60,,z,1,,,,,,,,0.753135,1,,,,,,293,NW,UN,16,inhort,SWANCE,z,0.753135,,,,,,0.549898413,0.077951658,0,0,1,,0,43,43,472,1,
,,,,,,,,,,,,,,,,,,5d5db7f7ca179000180b17cc,2020-11-27_15h04.24.830,lexical_decision_task_MP_exp2,2020.2.5,MacIntel,60,,m,1,,,,,,,,0.7523,1,,,,,,67,WORD,"ID",33,policy,POLICY,m,0.7523,,,,,,0.549898413,0.077951658,0,0,1,,0,44,44,6,1,
,,,,,,,,,,,,,,,,,,5d5db7f7ca179000180b17cc,2020-11-27_15h04.24.830,lexical_decision_task_MP_exp2,2020.2.5,MacIntel,60,,z,1,,,,,,,,0.70225,1,,,,,,298,NW,UN,16,sturch,PIERGY,z,0.70225,,,,,,0.549898413,0.077951658,0,0,1,,0,45,45,477,1,
,,,,,,,,,,,,,,,,,,5d5db7f7ca179000180b17cc,2020-11-27_15h04.24.830,lexical_decision_task_MP_exp2,2020.2.5,MacIntel,60,,z,1,,,,,,,,0.68523,1,,,,,,245,NW,UN,16,piaton,ANOUGS,z,0.68523,,,,,,0.549898413,0.077951658,0,0,1,,0,46,46,424,1,
,,,,,,,,,,,,,,,,,,5d5db7f7ca179000180b17cc,2020-11-27_15h04.24.830,lexical_decision_task_MP_exp2,2020.2.5,MacIntel,60,,m,1,,,,,,,,0.677775,1,,,,,,35,WORD,UN,16,vanish,SOCKET,m,0.677775,,,,,,0.549898413,0.077951658,0,0,1,,0,47,47,214,1,
,,,,,,,,,,,,,,,,,,5d5db7f7ca179000180b17cc,2020-11-27_15h04.24.830,lexical_decision_task_MP_exp2,2020.2.5,MacIntel,60,,z,1,,,,,,,,0.62177,1,,,,,,407,NW,"ID",16,suiver,SUIVER,z,0.62177,,,,,,0.549898413,0.077951658,0,0,1,,0,48,48,346,1,
,,,,,,,,,,,,,,,,,,5d5db7f7ca179000180b17cc,2020-11-27_15h04.24.830,lexical_decision_task_MP_exp2,2020.2.5,MacIntel,60,,z,0,,,,,,,,0.970305,0,,,,,,183,WORD,UN,33,sleazy,MILDEW,m,0.970305,,,,,,0.549898413,0.077951658,0,0,1,,0,49,49,122,1,
,,,,,,,,,,,,,,,,,,5d5db7f7ca179000180b17cc,2020-11-27_15h04.24.830,lexical_decision_task_MP_exp2,2020.2.5,MacIntel,60,,z,1,,,,,,,,0.61938,1,,,,,,304,NW,"ID",33,cludie,CLUDIE,z,0.61938,,,,,,0.549898413,0.077951658,0,0,1,,0,50,50,243,1,
,,,,,,,,,,,,,,,,,,5d5db7f7ca179000180b17cc,2020-11-27_15h04.24.830,lexical_decision_task_MP_exp2,2020.2.5,MacIntel,60,,z,0,,,,,,,,0.96258,0,,,,,,181,WORD,UN,33,winter,GLANCE,m,0.96258,,,,,,0.549898413,0.077951658,0,0,1,,0,51,51,120,1,
,,,,,,,,,,,,,,,,,,5d5db7f7ca179000180b17cc,2020-11-27_15h04.24.830,lexical_decision_task_MP_exp2,2020.2.5,MacIntel,60,,z,1,,,,,,,,0.634985,1,,,,,,375,NW,"ID",16,yorque,YORQUE,z,0.634985,,,,,,0.549898413,0.077951658,0,0,1,,0,52,52,314,1,
,,,,,,,,,,,,,,,,,,5d5db7f7ca179000180b17cc,2020-11-27_15h04.24.830,lexical_decision_task_MP_exp2,2020.2.5,MacIntel,60,,m,1,,,,,,,,0.572385,1,,,,,,102,WORD,"ID",33,direct,DIRECT,m,0.572385,,,,,,0.549898413,0.077951658,0,0,1,,0,53,53,41,1,
,,,,,,,,,,,,,,,,,,5d5db7f7ca179000180b17cc,2020-11-27_15h04.24.830,lexical_decision_task_MP_exp2,2020.2.5,MacIntel,60,,m,1,,,,,,,,0.627255,1,,,,,,177,WORD,"ID",16,advent,ADVENT,m,0.627255,,,,,,0.549898413,0.077951658,0,0,1,,0,54,54,116,1,
,,,,,,,,,,,,,,,,,,5d5db7f7ca179000180b17cc,2020-11-27_15h04.24.830,lexical_decision_task_MP_exp2,2020.2.5,MacIntel,60,,z,1,,,,,,,,0.652165,1,,,,,,313,NW,"ID",33,paurse,PAURSE,z,0.652165,,,,,,0.549898413,0.077951658,0,0,1,,0,55,55,252,1,
,,,,,,,,,,,,,,,,,,5d5db7f7ca179000180b17cc,2020-11-27_15h04.24.830,lexical_decision_task_MP_exp2,2020.2.5,MacIntel,60,,z,1,,,,,,,,0.50282,1,,,,,,376,NW,"ID",16,iguare,IGUARE,z,0.50282,,,,,,0.549898413,0.077951658,0,0,1,,0,56,56,315,1,
,,,,,,,,,,,,,,,,,,5d5db7f7ca179000180b17cc,2020-11-27_15h04.24.830,lexical_decision_task_MP_exp2,2020.2.5,MacIntel,60,,m,1,,,,,,,,0.76067,1,,,,,,46,WORD,UN,16,income,SINGLE,m,0.76067,,,,,,0.549898413,0.077951658,0,0,1,,0,57,57,225,1,
,,,,,,,,,,,,,,,,,,5d5db7f7ca179000180b17cc,2020-11-27_15h04.24.830,lexical_decision_task_MP_exp2,2020.2.5,MacIntel,60,,z,1,,,,,,,,0.59336,1,,,,,,301,NW,"ID",33,fainch,FAINCH,z,0.59336,,,,,,0.549898413,0.077951658,0,0,1,,0,58,58,240,1,
,,,,,,,,,,,,,,,,,,5d5db7f7ca179000180b17cc,2020-11-27_15h04.24.830,lexical_decision_task_MP_exp2,2020.2.5,MacIntel,60,,z,1,,,,,,,,0.652265,1,,,,,,457,NW,UN,33,barcet,WANIGH,z,0.652265,,,,,,0.549898413,0.077951658,0,0,1,,0,59,59,396,1,
,,,,,,,,,,,,,,,,,,5d5db7f7ca179000180b17cc,2020-11-27_15h04.24.830,lexical_decision_task_MP_exp2,2020.2.5,MacIntel,60,,z,1,,,,,,,,0.61864,1,,,,,,388,NW,"ID",16,cragin,CRAGIN,z,0.61864,,,,,,0.549898413,0.077951658,0,0,1,,0,60,60,327,1,
,,,,,,,,,,,,,,,,,,5d5db7f7ca179000180b17cc,2020-11-27_15h04.24.830,lexical_decision_task_MP_exp2,2020.2.5,MacIntel,60,,m,1,,,,,,,,0.60148,1,,,,,,14,WORD,UN,16,orange,ALMOST,m,0.60148,,,,,,0.549898413,0.077951658,0,0,1,,0,61,61,193,1,
,,,,,,,,,,,,,,,,,,5d5db7f7ca179000180b17cc,2020-11-27_15h04.24.830,lexical_decision_task_MP_exp2,2020.2.5,MacIntel,60,,m,1,,,,,,,,0.739165,1,,,,,,226,WORD,UN,33,flower,CASINO,m,0.739165,,,,,,0.549898413,0.077951658,0,0,1,,0,62,62,165,1,
,,,,,,,,,,,,,,,,,,5d5db7f7ca179000180b17cc,2020-11-27_15h04.24.830,lexical_decision_task_MP_exp2,2020.2.5,MacIntel,60,,m,1,,,,,,,,0.86893,1,,,,,,216,WORD,UN,33,liquor,BEHALF,m,0.86893,,,,,,0.549898413,0.077951658,0,0,1,,0,63,63,155,1,
,,,,,,,,,,,,,,,,,,5d5db7f7ca179000180b17cc,2020-11-27_15h04.24.830,lexical_decision_task_MP_exp2,2020.2.5,MacIntel,60,,m,1,,,,,,,,0.70229,1,,,,,,144,WORD,"ID",16,sponge,SPONGE,m,0.70229,,,,,,0.549898413,0.077951658,0,0,1,,0,64,64,83,1,
,,,,,,,,,,,,,,,,,,5d5db7f7ca179000180b17cc,2020-11-27_15h04.24.830,lexical_decision_task_MP_exp2,2020.2.5,MacIntel,60,,z,1,,,,,,,,0.669385,1,,,,,,318,NW,"ID",33,reagly,REAGLY,z,0.669385,,,,,,0.549898413,0.077951658,0,0,1,,0,65,65,257,1,
,,,,,,,,,,,,,,,,,,5d5db7f7ca179000180b17cc,2020-11-27_15h04.24.830,lexical_decision_task_MP_exp2,2020.2.5,MacIntel,60,,m,1,,,,,,,,0.69192,1,,,,,,57,WORD,UN,16,danger,CHANGE,m,0.69192,,,,,,0.549898413,0.077951658,0,0,1,,0,66,66,236,1,
,,,,,,,,,,,,,,,,,,5d5db7f7ca179000180b17cc,2020-11-27_15h04.24.830,lexical_decision_task_MP_exp2,2020.2.5,MacIntel,60,,z,1,,,,,,,,0.704755,1,,,,,,450,NW,UN,33,cainky,PHRECT,z,0.704755,,,,,,0.549898413,0.077951658,0,0,1,,0,67,67,389,1,
,,,,,,,,,,,,,,,,,,5d5db7f7ca179000180b17cc,2020-11-27_15h04.24.830,lexical_decision_task_MP_exp2,2020.2.5,MacIntel,60,,z,1,,,,,,,,0.67037,1,,,,,,291,NW,UN,16,ablint,PRETCH,z,0.67037,,,,,,0.549898413,0.077951658,0,0,1,,0,68,68,470,1,
,,,,,,,,,,,,,,,,,,5d5db7f7ca179000180b17cc,2020-11-27_15h04.24.830,lexical_decision_task_MP_exp2,2020.2.5,MacIntel,60,,m,0,,,,,,,,1.10923,0,,,,,,411,NW,"ID",16,orchin,ORCHIN,z,1.10923,,,,,,0.549898413,0.077951658,0,0,1,,0,69,69,350,1,
,,,,,,,,,,,,,,,,,,5d5db7f7ca179000180b17cc,2020-11-27_15h04.24.830,lexical_decision_task_MP_exp2,2020.2.5,MacIntel,60,,z,1,,,,,,,,0.535315,1,,,,,,361,NW,"ID",16,pauche,PAUCHE,z,0.535315,,,,,,0.549898413,0.077951658,0,0,1,,0,70,70,300,1,
,,,,,,,,,,,,,,,,,,5d5db7f7ca179000180b17cc,2020-11-27_15h04.24.830,lexical_decision_task_MP_exp2,2020.2.5,MacIntel,60,,z,1,,,,,,,,0.82604,1,,,,,,268,NW,UN,16,orchet,PACKES,z,0.82604,,,,,,0.549898413,0.077951658,0,0,1,,0,71,71,447,1,
,,,,,,,,,,,,,,,,,,5d5db7f7ca179000180b17cc,2020-11-27_15h04.24.830,lexical_decision_task_MP_exp2,2020.2.5,MacIntel,60,,z,1,,,,,,,,0.69292,1,,,,,,469,NW,UN,33,crudio,PADIFS,z,0.69292,,,,,,0.549898413,0.077951658,0,0,1,,0,72,72,408,1,
,,,,,,,,,,,,,,,,,,5d5db7f7ca179000180b17cc,2020-11-27_15h04.24.830,lexical_decision_task_MP_exp2,2020.2.5,MacIntel,60,,z,1,,,,,,,,0.57535,1,,,,,,408,NW,"ID",16,hurnia,HURNIA,z,0.57535,,,,,,0.549898413,0.077951658,0,0,1,,0,73,73,347,1,
,,,,,,,,,,,,,,,,,,5d5db7f7ca179000180b17cc,2020-11-27_15h04.24.830,lexical_decision_task_MP_exp2,2020.2.5,MacIntel,60,,z,1,,,,,,,,0.635915,1,,,,,,381,NW,"ID",16,huniek,HUNIEK,z,0.635915,,,,,,0.549898413,0.077951658,0,0,1,,0,74,74,320,1,
,,,,,,,,,,,,,,,,,,5d5db7f7ca179000180b17cc,2020-11-27_15h04.24.830,lexical_decision_task_MP_exp2,2020.2.5,MacIntel,60,,z,1,,,,,,,,0.720345,1,,,,,,377,NW,"ID",16,injore,INJORE,z,0.720345,,,,,,0.549898413,0.077951658,0,0,1,,0,75,75,316,1,
,,,,,,,,,,,,,,,,,,5d5db7f7ca179000180b17cc,2020-11-27_15h04.24.830,lexical_decision_task_MP_exp2,2020.2.5,MacIntel,60,,z,1,,,,,,,,0.63639,1,,,,,,256,NW,UN,16,veniod,INLORS,z,0.63639,,,,,,0.549898413,0.077951658,0,0,1,,0,76,76,435,1,
,,,,,,,,,,,,,,,,,,5d5db7f7ca179000180b17cc,2020-11-27_15h04.24.830,lexical_decision_task_MP_exp2,2020.2.5,MacIntel,60,,z,1,,,,,,,,0.65386,1,,,,,,310,NW,"ID",33,daniet,DANIET,z,0.65386,,,,,,0.549898413,0.077951658,0,0,1,,0,77,77,249,1,
,,,,,,,,,,,,,,,,,,5d5db7f7ca179000180b17cc,2020-11-27_15h04.24.830,lexical_decision_task_MP_exp2,2020.2.5,MacIntel,60,,z,1,,,,,,,,0.58735,1,,,,,,406,NW,"ID",16,nouply,NOUPLY,z,0.58735,,,,,,0.549898413,0.077951658,0,0,1,,0,78,78,345,1,
,,,,,,,,,,,,,,,,,,5d5db7f7ca179000180b17cc,2020-11-27_15h04.24.830,lexical_decision_task_MP_exp2,2020.2.5,MacIntel,60,,z,1,,,,,,,,0.637045,1,,,,,,462,NW,UN,33,kispel,ABSULT,z,0.637045,,,,,,0.549898413,0.077951658,0,0,1,,0,79,79,401,1,
,,,,,,,,,,,,,,,,,,5d5db7f7ca179000180b17cc,2020-11-27_15h04.24.830,lexical_decision_task_MP_exp2,2020.2.5,MacIntel,60,,z,1,,,,,,,,0.56938,1,,,,,,317,NW,"ID",33,worbal,WORBAL,z,0.56938,,,,,,0.549898413,0.077951658,0,0,1,,0,80,80,256,1,
,,,,,,,,,,,,,,,,,,5d5db7f7ca179000180b17cc,2020-11-27_15h04.24.830,lexical_decision_task_MP_exp2,2020.2.5,MacIntel,60,,z,1,,,,,,,,0.64189,1,,,,,,455,NW,UN,33,broget,TONDLE,z,0.64189,,,,,,0.549898413,0.077951658,0,0,1,,0,81,81,394,1,
,,,,,,,,,,,,,,,,,,5d5db7f7ca179000180b17cc,2020-11-27_15h04.24.830,lexical_decision_task_MP_exp2,2020.2.5,MacIntel,60,,m,1,,,,,,,,0.786305,1,,,,,,220,WORD,UN,33,mascot,VOYAGE,m,0.786305,,,,,,0.549898413,0.077951658,0,0,1,,0,82,82,159,1,
,,,,,,,,,,,,,,,,,,5d5db7f7ca179000180b17cc,2020-11-27_15h04.24.830,lexical_decision_task_MP_exp2,2020.2.5,MacIntel,60,,m,1,,,,,,,,0.660395,1,,,,,,112,WORD,"ID",33,breath,BREATH,m,0.660395,,,,,,0.549898413,0.077951658,0,0,1,,0,83,83,51,1,
,,,,,,,,,,,,,,,,,,5d5db7f7ca179000180b17cc,2020-11-27_15h04.24.830,lexical_decision_task_MP_exp2,2020.2.5,MacIntel,60,,m,1,,,,,,,,0.552075,1,,,,,,109,WORD,"ID",33,wonder,WONDER,m,0.552075,,,,,,0.549898413,0.077951658,0,0,1,,0,84,84,48,1,
,,,,,,,,,,,,,,,,,,5d5db7f7ca179000180b17cc,2020-11-27_15h04.24.830,lexical_decision_task_MP_exp2,2020.2.5,MacIntel,60,,z,1,,,,,,,,0.620445,1,,,,,,379,NW,"ID",16,auting,AUTING,z,0.620445,,,,,,0.549898413,0.077951658,0,0,1,,0,85,85,318,1,
,,,,,,,,,,,,,,,,,,5d5db7f7ca179000180b17cc,2020-11-27_15h04.24.830,lexical_decision_task_MP_exp2,2020.2.5,MacIntel,60,,m,1,,,,,,,,0.60926,1,,,,,,185,WORD,UN,33,portal,BOTHER,m,0.60926,,,,,,0.549898413,0.077951658,0,0,1,,0,86,86,124,1,
,,,,,,,,,,,,,,,,,,5d5db7f7ca179000180b17cc,2020-11-27_15h04.24.830,lexical_decision_task_MP_exp2,2020.2.5,MacIntel,60,,z,1,,,,,,,,0.760385,1,,,,,,432,NW,UN,33,drance,LUNKER,z,0.760385,,,,,,0.549898413,0.077951658,0,0,1,,0,87,87,371,1,
,,,,,,,,,,,,,,,,,,5d5db7f7ca179000180b17cc,2020-11-27_15h04.24.830,lexical_decision_task_MP_exp2,2020.2.5,MacIntel,60,,m,1,,,,,,,,0.604555,1,,,,,,200,WORD,UN,33,admire,BEACON,m,0.604555,,,,,,0.549898413,0.077951658,0,0,1,,0,88,88,139,1,
,,,,,,,,,,,,,,,,,,5d5db7f7ca179000180b17cc,2020-11-27_15h04.24.830,lexical_decision_task_MP_exp2,2020.2.5,MacIntel,60,,m,1,,,,,,,,1.13702,1,,,,,,66,WORD,"ID",33,gospel,GOSPEL,m,1.13702,,,,,,0.549898413,0.077951658,0,0,1,,0,89,89,5,1,
,,,,,,,,,,,,,,,,,,5d5db7f7ca179000180b17cc,2020-11-27_15h04.24.830,lexical_decision_task_MP_exp2,2020.2.5,MacIntel,60,,m,1,,,,,,,,0.62546,1,,,,,,202,WORD,UN,33,phrase,FACTOR,m,0.62546,,,,,,0.549898413,0.077951658,0,0,1,,0,90,90,141,1,
,,,,,,,,,,,,,,,,,,5d5db7f7ca179000180b17cc,2020-11-27_15h04.24.830,lexical_decision_task_MP_exp2,2020.2.5,MacIntel,60,,m,1,,,,,,,,0.57486,1,,,,,,146,WORD,"ID",16,couple,COUPLE,m,0.57486,,,,,,0.549898413,0.077951658,0,0,1,,0,91,91,85,1,
,,,,,,,,,,,,,,,,,,5d5db7f7ca179000180b17cc,2020-11-27_15h04.24.830,lexical_decision_task_MP_exp2,2020.2.5,MacIntel,60,,z,1,,,,,,,,0.859405,1,,,,,,311,NW,"ID",33,sproly,SPROLY,z,0.859405,,,,,,0.549898413,0.077951658,0,0,1,,0,92,92,250,1,
,,,,,,,,,,,,,,,,,,5d5db7f7ca179000180b17cc,2020-11-27_15h04.24.830,lexical_decision_task_MP_exp2,2020.2.5,MacIntel,60,,z,1,,,,,,,,0.55338,1,,,,,,394,NW,"ID",16,spaqux,SPAQUX,z,0.55338,,,,,,0.549898413,0.077951658,0,0,1,,0,93,93,333,1,
,,,,,,,,,,,,,,,,,,5d5db7f7ca179000180b17cc,2020-11-27_15h04.24.830,lexical_decision_task_MP_exp2,2020.2.5,MacIntel,60,,m,1,,,,,,,,0.619855,1,,,,,,161,WORD,"ID",16,pastor,PASTOR,m,0.619855,,,,,,0.549898413,0.077951658,0,0,1,,0,94,94,100,1,
,,,,,,,,,,,,,,,,,,5d5db7f7ca179000180b17cc,2020-11-27_15h04.24.830,lexical_decision_task_MP_exp2,2020.2.5,MacIntel,60,,m,1,,,,,,,,0.60216,1,,,,,,62,WORD,"ID",33,region,REGION,m,0.60216,,,,,,0.549898413,0.077951658,0,0,1,,0,95,95,1,1,
,,,,,,,,,,,,,,,,,,5d5db7f7ca179000180b17cc,2020-11-27_15h04.24.830,lexical_decision_task_MP_exp2,2020.2.5,MacIntel,60,,z,1,,,,,,,,0.63708,1,,,,,,478,NW,UN,33,pebric,ACRISE,z,0.63708,,,,,,0.549898413,0.077951658,0,0,1,,0,96,96,417,1,
,,,,,,,,,,,,,,,,,,5d5db7f7ca179000180b17cc,2020-11-27_15h04.24.830,lexical_decision_task_MP_exp2,2020.2.5,MacIntel,60,,z,1,,,,,,,,0.601965,1,,,,,,448,NW,UN,33,brunge,SADENT,z,0.601965,,,,,,0.549898413,0.077951658,0,0,1,,0,97,97,387,1,
,,,,,,,,,,,,,,,,,,5d5db7f7ca179000180b17cc,2020-11-27_15h04.24.830,lexical_decision_task_MP_exp2,2020.2.5,MacIntel,60,,m,1,,,,,,,,0.63646,1,,,,,,206,WORD,UN,33,wreath,TAILOR,m,0.63646,,,,,,0.549898413,0.077951658,0,0,1,,0,98,98,145,1,
,,,,,,,,,,,,,,,,,,5d5db7f7ca179000180b17cc,2020-11-27_15h04.24.830,lexical_decision_task_MP_exp2,2020.2.5,MacIntel,60,,z,1,,,,,,,,0.83589,1,,,,,,263,NW,UN,16,vackel,DOLICA,z,0.83589,,,,,,0.549898413,0.077951658,0,0,1,,0,99,99,442,1,
,,,,,,,,,,,,,,,,,,5d5db7f7ca179000180b17cc,2020-11-27_15h04.24.830,lexical_decision_task_MP_exp2,2020.2.5,MacIntel,60,,z,1,,,,,,,,0.688795,1,,,,,,295,NW,UN,16,beinch,GLEATH,z,0.688795,,,,,,0.549898413,0.077951658,0,0,1,,0,100,100,474,1,
,,,,,,,,,,,,,,,,,,5d5db7f7ca179000180b17cc,2020-11-27_15h04.24.830,lexical_decision_task_MP_exp2,2020.2.5,MacIntel,60,,m,1,,,,,,,,0.54343,1,,,,,,103,WORD,"ID",33,bounce,BOUNCE,m,0.54343,,,,,,0.549898413,0.077951658,0,0,1,,0,101,101,42,1,
,,,,,,,,,,,,,,,,,,5d5db7f7ca179000180b17cc,2020-11-27_15h04.24.830,lexical_decision_task_MP_exp2,2020.2.5,MacIntel,60,,m,1,,,,,,,,0.575895,1,,,,,,167,WORD,"ID",16,design,DESIGN,m,0.575895,,,,,,0.549898413,0.077951658,0,0,1,,0,102,102,106,1,
,,,,,,,,,,,,,,,,,,5d5db7f7ca179000180b17cc,2020-11-27_15h04.24.830,lexical_decision_task_MP_exp2,2020.2.5,MacIntel,60,,m,1,,,,,,,,0.62066,1,,,,,,232,WORD,UN,33,nature,INJECT,m,0.62066,,,,,,0.549898413,0.077951658,0,0,1,,0,103,103,171,1,
,,,,,,,,,,,,,,,,,,5d5db7f7ca179000180b17cc,2020-11-27_15h04.24.830,lexical_decision_task_MP_exp2,2020.2.5,MacIntel,60,,z,1,,,,,,,,0.755315,1,,,,,,369,NW,"ID",16,wronch,WRONCH,z,0.755315,,,,,,0.549898413,0.077951658,0,0,1,,0,104,104,308,1,
,,,,,,,,,,,,,,,,,,5d5db7f7ca179000180b17cc,2020-11-27_15h04.24.830,lexical_decision_task_MP_exp2,2020.2.5,MacIntel,60,,z,1,,,,,,,,0.655335,1,,,,,,328,NW,"ID",33,broake,BROAKE,z,0.655335,,,,,,0.549898413,0.077951658,0,0,1,,0,105,105,267,1,
,,,,,,,,,,,,,,,,,,5d5db7f7ca179000180b17cc,2020-11-27_15h04.24.830,lexical_decision_task_MP_exp2,2020.2.5,MacIntel,60,,m,1,,,,,,,,0.635685,1,,,,,,201,WORD,UN,33,factor,ADMIRE,m,0.635685,,,,,,0.549898413,0.077951658,0,0,1,,0,106,106,140,1,
,,,,,,,,,,,,,,,,,,5d5db7f7ca179000180b17cc,2020-11-27_15h04.24.830,lexical_decision_task_MP_exp2,2020.2.5,MacIntel,60,,z,1,,,,,,,,0.568245,1,,,,,,409,NW,"ID",16,elopia,ELOPIA,z,0.568245,,,,,,0.549898413,0.077951658,0,0,1,,0,107,107,348,1,
,,,,,,,,,,,,,,,,,,5d5db7f7ca179000180b17cc,2020-11-27_15h04.24.830,lexical_decision_task_MP_exp2,2020.2.5,MacIntel,60,,m,1,,,,,,,,0.652025,1,,,,,,42,WORD,UN,16,tongue,CHAPEL,m,0.652025,,,,,,0.549898413,0.077951658,0,0,1,,0,108,108,221,1,
,,,,,,,,,,,,,,,,,,5d5db7f7ca179000180b17cc,2020-11-27_15h04.24.830,lexical_decision_task_MP_exp2,2020.2.5,MacIntel,60,,z,1,,,,,,,,0.71928,1,,,,,,348,NW,"ID",33,dumple,DUMPLE,z,0.71928,,,,,,0.549898413,0.077951658,0,0,1,,0,109,109,287,1,
,,,,,,,,,,,,,,,,,,5d5db7f7ca179000180b17cc,2020-11-27_15h04.24.830,lexical_decision_task_MP_exp2,2020.2.5,MacIntel,60,,z,1,,,,,,,,0.835215,1,,,,,,332,NW,"ID",33,vangue,VANGUE,z,0.835215,,,,,,0.549898413,0.077951658,0,0,1,,0,110,110,271,1,
,,,,,,,,,,,,,,,,,,5d5db7f7ca179000180b17cc,2020-11-27_15h04.24.830,lexical_decision_task_MP_exp2,2020.2.5,MacIntel,60,,z,1,,,,,,,,0.65146,1,,,,,,425,NW,UN,33,urivel,FRUDGE,z,0.65146,,,,,,0.549898413,0.077951658,0,0,1,,0,111,111,364,1,
,,,,,,,,,,,,,,,,,,5d5db7f7ca179000180b17cc,2020-11-27_15h04.24.830,lexical_decision_task_MP_exp2,2020.2.5,MacIntel,60,,z,0,,,,,,,,0.969775,0,,,,,,53,WORD,UN,16,ramble,POLICE,m,0.969775,,,,,,0.549898413,0.077951658,0,0,1,,0,112,112,232,1,
,,,,,,,,,,,,,,,,,,5d5db7f7ca179000180b17cc,2020-11-27_15h04.24.830,lexical_decision_task_MP_exp2,2020.2.5,MacIntel,60,,z,1,,,,,,,,0.752165,1,,,,,,267,NW,UN,16,packes,PASINK,z,0.752165,,,,,,0.549898413,0.077951658,0,0,1,,0,113,113,446,1,
,,,,,,,,,,,,,,,,,,5d5db7f7ca179000180b17cc,2020-11-27_15h04.24.830,lexical_decision_task_MP_exp2,2020.2.5,MacIntel,60,,z,1,,,,,,,,0.785375,1,,,,,,243,NW,UN,16,eatric,MUSIED,z,0.785375,,,,,,0.549898413,0.077951658,0,0,1,,0,114,114,422,1,
,,,,,,,,,,,,,,,,,,5d5db7f7ca179000180b17cc,2020-11-27_15h04.24.830,lexical_decision_task_MP_exp2,2020.2.5,MacIntel,60,,z,1,,,,,,,,1.169875,1,,,,,,424,NW,UN,33,frudge,PRAILE,z,1.169875,,,,,,0.549898413,0.077951658,0,0,1,,0,115,115,363,1,
,,,,,,,,,,,,,,,,,,5d5db7f7ca179000180b17cc,2020-11-27_15h04.24.830,lexical_decision_task_MP_exp2,2020.2.5,MacIntel,60,,z,1,,,,,,,,0.91665,1,,,,,,429,NW,UN,33,caroey,FUNTLE,z,0.91665,,,,,,0.549898413,0.077951658,0,0,1,,0,116,116,368,1,
,,,,,,,,,,,,,,,,,,5d5db7f7ca179000180b17cc,2020-11-27_15h04.24.830,lexical_decision_task_MP_exp2,2020.2.5,MacIntel,60,,m,1,,,,,,,,0.53621,1,,,,,,97,WORD,"ID",33,client,CLIENT,m,0.53621,,,,,,0.549898413,0.077951658,0,0,1,,0,117,117,36,1,
,,,,,,,,,,,,,,,,,,5d5db7f7ca179000180b17cc,2020-11-27_15h04.24.830,lexical_decision_task_MP_exp2,2020.2.5,MacIntel,60,,m,1,,,,,,,,1.12569,1,,,,,,222,WORD,UN,33,export,HINDER,m,1.12569,,,,,,0.549898413,0.077951658,0,0,1,,0,118,118,161,1,
,,,,,,,,,,,,,,,,,,5d5db7f7ca179000180b17cc,2020-11-27_15h04.24.830,lexical_decision_task_MP_exp2,2020.2.5,MacIntel,60,,z,1,,,,,,,,0.602225,1,,,,,,312,NW,"ID",33,nerawl,NERAWL,z,0.602225,,,,,,0.549898413,0.077951658,0,0,1,,0,119,119,251,1,
,,,,,,,,,,,,,,,,,,5d5db7f7ca179000180b17cc,2020-11-27_15h04.24.830,lexical_decision_task_MP_exp2,2020.2.5,MacIntel,60,,m,1,,,,,,,,0.69125,1,,,,,,151,WORD,"ID",16,mystic,MYSTIC,m,0.69125,,,,,,0.549898413,0.077951658,0,0,1,space,0,120,120,90,1,45.89094
,,,,,,,,,,,,,,,,,,5d5db7f7ca179000180b17cc,2020-11-27_15h04.24.830,lexical_decision_task_MP_exp2,2020.2.5,MacIntel,60,,z,0,,,,,,,,0.67343,0,,,,,,225,WORD,UN,33,casino,VULGAR,m,0.67343,,,,,,0.549898413,0.077951658,0,0,1,,0,121,121,164,1,
,,,,,,,,,,,,,,,,,,5d5db7f7ca179000180b17cc,2020-11-27_15h04.24.830,lexical_decision_task_MP_exp2,2020.2.5,MacIntel,60,,m,1,,,,,,,,0.622505,1,,,,,,73,WORD,"ID",33,source,SOURCE,m,0.622505,,,,,,0.549898413,0.077951658,0,0,1,,0,122,122,12,1,
,,,,,,,,,,,,,,,,,,5d5db7f7ca179000180b17cc,2020-11-27_15h04.24.830,lexical_decision_task_MP_exp2,2020.2.5,MacIntel,60,,m,1,,,,,,,,0.644685,1,,,,,,149,WORD,"ID",16,invade,INVADE,m,0.644685,,,,,,0.549898413,0.077951658,0,0,1,,0,123,123,88,1,
,,,,,,,,,,,,,,,,,,5d5db7f7ca179000180b17cc,2020-11-27_15h04.24.830,lexical_decision_task_MP_exp2,2020.2.5,MacIntel,60,,m,1,,,,,,,,0.53835,1,,,,,,104,WORD,"ID",33,studio,STUDIO,m,0.53835,,,,,,0.549898413,0.077951658,0,0,1,,0,124,124,43,1,
,,,,,,,,,,,,,,,,,,5d5db7f7ca179000180b17cc,2020-11-27_15h04.24.830,lexical_decision_task_MP_exp2,2020.2.5,MacIntel,60,,m,1,,,,,,,,0.518405,1,,,,,,47,WORD,UN,16,walnut,INCOME,m,0.518405,,,,,,0.549898413,0.077951658,0,0,1,,0,125,125,226,1,
,,,,,,,,,,,,,,,,,,5d5db7f7ca179000180b17cc,2020-11-27_15h04.24.830,lexical_decision_task_MP_exp2,2020.2.5,MacIntel,60,,m,1,,,,,,,,0.58658,1,,,,,,157,WORD,"ID",16,dragon,DRAGON,m,0.58658,,,,,,0.549898413,0.077951658,0,0,1,,0,126,126,96,1,
,,,,,,,,,,,,,,,,,,5d5db7f7ca179000180b17cc,2020-11-27_15h04.24.830,lexical_decision_task_MP_exp2,2020.2.5,MacIntel,60,,z,1,,,,,,,,0.590845,1,,,,,,365,NW,"ID",16,guairt,GUAIRT,z,0.590845,,,,,,0.549898413,0.077951658,0,0,1,,0,127,127,304,1,
,,,,,,,,,,,,,,,,,,5d5db7f7ca179000180b17cc,2020-11-27_15h04.24.830,lexical_decision_task_MP_exp2,2020.2.5,MacIntel,60,,m,1,,,,,,,,0.517595,1,,,,,,39,WORD,UN,16,convey,INSECT,m,0.517595,,,,,,0.549898413,0.077951658,0,0,1,,0,128,128,218,1,
,,,,,,,,,,,,,,,,,,5d5db7f7ca179000180b17cc,2020-11-27_15h04.24.830,lexical_decision_task_MP_exp2,2020.2.5,MacIntel,60,,m,1,,,,,,,,0.935835,1,,,,,,125,WORD,"ID",16,nickel,NICKEL,m,0.935835,,,,,,0.549898413,0.077951658,0,0,1,,0,129,129,64,1,
,,,,,,,,,,,,,,,,,,5d5db7f7ca179000180b17cc,2020-11-27_15h04.24.830,lexical_decision_task_MP_exp2,2020.2.5,MacIntel,60,,m,1,,,,,,,,0.542005,1,,,,,,129,WORD,"ID",16,marvel,MARVEL,m,0.542005,,,,,,0.549898413,0.077951658,0,0,1,,0,130,130,68,1,
,,,,,,,,,,,,,,,,,,5d5db7f7ca179000180b17cc,2020-11-27_15h04.24.830,lexical_decision_task_MP_exp2,2020.2.5,MacIntel,60,,m,1,,,,,,,,0.552285,1,,,,,,1,WORD,UN,16,ethnic,FRIGHT,m,0.552285,,,,,,0.549898413,0.077951658,0,0,1,,0,131,131,180,1,
,,,,,,,,,,,,,,,,,,5d5db7f7ca179000180b17cc,2020-11-27_15h04.24.830,lexical_decision_task_MP_exp2,2020.2.5,MacIntel,60,,m,0,,,,,,,,0.73692,0,,,,,,454,NW,UN,33,tondle,SCOUGE,z,0.73692,,,,,,0.549898413,0.077951658,0,0,1,,0,132,132,393,1,
,,,,,,,,,,,,,,,,,,5d5db7f7ca179000180b17cc,2020-11-27_15h04.24.830,lexical_decision_task_MP_exp2,2020.2.5,MacIntel,60,,m,1,,,,,,,,0.551785,1,,,,,,162,WORD,"ID",16,candle,CANDLE,m,0.551785,,,,,,0.549898413,0.077951658,0,0,1,,0,133,133,101,1,
,,,,,,,,,,,,,,,,,,5d5db7f7ca179000180b17cc,2020-11-27_15h04.24.830,lexical_decision_task_MP_exp2,2020.2.5,MacIntel,60,,z,1,,,,,,,,0.83605,1,,,,,,285,NW,UN,16,reldon,PRUDGE,z,0.83605,,,,,,0.549898413,0.077951658,0,0,1,,0,134,134,464,1,
,,,,,,,,,,,,,,,,,,5d5db7f7ca179000180b17cc,2020-11-27_15h04.24.830,lexical_decision_task_MP_exp2,2020.2.5,MacIntel,60,,z,1,,,,,,,,0.69429,1,,,,,,422,NW,UN,33,streld,ALCOUD,z,0.69429,,,,,,0.549898413,0.077951658,0,0,1,,0,135,135,361,1,
,,,,,,,,,,,,,,,,,,5d5db7f7ca179000180b17cc,2020-11-27_15h04.24.830,lexical_decision_task_MP_exp2,2020.2.5,MacIntel,60,,m,1,,,,,,,,0.626775,1,,,,,,190,WORD,UN,33,stable,BACKUP,m,0.626775,,,,,,0.549898413,0.077951658,0,0,1,,0,136,136,129,1,
,,,,,,,,,,,,,,,,,,5d5db7f7ca179000180b17cc,2020-11-27_15h04.24.830,lexical_decision_task_MP_exp2,2020.2.5,MacIntel,60,,z,1,,,,,,,,0.702045,1,,,,,,319,NW,"ID",33,zomber,ZOMBER,z,0.702045,,,,,,0.549898413,0.077951658,0,0,1,,0,137,137,258,1,
,,,,,,,,,,,,,,,,,,5d5db7f7ca179000180b17cc,2020-11-27_15h04.24.830,lexical_decision_task_MP_exp2,2020.2.5,MacIntel,60,,z,0,,,,,,,,0.678135,0,,,,,,142,WORD,"ID",16,spruce,SPRUCE,m,0.678135,,,,,,0.549898413,0.077951658,0,0,1,,0,138,138,81,1,
,,,,,,,,,,,,,,,,,,5d5db7f7ca179000180b17cc,2020-11-27_15h04.24.830,lexical_decision_task_MP_exp2,2020.2.5,MacIntel,60,,m,1,,,,,,,,0.67868,1,,,,,,56,WORD,UN,16,change,AMBUSH,m,0.67868,,,,,,0.549898413,0.077951658,0,0,1,,0,139,139,235,1,
,,,,,,,,,,,,,,,,,,5d5db7f7ca179000180b17cc,2020-11-27_15h04.24.830,lexical_decision_task_MP_exp2,2020.2.5,MacIntel,60,,z,1,,,,,,,,0.707135,1,,,,,,335,NW,"ID",33,desion,DESION,z,0.707135,,,,,,0.549898413,0.077951658,0,0,1,,0,140,140,274,1,
,,,,,,,,,,,,,,,,,,5d5db7f7ca179000180b17cc,2020-11-27_15h04.24.830,lexical_decision_task_MP_exp2,2020.2.5,MacIntel,60,,m,1,,,,,,,,0.768545,1,,,,,,7,WORD,UN,16,abrupt,ANCHOR,m,0.768545,,,,,,0.549898413,0.077951658,0,0,1,,0,141,141,186,1,
,,,,,,,,,,,,,,,,,,5d5db7f7ca179000180b17cc,2020-11-27_15h04.24.830,lexical_decision_task_MP_exp2,2020.2.5,MacIntel,60,,z,1,,,,,,,,0.81012,1,,,,,,356,NW,"ID",33,othnis,OTHNIS,z,0.81012,,,,,,0.549898413,0.077951658,0,0,1,,0,142,142,295,1,
,,,,,,,,,,,,,,,,,,5d5db7f7ca179000180b17cc,2020-11-27_15h04.24.830,lexical_decision_task_MP_exp2,2020.2.5,MacIntel,60,,m,0,,,,,,,,0.806005,0,,,,,,449,NW,UN,33,phrect,BRUNGE,z,0.806005,,,,,,0.549898413,0.077951658,0,0,1,,0,143,143,388,1,
,,,,,,,,,,,,,,,,,,5d5db7f7ca179000180b17cc,2020-11-27_15h04.24.830,lexical_decision_task_MP_exp2,2020.2.5,MacIntel,60,,z,1,,,,,,,,0.6351,1,,,,,,467,NW,UN,33,wictor,GORBIE,z,0.6351,,,,,,0.549898413,0.077951658,0,0,1,,0,144,144,406,1,
,,,,,,,,,,,,,,,,,,5d5db7f7ca179000180b17cc,2020-11-27_15h04.24.830,lexical_decision_task_MP_exp2,2020.2.5,MacIntel,60,,m,1,,,,,,,,0.65566,1,,,,,,18,WORD,UN,16,patron,HUMBLE,m,0.65566,,,,,,0.549898413,0.077951658,0,0,1,,0,145,145,197,1,
,,,,,,,,,,,,,,,,,,5d5db7f7ca179000180b17cc,2020-11-27_15h04.24.830,lexical_decision_task_MP_exp2,2020.2.5,MacIntel,60,,m,1,,,,,,,,0.706595,1,,,,,,37,WORD,UN,16,powder,INSULT,m,0.706595,,,,,,0.549898413,0.077951658,0,0,1,,0,146,146,216,1,
,,,,,,,,,,,,,,,,,,5d5db7f7ca179000180b17cc,2020-11-27_15h04.24.830,lexical_decision_task_MP_exp2,2020.2.5,MacIntel,60,,z,1,,,,,,,,0.62762,1,,,,,,259,NW,UN,16,unject,SOUDAL,z,0.62762,,,,,,0.549898413,0.077951658,0,0,1,,0,147,147,438,1,
,,,,,,,,,,,,,,,,,,5d5db7f7ca179000180b17cc,2020-11-27_15h04.24.830,lexical_decision_task_MP_exp2,2020.2.5,MacIntel,60,,z,1,,,,,,,,0.57692,1,,,,,,416,NW,"ID",16,pathel,PATHEL,z,0.57692,,,,,,0.549898413,0.077951658,0,0,1,,0,148,148,355,1,
,,,,,,,,,,,,,,,,,,5d5db7f7ca179000180b17cc,2020-11-27_15h04.24.830,lexical_decision_task_MP_exp2,2020.2.5,MacIntel,60,,m,1,,,,,,,,0.729585,1,,,,,,195,WORD,UN,33,credit,RESIGN,m,0.729585,,,,,,0.549898413,0.077951658,0,0,1,,0,149,149,134,1,
,,,,,,,,,,,,,,,,,,5d5db7f7ca179000180b17cc,2020-11-27_15h04.24.830,lexical_decision_task_MP_exp2,2020.2.5,MacIntel,60,,m,1,,,,,,,,0.735535,1,,,,,,38,WORD,UN,16,insect,POWDER,m,0.735535,,,,,,0.549898413,0.077951658,0,0,1,,0,150,150,217,1,
,,,,,,,,,,,,,,,,,,5d5db7f7ca179000180b17cc,2020-11-27_15h04.24.830,lexical_decision_task_MP_exp2,2020.2.5,MacIntel,60,,z,1,,,,,,,,0.612185,1,,,,,,297,NW,UN,16,piergy,FERTIC,z,0.612185,,,,,,0.549898413,0.077951658,0,0,1,,0,151,151,476,1,
,,,,,,,,,,,,,,,,,,5d5db7f7ca179000180b17cc,2020-11-27_15h04.24.830,lexical_decision_task_MP_exp2,2020.2.5,MacIntel,60,,m,1,,,,,,,,0.853385,1,,,,,,54,WORD,UN,16,stroke,RAMBLE,m,0.853385,,,,,,0.549898413,0.077951658,0,0,1,,0,152,152,233,1,
,,,,,,,,,,,,,,,,,,5d5db7f7ca179000180b17cc,2020-11-27_15h04.24.830,lexical_decision_task_MP_exp2,2020.2.5,MacIntel,60,,m,1,,,,,,,,0.86058,1,,,,,,139,WORD,"ID",16,debris,DEBRIS,m,0.86058,,,,,,0.549898413,0.077951658,0,0,1,,0,153,153,78,1,
,,,,,,,,,,,,,,,,,,5d5db7f7ca179000180b17cc,2020-11-27_15h04.24.830,lexical_decision_task_MP_exp2,2020.2.5,MacIntel,60,,z,1,,,,,,,,0.585345,1,,,,,,453,NW,UN,33,scouge,BOLVIS,z,0.585345,,,,,,0.549898413,0.077951658,0,0,1,,0,154,154,392,1,
,,,,,,,,,,,,,,,,,,5d5db7f7ca179000180b17cc,2020-11-27_15h04.24.830,lexical_decision_task_MP_exp2,2020.2.5,MacIntel,60,,z,1,,,,,,,,0.635515,1,,,,,,287,NW,UN,16,yaceup,NYMBEL,z,0.635515,,,,,,0.549898413,0.077951658,0,0,1,,0,155,155,466,1,
,,,,,,,,,,,,,,,,,,5d5db7f7ca179000180b17cc,2020-11-27_15h04.24.830,lexical_decision_task_MP_exp2,2020.2.5,MacIntel,60,,m,1,,,,,,,,0.609765,1,,,,,,92,WORD,"ID",33,strand,STRAND,m,0.609765,,,,,,0.549898413,0.077951658,0,0,1,,0,156,156,31,1,
,,,,,,,,,,,,,,,,,,5d5db7f7ca179000180b17cc,2020-11-27_15h04.24.830,lexical_decision_task_MP_exp2,2020.2.5,MacIntel,60,,m,1,,,,,,,,0.87358,1,,,,,,215,WORD,UN,33,lumber,PHOBIA,m,0.87358,,,,,,0.549898413,0.077951658,0,0,1,,0,157,157,154,1,
,,,,,,,,,,,,,,,,,,5d5db7f7ca179000180b17cc,2020-11-27_15h04.24.830,lexical_decision_task_MP_exp2,2020.2.5,MacIntel,60,,m,1,,,,,,,,0.65227,1,,,,,,136,WORD,"ID",16,bleach,BLEACH,m,0.65227,,,,,,0.549898413,0.077951658,0,0,1,,0,158,158,75,1,
,,,,,,,,,,,,,,,,,,5d5db7f7ca179000180b17cc,2020-11-27_15h04.24.830,lexical_decision_task_MP_exp2,2020.2.5,MacIntel,60,,m,1,,,,,,,,0.64576,1,,,,,,22,WORD,UN,16,wealth,JOCKEY,m,0.64576,,,,,,0.549898413,0.077951658,0,0,1,,0,159,159,201,1,
,,,,,,,,,,,,,,,,,,5d5db7f7ca179000180b17cc,2020-11-27_15h04.24.830,lexical_decision_task_MP_exp2,2020.2.5,MacIntel,60,,z,1,,,,,,,,0.628725,1,,,,,,324,NW,"ID",33,steikh,STEIKH,z,0.628725,,,,,,0.549898413,0.077951658,0,0,1,,0,160,160,263,1,
,,,,,,,,,,,,,,,,,,5d5db7f7ca179000180b17cc,2020-11-27_15h04.24.830,lexical_decision_task_MP_exp2,2020.2.5,MacIntel,60,,z,1,,,,,,,,0.527055,1,,,,,,384,NW,"ID",16,guesco,GUESCO,z,0.527055,,,,,,0.549898413,0.077951658,0,0,1,,0,161,161,323,1,
,,,,,,,,,,,,,,,,,,5d5db7f7ca179000180b17cc,2020-11-27_15h04.24.830,lexical_decision_task_MP_exp2,2020.2.5,MacIntel,60,,z,1,,,,,,,,0.54221,1,,,,,,383,NW,"ID",16,aungre,AUNGRE,z,0.54221,,,,,,0.549898413,0.077951658,0,0,1,,0,162,162,322,1,
,,,,,,,,,,,,,,,,,,5d5db7f7ca179000180b17cc,2020-11-27_15h04.24.830,lexical_decision_task_MP_exp2,2020.2.5,MacIntel,60,,m,1,,,,,,,,0.652035,1,,,,,,101,WORD,"ID",33,wrench,WRENCH,m,0.652035,,,,,,0.549898413,0.077951658,0,0,1,,0,163,163,40,1,
,,,,,,,,,,,,,,,,,,5d5db7f7ca179000180b17cc,2020-11-27_15h04.24.830,lexical_decision_task_MP_exp2,2020.2.5,MacIntel,60,,z,1,,,,,,,,0.661055,1,,,,,,333,NW,"ID",33,catrie,CATRIE,z,0.661055,,,,,,0.549898413,0.077951658,0,0,1,,0,164,164,272,1,
,,,,,,,,,,,,,,,,,,5d5db7f7ca179000180b17cc,2020-11-27_15h04.24.830,lexical_decision_task_MP_exp2,2020.2.5,MacIntel,60,,z,1,,,,,,,,0.619055,1,,,,,,463,NW,UN,33,chaite,KISPEL,z,0.619055,,,,,,0.549898413,0.077951658,0,0,1,,0,165,165,402,1,
,,,,,,,,,,,,,,,,,,5d5db7f7ca179000180b17cc,2020-11-27_15h04.24.830,lexical_decision_task_MP_exp2,2020.2.5,MacIntel,60,,m,1,,,,,,,,0.592405,1,,,,,,135,WORD,"ID",16,import,IMPORT,m,0.592405,,,,,,0.549898413,0.077951658,0,0,1,,0,166,166,74,1,
,,,,,,,,,,,,,,,,,,5d5db7f7ca179000180b17cc,2020-11-27_15h04.24.830,lexical_decision_task_MP_exp2,2020.2.5,MacIntel,60,,m,1,,,,,,,,0.568605,1,,,,,,174,WORD,"ID",16,turkey,TURKEY,m,0.568605,,,,,,0.549898413,0.077951658,0,0,1,,0,167,167,113,1,
,,,,,,,,,,,,,,,,,,5d5db7f7ca179000180b17cc,2020-11-27_15h04.24.830,lexical_decision_task_MP_exp2,2020.2.5,MacIntel,60,,z,1,,,,,,,,0.752515,1,,,,,,470,NW,UN,33,nobest,CRUDIO,z,0.752515,,,,,,0.549898413,0.077951658,0,0,1,,0,168,168,409,1,
,,,,,,,,,,,,,,,,,,5d5db7f7ca179000180b17cc,2020-11-27_15h04.24.830,lexical_decision_task_MP_exp2,2020.2.5,MacIntel,60,,z,1,,,,,,,,0.73884,1,,,,,,321,NW,"ID",33,miator,MIATOR,z,0.73884,,,,,,0.549898413,0.077951658,0,0,1,,0,169,169,260,1,
,,,,,,,,,,,,,,,,,,5d5db7f7ca179000180b17cc,2020-11-27_15h04.24.830,lexical_decision_task_MP_exp2,2020.2.5,MacIntel,60,,z,1,,,,,,,,0.60215,1,,,,,,302,NW,"ID",33,miluer,MILUER,z,0.60215,,,,,,0.549898413,0.077951658,0,0,1,,0,170,170,241,1,
,,,,,,,,,,,,,,,,,,5d5db7f7ca179000180b17cc,2020-11-27_15h04.24.830,lexical_decision_task_MP_exp2,2020.2.5,MacIntel,60,,z,1,,,,,,,,0.739795,1,,,,,,386,NW,"ID",16,ancust,ANCUST,z,0.739795,,,,,,0.549898413,0.077951658,0,0,1,,0,171,171,325,1,
,,,,,,,,,,,,,,,,,,5d5db7f7ca179000180b17cc,2020-11-27_15h04.24.830,lexical_decision_task_MP_exp2,2020.2.5,MacIntel,60,,m,1,,,,,,,,0.652515,1,,,,,,40,WORD,UN,16,spring,CONVEY,m,0.652515,,,,,,0.549898413,0.077951658,0,0,1,,0,172,172,219,1,
,,,,,,,,,,,,,,,,,,5d5db7f7ca179000180b17cc,2020-11-27_15h04.24.830,lexical_decision_task_MP_exp2,2020.2.5,MacIntel,60,,z,1,,,,,,,,1.241935,1,,,,,,320,NW,"ID",33,jockal,JOCKAL,z,1.241935,,,,,,0.549898413,0.077951658,0,0,1,,0,173,173,259,1,
,,,,,,,,,,,,,,,,,,5d5db7f7ca179000180b17cc,2020-11-27_15h04.24.830,lexical_decision_task_MP_exp2,2020.2.5,MacIntel,60,,m,1,,,,,,,,0.701595,1,,,,,,6,WORD,UN,16,anchor,BUNDLE,m,0.701595,,,,,,0.549898413,0.077951658,0,0,1,,0,174,174,185,1,
,,,,,,,,,,,,,,,,,,5d5db7f7ca179000180b17cc,2020-11-27_15h04.24.830,lexical_decision_task_MP_exp2,2020.2.5,MacIntel,60,,z,1,,,,,,,,0.668075,1,,,,,,283,NW,UN,16,shaple,VERALF,z,0.668075,,,,,,0.549898413,0.077951658,0,0,1,,0,175,175,462,1,
,,,,,,,,,,,,,,,,,,5d5db7f7ca179000180b17cc,2020-11-27_15h04.24.830,lexical_decision_task_MP_exp2,2020.2.5,MacIntel,60,,z,1,,,,,,,,0.640355,1,,,,,,441,NW,UN,33,aboune,RASTOE,z,0.640355,,,,,,0.549898413,0.077951658,0,0,1,,0,176,176,380,1,
,,,,,,,,,,,,,,,,,,5d5db7f7ca179000180b17cc,2020-11-27_15h04.24.830,lexical_decision_task_MP_exp2,2020.2.5,MacIntel,60,,z,1,,,,,,,,0.6239,1,,,,,,428,NW,UN,33,funtle,TANDLY,z,0.6239,,,,,,0.549898413,0.077951658,0,0,1,,0,177,177,367,1,
,,,,,,,,,,,,,,,,,,5d5db7f7ca179000180b17cc,2020-11-27_15h04.24.830,lexical_decision_task_MP_exp2,2020.2.5,MacIntel,60,,m,1,,,,,,,,0.65809,1,,,,,,95,WORD,"ID",33,thread,THREAD,m,0.65809,,,,,,0.549898413,0.077951658,0,0,1,,0,178,178,34,1,
,,,,,,,,,,,,,,,,,,5d5db7f7ca179000180b17cc,2020-11-27_15h04.24.830,lexical_decision_task_MP_exp2,2020.2.5,MacIntel,60,,z,1,,,,,,,,0.67401,1,,,,,,248,NW,UN,16,batrol,STROLE,z,0.67401,,,,,,0.549898413,0.077951658,0,0,1,,0,179,179,427,1,
,,,,,,,,,,,,,,,,,,5d5db7f7ca179000180b17cc,2020-11-27_15h04.24.830,lexical_decision_task_MP_exp2,2020.2.5,MacIntel,60,,z,1,,,,,,,,0.92202,1,,,,,,323,NW,"ID",33,rosail,ROSAIL,z,0.92202,,,,,,0.549898413,0.077951658,0,0,1,,0,180,180,262,1,
,,,,,,,,,,,,,,,,,,5d5db7f7ca179000180b17cc,2020-11-27_15h04.24.830,lexical_decision_task_MP_exp2,2020.2.5,MacIntel,60,,m,1,,,,,,,,0.58221,1,,,,,,49,WORD,UN,16,snatch,SURVEY,m,0.58221,,,,,,0.549898413,0.077951658,0,0,1,,0,181,181,228,1,
,,,,,,,,,,,,,,,,,,5d5db7f7ca179000180b17cc,2020-11-27_15h04.24.830,lexical_decision_task_MP_exp2,2020.2.5,MacIntel,60,,z,1,,,,,,,,0.711445,1,,,,,,288,NW,UN,16,starby,YACEUP,z,0.711445,,,,,,0.549898413,0.077951658,0,0,1,,0,182,182,467,1,
,,,,,,,,,,,,,,,,,,5d5db7f7ca179000180b17cc,2020-11-27_15h04.24.830,lexical_decision_task_MP_exp2,2020.2.5,MacIntel,60,,z,1,,,,,,,,0.61879,1,,,,,,435,NW,UN,33,frutan,IMPURB,z,0.61879,,,,,,0.549898413,0.077951658,0,0,1,,0,183,183,374,1,
,,,,,,,,,,,,,,,,,,5d5db7f7ca179000180b17cc,2020-11-27_15h04.24.830,lexical_decision_task_MP_exp2,2020.2.5,MacIntel,60,,m,1,,,,,,,,0.585615,1,,,,,,182,WORD,UN,33,absent,WINTER,m,0.585615,,,,,,0.549898413,0.077951658,0,0,1,,0,184,184,121,1,
,,,,,,,,,,,,,,,,,,5d5db7f7ca179000180b17cc,2020-11-27_15h04.24.830,lexical_decision_task_MP_exp2,2020.2.5,MacIntel,60,,z,1,,,,,,,,0.669005,1,,,,,,458,NW,UN,33,hocite,BARCET,z,0.669005,,,,,,0.549898413,0.077951658,0,0,1,,0,185,185,397,1,
,,,,,,,,,,,,,,,,,,5d5db7f7ca179000180b17cc,2020-11-27_15h04.24.830,lexical_decision_task_MP_exp2,2020.2.5,MacIntel,60,,z,1,,,,,,,,0.67148,1,,,,,,479,NW,UN,33,crible,LOBUSH,z,0.67148,,,,,,0.549898413,0.077951658,0,0,1,,0,186,186,418,1,
,,,,,,,,,,,,,,,,,,5d5db7f7ca179000180b17cc,2020-11-27_15h04.24.830,lexical_decision_task_MP_exp2,2020.2.5,MacIntel,60,,m,1,,,,,,,,0.702625,1,,,,,,172,WORD,"ID",16,patrol,PATROL,m,0.702625,,,,,,0.549898413,0.077951658,0,0,1,,0,187,187,111,1,
,,,,,,,,,,,,,,,,,,5d5db7f7ca179000180b17cc,2020-11-27_15h04.24.830,lexical_decision_task_MP_exp2,2020.2.5,MacIntel,60,,z,1,,,,,,,,0.65217,1,,,,,,440,NW,UN,33,rastoe,SARIDE,z,0.65217,,,,,,0.549898413,0.077951658,0,0,1,,0,188,188,379,1,
,,,,,,,,,,,,,,,,,,5d5db7f7ca179000180b17cc,2020-11-27_15h04.24.830,lexical_decision_task_MP_exp2,2020.2.5,MacIntel,60,,m,1,,,,,,,,0.96989,1,,,,,,87,WORD,"ID",33,filter,FILTER,m,0.96989,,,,,,0.549898413,0.077951658,0,0,1,,0,189,189,26,1,
,,,,,,,,,,,,,,,,,,5d5db7f7ca179000180b17cc,2020-11-27_15h04.24.830,lexical_decision_task_MP_exp2,2020.2.5,MacIntel,60,,z,0,,,,,,,,0.6761,0,,,,,,203,WORD,UN,33,burden,PHRASE,m,0.6761,,,,,,0.549898413,0.077951658,0,0,1,,0,190,190,142,1,
,,,,,,,,,,,,,,,,,,5d5db7f7ca179000180b17cc,2020-11-27_15h04.24.830,lexical_decision_task_MP_exp2,2020.2.5,MacIntel,60,,m,1,,,,,,,,0.660455,1,,,,,,212,WORD,UN,33,squeal,VERIFY,m,0.660455,,,,,,0.549898413,0.077951658,0,0,1,,0,191,191,151,1,
,,,,,,,,,,,,,,,,,,5d5db7f7ca179000180b17cc,2020-11-27_15h04.24.830,lexical_decision_task_MP_exp2,2020.2.5,MacIntel,60,,m,1,,,,,,,,0.659925,1,,,,,,30,WORD,UN,16,weapon,ORIENT,m,0.659925,,,,,,0.549898413,0.077951658,0,0,1,,0,192,192,209,1,
,,,,,,,,,,,,,,,,,,5d5db7f7ca179000180b17cc,2020-11-27_15h04.24.830,lexical_decision_task_MP_exp2,2020.2.5,MacIntel,60,,m,1,,,,,,,,0.54185,1,,,,,,11,WORD,UN,16,amount,CRUISE,m,0.54185,,,,,,0.549898413,0.077951658,0,0,1,,0,193,193,190,1,
,,,,,,,,,,,,,,,,,,5d5db7f7ca179000180b17cc,2020-11-27_15h04.24.830,lexical_decision_task_MP_exp2,2020.2.5,MacIntel,60,,m,0,,,,,,,,1.18764,0,,,,,,427,NW,UN,33,tandly,SCHIND,z,1.18764,,,,,,0.549898413,0.077951658,0,0,1,,0,194,194,366,1,
,,,,,,,,,,,,,,,,,,5d5db7f7ca179000180b17cc,2020-11-27_15h04.24.830,lexical_decision_task_MP_exp2,2020.2.5,MacIntel,60,,z,1,,,,,,,,0.58518,1,,,,,,436,NW,UN,33,snapel,FRUTAN,z,0.58518,,,,,,0.549898413,0.077951658,0,0,1,,0,195,195,375,1,
,,,,,,,,,,,,,,,,,,5d5db7f7ca179000180b17cc,2020-11-27_15h04.24.830,lexical_decision_task_MP_exp2,2020.2.5,MacIntel,60,,m,0,,,,,,,,0.5515,0,,,,,,303,NW,"ID",33,fiream,FIREAM,z,0.5515,,,,,,0.549898413,0.077951658,0,0,1,,0,196,196,242,1,
,,,,,,,,,,,,,,,,,,5d5db7f7ca179000180b17cc,2020-11-27_15h04.24.830,lexical_decision_task_MP_exp2,2020.2.5,MacIntel,60,,m,1,,,,,,,,0.770195,1,,,,,,72,WORD,"ID",33,bright,BRIGHT,m,0.770195,,,,,,0.549898413,0.077951658,0,0,1,,0,197,197,11,1,
,,,,,,,,,,,,,,,,,,5d5db7f7ca179000180b17cc,2020-11-27_15h04.24.830,lexical_decision_task_MP_exp2,2020.2.5,MacIntel,60,,m,1,,,,,,,,0.71005,1,,,,,,228,WORD,UN,33,kidney,MASTER,m,0.71005,,,,,,0.549898413,0.077951658,0,0,1,,0,198,198,167,1,
,,,,,,,,,,,,,,,,,,5d5db7f7ca179000180b17cc,2020-11-27_15h04.24.830,lexical_decision_task_MP_exp2,2020.2.5,MacIntel,60,,z,1,,,,,,,,0.60133,1,,,,,,363,NW,"ID",16,breali,BREALI,z,0.60133,,,,,,0.549898413,0.077951658,0,0,1,,0,199,199,302,1,
,,,,,,,,,,,,,,,,,,5d5db7f7ca179000180b17cc,2020-11-27_15h04.24.830,lexical_decision_task_MP_exp2,2020.2.5,MacIntel,60,,m,1,,,,,,,,0.62054,1,,,,,,63,WORD,"ID",33,launch,LAUNCH,m,0.62054,,,,,,0.549898413,0.077951658,0,0,1,,0,200,200,2,1,
,,,,,,,,,,,,,,,,,,5d5db7f7ca179000180b17cc,2020-11-27_15h04.24.830,lexical_decision_task_MP_exp2,2020.2.5,MacIntel,60,,z,1,,,,,,,,0.80205,1,,,,,,426,NW,UN,33,schind,URIVEL,z,0.80205,,,,,,0.549898413,0.077951658,0,0,1,,0,201,201,365,1,
,,,,,,,,,,,,,,,,,,5d5db7f7ca179000180b17cc,2020-11-27_15h04.24.830,lexical_decision_task_MP_exp2,2020.2.5,MacIntel,60,,m,1,,,,,,,,0.638105,1,,,,,,107,WORD,"ID",33,slogan,SLOGAN,m,0.638105,,,,,,0.549898413,0.077951658,0,0,1,,0,202,202,46,1,
,,,,,,,,,,,,,,,,,,5d5db7f7ca179000180b17cc,2020-11-27_15h04.24.830,lexical_decision_task_MP_exp2,2020.2.5,MacIntel,60,,m,1,,,,,,,,0.610545,1,,,,,,209,WORD,UN,33,monkey,SEARCH,m,0.610545,,,,,,0.549898413,0.077951658,0,0,1,,0,203,203,148,1,
,,,,,,,,,,,,,,,,,,5d5db7f7ca179000180b17cc,2020-11-27_15h04.24.830,lexical_decision_task_MP_exp2,2020.2.5,MacIntel,60,,m,1,,,,,,,,0.59296,1,,,,,,163,WORD,"ID",16,string,STRING,m,0.59296,,,,,,0.549898413,0.077951658,0,0,1,,0,204,204,102,1,
,,,,,,,,,,,,,,,,,,5d5db7f7ca179000180b17cc,2020-11-27_15h04.24.830,lexical_decision_task_MP_exp2,2020.2.5,MacIntel,60,,z,1,,,,,,,,0.654355,1,,,,,,281,NW,UN,16,porlex,MELATY,z,0.654355,,,,,,0.549898413,0.077951658,0,0,1,,0,205,205,460,1,
,,,,,,,,,,,,,,,,,,5d5db7f7ca179000180b17cc,2020-11-27_15h04.24.830,lexical_decision_task_MP_exp2,2020.2.5,MacIntel,60,,z,1,,,,,,,,0.620585,1,,,,,,327,NW,"ID",33,plenac,PLENAC,z,0.620585,,,,,,0.549898413,0.077951658,0,0,1,,0,206,206,266,1,
,,,,,,,,,,,,,,,,,,5d5db7f7ca179000180b17cc,2020-11-27_15h04.24.830,lexical_decision_task_MP_exp2,2020.2.5,MacIntel,60,,m,1,,,,,,,,0.935795,1,,,,,,5,WORD,UN,16,bundle,PLUNGE,m,0.935795,,,,,,0.549898413,0.077951658,0,0,1,,0,207,207,184,1,
,,,,,,,,,,,,,,,,,,5d5db7f7ca179000180b17cc,2020-11-27_15h04.24.830,lexical_decision_task_MP_exp2,2020.2.5,MacIntel,60,,z,1,,,,,,,,0.612185,1,,,,,,439,NW,UN,33,saride,LIMPOR,z,0.612185,,,,,,0.549898413,0.077951658,0,0,1,,0,208,208,378,1,
,,,,,,,,,,,,,,,,,,5d5db7f7ca179000180b17cc,2020-11-27_15h04.24.830,lexical_decision_task_MP_exp2,2020.2.5,MacIntel,60,,z,1,,,,,,,,0.589865,1,,,,,,353,NW,"ID",33,clurey,CLUREY,z,0.589865,,,,,,0.549898413,0.077951658,0,0,1,,0,209,209,292,1,
,,,,,,,,,,,,,,,,,,5d5db7f7ca179000180b17cc,2020-11-27_15h04.24.830,lexical_decision_task_MP_exp2,2020.2.5,MacIntel,60,,m,1,,,,,,,,0.59435,1,,,,,,12,WORD,UN,16,strive,ORANGE,m,0.59435,,,,,,0.549898413,0.077951658,0,0,1,,0,210,210,191,1,
,,,,,,,,,,,,,,,,,,5d5db7f7ca179000180b17cc,2020-11-27_15h04.24.830,lexical_decision_task_MP_exp2,2020.2.5,MacIntel,60,,m,1,,,,,,,,0.62137,1,,,,,,175,WORD,"ID",16,fabric,FABRIC,m,0.62137,,,,,,0.549898413,0.077951658,0,0,1,,0,211,211,114,1,
,,,,,,,,,,,,,,,,,,5d5db7f7ca179000180b17cc,2020-11-27_15h04.24.830,lexical_decision_task_MP_exp2,2020.2.5,MacIntel,60,,z,1,,,,,,,,0.62721,1,,,,,,420,NW,"ID",16,gushop,GUSHOP,z,0.62721,,,,,,0.549898413,0.077951658,0,0,1,,0,212,212,359,1,
,,,,,,,,,,,,,,,,,,5d5db7f7ca179000180b17cc,2020-11-27_15h04.24.830,lexical_decision_task_MP_exp2,2020.2.5,MacIntel,60,,m,1,,,,,,,,0.686015,1,,,,,,115,WORD,"ID",33,guitar,GUITAR,m,0.686015,,,,,,0.549898413,0.077951658,0,0,1,,0,213,213,54,1,
,,,,,,,,,,,,,,,,,,5d5db7f7ca179000180b17cc,2020-11-27_15h04.24.830,lexical_decision_task_MP_exp2,2020.2.5,MacIntel,60,,m,1,,,,,,,,0.60497,1,,,,,,121,WORD,"ID",16,thrive,THRIVE,m,0.60497,,,,,,0.549898413,0.077951658,0,0,1,,0,214,214,60,1,
,,,,,,,,,,,,,,,,,,5d5db7f7ca179000180b17cc,2020-11-27_15h04.24.830,lexical_decision_task_MP_exp2,2020.2.5,MacIntel,60,,m,1,,,,,,,,0.59361,1,,,,,,155,WORD,"ID",16,lizard,LIZARD,m,0.59361,,,,,,0.549898413,0.077951658,0,0,1,,0,215,215,94,1,
,,,,,,,,,,,,,,,,,,5d5db7f7ca179000180b17cc,2020-11-27_15h04.24.830,lexical_decision_task_MP_exp2,2020.2.5,MacIntel,60,,z,1,,,,,,,,0.64394,1,,,,,,273,NW,UN,16,fumblo,SORTEL,z,0.64394,,,,,,0.549898413,0.077951658,0,0,1,,0,216,216,452,1,
,,,,,,,,,,,,,,,,,,5d5db7f7ca179000180b17cc,2020-11-27_15h04.24.830,lexical_decision_task_MP_exp2,2020.2.5,MacIntel,60,,z,1,,,,,,,,0.718705,1,,,,,,308,NW,"ID",33,psetch,PSETCH,z,0.718705,,,,,,0.549898413,0.077951658,0,0,1,,0,217,217,247,1,
,,,,,,,,,,,,,,,,,,5d5db7f7ca179000180b17cc,2020-11-27_15h04.24.830,lexical_decision_task_MP_exp2,2020.2.5,MacIntel,60,,m,1,,,,,,,,0.65619,1,,,,,,178,WORD,"ID",16,inform,INFORM,m,0.65619,,,,,,0.549898413,0.077951658,0,0,1,,0,218,218,117,1,
,,,,,,,,,,,,,,,,,,5d5db7f7ca179000180b17cc,2020-11-27_15h04.24.830,lexical_decision_task_MP_exp2,2020.2.5,MacIntel,60,,z,1,,,,,,,,0.886025,1,,,,,,418,NW,"ID",16,suidle,SUIDLE,z,0.886025,,,,,,0.549898413,0.077951658,0,0,1,,0,219,219,357,1,
,,,,,,,,,,,,,,,,,,5d5db7f7ca179000180b17cc,2020-11-27_15h04.24.830,lexical_decision_task_MP_exp2,2020.2.5,MacIntel,60,,z,1,,,,,,,,0.835145,1,,,,,,401,NW,"ID",16,mustil,MUSTIL,z,0.835145,,,,,,0.549898413,0.077951658,0,0,1,,0,220,220,340,1,
,,,,,,,,,,,,,,,,,,5d5db7f7ca179000180b17cc,2020-11-27_15h04.24.830,lexical_decision_task_MP_exp2,2020.2.5,MacIntel,60,,z,1,,,,,,,,0.76884,1,,,,,,402,NW,"ID",16,syntic,SYNTIC,z,0.76884,,,,,,0.549898413,0.077951658,0,0,1,,0,221,221,341,1,
,,,,,,,,,,,,,,,,,,5d5db7f7ca179000180b17cc,2020-11-27_15h04.24.830,lexical_decision_task_MP_exp2,2020.2.5,MacIntel,60,,m,1,,,,,,,,0.59364,1,,,,,,193,WORD,UN,33,mildew,OBJECT,m,0.59364,,,,,,0.549898413,0.077951658,0,0,1,,0,222,222,132,1,
,,,,,,,,,,,,,,,,,,5d5db7f7ca179000180b17cc,2020-11-27_15h04.24.830,lexical_decision_task_MP_exp2,2020.2.5,MacIntel,60,,z,1,,,,,,,,0.840925,1,,,,,,431,NW,UN,33,lunker,CHRUMS,z,0.840925,,,,,,0.549898413,0.077951658,0,0,1,,0,223,223,370,1,
,,,,,,,,,,,,,,,,,,5d5db7f7ca179000180b17cc,2020-11-27_15h04.24.830,lexical_decision_task_MP_exp2,2020.2.5,MacIntel,60,,m,1,,,,,,,,0.71875,1,,,,,,8,WORD,UN,16,hustle,ABRUPT,m,0.71875,,,,,,0.549898413,0.077951658,0,0,1,,0,224,224,187,1,
,,,,,,,,,,,,,,,,,,5d5db7f7ca179000180b17cc,2020-11-27_15h04.24.830,lexical_decision_task_MP_exp2,2020.2.5,MacIntel,60,,z,1,,,,,,,,0.6577,1,,,,,,374,NW,"ID",16,sliant,SLIANT,z,0.6577,,,,,,0.549898413,0.077951658,0,0,1,,0,225,225,313,1,
,,,,,,,,,,,,,,,,,,5d5db7f7ca179000180b17cc,2020-11-27_15h04.24.830,lexical_decision_task_MP_exp2,2020.2.5,MacIntel,60,,z,1,,,,,,,,1.080685,1,,,,,,417,NW,"ID",16,earoud,EAROUD,z,1.080685,,,,,,0.549898413,0.077951658,0,0,1,,0,226,226,356,1,
,,,,,,,,,,,,,,,,,,5d5db7f7ca179000180b17cc,2020-11-27_15h04.24.830,lexical_decision_task_MP_exp2,2020.2.5,MacIntel,60,,m,1,,,,,,,,0.695785,1,,,,,,199,WORD,UN,33,plague,INVOKE,m,0.695785,,,,,,0.549898413,0.077951658,0,0,1,,0,227,227,138,1,
,,,,,,,,,,,,,,,,,,5d5db7f7ca179000180b17cc,2020-11-27_15h04.24.830,lexical_decision_task_MP_exp2,2020.2.5,MacIntel,60,,m,1,,,,,,,,0.91982,1,,,,,,74,WORD,"ID",33,plaque,PLAQUE,m,0.91982,,,,,,0.549898413,0.077951658,0,0,1,,0,228,228,13,1,
,,,,,,,,,,,,,,,,,,5d5db7f7ca179000180b17cc,2020-11-27_15h04.24.830,lexical_decision_task_MP_exp2,2020.2.5,MacIntel,60,,z,1,,,,,,,,0.586225,1,,,,,,371,NW,"ID",16,geiloy,GEILOY,z,0.586225,,,,,,0.549898413,0.077951658,0,0,1,,0,229,229,310,1,
,,,,,,,,,,,,,,,,,,5d5db7f7ca179000180b17cc,2020-11-27_15h04.24.830,lexical_decision_task_MP_exp2,2020.2.5,MacIntel,60,,z,1,,,,,,,,1.086185,1,,,,,,270,NW,UN,16,aubrid,WRIMSY,z,1.086185,,,,,,0.549898413,0.077951658,0,0,1,,0,230,230,449,1,
,,,,,,,,,,,,,,,,,,5d5db7f7ca179000180b17cc,2020-11-27_15h04.24.830,lexical_decision_task_MP_exp2,2020.2.5,MacIntel,60,,z,1,,,,,,,,0.56892,1,,,,,,347,NW,"ID",33,kerift,KERIFT,z,0.56892,,,,,,0.549898413,0.077951658,0,0,1,,0,231,231,286,1,
,,,,,,,,,,,,,,,,,,5d5db7f7ca179000180b17cc,2020-11-27_15h04.24.830,lexical_decision_task_MP_exp2,2020.2.5,MacIntel,60,,z,1,,,,,,,,0.72473,1,,,,,,292,NW,UN,16,swance,ABLINT,z,0.72473,,,,,,0.549898413,0.077951658,0,0,1,,0,232,232,471,1,
,,,,,,,,,,,,,,,,,,5d5db7f7ca179000180b17cc,2020-11-27_15h04.24.830,lexical_decision_task_MP_exp2,2020.2.5,MacIntel,60,,m,1,,,,,,,,0.635385,1,,,,,,98,WORD,"ID",33,belong,BELONG,m,0.635385,,,,,,0.549898413,0.077951658,0,0,1,,0,233,233,37,1,
,,,,,,,,,,,,,,,,,,5d5db7f7ca179000180b17cc,2020-11-27_15h04.24.830,lexical_decision_task_MP_exp2,2020.2.5,MacIntel,60,,z,1,,,,,,,,0.67556,1,,,,,,476,NW,UN,33,photie,JOSTED,z,0.67556,,,,,,0.549898413,0.077951658,0,0,1,,0,234,234,415,1,
,,,,,,,,,,,,,,,,,,5d5db7f7ca179000180b17cc,2020-11-27_15h04.24.830,lexical_decision_task_MP_exp2,2020.2.5,MacIntel,60,,m,0,,,,,,,,0.67488,0,,,,,,398,NW,"ID",16,blunde,BLUNDE,z,0.67488,,,,,,0.549898413,0.077951658,0,0,1,,0,235,235,337,1,
,,,,,,,,,,,,,,,,,,5d5db7f7ca179000180b17cc,2020-11-27_15h04.24.830,lexical_decision_task_MP_exp2,2020.2.5,MacIntel,60,,z,1,,,,,,,,0.716265,1,,,,,,433,NW,UN,33,pitrom,DRANCE,z,0.716265,,,,,,0.549898413,0.077951658,0,0,1,,0,236,236,372,1,
,,,,,,,,,,,,,,,,,,5d5db7f7ca179000180b17cc,2020-11-27_15h04.24.830,lexical_decision_task_MP_exp2,2020.2.5,MacIntel,60,,z,1,,,,,,,,0.61961,1,,,,,,410,NW,"ID",16,tunory,TUNORY,z,0.61961,,,,,,0.549898413,0.077951658,0,0,1,,0,237,237,349,1,
,,,,,,,,,,,,,,,,,,5d5db7f7ca179000180b17cc,2020-11-27_15h04.24.830,lexical_decision_task_MP_exp2,2020.2.5,MacIntel,60,,m,1,,,,,,,,0.625565,1,,,,,,78,WORD,"ID",33,column,COLUMN,m,0.625565,,,,,,0.549898413,0.077951658,0,0,1,,0,238,238,17,1,
,,,,,,,,,,,,,,,,,,5d5db7f7ca179000180b17cc,2020-11-27_15h04.24.830,lexical_decision_task_MP_exp2,2020.2.5,MacIntel,60,,m,1,,,,,,,,0.90282,1,,,,,,33,WORD,UN,16,jungle,BUTLER,m,0.90282,,,,,,0.549898413,0.077951658,0,0,1,,0,239,239,212,1,
,,,,,,,,,,,,,,,,,,5d5db7f7ca179000180b17cc,2020-11-27_15h04.24.830,lexical_decision_task_MP_exp2,2020.2.5,MacIntel,60,,z,1,,,,,,,,0.621995,1,,,,,,382,NW,"ID",16,sarley,SARLEY,z,0.621995,,,,,,0.549898413,0.077951658,0,0,1,,0,240,240,321,1,
,,,,,,,,,,,,,,,,,,5d5db7f7ca179000180b17cc,2020-11-27_15h04.24.830,lexical_decision_task_MP_exp2,2020.2.5,MacIntel,60,,m,1,,,,,,,,0.60471,1,,,,,,23,WORD,UN,16,praise,WEALTH,m,0.60471,,,,,,0.549898413,0.077951658,0,0,1,space,0,241,241,202,1,10.966805
,,,,,,,,,,,,,,,,,,5d5db7f7ca179000180b17cc,2020-11-27_15h04.24.830,lexical_decision_task_MP_exp2,2020.2.5,MacIntel,60,,m,1,,,,,,,,0.607805,1,,,,,,50,WORD,UN,16,hungry,SNATCH,m,0.607805,,,,,,0.549898413,0.077951658,0,0,1,,0,242,242,229,1,
,,,,,,,,,,,,,,,,,,5d5db7f7ca179000180b17cc,2020-11-27_15h04.24.830,lexical_decision_task_MP_exp2,2020.2.5,MacIntel,60,,m,1,,,,,,,,0.52276,1,,,,,,168,WORD,"ID",16,answer,ANSWER,m,0.52276,,,,,,0.549898413,0.077951658,0,0,1,,0,243,243,107,1,
,,,,,,,,,,,,,,,,,,5d5db7f7ca179000180b17cc,2020-11-27_15h04.24.830,lexical_decision_task_MP_exp2,2020.2.5,MacIntel,60,,m,1,,,,,,,,0.51059,1,,,,,,187,WORD,UN,33,social,COURSE,m,0.51059,,,,,,0.549898413,0.077951658,0,0,1,,0,244,244,126,1,
,,,,,,,,,,,,,,,,,,5d5db7f7ca179000180b17cc,2020-11-27_15h04.24.830,lexical_decision_task_MP_exp2,2020.2.5,MacIntel,60,,m,1,,,,,,,,0.542745,1,,,,,,128,WORD,"ID",16,senior,SENIOR,m,0.542745,,,,,,0.549898413,0.077951658,0,0,1,,0,245,245,67,1,
,,,,,,,,,,,,,,,,,,5d5db7f7ca179000180b17cc,2020-11-27_15h04.24.830,lexical_decision_task_MP_exp2,2020.2.5,MacIntel,60,,z,1,,,,,,,,0.62659,1,,,,,,344,NW,"ID",33,scrily,SCRILY,z,0.62659,,,,,,0.549898413,0.077951658,0,0,1,,0,246,246,283,1,
,,,,,,,,,,,,,,,,,,5d5db7f7ca179000180b17cc,2020-11-27_15h04.24.830,lexical_decision_task_MP_exp2,2020.2.5,MacIntel,60,,z,1,,,,,,,,0.649725,1,,,,,,316,NW,"ID",33,scregm,SCREGM,z,0.649725,,,,,,0.549898413,0.077951658,0,0,1,,0,247,247,255,1,
,,,,,,,,,,,,,,,,,,5d5db7f7ca179000180b17cc,2020-11-27_15h04.24.830,lexical_decision_task_MP_exp2,2020.2.5,MacIntel,60,,m,1,,,,,,,,0.559145,1,,,,,,154,WORD,"ID",16,author,AUTHOR,m,0.559145,,,,,,0.549898413,0.077951658,0,0,1,,0,248,248,93,1,
,,,,,,,,,,,,,,,,,,5d5db7f7ca179000180b17cc,2020-11-27_15h04.24.830,lexical_decision_task_MP_exp2,2020.2.5,MacIntel,60,,m,1,,,,,,,,0.586525,1,,,,,,180,WORD,"ID",16,silent,SILENT,m,0.586525,,,,,,0.549898413,0.077951658,0,0,1,,0,249,249,119,1,
,,,,,,,,,,,,,,,,,,5d5db7f7ca179000180b17cc,2020-11-27_15h04.24.830,lexical_decision_task_MP_exp2,2020.2.5,MacIntel,60,,m,1,,,,,,,,0.839375,1,,,,,,134,WORD,"ID",16,staple,STAPLE,m,0.839375,,,,,,0.549898413,0.077951658,0,0,1,,0,250,250,73,1,
,,,,,,,,,,,,,,,,,,5d5db7f7ca179000180b17cc,2020-11-27_15h04.24.830,lexical_decision_task_MP_exp2,2020.2.5,MacIntel,60,,m,1,,,,,,,,0.601545,1,,,,,,231,WORD,UN,33,inject,EXPORT,m,0.601545,,,,,,0.549898413,0.077951658,0,0,1,,0,251,251,170,1,
,,,,,,,,,,,,,,,,,,5d5db7f7ca179000180b17cc,2020-11-27_15h04.24.830,lexical_decision_task_MP_exp2,2020.2.5,MacIntel,60,,m,1,,,,,,,,0.72176,1,,,,,,140,WORD,"ID",16,prince,PRINCE,m,0.72176,,,,,,0.549898413,0.077951658,0,0,1,,0,252,252,79,1,
,,,,,,,,,,,,,,,,,,5d5db7f7ca179000180b17cc,2020-11-27_15h04.24.830,lexical_decision_task_MP_exp2,2020.2.5,MacIntel,60,,z,1,,,,,,,,0.627225,1,,,,,,257,NW,UN,16,poluth,VENIOD,z,0.627225,,,,,,0.549898413,0.077951658,0,0,1,,0,253,253,436,1,
,,,,,,,,,,,,,,,,,,5d5db7f7ca179000180b17cc,2020-11-27_15h04.24.830,lexical_decision_task_MP_exp2,2020.2.5,MacIntel,60,,m,1,,,,,,,,0.638285,1,,,,,,240,WORD,UN,33,seldom,FOREST,m,0.638285,,,,,,0.549898413,0.077951658,0,0,1,,0,254,254,179,1,
,,,,,,,,,,,,,,,,,,5d5db7f7ca179000180b17cc,2020-11-27_15h04.24.830,lexical_decision_task_MP_exp2,2020.2.5,MacIntel,60,,m,1,,,,,,,,0.55391,1,,,,,,65,WORD,"ID",33,symbol,SYMBOL,m,0.55391,,,,,,0.549898413,0.077951658,0,0,1,,0,255,255,4,1,
,,,,,,,,,,,,,,,,,,5d5db7f7ca179000180b17cc,2020-11-27_15h04.24.830,lexical_decision_task_MP_exp2,2020.2.5,MacIntel,60,,m,1,,,,,,,,0.551905,1,,,,,,27,WORD,UN,16,comedy,SCREAM,m,0.551905,,,,,,0.549898413,0.077951658,0,0,1,,0,256,256,206,1,
,,,,,,,,,,,,,,,,,,5d5db7f7ca179000180b17cc,2020-11-27_15h04.24.830,lexical_decision_task_MP_exp2,2020.2.5,MacIntel,60,,z,0,,,,,,,,0.719325,0,,,,,,166,WORD,"ID",16,starch,STARCH,m,0.719325,,,,,,0.549898413,0.077951658,0,0,1,,0,257,257,105,1,
,,,,,,,,,,,,,,,,,,5d5db7f7ca179000180b17cc,2020-11-27_15h04.24.830,lexical_decision_task_MP_exp2,2020.2.5,MacIntel,60,,m,0,,,,,,,,0.786635,0,,,,,,338,NW,"ID",33,wreash,WREASH,z,0.786635,,,,,,0.549898413,0.077951658,0,0,1,,0,258,258,277,1,
,,,,,,,,,,,,,,,,,,5d5db7f7ca179000180b17cc,2020-11-27_15h04.24.830,lexical_decision_task_MP_exp2,2020.2.5,MacIntel,60,,m,1,,,,,,,,0.59475,1,,,,,,211,WORD,UN,33,verify,INFECT,m,0.59475,,,,,,0.549898413,0.077951658,0,0,1,,0,259,259,150,1,
,,,,,,,,,,,,,,,,,,5d5db7f7ca179000180b17cc,2020-11-27_15h04.24.830,lexical_decision_task_MP_exp2,2020.2.5,MacIntel,60,,z,1,,,,,,,,0.593745,1,,,,,,339,NW,"ID",33,fachow,FACHOW,z,0.593745,,,,,,0.549898413,0.077951658,0,0,1,,0,260,260,278,1,
,,,,,,,,,,,,,,,,,,5d5db7f7ca179000180b17cc,2020-11-27_15h04.24.830,lexical_decision_task_MP_exp2,2020.2.5,MacIntel,60,,z,1,,,,,,,,0.728375,1,,,,,,325,NW,"ID",33,thruse,THRUSE,z,0.728375,,,,,,0.549898413,0.077951658,0,0,1,,0,261,261,264,1,
,,,,,,,,,,,,,,,,,,5d5db7f7ca179000180b17cc,2020-11-27_15h04.24.830,lexical_decision_task_MP_exp2,2020.2.5,MacIntel,60,,m,1,,,,,,,,0.6355,1,,,,,,194,WORD,UN,33,resign,ABSENT,m,0.6355,,,,,,0.549898413,0.077951658,0,0,1,,0,262,262,133,1,
,,,,,,,,,,,,,,,,,,5d5db7f7ca179000180b17cc,2020-11-27_15h04.24.830,lexical_decision_task_MP_exp2,2020.2.5,MacIntel,60,,m,1,,,,,,,,0.65507,1,,,,,,141,WORD,"ID",16,orphan,ORPHAN,m,0.65507,,,,,,0.549898413,0.077951658,0,0,1,,0,263,263,80,1,
,,,,,,,,,,,,,,,,,,5d5db7f7ca179000180b17cc,2020-11-27_15h04.24.830,lexical_decision_task_MP_exp2,2020.2.5,MacIntel,60,,z,1,,,,,,,,0.58849,1,,,,,,331,NW,"ID",33,gilfew,GILFEW,z,0.58849,,,,,,0.549898413,0.077951658,0,0,1,,0,264,264,270,1,
,,,,,,,,,,,,,,,,,,5d5db7f7ca179000180b17cc,2020-11-27_15h04.24.830,lexical_decision_task_MP_exp2,2020.2.5,MacIntel,60,,z,1,,,,,,,,0.685715,1,,,,,,399,NW,"ID",16,fouret,FOURET,z,0.685715,,,,,,0.549898413,0.077951658,0,0,1,,0,265,265,338,1,
,,,,,,,,,,,,,,,,,,5d5db7f7ca179000180b17cc,2020-11-27_15h04.24.830,lexical_decision_task_MP_exp2,2020.2.5,MacIntel,60,,m,1,,,,,,,,0.757135,1,,,,,,48,WORD,UN,16,survey,WALNUT,m,0.757135,,,,,,0.549898413,0.077951658,0,0,1,,0,266,266,227,1,
,,,,,,,,,,,,,,,,,,5d5db7f7ca179000180b17cc,2020-11-27_15h04.24.830,lexical_decision_task_MP_exp2,2020.2.5,MacIntel,60,,m,1,,,,,,,,0.58918,1,,,,,,127,WORD,"ID",16,castle,CASTLE,m,0.58918,,,,,,0.549898413,0.077951658,0,0,1,,0,267,267,66,1,
,,,,,,,,,,,,,,,,,,5d5db7f7ca179000180b17cc,2020-11-27_15h04.24.830,lexical_decision_task_MP_exp2,2020.2.5,MacIntel,60,,m,1,,,,,,,,0.54484,1,,,,,,84,WORD,"ID",33,mortal,MORTAL,m,0.54484,,,,,,0.549898413,0.077951658,0,0,1,,0,268,268,23,1,
,,,,,,,,,,,,,,,,,,5d5db7f7ca179000180b17cc,2020-11-27_15h04.24.830,lexical_decision_task_MP_exp2,2020.2.5,MacIntel,60,,z,1,,,,,,,,0.81865,1,,,,,,269,NW,UN,16,wrimsy,ORCHET,z,0.81865,,,,,,0.549898413,0.077951658,0,0,1,,0,269,269,448,1,
,,,,,,,,,,,,,,,,,,5d5db7f7ca179000180b17cc,2020-11-27_15h04.24.830,lexical_decision_task_MP_exp2,2020.2.5,MacIntel,60,,m,0,,,,,,,,0.690975,0,,,,,,345,NW,"ID",33,absend,ABSEND,z,0.690975,,,,,,0.549898413,0.077951658,0,0,1,,0,270,270,284,1,
,,,,,,,,,,,,,,,,,,5d5db7f7ca179000180b17cc,2020-11-27_15h04.24.830,lexical_decision_task_MP_exp2,2020.2.5,MacIntel,60,,z,1,,,,,,,,0.640705,1,,,,,,262,NW,UN,16,dolica,QUILEW,z,0.640705,,,,,,0.549898413,0.077951658,0,0,1,,0,271,271,441,1,
,,,,,,,,,,,,,,,,,,5d5db7f7ca179000180b17cc,2020-11-27_15h04.24.830,lexical_decision_task_MP_exp2,2020.2.5,MacIntel,60,,z,1,,,,,,,,0.641,1,,,,,,355,NW,"ID",33,zingly,ZINGLY,z,0.641,,,,,,0.549898413,0.077951658,0,0,1,,0,272,272,294,1,
,,,,,,,,,,,,,,,,,,5d5db7f7ca179000180b17cc,2020-11-27_15h04.24.830,lexical_decision_task_MP_exp2,2020.2.5,MacIntel,60,,m,1,,,,,,,,0.61817,1,,,,,,156,WORD,"ID",16,cradle,CRADLE,m,0.61817,,,,,,0.549898413,0.077951658,0,0,1,,0,273,273,95,1,
,,,,,,,,,,,,,,,,,,5d5db7f7ca179000180b17cc,2020-11-27_15h04.24.830,lexical_decision_task_MP_exp2,2020.2.5,MacIntel,60,,z,1,,,,,,,,0.585375,1,,,,,,434,NW,UN,33,impurb,PITROM,z,0.585375,,,,,,0.549898413,0.077951658,0,0,1,,0,274,274,373,1,
,,,,,,,,,,,,,,,,,,5d5db7f7ca179000180b17cc,2020-11-27_15h04.24.830,lexical_decision_task_MP_exp2,2020.2.5,MacIntel,60,,z,0,,,,,,,,0.735955,0,,,,,,170,WORD,"ID",16,pounce,POUNCE,m,0.735955,,,,,,0.549898413,0.077951658,0,0,1,,0,275,275,109,1,
,,,,,,,,,,,,,,,,,,5d5db7f7ca179000180b17cc,2020-11-27_15h04.24.830,lexical_decision_task_MP_exp2,2020.2.5,MacIntel,60,,z,1,,,,,,,,0.61919,1,,,,,,336,NW,"ID",33,ghodus,GHODUS,z,0.61919,,,,,,0.549898413,0.077951658,0,0,1,,0,276,276,275,1,
,,,,,,,,,,,,,,,,,,5d5db7f7ca179000180b17cc,2020-11-27_15h04.24.830,lexical_decision_task_MP_exp2,2020.2.5,MacIntel,60,,m,1,,,,,,,,0.516215,1,,,,,,106,WORD,"ID",33,ransom,RANSOM,m,0.516215,,,,,,0.549898413,0.077951658,0,0,1,,0,277,277,45,1,
,,,,,,,,,,,,,,,,,,5d5db7f7ca179000180b17cc,2020-11-27_15h04.24.830,lexical_decision_task_MP_exp2,2020.2.5,MacIntel,60,,z,1,,,,,,,,0.60599,1,,,,,,251,NW,UN,16,stapod,LUPICT,z,0.60599,,,,,,0.549898413,0.077951658,0,0,1,,0,278,278,430,1,
,,,,,,,,,,,,,,,,,,5d5db7f7ca179000180b17cc,2020-11-27_15h04.24.830,lexical_decision_task_MP_exp2,2020.2.5,MacIntel,60,,m,1,,,,,,,,0.60202,1,,,,,,191,WORD,UN,33,beacon,STABLE,m,0.60202,,,,,,0.549898413,0.077951658,0,0,1,,0,279,279,130,1,
,,,,,,,,,,,,,,,,,,5d5db7f7ca179000180b17cc,2020-11-27_15h04.24.830,lexical_decision_task_MP_exp2,2020.2.5,MacIntel,60,,z,1,,,,,,,,0.67275,1,,,,,,360,NW,"ID",33,desory,DESORY,z,0.67275,,,,,,0.549898413,0.077951658,0,0,1,,0,280,280,299,1,
,,,,,,,,,,,,,,,,,,5d5db7f7ca179000180b17cc,2020-11-27_15h04.24.830,lexical_decision_task_MP_exp2,2020.2.5,MacIntel,60,,m,1,,,,,,,,0.572895,1,,,,,,119,WORD,"ID",33,spider,SPIDER,m,0.572895,,,,,,0.549898413,0.077951658,0,0,1,,0,281,281,58,1,
,,,,,,,,,,,,,,,,,,5d5db7f7ca179000180b17cc,2020-11-27_15h04.24.830,lexical_decision_task_MP_exp2,2020.2.5,MacIntel,60,,z,1,,,,,,,,0.63875,1,,,,,,390,NW,"ID",16,hatrus,HATRUS,z,0.63875,,,,,,0.549898413,0.077951658,0,0,1,,0,282,282,329,1,
,,,,,,,,,,,,,,,,,,5d5db7f7ca179000180b17cc,2020-11-27_15h04.24.830,lexical_decision_task_MP_exp2,2020.2.5,MacIntel,60,,m,1,,,,,,,,0.6019,1,,,,,,96,WORD,"ID",33,ignore,IGNORE,m,0.6019,,,,,,0.549898413,0.077951658,0,0,1,,0,283,283,35,1,
,,,,,,,,,,,,,,,,,,5d5db7f7ca179000180b17cc,2020-11-27_15h04.24.830,lexical_decision_task_MP_exp2,2020.2.5,MacIntel,60,,z,1,,,,,,,,0.700205,1,,,,,,264,NW,UN,16,distar,VACKEL,z,0.700205,,,,,,0.549898413,0.077951658,0,0,1,,0,284,284,443,1,
,,,,,,,,,,,,,,,,,,5d5db7f7ca179000180b17cc,2020-11-27_15h04.24.830,lexical_decision_task_MP_exp2,2020.2.5,MacIntel,60,,m,1,,,,,,,,0.577455,1,,,,,,130,WORD,"ID",16,stupid,STUPID,m,0.577455,,,,,,0.549898413,0.077951658,0,0,1,,0,285,285,69,1,
,,,,,,,,,,,,,,,,,,5d5db7f7ca179000180b17cc,2020-11-27_15h04.24.830,lexical_decision_task_MP_exp2,2020.2.5,MacIntel,60,,z,1,,,,,,,,0.672745,1,,,,,,340,NW,"ID",33,fiatch,FIATCH,z,0.672745,,,,,,0.549898413,0.077951658,0,0,1,,0,286,286,279,1,
,,,,,,,,,,,,,,,,,,5d5db7f7ca179000180b17cc,2020-11-27_15h04.24.830,lexical_decision_task_MP_exp2,2020.2.5,MacIntel,60,,z,1,,,,,,,,0.689625,1,,,,,,477,NW,UN,33,lobush,PHOTIE,z,0.689625,,,,,,0.549898413,0.077951658,0,0,1,,0,287,287,416,1,
,,,,,,,,,,,,,,,,,,5d5db7f7ca179000180b17cc,2020-11-27_15h04.24.830,lexical_decision_task_MP_exp2,2020.2.5,MacIntel,60,,m,1,,,,,,,,0.76923,1,,,,,,214,WORD,UN,33,phobia,INTAKE,m,0.76923,,,,,,0.549898413,0.077951658,0,0,1,,0,288,288,153,1,
,,,,,,,,,,,,,,,,,,5d5db7f7ca179000180b17cc,2020-11-27_15h04.24.830,lexical_decision_task_MP_exp2,2020.2.5,MacIntel,60,,m,1,,,,,,,,0.55565,1,,,,,,43,WORD,UN,16,foster,TONGUE,m,0.55565,,,,,,0.549898413,0.077951658,0,0,1,,0,289,289,222,1,
,,,,,,,,,,,,,,,,,,5d5db7f7ca179000180b17cc,2020-11-27_15h04.24.830,lexical_decision_task_MP_exp2,2020.2.5,MacIntel,60,,z,1,,,,,,,,0.870195,1,,,,,,373,NW,"ID",16,bigent,BIGENT,z,0.870195,,,,,,0.549898413,0.077951658,0,0,1,,0,290,290,312,1,
,,,,,,,,,,,,,,,,,,5d5db7f7ca179000180b17cc,2020-11-27_15h04.24.830,lexical_decision_task_MP_exp2,2020.2.5,MacIntel,60,,m,1,,,,,,,,0.602985,1,,,,,,233,WORD,UN,33,clumsy,NATURE,m,0.602985,,,,,,0.549898413,0.077951658,0,0,1,,0,291,291,172,1,
,,,,,,,,,,,,,,,,,,5d5db7f7ca179000180b17cc,2020-11-27_15h04.24.830,lexical_decision_task_MP_exp2,2020.2.5,MacIntel,60,,m,1,,,,,,,,0.68668,1,,,,,,223,WORD,UN,33,period,KIDNEY,m,0.68668,,,,,,0.549898413,0.077951658,0,0,1,,0,292,292,162,1,
,,,,,,,,,,,,,,,,,,5d5db7f7ca179000180b17cc,2020-11-27_15h04.24.830,lexical_decision_task_MP_exp2,2020.2.5,MacIntel,60,,z,0,,,,,,,,0.62528,0,,,,,,24,WORD,UN,16,domain,PRAISE,m,0.62528,,,,,,0.549898413,0.077951658,0,0,1,,0,293,293,203,1,
,,,,,,,,,,,,,,,,,,5d5db7f7ca179000180b17cc,2020-11-27_15h04.24.830,lexical_decision_task_MP_exp2,2020.2.5,MacIntel,60,,z,1,,,,,,,,0.68623,1,,,,,,456,NW,UN,33,wanigh,BROGET,z,0.68623,,,,,,0.549898413,0.077951658,0,0,1,,0,294,294,395,1,
,,,,,,,,,,,,,,,,,,5d5db7f7ca179000180b17cc,2020-11-27_15h04.24.830,lexical_decision_task_MP_exp2,2020.2.5,MacIntel,60,,z,1,,,,,,,,0.6089,1,,,,,,393,NW,"ID",16,ganous,GANOUS,z,0.6089,,,,,,0.549898413,0.077951658,0,0,1,,0,295,295,332,1,
,,,,,,,,,,,,,,,,,,5d5db7f7ca179000180b17cc,2020-11-27_15h04.24.830,lexical_decision_task_MP_exp2,2020.2.5,MacIntel,60,,m,1,,,,,,,,0.62019,1,,,,,,117,WORD,"ID",33,branch,BRANCH,m,0.62019,,,,,,0.549898413,0.077951658,0,0,1,,0,296,296,56,1,
,,,,,,,,,,,,,,,,,,5d5db7f7ca179000180b17cc,2020-11-27_15h04.24.830,lexical_decision_task_MP_exp2,2020.2.5,MacIntel,60,,m,1,,,,,,,,0.704005,1,,,,,,124,WORD,"ID",16,blouse,BLOUSE,m,0.704005,,,,,,0.549898413,0.077951658,0,0,1,,0,297,297,63,1,
,,,,,,,,,,,,,,,,,,5d5db7f7ca179000180b17cc,2020-11-27_15h04.24.830,lexical_decision_task_MP_exp2,2020.2.5,MacIntel,60,,z,1,,,,,,,,0.710405,1,,,,,,480,NW,UN,33,knisma,ROBULY,z,0.710405,,,,,,0.549898413,0.077951658,0,0,1,,0,298,298,419,1,
,,,,,,,,,,,,,,,,,,5d5db7f7ca179000180b17cc,2020-11-27_15h04.24.830,lexical_decision_task_MP_exp2,2020.2.5,MacIntel,60,,m,1,,,,,,,,0.969425,1,,,,,,100,WORD,"ID",33,carbon,CARBON,m,0.969425,,,,,,0.549898413,0.077951658,0,0,1,,0,299,299,39,1,
,,,,,,,,,,,,,,,,,,5d5db7f7ca179000180b17cc,2020-11-27_15h04.24.830,lexical_decision_task_MP_exp2,2020.2.5,MacIntel,60,,m,1,,,,,,,,0.669095,1,,,,,,179,WORD,"ID",16,basket,BASKET,m,0.669095,,,,,,0.549898413,0.077951658,0,0,1,,0,300,300,118,1,
,,,,,,,,,,,,,,,,,,5d5db7f7ca179000180b17cc,2020-11-27_15h04.24.830,lexical_decision_task_MP_exp2,2020.2.5,MacIntel,60,,z,1,,,,,,,,0.936715,1,,,,,,471,NW,UN,33,cigney,NOBEST,z,0.936715,,,,,,0.549898413,0.077951658,0,0,1,,0,301,301,410,1,
,,,,,,,,,,,,,,,,,,5d5db7f7ca179000180b17cc,2020-11-27_15h04.24.830,lexical_decision_task_MP_exp2,2020.2.5,MacIntel,60,,z,1,,,,,,,,0.728625,1,,,,,,446,NW,UN,33,gircue,RUNAMO,z,0.728625,,,,,,0.549898413,0.077951658,0,0,1,,0,302,302,385,1,
,,,,,,,,,,,,,,,,,,5d5db7f7ca179000180b17cc,2020-11-27_15h04.24.830,lexical_decision_task_MP_exp2,2020.2.5,MacIntel,60,,m,1,,,,,,,,0.588745,1,,,,,,51,WORD,UN,16,impose,HUNGRY,m,0.588745,,,,,,0.549898413,0.077951658,0,0,1,,0,303,303,230,1,
,,,,,,,,,,,,,,,,,,5d5db7f7ca179000180b17cc,2020-11-27_15h04.24.830,lexical_decision_task_MP_exp2,2020.2.5,MacIntel,60,,z,1,,,,,,,,0.734515,1,,,,,,334,NW,"ID",33,watmeg,WATMEG,z,0.734515,,,,,,0.549898413,0.077951658,0,0,1,,0,304,304,273,1,
,,,,,,,,,,,,,,,,,,5d5db7f7ca179000180b17cc,2020-11-27_15h04.24.830,lexical_decision_task_MP_exp2,2020.2.5,MacIntel,60,,z,1,,,,,,,,0.66215,1,,,,,,279,NW,UN,16,curbol,CELOND,z,0.66215,,,,,,0.549898413,0.077951658,0,0,1,,0,305,305,458,1,
,,,,,,,,,,,,,,,,,,5d5db7f7ca179000180b17cc,2020-11-27_15h04.24.830,lexical_decision_task_MP_exp2,2020.2.5,MacIntel,60,,z,1,,,,,,,,0.651525,1,,,,,,265,NW,UN,16,varmit,DISTAR,z,0.651525,,,,,,0.549898413,0.077951658,0,0,1,,0,306,306,444,1,
,,,,,,,,,,,,,,,,,,5d5db7f7ca179000180b17cc,2020-11-27_15h04.24.830,lexical_decision_task_MP_exp2,2020.2.5,MacIntel,60,,m,1,,,,,,,,0.635685,1,,,,,,188,WORD,UN,33,censor,SOCIAL,m,0.635685,,,,,,0.549898413,0.077951658,0,0,1,,0,307,307,127,1,
,,,,,,,,,,,,,,,,,,5d5db7f7ca179000180b17cc,2020-11-27_15h04.24.830,lexical_decision_task_MP_exp2,2020.2.5,MacIntel,60,,z,1,,,,,,,,0.61897,1,,,,,,354,NW,"ID",33,virlex,VIRLEX,z,0.61897,,,,,,0.549898413,0.077951658,0,0,1,,0,308,308,293,1,
,,,,,,,,,,,,,,,,,,5d5db7f7ca179000180b17cc,2020-11-27_15h04.24.830,lexical_decision_task_MP_exp2,2020.2.5,MacIntel,60,,m,0,,,,,,,,0.82639,0,,,,,,445,NW,UN,33,runamo,MINKEL,z,0.82639,,,,,,0.549898413,0.077951658,0,0,1,,0,309,309,384,1,
,,,,,,,,,,,,,,,,,,5d5db7f7ca179000180b17cc,2020-11-27_15h04.24.830,lexical_decision_task_MP_exp2,2020.2.5,MacIntel,60,,z,1,,,,,,,,0.63617,1,,,,,,400,NW,"ID",16,wearox,WEAROX,z,0.63617,,,,,,0.549898413,0.077951658,0,0,1,,0,310,310,339,1,
,,,,,,,,,,,,,,,,,,5d5db7f7ca179000180b17cc,2020-11-27_15h04.24.830,lexical_decision_task_MP_exp2,2020.2.5,MacIntel,60,,m,1,,,,,,,,0.683025,1,,,,,,9,WORD,UN,16,bridge,HUSTLE,m,0.683025,,,,,,0.549898413,0.077951658,0,0,1,,0,311,311,188,1,
,,,,,,,,,,,,,,,,,,5d5db7f7ca179000180b17cc,2020-11-27_15h04.24.830,lexical_decision_task_MP_exp2,2020.2.5,MacIntel,60,,m,1,,,,,,,,0.608975,1,,,,,,19,WORD,UN,16,breast,PATRON,m,0.608975,,,,,,0.549898413,0.077951658,0,0,1,,0,312,312,198,1,
,,,,,,,,,,,,,,,,,,5d5db7f7ca179000180b17cc,2020-11-27_15h04.24.830,lexical_decision_task_MP_exp2,2020.2.5,MacIntel,60,,z,1,,,,,,,,0.634735,1,,,,,,403,NW,"ID",16,bruats,BRUATS,z,0.634735,,,,,,0.549898413,0.077951658,0,0,1,,0,313,313,342,1,
,,,,,,,,,,,,,,,,,,5d5db7f7ca179000180b17cc,2020-11-27_15h04.24.830,lexical_decision_task_MP_exp2,2020.2.5,MacIntel,60,,m,1,,,,,,,,0.618525,1,,,,,,59,WORD,UN,16,pencil,SPLINT,m,0.618525,,,,,,0.549898413,0.077951658,0,0,1,,0,314,314,238,1,
,,,,,,,,,,,,,,,,,,5d5db7f7ca179000180b17cc,2020-11-27_15h04.24.830,lexical_decision_task_MP_exp2,2020.2.5,MacIntel,60,,z,1,,,,,,,,0.68637,1,,,,,,370,NW,"ID",16,sleact,SLEACT,z,0.68637,,,,,,0.549898413,0.077951658,0,0,1,,0,315,315,309,1,
,,,,,,,,,,,,,,,,,,5d5db7f7ca179000180b17cc,2020-11-27_15h04.24.830,lexical_decision_task_MP_exp2,2020.2.5,MacIntel,60,,z,1,,,,,,,,0.68563,1,,,,,,366,NW,"ID",16,toshel,TOSHEL,z,0.68563,,,,,,0.549898413,0.077951658,0,0,1,,0,316,316,305,1,
,,,,,,,,,,,,,,,,,,5d5db7f7ca179000180b17cc,2020-11-27_15h04.24.830,lexical_decision_task_MP_exp2,2020.2.5,MacIntel,60,,z,1,,,,,,,,0.70301,1,,,,,,474,NW,UN,33,acrise,HABLIN,z,0.70301,,,,,,0.549898413,0.077951658,0,0,1,,0,317,317,413,1,
,,,,,,,,,,,,,,,,,,5d5db7f7ca179000180b17cc,2020-11-27_15h04.24.830,lexical_decision_task_MP_exp2,2020.2.5,MacIntel,60,,z,1,,,,,,,,0.574065,1,,,,,,419,NW,"ID",16,slount,SLOUNT,z,0.574065,,,,,,0.549898413,0.077951658,0,0,1,,0,318,318,358,1,
,,,,,,,,,,,,,,,,,,5d5db7f7ca179000180b17cc,2020-11-27_15h04.24.830,lexical_decision_task_MP_exp2,2020.2.5,MacIntel,60,,m,1,,,,,,,,0.601905,1,,,,,,126,WORD,"ID",16,enough,ENOUGH,m,0.601905,,,,,,0.549898413,0.077951658,0,0,1,,0,319,319,65,1,
,,,,,,,,,,,,,,,,,,5d5db7f7ca179000180b17cc,2020-11-27_15h04.24.830,lexical_decision_task_MP_exp2,2020.2.5,MacIntel,60,,z,1,,,,,,,,0.685205,1,,,,,,294,NW,UN,16,gleath,INHORT,z,0.685205,,,,,,0.549898413,0.077951658,0,0,1,,0,320,320,473,1,
,,,,,,,,,,,,,,,,,,5d5db7f7ca179000180b17cc,2020-11-27_15h04.24.830,lexical_decision_task_MP_exp2,2020.2.5,MacIntel,60,,m,1,,,,,,,,0.81972,1,,,,,,120,WORD,"ID",33,strain,STRAIN,m,0.81972,,,,,,0.549898413,0.077951658,0,0,1,,0,321,321,59,1,
,,,,,,,,,,,,,,,,,,5d5db7f7ca179000180b17cc,2020-11-27_15h04.24.830,lexical_decision_task_MP_exp2,2020.2.5,MacIntel,60,,z,1,,,,,,,,0.60185,1,,,,,,395,NW,"ID",16,colury,COLURY,z,0.60185,,,,,,0.549898413,0.077951658,0,0,1,,0,322,322,334,1,
,,,,,,,,,,,,,,,,,,5d5db7f7ca179000180b17cc,2020-11-27_15h04.24.830,lexical_decision_task_MP_exp2,2020.2.5,MacIntel,60,,m,1,,,,,,,,0.63835,1,,,,,,76,WORD,"ID",33,exotic,EXOTIC,m,0.63835,,,,,,0.549898413,0.077951658,0,0,1,,0,323,323,15,1,
,,,,,,,,,,,,,,,,,,5d5db7f7ca179000180b17cc,2020-11-27_15h04.24.830,lexical_decision_task_MP_exp2,2020.2.5,MacIntel,60,,m,1,,,,,,,,0.83519,1,,,,,,218,WORD,UN,33,bucket,SHRINK,m,0.83519,,,,,,0.549898413,0.077951658,0,0,1,,0,324,324,157,1,
,,,,,,,,,,,,,,,,,,5d5db7f7ca179000180b17cc,2020-11-27_15h04.24.830,lexical_decision_task_MP_exp2,2020.2.5,MacIntel,60,,m,1,,,,,,,,0.53498,1,,,,,,71,WORD,"ID",33,garden,GARDEN,m,0.53498,,,,,,0.549898413,0.077951658,0,0,1,,0,325,325,10,1,
,,,,,,,,,,,,,,,,,,5d5db7f7ca179000180b17cc,2020-11-27_15h04.24.830,lexical_decision_task_MP_exp2,2020.2.5,MacIntel,60,,z,1,,,,,,,,0.75249,1,,,,,,306,NW,"ID",33,sounge,SOUNGE,z,0.75249,,,,,,0.549898413,0.077951658,0,0,1,,0,326,326,245,1,
,,,,,,,,,,,,,,,,,,5d5db7f7ca179000180b17cc,2020-11-27_15h04.24.830,lexical_decision_task_MP_exp2,2020.2.5,MacIntel,60,,z,1,,,,,,,,0.9362,1,,,,,,305,NW,"ID",33,forgle,FORGLE,z,0.9362,,,,,,0.549898413,0.077951658,0,0,1,,0,327,327,244,1,
,,,,,,,,,,,,,,,,,,5d5db7f7ca179000180b17cc,2020-11-27_15h04.24.830,lexical_decision_task_MP_exp2,2020.2.5,MacIntel,60,,m,1,,,,,,,,0.542135,1,,,,,,137,WORD,"ID",16,finger,FINGER,m,0.542135,,,,,,0.549898413,0.077951658,0,0,1,,0,328,328,76,1,
,,,,,,,,,,,,,,,,,,5d5db7f7ca179000180b17cc,2020-11-27_15h04.24.830,lexical_decision_task_MP_exp2,2020.2.5,MacIntel,60,,m,1,,,,,,,,0.71901,1,,,,,,133,WORD,"ID",16,chrome,CHROME,m,0.71901,,,,,,0.549898413,0.077951658,0,0,1,,0,329,329,72,1,
,,,,,,,,,,,,,,,,,,5d5db7f7ca179000180b17cc,2020-11-27_15h04.24.830,lexical_decision_task_MP_exp2,2020.2.5,MacIntel,60,,z,1,,,,,,,,0.73588,1,,,,,,444,NW,UN,33,minkel,JAUNCE,z,0.73588,,,,,,0.549898413,0.077951658,0,0,1,,0,330,330,383,1,
,,,,,,,,,,,,,,,,,,5d5db7f7ca179000180b17cc,2020-11-27_15h04.24.830,lexical_decision_task_MP_exp2,2020.2.5,MacIntel,60,,m,1,,,,,,,,0.705895,1,,,,,,224,WORD,UN,33,vulgar,PERIOD,m,0.705895,,,,,,0.549898413,0.077951658,0,0,1,,0,331,331,163,1,
,,,,,,,,,,,,,,,,,,5d5db7f7ca179000180b17cc,2020-11-27_15h04.24.830,lexical_decision_task_MP_exp2,2020.2.5,MacIntel,60,,z,1,,,,,,,,0.635605,1,,,,,,343,NW,"ID",33,aimosy,AIMOSY,z,0.635605,,,,,,0.549898413,0.077951658,0,0,1,,0,332,332,282,1,
,,,,,,,,,,,,,,,,,,5d5db7f7ca179000180b17cc,2020-11-27_15h04.24.830,lexical_decision_task_MP_exp2,2020.2.5,MacIntel,60,,m,1,,,,,,,,0.936465,1,,,,,,113,WORD,"ID",33,chorus,CHORUS,m,0.936465,,,,,,0.549898413,0.077951658,0,0,1,,0,333,333,52,1,
,,,,,,,,,,,,,,,,,,5d5db7f7ca179000180b17cc,2020-11-27_15h04.24.830,lexical_decision_task_MP_exp2,2020.2.5,MacIntel,60,,m,1,,,,,,,,0.602325,1,,,,,,75,WORD,"ID",33,trophy,TROPHY,m,0.602325,,,,,,0.549898413,0.077951658,0,0,1,,0,334,334,14,1,
,,,,,,,,,,,,,,,,,,5d5db7f7ca179000180b17cc,2020-11-27_15h04.24.830,lexical_decision_task_MP_exp2,2020.2.5,MacIntel,60,,z,1,,,,,,,,0.58567,1,,,,,,362,NW,"ID",16,tireau,TIREAU,z,0.58567,,,,,,0.549898413,0.077951658,0,0,1,,0,335,335,301,1,
,,,,,,,,,,,,,,,,,,5d5db7f7ca179000180b17cc,2020-11-27_15h04.24.830,lexical_decision_task_MP_exp2,2020.2.5,MacIntel,60,,m,1,,,,,,,,0.524285,1,,,,,,64,WORD,"ID",33,throne,THRONE,m,0.524285,,,,,,0.549898413,0.077951658,0,0,1,,0,336,336,3,1,
,,,,,,,,,,,,,,,,,,5d5db7f7ca179000180b17cc,2020-11-27_15h04.24.830,lexical_decision_task_MP_exp2,2020.2.5,MacIntel,60,,z,1,,,,,,,,0.82579,1,,,,,,352,NW,"ID",33,tringe,TRINGE,z,0.82579,,,,,,0.549898413,0.077951658,0,0,1,,0,337,337,291,1,
,,,,,,,,,,,,,,,,,,5d5db7f7ca179000180b17cc,2020-11-27_15h04.24.830,lexical_decision_task_MP_exp2,2020.2.5,MacIntel,60,,z,1,,,,,,,,0.619435,1,,,,,,405,NW,"ID",16,flumni,FLUMNI,z,0.619435,,,,,,0.549898413,0.077951658,0,0,1,,0,338,338,344,1,
,,,,,,,,,,,,,,,,,,5d5db7f7ca179000180b17cc,2020-11-27_15h04.24.830,lexical_decision_task_MP_exp2,2020.2.5,MacIntel,60,,z,1,,,,,,,,0.69365,1,,,,,,341,NW,"ID",33,myrtie,MYRTIE,z,0.69365,,,,,,0.549898413,0.077951658,0,0,1,,0,339,339,280,1,
,,,,,,,,,,,,,,,,,,5d5db7f7ca179000180b17cc,2020-11-27_15h04.24.830,lexical_decision_task_MP_exp2,2020.2.5,MacIntel,60,,m,1,,,,,,,,0.558575,1,,,,,,80,WORD,"ID",33,family,FAMILY,m,0.558575,,,,,,0.549898413,0.077951658,0,0,1,,0,340,340,19,1,
,,,,,,,,,,,,,,,,,,5d5db7f7ca179000180b17cc,2020-11-27_15h04.24.830,lexical_decision_task_MP_exp2,2020.2.5,MacIntel,60,,m,1,,,,,,,,0.635485,1,,,,,,158,WORD,"ID",16,island,ISLAND,m,0.635485,,,,,,0.549898413,0.077951658,0,0,1,,0,341,341,97,1,
,,,,,,,,,,,,,,,,,,5d5db7f7ca179000180b17cc,2020-11-27_15h04.24.830,lexical_decision_task_MP_exp2,2020.2.5,MacIntel,60,,z,1,,,,,,,,0.652525,1,,,,,,391,NW,"ID",16,theldy,THELDY,z,0.652525,,,,,,0.549898413,0.077951658,0,0,1,,0,342,342,330,1,
,,,,,,,,,,,,,,,,,,5d5db7f7ca179000180b17cc,2020-11-27_15h04.24.830,lexical_decision_task_MP_exp2,2020.2.5,MacIntel,60,,z,1,,,,,,,,0.641755,1,,,,,,459,NW,UN,33,mingar,BAFENT,z,0.641755,,,,,,0.549898413,0.077951658,0,0,1,,0,343,343,398,1,
,,,,,,,,,,,,,,,,,,5d5db7f7ca179000180b17cc,2020-11-27_15h04.24.830,lexical_decision_task_MP_exp2,2020.2.5,MacIntel,60,,m,1,,,,,,,,0.55133,1,,,,,,132,WORD,"ID",16,strong,STRONG,m,0.55133,,,,,,0.549898413,0.077951658,0,0,1,,0,344,344,71,1,
,,,,,,,,,,,,,,,,,,5d5db7f7ca179000180b17cc,2020-11-27_15h04.24.830,lexical_decision_task_MP_exp2,2020.2.5,MacIntel,60,,z,1,,,,,,,,0.870935,1,,,,,,250,NW,UN,16,lupict,MILTED,z,0.870935,,,,,,0.549898413,0.077951658,0,0,1,,0,345,345,429,1,
,,,,,,,,,,,,,,,,,,5d5db7f7ca179000180b17cc,2020-11-27_15h04.24.830,lexical_decision_task_MP_exp2,2020.2.5,MacIntel,60,,m,0,,,,,,,,0.568895,0,,,,,,452,NW,UN,33,bolvis,SURDEN,z,0.568895,,,,,,0.549898413,0.077951658,0,0,1,,0,346,346,391,1,
,,,,,,,,,,,,,,,,,,5d5db7f7ca179000180b17cc,2020-11-27_15h04.24.830,lexical_decision_task_MP_exp2,2020.2.5,MacIntel,60,,m,1,,,,,,,,0.55195,1,,,,,,227,WORD,UN,33,master,SELDOM,m,0.55195,,,,,,0.549898413,0.077951658,0,0,1,,0,347,347,166,1,
,,,,,,,,,,,,,,,,,,5d5db7f7ca179000180b17cc,2020-11-27_15h04.24.830,lexical_decision_task_MP_exp2,2020.2.5,MacIntel,60,,z,1,,,,,,,,0.64263,1,,,,,,349,NW,"ID",33,asylen,ASYLEN,z,0.64263,,,,,,0.549898413,0.077951658,0,0,1,,0,348,348,288,1,
,,,,,,,,,,,,,,,,,,5d5db7f7ca179000180b17cc,2020-11-27_15h04.24.830,lexical_decision_task_MP_exp2,2020.2.5,MacIntel,60,,z,1,,,,,,,,0.607995,1,,,,,,280,NW,UN,16,melaty,CURBOL,z,0.607995,,,,,,0.549898413,0.077951658,0,0,1,,0,349,349,459,1,
,,,,,,,,,,,,,,,,,,5d5db7f7ca179000180b17cc,2020-11-27_15h04.24.830,lexical_decision_task_MP_exp2,2020.2.5,MacIntel,60,,z,0,,,,,,,,0.60127,0,,,,,,16,WORD,UN,16,charge,FAUCET,m,0.60127,,,,,,0.549898413,0.077951658,0,0,1,,0,350,350,195,1,
,,,,,,,,,,,,,,,,,,5d5db7f7ca179000180b17cc,2020-11-27_15h04.24.830,lexical_decision_task_MP_exp2,2020.2.5,MacIntel,60,,m,1,,,,,,,,0.73658,1,,,,,,32,WORD,UN,16,scream,BUCKLE,m,0.73658,,,,,,0.549898413,0.077951658,0,0,1,,0,351,351,211,1,
,,,,,,,,,,,,,,,,,,5d5db7f7ca179000180b17cc,2020-11-27_15h04.24.830,lexical_decision_task_MP_exp2,2020.2.5,MacIntel,60,,m,1,,,,,,,,0.85562,1,,,,,,82,WORD,"ID",33,stigma,STIGMA,m,0.85562,,,,,,0.549898413,0.077951658,0,0,1,,0,352,352,21,1,
,,,,,,,,,,,,,,,,,,5d5db7f7ca179000180b17cc,2020-11-27_15h04.24.830,lexical_decision_task_MP_exp2,2020.2.5,MacIntel,60,,m,1,,,,,,,,0.62723,1,,,,,,196,WORD,UN,33,stream,CREDIT,m,0.62723,,,,,,0.549898413,0.077951658,0,0,1,,0,353,353,135,1,
,,,,,,,,,,,,,,,,,,5d5db7f7ca179000180b17cc,2020-11-27_15h04.24.830,lexical_decision_task_MP_exp2,2020.2.5,MacIntel,60,,m,1,,,,,,,,0.570815,1,,,,,,229,WORD,UN,33,fringe,MOTHER,m,0.570815,,,,,,0.549898413,0.077951658,0,0,1,,0,354,354,168,1,
,,,,,,,,,,,,,,,,,,5d5db7f7ca179000180b17cc,2020-11-27_15h04.24.830,lexical_decision_task_MP_exp2,2020.2.5,MacIntel,60,,z,1,,,,,,,,0.6435,1,,,,,,447,NW,UN,33,sadent,GIRCUE,z,0.6435,,,,,,0.549898413,0.077951658,0,0,1,,0,355,355,386,1,
,,,,,,,,,,,,,,,,,,5d5db7f7ca179000180b17cc,2020-11-27_15h04.24.830,lexical_decision_task_MP_exp2,2020.2.5,MacIntel,60,,m,1,,,,,,,,0.857085,1,,,,,,10,WORD,UN,16,cruise,ETHNIC,m,0.857085,,,,,,0.549898413,0.077951658,0,0,1,,0,356,356,189,1,
,,,,,,,,,,,,,,,,,,5d5db7f7ca179000180b17cc,2020-11-27_15h04.24.830,lexical_decision_task_MP_exp2,2020.2.5,MacIntel,60,,m,1,,,,,,,,0.724835,1,,,,,,221,WORD,UN,33,hinder,MASCOT,m,0.724835,,,,,,0.549898413,0.077951658,0,0,1,,0,357,357,160,1,
,,,,,,,,,,,,,,,,,,5d5db7f7ca179000180b17cc,2020-11-27_15h04.24.830,lexical_decision_task_MP_exp2,2020.2.5,MacIntel,60,,m,1,,,,,,,,0.606705,1,,,,,,52,WORD,UN,16,police,IMPOSE,m,0.606705,,,,,,0.549898413,0.077951658,0,0,1,,0,358,358,231,1,
,,,,,,,,,,,,,,,,,,5d5db7f7ca179000180b17cc,2020-11-27_15h04.24.830,lexical_decision_task_MP_exp2,2020.2.5,MacIntel,60,,z,1,,,,,,,,0.887205,1,,,,,,392,NW,"ID",16,rouncy,ROUNCY,z,0.887205,,,,,,0.549898413,0.077951658,0,0,1,,0,359,359,331,1,
,,,,,,,,,,,,,,,,,,5d5db7f7ca179000180b17cc,2020-11-27_15h04.24.830,lexical_decision_task_MP_exp2,2020.2.5,MacIntel,60,,m,1,,,,,,,,0.54112,1,,,,,,230,WORD,UN,33,mother,FRINGE,m,0.54112,,,,,,0.549898413,0.077951658,0,0,1,,0,360,360,169,1,
,,,,,,,,,,,,,,,,,,5d5db7f7ca179000180b17cc,2020-11-27_15h04.24.830,lexical_decision_task_MP_exp2,2020.2.5,MacIntel,60,,m,0,,,,,,,,0.641275,0,,,,,,289,NW,UN,16,splino,STARBY,z,0.641275,,,,,,0.549898413,0.077951658,0,0,1,,0,361,361,468,1,
,,,,,,,,,,,,,,,,,,5d5db7f7ca179000180b17cc,2020-11-27_15h04.24.830,lexical_decision_task_MP_exp2,2020.2.5,MacIntel,60,,z,1,,,,,,,,0.793705,1,,,,,,423,NW,UN,33,praile,STRELD,z,0.793705,,,,,,0.549898413,0.077951658,0,0,1,space,0,362,362,362,1,19.542825
,,,,,,,,,,,,,,,,,,5d5db7f7ca179000180b17cc,2020-11-27_15h04.24.830,lexical_decision_task_MP_exp2,2020.2.5,MacIntel,60,,z,1,,,,,,,,0.65427,1,,,,,,253,NW,UN,16,varosh,RESAIT,z,0.65427,,,,,,0.549898413,0.077951658,0,0,1,,0,363,363,432,1,
,,,,,,,,,,,,,,,,,,5d5db7f7ca179000180b17cc,2020-11-27_15h04.24.830,lexical_decision_task_MP_exp2,2020.2.5,MacIntel,60,,m,1,,,,,,,,0.551505,1,,,,,,165,WORD,"ID",16,invest,INVEST,m,0.551505,,,,,,0.549898413,0.077951658,0,0,1,,0,364,364,104,1,
,,,,,,,,,,,,,,,,,,5d5db7f7ca179000180b17cc,2020-11-27_15h04.24.830,lexical_decision_task_MP_exp2,2020.2.5,MacIntel,60,,m,1,,,,,,,,0.73851,1,,,,,,213,WORD,UN,33,intake,SQUEAL,m,0.73851,,,,,,0.549898413,0.077951658,0,0,1,,0,365,365,152,1,
,,,,,,,,,,,,,,,,,,5d5db7f7ca179000180b17cc,2020-11-27_15h04.24.830,lexical_decision_task_MP_exp2,2020.2.5,MacIntel,60,,z,1,,,,,,,,0.93584,1,,,,,,249,NW,UN,16,milted,BATROL,z,0.93584,,,,,,0.549898413,0.077951658,0,0,1,,0,366,366,428,1,
,,,,,,,,,,,,,,,,,,5d5db7f7ca179000180b17cc,2020-11-27_15h04.24.830,lexical_decision_task_MP_exp2,2020.2.5,MacIntel,60,,m,1,,,,,,,,0.65262,1,,,,,,217,WORD,UN,33,shrink,LIQUOR,m,0.65262,,,,,,0.549898413,0.077951658,0,0,1,,0,367,367,156,1,
,,,,,,,,,,,,,,,,,,5d5db7f7ca179000180b17cc,2020-11-27_15h04.24.830,lexical_decision_task_MP_exp2,2020.2.5,MacIntel,60,,z,1,,,,,,,,0.590945,1,,,,,,359,NW,"ID",33,fonver,FONVER,z,0.590945,,,,,,0.549898413,0.077951658,0,0,1,,0,368,368,298,1,
,,,,,,,,,,,,,,,,,,5d5db7f7ca179000180b17cc,2020-11-27_15h04.24.830,lexical_decision_task_MP_exp2,2020.2.5,MacIntel,60,,z,1,,,,,,,,0.72556,1,,,,,,330,NW,"ID",33,kensom,KENSOM,z,0.72556,,,,,,0.549898413,0.077951658,0,0,1,,0,369,369,269,1,
,,,,,,,,,,,,,,,,,,5d5db7f7ca179000180b17cc,2020-11-27_15h04.24.830,lexical_decision_task_MP_exp2,2020.2.5,MacIntel,60,,z,1,,,,,,,,1.041535,1,,,,,,357,NW,"ID",33,derain,DERAIN,z,1.041535,,,,,,0.549898413,0.077951658,0,0,1,,0,370,370,296,1,
,,,,,,,,,,,,,,,,,,5d5db7f7ca179000180b17cc,2020-11-27_15h04.24.830,lexical_decision_task_MP_exp2,2020.2.5,MacIntel,60,,m,1,,,,,,,,0.52185,1,,,,,,77,WORD,"ID",33,racket,RACKET,m,0.52185,,,,,,0.549898413,0.077951658,0,0,1,,0,371,371,16,1,
,,,,,,,,,,,,,,,,,,5d5db7f7ca179000180b17cc,2020-11-27_15h04.24.830,lexical_decision_task_MP_exp2,2020.2.5,MacIntel,60,,m,1,,,,,,,,0.56035,1,,,,,,81,WORD,"ID",33,friend,FRIEND,m,0.56035,,,,,,0.549898413,0.077951658,0,0,1,,0,372,372,20,1,
,,,,,,,,,,,,,,,,,,5d5db7f7ca179000180b17cc,2020-11-27_15h04.24.830,lexical_decision_task_MP_exp2,2020.2.5,MacIntel,60,,z,1,,,,,,,,0.755755,1,,,,,,252,NW,UN,16,resait,STAPOD,z,0.755755,,,,,,0.549898413,0.077951658,0,0,1,,0,373,373,431,1,
,,,,,,,,,,,,,,,,,,5d5db7f7ca179000180b17cc,2020-11-27_15h04.24.830,lexical_decision_task_MP_exp2,2020.2.5,MacIntel,60,,z,1,,,,,,,,0.719615,1,,,,,,255,NW,UN,16,inlors,APIGHT,z,0.719615,,,,,,0.549898413,0.077951658,0,0,1,,0,374,374,434,1,
,,,,,,,,,,,,,,,,,,5d5db7f7ca179000180b17cc,2020-11-27_15h04.24.830,lexical_decision_task_MP_exp2,2020.2.5,MacIntel,60,,z,1,,,,,,,,0.635615,1,,,,,,385,NW,"ID",16,veigma,VEIGMA,z,0.635615,,,,,,0.549898413,0.077951658,0,0,1,,0,375,375,324,1,
,,,,,,,,,,,,,,,,,,5d5db7f7ca179000180b17cc,2020-11-27_15h04.24.830,lexical_decision_task_MP_exp2,2020.2.5,MacIntel,60,,m,1,,,,,,,,0.768895,1,,,,,,235,WORD,UN,33,pirate,GRUMPY,m,0.768895,,,,,,0.549898413,0.077951658,0,0,1,,0,376,376,174,1,
,,,,,,,,,,,,,,,,,,5d5db7f7ca179000180b17cc,2020-11-27_15h04.24.830,lexical_decision_task_MP_exp2,2020.2.5,MacIntel,60,,z,1,,,,,,,,0.735855,1,,,,,,277,NW,UN,16,unighs,PETAIN,z,0.735855,,,,,,0.549898413,0.077951658,0,0,1,,0,377,377,456,1,
,,,,,,,,,,,,,,,,,,5d5db7f7ca179000180b17cc,2020-11-27_15h04.24.830,lexical_decision_task_MP_exp2,2020.2.5,MacIntel,60,,z,1,,,,,,,,0.616145,1,,,,,,274,NW,UN,16,sleirt,FUMBLO,z,0.616145,,,,,,0.549898413,0.077951658,0,0,1,,0,378,378,453,1,
,,,,,,,,,,,,,,,,,,5d5db7f7ca179000180b17cc,2020-11-27_15h04.24.830,lexical_decision_task_MP_exp2,2020.2.5,MacIntel,60,,z,0,,,,,,,,0.63501,0,,,,,,45,WORD,UN,16,single,CLERGY,m,0.63501,,,,,,0.549898413,0.077951658,0,0,1,,0,379,379,224,1,
,,,,,,,,,,,,,,,,,,5d5db7f7ca179000180b17cc,2020-11-27_15h04.24.830,lexical_decision_task_MP_exp2,2020.2.5,MacIntel,60,,z,1,,,,,,,,0.585455,1,,,,,,466,NW,UN,33,robuly,HOCITE,z,0.585455,,,,,,0.549898413,0.077951658,0,0,1,,0,380,380,405,1,
,,,,,,,,,,,,,,,,,,5d5db7f7ca179000180b17cc,2020-11-27_15h04.24.830,lexical_decision_task_MP_exp2,2020.2.5,MacIntel,60,,z,1,,,,,,,,0.5399,1,,,,,,430,NW,UN,33,chrums,CAROEY,z,0.5399,,,,,,0.549898413,0.077951658,0,0,1,,0,381,381,369,1,
,,,,,,,,,,,,,,,,,,5d5db7f7ca179000180b17cc,2020-11-27_15h04.24.830,lexical_decision_task_MP_exp2,2020.2.5,MacIntel,60,,z,1,,,,,,,,0.61205,1,,,,,,387,NW,"ID",16,gronce,GRONCE,z,0.61205,,,,,,0.549898413,0.077951658,0,0,1,,0,382,382,326,1,
,,,,,,,,,,,,,,,,,,5d5db7f7ca179000180b17cc,2020-11-27_15h04.24.830,lexical_decision_task_MP_exp2,2020.2.5,MacIntel,60,,z,1,,,,,,,,0.75769,1,,,,,,276,NW,UN,16,petain,YARMON,z,0.75769,,,,,,0.549898413,0.077951658,0,0,1,,0,383,383,455,1,
,,,,,,,,,,,,,,,,,,5d5db7f7ca179000180b17cc,2020-11-27_15h04.24.830,lexical_decision_task_MP_exp2,2020.2.5,MacIntel,60,,z,1,,,,,,,,0.585245,1,,,,,,278,NW,UN,16,celond,UNIGHS,z,0.585245,,,,,,0.549898413,0.077951658,0,0,1,,0,384,384,457,1,
,,,,,,,,,,,,,,,,,,5d5db7f7ca179000180b17cc,2020-11-27_15h04.24.830,lexical_decision_task_MP_exp2,2020.2.5,MacIntel,60,,m,1,,,,,,,,0.61812,1,,,,,,186,WORD,UN,33,course,PORTAL,m,0.61812,,,,,,0.549898413,0.077951658,0,0,1,,0,385,385,125,1,
,,,,,,,,,,,,,,,,,,5d5db7f7ca179000180b17cc,2020-11-27_15h04.24.830,lexical_decision_task_MP_exp2,2020.2.5,MacIntel,60,,m,1,,,,,,,,0.617405,1,,,,,,20,WORD,UN,16,simple,BREAST,m,0.617405,,,,,,0.549898413,0.077951658,0,0,1,,0,386,386,199,1,
,,,,,,,,,,,,,,,,,,5d5db7f7ca179000180b17cc,2020-11-27_15h04.24.830,lexical_decision_task_MP_exp2,2020.2.5,MacIntel,60,,m,1,,,,,,,,0.853715,1,,,,,,131,WORD,"ID",16,quench,QUENCH,m,0.853715,,,,,,0.549898413,0.077951658,0,0,1,,0,387,387,70,1,
,,,,,,,,,,,,,,,,,,5d5db7f7ca179000180b17cc,2020-11-27_15h04.24.830,lexical_decision_task_MP_exp2,2020.2.5,MacIntel,60,,m,1,,,,,,,,0.636595,1,,,,,,41,WORD,UN,16,chapel,SPRING,m,0.636595,,,,,,0.549898413,0.077951658,0,0,1,,0,388,388,220,1,
,,,,,,,,,,,,,,,,,,5d5db7f7ca179000180b17cc,2020-11-27_15h04.24.830,lexical_decision_task_MP_exp2,2020.2.5,MacIntel,60,,z,1,,,,,,,,0.58582,1,,,,,,442,NW,UN,33,dorsex,ABOUNE,z,0.58582,,,,,,0.549898413,0.077951658,0,0,1,,0,389,389,381,1,
