counterbalancing_condition,instr_done_keyboard.keys,instr_done_keyboard.rt,instr_done_touch.x,instr_done_touch.y,instr_done_touch.leftButton,instr_done_touch.midButton,instr_done_touch.rightButton,instruction_pages.thisRepN,instruction_pages.thisTrialN,instruction_pages.thisN,instruction_pages.thisIndex,instruction_pages.ran,pageN,phase,instruct_text,has_image,instruct_image,participant,date,expName,psychopyVersion,OS,frameRate,response.keys,response.corr,response.rt,touch_resp.x,touch_resp.y,touch_resp.leftButton,touch_resp.midButton,touch_resp.rightButton,touch_resp.time,touch_resp.clicked_name,rt,corr,practice_trials.thisRepN,practice_trials.thisTrialN,practice_trials.thisN,practice_trials.thisIndex,practice_trials.ran,TrialID,StimulusType,Condition,PrimeDuration,Prime,Target,corrAns,end_of_practice_trials_pages.thisRepN,end_of_practice_trials_pages.thisTrialN,end_of_practice_trials_pages.thisN,end_of_practice_trials_pages.thisIndex,end_of_practice_trials_pages.ran,break_done_touch.x,break_done_touch.y,break_done_touch.leftButton,break_done_touch.midButton,break_done_touch.rightButton,break_done_keyboard.keys,trials.thisRepN,trials.thisTrialN,trials.thisN,trials.thisIndex,trials.ran
1,space,10.495135,0.198148148,-0.225,0,0,0,0,0,0,0,1,1,instructions,"INSTRUCTIONS
At the start of each trial, look at the hash marks (######) in the center of the screen. After a moment, a string of letters will appear. Your task is to indicate if the letter string forms a word or not (i.e., if it is a nonword). For example, AUTHOR is a word while AUTHON is a nonword.

Press the space bar or touch the button below to continue.",0,,5dde843983e309dfeaf240e9,2020-11-25_11h40.27.651,lexical_decision_task_MP_exp2,2020.2.5,Win32,60,,,,,,,,,,,,,,,,,,,,,,,,,,,,,,,,,,,,,,,,
,space,7.389325,0.412037037,-0.037037037,0,0,0,0,1,1,1,1,2,instructions,"If your device has a keyboard, press the 'Z' key for nonwords and the 'M' key for words.





Press the space bar or touch the button below to continue.",1,keyboard-example.gif,5dde843983e309dfeaf240e9,2020-11-25_11h40.27.651,lexical_decision_task_MP_exp2,2020.2.5,Win32,60,,,,,,,,,,,,,,,,,,,,,,,,,,,,,,,,,,,,,,,,
,space,3.30797,0.412037037,-0.037037037,0,0,0,0,2,2,2,1,3,instructions,"If you are using a touchscreen only device, use the buttons on the screen. Do not use the mouse.





Press the space bar or touch the button below to continue.",1,touchscreen-example.gif,5dde843983e309dfeaf240e9,2020-11-25_11h40.27.651,lexical_decision_task_MP_exp2,2020.2.5,Win32,60,,,,,,,,,,,,,,,,,,,,,,,,,,,,,,,,,,,,,,,,
,space,1.78171,0.412037037,-0.037037037,0,0,0,0,3,3,3,1,4,instructions,"It is very important that you respond as quickly and accurately as possible, as each letter string will only be on the screen for two seconds. If you do not respond within this time, the message 'Too slow!' will be displayed and the experiment will progress to the next letter string. The first 20 trials will be practice trials and you will receive feedback on your answers. 

Press the space bar or touch the button below to start the practice trials.",0,,5dde843983e309dfeaf240e9,2020-11-25_11h40.27.651,lexical_decision_task_MP_exp2,2020.2.5,Win32,60,,,,,,,,,,,,,,,,,,,,,,,,,,,,,,,,,,,,,,,,
,,,,,,,,,,,,,,,,,,5dde843983e309dfeaf240e9,2020-11-25_11h40.27.651,lexical_decision_task_MP_exp2,2020.2.5,Win32,60,z,1,1.000355,,,,,,,,1.000355,1,0,0,0,15,1,1016,NW,UN,16,mushed,WHAISE,z,,,,,,,,,,,,,,,,
,,,,,,,,,,,,,,,,,,5dde843983e309dfeaf240e9,2020-11-25_11h40.27.651,lexical_decision_task_MP_exp2,2020.2.5,Win32,60,z,1,1.038675,,,,,,,,1.038675,1,0,1,1,8,1,1009,NW,"ID",33,aslert,ASLERT,z,,,,,,,,,,,,,,,,
,,,,,,,,,,,,,,,,,,5dde843983e309dfeaf240e9,2020-11-25_11h40.27.651,lexical_decision_task_MP_exp2,2020.2.5,Win32,60,z,1,0.789105,,,,,,,,0.789105,1,0,2,2,12,1,1013,NW,UN,33,adveil,SPRINY,z,,,,,,,,,,,,,,,,
,,,,,,,,,,,,,,,,,,5dde843983e309dfeaf240e9,2020-11-25_11h40.27.651,lexical_decision_task_MP_exp2,2020.2.5,Win32,60,m,1,0.51531,,,,,,,,0.51531,1,0,3,3,7,1,1008,WORD,UN,16,hurdle,VOLUME,m,,,,,,,,,,,,,,,,
,,,,,,,,,,,,,,,,,,5dde843983e309dfeaf240e9,2020-11-25_11h40.27.651,lexical_decision_task_MP_exp2,2020.2.5,Win32,60,m,1,0.553735,,,,,,,,0.553735,1,0,4,4,1,1,1002,WORD,"ID",33,adjust,ADJUST,m,,,,,,,,,,,,,,,,
,,,,,,,,,,,,,,,,,,5dde843983e309dfeaf240e9,2020-11-25_11h40.27.651,lexical_decision_task_MP_exp2,2020.2.5,Win32,60,m,1,0.680715,,,,,,,,0.680715,1,0,5,5,0,1,1001,WORD,"ID",33,utopia,UTOPIA,m,,,,,,,,,,,,,,,,
,,,,,,,,,,,,,,,,,,5dde843983e309dfeaf240e9,2020-11-25_11h40.27.651,lexical_decision_task_MP_exp2,2020.2.5,Win32,60,m,1,0.57263,,,,,,,,0.57263,1,0,6,6,6,1,1007,WORD,UN,16,tropic,ZOMBIE,m,,,,,,,,,,,,,,,,
,,,,,,,,,,,,,,,,,,5dde843983e309dfeaf240e9,2020-11-25_11h40.27.651,lexical_decision_task_MP_exp2,2020.2.5,Win32,60,z,1,0.851545,,,,,,,,0.851545,1,0,7,7,10,1,1011,NW,"ID",16,inlade,INLADE,z,,,,,,,,,,,,,,,,
,,,,,,,,,,,,,,,,,,5dde843983e309dfeaf240e9,2020-11-25_11h40.27.651,lexical_decision_task_MP_exp2,2020.2.5,Win32,60,z,1,0.815095,,,,,,,,0.815095,1,0,8,8,13,1,1014,NW,UN,33,winfer,ROUPET,z,,,,,,,,,,,,,,,,
,,,,,,,,,,,,,,,,,,5dde843983e309dfeaf240e9,2020-11-25_11h40.27.651,lexical_decision_task_MP_exp2,2020.2.5,Win32,60,m,1,0.700175,,,,,,,,0.700175,1,0,9,9,4,1,1005,WORD,UN,33,abound,SQUEAK,m,,,,,,,,,,,,,,,,
,,,,,,,,,,,,,,,,,,5dde843983e309dfeaf240e9,2020-11-25_11h40.27.651,lexical_decision_task_MP_exp2,2020.2.5,Win32,60,z,1,0.917665,,,,,,,,0.917665,1,0,10,10,9,1,1010,NW,"ID",33,fariny,FARINY,z,,,,,,,,,,,,,,,,
,,,,,,,,,,,,,,,,,,5dde843983e309dfeaf240e9,2020-11-25_11h40.27.651,lexical_decision_task_MP_exp2,2020.2.5,Win32,60,z,1,0.896875,,,,,,,,0.896875,1,0,11,11,11,1,1012,NW,"ID",16,rashet,RASHET,z,,,,,,,,,,,,,,,,
,,,,,,,,,,,,,,,,,,5dde843983e309dfeaf240e9,2020-11-25_11h40.27.651,lexical_decision_task_MP_exp2,2020.2.5,Win32,60,m,1,0.514325,,,,,,,,0.514325,1,0,12,12,3,1,1004,WORD,"ID",16,matrix,MATRIX,m,,,,,,,,,,,,,,,,
,,,,,,,,,,,,,,,,,,5dde843983e309dfeaf240e9,2020-11-25_11h40.27.651,lexical_decision_task_MP_exp2,2020.2.5,Win32,60,m,1,0.6181,,,,,,,,0.6181,1,0,13,13,2,1,1003,WORD,"ID",16,almond,ALMOND,m,,,,,,,,,,,,,,,,
,,,,,,,,,,,,,,,,,,5dde843983e309dfeaf240e9,2020-11-25_11h40.27.651,lexical_decision_task_MP_exp2,2020.2.5,Win32,60,z,1,0.98146,,,,,,,,0.98146,1,0,14,14,14,1,1015,NW,UN,16,miaber,THRALE,z,,,,,,,,,,,,,,,,
,,,,,,,,,,,,,,,,,,5dde843983e309dfeaf240e9,2020-11-25_11h40.27.651,lexical_decision_task_MP_exp2,2020.2.5,Win32,60,m,1,0.630185,,,,,,,,0.630185,1,0,15,15,5,1,1006,WORD,UN,33,frenzy,OBTAIN,m,,,,,,,,,,,,,,,,
,space,1.51276,0.412037037,-0.037037037,0,0,0,,,,,,1,end_of_practice,"You have completed the practice trials. During the experimental trials, you will not receive feedback, but it is very important that you respond as quickly and accurately as possible. 
Before you begin, please ensure that you are in a comfortable and quiet location and will not be disturbed for about 15 minutes, as we cannot use your data if you do not complete all the trials. 
There will be opportunities to take breaks at regular intervals during the experiment. When you are ready to start the experimental trials, please press space or touch the button below.",,,5dde843983e309dfeaf240e9,2020-11-25_11h40.27.651,lexical_decision_task_MP_exp2,2020.2.5,Win32,60,,,,,,,,,,,,,,,,,,,,,,,,,0,0,0,0,1,,,,,,,,,,,
,,,,,,,,,,,,,,,,,,5dde843983e309dfeaf240e9,2020-11-25_11h40.27.651,lexical_decision_task_MP_exp2,2020.2.5,Win32,60,m,1,0.735125,,,,,,,,0.735125,1,,,,,,147,WORD,UN,33,custom,GARLIC,m,,,,,,0.412037037,-0.037037037,0,0,0,,0,0,0,146,1
,,,,,,,,,,,,,,,,,,5dde843983e309dfeaf240e9,2020-11-25_11h40.27.651,lexical_decision_task_MP_exp2,2020.2.5,Win32,60,m,0,0.634525,,,,,,,,0.634525,0,,,,,,426,NW,UN,16,frudge,URIVEL,z,,,,,,0.412037037,-0.037037037,0,0,0,,0,1,1,425,1
,,,,,,,,,,,,,,,,,,5dde843983e309dfeaf240e9,2020-11-25_11h40.27.651,lexical_decision_task_MP_exp2,2020.2.5,Win32,60,z,1,1.00712,,,,,,,,1.00712,1,,,,,,402,NW,UN,33,bruats,SYNTIC,z,,,,,,0.412037037,-0.037037037,0,0,0,,0,2,2,401,1
,,,,,,,,,,,,,,,,,,5dde843983e309dfeaf240e9,2020-11-25_11h40.27.651,lexical_decision_task_MP_exp2,2020.2.5,Win32,60,m,1,0.728395,,,,,,,,0.728395,1,,,,,,117,WORD,"ID",16,branch,BRANCH,m,,,,,,0.412037037,-0.037037037,0,0,0,,0,3,3,116,1
,,,,,,,,,,,,,,,,,,5dde843983e309dfeaf240e9,2020-11-25_11h40.27.651,lexical_decision_task_MP_exp2,2020.2.5,Win32,60,m,1,0.605375,,,,,,,,0.605375,1,,,,,,67,WORD,"ID",16,policy,POLICY,m,,,,,,0.412037037,-0.037037037,0,0,0,,0,4,4,66,1
,,,,,,,,,,,,,,,,,,5dde843983e309dfeaf240e9,2020-11-25_11h40.27.651,lexical_decision_task_MP_exp2,2020.2.5,Win32,60,m,1,0.62236,,,,,,,,0.62236,1,,,,,,171,WORD,UN,33,patrol,DEPART,m,,,,,,0.412037037,-0.037037037,0,0,0,,0,5,5,170,1
,,,,,,,,,,,,,,,,,,5dde843983e309dfeaf240e9,2020-11-25_11h40.27.651,lexical_decision_task_MP_exp2,2020.2.5,Win32,60,m,1,0.70083,,,,,,,,0.70083,1,,,,,,6,WORD,"ID",33,bundle,BUNDLE,m,,,,,,0.412037037,-0.037037037,0,0,0,,0,6,6,5,1
,,,,,,,,,,,,,,,,,,5dde843983e309dfeaf240e9,2020-11-25_11h40.27.651,lexical_decision_task_MP_exp2,2020.2.5,Win32,60,m,1,0.567495,,,,,,,,0.567495,1,,,,,,20,WORD,"ID",33,breast,BREAST,m,,,,,,0.412037037,-0.037037037,0,0,0,,0,7,7,19,1
,,,,,,,,,,,,,,,,,,5dde843983e309dfeaf240e9,2020-11-25_11h40.27.651,lexical_decision_task_MP_exp2,2020.2.5,Win32,60,z,1,0.78431,,,,,,,,0.78431,1,,,,,,470,NW,UN,16,nobest,CRUDIO,z,,,,,,0.412037037,-0.037037037,0,0,0,,0,8,8,469,1
,,,,,,,,,,,,,,,,,,5dde843983e309dfeaf240e9,2020-11-25_11h40.27.651,lexical_decision_task_MP_exp2,2020.2.5,Win32,60,m,1,0.667745,,,,,,,,0.667745,1,,,,,,118,WORD,"ID",16,flight,FLIGHT,m,,,,,,0.412037037,-0.037037037,0,0,0,,0,9,9,117,1
,,,,,,,,,,,,,,,,,,5dde843983e309dfeaf240e9,2020-11-25_11h40.27.651,lexical_decision_task_MP_exp2,2020.2.5,Win32,60,m,0,0.750445,,,,,,,,0.750445,0,,,,,,418,NW,UN,33,slount,SUIDLE,z,,,,,,0.412037037,-0.037037037,0,0,0,,0,10,10,417,1
,,,,,,,,,,,,,,,,,,5dde843983e309dfeaf240e9,2020-11-25_11h40.27.651,lexical_decision_task_MP_exp2,2020.2.5,Win32,60,m,1,0.822475,,,,,,,,0.822475,1,,,,,,54,WORD,"ID",33,ramble,RAMBLE,m,,,,,,0.412037037,-0.037037037,0,0,0,,0,11,11,53,1
,,,,,,,,,,,,,,,,,,5dde843983e309dfeaf240e9,2020-11-25_11h40.27.651,lexical_decision_task_MP_exp2,2020.2.5,Win32,60,z,1,0.91804,,,,,,,,0.91804,1,,,,,,360,NW,"ID",16,desory,DESORY,z,,,,,,0.412037037,-0.037037037,0,0,0,,0,12,12,359,1
,,,,,,,,,,,,,,,,,,5dde843983e309dfeaf240e9,2020-11-25_11h40.27.651,lexical_decision_task_MP_exp2,2020.2.5,Win32,60,m,1,0.66791,,,,,,,,0.66791,1,,,,,,201,WORD,UN,16,factor,ADMIRE,m,,,,,,0.412037037,-0.037037037,0,0,0,,0,13,13,200,1
,,,,,,,,,,,,,,,,,,5dde843983e309dfeaf240e9,2020-11-25_11h40.27.651,lexical_decision_task_MP_exp2,2020.2.5,Win32,60,z,1,1.217745,,,,,,,,1.217745,1,,,,,,293,NW,"ID",33,swance,SWANCE,z,,,,,,0.412037037,-0.037037037,0,0,0,,0,14,14,292,1
,,,,,,,,,,,,,,,,,,5dde843983e309dfeaf240e9,2020-11-25_11h40.27.651,lexical_decision_task_MP_exp2,2020.2.5,Win32,60,m,1,0.667225,,,,,,,,0.667225,1,,,,,,57,WORD,"ID",33,change,CHANGE,m,,,,,,0.412037037,-0.037037037,0,0,0,,0,15,15,56,1
,,,,,,,,,,,,,,,,,,5dde843983e309dfeaf240e9,2020-11-25_11h40.27.651,lexical_decision_task_MP_exp2,2020.2.5,Win32,60,m,1,0.63392,,,,,,,,0.63392,1,,,,,,231,WORD,UN,16,mother,EXPORT,m,,,,,,0.412037037,-0.037037037,0,0,0,,0,16,16,230,1
,,,,,,,,,,,,,,,,,,5dde843983e309dfeaf240e9,2020-11-25_11h40.27.651,lexical_decision_task_MP_exp2,2020.2.5,Win32,60,m,1,0.71846,,,,,,,,0.71846,1,,,,,,22,WORD,"ID",33,jockey,JOCKEY,m,,,,,,0.412037037,-0.037037037,0,0,0,,0,17,17,21,1
,,,,,,,,,,,,,,,,,,5dde843983e309dfeaf240e9,2020-11-25_11h40.27.651,lexical_decision_task_MP_exp2,2020.2.5,Win32,60,z,1,0.61725,,,,,,,,0.61725,1,,,,,,471,NW,UN,16,cigney,NOBEST,z,,,,,,0.412037037,-0.037037037,0,0,0,,0,18,18,470,1
,,,,,,,,,,,,,,,,,,5dde843983e309dfeaf240e9,2020-11-25_11h40.27.651,lexical_decision_task_MP_exp2,2020.2.5,Win32,60,m,1,0.58345,,,,,,,,0.58345,1,,,,,,149,WORD,UN,33,random,INVADE,m,,,,,,0.412037037,-0.037037037,0,0,0,,0,19,19,148,1
,,,,,,,,,,,,,,,,,,5dde843983e309dfeaf240e9,2020-11-25_11h40.27.651,lexical_decision_task_MP_exp2,2020.2.5,Win32,60,m,1,0.58431,,,,,,,,0.58431,1,,,,,,95,WORD,"ID",16,thread,THREAD,m,,,,,,0.412037037,-0.037037037,0,0,0,,0,20,20,94,1
,,,,,,,,,,,,,,,,,,5dde843983e309dfeaf240e9,2020-11-25_11h40.27.651,lexical_decision_task_MP_exp2,2020.2.5,Win32,60,z,1,1.401215,,,,,,,,1.401215,1,,,,,,454,NW,UN,16,tondle,SCOUGE,z,,,,,,0.412037037,-0.037037037,0,0,0,,0,21,21,453,1
,,,,,,,,,,,,,,,,,,5dde843983e309dfeaf240e9,2020-11-25_11h40.27.651,lexical_decision_task_MP_exp2,2020.2.5,Win32,60,z,1,0.91783,,,,,,,,0.91783,1,,,,,,460,NW,UN,16,justre,MINGAR,z,,,,,,0.412037037,-0.037037037,0,0,0,,0,22,22,459,1
,,,,,,,,,,,,,,,,,,5dde843983e309dfeaf240e9,2020-11-25_11h40.27.651,lexical_decision_task_MP_exp2,2020.2.5,Win32,60,z,1,1.1396,,,,,,,,1.1396,1,,,,,,409,NW,UN,33,tunory,ELOPIA,z,,,,,,0.412037037,-0.037037037,0,0,0,,0,23,23,408,1
,,,,,,,,,,,,,,,,,,5dde843983e309dfeaf240e9,2020-11-25_11h40.27.651,lexical_decision_task_MP_exp2,2020.2.5,Win32,60,m,1,0.639645,,,,,,,,0.639645,1,,,,,,140,WORD,UN,33,reason,PRINCE,m,,,,,,0.412037037,-0.037037037,0,0,0,,0,24,24,139,1
,,,,,,,,,,,,,,,,,,5dde843983e309dfeaf240e9,2020-11-25_11h40.27.651,lexical_decision_task_MP_exp2,2020.2.5,Win32,60,m,1,0.717785,,,,,,,,0.717785,1,,,,,,239,WORD,UN,16,forest,LUMBER,m,,,,,,0.412037037,-0.037037037,0,0,0,,0,25,25,238,1
,,,,,,,,,,,,,,,,,,5dde843983e309dfeaf240e9,2020-11-25_11h40.27.651,lexical_decision_task_MP_exp2,2020.2.5,Win32,60,z,1,0.784,,,,,,,,0.784,1,,,,,,391,NW,UN,33,rouncy,THELDY,z,,,,,,0.412037037,-0.037037037,0,0,0,,0,26,26,390,1
,,,,,,,,,,,,,,,,,,5dde843983e309dfeaf240e9,2020-11-25_11h40.27.651,lexical_decision_task_MP_exp2,2020.2.5,Win32,60,z,1,0.86666,,,,,,,,0.86666,1,,,,,,320,NW,"ID",16,jockal,JOCKAL,z,,,,,,0.412037037,-0.037037037,0,0,0,,0,27,27,319,1
,,,,,,,,,,,,,,,,,,5dde843983e309dfeaf240e9,2020-11-25_11h40.27.651,lexical_decision_task_MP_exp2,2020.2.5,Win32,60,m,1,0.617395,,,,,,,,0.617395,1,,,,,,59,WORD,"ID",33,splint,SPLINT,m,,,,,,0.412037037,-0.037037037,0,0,0,,0,28,28,58,1
,,,,,,,,,,,,,,,,,,5dde843983e309dfeaf240e9,2020-11-25_11h40.27.651,lexical_decision_task_MP_exp2,2020.2.5,Win32,60,z,1,0.791635,,,,,,,,0.791635,1,,,,,,442,NW,UN,16,dorsex,ABOUNE,z,,,,,,0.412037037,-0.037037037,0,0,0,,0,29,29,441,1
,,,,,,,,,,,,,,,,,,5dde843983e309dfeaf240e9,2020-11-25_11h40.27.651,lexical_decision_task_MP_exp2,2020.2.5,Win32,60,z,1,0.62554,,,,,,,,0.62554,1,,,,,,463,NW,UN,16,bafent,KISPEL,z,,,,,,0.412037037,-0.037037037,0,0,0,,0,30,30,462,1
,,,,,,,,,,,,,,,,,,5dde843983e309dfeaf240e9,2020-11-25_11h40.27.651,lexical_decision_task_MP_exp2,2020.2.5,Win32,60,m,1,0.70679,,,,,,,,0.70679,1,,,,,,215,WORD,UN,16,behalf,PHOBIA,m,,,,,,0.412037037,-0.037037037,0,0,0,,0,31,31,214,1
,,,,,,,,,,,,,,,,,,5dde843983e309dfeaf240e9,2020-11-25_11h40.27.651,lexical_decision_task_MP_exp2,2020.2.5,Win32,60,z,1,0.65172,,,,,,,,0.65172,1,,,,,,385,NW,UN,33,ancust,VEIGMA,z,,,,,,0.412037037,-0.037037037,0,0,0,,0,32,32,384,1
,,,,,,,,,,,,,,,,,,5dde843983e309dfeaf240e9,2020-11-25_11h40.27.651,lexical_decision_task_MP_exp2,2020.2.5,Win32,60,m,1,0.56834,,,,,,,,0.56834,1,,,,,,144,WORD,UN,33,parish,SPONGE,m,,,,,,0.412037037,-0.037037037,0,0,0,,0,33,33,143,1
,,,,,,,,,,,,,,,,,,5dde843983e309dfeaf240e9,2020-11-25_11h40.27.651,lexical_decision_task_MP_exp2,2020.2.5,Win32,60,m,1,0.61843,,,,,,,,0.61843,1,,,,,,162,WORD,UN,33,string,CANDLE,m,,,,,,0.412037037,-0.037037037,0,0,0,,0,34,34,161,1
,,,,,,,,,,,,,,,,,,5dde843983e309dfeaf240e9,2020-11-25_11h40.27.651,lexical_decision_task_MP_exp2,2020.2.5,Win32,60,m,1,0.64355,,,,,,,,0.64355,1,,,,,,75,WORD,"ID",16,trophy,TROPHY,m,,,,,,0.412037037,-0.037037037,0,0,0,,0,35,35,74,1
,,,,,,,,,,,,,,,,,,5dde843983e309dfeaf240e9,2020-11-25_11h40.27.651,lexical_decision_task_MP_exp2,2020.2.5,Win32,60,z,1,0.77393,,,,,,,,0.77393,1,,,,,,436,NW,UN,16,snapel,FRUTAN,z,,,,,,0.412037037,-0.037037037,0,0,0,,0,36,36,435,1
,,,,,,,,,,,,,,,,,,5dde843983e309dfeaf240e9,2020-11-25_11h40.27.651,lexical_decision_task_MP_exp2,2020.2.5,Win32,60,z,0,0.634595,,,,,,,,0.634595,0,,,,,,13,WORD,"ID",33,strive,STRIVE,m,,,,,,0.412037037,-0.037037037,0,0,0,,0,37,37,12,1
,,,,,,,,,,,,,,,,,,5dde843983e309dfeaf240e9,2020-11-25_11h40.27.651,lexical_decision_task_MP_exp2,2020.2.5,Win32,60,m,1,0.822555,,,,,,,,0.822555,1,,,,,,153,WORD,UN,33,author,BEHOLD,m,,,,,,0.412037037,-0.037037037,0,0,0,,0,38,38,152,1
,,,,,,,,,,,,,,,,,,5dde843983e309dfeaf240e9,2020-11-25_11h40.27.651,lexical_decision_task_MP_exp2,2020.2.5,Win32,60,m,0,1.084435,,,,,,,,1.084435,0,,,,,,344,NW,"ID",16,scrily,SCRILY,z,,,,,,0.412037037,-0.037037037,0,0,0,,0,39,39,343,1
,,,,,,,,,,,,,,,,,,5dde843983e309dfeaf240e9,2020-11-25_11h40.27.651,lexical_decision_task_MP_exp2,2020.2.5,Win32,60,z,1,0.79038,,,,,,,,0.79038,1,,,,,,408,NW,UN,33,flumni,HURNIA,z,,,,,,0.412037037,-0.037037037,0,0,0,,0,40,40,407,1
,,,,,,,,,,,,,,,,,,5dde843983e309dfeaf240e9,2020-11-25_11h40.27.651,lexical_decision_task_MP_exp2,2020.2.5,Win32,60,m,1,0.734445,,,,,,,,0.734445,1,,,,,,202,WORD,UN,16,phrase,FACTOR,m,,,,,,0.412037037,-0.037037037,0,0,0,,0,41,41,201,1
,,,,,,,,,,,,,,,,,,5dde843983e309dfeaf240e9,2020-11-25_11h40.27.651,lexical_decision_task_MP_exp2,2020.2.5,Win32,60,m,1,0.62228,,,,,,,,0.62228,1,,,,,,76,WORD,"ID",16,exotic,EXOTIC,m,,,,,,0.412037037,-0.037037037,0,0,0,,0,42,42,75,1
,,,,,,,,,,,,,,,,,,5dde843983e309dfeaf240e9,2020-11-25_11h40.27.651,lexical_decision_task_MP_exp2,2020.2.5,Win32,60,z,1,0.601265,,,,,,,,0.601265,1,,,,,,309,NW,"ID",16,amiloy,AMILOY,z,,,,,,0.412037037,-0.037037037,0,0,0,,0,43,43,308,1
,,,,,,,,,,,,,,,,,,5dde843983e309dfeaf240e9,2020-11-25_11h40.27.651,lexical_decision_task_MP_exp2,2020.2.5,Win32,60,z,1,0.63526,,,,,,,,0.63526,1,,,,,,248,NW,"ID",33,strole,STROLE,z,,,,,,0.412037037,-0.037037037,0,0,0,,0,44,44,247,1
,,,,,,,,,,,,,,,,,,5dde843983e309dfeaf240e9,2020-11-25_11h40.27.651,lexical_decision_task_MP_exp2,2020.2.5,Win32,60,z,1,0.634425,,,,,,,,0.634425,1,,,,,,401,NW,UN,33,elopia,MUSTIL,z,,,,,,0.412037037,-0.037037037,0,0,0,,0,45,45,400,1
,,,,,,,,,,,,,,,,,,5dde843983e309dfeaf240e9,2020-11-25_11h40.27.651,lexical_decision_task_MP_exp2,2020.2.5,Win32,60,m,1,0.60145,,,,,,,,0.60145,1,,,,,,228,WORD,UN,16,inject,MASTER,m,,,,,,0.412037037,-0.037037037,0,0,0,,0,46,46,227,1
,,,,,,,,,,,,,,,,,,5dde843983e309dfeaf240e9,2020-11-25_11h40.27.651,lexical_decision_task_MP_exp2,2020.2.5,Win32,60,m,1,0.70368,,,,,,,,0.70368,1,,,,,,211,WORD,UN,16,verify,INFECT,m,,,,,,0.412037037,-0.037037037,0,0,0,,0,47,47,210,1
,,,,,,,,,,,,,,,,,,5dde843983e309dfeaf240e9,2020-11-25_11h40.27.651,lexical_decision_task_MP_exp2,2020.2.5,Win32,60,z,1,0.667675,,,,,,,,0.667675,1,,,,,,382,NW,UN,33,aungre,SARLEY,z,,,,,,0.412037037,-0.037037037,0,0,0,,0,48,48,381,1
,,,,,,,,,,,,,,,,,,5dde843983e309dfeaf240e9,2020-11-25_11h40.27.651,lexical_decision_task_MP_exp2,2020.2.5,Win32,60,z,1,0.77451,,,,,,,,0.77451,1,,,,,,269,NW,"ID",33,orchet,ORCHET,z,,,,,,0.412037037,-0.037037037,0,0,0,,0,49,49,268,1
,,,,,,,,,,,,,,,,,,5dde843983e309dfeaf240e9,2020-11-25_11h40.27.651,lexical_decision_task_MP_exp2,2020.2.5,Win32,60,m,1,0.633935,,,,,,,,0.633935,1,,,,,,148,WORD,UN,33,invade,CUSTOM,m,,,,,,0.412037037,-0.037037037,0,0,0,,0,50,50,147,1
,,,,,,,,,,,,,,,,,,5dde843983e309dfeaf240e9,2020-11-25_11h40.27.651,lexical_decision_task_MP_exp2,2020.2.5,Win32,60,m,1,0.58573,,,,,,,,0.58573,1,,,,,,19,WORD,"ID",33,patron,PATRON,m,,,,,,0.412037037,-0.037037037,0,0,0,,0,51,51,18,1
,,,,,,,,,,,,,,,,,,5dde843983e309dfeaf240e9,2020-11-25_11h40.27.651,lexical_decision_task_MP_exp2,2020.2.5,Win32,60,m,1,0.59541,,,,,,,,0.59541,1,,,,,,100,WORD,"ID",16,carbon,CARBON,m,,,,,,0.412037037,-0.037037037,0,0,0,,0,52,52,99,1
,,,,,,,,,,,,,,,,,,5dde843983e309dfeaf240e9,2020-11-25_11h40.27.651,lexical_decision_task_MP_exp2,2020.2.5,Win32,60,m,1,0.590995,,,,,,,,0.590995,1,,,,,,188,WORD,UN,16,censor,SOCIAL,m,,,,,,0.412037037,-0.037037037,0,0,0,,0,53,53,187,1
,,,,,,,,,,,,,,,,,,5dde843983e309dfeaf240e9,2020-11-25_11h40.27.651,lexical_decision_task_MP_exp2,2020.2.5,Win32,60,z,1,0.792445,,,,,,,,0.792445,1,,,,,,310,NW,"ID",16,daniet,DANIET,z,,,,,,0.412037037,-0.037037037,0,0,0,,0,54,54,309,1
,,,,,,,,,,,,,,,,,,5dde843983e309dfeaf240e9,2020-11-25_11h40.27.651,lexical_decision_task_MP_exp2,2020.2.5,Win32,60,m,1,0.7174,,,,,,,,0.7174,1,,,,,,164,WORD,UN,33,invest,MARKET,m,,,,,,0.412037037,-0.037037037,0,0,0,,0,55,55,163,1
,,,,,,,,,,,,,,,,,,5dde843983e309dfeaf240e9,2020-11-25_11h40.27.651,lexical_decision_task_MP_exp2,2020.2.5,Win32,60,z,1,0.784525,,,,,,,,0.784525,1,,,,,,306,NW,"ID",16,sounge,SOUNGE,z,,,,,,0.412037037,-0.037037037,0,0,0,,0,56,56,305,1
,,,,,,,,,,,,,,,,,,5dde843983e309dfeaf240e9,2020-11-25_11h40.27.651,lexical_decision_task_MP_exp2,2020.2.5,Win32,60,m,1,0.46768,,,,,,,,0.46768,1,,,,,,47,WORD,"ID",33,income,INCOME,m,,,,,,0.412037037,-0.037037037,0,0,0,,0,57,57,46,1
,,,,,,,,,,,,,,,,,,5dde843983e309dfeaf240e9,2020-11-25_11h40.27.651,lexical_decision_task_MP_exp2,2020.2.5,Win32,60,z,1,0.912355,,,,,,,,0.912355,1,,,,,,247,NW,"ID",33,blarge,BLARGE,z,,,,,,0.412037037,-0.037037037,0,0,0,,0,58,58,246,1
,,,,,,,,,,,,,,,,,,5dde843983e309dfeaf240e9,2020-11-25_11h40.27.651,lexical_decision_task_MP_exp2,2020.2.5,Win32,60,z,1,0.967935,,,,,,,,0.967935,1,,,,,,260,NW,"ID",33,unject,UNJECT,z,,,,,,0.412037037,-0.037037037,0,0,0,,0,59,59,259,1
,,,,,,,,,,,,,,,,,,5dde843983e309dfeaf240e9,2020-11-25_11h40.27.651,lexical_decision_task_MP_exp2,2020.2.5,Win32,60,z,0,0.667905,,,,,,,,0.667905,0,,,,,,184,WORD,UN,16,bother,SLEAZY,m,,,,,,0.412037037,-0.037037037,0,0,0,,0,60,60,183,1
,,,,,,,,,,,,,,,,,,5dde843983e309dfeaf240e9,2020-11-25_11h40.27.651,lexical_decision_task_MP_exp2,2020.2.5,Win32,60,z,1,0.77742,,,,,,,,0.77742,1,,,,,,304,NW,"ID",16,cludie,CLUDIE,z,,,,,,0.412037037,-0.037037037,0,0,0,,0,61,61,303,1
,,,,,,,,,,,,,,,,,,5dde843983e309dfeaf240e9,2020-11-25_11h40.27.651,lexical_decision_task_MP_exp2,2020.2.5,Win32,60,z,1,1.217845,,,,,,,,1.217845,1,,,,,,361,NW,UN,33,tireau,PAUCHE,z,,,,,,0.412037037,-0.037037037,0,0,0,,0,62,62,360,1
,,,,,,,,,,,,,,,,,,5dde843983e309dfeaf240e9,2020-11-25_11h40.27.651,lexical_decision_task_MP_exp2,2020.2.5,Win32,60,z,1,0.8337,,,,,,,,0.8337,1,,,,,,364,NW,UN,33,guairt,IMPOTE,z,,,,,,0.412037037,-0.037037037,0,0,0,,0,63,63,363,1
,,,,,,,,,,,,,,,,,,5dde843983e309dfeaf240e9,2020-11-25_11h40.27.651,lexical_decision_task_MP_exp2,2020.2.5,Win32,60,z,1,0.81141,,,,,,,,0.81141,1,,,,,,415,NW,UN,33,pathel,HIGSTA,z,,,,,,0.412037037,-0.037037037,0,0,0,,0,64,64,414,1
,,,,,,,,,,,,,,,,,,5dde843983e309dfeaf240e9,2020-11-25_11h40.27.651,lexical_decision_task_MP_exp2,2020.2.5,Win32,60,m,1,0.667335,,,,,,,,0.667335,1,,,,,,191,WORD,UN,16,absent,STABLE,m,,,,,,0.412037037,-0.037037037,0,0,0,,0,65,65,190,1
,,,,,,,,,,,,,,,,,,5dde843983e309dfeaf240e9,2020-11-25_11h40.27.651,lexical_decision_task_MP_exp2,2020.2.5,Win32,60,m,1,0.6856,,,,,,,,0.6856,1,,,,,,83,WORD,"ID",16,result,RESULT,m,,,,,,0.412037037,-0.037037037,0,0,0,,0,66,66,82,1
,,,,,,,,,,,,,,,,,,5dde843983e309dfeaf240e9,2020-11-25_11h40.27.651,lexical_decision_task_MP_exp2,2020.2.5,Win32,60,m,1,0.609925,,,,,,,,0.609925,1,,,,,,146,WORD,UN,33,garlic,COUPLE,m,,,,,,0.412037037,-0.037037037,0,0,0,,0,67,67,145,1
,,,,,,,,,,,,,,,,,,5dde843983e309dfeaf240e9,2020-11-25_11h40.27.651,lexical_decision_task_MP_exp2,2020.2.5,Win32,60,m,1,0.51795,,,,,,,,0.51795,1,,,,,,79,WORD,"ID",16,theory,THEORY,m,,,,,,0.412037037,-0.037037037,0,0,0,,0,68,68,78,1
,,,,,,,,,,,,,,,,,,5dde843983e309dfeaf240e9,2020-11-25_11h40.27.651,lexical_decision_task_MP_exp2,2020.2.5,Win32,60,z,1,0.73773,,,,,,,,0.73773,1,,,,,,399,NW,UN,33,wearox,FOURET,z,,,,,,0.412037037,-0.037037037,0,0,0,,0,69,69,398,1
,,,,,,,,,,,,,,,,,,5dde843983e309dfeaf240e9,2020-11-25_11h40.27.651,lexical_decision_task_MP_exp2,2020.2.5,Win32,60,z,1,0.73912,,,,,,,,0.73912,1,,,,,,263,NW,"ID",33,dolica,DOLICA,z,,,,,,0.412037037,-0.037037037,0,0,0,,0,70,70,262,1
,,,,,,,,,,,,,,,,,,5dde843983e309dfeaf240e9,2020-11-25_11h40.27.651,lexical_decision_task_MP_exp2,2020.2.5,Win32,60,m,1,0.867335,,,,,,,,0.867335,1,,,,,,74,WORD,"ID",16,plaque,PLAQUE,m,,,,,,0.412037037,-0.037037037,0,0,0,,0,71,71,73,1
,,,,,,,,,,,,,,,,,,5dde843983e309dfeaf240e9,2020-11-25_11h40.27.651,lexical_decision_task_MP_exp2,2020.2.5,Win32,60,z,1,0.66791,,,,,,,,0.66791,1,,,,,,390,NW,UN,33,theldy,HATRUS,z,,,,,,0.412037037,-0.037037037,0,0,0,,0,72,72,389,1
,,,,,,,,,,,,,,,,,,5dde843983e309dfeaf240e9,2020-11-25_11h40.27.651,lexical_decision_task_MP_exp2,2020.2.5,Win32,60,m,1,0.78447,,,,,,,,0.78447,1,,,,,,221,WORD,UN,16,hinder,MASCOT,m,,,,,,0.412037037,-0.037037037,0,0,0,,0,73,73,220,1
,,,,,,,,,,,,,,,,,,5dde843983e309dfeaf240e9,2020-11-25_11h40.27.651,lexical_decision_task_MP_exp2,2020.2.5,Win32,60,z,1,0.86859,,,,,,,,0.86859,1,,,,,,333,NW,"ID",16,catrie,CATRIE,z,,,,,,0.412037037,-0.037037037,0,0,0,,0,74,74,332,1
,,,,,,,,,,,,,,,,,,5dde843983e309dfeaf240e9,2020-11-25_11h40.27.651,lexical_decision_task_MP_exp2,2020.2.5,Win32,60,z,1,0.80206,,,,,,,,0.80206,1,,,,,,349,NW,"ID",16,asylen,ASYLEN,z,,,,,,0.412037037,-0.037037037,0,0,0,,0,75,75,348,1
,,,,,,,,,,,,,,,,,,5dde843983e309dfeaf240e9,2020-11-25_11h40.27.651,lexical_decision_task_MP_exp2,2020.2.5,Win32,60,m,0,1.202025,,,,,,,,1.202025,0,,,,,,348,NW,"ID",16,dumple,DUMPLE,z,,,,,,0.412037037,-0.037037037,0,0,0,,0,76,76,347,1
,,,,,,,,,,,,,,,,,,5dde843983e309dfeaf240e9,2020-11-25_11h40.27.651,lexical_decision_task_MP_exp2,2020.2.5,Win32,60,m,1,0.801305,,,,,,,,0.801305,1,,,,,,53,WORD,"ID",33,police,POLICE,m,,,,,,0.412037037,-0.037037037,0,0,0,,0,77,77,52,1
,,,,,,,,,,,,,,,,,,5dde843983e309dfeaf240e9,2020-11-25_11h40.27.651,lexical_decision_task_MP_exp2,2020.2.5,Win32,60,m,0,0.58905,,,,,,,,0.58905,0,,,,,,380,NW,UN,33,huniek,CAVORY,z,,,,,,0.412037037,-0.037037037,0,0,0,,0,78,78,379,1
,,,,,,,,,,,,,,,,,,5dde843983e309dfeaf240e9,2020-11-25_11h40.27.651,lexical_decision_task_MP_exp2,2020.2.5,Win32,60,z,1,0.767835,,,,,,,,0.767835,1,,,,,,448,NW,UN,16,brunge,SADENT,z,,,,,,0.412037037,-0.037037037,0,0,0,,0,79,79,447,1
,,,,,,,,,,,,,,,,,,5dde843983e309dfeaf240e9,2020-11-25_11h40.27.651,lexical_decision_task_MP_exp2,2020.2.5,Win32,60,m,1,0.75126,,,,,,,,0.75126,1,,,,,,226,WORD,UN,16,flower,CASINO,m,,,,,,0.412037037,-0.037037037,0,0,0,,0,80,80,225,1
,,,,,,,,,,,,,,,,,,5dde843983e309dfeaf240e9,2020-11-25_11h40.27.651,lexical_decision_task_MP_exp2,2020.2.5,Win32,60,z,1,0.667535,,,,,,,,0.667535,1,,,,,,302,NW,"ID",16,miluer,MILUER,z,,,,,,0.412037037,-0.037037037,0,0,0,,0,81,81,301,1
,,,,,,,,,,,,,,,,,,5dde843983e309dfeaf240e9,2020-11-25_11h40.27.651,lexical_decision_task_MP_exp2,2020.2.5,Win32,60,m,1,0.655175,,,,,,,,0.655175,1,,,,,,70,WORD,"ID",16,square,SQUARE,m,,,,,,0.412037037,-0.037037037,0,0,0,,0,82,82,69,1
,,,,,,,,,,,,,,,,,,5dde843983e309dfeaf240e9,2020-11-25_11h40.27.651,lexical_decision_task_MP_exp2,2020.2.5,Win32,60,m,1,0.883715,,,,,,,,0.883715,1,,,,,,187,WORD,UN,16,social,COURSE,m,,,,,,0.412037037,-0.037037037,0,0,0,,0,83,83,186,1
,,,,,,,,,,,,,,,,,,5dde843983e309dfeaf240e9,2020-11-25_11h40.27.651,lexical_decision_task_MP_exp2,2020.2.5,Win32,60,z,0,1.18448,,,,,,,,1.18448,0,,,,,,111,WORD,"ID",16,induce,INDUCE,m,,,,,,0.412037037,-0.037037037,0,0,0,,0,84,84,110,1
,,,,,,,,,,,,,,,,,,5dde843983e309dfeaf240e9,2020-11-25_11h40.27.651,lexical_decision_task_MP_exp2,2020.2.5,Win32,60,z,1,0.77703,,,,,,,,0.77703,1,,,,,,413,NW,UN,33,serbol,EQUATS,z,,,,,,0.412037037,-0.037037037,0,0,0,,0,85,85,412,1
,,,,,,,,,,,,,,,,,,5dde843983e309dfeaf240e9,2020-11-25_11h40.27.651,lexical_decision_task_MP_exp2,2020.2.5,Win32,60,m,1,0.818135,,,,,,,,0.818135,1,,,,,,217,WORD,UN,16,shrink,LIQUOR,m,,,,,,0.412037037,-0.037037037,0,0,0,,0,86,86,216,1
,,,,,,,,,,,,,,,,,,5dde843983e309dfeaf240e9,2020-11-25_11h40.27.651,lexical_decision_task_MP_exp2,2020.2.5,Win32,60,z,1,0.72196,,,,,,,,0.72196,1,,,,,,274,NW,"ID",33,fumblo,FUMBLO,z,,,,,,0.412037037,-0.037037037,0,0,0,,0,87,87,273,1
,,,,,,,,,,,,,,,,,,5dde843983e309dfeaf240e9,2020-11-25_11h40.27.651,lexical_decision_task_MP_exp2,2020.2.5,Win32,60,z,1,1.067225,,,,,,,,1.067225,1,,,,,,362,NW,UN,33,breali,TIREAU,z,,,,,,0.412037037,-0.037037037,0,0,0,,0,88,88,361,1
,,,,,,,,,,,,,,,,,,5dde843983e309dfeaf240e9,2020-11-25_11h40.27.651,lexical_decision_task_MP_exp2,2020.2.5,Win32,60,z,1,0.677595,,,,,,,,0.677595,1,,,,,,258,NW,"ID",33,poluth,POLUTH,z,,,,,,0.412037037,-0.037037037,0,0,0,,0,89,89,257,1
,,,,,,,,,,,,,,,,,,5dde843983e309dfeaf240e9,2020-11-25_11h40.27.651,lexical_decision_task_MP_exp2,2020.2.5,Win32,60,z,1,0.60111,,,,,,,,0.60111,1,,,,,,282,NW,"ID",33,porlex,PORLEX,z,,,,,,0.412037037,-0.037037037,0,0,0,,0,90,90,281,1
,,,,,,,,,,,,,,,,,,5dde843983e309dfeaf240e9,2020-11-25_11h40.27.651,lexical_decision_task_MP_exp2,2020.2.5,Win32,60,m,1,0.606455,,,,,,,,0.606455,1,,,,,,223,WORD,UN,16,period,KIDNEY,m,,,,,,0.412037037,-0.037037037,0,0,0,,0,91,91,222,1
,,,,,,,,,,,,,,,,,,5dde843983e309dfeaf240e9,2020-11-25_11h40.27.651,lexical_decision_task_MP_exp2,2020.2.5,Win32,60,z,1,0.679005,,,,,,,,0.679005,1,,,,,,465,NW,UN,16,hocite,WHIVEX,z,,,,,,0.412037037,-0.037037037,0,0,0,,0,92,92,464,1
,,,,,,,,,,,,,,,,,,5dde843983e309dfeaf240e9,2020-11-25_11h40.27.651,lexical_decision_task_MP_exp2,2020.2.5,Win32,60,z,1,0.58415,,,,,,,,0.58415,1,,,,,,452,NW,UN,16,bolvis,SURDEN,z,,,,,,0.412037037,-0.037037037,0,0,0,,0,93,93,451,1
,,,,,,,,,,,,,,,,,,5dde843983e309dfeaf240e9,2020-11-25_11h40.27.651,lexical_decision_task_MP_exp2,2020.2.5,Win32,60,m,1,0.618485,,,,,,,,0.618485,1,,,,,,129,WORD,UN,33,stupid,MARVEL,m,,,,,,0.412037037,-0.037037037,0,0,0,,0,94,94,128,1
,,,,,,,,,,,,,,,,,,5dde843983e309dfeaf240e9,2020-11-25_11h40.27.651,lexical_decision_task_MP_exp2,2020.2.5,Win32,60,m,1,0.518225,,,,,,,,0.518225,1,,,,,,27,WORD,"ID",33,scream,SCREAM,m,,,,,,0.412037037,-0.037037037,0,0,0,,0,95,95,26,1
,,,,,,,,,,,,,,,,,,5dde843983e309dfeaf240e9,2020-11-25_11h40.27.651,lexical_decision_task_MP_exp2,2020.2.5,Win32,60,m,1,0.43454,,,,,,,,0.43454,1,,,,,,98,WORD,"ID",16,belong,BELONG,m,,,,,,0.412037037,-0.037037037,0,0,0,,0,96,96,97,1
,,,,,,,,,,,,,,,,,,5dde843983e309dfeaf240e9,2020-11-25_11h40.27.651,lexical_decision_task_MP_exp2,2020.2.5,Win32,60,m,1,0.46773,,,,,,,,0.46773,1,,,,,,62,WORD,"ID",16,region,REGION,m,,,,,,0.412037037,-0.037037037,0,0,0,,0,97,97,61,1
,,,,,,,,,,,,,,,,,,5dde843983e309dfeaf240e9,2020-11-25_11h40.27.651,lexical_decision_task_MP_exp2,2020.2.5,Win32,60,z,1,1.35121,,,,,,,,1.35121,1,,,,,,379,NW,UN,33,cavory,AUTING,z,,,,,,0.412037037,-0.037037037,0,0,0,,0,98,98,378,1
,,,,,,,,,,,,,,,,,,5dde843983e309dfeaf240e9,2020-11-25_11h40.27.651,lexical_decision_task_MP_exp2,2020.2.5,Win32,60,,0,,,,,,,,,1.35121,-1,,,,,,447,NW,UN,16,sadent,GIRCUE,z,,,,,,0.412037037,-0.037037037,0,0,0,,0,99,99,446,1
,,,,,,,,,,,,,,,,,,5dde843983e309dfeaf240e9,2020-11-25_11h40.27.651,lexical_decision_task_MP_exp2,2020.2.5,Win32,60,z,0,0.08526,,,,,,,,0.08526,0,,,,,,168,WORD,UN,33,genius,ANSWER,m,,,,,,0.412037037,-0.037037037,0,0,0,,0,100,100,167,1
,,,,,,,,,,,,,,,,,,5dde843983e309dfeaf240e9,2020-11-25_11h40.27.651,lexical_decision_task_MP_exp2,2020.2.5,Win32,60,z,1,0.879565,,,,,,,,0.879565,1,,,,,,411,NW,UN,33,jiluer,ORCHIN,z,,,,,,0.412037037,-0.037037037,0,0,0,,0,101,101,410,1
,,,,,,,,,,,,,,,,,,5dde843983e309dfeaf240e9,2020-11-25_11h40.27.651,lexical_decision_task_MP_exp2,2020.2.5,Win32,60,m,1,0.52159,,,,,,,,0.52159,1,,,,,,71,WORD,"ID",16,garden,GARDEN,m,,,,,,0.412037037,-0.037037037,0,0,0,,0,102,102,70,1
,,,,,,,,,,,,,,,,,,5dde843983e309dfeaf240e9,2020-11-25_11h40.27.651,lexical_decision_task_MP_exp2,2020.2.5,Win32,60,m,1,0.50448,,,,,,,,0.50448,1,,,,,,189,WORD,UN,16,backup,CENSOR,m,,,,,,0.412037037,-0.037037037,0,0,0,,0,103,103,188,1
,,,,,,,,,,,,,,,,,,5dde843983e309dfeaf240e9,2020-11-25_11h40.27.651,lexical_decision_task_MP_exp2,2020.2.5,Win32,60,m,1,0.59819,,,,,,,,0.59819,1,,,,,,99,WORD,"ID",16,fluent,FLUENT,m,,,,,,0.412037037,-0.037037037,0,0,0,,0,104,104,98,1
,,,,,,,,,,,,,,,,,,5dde843983e309dfeaf240e9,2020-11-25_11h40.27.651,lexical_decision_task_MP_exp2,2020.2.5,Win32,60,z,0,0.654335,,,,,,,,0.654335,0,,,,,,120,WORD,"ID",16,strain,STRAIN,m,,,,,,0.412037037,-0.037037037,0,0,0,,0,105,105,119,1
,,,,,,,,,,,,,,,,,,5dde843983e309dfeaf240e9,2020-11-25_11h40.27.651,lexical_decision_task_MP_exp2,2020.2.5,Win32,60,m,1,1.055845,,,,,,,,1.055845,1,,,,,,167,WORD,UN,33,answer,DESIGN,m,,,,,,0.412037037,-0.037037037,0,0,0,,0,106,106,166,1
,,,,,,,,,,,,,,,,,,5dde843983e309dfeaf240e9,2020-11-25_11h40.27.651,lexical_decision_task_MP_exp2,2020.2.5,Win32,60,m,1,0.685995,,,,,,,,0.685995,1,,,,,,234,WORD,UN,16,lumber,CLUMSY,m,,,,,,0.412037037,-0.037037037,0,0,0,,0,107,107,233,1
,,,,,,,,,,,,,,,,,,5dde843983e309dfeaf240e9,2020-11-25_11h40.27.651,lexical_decision_task_MP_exp2,2020.2.5,Win32,60,m,1,0.639845,,,,,,,,0.639845,1,,,,,,49,WORD,"ID",33,survey,SURVEY,m,,,,,,0.412037037,-0.037037037,0,0,0,,0,108,108,48,1
,,,,,,,,,,,,,,,,,,5dde843983e309dfeaf240e9,2020-11-25_11h40.27.651,lexical_decision_task_MP_exp2,2020.2.5,Win32,60,m,1,0.63888,,,,,,,,0.63888,1,,,,,,9,WORD,"ID",33,hustle,HUSTLE,m,,,,,,0.412037037,-0.037037037,0,0,0,,0,109,109,8,1
,,,,,,,,,,,,,,,,,,5dde843983e309dfeaf240e9,2020-11-25_11h40.27.651,lexical_decision_task_MP_exp2,2020.2.5,Win32,60,z,1,0.71955,,,,,,,,0.71955,1,,,,,,372,NW,UN,33,bigent,RAMILY,z,,,,,,0.412037037,-0.037037037,0,0,0,,0,110,110,371,1
,,,,,,,,,,,,,,,,,,5dde843983e309dfeaf240e9,2020-11-25_11h40.27.651,lexical_decision_task_MP_exp2,2020.2.5,Win32,60,m,1,0.772475,,,,,,,,0.772475,1,,,,,,134,WORD,UN,33,import,STAPLE,m,,,,,,0.412037037,-0.037037037,0,0,0,,0,111,111,133,1
,,,,,,,,,,,,,,,,,,5dde843983e309dfeaf240e9,2020-11-25_11h40.27.651,lexical_decision_task_MP_exp2,2020.2.5,Win32,60,m,1,0.55645,,,,,,,,0.55645,1,,,,,,121,WORD,UN,33,linger,THRIVE,m,,,,,,0.412037037,-0.037037037,0,0,0,,0,112,112,120,1
,,,,,,,,,,,,,,,,,,5dde843983e309dfeaf240e9,2020-11-25_11h40.27.651,lexical_decision_task_MP_exp2,2020.2.5,Win32,60,m,1,0.671095,,,,,,,,0.671095,1,,,,,,17,WORD,"ID",33,charge,CHARGE,m,,,,,,0.412037037,-0.037037037,0,0,0,,0,113,113,16,1
,,,,,,,,,,,,,,,,,,5dde843983e309dfeaf240e9,2020-11-25_11h40.27.651,lexical_decision_task_MP_exp2,2020.2.5,Win32,60,m,1,0.627865,,,,,,,,0.627865,1,,,,,,39,WORD,"ID",33,insect,INSECT,m,,,,,,0.412037037,-0.037037037,0,0,0,,0,114,114,38,1
,,,,,,,,,,,,,,,,,,5dde843983e309dfeaf240e9,2020-11-25_11h40.27.651,lexical_decision_task_MP_exp2,2020.2.5,Win32,60,m,1,0.933245,,,,,,,,0.933245,1,,,,,,14,WORD,"ID",33,almost,ALMOST,m,,,,,,0.412037037,-0.037037037,0,0,0,,0,115,115,13,1
,,,,,,,,,,,,,,,,,,5dde843983e309dfeaf240e9,2020-11-25_11h40.27.651,lexical_decision_task_MP_exp2,2020.2.5,Win32,60,m,1,0.49899,,,,,,,,0.49899,1,,,,,,80,WORD,"ID",16,family,FAMILY,m,,,,,,0.412037037,-0.037037037,0,0,0,,0,116,116,79,1
,,,,,,,,,,,,,,,,,,5dde843983e309dfeaf240e9,2020-11-25_11h40.27.651,lexical_decision_task_MP_exp2,2020.2.5,Win32,60,z,1,0.649325,,,,,,,,0.649325,1,,,,,,251,NW,"ID",33,lupict,LUPICT,z,,,,,,0.412037037,-0.037037037,0,0,0,,0,117,117,250,1
,,,,,,,,,,,,,,,,,,5dde843983e309dfeaf240e9,2020-11-25_11h40.27.651,lexical_decision_task_MP_exp2,2020.2.5,Win32,60,m,1,0.568125,,,,,,,,0.568125,1,,,,,,38,WORD,"ID",33,powder,POWDER,m,,,,,,0.412037037,-0.037037037,0,0,0,,0,118,118,37,1
,,,,,,,,,,,,,,,,,,5dde843983e309dfeaf240e9,2020-11-25_11h40.27.651,lexical_decision_task_MP_exp2,2020.2.5,Win32,60,z,1,0.88207,,,,,,,,0.88207,1,,,,,,414,NW,UN,33,higsta,SERBOL,z,,,,,,0.412037037,-0.037037037,0,0,0,,0,119,119,413,1
,,,,,,,,,,,,,,,,,,5dde843983e309dfeaf240e9,2020-11-25_11h40.27.651,lexical_decision_task_MP_exp2,2020.2.5,Win32,60,z,0,0.782325,,,,,,,,0.782325,0,,,,,,128,WORD,UN,33,marvel,SENIOR,m,,,,,,0.412037037,-0.037037037,0,0,0,,0,120,120,127,1
,,,,,,,,,,,,,,,,,,5dde843983e309dfeaf240e9,2020-11-25_11h40.27.651,lexical_decision_task_MP_exp2,2020.2.5,Win32,60,z,1,1.28283,,,,,,,,1.28283,1,,,,,,284,NW,"ID",33,shaple,SHAPLE,z,,,,,,0.412037037,-0.037037037,0,0,0,,0,121,121,283,1
,,,,,,,,,,,,,,,,,,5dde843983e309dfeaf240e9,2020-11-25_11h40.27.651,lexical_decision_task_MP_exp2,2020.2.5,Win32,60,m,1,1.099095,,,,,,,,1.099095,1,,,,,,122,WORD,UN,33,strike,LINGER,m,,,,,,0.412037037,-0.037037037,0,0,0,,0,122,122,121,1
,,,,,,,,,,,,,,,,,,5dde843983e309dfeaf240e9,2020-11-25_11h40.27.651,lexical_decision_task_MP_exp2,2020.2.5,Win32,60,m,1,0.58903,,,,,,,,0.58903,1,,,,,,23,WORD,"ID",33,wealth,WEALTH,m,,,,,,0.412037037,-0.037037037,0,0,0,,0,123,123,22,1
,,,,,,,,,,,,,,,,,,5dde843983e309dfeaf240e9,2020-11-25_11h40.27.651,lexical_decision_task_MP_exp2,2020.2.5,Win32,60,m,1,0.99972,,,,,,,,0.99972,1,,,,,,136,WORD,UN,33,finger,BLEACH,m,,,,,,0.412037037,-0.037037037,0,0,0,,0,124,124,135,1
,,,,,,,,,,,,,,,,,,5dde843983e309dfeaf240e9,2020-11-25_11h40.27.651,lexical_decision_task_MP_exp2,2020.2.5,Win32,60,z,1,0.781805,,,,,,,,0.781805,1,,,,,,350,NW,"ID",16,nagurs,NAGURS,z,,,,,,0.412037037,-0.037037037,0,0,0,,0,125,125,349,1
,,,,,,,,,,,,,,,,,,5dde843983e309dfeaf240e9,2020-11-25_11h40.27.651,lexical_decision_task_MP_exp2,2020.2.5,Win32,60,z,1,0.71796,,,,,,,,0.71796,1,,,,,,356,NW,"ID",16,othnis,OTHNIS,z,,,,,,0.412037037,-0.037037037,0,0,0,,0,126,126,355,1
,,,,,,,,,,,,,,,,,,5dde843983e309dfeaf240e9,2020-11-25_11h40.27.651,lexical_decision_task_MP_exp2,2020.2.5,Win32,60,m,1,0.688825,,,,,,,,0.688825,1,,,,,,32,WORD,"ID",33,buckle,BUCKLE,m,,,,,,0.412037037,-0.037037037,0,0,0,,0,127,127,31,1
,,,,,,,,,,,,,,,,,,5dde843983e309dfeaf240e9,2020-11-25_11h40.27.651,lexical_decision_task_MP_exp2,2020.2.5,Win32,60,z,0,0.62322,,,,,,,,0.62322,0,,,,,,183,WORD,UN,16,sleazy,MILDEW,m,,,,,,0.412037037,-0.037037037,0,0,0,,0,128,128,182,1
,,,,,,,,,,,,,,,,,,5dde843983e309dfeaf240e9,2020-11-25_11h40.27.651,lexical_decision_task_MP_exp2,2020.2.5,Win32,60,m,1,0.616495,,,,,,,,0.616495,1,,,,,,172,WORD,UN,33,shower,PATROL,m,,,,,,0.412037037,-0.037037037,0,0,0,,0,129,129,171,1
,,,,,,,,,,,,,,,,,,5dde843983e309dfeaf240e9,2020-11-25_11h40.27.651,lexical_decision_task_MP_exp2,2020.2.5,Win32,60,z,1,0.698205,,,,,,,,0.698205,1,,,,,,451,NW,UN,16,surden,CAINKY,z,,,,,,0.412037037,-0.037037037,0,0,0,,0,130,130,450,1
,,,,,,,,,,,,,,,,,,5dde843983e309dfeaf240e9,2020-11-25_11h40.27.651,lexical_decision_task_MP_exp2,2020.2.5,Win32,60,m,1,0.54917,,,,,,,,0.54917,1,,,,,,50,WORD,"ID",33,snatch,SNATCH,m,,,,,,0.412037037,-0.037037037,0,0,0,,0,131,131,49,1
,,,,,,,,,,,,,,,,,,5dde843983e309dfeaf240e9,2020-11-25_11h40.27.651,lexical_decision_task_MP_exp2,2020.2.5,Win32,60,m,0,0.49061,,,,,,,,0.49061,0,,,,,,265,NW,"ID",33,distar,DISTAR,z,,,,,,0.412037037,-0.037037037,0,0,0,,0,132,132,264,1
,,,,,,,,,,,,,,,,,,5dde843983e309dfeaf240e9,2020-11-25_11h40.27.651,lexical_decision_task_MP_exp2,2020.2.5,Win32,60,m,1,0.698175,,,,,,,,0.698175,1,,,,,,145,WORD,UN,33,couple,PARISH,m,,,,,,0.412037037,-0.037037037,0,0,0,,0,133,133,144,1
,,,,,,,,,,,,,,,,,,5dde843983e309dfeaf240e9,2020-11-25_11h40.27.651,lexical_decision_task_MP_exp2,2020.2.5,Win32,60,m,1,0.58243,,,,,,,,0.58243,1,,,,,,34,WORD,"ID",33,jungle,JUNGLE,m,,,,,,0.412037037,-0.037037037,0,0,0,,0,134,134,33,1
,,,,,,,,,,,,,,,,,,5dde843983e309dfeaf240e9,2020-11-25_11h40.27.651,lexical_decision_task_MP_exp2,2020.2.5,Win32,60,m,1,1.00165,,,,,,,,1.00165,1,,,,,,11,WORD,"ID",33,cruise,CRUISE,m,,,,,,0.412037037,-0.037037037,0,0,0,,0,135,135,10,1
,,,,,,,,,,,,,,,,,,5dde843983e309dfeaf240e9,2020-11-25_11h40.27.651,lexical_decision_task_MP_exp2,2020.2.5,Win32,60,m,1,0.70545,,,,,,,,0.70545,1,,,,,,196,WORD,UN,16,stream,CREDIT,m,,,,,,0.412037037,-0.037037037,0,0,0,,0,136,136,195,1
,,,,,,,,,,,,,,,,,,5dde843983e309dfeaf240e9,2020-11-25_11h40.27.651,lexical_decision_task_MP_exp2,2020.2.5,Win32,60,m,0,0.624215,,,,,,,,0.624215,0,,,,,,365,NW,UN,33,toshel,GUAIRT,z,,,,,,0.412037037,-0.037037037,0,0,0,,0,137,137,364,1
,,,,,,,,,,,,,,,,,,5dde843983e309dfeaf240e9,2020-11-25_11h40.27.651,lexical_decision_task_MP_exp2,2020.2.5,Win32,60,,0,,,,,,,,,0.624215,-1,,,,,,21,WORD,"ID",33,simple,SIMPLE,m,,,,,,0.412037037,-0.037037037,0,0,0,,0,138,138,20,1
,,,,,,,,,,,,,,,,,,5dde843983e309dfeaf240e9,2020-11-25_11h40.27.651,lexical_decision_task_MP_exp2,2020.2.5,Win32,60,z,1,0.74841,,,,,,,,0.74841,1,,,,,,439,NW,UN,16,saride,LIMPOR,z,,,,,,0.412037037,-0.037037037,0,0,0,,0,139,139,438,1
,,,,,,,,,,,,,,,,,,5dde843983e309dfeaf240e9,2020-11-25_11h40.27.651,lexical_decision_task_MP_exp2,2020.2.5,Win32,60,m,0,0.71498,,,,,,,,0.71498,0,,,,,,319,NW,"ID",16,zomber,ZOMBER,z,,,,,,0.412037037,-0.037037037,0,0,0,,0,140,140,318,1
,,,,,,,,,,,,,,,,,,5dde843983e309dfeaf240e9,2020-11-25_11h40.27.651,lexical_decision_task_MP_exp2,2020.2.5,Win32,60,z,1,0.897085,,,,,,,,0.897085,1,,,,,,440,NW,UN,16,cainky,SARIDE,z,,,,,,0.412037037,-0.037037037,0,0,0,,0,141,141,439,1
,,,,,,,,,,,,,,,,,,5dde843983e309dfeaf240e9,2020-11-25_11h40.27.651,lexical_decision_task_MP_exp2,2020.2.5,Win32,60,z,1,0.63291,,,,,,,,0.63291,1,,,,,,405,NW,UN,33,nouply,FLUMNI,z,,,,,,0.412037037,-0.037037037,0,0,0,,0,142,142,404,1
,,,,,,,,,,,,,,,,,,5dde843983e309dfeaf240e9,2020-11-25_11h40.27.651,lexical_decision_task_MP_exp2,2020.2.5,Win32,60,z,1,0.712925,,,,,,,,0.712925,1,,,,,,255,NW,"ID",33,apight,APIGHT,z,,,,,,0.412037037,-0.037037037,0,0,0,,0,143,143,254,1
,,,,,,,,,,,,,,,,,,5dde843983e309dfeaf240e9,2020-11-25_11h40.27.651,lexical_decision_task_MP_exp2,2020.2.5,Win32,60,m,1,0.72159,,,,,,,,0.72159,1,,,,,,161,WORD,UN,33,candle,PASTOR,m,,,,,,0.412037037,-0.037037037,0,0,0,,0,144,144,160,1
,,,,,,,,,,,,,,,,,,5dde843983e309dfeaf240e9,2020-11-25_11h40.27.651,lexical_decision_task_MP_exp2,2020.2.5,Win32,60,m,1,0.471345,,,,,,,,0.471345,1,,,,,,30,WORD,"ID",33,orient,ORIENT,m,,,,,,0.412037037,-0.037037037,0,0,0,,0,145,145,29,1
,,,,,,,,,,,,,,,,,,5dde843983e309dfeaf240e9,2020-11-25_11h40.27.651,lexical_decision_task_MP_exp2,2020.2.5,Win32,60,z,1,0.98939,,,,,,,,0.98939,1,,,,,,367,NW,UN,33,hornal,SLIQUE,z,,,,,,0.412037037,-0.037037037,0,0,0,,0,146,146,366,1
,,,,,,,,,,,,,,,,,,5dde843983e309dfeaf240e9,2020-11-25_11h40.27.651,lexical_decision_task_MP_exp2,2020.2.5,Win32,60,m,1,0.74885,,,,,,,,0.74885,1,,,,,,192,WORD,UN,16,object,PLAGUE,m,,,,,,0.412037037,-0.037037037,0,0,0,,0,147,147,191,1
,,,,,,,,,,,,,,,,,,5dde843983e309dfeaf240e9,2020-11-25_11h40.27.651,lexical_decision_task_MP_exp2,2020.2.5,Win32,60,z,1,0.73218,,,,,,,,0.73218,1,,,,,,273,NW,"ID",33,sortel,SORTEL,z,,,,,,0.412037037,-0.037037037,0,0,0,,0,148,148,272,1
,,,,,,,,,,,,,,,,,,5dde843983e309dfeaf240e9,2020-11-25_11h40.27.651,lexical_decision_task_MP_exp2,2020.2.5,Win32,60,z,1,1.16257,,,,,,,,1.16257,1,,,,,,298,NW,"ID",33,piergy,PIERGY,z,,,,,,0.412037037,-0.037037037,0,0,0,,0,149,149,297,1
,,,,,,,,,,,,,,,,,,5dde843983e309dfeaf240e9,2020-11-25_11h40.27.651,lexical_decision_task_MP_exp2,2020.2.5,Win32,60,z,1,0.71664,,,,,,,,0.71664,1,,,,,,397,NW,UN,33,blunde,CAMBLE,z,,,,,,0.412037037,-0.037037037,0,0,0,,0,150,150,396,1
,,,,,,,,,,,,,,,,,,5dde843983e309dfeaf240e9,2020-11-25_11h40.27.651,lexical_decision_task_MP_exp2,2020.2.5,Win32,60,m,1,0.606875,,,,,,,,0.606875,1,,,,,,52,WORD,"ID",33,impose,IMPOSE,m,,,,,,0.412037037,-0.037037037,0,0,0,,0,151,151,51,1
,,,,,,,,,,,,,,,,,,5dde843983e309dfeaf240e9,2020-11-25_11h40.27.651,lexical_decision_task_MP_exp2,2020.2.5,Win32,60,m,0,0.49684,,,,,,,,0.49684,0,,,,,,316,NW,"ID",16,scregm,SCREGM,z,,,,,,0.412037037,-0.037037037,0,0,0,,0,152,152,315,1
,,,,,,,,,,,,,,,,,,5dde843983e309dfeaf240e9,2020-11-25_11h40.27.651,lexical_decision_task_MP_exp2,2020.2.5,Win32,60,z,1,0.947045,,,,,,,,0.947045,1,,,,,,337,NW,"ID",16,rejols,REJOLS,z,,,,,,0.412037037,-0.037037037,0,0,0,,0,153,153,336,1
,,,,,,,,,,,,,,,,,,5dde843983e309dfeaf240e9,2020-11-25_11h40.27.651,lexical_decision_task_MP_exp2,2020.2.5,Win32,60,z,1,0.67437,,,,,,,,0.67437,1,,,,,,278,NW,"ID",33,unighs,UNIGHS,z,,,,,,0.412037037,-0.037037037,0,0,0,,0,154,154,277,1
,,,,,,,,,,,,,,,,,,5dde843983e309dfeaf240e9,2020-11-25_11h40.27.651,lexical_decision_task_MP_exp2,2020.2.5,Win32,60,z,0,0.75439,,,,,,,,0.75439,0,,,,,,90,WORD,"ID",16,relish,RELISH,m,,,,,,0.412037037,-0.037037037,0,0,0,,0,155,155,89,1
,,,,,,,,,,,,,,,,,,5dde843983e309dfeaf240e9,2020-11-25_11h40.27.651,lexical_decision_task_MP_exp2,2020.2.5,Win32,60,m,1,0.470025,,,,,,,,0.470025,1,,,,,,44,WORD,"ID",33,danger,DANGER,m,,,,,,0.412037037,-0.037037037,0,0,0,,0,156,156,43,1
,,,,,,,,,,,,,,,,,,5dde843983e309dfeaf240e9,2020-11-25_11h40.27.651,lexical_decision_task_MP_exp2,2020.2.5,Win32,60,m,1,0.915645,,,,,,,,0.915645,1,,,,,,179,WORD,UN,33,silent,BASKET,m,,,,,,0.412037037,-0.037037037,0,0,0,,0,157,157,178,1
,,,,,,,,,,,,,,,,,,5dde843983e309dfeaf240e9,2020-11-25_11h40.27.651,lexical_decision_task_MP_exp2,2020.2.5,Win32,60,m,1,0.536425,,,,,,,,0.536425,1,,,,,,180,WORD,UN,33,thrive,SILENT,m,,,,,,0.412037037,-0.037037037,0,0,0,,0,158,158,179,1
,,,,,,,,,,,,,,,,,,5dde843983e309dfeaf240e9,2020-11-25_11h40.27.651,lexical_decision_task_MP_exp2,2020.2.5,Win32,60,z,1,0.94252,,,,,,,,0.94252,1,,,,,,404,NW,UN,33,syntic,CLUIRM,z,,,,,,0.412037037,-0.037037037,0,0,0,,0,159,159,403,1
,,,,,,,,,,,,,,,,,,5dde843983e309dfeaf240e9,2020-11-25_11h40.27.651,lexical_decision_task_MP_exp2,2020.2.5,Win32,60,z,1,0.826185,,,,,,,,0.826185,1,,,,,,354,NW,"ID",16,virlex,VIRLEX,z,,,,,,0.412037037,-0.037037037,0,0,0,,0,160,160,353,1
,,,,,,,,,,,,,,,,,,5dde843983e309dfeaf240e9,2020-11-25_11h40.27.651,lexical_decision_task_MP_exp2,2020.2.5,Win32,60,m,1,0.597825,,,,,,,,0.597825,1,,,,,,104,WORD,"ID",16,studio,STUDIO,m,,,,,,0.412037037,-0.037037037,0,0,0,,0,161,161,103,1
,,,,,,,,,,,,,,,,,,5dde843983e309dfeaf240e9,2020-11-25_11h40.27.651,lexical_decision_task_MP_exp2,2020.2.5,Win32,60,z,1,1.381355,,,,,,,,1.381355,1,,,,,,253,NW,"ID",33,resait,RESAIT,z,,,,,,0.412037037,-0.037037037,0,0,0,,0,162,162,252,1
,,,,,,,,,,,,,,,,,,5dde843983e309dfeaf240e9,2020-11-25_11h40.27.651,lexical_decision_task_MP_exp2,2020.2.5,Win32,60,z,1,0.750875,,,,,,,,0.750875,1,,,,,,295,NW,"ID",33,gleath,GLEATH,z,,,,,,0.412037037,-0.037037037,0,0,0,,0,163,163,294,1
,,,,,,,,,,,,,,,,,,5dde843983e309dfeaf240e9,2020-11-25_11h40.27.651,lexical_decision_task_MP_exp2,2020.2.5,Win32,60,m,1,0.60233,,,,,,,,0.60233,1,,,,,,173,WORD,UN,33,turkey,SHOWER,m,,,,,,0.412037037,-0.037037037,0,0,0,,0,164,164,172,1
,,,,,,,,,,,,,,,,,,5dde843983e309dfeaf240e9,2020-11-25_11h40.27.651,lexical_decision_task_MP_exp2,2020.2.5,Win32,60,m,1,0.56643,,,,,,,,0.56643,1,,,,,,81,WORD,"ID",16,friend,FRIEND,m,,,,,,0.412037037,-0.037037037,0,0,0,,0,165,165,80,1
,,,,,,,,,,,,,,,,,,5dde843983e309dfeaf240e9,2020-11-25_11h40.27.651,lexical_decision_task_MP_exp2,2020.2.5,Win32,60,m,1,0.582725,,,,,,,,0.582725,1,,,,,,89,WORD,"ID",16,permit,PERMIT,m,,,,,,0.412037037,-0.037037037,0,0,0,,0,166,166,88,1
,,,,,,,,,,,,,,,,,,5dde843983e309dfeaf240e9,2020-11-25_11h40.27.651,lexical_decision_task_MP_exp2,2020.2.5,Win32,60,m,0,0.419065,,,,,,,,0.419065,0,,,,,,343,NW,"ID",16,aimosy,AIMOSY,z,,,,,,0.412037037,-0.037037037,0,0,0,,0,167,167,342,1
,,,,,,,,,,,,,,,,,,5dde843983e309dfeaf240e9,2020-11-25_11h40.27.651,lexical_decision_task_MP_exp2,2020.2.5,Win32,60,m,1,1.665805,,,,,,,,1.665805,1,,,,,,212,WORD,UN,16,squeal,VERIFY,m,,,,,,0.412037037,-0.037037037,0,0,0,,0,168,168,211,1
,,,,,,,,,,,,,,,,,,5dde843983e309dfeaf240e9,2020-11-25_11h40.27.651,lexical_decision_task_MP_exp2,2020.2.5,Win32,60,m,1,0.889475,,,,,,,,0.889475,1,,,,,,139,WORD,UN,33,prince,DEBRIS,m,,,,,,0.412037037,-0.037037037,0,0,0,,0,169,169,138,1
,,,,,,,,,,,,,,,,,,5dde843983e309dfeaf240e9,2020-11-25_11h40.27.651,lexical_decision_task_MP_exp2,2020.2.5,Win32,60,z,1,0.748325,,,,,,,,0.748325,1,,,,,,387,NW,UN,33,cragin,GRONCE,z,,,,,,0.412037037,-0.037037037,0,0,0,,0,170,170,386,1
,,,,,,,,,,,,,,,,,,5dde843983e309dfeaf240e9,2020-11-25_11h40.27.651,lexical_decision_task_MP_exp2,2020.2.5,Win32,60,m,1,0.71513,,,,,,,,0.71513,1,,,,,,60,WORD,"ID",33,pencil,PENCIL,m,,,,,,0.412037037,-0.037037037,0,0,0,,0,171,171,59,1
,,,,,,,,,,,,,,,,,,5dde843983e309dfeaf240e9,2020-11-25_11h40.27.651,lexical_decision_task_MP_exp2,2020.2.5,Win32,60,m,1,0.66503,,,,,,,,0.66503,1,,,,,,31,WORD,"ID",33,weapon,WEAPON,m,,,,,,0.412037037,-0.037037037,0,0,0,,0,172,172,30,1
,,,,,,,,,,,,,,,,,,5dde843983e309dfeaf240e9,2020-11-25_11h40.27.651,lexical_decision_task_MP_exp2,2020.2.5,Win32,60,m,1,0.606195,,,,,,,,0.606195,1,,,,,,119,WORD,"ID",16,spider,SPIDER,m,,,,,,0.412037037,-0.037037037,0,0,0,,0,173,173,118,1
,,,,,,,,,,,,,,,,,,5dde843983e309dfeaf240e9,2020-11-25_11h40.27.651,lexical_decision_task_MP_exp2,2020.2.5,Win32,60,m,1,0.498115,,,,,,,,0.498115,1,,,,,,135,WORD,UN,33,chrome,IMPORT,m,,,,,,0.412037037,-0.037037037,0,0,0,,0,174,174,134,1
,,,,,,,,,,,,,,,,,,5dde843983e309dfeaf240e9,2020-11-25_11h40.27.651,lexical_decision_task_MP_exp2,2020.2.5,Win32,60,m,0,1.05312,,,,,,,,1.05312,0,,,,,,289,NW,"ID",33,starby,STARBY,z,,,,,,0.412037037,-0.037037037,0,0,0,,0,175,175,288,1
,,,,,,,,,,,,,,,,,,5dde843983e309dfeaf240e9,2020-11-25_11h40.27.651,lexical_decision_task_MP_exp2,2020.2.5,Win32,60,z,1,0.740905,,,,,,,,0.740905,1,,,,,,457,NW,UN,16,barcet,WANIGH,z,,,,,,0.412037037,-0.037037037,0,0,0,,0,176,176,456,1
,,,,,,,,,,,,,,,,,,5dde843983e309dfeaf240e9,2020-11-25_11h40.27.651,lexical_decision_task_MP_exp2,2020.2.5,Win32,60,m,1,0.60994,,,,,,,,0.60994,1,,,,,,177,WORD,UN,33,inform,ADVENT,m,,,,,,0.412037037,-0.037037037,0,0,0,,0,177,177,176,1
,,,,,,,,,,,,,,,,,,5dde843983e309dfeaf240e9,2020-11-25_11h40.27.651,lexical_decision_task_MP_exp2,2020.2.5,Win32,60,z,1,0.779915,,,,,,,,0.779915,1,,,,,,455,NW,UN,16,broget,TONDLE,z,,,,,,0.412037037,-0.037037037,0,0,0,,0,178,178,454,1
,,,,,,,,,,,,,,,,,,5dde843983e309dfeaf240e9,2020-11-25_11h40.27.651,lexical_decision_task_MP_exp2,2020.2.5,Win32,60,z,1,1.015375,,,,,,,,1.015375,1,,,,,,419,NW,UN,33,gushop,SLOUNT,z,,,,,,0.412037037,-0.037037037,0,0,0,,0,179,179,418,1
,,,,,,,,,,,,,,,,,,5dde843983e309dfeaf240e9,2020-11-25_11h40.27.651,lexical_decision_task_MP_exp2,2020.2.5,Win32,60,m,1,0.670905,,,,,,,,0.670905,1,,,,,,186,WORD,UN,16,course,PORTAL,m,,,,,,0.412037037,-0.037037037,0,0,0,,0,180,180,185,1
,,,,,,,,,,,,,,,,,,5dde843983e309dfeaf240e9,2020-11-25_11h40.27.651,lexical_decision_task_MP_exp2,2020.2.5,Win32,60,z,1,0.717085,,,,,,,,0.717085,1,,,,,,476,NW,UN,16,photie,JOSTED,z,,,,,,0.412037037,-0.037037037,0,0,0,,0,181,181,475,1
,,,,,,,,,,,,,,,,,,5dde843983e309dfeaf240e9,2020-11-25_11h40.27.651,lexical_decision_task_MP_exp2,2020.2.5,Win32,60,m,1,0.682815,,,,,,,,0.682815,1,,,,,,203,WORD,UN,16,burden,PHRASE,m,,,,,,0.412037037,-0.037037037,0,0,0,,0,182,182,202,1
,,,,,,,,,,,,,,,,,,5dde843983e309dfeaf240e9,2020-11-25_11h40.27.651,lexical_decision_task_MP_exp2,2020.2.5,Win32,60,m,1,0.78541,,,,,,,,0.78541,1,,,,,,35,WORD,"ID",33,socket,SOCKET,m,,,,,,0.412037037,-0.037037037,0,0,0,,0,183,183,34,1
,,,,,,,,,,,,,,,,,,5dde843983e309dfeaf240e9,2020-11-25_11h40.27.651,lexical_decision_task_MP_exp2,2020.2.5,Win32,60,z,1,0.684835,,,,,,,,0.684835,1,,,,,,432,NW,UN,16,drance,LUNKER,z,,,,,,0.412037037,-0.037037037,0,0,0,,0,184,184,431,1
,,,,,,,,,,,,,,,,,,5dde843983e309dfeaf240e9,2020-11-25_11h40.27.651,lexical_decision_task_MP_exp2,2020.2.5,Win32,60,z,0,0.6581,,,,,,,,0.6581,0,,,,,,10,WORD,"ID",33,ethnic,ETHNIC,m,,,,,,0.412037037,-0.037037037,0,0,0,,0,185,185,9,1
,,,,,,,,,,,,,,,,,,5dde843983e309dfeaf240e9,2020-11-25_11h40.27.651,lexical_decision_task_MP_exp2,2020.2.5,Win32,60,z,1,1.505515,,,,,,,,1.505515,1,,,,,,266,NW,"ID",33,varmit,VARMIT,z,,,,,,0.412037037,-0.037037037,0,0,0,,0,186,186,265,1
,,,,,,,,,,,,,,,,,,5dde843983e309dfeaf240e9,2020-11-25_11h40.27.651,lexical_decision_task_MP_exp2,2020.2.5,Win32,60,z,1,0.777225,,,,,,,,0.777225,1,,,,,,261,NW,"ID",33,stunch,STUNCH,z,,,,,,0.412037037,-0.037037037,0,0,0,,0,187,187,260,1
,,,,,,,,,,,,,,,,,,5dde843983e309dfeaf240e9,2020-11-25_11h40.27.651,lexical_decision_task_MP_exp2,2020.2.5,Win32,60,z,1,0.87291,,,,,,,,0.87291,1,,,,,,449,NW,UN,16,phrect,BRUNGE,z,,,,,,0.412037037,-0.037037037,0,0,0,,0,188,188,448,1
,,,,,,,,,,,,,,,,,,5dde843983e309dfeaf240e9,2020-11-25_11h40.27.651,lexical_decision_task_MP_exp2,2020.2.5,Win32,60,m,1,0.70465,,,,,,,,0.70465,1,,,,,,69,WORD,"ID",16,plenty,PLENTY,m,,,,,,0.412037037,-0.037037037,0,0,0,,0,189,189,68,1
,,,,,,,,,,,,,,,,,,5dde843983e309dfeaf240e9,2020-11-25_11h40.27.651,lexical_decision_task_MP_exp2,2020.2.5,Win32,60,m,1,1.41704,,,,,,,,1.41704,1,,,,,,227,WORD,UN,16,master,SELDOM,m,,,,,,0.412037037,-0.037037037,0,0,0,,0,190,190,226,1
,,,,,,,,,,,,,,,,,,5dde843983e309dfeaf240e9,2020-11-25_11h40.27.651,lexical_decision_task_MP_exp2,2020.2.5,Win32,60,m,1,0.549245,,,,,,,,0.549245,1,,,,,,190,WORD,UN,16,stable,BACKUP,m,,,,,,0.412037037,-0.037037037,0,0,0,,0,191,191,189,1
,,,,,,,,,,,,,,,,,,5dde843983e309dfeaf240e9,2020-11-25_11h40.27.651,lexical_decision_task_MP_exp2,2020.2.5,Win32,60,z,1,0.891995,,,,,,,,0.891995,1,,,,,,427,NW,UN,16,tandly,SCHIND,z,,,,,,0.412037037,-0.037037037,0,0,0,,0,192,192,426,1
,,,,,,,,,,,,,,,,,,5dde843983e309dfeaf240e9,2020-11-25_11h40.27.651,lexical_decision_task_MP_exp2,2020.2.5,Win32,60,m,1,0.666645,,,,,,,,0.666645,1,,,,,,18,WORD,"ID",33,humble,HUMBLE,m,,,,,,0.412037037,-0.037037037,0,0,0,,0,193,193,17,1
,,,,,,,,,,,,,,,,,,5dde843983e309dfeaf240e9,2020-11-25_11h40.27.651,lexical_decision_task_MP_exp2,2020.2.5,Win32,60,z,1,0.93121,,,,,,,,0.93121,1,,,,,,373,NW,UN,33,injore,BIGENT,z,,,,,,0.412037037,-0.037037037,0,0,0,,0,194,194,372,1
,,,,,,,,,,,,,,,,,,5dde843983e309dfeaf240e9,2020-11-25_11h40.27.651,lexical_decision_task_MP_exp2,2020.2.5,Win32,60,z,1,1.382125,,,,,,,,1.382125,1,,,,,,374,NW,UN,33,yorque,SLIANT,z,,,,,,0.412037037,-0.037037037,0,0,0,,0,195,195,373,1
,,,,,,,,,,,,,,,,,,5dde843983e309dfeaf240e9,2020-11-25_11h40.27.651,lexical_decision_task_MP_exp2,2020.2.5,Win32,60,m,1,0.57497,,,,,,,,0.57497,1,,,,,,127,WORD,UN,33,senior,CASTLE,m,,,,,,0.412037037,-0.037037037,0,0,0,,0,196,196,126,1
,,,,,,,,,,,,,,,,,,5dde843983e309dfeaf240e9,2020-11-25_11h40.27.651,lexical_decision_task_MP_exp2,2020.2.5,Win32,60,m,1,0.657265,,,,,,,,0.657265,1,,,,,,125,WORD,UN,33,blouse,NICKEL,m,,,,,,0.412037037,-0.037037037,0,0,0,,0,197,197,124,1
,,,,,,,,,,,,,,,,,,5dde843983e309dfeaf240e9,2020-11-25_11h40.27.651,lexical_decision_task_MP_exp2,2020.2.5,Win32,60,m,1,0.52528,,,,,,,,0.52528,1,,,,,,93,WORD,"ID",16,public,PUBLIC,m,,,,,,0.412037037,-0.037037037,0,0,0,,0,198,198,92,1
,,,,,,,,,,,,,,,,,,5dde843983e309dfeaf240e9,2020-11-25_11h40.27.651,lexical_decision_task_MP_exp2,2020.2.5,Win32,60,m,1,0.577385,,,,,,,,0.577385,1,,,,,,48,WORD,"ID",33,walnut,WALNUT,m,,,,,,0.412037037,-0.037037037,0,0,0,,0,199,199,47,1
,,,,,,,,,,,,,,,,,,5dde843983e309dfeaf240e9,2020-11-25_11h40.27.651,lexical_decision_task_MP_exp2,2020.2.5,Win32,60,z,1,0.657655,,,,,,,,0.657655,1,,,,,,453,NW,UN,16,scouge,BOLVIS,z,,,,,,0.412037037,-0.037037037,0,0,0,,0,200,200,452,1
,,,,,,,,,,,,,,,,,,5dde843983e309dfeaf240e9,2020-11-25_11h40.27.651,lexical_decision_task_MP_exp2,2020.2.5,Win32,60,z,1,0.76588,,,,,,,,0.76588,1,,,,,,417,NW,UN,33,suidle,EAROUD,z,,,,,,0.412037037,-0.037037037,0,0,0,,0,201,201,416,1
,,,,,,,,,,,,,,,,,,5dde843983e309dfeaf240e9,2020-11-25_11h40.27.651,lexical_decision_task_MP_exp2,2020.2.5,Win32,60,m,1,0.63288,,,,,,,,0.63288,1,,,,,,28,WORD,"ID",33,comedy,COMEDY,m,,,,,,0.412037037,-0.037037037,0,0,0,,0,202,202,27,1
,,,,,,,,,,,,,,,,,,5dde843983e309dfeaf240e9,2020-11-25_11h40.27.651,lexical_decision_task_MP_exp2,2020.2.5,Win32,60,z,0,0.58142,,,,,,,,0.58142,0,,,,,,163,WORD,UN,33,market,STRING,m,,,,,,0.412037037,-0.037037037,0,0,0,,0,203,203,162,1
,,,,,,,,,,,,,,,,,,5dde843983e309dfeaf240e9,2020-11-25_11h40.27.651,lexical_decision_task_MP_exp2,2020.2.5,Win32,60,z,0,0.59226,,,,,,,,0.59226,0,,,,,,3,WORD,"ID",33,knight,KNIGHT,m,,,,,,0.412037037,-0.037037037,0,0,0,,0,204,204,2,1
,,,,,,,,,,,,,,,,,,5dde843983e309dfeaf240e9,2020-11-25_11h40.27.651,lexical_decision_task_MP_exp2,2020.2.5,Win32,60,m,1,0.55101,,,,,,,,0.55101,1,,,,,,109,WORD,"ID",16,wonder,WONDER,m,,,,,,0.412037037,-0.037037037,0,0,0,,0,205,205,108,1
,,,,,,,,,,,,,,,,,,5dde843983e309dfeaf240e9,2020-11-25_11h40.27.651,lexical_decision_task_MP_exp2,2020.2.5,Win32,60,m,1,0.53372,,,,,,,,0.53372,1,,,,,,63,WORD,"ID",16,launch,LAUNCH,m,,,,,,0.412037037,-0.037037037,0,0,0,,0,206,206,62,1
,,,,,,,,,,,,,,,,,,5dde843983e309dfeaf240e9,2020-11-25_11h40.27.651,lexical_decision_task_MP_exp2,2020.2.5,Win32,60,z,1,0.931115,,,,,,,,0.931115,1,,,,,,396,NW,UN,33,camble,FLENGY,z,,,,,,0.412037037,-0.037037037,0,0,0,,0,207,207,395,1
,,,,,,,,,,,,,,,,,,5dde843983e309dfeaf240e9,2020-11-25_11h40.27.651,lexical_decision_task_MP_exp2,2020.2.5,Win32,60,m,1,0.68215,,,,,,,,0.68215,1,,,,,,78,WORD,"ID",16,column,COLUMN,m,,,,,,0.412037037,-0.037037037,0,0,0,,0,208,208,77,1
,,,,,,,,,,,,,,,,,,5dde843983e309dfeaf240e9,2020-11-25_11h40.27.651,lexical_decision_task_MP_exp2,2020.2.5,Win32,60,m,1,1.41796,,,,,,,,1.41796,1,,,,,,237,WORD,UN,16,seldom,POSTER,m,,,,,,0.412037037,-0.037037037,0,0,0,,0,209,209,236,1
,,,,,,,,,,,,,,,,,,5dde843983e309dfeaf240e9,2020-11-25_11h40.27.651,lexical_decision_task_MP_exp2,2020.2.5,Win32,60,z,1,0.77219,,,,,,,,0.77219,1,,,,,,466,NW,UN,16,pebric,HOCITE,z,,,,,,0.412037037,-0.037037037,0,0,0,,0,210,210,465,1
,,,,,,,,,,,,,,,,,,5dde843983e309dfeaf240e9,2020-11-25_11h40.27.651,lexical_decision_task_MP_exp2,2020.2.5,Win32,60,,0,,,,,,,,,0.77219,-1,,,,,,305,NW,"ID",16,forgle,FORGLE,z,,,,,,0.412037037,-0.037037037,0,0,0,,0,211,211,304,1
,,,,,,,,,,,,,,,,,,5dde843983e309dfeaf240e9,2020-11-25_11h40.27.651,lexical_decision_task_MP_exp2,2020.2.5,Win32,60,z,1,0.73284,,,,,,,,0.73284,1,,,,,,363,NW,UN,33,impote,BREALI,z,,,,,,0.412037037,-0.037037037,0,0,0,,0,212,212,362,1
,,,,,,,,,,,,,,,,,,5dde843983e309dfeaf240e9,2020-11-25_11h40.27.651,lexical_decision_task_MP_exp2,2020.2.5,Win32,60,z,1,0.555975,,,,,,,,0.555975,1,,,,,,279,NW,"ID",33,celond,CELOND,z,,,,,,0.412037037,-0.037037037,0,0,0,,0,213,213,278,1
,,,,,,,,,,,,,,,,,,5dde843983e309dfeaf240e9,2020-11-25_11h40.27.651,lexical_decision_task_MP_exp2,2020.2.5,Win32,60,m,1,0.76405,,,,,,,,0.76405,1,,,,,,170,WORD,UN,33,depart,POUNCE,m,,,,,,0.412037037,-0.037037037,0,0,0,,0,214,214,169,1
,,,,,,,,,,,,,,,,,,5dde843983e309dfeaf240e9,2020-11-25_11h40.27.651,lexical_decision_task_MP_exp2,2020.2.5,Win32,60,z,1,0.66786,,,,,,,,0.66786,1,,,,,,262,NW,"ID",33,quilew,QUILEW,z,,,,,,0.412037037,-0.037037037,0,0,0,,0,215,215,261,1
,,,,,,,,,,,,,,,,,,5dde843983e309dfeaf240e9,2020-11-25_11h40.27.651,lexical_decision_task_MP_exp2,2020.2.5,Win32,60,m,1,0.617115,,,,,,,,0.617115,1,,,,,,143,WORD,UN,33,sponge,REASON,m,,,,,,0.412037037,-0.037037037,0,0,0,,0,216,216,142,1
,,,,,,,,,,,,,,,,,,5dde843983e309dfeaf240e9,2020-11-25_11h40.27.651,lexical_decision_task_MP_exp2,2020.2.5,Win32,60,m,1,0.581915,,,,,,,,0.581915,1,,,,,,240,WORD,UN,16,glance,FOREST,m,,,,,,0.412037037,-0.037037037,0,0,0,,0,217,217,239,1
,,,,,,,,,,,,,,,,,,5dde843983e309dfeaf240e9,2020-11-25_11h40.27.651,lexical_decision_task_MP_exp2,2020.2.5,Win32,60,m,1,0.571805,,,,,,,,0.571805,1,,,,,,110,WORD,"ID",16,polite,POLITE,m,,,,,,0.412037037,-0.037037037,0,0,0,,0,218,218,109,1
,,,,,,,,,,,,,,,,,,5dde843983e309dfeaf240e9,2020-11-25_11h40.27.651,lexical_decision_task_MP_exp2,2020.2.5,Win32,60,m,1,0.47083,,,,,,,,0.47083,1,,,,,,138,WORD,UN,33,staple,MELODY,m,,,,,,0.412037037,-0.037037037,0,0,0,,0,219,219,137,1
,,,,,,,,,,,,,,,,,,5dde843983e309dfeaf240e9,2020-11-25_11h40.27.651,lexical_decision_task_MP_exp2,2020.2.5,Win32,60,m,1,0.45368,,,,,,,,0.45368,1,,,,,,73,WORD,"ID",16,source,SOURCE,m,,,,,,0.412037037,-0.037037037,0,0,0,,0,220,220,72,1
,,,,,,,,,,,,,,,,,,5dde843983e309dfeaf240e9,2020-11-25_11h40.27.651,lexical_decision_task_MP_exp2,2020.2.5,Win32,60,z,1,0.73213,,,,,,,,0.73213,1,,,,,,469,NW,UN,16,crudio,PADIFS,z,,,,,,0.412037037,-0.037037037,0,0,0,,0,221,221,468,1
,,,,,,,,,,,,,,,,,,5dde843983e309dfeaf240e9,2020-11-25_11h40.27.651,lexical_decision_task_MP_exp2,2020.2.5,Win32,60,z,1,0.57105,,,,,,,,0.57105,1,,,,,,403,NW,UN,33,cluirm,BRUATS,z,,,,,,0.412037037,-0.037037037,0,0,0,,0,222,222,402,1
,,,,,,,,,,,,,,,,,,5dde843983e309dfeaf240e9,2020-11-25_11h40.27.651,lexical_decision_task_MP_exp2,2020.2.5,Win32,60,m,1,0.53532,,,,,,,,0.53532,1,,,,,,88,WORD,"ID",16,hunger,HUNGER,m,,,,,,0.412037037,-0.037037037,0,0,0,,0,223,223,87,1
,,,,,,,,,,,,,,,,,,5dde843983e309dfeaf240e9,2020-11-25_11h40.27.651,lexical_decision_task_MP_exp2,2020.2.5,Win32,60,z,1,0.682345,,,,,,,,0.682345,1,,,,,,468,NW,UN,16,padifs,WICTOR,z,,,,,,0.412037037,-0.037037037,0,0,0,,0,224,224,467,1
,,,,,,,,,,,,,,,,,,5dde843983e309dfeaf240e9,2020-11-25_11h40.27.651,lexical_decision_task_MP_exp2,2020.2.5,Win32,60,m,1,0.68903,,,,,,,,0.68903,1,,,,,,66,WORD,"ID",16,gospel,GOSPEL,m,,,,,,0.412037037,-0.037037037,0,0,0,,0,225,225,65,1
,,,,,,,,,,,,,,,,,,5dde843983e309dfeaf240e9,2020-11-25_11h40.27.651,lexical_decision_task_MP_exp2,2020.2.5,Win32,60,z,1,0.67122,,,,,,,,0.67122,1,,,,,,335,NW,"ID",16,desion,DESION,z,,,,,,0.412037037,-0.037037037,0,0,0,,0,226,226,334,1
,,,,,,,,,,,,,,,,,,5dde843983e309dfeaf240e9,2020-11-25_11h40.27.651,lexical_decision_task_MP_exp2,2020.2.5,Win32,60,m,1,0.550715,,,,,,,,0.550715,1,,,,,,56,WORD,"ID",33,ambush,AMBUSH,m,,,,,,0.412037037,-0.037037037,0,0,0,,0,227,227,55,1
,,,,,,,,,,,,,,,,,,5dde843983e309dfeaf240e9,2020-11-25_11h40.27.651,lexical_decision_task_MP_exp2,2020.2.5,Win32,60,z,1,0.717095,,,,,,,,0.717095,1,,,,,,280,NW,"ID",33,curbol,CURBOL,z,,,,,,0.412037037,-0.037037037,0,0,0,,0,228,228,279,1
,,,,,,,,,,,,,,,,,,5dde843983e309dfeaf240e9,2020-11-25_11h40.27.651,lexical_decision_task_MP_exp2,2020.2.5,Win32,60,z,1,0.95286,,,,,,,,0.95286,1,,,,,,400,NW,UN,33,mustil,WEAROX,z,,,,,,0.412037037,-0.037037037,0,0,0,,0,229,229,399,1
,,,,,,,,,,,,,,,,,,5dde843983e309dfeaf240e9,2020-11-25_11h40.27.651,lexical_decision_task_MP_exp2,2020.2.5,Win32,60,m,1,0.63576,,,,,,,,0.63576,1,,,,,,131,WORD,UN,33,strong,QUENCH,m,,,,,,0.412037037,-0.037037037,0,0,0,,0,230,230,130,1
,,,,,,,,,,,,,,,,,,5dde843983e309dfeaf240e9,2020-11-25_11h40.27.651,lexical_decision_task_MP_exp2,2020.2.5,Win32,60,z,0,0.76686,,,,,,,,0.76686,0,,,,,,85,WORD,"ID",16,sprawl,SPRAWL,m,,,,,,0.412037037,-0.037037037,0,0,0,,0,231,231,84,1
,,,,,,,,,,,,,,,,,,5dde843983e309dfeaf240e9,2020-11-25_11h40.27.651,lexical_decision_task_MP_exp2,2020.2.5,Win32,60,m,1,0.56548,,,,,,,,0.56548,1,,,,,,86,WORD,"ID",16,rodent,RODENT,m,,,,,,0.412037037,-0.037037037,0,0,0,,0,232,232,85,1
,,,,,,,,,,,,,,,,,,5dde843983e309dfeaf240e9,2020-11-25_11h40.27.651,lexical_decision_task_MP_exp2,2020.2.5,Win32,60,z,1,0.64047,,,,,,,,0.64047,1,,,,,,428,NW,UN,16,chrums,TANDLY,z,,,,,,0.412037037,-0.037037037,0,0,0,,0,233,233,427,1
,,,,,,,,,,,,,,,,,,5dde843983e309dfeaf240e9,2020-11-25_11h40.27.651,lexical_decision_task_MP_exp2,2020.2.5,Win32,60,z,1,0.601165,,,,,,,,0.601165,1,,,,,,308,NW,"ID",16,psetch,PSETCH,z,,,,,,0.412037037,-0.037037037,0,0,0,,0,234,234,307,1
,,,,,,,,,,,,,,,,,,5dde843983e309dfeaf240e9,2020-11-25_11h40.27.651,lexical_decision_task_MP_exp2,2020.2.5,Win32,60,m,0,0.573785,,,,,,,,0.573785,0,,,,,,268,NW,"ID",33,packes,PACKES,z,,,,,,0.412037037,-0.037037037,0,0,0,,0,235,235,267,1
,,,,,,,,,,,,,,,,,,5dde843983e309dfeaf240e9,2020-11-25_11h40.27.651,lexical_decision_task_MP_exp2,2020.2.5,Win32,60,z,1,0.654,,,,,,,,0.654,1,,,,,,473,NW,UN,16,hablin,CRIBLE,z,,,,,,0.412037037,-0.037037037,0,0,0,,0,236,236,472,1
,,,,,,,,,,,,,,,,,,5dde843983e309dfeaf240e9,2020-11-25_11h40.27.651,lexical_decision_task_MP_exp2,2020.2.5,Win32,60,z,1,0.846815,,,,,,,,0.846815,1,,,,,,325,NW,"ID",16,thruse,THRUSE,z,,,,,,0.412037037,-0.037037037,0,0,0,,0,237,237,324,1
,,,,,,,,,,,,,,,,,,5dde843983e309dfeaf240e9,2020-11-25_11h40.27.651,lexical_decision_task_MP_exp2,2020.2.5,Win32,60,m,1,0.60607,,,,,,,,0.60607,1,,,,,,229,WORD,UN,16,fringe,MOTHER,m,,,,,,0.412037037,-0.037037037,0,0,0,,0,238,238,228,1
,,,,,,,,,,,,,,,,,,5dde843983e309dfeaf240e9,2020-11-25_11h40.27.651,lexical_decision_task_MP_exp2,2020.2.5,Win32,60,m,1,0.45654,,,,,,,,0.45654,1,,,,,,51,WORD,"ID",33,hungry,HUNGRY,m,,,,,,0.412037037,-0.037037037,0,0,0,,0,239,239,50,1
,,,,,,,,,,,,,,,,,,5dde843983e309dfeaf240e9,2020-11-25_11h40.27.651,lexical_decision_task_MP_exp2,2020.2.5,Win32,60,z,1,0.65761,,,,,,,,0.65761,1,,,,,,246,NW,"ID",33,piaton,PIATON,z,,,,,,0.412037037,-0.037037037,0,0,0,,0,240,240,245,1
,,,,,,,,,,,,,,,,,,5dde843983e309dfeaf240e9,2020-11-25_11h40.27.651,lexical_decision_task_MP_exp2,2020.2.5,Win32,60,z,1,0.55901,,,,,,,,0.55901,1,,,,,,288,NW,"ID",33,yaceup,YACEUP,z,,,,,,0.412037037,-0.037037037,0,0,0,,0,241,241,287,1
,,,,,,,,,,,,,,,,,,5dde843983e309dfeaf240e9,2020-11-25_11h40.27.651,lexical_decision_task_MP_exp2,2020.2.5,Win32,60,m,1,0.617885,,,,,,,,0.617885,1,,,,,,126,WORD,UN,33,castle,ENOUGH,m,,,,,,0.412037037,-0.037037037,0,0,0,,0,242,242,125,1
,,,,,,,,,,,,,,,,,,5dde843983e309dfeaf240e9,2020-11-25_11h40.27.651,lexical_decision_task_MP_exp2,2020.2.5,Win32,60,z,1,0.597455,,,,,,,,0.597455,1,,,,,,423,NW,UN,16,praile,STRELD,z,,,,,,0.412037037,-0.037037037,0,0,0,,0,243,243,422,1
,,,,,,,,,,,,,,,,,,5dde843983e309dfeaf240e9,2020-11-25_11h40.27.651,lexical_decision_task_MP_exp2,2020.2.5,Win32,60,z,1,0.60516,,,,,,,,0.60516,1,,,,,,317,NW,"ID",16,worbal,WORBAL,z,,,,,,0.412037037,-0.037037037,0,0,0,,0,244,244,316,1
,,,,,,,,,,,,,,,,,,5dde843983e309dfeaf240e9,2020-11-25_11h40.27.651,lexical_decision_task_MP_exp2,2020.2.5,Win32,60,m,1,0.501845,,,,,,,,0.501845,1,,,,,,210,WORD,UN,16,infect,MONKEY,m,,,,,,0.412037037,-0.037037037,0,0,0,,0,245,245,209,1
,,,,,,,,,,,,,,,,,,5dde843983e309dfeaf240e9,2020-11-25_11h40.27.651,lexical_decision_task_MP_exp2,2020.2.5,Win32,60,z,1,0.64712,,,,,,,,0.64712,1,,,,,,424,NW,UN,16,urivel,PRAILE,z,,,,,,0.412037037,-0.037037037,0,0,0,,0,246,246,423,1
,,,,,,,,,,,,,,,,,,5dde843983e309dfeaf240e9,2020-11-25_11h40.27.651,lexical_decision_task_MP_exp2,2020.2.5,Win32,60,m,1,0.421625,,,,,,,,0.421625,1,,,,,,101,WORD,"ID",16,wrench,WRENCH,m,,,,,,0.412037037,-0.037037037,0,0,0,,0,247,247,100,1
,,,,,,,,,,,,,,,,,,5dde843983e309dfeaf240e9,2020-11-25_11h40.27.651,lexical_decision_task_MP_exp2,2020.2.5,Win32,60,z,1,0.815205,,,,,,,,0.815205,1,,,,,,297,NW,"ID",33,fertic,FERTIC,z,,,,,,0.412037037,-0.037037037,0,0,0,,0,248,248,296,1
,,,,,,,,,,,,,,,,,,5dde843983e309dfeaf240e9,2020-11-25_11h40.27.651,lexical_decision_task_MP_exp2,2020.2.5,Win32,60,m,1,0.632805,,,,,,,,0.632805,1,,,,,,1,WORD,"ID",33,fright,FRIGHT,m,,,,,,0.412037037,-0.037037037,0,0,0,,0,249,249,0,1
,,,,,,,,,,,,,,,,,,5dde843983e309dfeaf240e9,2020-11-25_11h40.27.651,lexical_decision_task_MP_exp2,2020.2.5,Win32,60,m,0,0.66328,,,,,,,,0.66328,0,,,,,,327,NW,"ID",16,plenac,PLENAC,z,,,,,,0.412037037,-0.037037037,0,0,0,,0,250,250,326,1
,,,,,,,,,,,,,,,,,,5dde843983e309dfeaf240e9,2020-11-25_11h40.27.651,lexical_decision_task_MP_exp2,2020.2.5,Win32,60,m,0,0.45336,,,,,,,,0.45336,0,,,,,,458,NW,UN,16,chaite,BARCET,z,,,,,,0.412037037,-0.037037037,0,0,0,,0,251,251,457,1
,,,,,,,,,,,,,,,,,,5dde843983e309dfeaf240e9,2020-11-25_11h40.27.651,lexical_decision_task_MP_exp2,2020.2.5,Win32,60,z,1,0.5819,,,,,,,,0.5819,1,,,,,,329,NW,"ID",16,yarike,YARIKE,z,,,,,,0.412037037,-0.037037037,0,0,0,,0,252,252,328,1
,,,,,,,,,,,,,,,,,,5dde843983e309dfeaf240e9,2020-11-25_11h40.27.651,lexical_decision_task_MP_exp2,2020.2.5,Win32,60,m,1,0.57166,,,,,,,,0.57166,1,,,,,,92,WORD,"ID",16,strand,STRAND,m,,,,,,0.412037037,-0.037037037,0,0,0,,0,253,253,91,1
,,,,,,,,,,,,,,,,,,5dde843983e309dfeaf240e9,2020-11-25_11h40.27.651,lexical_decision_task_MP_exp2,2020.2.5,Win32,60,m,1,0.62064,,,,,,,,0.62064,1,,,,,,43,WORD,"ID",33,tongue,TONGUE,m,,,,,,0.412037037,-0.037037037,0,0,0,,0,254,254,42,1
,,,,,,,,,,,,,,,,,,5dde843983e309dfeaf240e9,2020-11-25_11h40.27.651,lexical_decision_task_MP_exp2,2020.2.5,Win32,60,m,1,0.549615,,,,,,,,0.549615,1,,,,,,15,WORD,"ID",33,amount,AMOUNT,m,,,,,,0.412037037,-0.037037037,0,0,0,,0,255,255,14,1
,,,,,,,,,,,,,,,,,,5dde843983e309dfeaf240e9,2020-11-25_11h40.27.651,lexical_decision_task_MP_exp2,2020.2.5,Win32,60,m,1,0.600745,,,,,,,,0.600745,1,,,,,,40,WORD,"ID",33,convey,CONVEY,m,,,,,,0.412037037,-0.037037037,0,0,0,,0,256,256,39,1
,,,,,,,,,,,,,,,,,,5dde843983e309dfeaf240e9,2020-11-25_11h40.27.651,lexical_decision_task_MP_exp2,2020.2.5,Win32,60,m,0,0.474665,,,,,,,,0.474665,0,,,,,,352,NW,"ID",16,tringe,TRINGE,z,,,,,,0.412037037,-0.037037037,0,0,0,,0,257,257,351,1
,,,,,,,,,,,,,,,,,,5dde843983e309dfeaf240e9,2020-11-25_11h40.27.651,lexical_decision_task_MP_exp2,2020.2.5,Win32,60,z,1,0.860475,,,,,,,,0.860475,1,,,,,,277,NW,"ID",33,petain,PETAIN,z,,,,,,0.412037037,-0.037037037,0,0,0,,0,258,258,276,1
,,,,,,,,,,,,,,,,,,5dde843983e309dfeaf240e9,2020-11-25_11h40.27.651,lexical_decision_task_MP_exp2,2020.2.5,Win32,60,m,1,0.552305,,,,,,,,0.552305,1,,,,,,7,WORD,"ID",33,anchor,ANCHOR,m,,,,,,0.412037037,-0.037037037,0,0,0,,0,259,259,6,1
,,,,,,,,,,,,,,,,,,5dde843983e309dfeaf240e9,2020-11-25_11h40.27.651,lexical_decision_task_MP_exp2,2020.2.5,Win32,60,z,1,0.555,,,,,,,,0.555,1,,,,,,450,NW,UN,16,rastoe,PHRECT,z,,,,,,0.412037037,-0.037037037,0,0,0,,0,260,260,449,1
,,,,,,,,,,,,,,,,,,5dde843983e309dfeaf240e9,2020-11-25_11h40.27.651,lexical_decision_task_MP_exp2,2020.2.5,Win32,60,z,1,0.765645,,,,,,,,0.765645,1,,,,,,307,NW,"ID",16,kirafe,KIRAFE,z,,,,,,0.412037037,-0.037037037,0,0,0,,0,261,261,306,1
,,,,,,,,,,,,,,,,,,5dde843983e309dfeaf240e9,2020-11-25_11h40.27.651,lexical_decision_task_MP_exp2,2020.2.5,Win32,60,z,0,0.818485,,,,,,,,0.818485,0,,,,,,230,WORD,UN,16,export,FRINGE,m,,,,,,0.412037037,-0.037037037,0,0,0,,0,262,262,229,1
,,,,,,,,,,,,,,,,,,5dde843983e309dfeaf240e9,2020-11-25_11h40.27.651,lexical_decision_task_MP_exp2,2020.2.5,Win32,60,m,0,0.739535,,,,,,,,0.739535,0,,,,,,313,NW,"ID",16,paurse,PAURSE,z,,,,,,0.412037037,-0.037037037,0,0,0,,0,263,263,312,1
,,,,,,,,,,,,,,,,,,5dde843983e309dfeaf240e9,2020-11-25_11h40.27.651,lexical_decision_task_MP_exp2,2020.2.5,Win32,60,z,1,1.09815,,,,,,,,1.09815,1,,,,,,299,NW,"ID",33,sturch,STURCH,z,,,,,,0.412037037,-0.037037037,0,0,0,,0,264,264,298,1
,,,,,,,,,,,,,,,,,,5dde843983e309dfeaf240e9,2020-11-25_11h40.27.651,lexical_decision_task_MP_exp2,2020.2.5,Win32,60,z,1,0.70181,,,,,,,,0.70181,1,,,,,,336,NW,"ID",16,ghodus,GHODUS,z,,,,,,0.412037037,-0.037037037,0,0,0,,0,265,265,335,1
,,,,,,,,,,,,,,,,,,5dde843983e309dfeaf240e9,2020-11-25_11h40.27.651,lexical_decision_task_MP_exp2,2020.2.5,Win32,60,m,1,0.713465,,,,,,,,0.713465,1,,,,,,91,WORD,"ID",16,expand,EXPAND,m,,,,,,0.412037037,-0.037037037,0,0,0,,0,266,266,90,1
,,,,,,,,,,,,,,,,,,5dde843983e309dfeaf240e9,2020-11-25_11h40.27.651,lexical_decision_task_MP_exp2,2020.2.5,Win32,60,z,1,0.798285,,,,,,,,0.798285,1,,,,,,475,NW,UN,16,robuly,PEBRIC,z,,,,,,0.412037037,-0.037037037,0,0,0,,0,267,267,474,1
,,,,,,,,,,,,,,,,,,5dde843983e309dfeaf240e9,2020-11-25_11h40.27.651,lexical_decision_task_MP_exp2,2020.2.5,Win32,60,z,1,0.67368,,,,,,,,0.67368,1,,,,,,358,NW,"ID",16,fleack,FLEACK,z,,,,,,0.412037037,-0.037037037,0,0,0,,0,268,268,357,1
,,,,,,,,,,,,,,,,,,5dde843983e309dfeaf240e9,2020-11-25_11h40.27.651,lexical_decision_task_MP_exp2,2020.2.5,Win32,60,z,1,0.580865,,,,,,,,0.580865,1,,,,,,294,NW,"ID",33,inhort,INHORT,z,,,,,,0.412037037,-0.037037037,0,0,0,,0,269,269,293,1
,,,,,,,,,,,,,,,,,,5dde843983e309dfeaf240e9,2020-11-25_11h40.27.651,lexical_decision_task_MP_exp2,2020.2.5,Win32,60,z,1,0.512045,,,,,,,,0.512045,1,,,,,,386,NW,UN,33,gronce,ANCUST,z,,,,,,0.412037037,-0.037037037,0,0,0,,0,270,270,385,1
,,,,,,,,,,,,,,,,,,5dde843983e309dfeaf240e9,2020-11-25_11h40.27.651,lexical_decision_task_MP_exp2,2020.2.5,Win32,60,z,1,0.49022,,,,,,,,0.49022,1,,,,,,275,NW,"ID",33,sleirt,SLEIRT,z,,,,,,0.412037037,-0.037037037,0,0,0,,0,271,271,274,1
,,,,,,,,,,,,,,,,,,5dde843983e309dfeaf240e9,2020-11-25_11h40.27.651,lexical_decision_task_MP_exp2,2020.2.5,Win32,60,z,1,0.859495,,,,,,,,0.859495,1,,,,,,355,NW,"ID",16,zingly,ZINGLY,z,,,,,,0.412037037,-0.037037037,0,0,0,,0,272,272,354,1
,,,,,,,,,,,,,,,,,,5dde843983e309dfeaf240e9,2020-11-25_11h40.27.651,lexical_decision_task_MP_exp2,2020.2.5,Win32,60,z,1,0.672325,,,,,,,,0.672325,1,,,,,,384,NW,UN,33,veigma,GUESCO,z,,,,,,0.412037037,-0.037037037,0,0,0,,0,273,273,383,1
,,,,,,,,,,,,,,,,,,5dde843983e309dfeaf240e9,2020-11-25_11h40.27.651,lexical_decision_task_MP_exp2,2020.2.5,Win32,60,m,1,0.61544,,,,,,,,0.61544,1,,,,,,193,WORD,UN,16,plague,OBJECT,m,,,,,,0.412037037,-0.037037037,0,0,0,,0,274,274,192,1
,,,,,,,,,,,,,,,,,,5dde843983e309dfeaf240e9,2020-11-25_11h40.27.651,lexical_decision_task_MP_exp2,2020.2.5,Win32,60,z,1,0.59933,,,,,,,,0.59933,1,,,,,,456,NW,UN,16,wanigh,BROGET,z,,,,,,0.412037037,-0.037037037,0,0,0,,0,275,275,455,1
,,,,,,,,,,,,,,,,,,5dde843983e309dfeaf240e9,2020-11-25_11h40.27.651,lexical_decision_task_MP_exp2,2020.2.5,Win32,60,z,1,0.78357,,,,,,,,0.78357,1,,,,,,271,NW,"ID",33,aubrid,AUBRID,z,,,,,,0.412037037,-0.037037037,0,0,0,,0,276,276,270,1
,,,,,,,,,,,,,,,,,,5dde843983e309dfeaf240e9,2020-11-25_11h40.27.651,lexical_decision_task_MP_exp2,2020.2.5,Win32,60,z,1,0.88379,,,,,,,,0.88379,1,,,,,,332,NW,"ID",16,vangue,VANGUE,z,,,,,,0.412037037,-0.037037037,0,0,0,,0,277,277,331,1
,,,,,,,,,,,,,,,,,,5dde843983e309dfeaf240e9,2020-11-25_11h40.27.651,lexical_decision_task_MP_exp2,2020.2.5,Win32,60,z,1,0.748095,,,,,,,,0.748095,1,,,,,,433,NW,UN,16,pitrom,DRANCE,z,,,,,,0.412037037,-0.037037037,0,0,0,,0,278,278,432,1
,,,,,,,,,,,,,,,,,,5dde843983e309dfeaf240e9,2020-11-25_11h40.27.651,lexical_decision_task_MP_exp2,2020.2.5,Win32,60,m,0,0.651215,,,,,,,,0.651215,0,,,,,,438,NW,UN,16,limpor,BAITCH,z,,,,,,0.412037037,-0.037037037,0,0,0,,0,279,279,437,1
,,,,,,,,,,,,,,,,,,5dde843983e309dfeaf240e9,2020-11-25_11h40.27.651,lexical_decision_task_MP_exp2,2020.2.5,Win32,60,m,1,0.71858,,,,,,,,0.71858,1,,,,,,4,WORD,"ID",33,trench,TRENCH,m,,,,,,0.412037037,-0.037037037,0,0,0,,0,280,280,3,1
,,,,,,,,,,,,,,,,,,5dde843983e309dfeaf240e9,2020-11-25_11h40.27.651,lexical_decision_task_MP_exp2,2020.2.5,Win32,60,m,1,0.477,,,,,,,,0.477,1,,,,,,130,WORD,UN,33,quench,STUPID,m,,,,,,0.412037037,-0.037037037,0,0,0,,0,281,281,129,1
,,,,,,,,,,,,,,,,,,5dde843983e309dfeaf240e9,2020-11-25_11h40.27.651,lexical_decision_task_MP_exp2,2020.2.5,Win32,60,z,1,0.69203,,,,,,,,0.69203,1,,,,,,477,NW,UN,16,acrise,PHOTIE,z,,,,,,0.412037037,-0.037037037,0,0,0,,0,282,282,476,1
,,,,,,,,,,,,,,,,,,5dde843983e309dfeaf240e9,2020-11-25_11h40.27.651,lexical_decision_task_MP_exp2,2020.2.5,Win32,60,z,1,0.53695,,,,,,,,0.53695,1,,,,,,376,NW,UN,33,sliant,IGUARE,z,,,,,,0.412037037,-0.037037037,0,0,0,,0,283,283,375,1
,,,,,,,,,,,,,,,,,,5dde843983e309dfeaf240e9,2020-11-25_11h40.27.651,lexical_decision_task_MP_exp2,2020.2.5,Win32,60,z,1,0.655175,,,,,,,,0.655175,1,,,,,,311,NW,"ID",16,sproly,SPROLY,z,,,,,,0.412037037,-0.037037037,0,0,0,,0,284,284,310,1
,,,,,,,,,,,,,,,,,,5dde843983e309dfeaf240e9,2020-11-25_11h40.27.651,lexical_decision_task_MP_exp2,2020.2.5,Win32,60,z,1,0.86874,,,,,,,,0.86874,1,,,,,,416,NW,UN,33,earoud,PATHEL,z,,,,,,0.412037037,-0.037037037,0,0,0,,0,285,285,415,1
,,,,,,,,,,,,,,,,,,5dde843983e309dfeaf240e9,2020-11-25_11h40.27.651,lexical_decision_task_MP_exp2,2020.2.5,Win32,60,z,1,0.597955,,,,,,,,0.597955,1,,,,,,443,NW,UN,16,jaunce,DORSEX,z,,,,,,0.412037037,-0.037037037,0,0,0,,0,286,286,442,1
,,,,,,,,,,,,,,,,,,5dde843983e309dfeaf240e9,2020-11-25_11h40.27.651,lexical_decision_task_MP_exp2,2020.2.5,Win32,60,m,0,0.55952,,,,,,,,0.55952,0,,,,,,303,NW,"ID",16,fiream,FIREAM,z,,,,,,0.412037037,-0.037037037,0,0,0,,0,287,287,302,1
,,,,,,,,,,,,,,,,,,5dde843983e309dfeaf240e9,2020-11-25_11h40.27.651,lexical_decision_task_MP_exp2,2020.2.5,Win32,60,m,1,0.571635,,,,,,,,0.571635,1,,,,,,185,WORD,UN,16,portal,BOTHER,m,,,,,,0.412037037,-0.037037037,0,0,0,,0,288,288,184,1
,,,,,,,,,,,,,,,,,,5dde843983e309dfeaf240e9,2020-11-25_11h40.27.651,lexical_decision_task_MP_exp2,2020.2.5,Win32,60,z,1,0.7825,,,,,,,,0.7825,1,,,,,,412,NW,UN,33,equats,JILUER,z,,,,,,0.412037037,-0.037037037,0,0,0,,0,289,289,411,1
,,,,,,,,,,,,,,,,,,5dde843983e309dfeaf240e9,2020-11-25_11h40.27.651,lexical_decision_task_MP_exp2,2020.2.5,Win32,60,m,1,0.830185,,,,,,,,0.830185,1,,,,,,216,WORD,UN,16,liquor,BEHALF,m,,,,,,0.412037037,-0.037037037,0,0,0,,0,290,290,215,1
,,,,,,,,,,,,,,,,,,5dde843983e309dfeaf240e9,2020-11-25_11h40.27.651,lexical_decision_task_MP_exp2,2020.2.5,Win32,60,m,1,0.531945,,,,,,,,0.531945,1,,,,,,219,WORD,UN,16,voyage,BUCKET,m,,,,,,0.412037037,-0.037037037,0,0,0,,0,291,291,218,1
,,,,,,,,,,,,,,,,,,5dde843983e309dfeaf240e9,2020-11-25_11h40.27.651,lexical_decision_task_MP_exp2,2020.2.5,Win32,60,m,0,0.680345,,,,,,,,0.680345,0,,,,,,434,NW,UN,16,impurb,PITROM,z,,,,,,0.412037037,-0.037037037,0,0,0,,0,292,292,433,1
,,,,,,,,,,,,,,,,,,5dde843983e309dfeaf240e9,2020-11-25_11h40.27.651,lexical_decision_task_MP_exp2,2020.2.5,Win32,60,m,1,0.524905,,,,,,,,0.524905,1,,,,,,16,WORD,"ID",33,faucet,FAUCET,m,,,,,,0.412037037,-0.037037037,0,0,0,,0,293,293,15,1
,,,,,,,,,,,,,,,,,,5dde843983e309dfeaf240e9,2020-11-25_11h40.27.651,lexical_decision_task_MP_exp2,2020.2.5,Win32,60,m,1,0.53252,,,,,,,,0.53252,1,,,,,,24,WORD,"ID",33,praise,PRAISE,m,,,,,,0.412037037,-0.037037037,0,0,0,,0,294,294,23,1
,,,,,,,,,,,,,,,,,,5dde843983e309dfeaf240e9,2020-11-25_11h40.27.651,lexical_decision_task_MP_exp2,2020.2.5,Win32,60,m,1,0.66734,,,,,,,,0.66734,1,,,,,,207,WORD,UN,16,hockey,WREATH,m,,,,,,0.412037037,-0.037037037,0,0,0,,0,295,295,206,1
,,,,,,,,,,,,,,,,,,5dde843983e309dfeaf240e9,2020-11-25_11h40.27.651,lexical_decision_task_MP_exp2,2020.2.5,Win32,60,z,1,0.73738,,,,,,,,0.73738,1,,,,,,370,NW,UN,33,geiloy,SLEACT,z,,,,,,0.412037037,-0.037037037,0,0,0,,0,296,296,369,1
,,,,,,,,,,,,,,,,,,5dde843983e309dfeaf240e9,2020-11-25_11h40.27.651,lexical_decision_task_MP_exp2,2020.2.5,Win32,60,m,1,0.718325,,,,,,,,0.718325,1,,,,,,152,WORD,UN,33,behold,ROCKET,m,,,,,,0.412037037,-0.037037037,0,0,0,,0,297,297,151,1
,,,,,,,,,,,,,,,,,,5dde843983e309dfeaf240e9,2020-11-25_11h40.27.651,lexical_decision_task_MP_exp2,2020.2.5,Win32,60,z,1,0.84874,,,,,,,,0.84874,1,,,,,,474,NW,UN,16,gorbie,HABLIN,z,,,,,,0.412037037,-0.037037037,0,0,0,,0,298,298,473,1
,,,,,,,,,,,,,,,,,,5dde843983e309dfeaf240e9,2020-11-25_11h40.27.651,lexical_decision_task_MP_exp2,2020.2.5,Win32,60,m,1,0.73993,,,,,,,,0.73993,1,,,,,,113,WORD,"ID",16,chorus,CHORUS,m,,,,,,0.412037037,-0.037037037,0,0,0,,0,299,299,112,1
,,,,,,,,,,,,,,,,,,5dde843983e309dfeaf240e9,2020-11-25_11h40.27.651,lexical_decision_task_MP_exp2,2020.2.5,Win32,60,z,1,0.948745,,,,,,,,0.948745,1,,,,,,394,NW,UN,33,colury,SPAQUX,z,,,,,,0.412037037,-0.037037037,0,0,0,,0,300,300,393,1
,,,,,,,,,,,,,,,,,,5dde843983e309dfeaf240e9,2020-11-25_11h40.27.651,lexical_decision_task_MP_exp2,2020.2.5,Win32,60,m,0,0.544275,,,,,,,,0.544275,0,,,,,,378,NW,UN,33,auting,SHRILE,z,,,,,,0.412037037,-0.037037037,0,0,0,,0,301,301,377,1
,,,,,,,,,,,,,,,,,,5dde843983e309dfeaf240e9,2020-11-25_11h40.27.651,lexical_decision_task_MP_exp2,2020.2.5,Win32,60,m,0,0.799195,,,,,,,,0.799195,0,,,,,,435,NW,UN,16,frutan,IMPURB,z,,,,,,0.412037037,-0.037037037,0,0,0,,0,302,302,434,1
,,,,,,,,,,,,,,,,,,5dde843983e309dfeaf240e9,2020-11-25_11h40.27.651,lexical_decision_task_MP_exp2,2020.2.5,Win32,60,m,0,1.210455,,,,,,,,1.210455,0,,,,,,368,NW,UN,33,wronch,HORNAL,z,,,,,,0.412037037,-0.037037037,0,0,0,,0,303,303,367,1
,,,,,,,,,,,,,,,,,,5dde843983e309dfeaf240e9,2020-11-25_11h40.27.651,lexical_decision_task_MP_exp2,2020.2.5,Win32,60,z,1,0.89995,,,,,,,,0.89995,1,,,,,,270,NW,"ID",33,wrimsy,WRIMSY,z,,,,,,0.412037037,-0.037037037,0,0,0,,0,304,304,269,1
,,,,,,,,,,,,,,,,,,5dde843983e309dfeaf240e9,2020-11-25_11h40.27.651,lexical_decision_task_MP_exp2,2020.2.5,Win32,60,z,0,0.705415,,,,,,,,0.705415,0,,,,,,124,WORD,UN,33,nickel,BLOUSE,m,,,,,,0.412037037,-0.037037037,0,0,0,,0,305,305,123,1
,,,,,,,,,,,,,,,,,,5dde843983e309dfeaf240e9,2020-11-25_11h40.27.651,lexical_decision_task_MP_exp2,2020.2.5,Win32,60,m,1,0.496085,,,,,,,,0.496085,1,,,,,,204,WORD,UN,16,lounge,BURDEN,m,,,,,,0.412037037,-0.037037037,0,0,0,,0,306,306,203,1
,,,,,,,,,,,,,,,,,,5dde843983e309dfeaf240e9,2020-11-25_11h40.27.651,lexical_decision_task_MP_exp2,2020.2.5,Win32,60,z,1,0.716325,,,,,,,,0.716325,1,,,,,,259,NW,"ID",33,soudal,SOUDAL,z,,,,,,0.412037037,-0.037037037,0,0,0,,0,307,307,258,1
,,,,,,,,,,,,,,,,,,5dde843983e309dfeaf240e9,2020-11-25_11h40.27.651,lexical_decision_task_MP_exp2,2020.2.5,Win32,60,m,1,0.631725,,,,,,,,0.631725,1,,,,,,220,WORD,UN,16,mascot,VOYAGE,m,,,,,,0.412037037,-0.037037037,0,0,0,,0,308,308,219,1
,,,,,,,,,,,,,,,,,,5dde843983e309dfeaf240e9,2020-11-25_11h40.27.651,lexical_decision_task_MP_exp2,2020.2.5,Win32,60,z,1,0.64868,,,,,,,,0.64868,1,,,,,,421,NW,UN,16,alcoud,KNISMA,z,,,,,,0.412037037,-0.037037037,0,0,0,,0,309,309,420,1
,,,,,,,,,,,,,,,,,,5dde843983e309dfeaf240e9,2020-11-25_11h40.27.651,lexical_decision_task_MP_exp2,2020.2.5,Win32,60,m,1,0.800565,,,,,,,,0.800565,1,,,,,,108,WORD,"ID",16,reckon,RECKON,m,,,,,,0.412037037,-0.037037037,0,0,0,,0,310,310,107,1
,,,,,,,,,,,,,,,,,,5dde843983e309dfeaf240e9,2020-11-25_11h40.27.651,lexical_decision_task_MP_exp2,2020.2.5,Win32,60,z,1,0.5706,,,,,,,,0.5706,1,,,,,,287,NW,"ID",33,nymbel,NYMBEL,z,,,,,,0.412037037,-0.037037037,0,0,0,,0,311,311,286,1
,,,,,,,,,,,,,,,,,,5dde843983e309dfeaf240e9,2020-11-25_11h40.27.651,lexical_decision_task_MP_exp2,2020.2.5,Win32,60,z,1,0.814385,,,,,,,,0.814385,1,,,,,,430,NW,UN,16,funtle,CAROEY,z,,,,,,0.412037037,-0.037037037,0,0,0,,0,312,312,429,1
,,,,,,,,,,,,,,,,,,5dde843983e309dfeaf240e9,2020-11-25_11h40.27.651,lexical_decision_task_MP_exp2,2020.2.5,Win32,60,z,1,0.81571,,,,,,,,0.81571,1,,,,,,314,NW,"ID",16,sprine,SPRINE,z,,,,,,0.412037037,-0.037037037,0,0,0,,0,313,313,313,1
,,,,,,,,,,,,,,,,,,5dde843983e309dfeaf240e9,2020-11-25_11h40.27.651,lexical_decision_task_MP_exp2,2020.2.5,Win32,60,z,1,0.66545,,,,,,,,0.66545,1,,,,,,429,NW,UN,16,caroey,FUNTLE,z,,,,,,0.412037037,-0.037037037,0,0,0,,0,314,314,428,1
,,,,,,,,,,,,,,,,,,5dde843983e309dfeaf240e9,2020-11-25_11h40.27.651,lexical_decision_task_MP_exp2,2020.2.5,Win32,60,z,0,0.69787,,,,,,,,0.69787,0,,,,,,156,WORD,UN,33,pastor,CRADLE,m,,,,,,0.412037037,-0.037037037,0,0,0,,0,315,315,155,1
,,,,,,,,,,,,,,,,,,5dde843983e309dfeaf240e9,2020-11-25_11h40.27.651,lexical_decision_task_MP_exp2,2020.2.5,Win32,60,m,1,0.564945,,,,,,,,0.564945,1,,,,,,8,WORD,"ID",33,abrupt,ABRUPT,m,,,,,,0.412037037,-0.037037037,0,0,0,,0,316,316,7,1
,,,,,,,,,,,,,,,,,,5dde843983e309dfeaf240e9,2020-11-25_11h40.27.651,lexical_decision_task_MP_exp2,2020.2.5,Win32,60,z,1,0.666225,,,,,,,,0.666225,1,,,,,,340,NW,"ID",16,fiatch,FIATCH,z,,,,,,0.412037037,-0.037037037,0,0,0,,0,317,317,339,1
,,,,,,,,,,,,,,,,,,5dde843983e309dfeaf240e9,2020-11-25_11h40.27.651,lexical_decision_task_MP_exp2,2020.2.5,Win32,60,m,1,0.53224,,,,,,,,0.53224,1,,,,,,12,WORD,"ID",33,orange,ORANGE,m,,,,,,0.412037037,-0.037037037,0,0,0,,0,318,318,11,1
,,,,,,,,,,,,,,,,,,5dde843983e309dfeaf240e9,2020-11-25_11h40.27.651,lexical_decision_task_MP_exp2,2020.2.5,Win32,60,m,1,0.83476,,,,,,,,0.83476,1,,,,,,133,WORD,UN,33,debris,CHROME,m,,,,,,0.412037037,-0.037037037,0,0,0,,0,319,319,132,1
,,,,,,,,,,,,,,,,,,5dde843983e309dfeaf240e9,2020-11-25_11h40.27.651,lexical_decision_task_MP_exp2,2020.2.5,Win32,60,m,1,0.4904,,,,,,,,0.4904,1,,,,,,175,WORD,UN,33,strife,FABRIC,m,,,,,,0.412037037,-0.037037037,0,0,0,,0,320,320,174,1
,,,,,,,,,,,,,,,,,,5dde843983e309dfeaf240e9,2020-11-25_11h40.27.651,lexical_decision_task_MP_exp2,2020.2.5,Win32,60,m,0,0.564775,,,,,,,,0.564775,0,,,,,,342,NW,"ID",16,randow,RANDOW,z,,,,,,0.412037037,-0.037037037,0,0,0,,0,321,321,341,1
,,,,,,,,,,,,,,,,,,5dde843983e309dfeaf240e9,2020-11-25_11h40.27.651,lexical_decision_task_MP_exp2,2020.2.5,Win32,60,z,1,1.076175,,,,,,,,1.076175,1,,,,,,250,NW,"ID",33,milted,MILTED,z,,,,,,0.412037037,-0.037037037,0,0,0,,0,322,322,249,1
,,,,,,,,,,,,,,,,,,5dde843983e309dfeaf240e9,2020-11-25_11h40.27.651,lexical_decision_task_MP_exp2,2020.2.5,Win32,60,z,1,0.88348,,,,,,,,0.88348,1,,,,,,291,NW,"ID",33,pretch,PRETCH,z,,,,,,0.412037037,-0.037037037,0,0,0,,0,323,323,290,1
,,,,,,,,,,,,,,,,,,5dde843983e309dfeaf240e9,2020-11-25_11h40.27.651,lexical_decision_task_MP_exp2,2020.2.5,Win32,60,m,1,0.765245,,,,,,,,0.765245,1,,,,,,198,WORD,UN,16,invoke,WICKED,m,,,,,,0.412037037,-0.037037037,0,0,0,,0,324,324,197,1
,,,,,,,,,,,,,,,,,,5dde843983e309dfeaf240e9,2020-11-25_11h40.27.651,lexical_decision_task_MP_exp2,2020.2.5,Win32,60,z,1,0.61919,,,,,,,,0.61919,1,,,,,,292,NW,"ID",33,ablint,ABLINT,z,,,,,,0.412037037,-0.037037037,0,0,0,,0,325,325,291,1
,,,,,,,,,,,,,,,,,,5dde843983e309dfeaf240e9,2020-11-25_11h40.27.651,lexical_decision_task_MP_exp2,2020.2.5,Win32,60,m,1,0.60481,,,,,,,,0.60481,1,,,,,,61,WORD,"ID",16,ponder,PONDER,m,,,,,,0.412037037,-0.037037037,0,0,0,,0,326,326,60,1
,,,,,,,,,,,,,,,,,,5dde843983e309dfeaf240e9,2020-11-25_11h40.27.651,lexical_decision_task_MP_exp2,2020.2.5,Win32,60,m,1,0.71849,,,,,,,,0.71849,1,,,,,,214,WORD,UN,16,phobia,INTAKE,m,,,,,,0.412037037,-0.037037037,0,0,0,,0,327,327,213,1
,,,,,,,,,,,,,,,,,,5dde843983e309dfeaf240e9,2020-11-25_11h40.27.651,lexical_decision_task_MP_exp2,2020.2.5,Win32,60,z,1,0.65237,,,,,,,,0.65237,1,,,,,,276,NW,"ID",33,yarmon,YARMON,z,,,,,,0.412037037,-0.037037037,0,0,0,,0,328,328,275,1
,,,,,,,,,,,,,,,,,,5dde843983e309dfeaf240e9,2020-11-25_11h40.27.651,lexical_decision_task_MP_exp2,2020.2.5,Win32,60,m,0,1.33933,,,,,,,,1.33933,0,,,,,,398,NW,UN,33,fouret,BLUNDE,z,,,,,,0.412037037,-0.037037037,0,0,0,,0,329,329,397,1
,,,,,,,,,,,,,,,,,,5dde843983e309dfeaf240e9,2020-11-25_11h40.27.651,lexical_decision_task_MP_exp2,2020.2.5,Win32,60,z,1,0.810515,,,,,,,,0.810515,1,,,,,,446,NW,UN,16,gircue,RUNAMO,z,,,,,,0.412037037,-0.037037037,0,0,0,,0,330,330,445,1
,,,,,,,,,,,,,,,,,,5dde843983e309dfeaf240e9,2020-11-25_11h40.27.651,lexical_decision_task_MP_exp2,2020.2.5,Win32,60,z,1,0.55358,,,,,,,,0.55358,1,,,,,,321,NW,"ID",16,miator,MIATOR,z,,,,,,0.412037037,-0.037037037,0,0,0,,0,331,331,320,1
,,,,,,,,,,,,,,,,,,5dde843983e309dfeaf240e9,2020-11-25_11h40.27.651,lexical_decision_task_MP_exp2,2020.2.5,Win32,60,z,1,0.62123,,,,,,,,0.62123,1,,,,,,283,NW,"ID",33,veralf,VERALF,z,,,,,,0.412037037,-0.037037037,0,0,0,,0,332,332,282,1
,,,,,,,,,,,,,,,,,,5dde843983e309dfeaf240e9,2020-11-25_11h40.27.651,lexical_decision_task_MP_exp2,2020.2.5,Win32,60,z,1,0.60027,,,,,,,,0.60027,1,,,,,,256,NW,"ID",33,inlors,INLORS,z,,,,,,0.412037037,-0.037037037,0,0,0,,0,333,333,255,1
,,,,,,,,,,,,,,,,,,5dde843983e309dfeaf240e9,2020-11-25_11h40.27.651,lexical_decision_task_MP_exp2,2020.2.5,Win32,60,z,0,0.4706,,,,,,,,0.4706,0,,,,,,102,WORD,"ID",16,direct,DIRECT,m,,,,,,0.412037037,-0.037037037,0,0,0,,0,334,334,101,1
,,,,,,,,,,,,,,,,,,5dde843983e309dfeaf240e9,2020-11-25_11h40.27.651,lexical_decision_task_MP_exp2,2020.2.5,Win32,60,m,1,0.57455,,,,,,,,0.57455,1,,,,,,159,WORD,UN,33,violet,DETAIL,m,,,,,,0.412037037,-0.037037037,0,0,0,,0,335,335,158,1
,,,,,,,,,,,,,,,,,,5dde843983e309dfeaf240e9,2020-11-25_11h40.27.651,lexical_decision_task_MP_exp2,2020.2.5,Win32,60,m,0,1.19781,,,,,,,,1.19781,0,,,,,,296,NW,"ID",33,beinch,BEINCH,z,,,,,,0.412037037,-0.037037037,0,0,0,,0,336,336,295,1
,,,,,,,,,,,,,,,,,,5dde843983e309dfeaf240e9,2020-11-25_11h40.27.651,lexical_decision_task_MP_exp2,2020.2.5,Win32,60,m,1,0.65027,,,,,,,,0.65027,1,,,,,,123,WORD,UN,33,enough,STRIKE,m,,,,,,0.412037037,-0.037037037,0,0,0,,0,337,337,122,1
,,,,,,,,,,,,,,,,,,5dde843983e309dfeaf240e9,2020-11-25_11h40.27.651,lexical_decision_task_MP_exp2,2020.2.5,Win32,60,m,1,0.633055,,,,,,,,0.633055,1,,,,,,107,WORD,"ID",16,slogan,SLOGAN,m,,,,,,0.412037037,-0.037037037,0,0,0,,0,338,338,106,1
,,,,,,,,,,,,,,,,,,5dde843983e309dfeaf240e9,2020-11-25_11h40.27.651,lexical_decision_task_MP_exp2,2020.2.5,Win32,60,m,1,0.68932,,,,,,,,0.68932,1,,,,,,155,WORD,UN,33,cradle,LIZARD,m,,,,,,0.412037037,-0.037037037,0,0,0,,0,339,339,154,1
,,,,,,,,,,,,,,,,,,5dde843983e309dfeaf240e9,2020-11-25_11h40.27.651,lexical_decision_task_MP_exp2,2020.2.5,Win32,60,m,1,0.48865,,,,,,,,0.48865,1,,,,,,182,WORD,UN,16,basket,WINTER,m,,,,,,0.412037037,-0.037037037,0,0,0,,0,340,340,181,1
,,,,,,,,,,,,,,,,,,5dde843983e309dfeaf240e9,2020-11-25_11h40.27.651,lexical_decision_task_MP_exp2,2020.2.5,Win32,60,z,1,0.76651,,,,,,,,0.76651,1,,,,,,467,NW,UN,16,wictor,GORBIE,z,,,,,,0.412037037,-0.037037037,0,0,0,,0,341,341,466,1
,,,,,,,,,,,,,,,,,,5dde843983e309dfeaf240e9,2020-11-25_11h40.27.651,lexical_decision_task_MP_exp2,2020.2.5,Win32,60,z,1,0.636645,,,,,,,,0.636645,1,,,,,,441,NW,UN,16,aboune,RASTOE,z,,,,,,0.412037037,-0.037037037,0,0,0,,0,342,342,440,1
,,,,,,,,,,,,,,,,,,5dde843983e309dfeaf240e9,2020-11-25_11h40.27.651,lexical_decision_task_MP_exp2,2020.2.5,Win32,60,z,0,0.53912,,,,,,,,0.53912,0,,,,,,213,WORD,UN,16,intake,SQUEAL,m,,,,,,0.412037037,-0.037037037,0,0,0,,0,343,343,212,1
,,,,,,,,,,,,,,,,,,5dde843983e309dfeaf240e9,2020-11-25_11h40.27.651,lexical_decision_task_MP_exp2,2020.2.5,Win32,60,z,1,0.752845,,,,,,,,0.752845,1,,,,,,286,NW,"ID",33,reldon,RELDON,z,,,,,,0.412037037,-0.037037037,0,0,0,,0,344,344,285,1
,,,,,,,,,,,,,,,,,,5dde843983e309dfeaf240e9,2020-11-25_11h40.27.651,lexical_decision_task_MP_exp2,2020.2.5,Win32,60,z,1,0.51398,,,,,,,,0.51398,1,,,,,,393,NW,UN,33,spaqux,GANOUS,z,,,,,,0.412037037,-0.037037037,0,0,0,,0,345,345,392,1
,,,,,,,,,,,,,,,,,,5dde843983e309dfeaf240e9,2020-11-25_11h40.27.651,lexical_decision_task_MP_exp2,2020.2.5,Win32,60,z,1,0.615505,,,,,,,,0.615505,1,,,,,,395,NW,UN,33,flengy,COLURY,z,,,,,,0.412037037,-0.037037037,0,0,0,,0,346,346,394,1
,,,,,,,,,,,,,,,,,,5dde843983e309dfeaf240e9,2020-11-25_11h40.27.651,lexical_decision_task_MP_exp2,2020.2.5,Win32,60,z,1,0.74762,,,,,,,,0.74762,1,,,,,,437,NW,UN,16,baitch,SNAPEL,z,,,,,,0.412037037,-0.037037037,0,0,0,,0,347,347,436,1
,,,,,,,,,,,,,,,,,,5dde843983e309dfeaf240e9,2020-11-25_11h40.27.651,lexical_decision_task_MP_exp2,2020.2.5,Win32,60,z,1,0.58029,,,,,,,,0.58029,1,,,,,,318,NW,"ID",16,reagly,REAGLY,z,,,,,,0.412037037,-0.037037037,0,0,0,,0,348,348,317,1
,,,,,,,,,,,,,,,,,,5dde843983e309dfeaf240e9,2020-11-25_11h40.27.651,lexical_decision_task_MP_exp2,2020.2.5,Win32,60,m,1,0.78487,,,,,,,,0.78487,1,,,,,,194,WORD,UN,16,resign,ABSENT,m,,,,,,0.412037037,-0.037037037,0,0,0,,0,349,349,193,1
,,,,,,,,,,,,,,,,,,5dde843983e309dfeaf240e9,2020-11-25_11h40.27.651,lexical_decision_task_MP_exp2,2020.2.5,Win32,60,m,0,0.72229,,,,,,,,0.72229,0,,,,,,331,NW,"ID",16,gilfew,GILFEW,z,,,,,,0.412037037,-0.037037037,0,0,0,,0,350,350,330,1
,,,,,,,,,,,,,,,,,,5dde843983e309dfeaf240e9,2020-11-25_11h40.27.651,lexical_decision_task_MP_exp2,2020.2.5,Win32,60,m,1,0.98461,,,,,,,,0.98461,1,,,,,,233,WORD,UN,16,clumsy,NATURE,m,,,,,,0.412037037,-0.037037037,0,0,0,,0,351,351,232,1
,,,,,,,,,,,,,,,,,,5dde843983e309dfeaf240e9,2020-11-25_11h40.27.651,lexical_decision_task_MP_exp2,2020.2.5,Win32,60,z,1,0.87368,,,,,,,,0.87368,1,,,,,,351,NW,"ID",16,tiesch,TIESCH,z,,,,,,0.412037037,-0.037037037,0,0,0,,0,352,352,350,1
,,,,,,,,,,,,,,,,,,5dde843983e309dfeaf240e9,2020-11-25_11h40.27.651,lexical_decision_task_MP_exp2,2020.2.5,Win32,60,m,1,0.6993,,,,,,,,0.6993,1,,,,,,142,WORD,UN,33,orphan,SPRUCE,m,,,,,,0.412037037,-0.037037037,0,0,0,,0,353,353,141,1
,,,,,,,,,,,,,,,,,,5dde843983e309dfeaf240e9,2020-11-25_11h40.27.651,lexical_decision_task_MP_exp2,2020.2.5,Win32,60,m,1,1.701185,,,,,,,,1.701185,1,,,,,,132,WORD,UN,33,bleach,STRONG,m,,,,,,0.412037037,-0.037037037,0,0,0,,0,354,354,131,1
,,,,,,,,,,,,,,,,,,5dde843983e309dfeaf240e9,2020-11-25_11h40.27.651,lexical_decision_task_MP_exp2,2020.2.5,Win32,60,m,1,0.71794,,,,,,,,0.71794,1,,,,,,65,WORD,"ID",16,symbol,SYMBOL,m,,,,,,0.412037037,-0.037037037,0,0,0,,0,355,355,64,1
,,,,,,,,,,,,,,,,,,5dde843983e309dfeaf240e9,2020-11-25_11h40.27.651,lexical_decision_task_MP_exp2,2020.2.5,Win32,60,m,1,0.77038,,,,,,,,0.77038,1,,,,,,77,WORD,"ID",16,racket,RACKET,m,,,,,,0.412037037,-0.037037037,0,0,0,,0,356,356,76,1
,,,,,,,,,,,,,,,,,,5dde843983e309dfeaf240e9,2020-11-25_11h40.27.651,lexical_decision_task_MP_exp2,2020.2.5,Win32,60,z,1,0.666095,,,,,,,,0.666095,1,,,,,,326,NW,"ID",16,iguade,IGUADE,z,,,,,,0.412037037,-0.037037037,0,0,0,,0,357,357,325,1
,,,,,,,,,,,,,,,,,,5dde843983e309dfeaf240e9,2020-11-25_11h40.27.651,lexical_decision_task_MP_exp2,2020.2.5,Win32,60,m,1,0.734135,,,,,,,,0.734135,1,,,,,,46,WORD,"ID",33,single,SINGLE,m,,,,,,0.412037037,-0.037037037,0,0,0,,0,358,358,45,1
,,,,,,,,,,,,,,,,,,5dde843983e309dfeaf240e9,2020-11-25_11h40.27.651,lexical_decision_task_MP_exp2,2020.2.5,Win32,60,m,1,0.56209,,,,,,,,0.56209,1,,,,,,37,WORD,"ID",33,insult,INSULT,m,,,,,,0.412037037,-0.037037037,0,0,0,,0,359,359,36,1
,,,,,,,,,,,,,,,,,,5dde843983e309dfeaf240e9,2020-11-25_11h40.27.651,lexical_decision_task_MP_exp2,2020.2.5,Win32,60,z,1,0.668195,,,,,,,,0.668195,1,,,,,,290,NW,"ID",33,splino,SPLINO,z,,,,,,0.412037037,-0.037037037,0,0,0,,0,360,360,289,1
,,,,,,,,,,,,,,,,,,5dde843983e309dfeaf240e9,2020-11-25_11h40.27.651,lexical_decision_task_MP_exp2,2020.2.5,Win32,60,m,0,0.755695,,,,,,,,0.755695,0,,,,,,341,NW,"ID",16,myrtie,MYRTIE,z,,,,,,0.412037037,-0.037037037,0,0,0,,0,361,361,340,1
,,,,,,,,,,,,,,,,,,5dde843983e309dfeaf240e9,2020-11-25_11h40.27.651,lexical_decision_task_MP_exp2,2020.2.5,Win32,60,z,1,0.78254,,,,,,,,0.78254,1,,,,,,245,NW,"ID",33,anougs,ANOUGS,z,,,,,,0.412037037,-0.037037037,0,0,0,,0,362,362,244,1
,,,,,,,,,,,,,,,,,,5dde843983e309dfeaf240e9,2020-11-25_11h40.27.651,lexical_decision_task_MP_exp2,2020.2.5,Win32,60,z,1,0.58384,,,,,,,,0.58384,1,,,,,,242,NW,"ID",33,unwert,UNWERT,z,,,,,,0.412037037,-0.037037037,0,0,0,,0,363,363,241,1
,,,,,,,,,,,,,,,,,,5dde843983e309dfeaf240e9,2020-11-25_11h40.27.651,lexical_decision_task_MP_exp2,2020.2.5,Win32,60,m,1,0.781,,,,,,,,0.781,1,,,,,,97,WORD,"ID",16,client,CLIENT,m,,,,,,0.412037037,-0.037037037,0,0,0,,0,364,364,96,1
,,,,,,,,,,,,,,,,,,5dde843983e309dfeaf240e9,2020-11-25_11h40.27.651,lexical_decision_task_MP_exp2,2020.2.5,Win32,60,m,1,0.697415,,,,,,,,0.697415,1,,,,,,209,WORD,UN,16,monkey,SEARCH,m,,,,,,0.412037037,-0.037037037,0,0,0,,0,365,365,208,1
,,,,,,,,,,,,,,,,,,5dde843983e309dfeaf240e9,2020-11-25_11h40.27.651,lexical_decision_task_MP_exp2,2020.2.5,Win32,60,m,1,0.47467,,,,,,,,0.47467,1,,,,,,84,WORD,"ID",16,mortal,MORTAL,m,,,,,,0.412037037,-0.037037037,0,0,0,,0,366,366,83,1
,,,,,,,,,,,,,,,,,,5dde843983e309dfeaf240e9,2020-11-25_11h40.27.651,lexical_decision_task_MP_exp2,2020.2.5,Win32,60,m,1,0.4648,,,,,,,,0.4648,1,,,,,,36,WORD,"ID",33,vanish,VANISH,m,,,,,,0.412037037,-0.037037037,0,0,0,,0,367,367,35,1
,,,,,,,,,,,,,,,,,,5dde843983e309dfeaf240e9,2020-11-25_11h40.27.651,lexical_decision_task_MP_exp2,2020.2.5,Win32,60,z,1,0.672245,,,,,,,,0.672245,1,,,,,,353,NW,"ID",16,clurey,CLUREY,z,,,,,,0.412037037,-0.037037037,0,0,0,,0,368,368,352,1
,,,,,,,,,,,,,,,,,,5dde843983e309dfeaf240e9,2020-11-25_11h40.27.651,lexical_decision_task_MP_exp2,2020.2.5,Win32,60,m,1,0.807895,,,,,,,,0.807895,1,,,,,,82,WORD,"ID",16,stigma,STIGMA,m,,,,,,0.412037037,-0.037037037,0,0,0,,0,369,369,81,1
,,,,,,,,,,,,,,,,,,5dde843983e309dfeaf240e9,2020-11-25_11h40.27.651,lexical_decision_task_MP_exp2,2020.2.5,Win32,60,m,1,0.7456,,,,,,,,0.7456,1,,,,,,205,WORD,UN,16,tailor,LOUNGE,m,,,,,,0.412037037,-0.037037037,0,0,0,,0,370,370,204,1
,,,,,,,,,,,,,,,,,,5dde843983e309dfeaf240e9,2020-11-25_11h40.27.651,lexical_decision_task_MP_exp2,2020.2.5,Win32,60,m,1,0.73557,,,,,,,,0.73557,1,,,,,,94,WORD,"ID",16,travel,TRAVEL,m,,,,,,0.412037037,-0.037037037,0,0,0,,0,371,371,93,1
,,,,,,,,,,,,,,,,,,5dde843983e309dfeaf240e9,2020-11-25_11h40.27.651,lexical_decision_task_MP_exp2,2020.2.5,Win32,60,z,1,0.6761,,,,,,,,0.6761,1,,,,,,371,NW,UN,33,ramily,GEILOY,z,,,,,,0.412037037,-0.037037037,0,0,0,,0,372,372,370,1
,,,,,,,,,,,,,,,,,,5dde843983e309dfeaf240e9,2020-11-25_11h40.27.651,lexical_decision_task_MP_exp2,2020.2.5,Win32,60,m,1,0.483995,,,,,,,,0.483995,1,,,,,,232,WORD,UN,16,nature,INJECT,m,,,,,,0.412037037,-0.037037037,0,0,0,,0,373,373,231,1
,,,,,,,,,,,,,,,,,,5dde843983e309dfeaf240e9,2020-11-25_11h40.27.651,lexical_decision_task_MP_exp2,2020.2.5,Win32,60,z,1,0.624965,,,,,,,,0.624965,1,,,,,,241,NW,"ID",33,smenco,SMENCO,z,,,,,,0.412037037,-0.037037037,0,0,0,,0,374,374,240,1
,,,,,,,,,,,,,,,,,,5dde843983e309dfeaf240e9,2020-11-25_11h40.27.651,lexical_decision_task_MP_exp2,2020.2.5,Win32,60,z,1,0.634475,,,,,,,,0.634475,1,,,,,,357,NW,"ID",16,derain,DERAIN,z,,,,,,0.412037037,-0.037037037,0,0,0,,0,375,375,356,1
,,,,,,,,,,,,,,,,,,5dde843983e309dfeaf240e9,2020-11-25_11h40.27.651,lexical_decision_task_MP_exp2,2020.2.5,Win32,60,m,1,0.93969,,,,,,,,0.93969,1,,,,,,150,WORD,UN,33,mystic,RANDOM,m,,,,,,0.412037037,-0.037037037,0,0,0,,0,376,376,149,1
,,,,,,,,,,,,,,,,,,5dde843983e309dfeaf240e9,2020-11-25_11h40.27.651,lexical_decision_task_MP_exp2,2020.2.5,Win32,60,m,1,0.80428,,,,,,,,0.80428,1,,,,,,45,WORD,"ID",33,clergy,CLERGY,m,,,,,,0.412037037,-0.037037037,0,0,0,,0,377,377,44,1
,,,,,,,,,,,,,,,,,,5dde843983e309dfeaf240e9,2020-11-25_11h40.27.651,lexical_decision_task_MP_exp2,2020.2.5,Win32,60,z,0,0.64807,,,,,,,,0.64807,0,,,,,,116,WORD,"ID",16,tumble,TUMBLE,m,,,,,,0.412037037,-0.037037037,0,0,0,,0,378,378,115,1
,,,,,,,,,,,,,,,,,,5dde843983e309dfeaf240e9,2020-11-25_11h40.27.651,lexical_decision_task_MP_exp2,2020.2.5,Win32,60,z,1,0.704135,,,,,,,,0.704135,1,,,,,,459,NW,UN,16,mingar,BAFENT,z,,,,,,0.412037037,-0.037037037,0,0,0,,0,379,379,458,1
,,,,,,,,,,,,,,,,,,5dde843983e309dfeaf240e9,2020-11-25_11h40.27.651,lexical_decision_task_MP_exp2,2020.2.5,Win32,60,z,0,0.581095,,,,,,,,0.581095,0,,,,,,200,WORD,UN,16,admire,BEACON,m,,,,,,0.412037037,-0.037037037,0,0,0,,0,380,380,199,1
,,,,,,,,,,,,,,,,,,5dde843983e309dfeaf240e9,2020-11-25_11h40.27.651,lexical_decision_task_MP_exp2,2020.2.5,Win32,60,z,1,0.730935,,,,,,,,0.730935,1,,,,,,422,NW,UN,16,streld,ALCOUD,z,,,,,,0.412037037,-0.037037037,0,0,0,,0,381,381,421,1
,,,,,,,,,,,,,,,,,,5dde843983e309dfeaf240e9,2020-11-25_11h40.27.651,lexical_decision_task_MP_exp2,2020.2.5,Win32,60,m,1,0.676925,,,,,,,,0.676925,1,,,,,,137,WORD,UN,33,melody,FINGER,m,,,,,,0.412037037,-0.037037037,0,0,0,,0,382,382,136,1
,,,,,,,,,,,,,,,,,,5dde843983e309dfeaf240e9,2020-11-25_11h40.27.651,lexical_decision_task_MP_exp2,2020.2.5,Win32,60,z,1,1.48169,,,,,,,,1.48169,1,,,,,,300,NW,"ID",33,yarion,YARION,z,,,,,,0.412037037,-0.037037037,0,0,0,,0,383,383,299,1
,,,,,,,,,,,,,,,,,,5dde843983e309dfeaf240e9,2020-11-25_11h40.27.651,lexical_decision_task_MP_exp2,2020.2.5,Win32,60,m,0,0.905925,,,,,,,,0.905925,0,,,,,,464,NW,UN,16,whivex,CHAITE,z,,,,,,0.412037037,-0.037037037,0,0,0,,0,384,384,463,1
,,,,,,,,,,,,,,,,,,5dde843983e309dfeaf240e9,2020-11-25_11h40.27.651,lexical_decision_task_MP_exp2,2020.2.5,Win32,60,m,1,0.759435,,,,,,,,0.759435,1,,,,,,87,WORD,"ID",16,filter,FILTER,m,,,,,,0.412037037,-0.037037037,0,0,0,,0,385,385,86,1
,,,,,,,,,,,,,,,,,,5dde843983e309dfeaf240e9,2020-11-25_11h40.27.651,lexical_decision_task_MP_exp2,2020.2.5,Win32,60,m,1,0.53806,,,,,,,,0.53806,1,,,,,,68,WORD,"ID",16,fumble,FUMBLE,m,,,,,,0.412037037,-0.037037037,0,0,0,,0,386,386,67,1
,,,,,,,,,,,,,,,,,,5dde843983e309dfeaf240e9,2020-11-25_11h40.27.651,lexical_decision_task_MP_exp2,2020.2.5,Win32,60,z,1,0.88134,,,,,,,,0.88134,1,,,,,,389,NW,UN,33,hatrus,WITMER,z,,,,,,0.412037037,-0.037037037,0,0,0,,0,387,387,388,1
,,,,,,,,,,,,,,,,,,5dde843983e309dfeaf240e9,2020-11-25_11h40.27.651,lexical_decision_task_MP_exp2,2020.2.5,Win32,60,m,1,0.57292,,,,,,,,0.57292,1,,,,,,157,WORD,UN,33,island,DRAGON,m,,,,,,0.412037037,-0.037037037,0,0,0,,0,388,388,156,1
,,,,,,,,,,,,,,,,,,5dde843983e309dfeaf240e9,2020-11-25_11h40.27.651,lexical_decision_task_MP_exp2,2020.2.5,Win32,60,m,0,0.791775,,,,,,,,0.791775,0,,,,,,281,NW,"ID",33,melaty,MELATY,z,,,,,,0.412037037,-0.037037037,0,0,0,,0,389,389,280,1
,,,,,,,,,,,,,,,,,,5dde843983e309dfeaf240e9,2020-11-25_11h40.27.651,lexical_decision_task_MP_exp2,2020.2.5,Win32,60,m,0,0.41465,,,,,,,,0.41465,0,,,,,,264,NW,"ID",33,vackel,VACKEL,z,,,,,,0.412037037,-0.037037037,0,0,0,,0,390,390,263,1
,,,,,,,,,,,,,,,,,,5dde843983e309dfeaf240e9,2020-11-25_11h40.27.651,lexical_decision_task_MP_exp2,2020.2.5,Win32,60,z,1,0.660805,,,,,,,,0.660805,1,,,,,,328,NW,"ID",16,broake,BROAKE,z,,,,,,0.412037037,-0.037037037,0,0,0,,0,391,391,327,1
,,,,,,,,,,,,,,,,,,5dde843983e309dfeaf240e9,2020-11-25_11h40.27.651,lexical_decision_task_MP_exp2,2020.2.5,Win32,60,z,1,0.80085,,,,,,,,0.80085,1,,,,,,272,NW,"ID",33,damilt,DAMILT,z,,,,,,0.412037037,-0.037037037,0,0,0,,0,392,392,271,1
,,,,,,,,,,,,,,,,,,5dde843983e309dfeaf240e9,2020-11-25_11h40.27.651,lexical_decision_task_MP_exp2,2020.2.5,Win32,60,z,1,1.110725,,,,,,,,1.110725,1,,,,,,285,NW,"ID",33,prudge,PRUDGE,z,,,,,,0.412037037,-0.037037037,0,0,0,,0,393,393,284,1
,,,,,,,,,,,,,,,,,,5dde843983e309dfeaf240e9,2020-11-25_11h40.27.651,lexical_decision_task_MP_exp2,2020.2.5,Win32,60,z,1,0.94763,,,,,,,,0.94763,1,,,,,,388,NW,UN,33,witmer,CRAGIN,z,,,,,,0.412037037,-0.037037037,0,0,0,,0,394,394,387,1
,,,,,,,,,,,,,,,,,,5dde843983e309dfeaf240e9,2020-11-25_11h40.27.651,lexical_decision_task_MP_exp2,2020.2.5,Win32,60,m,1,0.6162,,,,,,,,0.6162,1,,,,,,158,WORD,UN,33,detail,ISLAND,m,,,,,,0.412037037,-0.037037037,0,0,0,,0,395,395,157,1
,,,,,,,,,,,,,,,,,,5dde843983e309dfeaf240e9,2020-11-25_11h40.27.651,lexical_decision_task_MP_exp2,2020.2.5,Win32,60,m,1,0.57579,,,,,,,,0.57579,1,,,,,,26,WORD,"ID",33,sprint,SPRINT,m,,,,,,0.412037037,-0.037037037,0,0,0,,0,396,396,25,1
,,,,,,,,,,,,,,,,,,5dde843983e309dfeaf240e9,2020-11-25_11h40.27.651,lexical_decision_task_MP_exp2,2020.2.5,Win32,60,z,1,0.564815,,,,,,,,0.564815,1,,,,,,254,NW,"ID",33,varosh,VAROSH,z,,,,,,0.412037037,-0.037037037,0,0,0,,0,397,397,253,1
