counterbalancing_condition,instr_done_keyboard.keys,instr_done_keyboard.rt,instr_done_touch.x,instr_done_touch.y,instr_done_touch.leftButton,instr_done_touch.midButton,instr_done_touch.rightButton,instruction_pages.thisRepN,instruction_pages.thisTrialN,instruction_pages.thisN,instruction_pages.thisIndex,instruction_pages.ran,pageN,phase,instruct_text,has_image,instruct_image,participant,date,expName,psychopyVersion,OS,frameRate,response.keys,response.corr,response.rt,touch_resp.x,touch_resp.y,touch_resp.leftButton,touch_resp.midButton,touch_resp.rightButton,touch_resp.time,touch_resp.clicked_name,rt,corr,practice_trials.thisRepN,practice_trials.thisTrialN,practice_trials.thisN,practice_trials.thisIndex,practice_trials.ran,TrialID,StimulusType,Condition,PrimeDuration,Prime,Target,corrAns,end_of_practice_trials_pages.thisRepN,end_of_practice_trials_pages.thisTrialN,end_of_practice_trials_pages.thisN,end_of_practice_trials_pages.thisIndex,end_of_practice_trials_pages.ran,break_done_touch.x,break_done_touch.y,break_done_touch.leftButton,break_done_touch.midButton,break_done_touch.rightButton,break_done_keyboard.keys,experiment_trials.thisRepN,experiment_trials.thisTrialN,experiment_trials.thisN,experiment_trials.thisIndex,experiment_trials.ran,break_done_keyboard.rt
3,space,15.391935,0.052083333,-0.2265625,0,0,0,0,0,0,0,1,1,instructions,"INSTRUCTIONS
At the start of each trial, look at the hash marks (######) in the center of the screen. After a moment, a string of letters will appear. Your task is to indicate if the letter string forms a word or not (i.e., if it is a nonword). For example, AUTHOR is a word while AUTHON is a nonword.

Press the space bar or touch the button below to continue.",0,,5e09ffd8fa3d102a583771c1,2020-11-27_11h10.02.855,lexical_decision_task_MP_exp2,2020.2.5,Win32,60,,,,,,,,,,,,,,,,,,,,,,,,,,,,,,,,,,,,,,,,,
,space,8.108495,0.052083333,-0.2265625,0,0,0,0,1,1,1,1,2,instructions,"If your device has a keyboard, press the 'Z' key for nonwords and the 'M' key for words.





Press the space bar or touch the button below to continue.",1,keyboard-example.gif,5e09ffd8fa3d102a583771c1,2020-11-27_11h10.02.855,lexical_decision_task_MP_exp2,2020.2.5,Win32,60,,,,,,,,,,,,,,,,,,,,,,,,,,,,,,,,,,,,,,,,,
,space,4.16378,0.052083333,-0.2265625,0,0,0,0,2,2,2,1,3,instructions,"If you are using a touchscreen only device, use the buttons on the screen. Do not use the mouse.





Press the space bar or touch the button below to continue.",1,touchscreen-example.gif,5e09ffd8fa3d102a583771c1,2020-11-27_11h10.02.855,lexical_decision_task_MP_exp2,2020.2.5,Win32,60,,,,,,,,,,,,,,,,,,,,,,,,,,,,,,,,,,,,,,,,,
,space,6.779795,0.052083333,-0.2265625,0,0,0,0,3,3,3,1,4,instructions,"It is very important that you respond as quickly and accurately as possible, as each letter string will only be on the screen for two seconds. If you do not respond within this time, the message 'Too slow!' will be displayed and the experiment will progress to the next letter string. The first 20 trials will be practice trials and you will receive feedback on your answers. 

Press the space bar or touch the button below to start the practice trials.",0,,5e09ffd8fa3d102a583771c1,2020-11-27_11h10.02.855,lexical_decision_task_MP_exp2,2020.2.5,Win32,60,,,,,,,,,,,,,,,,,,,,,,,,,,,,,,,,,,,,,,,,,
,,,,,,,,,,,,,,,,,,5e09ffd8fa3d102a583771c1,2020-11-27_11h10.02.855,lexical_decision_task_MP_exp2,2020.2.5,Win32,60,m,1,1.02718,,,,,,,,1.02718,1,0,0,0,0,1,1001,WORD,"ID",33,utopia,UTOPIA,m,,,,,,,,,,,,,,,,,
,,,,,,,,,,,,,,,,,,5e09ffd8fa3d102a583771c1,2020-11-27_11h10.02.855,lexical_decision_task_MP_exp2,2020.2.5,Win32,60,m,1,0.445585,,,,,,,,0.445585,1,0,1,1,4,1,1005,WORD,UN,33,abound,SQUEAK,m,,,,,,,,,,,,,,,,,
,,,,,,,,,,,,,,,,,,5e09ffd8fa3d102a583771c1,2020-11-27_11h10.02.855,lexical_decision_task_MP_exp2,2020.2.5,Win32,60,m,0,0.294415,,,,,,,,0.294415,0,0,2,2,10,1,1011,NW,"ID",16,inlade,INLADE,z,,,,,,,,,,,,,,,,,
,,,,,,,,,,,,,,,,,,5e09ffd8fa3d102a583771c1,2020-11-27_11h10.02.855,lexical_decision_task_MP_exp2,2020.2.5,Win32,60,m,0,0.478835,,,,,,,,0.478835,0,0,3,3,12,1,1013,NW,UN,33,adveil,SPRINY,z,,,,,,,,,,,,,,,,,
,,,,,,,,,,,,,,,,,,5e09ffd8fa3d102a583771c1,2020-11-27_11h10.02.855,lexical_decision_task_MP_exp2,2020.2.5,Win32,60,z,1,0.82038,,,,,,,,0.82038,1,0,4,4,9,1,1010,NW,"ID",33,fariny,FARINY,z,,,,,,,,,,,,,,,,,
,,,,,,,,,,,,,,,,,,5e09ffd8fa3d102a583771c1,2020-11-27_11h10.02.855,lexical_decision_task_MP_exp2,2020.2.5,Win32,60,m,1,0.56406,,,,,,,,0.56406,1,0,5,5,6,1,1007,WORD,UN,16,tropic,ZOMBIE,m,,,,,,,,,,,,,,,,,
,,,,,,,,,,,,,,,,,,5e09ffd8fa3d102a583771c1,2020-11-27_11h10.02.855,lexical_decision_task_MP_exp2,2020.2.5,Win32,60,z,1,0.830145,,,,,,,,0.830145,1,0,6,6,11,1,1012,NW,"ID",16,rashet,RASHET,z,,,,,,,,,,,,,,,,,
,,,,,,,,,,,,,,,,,,5e09ffd8fa3d102a583771c1,2020-11-27_11h10.02.855,lexical_decision_task_MP_exp2,2020.2.5,Win32,60,z,0,0.466415,,,,,,,,0.466415,0,0,7,7,3,1,1004,WORD,"ID",16,matrix,MATRIX,m,,,,,,,,,,,,,,,,,
,,,,,,,,,,,,,,,,,,5e09ffd8fa3d102a583771c1,2020-11-27_11h10.02.855,lexical_decision_task_MP_exp2,2020.2.5,Win32,60,m,1,0.831755,,,,,,,,0.831755,1,0,8,8,1,1,1002,WORD,"ID",33,adjust,ADJUST,m,,,,,,,,,,,,,,,,,
,,,,,,,,,,,,,,,,,,5e09ffd8fa3d102a583771c1,2020-11-27_11h10.02.855,lexical_decision_task_MP_exp2,2020.2.5,Win32,60,z,1,0.71854,,,,,,,,0.71854,1,0,9,9,15,1,1016,NW,UN,16,mushed,WHAISE,z,,,,,,,,,,,,,,,,,
,,,,,,,,,,,,,,,,,,5e09ffd8fa3d102a583771c1,2020-11-27_11h10.02.855,lexical_decision_task_MP_exp2,2020.2.5,Win32,60,m,1,0.569555,,,,,,,,0.569555,1,0,10,10,5,1,1006,WORD,UN,33,frenzy,OBTAIN,m,,,,,,,,,,,,,,,,,
,,,,,,,,,,,,,,,,,,5e09ffd8fa3d102a583771c1,2020-11-27_11h10.02.855,lexical_decision_task_MP_exp2,2020.2.5,Win32,60,z,1,0.6508,,,,,,,,0.6508,1,0,11,11,13,1,1014,NW,UN,33,winfer,ROUPET,z,,,,,,,,,,,,,,,,,
,,,,,,,,,,,,,,,,,,5e09ffd8fa3d102a583771c1,2020-11-27_11h10.02.855,lexical_decision_task_MP_exp2,2020.2.5,Win32,60,z,1,0.697565,,,,,,,,0.697565,1,0,12,12,8,1,1009,NW,"ID",33,aslert,ASLERT,z,,,,,,,,,,,,,,,,,
,,,,,,,,,,,,,,,,,,5e09ffd8fa3d102a583771c1,2020-11-27_11h10.02.855,lexical_decision_task_MP_exp2,2020.2.5,Win32,60,m,1,0.61252,,,,,,,,0.61252,1,0,13,13,2,1,1003,WORD,"ID",16,almond,ALMOND,m,,,,,,,,,,,,,,,,,
,,,,,,,,,,,,,,,,,,5e09ffd8fa3d102a583771c1,2020-11-27_11h10.02.855,lexical_decision_task_MP_exp2,2020.2.5,Win32,60,m,1,0.663825,,,,,,,,0.663825,1,0,14,14,7,1,1008,WORD,UN,16,hurdle,VOLUME,m,,,,,,,,,,,,,,,,,
,,,,,,,,,,,,,,,,,,5e09ffd8fa3d102a583771c1,2020-11-27_11h10.02.855,lexical_decision_task_MP_exp2,2020.2.5,Win32,60,z,1,0.688695,,,,,,,,0.688695,1,0,15,15,14,1,1015,NW,UN,16,miaber,THRALE,z,,,,,,,,,,,,,,,,,
,space,3.773505,0.052083333,-0.2265625,0,0,0,,,,,,1,end_of_practice,"You have completed the practice trials. During the experimental trials, you will not receive feedback, but it is very important that you respond as quickly and accurately as possible. 
Before you begin, please ensure that you are in a comfortable and quiet location and will not be disturbed for about 15 minutes, as we cannot use your data if you do not complete all the trials. 
There will be opportunities to take breaks at regular intervals during the experiment. When you are ready to start the experimental trials, please press space or touch the button below.",,,5e09ffd8fa3d102a583771c1,2020-11-27_11h10.02.855,lexical_decision_task_MP_exp2,2020.2.5,Win32,60,,,,,,,,,,,,,,,,,,,,,,,,,0,0,0,0,1,,,,,,,,,,,,
,,,,,,,,,,,,,,,,,,5e09ffd8fa3d102a583771c1,2020-11-27_11h10.02.855,lexical_decision_task_MP_exp2,2020.2.5,Win32,60,m,1,0.952345,,,,,,,,0.952345,1,,,,,,215,WORD,UN,33,lumber,PHOBIA,m,,,,,,0.052083333,-0.2265625,0,0,0,,0,0,0,154,1,
,,,,,,,,,,,,,,,,,,5e09ffd8fa3d102a583771c1,2020-11-27_11h10.02.855,lexical_decision_task_MP_exp2,2020.2.5,Win32,60,z,1,0.787775,,,,,,,,0.787775,1,,,,,,374,NW,"ID",16,sliant,SLIANT,z,,,,,,0.052083333,-0.2265625,0,0,0,,0,1,1,313,1,
,,,,,,,,,,,,,,,,,,5e09ffd8fa3d102a583771c1,2020-11-27_11h10.02.855,lexical_decision_task_MP_exp2,2020.2.5,Win32,60,m,1,0.69782,,,,,,,,0.69782,1,,,,,,150,WORD,"ID",16,random,RANDOM,m,,,,,,0.052083333,-0.2265625,0,0,0,,0,2,2,89,1,
,,,,,,,,,,,,,,,,,,5e09ffd8fa3d102a583771c1,2020-11-27_11h10.02.855,lexical_decision_task_MP_exp2,2020.2.5,Win32,60,z,1,0.599045,,,,,,,,0.599045,1,,,,,,423,NW,UN,33,praile,STRELD,z,,,,,,0.052083333,-0.2265625,0,0,0,,0,3,3,362,1,
,,,,,,,,,,,,,,,,,,5e09ffd8fa3d102a583771c1,2020-11-27_11h10.02.855,lexical_decision_task_MP_exp2,2020.2.5,Win32,60,m,1,0.633685,,,,,,,,0.633685,1,,,,,,82,WORD,"ID",33,stigma,STIGMA,m,,,,,,0.052083333,-0.2265625,0,0,0,,0,4,4,21,1,
,,,,,,,,,,,,,,,,,,5e09ffd8fa3d102a583771c1,2020-11-27_11h10.02.855,lexical_decision_task_MP_exp2,2020.2.5,Win32,60,m,1,0.670105,,,,,,,,0.670105,1,,,,,,166,WORD,"ID",16,starch,STARCH,m,,,,,,0.052083333,-0.2265625,0,0,0,,0,5,5,105,1,
,,,,,,,,,,,,,,,,,,5e09ffd8fa3d102a583771c1,2020-11-27_11h10.02.855,lexical_decision_task_MP_exp2,2020.2.5,Win32,60,z,1,0.630525,,,,,,,,0.630525,1,,,,,,373,NW,"ID",16,bigent,BIGENT,z,,,,,,0.052083333,-0.2265625,0,0,0,,0,6,6,312,1,
,,,,,,,,,,,,,,,,,,5e09ffd8fa3d102a583771c1,2020-11-27_11h10.02.855,lexical_decision_task_MP_exp2,2020.2.5,Win32,60,z,1,0.462095,,,,,,,,0.462095,1,,,,,,334,NW,"ID",33,watmeg,WATMEG,z,,,,,,0.052083333,-0.2265625,0,0,0,,0,7,7,273,1,
,,,,,,,,,,,,,,,,,,5e09ffd8fa3d102a583771c1,2020-11-27_11h10.02.855,lexical_decision_task_MP_exp2,2020.2.5,Win32,60,m,1,0.55029,,,,,,,,0.55029,1,,,,,,17,WORD,UN,16,humble,CHARGE,m,,,,,,0.052083333,-0.2265625,0,0,0,,0,8,8,196,1,
,,,,,,,,,,,,,,,,,,5e09ffd8fa3d102a583771c1,2020-11-27_11h10.02.855,lexical_decision_task_MP_exp2,2020.2.5,Win32,60,m,1,0.584655,,,,,,,,0.584655,1,,,,,,129,WORD,"ID",16,marvel,MARVEL,m,,,,,,0.052083333,-0.2265625,0,0,0,,0,9,9,68,1,
,,,,,,,,,,,,,,,,,,5e09ffd8fa3d102a583771c1,2020-11-27_11h10.02.855,lexical_decision_task_MP_exp2,2020.2.5,Win32,60,m,1,0.53618,,,,,,,,0.53618,1,,,,,,220,WORD,UN,33,mascot,VOYAGE,m,,,,,,0.052083333,-0.2265625,0,0,0,,0,10,10,159,1,
,,,,,,,,,,,,,,,,,,5e09ffd8fa3d102a583771c1,2020-11-27_11h10.02.855,lexical_decision_task_MP_exp2,2020.2.5,Win32,60,m,1,0.784865,,,,,,,,0.784865,1,,,,,,140,WORD,"ID",16,prince,PRINCE,m,,,,,,0.052083333,-0.2265625,0,0,0,,0,11,11,79,1,
,,,,,,,,,,,,,,,,,,5e09ffd8fa3d102a583771c1,2020-11-27_11h10.02.855,lexical_decision_task_MP_exp2,2020.2.5,Win32,60,z,1,0.78461,,,,,,,,0.78461,1,,,,,,452,NW,UN,33,bolvis,SURDEN,z,,,,,,0.052083333,-0.2265625,0,0,0,,0,12,12,391,1,
,,,,,,,,,,,,,,,,,,5e09ffd8fa3d102a583771c1,2020-11-27_11h10.02.855,lexical_decision_task_MP_exp2,2020.2.5,Win32,60,z,1,0.501895,,,,,,,,0.501895,1,,,,,,370,NW,"ID",16,sleact,SLEACT,z,,,,,,0.052083333,-0.2265625,0,0,0,,0,13,13,309,1,
,,,,,,,,,,,,,,,,,,5e09ffd8fa3d102a583771c1,2020-11-27_11h10.02.855,lexical_decision_task_MP_exp2,2020.2.5,Win32,60,z,1,0.434695,,,,,,,,0.434695,1,,,,,,259,NW,UN,16,unject,SOUDAL,z,,,,,,0.052083333,-0.2265625,0,0,0,,0,14,14,438,1,
,,,,,,,,,,,,,,,,,,5e09ffd8fa3d102a583771c1,2020-11-27_11h10.02.855,lexical_decision_task_MP_exp2,2020.2.5,Win32,60,z,1,0.437495,,,,,,,,0.437495,1,,,,,,402,NW,"ID",16,syntic,SYNTIC,z,,,,,,0.052083333,-0.2265625,0,0,0,,0,15,15,341,1,
,,,,,,,,,,,,,,,,,,5e09ffd8fa3d102a583771c1,2020-11-27_11h10.02.855,lexical_decision_task_MP_exp2,2020.2.5,Win32,60,z,1,0.53498,,,,,,,,0.53498,1,,,,,,328,NW,"ID",33,broake,BROAKE,z,,,,,,0.052083333,-0.2265625,0,0,0,,0,16,16,267,1,
,,,,,,,,,,,,,,,,,,5e09ffd8fa3d102a583771c1,2020-11-27_11h10.02.855,lexical_decision_task_MP_exp2,2020.2.5,Win32,60,z,1,0.4689,,,,,,,,0.4689,1,,,,,,451,NW,UN,33,surden,CAINKY,z,,,,,,0.052083333,-0.2265625,0,0,0,,0,17,17,390,1,
,,,,,,,,,,,,,,,,,,5e09ffd8fa3d102a583771c1,2020-11-27_11h10.02.855,lexical_decision_task_MP_exp2,2020.2.5,Win32,60,m,1,0.55137,,,,,,,,0.55137,1,,,,,,103,WORD,"ID",33,bounce,BOUNCE,m,,,,,,0.052083333,-0.2265625,0,0,0,,0,18,18,42,1,
,,,,,,,,,,,,,,,,,,5e09ffd8fa3d102a583771c1,2020-11-27_11h10.02.855,lexical_decision_task_MP_exp2,2020.2.5,Win32,60,z,1,0.58437,,,,,,,,0.58437,1,,,,,,376,NW,"ID",16,iguare,IGUARE,z,,,,,,0.052083333,-0.2265625,0,0,0,,0,19,19,315,1,
,,,,,,,,,,,,,,,,,,5e09ffd8fa3d102a583771c1,2020-11-27_11h10.02.855,lexical_decision_task_MP_exp2,2020.2.5,Win32,60,z,1,0.80063,,,,,,,,0.80063,1,,,,,,343,NW,"ID",33,aimosy,AIMOSY,z,,,,,,0.052083333,-0.2265625,0,0,0,,0,20,20,282,1,
,,,,,,,,,,,,,,,,,,5e09ffd8fa3d102a583771c1,2020-11-27_11h10.02.855,lexical_decision_task_MP_exp2,2020.2.5,Win32,60,m,1,0.58443,,,,,,,,0.58443,1,,,,,,12,WORD,UN,16,strive,ORANGE,m,,,,,,0.052083333,-0.2265625,0,0,0,,0,21,21,191,1,
,,,,,,,,,,,,,,,,,,5e09ffd8fa3d102a583771c1,2020-11-27_11h10.02.855,lexical_decision_task_MP_exp2,2020.2.5,Win32,60,z,1,0.55259,,,,,,,,0.55259,1,,,,,,350,NW,"ID",33,nagurs,NAGURS,z,,,,,,0.052083333,-0.2265625,0,0,0,,0,22,22,289,1,
,,,,,,,,,,,,,,,,,,5e09ffd8fa3d102a583771c1,2020-11-27_11h10.02.855,lexical_decision_task_MP_exp2,2020.2.5,Win32,60,z,1,0.618375,,,,,,,,0.618375,1,,,,,,351,NW,"ID",33,tiesch,TIESCH,z,,,,,,0.052083333,-0.2265625,0,0,0,,0,23,23,290,1,
,,,,,,,,,,,,,,,,,,5e09ffd8fa3d102a583771c1,2020-11-27_11h10.02.855,lexical_decision_task_MP_exp2,2020.2.5,Win32,60,m,1,0.817575,,,,,,,,0.817575,1,,,,,,84,WORD,"ID",33,mortal,MORTAL,m,,,,,,0.052083333,-0.2265625,0,0,0,,0,24,24,23,1,
,,,,,,,,,,,,,,,,,,5e09ffd8fa3d102a583771c1,2020-11-27_11h10.02.855,lexical_decision_task_MP_exp2,2020.2.5,Win32,60,z,1,0.56852,,,,,,,,0.56852,1,,,,,,434,NW,UN,33,impurb,PITROM,z,,,,,,0.052083333,-0.2265625,0,0,0,,0,25,25,373,1,
,,,,,,,,,,,,,,,,,,5e09ffd8fa3d102a583771c1,2020-11-27_11h10.02.855,lexical_decision_task_MP_exp2,2020.2.5,Win32,60,z,1,0.550465,,,,,,,,0.550465,1,,,,,,257,NW,UN,16,poluth,VENIOD,z,,,,,,0.052083333,-0.2265625,0,0,0,,0,26,26,436,1,
,,,,,,,,,,,,,,,,,,5e09ffd8fa3d102a583771c1,2020-11-27_11h10.02.855,lexical_decision_task_MP_exp2,2020.2.5,Win32,60,z,0,0.50134,,,,,,,,0.50134,0,,,,,,208,WORD,UN,33,search,HOCKEY,m,,,,,,0.052083333,-0.2265625,0,0,0,,0,27,27,147,1,
,,,,,,,,,,,,,,,,,,5e09ffd8fa3d102a583771c1,2020-11-27_11h10.02.855,lexical_decision_task_MP_exp2,2020.2.5,Win32,60,m,0,0.51905,,,,,,,,0.51905,0,,,,,,283,NW,UN,16,shaple,VERALF,z,,,,,,0.052083333,-0.2265625,0,0,0,,0,28,28,462,1,
,,,,,,,,,,,,,,,,,,5e09ffd8fa3d102a583771c1,2020-11-27_11h10.02.855,lexical_decision_task_MP_exp2,2020.2.5,Win32,60,m,1,0.71769,,,,,,,,0.71769,1,,,,,,135,WORD,"ID",16,import,IMPORT,m,,,,,,0.052083333,-0.2265625,0,0,0,,0,29,29,74,1,
,,,,,,,,,,,,,,,,,,5e09ffd8fa3d102a583771c1,2020-11-27_11h10.02.855,lexical_decision_task_MP_exp2,2020.2.5,Win32,60,m,1,0.56806,,,,,,,,0.56806,1,,,,,,225,WORD,UN,33,casino,VULGAR,m,,,,,,0.052083333,-0.2265625,0,0,0,,0,30,30,164,1,
,,,,,,,,,,,,,,,,,,5e09ffd8fa3d102a583771c1,2020-11-27_11h10.02.855,lexical_decision_task_MP_exp2,2020.2.5,Win32,60,m,1,0.451415,,,,,,,,0.451415,1,,,,,,188,WORD,UN,33,censor,SOCIAL,m,,,,,,0.052083333,-0.2265625,0,0,0,,0,31,31,127,1,
,,,,,,,,,,,,,,,,,,5e09ffd8fa3d102a583771c1,2020-11-27_11h10.02.855,lexical_decision_task_MP_exp2,2020.2.5,Win32,60,m,1,0.55142,,,,,,,,0.55142,1,,,,,,209,WORD,UN,33,monkey,SEARCH,m,,,,,,0.052083333,-0.2265625,0,0,0,,0,32,32,148,1,
,,,,,,,,,,,,,,,,,,5e09ffd8fa3d102a583771c1,2020-11-27_11h10.02.855,lexical_decision_task_MP_exp2,2020.2.5,Win32,60,z,1,0.884255,,,,,,,,0.884255,1,,,,,,417,NW,"ID",16,earoud,EAROUD,z,,,,,,0.052083333,-0.2265625,0,0,0,,0,33,33,356,1,
,,,,,,,,,,,,,,,,,,5e09ffd8fa3d102a583771c1,2020-11-27_11h10.02.855,lexical_decision_task_MP_exp2,2020.2.5,Win32,60,m,1,0.584435,,,,,,,,0.584435,1,,,,,,14,WORD,UN,16,orange,ALMOST,m,,,,,,0.052083333,-0.2265625,0,0,0,,0,34,34,193,1,
,,,,,,,,,,,,,,,,,,5e09ffd8fa3d102a583771c1,2020-11-27_11h10.02.855,lexical_decision_task_MP_exp2,2020.2.5,Win32,60,z,1,0.68448,,,,,,,,0.68448,1,,,,,,429,NW,UN,33,caroey,FUNTLE,z,,,,,,0.052083333,-0.2265625,0,0,0,,0,35,35,368,1,
,,,,,,,,,,,,,,,,,,5e09ffd8fa3d102a583771c1,2020-11-27_11h10.02.855,lexical_decision_task_MP_exp2,2020.2.5,Win32,60,z,1,0.464055,,,,,,,,0.464055,1,,,,,,266,NW,UN,16,pasink,VARMIT,z,,,,,,0.052083333,-0.2265625,0,0,0,,0,36,36,445,1,
,,,,,,,,,,,,,,,,,,5e09ffd8fa3d102a583771c1,2020-11-27_11h10.02.855,lexical_decision_task_MP_exp2,2020.2.5,Win32,60,m,1,0.714135,,,,,,,,0.714135,1,,,,,,115,WORD,"ID",33,guitar,GUITAR,m,,,,,,0.052083333,-0.2265625,0,0,0,,0,37,37,54,1,
,,,,,,,,,,,,,,,,,,5e09ffd8fa3d102a583771c1,2020-11-27_11h10.02.855,lexical_decision_task_MP_exp2,2020.2.5,Win32,60,z,1,1.047635,,,,,,,,1.047635,1,,,,,,253,NW,UN,16,varosh,RESAIT,z,,,,,,0.052083333,-0.2265625,0,0,0,,0,38,38,432,1,
,,,,,,,,,,,,,,,,,,5e09ffd8fa3d102a583771c1,2020-11-27_11h10.02.855,lexical_decision_task_MP_exp2,2020.2.5,Win32,60,m,1,0.780775,,,,,,,,0.780775,1,,,,,,20,WORD,UN,16,simple,BREAST,m,,,,,,0.052083333,-0.2265625,0,0,0,,0,39,39,199,1,
,,,,,,,,,,,,,,,,,,5e09ffd8fa3d102a583771c1,2020-11-27_11h10.02.855,lexical_decision_task_MP_exp2,2020.2.5,Win32,60,z,1,1.048095,,,,,,,,1.048095,1,,,,,,447,NW,UN,33,sadent,GIRCUE,z,,,,,,0.052083333,-0.2265625,0,0,0,,0,40,40,386,1,
,,,,,,,,,,,,,,,,,,5e09ffd8fa3d102a583771c1,2020-11-27_11h10.02.855,lexical_decision_task_MP_exp2,2020.2.5,Win32,60,m,1,0.85193,,,,,,,,0.85193,1,,,,,,170,WORD,"ID",16,pounce,POUNCE,m,,,,,,0.052083333,-0.2265625,0,0,0,,0,41,41,109,1,
,,,,,,,,,,,,,,,,,,5e09ffd8fa3d102a583771c1,2020-11-27_11h10.02.855,lexical_decision_task_MP_exp2,2020.2.5,Win32,60,m,1,0.71662,,,,,,,,0.71662,1,,,,,,42,WORD,UN,16,tongue,CHAPEL,m,,,,,,0.052083333,-0.2265625,0,0,0,,0,42,42,221,1,
,,,,,,,,,,,,,,,,,,5e09ffd8fa3d102a583771c1,2020-11-27_11h10.02.855,lexical_decision_task_MP_exp2,2020.2.5,Win32,60,z,1,0.604695,,,,,,,,0.604695,1,,,,,,394,NW,"ID",16,spaqux,SPAQUX,z,,,,,,0.052083333,-0.2265625,0,0,0,,0,43,43,333,1,
,,,,,,,,,,,,,,,,,,5e09ffd8fa3d102a583771c1,2020-11-27_11h10.02.855,lexical_decision_task_MP_exp2,2020.2.5,Win32,60,m,1,0.64871,,,,,,,,0.64871,1,,,,,,218,WORD,UN,33,bucket,SHRINK,m,,,,,,0.052083333,-0.2265625,0,0,0,,0,44,44,157,1,
,,,,,,,,,,,,,,,,,,5e09ffd8fa3d102a583771c1,2020-11-27_11h10.02.855,lexical_decision_task_MP_exp2,2020.2.5,Win32,60,z,1,1.23284,,,,,,,,1.23284,1,,,,,,332,NW,"ID",33,vangue,VANGUE,z,,,,,,0.052083333,-0.2265625,0,0,0,,0,45,45,271,1,
,,,,,,,,,,,,,,,,,,5e09ffd8fa3d102a583771c1,2020-11-27_11h10.02.855,lexical_decision_task_MP_exp2,2020.2.5,Win32,60,m,1,0.604535,,,,,,,,0.604535,1,,,,,,27,WORD,UN,16,comedy,SCREAM,m,,,,,,0.052083333,-0.2265625,0,0,0,,0,46,46,206,1,
,,,,,,,,,,,,,,,,,,5e09ffd8fa3d102a583771c1,2020-11-27_11h10.02.855,lexical_decision_task_MP_exp2,2020.2.5,Win32,60,z,1,0.702375,,,,,,,,0.702375,1,,,,,,245,NW,UN,16,piaton,ANOUGS,z,,,,,,0.052083333,-0.2265625,0,0,0,,0,47,47,424,1,
,,,,,,,,,,,,,,,,,,5e09ffd8fa3d102a583771c1,2020-11-27_11h10.02.855,lexical_decision_task_MP_exp2,2020.2.5,Win32,60,z,1,0.51555,,,,,,,,0.51555,1,,,,,,359,NW,"ID",33,fonver,FONVER,z,,,,,,0.052083333,-0.2265625,0,0,0,,0,48,48,298,1,
,,,,,,,,,,,,,,,,,,5e09ffd8fa3d102a583771c1,2020-11-27_11h10.02.855,lexical_decision_task_MP_exp2,2020.2.5,Win32,60,z,1,0.451995,,,,,,,,0.451995,1,,,,,,408,NW,"ID",16,hurnia,HURNIA,z,,,,,,0.052083333,-0.2265625,0,0,0,,0,49,49,347,1,
,,,,,,,,,,,,,,,,,,5e09ffd8fa3d102a583771c1,2020-11-27_11h10.02.855,lexical_decision_task_MP_exp2,2020.2.5,Win32,60,m,1,0.70053,,,,,,,,0.70053,1,,,,,,95,WORD,"ID",33,thread,THREAD,m,,,,,,0.052083333,-0.2265625,0,0,0,,0,50,50,34,1,
,,,,,,,,,,,,,,,,,,5e09ffd8fa3d102a583771c1,2020-11-27_11h10.02.855,lexical_decision_task_MP_exp2,2020.2.5,Win32,60,m,1,0.667415,,,,,,,,0.667415,1,,,,,,216,WORD,UN,33,liquor,BEHALF,m,,,,,,0.052083333,-0.2265625,0,0,0,,0,51,51,155,1,
,,,,,,,,,,,,,,,,,,5e09ffd8fa3d102a583771c1,2020-11-27_11h10.02.855,lexical_decision_task_MP_exp2,2020.2.5,Win32,60,m,1,0.43101,,,,,,,,0.43101,1,,,,,,144,WORD,"ID",16,sponge,SPONGE,m,,,,,,0.052083333,-0.2265625,0,0,0,,0,52,52,83,1,
,,,,,,,,,,,,,,,,,,5e09ffd8fa3d102a583771c1,2020-11-27_11h10.02.855,lexical_decision_task_MP_exp2,2020.2.5,Win32,60,m,0,0.452835,,,,,,,,0.452835,0,,,,,,397,NW,"ID",16,camble,CAMBLE,z,,,,,,0.052083333,-0.2265625,0,0,0,,0,53,53,336,1,
,,,,,,,,,,,,,,,,,,5e09ffd8fa3d102a583771c1,2020-11-27_11h10.02.855,lexical_decision_task_MP_exp2,2020.2.5,Win32,60,z,1,1.041695,,,,,,,,1.041695,1,,,,,,268,NW,UN,16,orchet,PACKES,z,,,,,,0.052083333,-0.2265625,0,0,0,,0,54,54,447,1,
,,,,,,,,,,,,,,,,,,5e09ffd8fa3d102a583771c1,2020-11-27_11h10.02.855,lexical_decision_task_MP_exp2,2020.2.5,Win32,60,m,1,0.632395,,,,,,,,0.632395,1,,,,,,62,WORD,"ID",33,region,REGION,m,,,,,,0.052083333,-0.2265625,0,0,0,,0,55,55,1,1,
,,,,,,,,,,,,,,,,,,5e09ffd8fa3d102a583771c1,2020-11-27_11h10.02.855,lexical_decision_task_MP_exp2,2020.2.5,Win32,60,z,1,0.754505,,,,,,,,0.754505,1,,,,,,409,NW,"ID",16,elopia,ELOPIA,z,,,,,,0.052083333,-0.2265625,0,0,0,,0,56,56,348,1,
,,,,,,,,,,,,,,,,,,5e09ffd8fa3d102a583771c1,2020-11-27_11h10.02.855,lexical_decision_task_MP_exp2,2020.2.5,Win32,60,z,1,0.565405,,,,,,,,0.565405,1,,,,,,426,NW,UN,33,schind,URIVEL,z,,,,,,0.052083333,-0.2265625,0,0,0,,0,57,57,365,1,
,,,,,,,,,,,,,,,,,,5e09ffd8fa3d102a583771c1,2020-11-27_11h10.02.855,lexical_decision_task_MP_exp2,2020.2.5,Win32,60,m,1,0.564675,,,,,,,,0.564675,1,,,,,,56,WORD,UN,16,change,AMBUSH,m,,,,,,0.052083333,-0.2265625,0,0,0,,0,58,58,235,1,
,,,,,,,,,,,,,,,,,,5e09ffd8fa3d102a583771c1,2020-11-27_11h10.02.855,lexical_decision_task_MP_exp2,2020.2.5,Win32,60,z,1,0.616,,,,,,,,0.616,1,,,,,,300,NW,UN,16,smenco,YARION,z,,,,,,0.052083333,-0.2265625,0,0,0,,0,59,59,479,1,
,,,,,,,,,,,,,,,,,,5e09ffd8fa3d102a583771c1,2020-11-27_11h10.02.855,lexical_decision_task_MP_exp2,2020.2.5,Win32,60,z,1,0.43159,,,,,,,,0.43159,1,,,,,,315,NW,"ID",33,laston,LASTON,z,,,,,,0.052083333,-0.2265625,0,0,0,,0,60,60,254,1,
,,,,,,,,,,,,,,,,,,5e09ffd8fa3d102a583771c1,2020-11-27_11h10.02.855,lexical_decision_task_MP_exp2,2020.2.5,Win32,60,m,1,0.82003,,,,,,,,0.82003,1,,,,,,196,WORD,UN,33,stream,CREDIT,m,,,,,,0.052083333,-0.2265625,0,0,0,,0,61,61,135,1,
,,,,,,,,,,,,,,,,,,5e09ffd8fa3d102a583771c1,2020-11-27_11h10.02.855,lexical_decision_task_MP_exp2,2020.2.5,Win32,60,m,1,0.718545,,,,,,,,0.718545,1,,,,,,194,WORD,UN,33,resign,ABSENT,m,,,,,,0.052083333,-0.2265625,0,0,0,,0,62,62,133,1,
,,,,,,,,,,,,,,,,,,5e09ffd8fa3d102a583771c1,2020-11-27_11h10.02.855,lexical_decision_task_MP_exp2,2020.2.5,Win32,60,m,1,0.514705,,,,,,,,0.514705,1,,,,,,88,WORD,"ID",33,hunger,HUNGER,m,,,,,,0.052083333,-0.2265625,0,0,0,,0,63,63,27,1,
,,,,,,,,,,,,,,,,,,5e09ffd8fa3d102a583771c1,2020-11-27_11h10.02.855,lexical_decision_task_MP_exp2,2020.2.5,Win32,60,m,1,0.53266,,,,,,,,0.53266,1,,,,,,162,WORD,"ID",16,candle,CANDLE,m,,,,,,0.052083333,-0.2265625,0,0,0,,0,64,64,101,1,
,,,,,,,,,,,,,,,,,,5e09ffd8fa3d102a583771c1,2020-11-27_11h10.02.855,lexical_decision_task_MP_exp2,2020.2.5,Win32,60,z,1,0.584155,,,,,,,,0.584155,1,,,,,,390,NW,"ID",16,hatrus,HATRUS,z,,,,,,0.052083333,-0.2265625,0,0,0,,0,65,65,329,1,
,,,,,,,,,,,,,,,,,,5e09ffd8fa3d102a583771c1,2020-11-27_11h10.02.855,lexical_decision_task_MP_exp2,2020.2.5,Win32,60,m,1,0.636095,,,,,,,,0.636095,1,,,,,,171,WORD,"ID",16,depart,DEPART,m,,,,,,0.052083333,-0.2265625,0,0,0,,0,66,66,110,1,
,,,,,,,,,,,,,,,,,,5e09ffd8fa3d102a583771c1,2020-11-27_11h10.02.855,lexical_decision_task_MP_exp2,2020.2.5,Win32,60,m,1,0.59792,,,,,,,,0.59792,1,,,,,,146,WORD,"ID",16,couple,COUPLE,m,,,,,,0.052083333,-0.2265625,0,0,0,,0,67,67,85,1,
,,,,,,,,,,,,,,,,,,5e09ffd8fa3d102a583771c1,2020-11-27_11h10.02.855,lexical_decision_task_MP_exp2,2020.2.5,Win32,60,m,1,0.56429,,,,,,,,0.56429,1,,,,,,239,WORD,UN,33,forest,LUMBER,m,,,,,,0.052083333,-0.2265625,0,0,0,,0,68,68,178,1,
,,,,,,,,,,,,,,,,,,5e09ffd8fa3d102a583771c1,2020-11-27_11h10.02.855,lexical_decision_task_MP_exp2,2020.2.5,Win32,60,m,1,0.42185,,,,,,,,0.42185,1,,,,,,204,WORD,UN,33,lounge,BURDEN,m,,,,,,0.052083333,-0.2265625,0,0,0,,0,69,69,143,1,
,,,,,,,,,,,,,,,,,,5e09ffd8fa3d102a583771c1,2020-11-27_11h10.02.855,lexical_decision_task_MP_exp2,2020.2.5,Win32,60,z,1,0.64854,,,,,,,,0.64854,1,,,,,,375,NW,"ID",16,yorque,YORQUE,z,,,,,,0.052083333,-0.2265625,0,0,0,,0,70,70,314,1,
,,,,,,,,,,,,,,,,,,5e09ffd8fa3d102a583771c1,2020-11-27_11h10.02.855,lexical_decision_task_MP_exp2,2020.2.5,Win32,60,m,1,0.53105,,,,,,,,0.53105,1,,,,,,39,WORD,UN,16,convey,INSECT,m,,,,,,0.052083333,-0.2265625,0,0,0,,0,71,71,218,1,
,,,,,,,,,,,,,,,,,,5e09ffd8fa3d102a583771c1,2020-11-27_11h10.02.855,lexical_decision_task_MP_exp2,2020.2.5,Win32,60,z,1,0.5647,,,,,,,,0.5647,1,,,,,,349,NW,"ID",33,asylen,ASYLEN,z,,,,,,0.052083333,-0.2265625,0,0,0,,0,72,72,288,1,
,,,,,,,,,,,,,,,,,,5e09ffd8fa3d102a583771c1,2020-11-27_11h10.02.855,lexical_decision_task_MP_exp2,2020.2.5,Win32,60,z,1,0.683845,,,,,,,,0.683845,1,,,,,,244,NW,UN,16,anougs,EATRIC,z,,,,,,0.052083333,-0.2265625,0,0,0,,0,73,73,423,1,
,,,,,,,,,,,,,,,,,,5e09ffd8fa3d102a583771c1,2020-11-27_11h10.02.855,lexical_decision_task_MP_exp2,2020.2.5,Win32,60,z,1,0.84788,,,,,,,,0.84788,1,,,,,,445,NW,UN,33,runamo,MINKEL,z,,,,,,0.052083333,-0.2265625,0,0,0,,0,74,74,384,1,
,,,,,,,,,,,,,,,,,,5e09ffd8fa3d102a583771c1,2020-11-27_11h10.02.855,lexical_decision_task_MP_exp2,2020.2.5,Win32,60,m,1,0.76509,,,,,,,,0.76509,1,,,,,,157,WORD,"ID",16,dragon,DRAGON,m,,,,,,0.052083333,-0.2265625,0,0,0,,0,75,75,96,1,
,,,,,,,,,,,,,,,,,,5e09ffd8fa3d102a583771c1,2020-11-27_11h10.02.855,lexical_decision_task_MP_exp2,2020.2.5,Win32,60,z,1,0.865305,,,,,,,,0.865305,1,,,,,,319,NW,"ID",33,zomber,ZOMBER,z,,,,,,0.052083333,-0.2265625,0,0,0,,0,76,76,258,1,
,,,,,,,,,,,,,,,,,,5e09ffd8fa3d102a583771c1,2020-11-27_11h10.02.855,lexical_decision_task_MP_exp2,2020.2.5,Win32,60,m,1,0.648425,,,,,,,,0.648425,1,,,,,,235,WORD,UN,33,pirate,GRUMPY,m,,,,,,0.052083333,-0.2265625,0,0,0,,0,77,77,174,1,
,,,,,,,,,,,,,,,,,,5e09ffd8fa3d102a583771c1,2020-11-27_11h10.02.855,lexical_decision_task_MP_exp2,2020.2.5,Win32,60,m,1,0.48226,,,,,,,,0.48226,1,,,,,,232,WORD,UN,33,nature,INJECT,m,,,,,,0.052083333,-0.2265625,0,0,0,,0,78,78,171,1,
,,,,,,,,,,,,,,,,,,5e09ffd8fa3d102a583771c1,2020-11-27_11h10.02.855,lexical_decision_task_MP_exp2,2020.2.5,Win32,60,z,1,0.72075,,,,,,,,0.72075,1,,,,,,368,NW,"ID",16,hornal,HORNAL,z,,,,,,0.052083333,-0.2265625,0,0,0,,0,79,79,307,1,
,,,,,,,,,,,,,,,,,,5e09ffd8fa3d102a583771c1,2020-11-27_11h10.02.855,lexical_decision_task_MP_exp2,2020.2.5,Win32,60,m,0,0.76408,,,,,,,,0.76408,0,,,,,,363,NW,"ID",16,breali,BREALI,z,,,,,,0.052083333,-0.2265625,0,0,0,,0,80,80,302,1,
,,,,,,,,,,,,,,,,,,5e09ffd8fa3d102a583771c1,2020-11-27_11h10.02.855,lexical_decision_task_MP_exp2,2020.2.5,Win32,60,z,1,0.832325,,,,,,,,0.832325,1,,,,,,463,NW,UN,33,chaite,KISPEL,z,,,,,,0.052083333,-0.2265625,0,0,0,,0,81,81,402,1,
,,,,,,,,,,,,,,,,,,5e09ffd8fa3d102a583771c1,2020-11-27_11h10.02.855,lexical_decision_task_MP_exp2,2020.2.5,Win32,60,m,1,0.695145,,,,,,,,0.695145,1,,,,,,36,WORD,UN,16,insult,VANISH,m,,,,,,0.052083333,-0.2265625,0,0,0,,0,82,82,215,1,
,,,,,,,,,,,,,,,,,,5e09ffd8fa3d102a583771c1,2020-11-27_11h10.02.855,lexical_decision_task_MP_exp2,2020.2.5,Win32,60,m,1,0.483965,,,,,,,,0.483965,1,,,,,,51,WORD,UN,16,impose,HUNGRY,m,,,,,,0.052083333,-0.2265625,0,0,0,,0,83,83,230,1,
,,,,,,,,,,,,,,,,,,5e09ffd8fa3d102a583771c1,2020-11-27_11h10.02.855,lexical_decision_task_MP_exp2,2020.2.5,Win32,60,z,1,0.63797,,,,,,,,0.63797,1,,,,,,339,NW,"ID",33,fachow,FACHOW,z,,,,,,0.052083333,-0.2265625,0,0,0,,0,84,84,278,1,
,,,,,,,,,,,,,,,,,,5e09ffd8fa3d102a583771c1,2020-11-27_11h10.02.855,lexical_decision_task_MP_exp2,2020.2.5,Win32,60,z,1,0.565065,,,,,,,,0.565065,1,,,,,,306,NW,"ID",33,sounge,SOUNGE,z,,,,,,0.052083333,-0.2265625,0,0,0,,0,85,85,245,1,
,,,,,,,,,,,,,,,,,,5e09ffd8fa3d102a583771c1,2020-11-27_11h10.02.855,lexical_decision_task_MP_exp2,2020.2.5,Win32,60,z,1,0.451285,,,,,,,,0.451285,1,,,,,,346,NW,"ID",33,saudic,SAUDIC,z,,,,,,0.052083333,-0.2265625,0,0,0,,0,86,86,285,1,
,,,,,,,,,,,,,,,,,,5e09ffd8fa3d102a583771c1,2020-11-27_11h10.02.855,lexical_decision_task_MP_exp2,2020.2.5,Win32,60,z,0,0.44841,,,,,,,,0.44841,0,,,,,,182,WORD,UN,33,absent,WINTER,m,,,,,,0.052083333,-0.2265625,0,0,0,,0,87,87,121,1,
,,,,,,,,,,,,,,,,,,5e09ffd8fa3d102a583771c1,2020-11-27_11h10.02.855,lexical_decision_task_MP_exp2,2020.2.5,Win32,60,m,0,0.548065,,,,,,,,0.548065,0,,,,,,297,NW,UN,16,piergy,FERTIC,z,,,,,,0.052083333,-0.2265625,0,0,0,,0,88,88,476,1,
,,,,,,,,,,,,,,,,,,5e09ffd8fa3d102a583771c1,2020-11-27_11h10.02.855,lexical_decision_task_MP_exp2,2020.2.5,Win32,60,z,1,1.40076,,,,,,,,1.40076,1,,,,,,278,NW,UN,16,celond,UNIGHS,z,,,,,,0.052083333,-0.2265625,0,0,0,,0,89,89,457,1,
,,,,,,,,,,,,,,,,,,5e09ffd8fa3d102a583771c1,2020-11-27_11h10.02.855,lexical_decision_task_MP_exp2,2020.2.5,Win32,60,z,1,0.65523,,,,,,,,0.65523,1,,,,,,442,NW,UN,33,dorsex,ABOUNE,z,,,,,,0.052083333,-0.2265625,0,0,0,,0,90,90,381,1,
,,,,,,,,,,,,,,,,,,5e09ffd8fa3d102a583771c1,2020-11-27_11h10.02.855,lexical_decision_task_MP_exp2,2020.2.5,Win32,60,m,1,0.630515,,,,,,,,0.630515,1,,,,,,160,WORD,"ID",16,violet,VIOLET,m,,,,,,0.052083333,-0.2265625,0,0,0,,0,91,91,99,1,
,,,,,,,,,,,,,,,,,,5e09ffd8fa3d102a583771c1,2020-11-27_11h10.02.855,lexical_decision_task_MP_exp2,2020.2.5,Win32,60,z,1,0.630225,,,,,,,,0.630225,1,,,,,,399,NW,"ID",16,fouret,FOURET,z,,,,,,0.052083333,-0.2265625,0,0,0,,0,92,92,338,1,
,,,,,,,,,,,,,,,,,,5e09ffd8fa3d102a583771c1,2020-11-27_11h10.02.855,lexical_decision_task_MP_exp2,2020.2.5,Win32,60,m,1,0.681825,,,,,,,,0.681825,1,,,,,,104,WORD,"ID",33,studio,STUDIO,m,,,,,,0.052083333,-0.2265625,0,0,0,,0,93,93,43,1,
,,,,,,,,,,,,,,,,,,5e09ffd8fa3d102a583771c1,2020-11-27_11h10.02.855,lexical_decision_task_MP_exp2,2020.2.5,Win32,60,m,1,0.680735,,,,,,,,0.680735,1,,,,,,177,WORD,"ID",16,advent,ADVENT,m,,,,,,0.052083333,-0.2265625,0,0,0,,0,94,94,116,1,
,,,,,,,,,,,,,,,,,,5e09ffd8fa3d102a583771c1,2020-11-27_11h10.02.855,lexical_decision_task_MP_exp2,2020.2.5,Win32,60,m,1,0.81791,,,,,,,,0.81791,1,,,,,,110,WORD,"ID",33,polite,POLITE,m,,,,,,0.052083333,-0.2265625,0,0,0,,0,95,95,49,1,
,,,,,,,,,,,,,,,,,,5e09ffd8fa3d102a583771c1,2020-11-27_11h10.02.855,lexical_decision_task_MP_exp2,2020.2.5,Win32,60,m,1,0.49883,,,,,,,,0.49883,1,,,,,,185,WORD,UN,33,portal,BOTHER,m,,,,,,0.052083333,-0.2265625,0,0,0,,0,96,96,124,1,
,,,,,,,,,,,,,,,,,,5e09ffd8fa3d102a583771c1,2020-11-27_11h10.02.855,lexical_decision_task_MP_exp2,2020.2.5,Win32,60,z,1,0.613055,,,,,,,,0.613055,1,,,,,,361,NW,"ID",16,pauche,PAUCHE,z,,,,,,0.052083333,-0.2265625,0,0,0,,0,97,97,300,1,
,,,,,,,,,,,,,,,,,,5e09ffd8fa3d102a583771c1,2020-11-27_11h10.02.855,lexical_decision_task_MP_exp2,2020.2.5,Win32,60,z,0,0.453425,,,,,,,,0.453425,0,,,,,,114,WORD,"ID",33,placid,PLACID,m,,,,,,0.052083333,-0.2265625,0,0,0,,0,98,98,53,1,
,,,,,,,,,,,,,,,,,,5e09ffd8fa3d102a583771c1,2020-11-27_11h10.02.855,lexical_decision_task_MP_exp2,2020.2.5,Win32,60,z,1,0.848425,,,,,,,,0.848425,1,,,,,,314,NW,"ID",33,sprine,SPRINE,z,,,,,,0.052083333,-0.2265625,0,0,0,,0,99,99,253,1,
,,,,,,,,,,,,,,,,,,5e09ffd8fa3d102a583771c1,2020-11-27_11h10.02.855,lexical_decision_task_MP_exp2,2020.2.5,Win32,60,m,1,0.71337,,,,,,,,0.71337,1,,,,,,54,WORD,UN,16,stroke,RAMBLE,m,,,,,,0.052083333,-0.2265625,0,0,0,,0,100,100,233,1,
,,,,,,,,,,,,,,,,,,5e09ffd8fa3d102a583771c1,2020-11-27_11h10.02.855,lexical_decision_task_MP_exp2,2020.2.5,Win32,60,z,1,0.698265,,,,,,,,0.698265,1,,,,,,340,NW,"ID",33,fiatch,FIATCH,z,,,,,,0.052083333,-0.2265625,0,0,0,,0,101,101,279,1,
,,,,,,,,,,,,,,,,,,5e09ffd8fa3d102a583771c1,2020-11-27_11h10.02.855,lexical_decision_task_MP_exp2,2020.2.5,Win32,60,z,1,0.71168,,,,,,,,0.71168,1,,,,,,292,NW,UN,16,swance,ABLINT,z,,,,,,0.052083333,-0.2265625,0,0,0,,0,102,102,471,1,
,,,,,,,,,,,,,,,,,,5e09ffd8fa3d102a583771c1,2020-11-27_11h10.02.855,lexical_decision_task_MP_exp2,2020.2.5,Win32,60,z,1,0.72558,,,,,,,,0.72558,1,,,,,,420,NW,"ID",16,gushop,GUSHOP,z,,,,,,0.052083333,-0.2265625,0,0,0,,0,103,103,359,1,
,,,,,,,,,,,,,,,,,,5e09ffd8fa3d102a583771c1,2020-11-27_11h10.02.855,lexical_decision_task_MP_exp2,2020.2.5,Win32,60,m,1,0.63089,,,,,,,,0.63089,1,,,,,,238,WORD,UN,33,behalf,FLOWER,m,,,,,,0.052083333,-0.2265625,0,0,0,,0,104,104,177,1,
,,,,,,,,,,,,,,,,,,5e09ffd8fa3d102a583771c1,2020-11-27_11h10.02.855,lexical_decision_task_MP_exp2,2020.2.5,Win32,60,m,1,0.6312,,,,,,,,0.6312,1,,,,,,202,WORD,UN,33,phrase,FACTOR,m,,,,,,0.052083333,-0.2265625,0,0,0,,0,105,105,141,1,
,,,,,,,,,,,,,,,,,,5e09ffd8fa3d102a583771c1,2020-11-27_11h10.02.855,lexical_decision_task_MP_exp2,2020.2.5,Win32,60,m,1,0.452455,,,,,,,,0.452455,1,,,,,,154,WORD,"ID",16,author,AUTHOR,m,,,,,,0.052083333,-0.2265625,0,0,0,,0,106,106,93,1,
,,,,,,,,,,,,,,,,,,5e09ffd8fa3d102a583771c1,2020-11-27_11h10.02.855,lexical_decision_task_MP_exp2,2020.2.5,Win32,60,m,1,0.513955,,,,,,,,0.513955,1,,,,,,32,WORD,UN,16,scream,BUCKLE,m,,,,,,0.052083333,-0.2265625,0,0,0,,0,107,107,211,1,
,,,,,,,,,,,,,,,,,,5e09ffd8fa3d102a583771c1,2020-11-27_11h10.02.855,lexical_decision_task_MP_exp2,2020.2.5,Win32,60,m,0,0.566195,,,,,,,,0.566195,0,,,,,,431,NW,UN,33,lunker,CHRUMS,z,,,,,,0.052083333,-0.2265625,0,0,0,,0,108,108,370,1,
,,,,,,,,,,,,,,,,,,5e09ffd8fa3d102a583771c1,2020-11-27_11h10.02.855,lexical_decision_task_MP_exp2,2020.2.5,Win32,60,m,1,0.69814,,,,,,,,0.69814,1,,,,,,133,WORD,"ID",16,chrome,CHROME,m,,,,,,0.052083333,-0.2265625,0,0,0,,0,109,109,72,1,
,,,,,,,,,,,,,,,,,,5e09ffd8fa3d102a583771c1,2020-11-27_11h10.02.855,lexical_decision_task_MP_exp2,2020.2.5,Win32,60,m,1,0.631485,,,,,,,,0.631485,1,,,,,,87,WORD,"ID",33,filter,FILTER,m,,,,,,0.052083333,-0.2265625,0,0,0,,0,110,110,26,1,
,,,,,,,,,,,,,,,,,,5e09ffd8fa3d102a583771c1,2020-11-27_11h10.02.855,lexical_decision_task_MP_exp2,2020.2.5,Win32,60,z,1,0.63348,,,,,,,,0.63348,1,,,,,,287,NW,UN,16,yaceup,NYMBEL,z,,,,,,0.052083333,-0.2265625,0,0,0,,0,111,111,466,1,
,,,,,,,,,,,,,,,,,,5e09ffd8fa3d102a583771c1,2020-11-27_11h10.02.855,lexical_decision_task_MP_exp2,2020.2.5,Win32,60,z,1,1.067595,,,,,,,,1.067595,1,,,,,,256,NW,UN,16,veniod,INLORS,z,,,,,,0.052083333,-0.2265625,0,0,0,,0,112,112,435,1,
,,,,,,,,,,,,,,,,,,5e09ffd8fa3d102a583771c1,2020-11-27_11h10.02.855,lexical_decision_task_MP_exp2,2020.2.5,Win32,60,m,1,0.588665,,,,,,,,0.588665,1,,,,,,93,WORD,"ID",33,public,PUBLIC,m,,,,,,0.052083333,-0.2265625,0,0,0,,0,113,113,32,1,
,,,,,,,,,,,,,,,,,,5e09ffd8fa3d102a583771c1,2020-11-27_11h10.02.855,lexical_decision_task_MP_exp2,2020.2.5,Win32,60,z,1,0.703395,,,,,,,,0.703395,1,,,,,,273,NW,UN,16,fumblo,SORTEL,z,,,,,,0.052083333,-0.2265625,0,0,0,,0,114,114,452,1,
,,,,,,,,,,,,,,,,,,5e09ffd8fa3d102a583771c1,2020-11-27_11h10.02.855,lexical_decision_task_MP_exp2,2020.2.5,Win32,60,m,1,0.718345,,,,,,,,0.718345,1,,,,,,139,WORD,"ID",16,debris,DEBRIS,m,,,,,,0.052083333,-0.2265625,0,0,0,,0,115,115,78,1,
,,,,,,,,,,,,,,,,,,5e09ffd8fa3d102a583771c1,2020-11-27_11h10.02.855,lexical_decision_task_MP_exp2,2020.2.5,Win32,60,z,1,0.88126,,,,,,,,0.88126,1,,,,,,267,NW,UN,16,packes,PASINK,z,,,,,,0.052083333,-0.2265625,0,0,0,,0,116,116,446,1,
,,,,,,,,,,,,,,,,,,5e09ffd8fa3d102a583771c1,2020-11-27_11h10.02.855,lexical_decision_task_MP_exp2,2020.2.5,Win32,60,m,1,0.680935,,,,,,,,0.680935,1,,,,,,207,WORD,UN,33,hockey,WREATH,m,,,,,,0.052083333,-0.2265625,0,0,0,,0,117,117,146,1,
,,,,,,,,,,,,,,,,,,5e09ffd8fa3d102a583771c1,2020-11-27_11h10.02.855,lexical_decision_task_MP_exp2,2020.2.5,Win32,60,m,1,0.51774,,,,,,,,0.51774,1,,,,,,102,WORD,"ID",33,direct,DIRECT,m,,,,,,0.052083333,-0.2265625,0,0,0,,0,118,118,41,1,
,,,,,,,,,,,,,,,,,,5e09ffd8fa3d102a583771c1,2020-11-27_11h10.02.855,lexical_decision_task_MP_exp2,2020.2.5,Win32,60,m,1,0.39712,,,,,,,,0.39712,1,,,,,,59,WORD,UN,16,pencil,SPLINT,m,,,,,,0.052083333,-0.2265625,0,0,0,,0,119,119,238,1,
,,,,,,,,,,,,,,,,,,5e09ffd8fa3d102a583771c1,2020-11-27_11h10.02.855,lexical_decision_task_MP_exp2,2020.2.5,Win32,60,m,1,0.45417,,,,,,,,0.45417,1,,,,,,89,WORD,"ID",33,permit,PERMIT,m,,,,,,0.052083333,-0.2265625,0,0,0,space,0,120,120,28,1,12.200085
,,,,,,,,,,,,,,,,,,5e09ffd8fa3d102a583771c1,2020-11-27_11h10.02.855,lexical_decision_task_MP_exp2,2020.2.5,Win32,60,z,1,1.896565,,,,,,,,1.896565,1,,,,,,475,NW,UN,33,josted,PEBRIC,z,,,,,,0.052083333,-0.2265625,0,0,0,,0,121,121,414,1,
,,,,,,,,,,,,,,,,,,5e09ffd8fa3d102a583771c1,2020-11-27_11h10.02.855,lexical_decision_task_MP_exp2,2020.2.5,Win32,60,z,1,0.630475,,,,,,,,0.630475,1,,,,,,403,NW,"ID",16,bruats,BRUATS,z,,,,,,0.052083333,-0.2265625,0,0,0,,0,122,122,342,1,
,,,,,,,,,,,,,,,,,,5e09ffd8fa3d102a583771c1,2020-11-27_11h10.02.855,lexical_decision_task_MP_exp2,2020.2.5,Win32,60,m,1,0.59881,,,,,,,,0.59881,1,,,,,,70,WORD,"ID",33,square,SQUARE,m,,,,,,0.052083333,-0.2265625,0,0,0,,0,123,123,9,1,
,,,,,,,,,,,,,,,,,,5e09ffd8fa3d102a583771c1,2020-11-27_11h10.02.855,lexical_decision_task_MP_exp2,2020.2.5,Win32,60,z,1,0.74755,,,,,,,,0.74755,1,,,,,,320,NW,"ID",33,jockal,JOCKAL,z,,,,,,0.052083333,-0.2265625,0,0,0,,0,124,124,259,1,
,,,,,,,,,,,,,,,,,,5e09ffd8fa3d102a583771c1,2020-11-27_11h10.02.855,lexical_decision_task_MP_exp2,2020.2.5,Win32,60,z,1,0.4532,,,,,,,,0.4532,1,,,,,,400,NW,"ID",16,wearox,WEAROX,z,,,,,,0.052083333,-0.2265625,0,0,0,,0,125,125,339,1,
,,,,,,,,,,,,,,,,,,5e09ffd8fa3d102a583771c1,2020-11-27_11h10.02.855,lexical_decision_task_MP_exp2,2020.2.5,Win32,60,m,1,0.67028,,,,,,,,0.67028,1,,,,,,10,WORD,UN,16,cruise,ETHNIC,m,,,,,,0.052083333,-0.2265625,0,0,0,,0,126,126,189,1,
,,,,,,,,,,,,,,,,,,5e09ffd8fa3d102a583771c1,2020-11-27_11h10.02.855,lexical_decision_task_MP_exp2,2020.2.5,Win32,60,z,1,0.702595,,,,,,,,0.702595,1,,,,,,413,NW,"ID",16,equats,EQUATS,z,,,,,,0.052083333,-0.2265625,0,0,0,,0,127,127,352,1,
,,,,,,,,,,,,,,,,,,5e09ffd8fa3d102a583771c1,2020-11-27_11h10.02.855,lexical_decision_task_MP_exp2,2020.2.5,Win32,60,z,1,0.59885,,,,,,,,0.59885,1,,,,,,398,NW,"ID",16,blunde,BLUNDE,z,,,,,,0.052083333,-0.2265625,0,0,0,,0,128,128,337,1,
,,,,,,,,,,,,,,,,,,5e09ffd8fa3d102a583771c1,2020-11-27_11h10.02.855,lexical_decision_task_MP_exp2,2020.2.5,Win32,60,z,1,0.46618,,,,,,,,0.46618,1,,,,,,461,NW,UN,33,absult,JUSTRE,z,,,,,,0.052083333,-0.2265625,0,0,0,,0,129,129,400,1,
,,,,,,,,,,,,,,,,,,5e09ffd8fa3d102a583771c1,2020-11-27_11h10.02.855,lexical_decision_task_MP_exp2,2020.2.5,Win32,60,z,1,0.49837,,,,,,,,0.49837,1,,,,,,457,NW,UN,33,barcet,WANIGH,z,,,,,,0.052083333,-0.2265625,0,0,0,,0,130,130,396,1,
,,,,,,,,,,,,,,,,,,5e09ffd8fa3d102a583771c1,2020-11-27_11h10.02.855,lexical_decision_task_MP_exp2,2020.2.5,Win32,60,z,1,0.514265,,,,,,,,0.514265,1,,,,,,262,NW,UN,16,dolica,QUILEW,z,,,,,,0.052083333,-0.2265625,0,0,0,,0,131,131,441,1,
,,,,,,,,,,,,,,,,,,5e09ffd8fa3d102a583771c1,2020-11-27_11h10.02.855,lexical_decision_task_MP_exp2,2020.2.5,Win32,60,m,1,0.48705,,,,,,,,0.48705,1,,,,,,186,WORD,UN,33,course,PORTAL,m,,,,,,0.052083333,-0.2265625,0,0,0,,0,132,132,125,1,
,,,,,,,,,,,,,,,,,,5e09ffd8fa3d102a583771c1,2020-11-27_11h10.02.855,lexical_decision_task_MP_exp2,2020.2.5,Win32,60,z,1,0.654265,,,,,,,,0.654265,1,,,,,,460,NW,UN,33,justre,MINGAR,z,,,,,,0.052083333,-0.2265625,0,0,0,,0,133,133,399,1,
,,,,,,,,,,,,,,,,,,5e09ffd8fa3d102a583771c1,2020-11-27_11h10.02.855,lexical_decision_task_MP_exp2,2020.2.5,Win32,60,m,1,0.53021,,,,,,,,0.53021,1,,,,,,180,WORD,"ID",16,silent,SILENT,m,,,,,,0.052083333,-0.2265625,0,0,0,,0,134,134,119,1,
,,,,,,,,,,,,,,,,,,5e09ffd8fa3d102a583771c1,2020-11-27_11h10.02.855,lexical_decision_task_MP_exp2,2020.2.5,Win32,60,m,1,0.515595,,,,,,,,0.515595,1,,,,,,109,WORD,"ID",33,wonder,WONDER,m,,,,,,0.052083333,-0.2265625,0,0,0,,0,135,135,48,1,
,,,,,,,,,,,,,,,,,,5e09ffd8fa3d102a583771c1,2020-11-27_11h10.02.855,lexical_decision_task_MP_exp2,2020.2.5,Win32,60,m,1,0.53923,,,,,,,,0.53923,1,,,,,,231,WORD,UN,33,inject,EXPORT,m,,,,,,0.052083333,-0.2265625,0,0,0,,0,136,136,170,1,
,,,,,,,,,,,,,,,,,,5e09ffd8fa3d102a583771c1,2020-11-27_11h10.02.855,lexical_decision_task_MP_exp2,2020.2.5,Win32,60,z,1,0.70387,,,,,,,,0.70387,1,,,,,,438,NW,UN,33,limpor,BAITCH,z,,,,,,0.052083333,-0.2265625,0,0,0,,0,137,137,377,1,
,,,,,,,,,,,,,,,,,,5e09ffd8fa3d102a583771c1,2020-11-27_11h10.02.855,lexical_decision_task_MP_exp2,2020.2.5,Win32,60,m,1,0.70372,,,,,,,,0.70372,1,,,,,,33,WORD,UN,16,jungle,BUTLER,m,,,,,,0.052083333,-0.2265625,0,0,0,,0,138,138,212,1,
,,,,,,,,,,,,,,,,,,5e09ffd8fa3d102a583771c1,2020-11-27_11h10.02.855,lexical_decision_task_MP_exp2,2020.2.5,Win32,60,z,1,0.78234,,,,,,,,0.78234,1,,,,,,421,NW,UN,33,alcoud,KNISMA,z,,,,,,0.052083333,-0.2265625,0,0,0,,0,139,139,360,1,
,,,,,,,,,,,,,,,,,,5e09ffd8fa3d102a583771c1,2020-11-27_11h10.02.855,lexical_decision_task_MP_exp2,2020.2.5,Win32,60,z,1,1.001245,,,,,,,,1.001245,1,,,,,,303,NW,"ID",33,fiream,FIREAM,z,,,,,,0.052083333,-0.2265625,0,0,0,,0,140,140,242,1,
,,,,,,,,,,,,,,,,,,5e09ffd8fa3d102a583771c1,2020-11-27_11h10.02.855,lexical_decision_task_MP_exp2,2020.2.5,Win32,60,m,1,0.668545,,,,,,,,0.668545,1,,,,,,138,WORD,"ID",16,melody,MELODY,m,,,,,,0.052083333,-0.2265625,0,0,0,,0,141,141,77,1,
,,,,,,,,,,,,,,,,,,5e09ffd8fa3d102a583771c1,2020-11-27_11h10.02.855,lexical_decision_task_MP_exp2,2020.2.5,Win32,60,z,1,0.60649,,,,,,,,0.60649,1,,,,,,470,NW,UN,33,nobest,CRUDIO,z,,,,,,0.052083333,-0.2265625,0,0,0,,0,142,142,409,1,
,,,,,,,,,,,,,,,,,,5e09ffd8fa3d102a583771c1,2020-11-27_11h10.02.855,lexical_decision_task_MP_exp2,2020.2.5,Win32,60,m,1,1.21565,,,,,,,,1.21565,1,,,,,,52,WORD,UN,16,police,IMPOSE,m,,,,,,0.052083333,-0.2265625,0,0,0,,0,143,143,231,1,
,,,,,,,,,,,,,,,,,,5e09ffd8fa3d102a583771c1,2020-11-27_11h10.02.855,lexical_decision_task_MP_exp2,2020.2.5,Win32,60,m,1,0.465285,,,,,,,,0.465285,1,,,,,,105,WORD,"ID",33,number,NUMBER,m,,,,,,0.052083333,-0.2265625,0,0,0,,0,144,144,44,1,
,,,,,,,,,,,,,,,,,,5e09ffd8fa3d102a583771c1,2020-11-27_11h10.02.855,lexical_decision_task_MP_exp2,2020.2.5,Win32,60,m,1,0.59779,,,,,,,,0.59779,1,,,,,,106,WORD,"ID",33,ransom,RANSOM,m,,,,,,0.052083333,-0.2265625,0,0,0,,0,145,145,45,1,
,,,,,,,,,,,,,,,,,,5e09ffd8fa3d102a583771c1,2020-11-27_11h10.02.855,lexical_decision_task_MP_exp2,2020.2.5,Win32,60,m,1,0.42642,,,,,,,,0.42642,1,,,,,,173,WORD,"ID",16,shower,SHOWER,m,,,,,,0.052083333,-0.2265625,0,0,0,,0,146,146,112,1,
,,,,,,,,,,,,,,,,,,5e09ffd8fa3d102a583771c1,2020-11-27_11h10.02.855,lexical_decision_task_MP_exp2,2020.2.5,Win32,60,z,1,0.64145,,,,,,,,0.64145,1,,,,,,465,NW,UN,33,bafent,WHIVEX,z,,,,,,0.052083333,-0.2265625,0,0,0,,0,147,147,404,1,
,,,,,,,,,,,,,,,,,,5e09ffd8fa3d102a583771c1,2020-11-27_11h10.02.855,lexical_decision_task_MP_exp2,2020.2.5,Win32,60,m,1,0.6811,,,,,,,,0.6811,1,,,,,,8,WORD,UN,16,hustle,ABRUPT,m,,,,,,0.052083333,-0.2265625,0,0,0,,0,148,148,187,1,
,,,,,,,,,,,,,,,,,,5e09ffd8fa3d102a583771c1,2020-11-27_11h10.02.855,lexical_decision_task_MP_exp2,2020.2.5,Win32,60,m,1,0.4978,,,,,,,,0.4978,1,,,,,,28,WORD,UN,16,sketch,COMEDY,m,,,,,,0.052083333,-0.2265625,0,0,0,,0,149,149,207,1,
,,,,,,,,,,,,,,,,,,5e09ffd8fa3d102a583771c1,2020-11-27_11h10.02.855,lexical_decision_task_MP_exp2,2020.2.5,Win32,60,m,1,0.537515,,,,,,,,0.537515,1,,,,,,111,WORD,"ID",33,induce,INDUCE,m,,,,,,0.052083333,-0.2265625,0,0,0,,0,150,150,50,1,
,,,,,,,,,,,,,,,,,,5e09ffd8fa3d102a583771c1,2020-11-27_11h10.02.855,lexical_decision_task_MP_exp2,2020.2.5,Win32,60,m,1,0.46421,,,,,,,,0.46421,1,,,,,,43,WORD,UN,16,foster,TONGUE,m,,,,,,0.052083333,-0.2265625,0,0,0,,0,151,151,222,1,
,,,,,,,,,,,,,,,,,,5e09ffd8fa3d102a583771c1,2020-11-27_11h10.02.855,lexical_decision_task_MP_exp2,2020.2.5,Win32,60,z,1,0.764705,,,,,,,,0.764705,1,,,,,,449,NW,UN,33,phrect,BRUNGE,z,,,,,,0.052083333,-0.2265625,0,0,0,,0,152,152,388,1,
,,,,,,,,,,,,,,,,,,5e09ffd8fa3d102a583771c1,2020-11-27_11h10.02.855,lexical_decision_task_MP_exp2,2020.2.5,Win32,60,z,1,0.698775,,,,,,,,0.698775,1,,,,,,441,NW,UN,33,aboune,RASTOE,z,,,,,,0.052083333,-0.2265625,0,0,0,,0,153,153,380,1,
,,,,,,,,,,,,,,,,,,5e09ffd8fa3d102a583771c1,2020-11-27_11h10.02.855,lexical_decision_task_MP_exp2,2020.2.5,Win32,60,z,1,0.53186,,,,,,,,0.53186,1,,,,,,298,NW,UN,16,sturch,PIERGY,z,,,,,,0.052083333,-0.2265625,0,0,0,,0,154,154,477,1,
,,,,,,,,,,,,,,,,,,5e09ffd8fa3d102a583771c1,2020-11-27_11h10.02.855,lexical_decision_task_MP_exp2,2020.2.5,Win32,60,z,1,0.47551,,,,,,,,0.47551,1,,,,,,258,NW,UN,16,soudal,POLUTH,z,,,,,,0.052083333,-0.2265625,0,0,0,,0,155,155,437,1,
,,,,,,,,,,,,,,,,,,5e09ffd8fa3d102a583771c1,2020-11-27_11h10.02.855,lexical_decision_task_MP_exp2,2020.2.5,Win32,60,m,0,0.530435,,,,,,,,0.530435,0,,,,,,364,NW,"ID",16,impote,IMPOTE,z,,,,,,0.052083333,-0.2265625,0,0,0,,0,156,156,303,1,
,,,,,,,,,,,,,,,,,,5e09ffd8fa3d102a583771c1,2020-11-27_11h10.02.855,lexical_decision_task_MP_exp2,2020.2.5,Win32,60,z,1,1.317755,,,,,,,,1.317755,1,,,,,,348,NW,"ID",33,dumple,DUMPLE,z,,,,,,0.052083333,-0.2265625,0,0,0,,0,157,157,287,1,
,,,,,,,,,,,,,,,,,,5e09ffd8fa3d102a583771c1,2020-11-27_11h10.02.855,lexical_decision_task_MP_exp2,2020.2.5,Win32,60,z,1,0.65222,,,,,,,,0.65222,1,,,,,,276,NW,UN,16,petain,YARMON,z,,,,,,0.052083333,-0.2265625,0,0,0,,0,158,158,455,1,
,,,,,,,,,,,,,,,,,,5e09ffd8fa3d102a583771c1,2020-11-27_11h10.02.855,lexical_decision_task_MP_exp2,2020.2.5,Win32,60,m,1,0.60733,,,,,,,,0.60733,1,,,,,,26,WORD,UN,16,butler,SPRINT,m,,,,,,0.052083333,-0.2265625,0,0,0,,0,159,159,205,1,
,,,,,,,,,,,,,,,,,,5e09ffd8fa3d102a583771c1,2020-11-27_11h10.02.855,lexical_decision_task_MP_exp2,2020.2.5,Win32,60,m,1,0.664485,,,,,,,,0.664485,1,,,,,,179,WORD,"ID",16,basket,BASKET,m,,,,,,0.052083333,-0.2265625,0,0,0,,0,160,160,118,1,
,,,,,,,,,,,,,,,,,,5e09ffd8fa3d102a583771c1,2020-11-27_11h10.02.855,lexical_decision_task_MP_exp2,2020.2.5,Win32,60,z,1,0.59675,,,,,,,,0.59675,1,,,,,,252,NW,UN,16,resait,STAPOD,z,,,,,,0.052083333,-0.2265625,0,0,0,,0,161,161,431,1,
,,,,,,,,,,,,,,,,,,5e09ffd8fa3d102a583771c1,2020-11-27_11h10.02.855,lexical_decision_task_MP_exp2,2020.2.5,Win32,60,m,1,0.748685,,,,,,,,0.748685,1,,,,,,100,WORD,"ID",33,carbon,CARBON,m,,,,,,0.052083333,-0.2265625,0,0,0,,0,162,162,39,1,
,,,,,,,,,,,,,,,,,,5e09ffd8fa3d102a583771c1,2020-11-27_11h10.02.855,lexical_decision_task_MP_exp2,2020.2.5,Win32,60,m,1,0.69418,,,,,,,,0.69418,1,,,,,,191,WORD,UN,33,beacon,STABLE,m,,,,,,0.052083333,-0.2265625,0,0,0,,0,163,163,130,1,
,,,,,,,,,,,,,,,,,,5e09ffd8fa3d102a583771c1,2020-11-27_11h10.02.855,lexical_decision_task_MP_exp2,2020.2.5,Win32,60,m,1,0.72262,,,,,,,,0.72262,1,,,,,,195,WORD,UN,33,credit,RESIGN,m,,,,,,0.052083333,-0.2265625,0,0,0,,0,164,164,134,1,
,,,,,,,,,,,,,,,,,,5e09ffd8fa3d102a583771c1,2020-11-27_11h10.02.855,lexical_decision_task_MP_exp2,2020.2.5,Win32,60,m,1,0.614105,,,,,,,,0.614105,1,,,,,,24,WORD,UN,16,domain,PRAISE,m,,,,,,0.052083333,-0.2265625,0,0,0,,0,165,165,203,1,
,,,,,,,,,,,,,,,,,,5e09ffd8fa3d102a583771c1,2020-11-27_11h10.02.855,lexical_decision_task_MP_exp2,2020.2.5,Win32,60,z,1,0.63088,,,,,,,,0.63088,1,,,,,,381,NW,"ID",16,huniek,HUNIEK,z,,,,,,0.052083333,-0.2265625,0,0,0,,0,166,166,320,1,
,,,,,,,,,,,,,,,,,,5e09ffd8fa3d102a583771c1,2020-11-27_11h10.02.855,lexical_decision_task_MP_exp2,2020.2.5,Win32,60,z,1,0.50061,,,,,,,,0.50061,1,,,,,,437,NW,UN,33,baitch,SNAPEL,z,,,,,,0.052083333,-0.2265625,0,0,0,,0,167,167,376,1,
,,,,,,,,,,,,,,,,,,5e09ffd8fa3d102a583771c1,2020-11-27_11h10.02.855,lexical_decision_task_MP_exp2,2020.2.5,Win32,60,m,1,0.74713,,,,,,,,0.74713,1,,,,,,178,WORD,"ID",16,inform,INFORM,m,,,,,,0.052083333,-0.2265625,0,0,0,,0,168,168,117,1,
,,,,,,,,,,,,,,,,,,5e09ffd8fa3d102a583771c1,2020-11-27_11h10.02.855,lexical_decision_task_MP_exp2,2020.2.5,Win32,60,m,1,0.814295,,,,,,,,0.814295,1,,,,,,46,WORD,UN,16,income,SINGLE,m,,,,,,0.052083333,-0.2265625,0,0,0,,0,169,169,225,1,
,,,,,,,,,,,,,,,,,,5e09ffd8fa3d102a583771c1,2020-11-27_11h10.02.855,lexical_decision_task_MP_exp2,2020.2.5,Win32,60,m,1,0.53243,,,,,,,,0.53243,1,,,,,,113,WORD,"ID",33,chorus,CHORUS,m,,,,,,0.052083333,-0.2265625,0,0,0,,0,170,170,52,1,
,,,,,,,,,,,,,,,,,,5e09ffd8fa3d102a583771c1,2020-11-27_11h10.02.855,lexical_decision_task_MP_exp2,2020.2.5,Win32,60,m,1,0.601025,,,,,,,,0.601025,1,,,,,,164,WORD,"ID",16,market,MARKET,m,,,,,,0.052083333,-0.2265625,0,0,0,,0,171,171,103,1,
,,,,,,,,,,,,,,,,,,5e09ffd8fa3d102a583771c1,2020-11-27_11h10.02.855,lexical_decision_task_MP_exp2,2020.2.5,Win32,60,z,1,0.76583,,,,,,,,0.76583,1,,,,,,272,NW,UN,16,sortel,DAMILT,z,,,,,,0.052083333,-0.2265625,0,0,0,,0,172,172,451,1,
,,,,,,,,,,,,,,,,,,5e09ffd8fa3d102a583771c1,2020-11-27_11h10.02.855,lexical_decision_task_MP_exp2,2020.2.5,Win32,60,z,1,0.49792,,,,,,,,0.49792,1,,,,,,405,NW,"ID",16,flumni,FLUMNI,z,,,,,,0.052083333,-0.2265625,0,0,0,,0,173,173,344,1,
,,,,,,,,,,,,,,,,,,5e09ffd8fa3d102a583771c1,2020-11-27_11h10.02.855,lexical_decision_task_MP_exp2,2020.2.5,Win32,60,z,1,0.46584,,,,,,,,0.46584,1,,,,,,321,NW,"ID",33,miator,MIATOR,z,,,,,,0.052083333,-0.2265625,0,0,0,,0,174,174,260,1,
,,,,,,,,,,,,,,,,,,5e09ffd8fa3d102a583771c1,2020-11-27_11h10.02.855,lexical_decision_task_MP_exp2,2020.2.5,Win32,60,z,1,0.55218,,,,,,,,0.55218,1,,,,,,345,NW,"ID",33,absend,ABSEND,z,,,,,,0.052083333,-0.2265625,0,0,0,,0,175,175,284,1,
,,,,,,,,,,,,,,,,,,5e09ffd8fa3d102a583771c1,2020-11-27_11h10.02.855,lexical_decision_task_MP_exp2,2020.2.5,Win32,60,m,1,0.605325,,,,,,,,0.605325,1,,,,,,230,WORD,UN,33,mother,FRINGE,m,,,,,,0.052083333,-0.2265625,0,0,0,,0,176,176,169,1,
,,,,,,,,,,,,,,,,,,5e09ffd8fa3d102a583771c1,2020-11-27_11h10.02.855,lexical_decision_task_MP_exp2,2020.2.5,Win32,60,z,1,0.61465,,,,,,,,0.61465,1,,,,,,404,NW,"ID",16,cluirm,CLUIRM,z,,,,,,0.052083333,-0.2265625,0,0,0,,0,177,177,343,1,
,,,,,,,,,,,,,,,,,,5e09ffd8fa3d102a583771c1,2020-11-27_11h10.02.855,lexical_decision_task_MP_exp2,2020.2.5,Win32,60,m,1,0.54759,,,,,,,,0.54759,1,,,,,,169,WORD,"ID",16,genius,GENIUS,m,,,,,,0.052083333,-0.2265625,0,0,0,,0,178,178,108,1,
,,,,,,,,,,,,,,,,,,5e09ffd8fa3d102a583771c1,2020-11-27_11h10.02.855,lexical_decision_task_MP_exp2,2020.2.5,Win32,60,m,1,0.58357,,,,,,,,0.58357,1,,,,,,237,WORD,UN,33,glance,POSTER,m,,,,,,0.052083333,-0.2265625,0,0,0,,0,179,179,176,1,
,,,,,,,,,,,,,,,,,,5e09ffd8fa3d102a583771c1,2020-11-27_11h10.02.855,lexical_decision_task_MP_exp2,2020.2.5,Win32,60,m,1,0.491625,,,,,,,,0.491625,1,,,,,,13,WORD,UN,16,almost,STRIVE,m,,,,,,0.052083333,-0.2265625,0,0,0,,0,180,180,192,1,
,,,,,,,,,,,,,,,,,,5e09ffd8fa3d102a583771c1,2020-11-27_11h10.02.855,lexical_decision_task_MP_exp2,2020.2.5,Win32,60,m,1,0.54791,,,,,,,,0.54791,1,,,,,,73,WORD,"ID",33,source,SOURCE,m,,,,,,0.052083333,-0.2265625,0,0,0,,0,181,181,12,1,
,,,,,,,,,,,,,,,,,,5e09ffd8fa3d102a583771c1,2020-11-27_11h10.02.855,lexical_decision_task_MP_exp2,2020.2.5,Win32,60,z,1,0.69811,,,,,,,,0.69811,1,,,,,,473,NW,UN,33,hablin,CRIBLE,z,,,,,,0.052083333,-0.2265625,0,0,0,,0,182,182,412,1,
,,,,,,,,,,,,,,,,,,5e09ffd8fa3d102a583771c1,2020-11-27_11h10.02.855,lexical_decision_task_MP_exp2,2020.2.5,Win32,60,z,1,0.48536,,,,,,,,0.48536,1,,,,,,439,NW,UN,33,saride,LIMPOR,z,,,,,,0.052083333,-0.2265625,0,0,0,,0,183,183,378,1,
,,,,,,,,,,,,,,,,,,5e09ffd8fa3d102a583771c1,2020-11-27_11h10.02.855,lexical_decision_task_MP_exp2,2020.2.5,Win32,60,z,1,0.53153,,,,,,,,0.53153,1,,,,,,396,NW,"ID",16,flengy,FLENGY,z,,,,,,0.052083333,-0.2265625,0,0,0,,0,184,184,335,1,
,,,,,,,,,,,,,,,,,,5e09ffd8fa3d102a583771c1,2020-11-27_11h10.02.855,lexical_decision_task_MP_exp2,2020.2.5,Win32,60,z,1,0.450335,,,,,,,,0.450335,1,,,,,,416,NW,"ID",16,pathel,PATHEL,z,,,,,,0.052083333,-0.2265625,0,0,0,,0,185,185,355,1,
,,,,,,,,,,,,,,,,,,5e09ffd8fa3d102a583771c1,2020-11-27_11h10.02.855,lexical_decision_task_MP_exp2,2020.2.5,Win32,60,z,1,0.54078,,,,,,,,0.54078,1,,,,,,378,NW,"ID",16,shrile,SHRILE,z,,,,,,0.052083333,-0.2265625,0,0,0,,0,186,186,317,1,
,,,,,,,,,,,,,,,,,,5e09ffd8fa3d102a583771c1,2020-11-27_11h10.02.855,lexical_decision_task_MP_exp2,2020.2.5,Win32,60,z,1,0.44891,,,,,,,,0.44891,1,,,,,,456,NW,UN,33,wanigh,BROGET,z,,,,,,0.052083333,-0.2265625,0,0,0,,0,187,187,395,1,
,,,,,,,,,,,,,,,,,,5e09ffd8fa3d102a583771c1,2020-11-27_11h10.02.855,lexical_decision_task_MP_exp2,2020.2.5,Win32,60,z,1,0.747755,,,,,,,,0.747755,1,,,,,,458,NW,UN,33,hocite,BARCET,z,,,,,,0.052083333,-0.2265625,0,0,0,,0,188,188,397,1,
,,,,,,,,,,,,,,,,,,5e09ffd8fa3d102a583771c1,2020-11-27_11h10.02.855,lexical_decision_task_MP_exp2,2020.2.5,Win32,60,m,1,0.51793,,,,,,,,0.51793,1,,,,,,152,WORD,"ID",16,rocket,ROCKET,m,,,,,,0.052083333,-0.2265625,0,0,0,,0,189,189,91,1,
,,,,,,,,,,,,,,,,,,5e09ffd8fa3d102a583771c1,2020-11-27_11h10.02.855,lexical_decision_task_MP_exp2,2020.2.5,Win32,60,m,1,0.46457,,,,,,,,0.46457,1,,,,,,123,WORD,"ID",16,strike,STRIKE,m,,,,,,0.052083333,-0.2265625,0,0,0,,0,190,190,62,1,
,,,,,,,,,,,,,,,,,,5e09ffd8fa3d102a583771c1,2020-11-27_11h10.02.855,lexical_decision_task_MP_exp2,2020.2.5,Win32,60,z,1,0.54991,,,,,,,,0.54991,1,,,,,,371,NW,"ID",16,geiloy,GEILOY,z,,,,,,0.052083333,-0.2265625,0,0,0,,0,191,191,310,1,
,,,,,,,,,,,,,,,,,,5e09ffd8fa3d102a583771c1,2020-11-27_11h10.02.855,lexical_decision_task_MP_exp2,2020.2.5,Win32,60,z,1,0.450505,,,,,,,,0.450505,1,,,,,,432,NW,UN,33,drance,LUNKER,z,,,,,,0.052083333,-0.2265625,0,0,0,,0,192,192,371,1,
,,,,,,,,,,,,,,,,,,5e09ffd8fa3d102a583771c1,2020-11-27_11h10.02.855,lexical_decision_task_MP_exp2,2020.2.5,Win32,60,m,1,0.69815,,,,,,,,0.69815,1,,,,,,193,WORD,UN,33,mildew,OBJECT,m,,,,,,0.052083333,-0.2265625,0,0,0,,0,193,193,132,1,
,,,,,,,,,,,,,,,,,,5e09ffd8fa3d102a583771c1,2020-11-27_11h10.02.855,lexical_decision_task_MP_exp2,2020.2.5,Win32,60,z,1,1.031175,,,,,,,,1.031175,1,,,,,,362,NW,"ID",16,tireau,TIREAU,z,,,,,,0.052083333,-0.2265625,0,0,0,,0,194,194,301,1,
,,,,,,,,,,,,,,,,,,5e09ffd8fa3d102a583771c1,2020-11-27_11h10.02.855,lexical_decision_task_MP_exp2,2020.2.5,Win32,60,z,1,0.5159,,,,,,,,0.5159,1,,,,,,393,NW,"ID",16,ganous,GANOUS,z,,,,,,0.052083333,-0.2265625,0,0,0,,0,195,195,332,1,
,,,,,,,,,,,,,,,,,,5e09ffd8fa3d102a583771c1,2020-11-27_11h10.02.855,lexical_decision_task_MP_exp2,2020.2.5,Win32,60,m,1,0.55473,,,,,,,,0.55473,1,,,,,,61,WORD,"ID",33,ponder,PONDER,m,,,,,,0.052083333,-0.2265625,0,0,0,,0,196,196,0,1,
,,,,,,,,,,,,,,,,,,5e09ffd8fa3d102a583771c1,2020-11-27_11h10.02.855,lexical_decision_task_MP_exp2,2020.2.5,Win32,60,z,1,0.848165,,,,,,,,0.848165,1,,,,,,308,NW,"ID",33,psetch,PSETCH,z,,,,,,0.052083333,-0.2265625,0,0,0,,0,197,197,247,1,
,,,,,,,,,,,,,,,,,,5e09ffd8fa3d102a583771c1,2020-11-27_11h10.02.855,lexical_decision_task_MP_exp2,2020.2.5,Win32,60,z,1,0.82931,,,,,,,,0.82931,1,,,,,,410,NW,"ID",16,tunory,TUNORY,z,,,,,,0.052083333,-0.2265625,0,0,0,,0,198,198,349,1,
,,,,,,,,,,,,,,,,,,5e09ffd8fa3d102a583771c1,2020-11-27_11h10.02.855,lexical_decision_task_MP_exp2,2020.2.5,Win32,60,m,1,0.75423,,,,,,,,0.75423,1,,,,,,233,WORD,UN,33,clumsy,NATURE,m,,,,,,0.052083333,-0.2265625,0,0,0,,0,199,199,172,1,
,,,,,,,,,,,,,,,,,,5e09ffd8fa3d102a583771c1,2020-11-27_11h10.02.855,lexical_decision_task_MP_exp2,2020.2.5,Win32,60,m,1,0.431715,,,,,,,,0.431715,1,,,,,,35,WORD,UN,16,vanish,SOCKET,m,,,,,,0.052083333,-0.2265625,0,0,0,,0,200,200,214,1,
,,,,,,,,,,,,,,,,,,5e09ffd8fa3d102a583771c1,2020-11-27_11h10.02.855,lexical_decision_task_MP_exp2,2020.2.5,Win32,60,m,1,0.797325,,,,,,,,0.797325,1,,,,,,77,WORD,"ID",33,racket,RACKET,m,,,,,,0.052083333,-0.2265625,0,0,0,,0,201,201,16,1,
,,,,,,,,,,,,,,,,,,5e09ffd8fa3d102a583771c1,2020-11-27_11h10.02.855,lexical_decision_task_MP_exp2,2020.2.5,Win32,60,z,1,0.59778,,,,,,,,0.59778,1,,,,,,360,NW,"ID",33,desory,DESORY,z,,,,,,0.052083333,-0.2265625,0,0,0,,0,202,202,299,1,
,,,,,,,,,,,,,,,,,,5e09ffd8fa3d102a583771c1,2020-11-27_11h10.02.855,lexical_decision_task_MP_exp2,2020.2.5,Win32,60,m,1,0.697565,,,,,,,,0.697565,1,,,,,,74,WORD,"ID",33,plaque,PLAQUE,m,,,,,,0.052083333,-0.2265625,0,0,0,,0,203,203,13,1,
,,,,,,,,,,,,,,,,,,5e09ffd8fa3d102a583771c1,2020-11-27_11h10.02.855,lexical_decision_task_MP_exp2,2020.2.5,Win32,60,m,1,0.45291,,,,,,,,0.45291,1,,,,,,37,WORD,UN,16,powder,INSULT,m,,,,,,0.052083333,-0.2265625,0,0,0,,0,204,204,216,1,
,,,,,,,,,,,,,,,,,,5e09ffd8fa3d102a583771c1,2020-11-27_11h10.02.855,lexical_decision_task_MP_exp2,2020.2.5,Win32,60,m,1,0.65445,,,,,,,,0.65445,1,,,,,,101,WORD,"ID",33,wrench,WRENCH,m,,,,,,0.052083333,-0.2265625,0,0,0,,0,205,205,40,1,
,,,,,,,,,,,,,,,,,,5e09ffd8fa3d102a583771c1,2020-11-27_11h10.02.855,lexical_decision_task_MP_exp2,2020.2.5,Win32,60,z,1,0.62579,,,,,,,,0.62579,1,,,,,,395,NW,"ID",16,colury,COLURY,z,,,,,,0.052083333,-0.2265625,0,0,0,,0,206,206,334,1,
,,,,,,,,,,,,,,,,,,5e09ffd8fa3d102a583771c1,2020-11-27_11h10.02.855,lexical_decision_task_MP_exp2,2020.2.5,Win32,60,m,1,0.547235,,,,,,,,0.547235,1,,,,,,31,WORD,UN,16,buckle,WEAPON,m,,,,,,0.052083333,-0.2265625,0,0,0,,0,207,207,210,1,
,,,,,,,,,,,,,,,,,,5e09ffd8fa3d102a583771c1,2020-11-27_11h10.02.855,lexical_decision_task_MP_exp2,2020.2.5,Win32,60,m,1,0.58383,,,,,,,,0.58383,1,,,,,,117,WORD,"ID",33,branch,BRANCH,m,,,,,,0.052083333,-0.2265625,0,0,0,,0,208,208,56,1,
,,,,,,,,,,,,,,,,,,5e09ffd8fa3d102a583771c1,2020-11-27_11h10.02.855,lexical_decision_task_MP_exp2,2020.2.5,Win32,60,m,1,0.41495,,,,,,,,0.41495,1,,,,,,153,WORD,"ID",16,behold,BEHOLD,m,,,,,,0.052083333,-0.2265625,0,0,0,,0,209,209,92,1,
,,,,,,,,,,,,,,,,,,5e09ffd8fa3d102a583771c1,2020-11-27_11h10.02.855,lexical_decision_task_MP_exp2,2020.2.5,Win32,60,m,1,0.405385,,,,,,,,0.405385,1,,,,,,67,WORD,"ID",33,policy,POLICY,m,,,,,,0.052083333,-0.2265625,0,0,0,,0,210,210,6,1,
,,,,,,,,,,,,,,,,,,5e09ffd8fa3d102a583771c1,2020-11-27_11h10.02.855,lexical_decision_task_MP_exp2,2020.2.5,Win32,60,z,1,0.53093,,,,,,,,0.53093,1,,,,,,330,NW,"ID",33,kensom,KENSOM,z,,,,,,0.052083333,-0.2265625,0,0,0,,0,211,211,269,1,
,,,,,,,,,,,,,,,,,,5e09ffd8fa3d102a583771c1,2020-11-27_11h10.02.855,lexical_decision_task_MP_exp2,2020.2.5,Win32,60,z,1,0.421315,,,,,,,,0.421315,1,,,,,,443,NW,UN,33,jaunce,DORSEX,z,,,,,,0.052083333,-0.2265625,0,0,0,,0,212,212,382,1,
,,,,,,,,,,,,,,,,,,5e09ffd8fa3d102a583771c1,2020-11-27_11h10.02.855,lexical_decision_task_MP_exp2,2020.2.5,Win32,60,z,0,0.34967,,,,,,,,0.34967,0,,,,,,227,WORD,UN,33,master,SELDOM,m,,,,,,0.052083333,-0.2265625,0,0,0,,0,213,213,166,1,
,,,,,,,,,,,,,,,,,,5e09ffd8fa3d102a583771c1,2020-11-27_11h10.02.855,lexical_decision_task_MP_exp2,2020.2.5,Win32,60,z,1,0.571415,,,,,,,,0.571415,1,,,,,,472,NW,UN,33,gorbie,CIGNEY,z,,,,,,0.052083333,-0.2265625,0,0,0,,0,214,214,411,1,
,,,,,,,,,,,,,,,,,,5e09ffd8fa3d102a583771c1,2020-11-27_11h10.02.855,lexical_decision_task_MP_exp2,2020.2.5,Win32,60,m,1,0.54767,,,,,,,,0.54767,1,,,,,,156,WORD,"ID",16,cradle,CRADLE,m,,,,,,0.052083333,-0.2265625,0,0,0,,0,215,215,95,1,
,,,,,,,,,,,,,,,,,,5e09ffd8fa3d102a583771c1,2020-11-27_11h10.02.855,lexical_decision_task_MP_exp2,2020.2.5,Win32,60,z,1,0.83622,,,,,,,,0.83622,1,,,,,,277,NW,UN,16,unighs,PETAIN,z,,,,,,0.052083333,-0.2265625,0,0,0,,0,216,216,456,1,
,,,,,,,,,,,,,,,,,,5e09ffd8fa3d102a583771c1,2020-11-27_11h10.02.855,lexical_decision_task_MP_exp2,2020.2.5,Win32,60,z,1,0.54725,,,,,,,,0.54725,1,,,,,,249,NW,UN,16,milted,BATROL,z,,,,,,0.052083333,-0.2265625,0,0,0,,0,217,217,428,1,
,,,,,,,,,,,,,,,,,,5e09ffd8fa3d102a583771c1,2020-11-27_11h10.02.855,lexical_decision_task_MP_exp2,2020.2.5,Win32,60,m,1,0.74836,,,,,,,,0.74836,1,,,,,,64,WORD,"ID",33,throne,THRONE,m,,,,,,0.052083333,-0.2265625,0,0,0,,0,218,218,3,1,
,,,,,,,,,,,,,,,,,,5e09ffd8fa3d102a583771c1,2020-11-27_11h10.02.855,lexical_decision_task_MP_exp2,2020.2.5,Win32,60,m,1,0.817505,,,,,,,,0.817505,1,,,,,,184,WORD,UN,33,bother,SLEAZY,m,,,,,,0.052083333,-0.2265625,0,0,0,,0,219,219,123,1,
,,,,,,,,,,,,,,,,,,5e09ffd8fa3d102a583771c1,2020-11-27_11h10.02.855,lexical_decision_task_MP_exp2,2020.2.5,Win32,60,m,1,0.431625,,,,,,,,0.431625,1,,,,,,213,WORD,UN,33,intake,SQUEAL,m,,,,,,0.052083333,-0.2265625,0,0,0,,0,220,220,152,1,
,,,,,,,,,,,,,,,,,,5e09ffd8fa3d102a583771c1,2020-11-27_11h10.02.855,lexical_decision_task_MP_exp2,2020.2.5,Win32,60,m,0,0.451795,,,,,,,,0.451795,0,,,,,,448,NW,UN,33,brunge,SADENT,z,,,,,,0.052083333,-0.2265625,0,0,0,,0,221,221,387,1,
,,,,,,,,,,,,,,,,,,5e09ffd8fa3d102a583771c1,2020-11-27_11h10.02.855,lexical_decision_task_MP_exp2,2020.2.5,Win32,60,m,1,1.23079,,,,,,,,1.23079,1,,,,,,219,WORD,UN,33,voyage,BUCKET,m,,,,,,0.052083333,-0.2265625,0,0,0,,0,222,222,158,1,
,,,,,,,,,,,,,,,,,,5e09ffd8fa3d102a583771c1,2020-11-27_11h10.02.855,lexical_decision_task_MP_exp2,2020.2.5,Win32,60,z,1,0.613105,,,,,,,,0.613105,1,,,,,,419,NW,"ID",16,slount,SLOUNT,z,,,,,,0.052083333,-0.2265625,0,0,0,,0,223,223,358,1,
,,,,,,,,,,,,,,,,,,5e09ffd8fa3d102a583771c1,2020-11-27_11h10.02.855,lexical_decision_task_MP_exp2,2020.2.5,Win32,60,z,1,0.52062,,,,,,,,0.52062,1,,,,,,289,NW,UN,16,splino,STARBY,z,,,,,,0.052083333,-0.2265625,0,0,0,,0,224,224,468,1,
,,,,,,,,,,,,,,,,,,5e09ffd8fa3d102a583771c1,2020-11-27_11h10.02.855,lexical_decision_task_MP_exp2,2020.2.5,Win32,60,z,0,0.44865,,,,,,,,0.44865,0,,,,,,212,WORD,UN,33,squeal,VERIFY,m,,,,,,0.052083333,-0.2265625,0,0,0,,0,225,225,151,1,
,,,,,,,,,,,,,,,,,,5e09ffd8fa3d102a583771c1,2020-11-27_11h10.02.855,lexical_decision_task_MP_exp2,2020.2.5,Win32,60,m,1,0.66401,,,,,,,,0.66401,1,,,,,,134,WORD,"ID",16,staple,STAPLE,m,,,,,,0.052083333,-0.2265625,0,0,0,,0,226,226,73,1,
,,,,,,,,,,,,,,,,,,5e09ffd8fa3d102a583771c1,2020-11-27_11h10.02.855,lexical_decision_task_MP_exp2,2020.2.5,Win32,60,m,1,0.52125,,,,,,,,0.52125,1,,,,,,228,WORD,UN,33,kidney,MASTER,m,,,,,,0.052083333,-0.2265625,0,0,0,,0,227,227,167,1,
,,,,,,,,,,,,,,,,,,5e09ffd8fa3d102a583771c1,2020-11-27_11h10.02.855,lexical_decision_task_MP_exp2,2020.2.5,Win32,60,m,1,0.642855,,,,,,,,0.642855,1,,,,,,30,WORD,UN,16,weapon,ORIENT,m,,,,,,0.052083333,-0.2265625,0,0,0,,0,228,228,209,1,
,,,,,,,,,,,,,,,,,,5e09ffd8fa3d102a583771c1,2020-11-27_11h10.02.855,lexical_decision_task_MP_exp2,2020.2.5,Win32,60,z,1,0.59674,,,,,,,,0.59674,1,,,,,,385,NW,"ID",16,veigma,VEIGMA,z,,,,,,0.052083333,-0.2265625,0,0,0,,0,229,229,324,1,
,,,,,,,,,,,,,,,,,,5e09ffd8fa3d102a583771c1,2020-11-27_11h10.02.855,lexical_decision_task_MP_exp2,2020.2.5,Win32,60,m,1,0.56576,,,,,,,,0.56576,1,,,,,,210,WORD,UN,33,infect,MONKEY,m,,,,,,0.052083333,-0.2265625,0,0,0,,0,230,230,149,1,
,,,,,,,,,,,,,,,,,,5e09ffd8fa3d102a583771c1,2020-11-27_11h10.02.855,lexical_decision_task_MP_exp2,2020.2.5,Win32,60,z,1,0.665015,,,,,,,,0.665015,1,,,,,,407,NW,"ID",16,suiver,SUIVER,z,,,,,,0.052083333,-0.2265625,0,0,0,,0,231,231,346,1,
,,,,,,,,,,,,,,,,,,5e09ffd8fa3d102a583771c1,2020-11-27_11h10.02.855,lexical_decision_task_MP_exp2,2020.2.5,Win32,60,m,1,0.81551,,,,,,,,0.81551,1,,,,,,118,WORD,"ID",33,flight,FLIGHT,m,,,,,,0.052083333,-0.2265625,0,0,0,,0,232,232,57,1,
,,,,,,,,,,,,,,,,,,5e09ffd8fa3d102a583771c1,2020-11-27_11h10.02.855,lexical_decision_task_MP_exp2,2020.2.5,Win32,60,m,1,0.434665,,,,,,,,0.434665,1,,,,,,176,WORD,"ID",16,strife,STRIFE,m,,,,,,0.052083333,-0.2265625,0,0,0,,0,233,233,115,1,
,,,,,,,,,,,,,,,,,,5e09ffd8fa3d102a583771c1,2020-11-27_11h10.02.855,lexical_decision_task_MP_exp2,2020.2.5,Win32,60,m,1,0.48074,,,,,,,,0.48074,1,,,,,,121,WORD,"ID",16,thrive,THRIVE,m,,,,,,0.052083333,-0.2265625,0,0,0,,0,234,234,60,1,
,,,,,,,,,,,,,,,,,,5e09ffd8fa3d102a583771c1,2020-11-27_11h10.02.855,lexical_decision_task_MP_exp2,2020.2.5,Win32,60,z,1,0.663295,,,,,,,,0.663295,1,,,,,,380,NW,"ID",16,cavory,CAVORY,z,,,,,,0.052083333,-0.2265625,0,0,0,,0,235,235,319,1,
,,,,,,,,,,,,,,,,,,5e09ffd8fa3d102a583771c1,2020-11-27_11h10.02.855,lexical_decision_task_MP_exp2,2020.2.5,Win32,60,m,0,0.615005,,,,,,,,0.615005,0,,,,,,284,NW,UN,16,prudge,SHAPLE,z,,,,,,0.052083333,-0.2265625,0,0,0,,0,236,236,463,1,
,,,,,,,,,,,,,,,,,,5e09ffd8fa3d102a583771c1,2020-11-27_11h10.02.855,lexical_decision_task_MP_exp2,2020.2.5,Win32,60,m,1,0.476575,,,,,,,,0.476575,1,,,,,,25,WORD,UN,16,sprint,DOMAIN,m,,,,,,0.052083333,-0.2265625,0,0,0,,0,237,237,204,1,
,,,,,,,,,,,,,,,,,,5e09ffd8fa3d102a583771c1,2020-11-27_11h10.02.855,lexical_decision_task_MP_exp2,2020.2.5,Win32,60,z,1,0.697415,,,,,,,,0.697415,1,,,,,,243,NW,UN,16,eatric,MUSIED,z,,,,,,0.052083333,-0.2265625,0,0,0,,0,238,238,422,1,
,,,,,,,,,,,,,,,,,,5e09ffd8fa3d102a583771c1,2020-11-27_11h10.02.855,lexical_decision_task_MP_exp2,2020.2.5,Win32,60,z,0,0.531395,,,,,,,,0.531395,0,,,,,,226,WORD,UN,33,flower,CASINO,m,,,,,,0.052083333,-0.2265625,0,0,0,,0,239,239,165,1,
,,,,,,,,,,,,,,,,,,5e09ffd8fa3d102a583771c1,2020-11-27_11h10.02.855,lexical_decision_task_MP_exp2,2020.2.5,Win32,60,z,0,0.647425,,,,,,,,0.647425,0,,,,,,48,WORD,UN,16,survey,WALNUT,m,,,,,,0.052083333,-0.2265625,0,0,0,,0,240,240,227,1,
,,,,,,,,,,,,,,,,,,5e09ffd8fa3d102a583771c1,2020-11-27_11h10.02.855,lexical_decision_task_MP_exp2,2020.2.5,Win32,60,m,1,0.975265,,,,,,,,0.975265,1,,,,,,217,WORD,UN,33,shrink,LIQUOR,m,,,,,,0.052083333,-0.2265625,0,0,0,space,0,241,241,156,1,1.997855
,,,,,,,,,,,,,,,,,,5e09ffd8fa3d102a583771c1,2020-11-27_11h10.02.855,lexical_decision_task_MP_exp2,2020.2.5,Win32,60,z,1,0.76418,,,,,,,,0.76418,1,,,,,,369,NW,"ID",16,wronch,WRONCH,z,,,,,,0.052083333,-0.2265625,0,0,0,,0,242,242,308,1,
,,,,,,,,,,,,,,,,,,5e09ffd8fa3d102a583771c1,2020-11-27_11h10.02.855,lexical_decision_task_MP_exp2,2020.2.5,Win32,60,z,1,0.552265,,,,,,,,0.552265,1,,,,,,366,NW,"ID",16,toshel,TOSHEL,z,,,,,,0.052083333,-0.2265625,0,0,0,,0,243,243,305,1,
,,,,,,,,,,,,,,,,,,5e09ffd8fa3d102a583771c1,2020-11-27_11h10.02.855,lexical_decision_task_MP_exp2,2020.2.5,Win32,60,m,1,0.71903,,,,,,,,0.71903,1,,,,,,206,WORD,UN,33,wreath,TAILOR,m,,,,,,0.052083333,-0.2265625,0,0,0,,0,244,244,145,1,
,,,,,,,,,,,,,,,,,,5e09ffd8fa3d102a583771c1,2020-11-27_11h10.02.855,lexical_decision_task_MP_exp2,2020.2.5,Win32,60,z,1,0.61948,,,,,,,,0.61948,1,,,,,,296,NW,UN,16,fertic,BEINCH,z,,,,,,0.052083333,-0.2265625,0,0,0,,0,245,245,475,1,
,,,,,,,,,,,,,,,,,,5e09ffd8fa3d102a583771c1,2020-11-27_11h10.02.855,lexical_decision_task_MP_exp2,2020.2.5,Win32,60,z,1,0.514665,,,,,,,,0.514665,1,,,,,,301,NW,"ID",33,fainch,FAINCH,z,,,,,,0.052083333,-0.2265625,0,0,0,,0,246,246,240,1,
,,,,,,,,,,,,,,,,,,5e09ffd8fa3d102a583771c1,2020-11-27_11h10.02.855,lexical_decision_task_MP_exp2,2020.2.5,Win32,60,z,1,0.48429,,,,,,,,0.48429,1,,,,,,455,NW,UN,33,broget,TONDLE,z,,,,,,0.052083333,-0.2265625,0,0,0,,0,247,247,394,1,
,,,,,,,,,,,,,,,,,,5e09ffd8fa3d102a583771c1,2020-11-27_11h10.02.855,lexical_decision_task_MP_exp2,2020.2.5,Win32,60,z,1,0.46497,,,,,,,,0.46497,1,,,,,,291,NW,UN,16,ablint,PRETCH,z,,,,,,0.052083333,-0.2265625,0,0,0,,0,248,248,470,1,
,,,,,,,,,,,,,,,,,,5e09ffd8fa3d102a583771c1,2020-11-27_11h10.02.855,lexical_decision_task_MP_exp2,2020.2.5,Win32,60,z,1,0.467345,,,,,,,,0.467345,1,,,,,,453,NW,UN,33,scouge,BOLVIS,z,,,,,,0.052083333,-0.2265625,0,0,0,,0,249,249,392,1,
,,,,,,,,,,,,,,,,,,5e09ffd8fa3d102a583771c1,2020-11-27_11h10.02.855,lexical_decision_task_MP_exp2,2020.2.5,Win32,60,z,1,0.46556,,,,,,,,0.46556,1,,,,,,309,NW,"ID",33,amiloy,AMILOY,z,,,,,,0.052083333,-0.2265625,0,0,0,,0,250,250,248,1,
,,,,,,,,,,,,,,,,,,5e09ffd8fa3d102a583771c1,2020-11-27_11h10.02.855,lexical_decision_task_MP_exp2,2020.2.5,Win32,60,m,1,0.435935,,,,,,,,0.435935,1,,,,,,81,WORD,"ID",33,friend,FRIEND,m,,,,,,0.052083333,-0.2265625,0,0,0,,0,251,251,20,1,
,,,,,,,,,,,,,,,,,,5e09ffd8fa3d102a583771c1,2020-11-27_11h10.02.855,lexical_decision_task_MP_exp2,2020.2.5,Win32,60,m,1,0.463095,,,,,,,,0.463095,1,,,,,,2,WORD,UN,16,knight,BRIDGE,m,,,,,,0.052083333,-0.2265625,0,0,0,,0,252,252,181,1,
,,,,,,,,,,,,,,,,,,5e09ffd8fa3d102a583771c1,2020-11-27_11h10.02.855,lexical_decision_task_MP_exp2,2020.2.5,Win32,60,m,1,0.48534,,,,,,,,0.48534,1,,,,,,96,WORD,"ID",33,ignore,IGNORE,m,,,,,,0.052083333,-0.2265625,0,0,0,,0,253,253,35,1,
,,,,,,,,,,,,,,,,,,5e09ffd8fa3d102a583771c1,2020-11-27_11h10.02.855,lexical_decision_task_MP_exp2,2020.2.5,Win32,60,z,1,0.621675,,,,,,,,0.621675,1,,,,,,450,NW,UN,33,cainky,PHRECT,z,,,,,,0.052083333,-0.2265625,0,0,0,,0,254,254,389,1,
,,,,,,,,,,,,,,,,,,5e09ffd8fa3d102a583771c1,2020-11-27_11h10.02.855,lexical_decision_task_MP_exp2,2020.2.5,Win32,60,m,1,0.67026,,,,,,,,0.67026,1,,,,,,76,WORD,"ID",33,exotic,EXOTIC,m,,,,,,0.052083333,-0.2265625,0,0,0,,0,255,255,15,1,
,,,,,,,,,,,,,,,,,,5e09ffd8fa3d102a583771c1,2020-11-27_11h10.02.855,lexical_decision_task_MP_exp2,2020.2.5,Win32,60,m,1,0.530795,,,,,,,,0.530795,1,,,,,,1,WORD,UN,16,ethnic,FRIGHT,m,,,,,,0.052083333,-0.2265625,0,0,0,,0,256,256,180,1,
,,,,,,,,,,,,,,,,,,5e09ffd8fa3d102a583771c1,2020-11-27_11h10.02.855,lexical_decision_task_MP_exp2,2020.2.5,Win32,60,z,1,0.80445,,,,,,,,0.80445,1,,,,,,342,NW,"ID",33,randow,RANDOW,z,,,,,,0.052083333,-0.2265625,0,0,0,,0,257,257,281,1,
,,,,,,,,,,,,,,,,,,5e09ffd8fa3d102a583771c1,2020-11-27_11h10.02.855,lexical_decision_task_MP_exp2,2020.2.5,Win32,60,m,1,0.41503,,,,,,,,0.41503,1,,,,,,122,WORD,"ID",16,linger,LINGER,m,,,,,,0.052083333,-0.2265625,0,0,0,,0,258,258,61,1,
,,,,,,,,,,,,,,,,,,5e09ffd8fa3d102a583771c1,2020-11-27_11h10.02.855,lexical_decision_task_MP_exp2,2020.2.5,Win32,60,m,1,0.538135,,,,,,,,0.538135,1,,,,,,60,WORD,UN,16,fright,PENCIL,m,,,,,,0.052083333,-0.2265625,0,0,0,,0,259,259,239,1,
,,,,,,,,,,,,,,,,,,5e09ffd8fa3d102a583771c1,2020-11-27_11h10.02.855,lexical_decision_task_MP_exp2,2020.2.5,Win32,60,m,1,0.719465,,,,,,,,0.719465,1,,,,,,141,WORD,"ID",16,orphan,ORPHAN,m,,,,,,0.052083333,-0.2265625,0,0,0,,0,260,260,80,1,
,,,,,,,,,,,,,,,,,,5e09ffd8fa3d102a583771c1,2020-11-27_11h10.02.855,lexical_decision_task_MP_exp2,2020.2.5,Win32,60,m,1,0.49734,,,,,,,,0.49734,1,,,,,,189,WORD,UN,33,backup,CENSOR,m,,,,,,0.052083333,-0.2265625,0,0,0,,0,261,261,128,1,
,,,,,,,,,,,,,,,,,,5e09ffd8fa3d102a583771c1,2020-11-27_11h10.02.855,lexical_decision_task_MP_exp2,2020.2.5,Win32,60,z,1,0.647135,,,,,,,,0.647135,1,,,,,,251,NW,UN,16,stapod,LUPICT,z,,,,,,0.052083333,-0.2265625,0,0,0,,0,262,262,430,1,
,,,,,,,,,,,,,,,,,,5e09ffd8fa3d102a583771c1,2020-11-27_11h10.02.855,lexical_decision_task_MP_exp2,2020.2.5,Win32,60,m,1,0.64926,,,,,,,,0.64926,1,,,,,,98,WORD,"ID",33,belong,BELONG,m,,,,,,0.052083333,-0.2265625,0,0,0,,0,263,263,37,1,
,,,,,,,,,,,,,,,,,,5e09ffd8fa3d102a583771c1,2020-11-27_11h10.02.855,lexical_decision_task_MP_exp2,2020.2.5,Win32,60,m,1,0.486765,,,,,,,,0.486765,1,,,,,,172,WORD,"ID",16,patrol,PATROL,m,,,,,,0.052083333,-0.2265625,0,0,0,,0,264,264,111,1,
,,,,,,,,,,,,,,,,,,5e09ffd8fa3d102a583771c1,2020-11-27_11h10.02.855,lexical_decision_task_MP_exp2,2020.2.5,Win32,60,m,1,0.49816,,,,,,,,0.49816,1,,,,,,120,WORD,"ID",33,strain,STRAIN,m,,,,,,0.052083333,-0.2265625,0,0,0,,0,265,265,59,1,
,,,,,,,,,,,,,,,,,,5e09ffd8fa3d102a583771c1,2020-11-27_11h10.02.855,lexical_decision_task_MP_exp2,2020.2.5,Win32,60,m,1,0.453655,,,,,,,,0.453655,1,,,,,,167,WORD,"ID",16,design,DESIGN,m,,,,,,0.052083333,-0.2265625,0,0,0,,0,266,266,106,1,
,,,,,,,,,,,,,,,,,,5e09ffd8fa3d102a583771c1,2020-11-27_11h10.02.855,lexical_decision_task_MP_exp2,2020.2.5,Win32,60,z,1,0.597635,,,,,,,,0.597635,1,,,,,,274,NW,UN,16,sleirt,FUMBLO,z,,,,,,0.052083333,-0.2265625,0,0,0,,0,267,267,453,1,
,,,,,,,,,,,,,,,,,,5e09ffd8fa3d102a583771c1,2020-11-27_11h10.02.855,lexical_decision_task_MP_exp2,2020.2.5,Win32,60,m,1,0.676015,,,,,,,,0.676015,1,,,,,,86,WORD,"ID",33,rodent,RODENT,m,,,,,,0.052083333,-0.2265625,0,0,0,,0,268,268,25,1,
,,,,,,,,,,,,,,,,,,5e09ffd8fa3d102a583771c1,2020-11-27_11h10.02.855,lexical_decision_task_MP_exp2,2020.2.5,Win32,60,z,1,0.580425,,,,,,,,0.580425,1,,,,,,254,NW,UN,16,apight,VAROSH,z,,,,,,0.052083333,-0.2265625,0,0,0,,0,269,269,433,1,
,,,,,,,,,,,,,,,,,,5e09ffd8fa3d102a583771c1,2020-11-27_11h10.02.855,lexical_decision_task_MP_exp2,2020.2.5,Win32,60,m,1,0.566045,,,,,,,,0.566045,1,,,,,,53,WORD,UN,16,ramble,POLICE,m,,,,,,0.052083333,-0.2265625,0,0,0,,0,270,270,232,1,
,,,,,,,,,,,,,,,,,,5e09ffd8fa3d102a583771c1,2020-11-27_11h10.02.855,lexical_decision_task_MP_exp2,2020.2.5,Win32,60,z,1,0.63456,,,,,,,,0.63456,1,,,,,,468,NW,UN,33,padifs,WICTOR,z,,,,,,0.052083333,-0.2265625,0,0,0,,0,271,271,407,1,
,,,,,,,,,,,,,,,,,,5e09ffd8fa3d102a583771c1,2020-11-27_11h10.02.855,lexical_decision_task_MP_exp2,2020.2.5,Win32,60,z,1,0.701215,,,,,,,,0.701215,1,,,,,,311,NW,"ID",33,sproly,SPROLY,z,,,,,,0.052083333,-0.2265625,0,0,0,,0,272,272,250,1,
,,,,,,,,,,,,,,,,,,5e09ffd8fa3d102a583771c1,2020-11-27_11h10.02.855,lexical_decision_task_MP_exp2,2020.2.5,Win32,60,m,1,0.667185,,,,,,,,0.667185,1,,,,,,224,WORD,UN,33,vulgar,PERIOD,m,,,,,,0.052083333,-0.2265625,0,0,0,,0,273,273,163,1,
,,,,,,,,,,,,,,,,,,5e09ffd8fa3d102a583771c1,2020-11-27_11h10.02.855,lexical_decision_task_MP_exp2,2020.2.5,Win32,60,m,1,0.53927,,,,,,,,0.53927,1,,,,,,116,WORD,"ID",33,tumble,TUMBLE,m,,,,,,0.052083333,-0.2265625,0,0,0,,0,274,274,55,1,
,,,,,,,,,,,,,,,,,,5e09ffd8fa3d102a583771c1,2020-11-27_11h10.02.855,lexical_decision_task_MP_exp2,2020.2.5,Win32,60,z,1,0.84844,,,,,,,,0.84844,1,,,,,,476,NW,UN,33,photie,JOSTED,z,,,,,,0.052083333,-0.2265625,0,0,0,,0,275,275,415,1,
,,,,,,,,,,,,,,,,,,5e09ffd8fa3d102a583771c1,2020-11-27_11h10.02.855,lexical_decision_task_MP_exp2,2020.2.5,Win32,60,m,1,0.569215,,,,,,,,0.569215,1,,,,,,165,WORD,"ID",16,invest,INVEST,m,,,,,,0.052083333,-0.2265625,0,0,0,,0,276,276,104,1,
,,,,,,,,,,,,,,,,,,5e09ffd8fa3d102a583771c1,2020-11-27_11h10.02.855,lexical_decision_task_MP_exp2,2020.2.5,Win32,60,m,1,0.481955,,,,,,,,0.481955,1,,,,,,41,WORD,UN,16,chapel,SPRING,m,,,,,,0.052083333,-0.2265625,0,0,0,,0,277,277,220,1,
,,,,,,,,,,,,,,,,,,5e09ffd8fa3d102a583771c1,2020-11-27_11h10.02.855,lexical_decision_task_MP_exp2,2020.2.5,Win32,60,m,1,0.421655,,,,,,,,0.421655,1,,,,,,63,WORD,"ID",33,launch,LAUNCH,m,,,,,,0.052083333,-0.2265625,0,0,0,,0,278,278,2,1,
,,,,,,,,,,,,,,,,,,5e09ffd8fa3d102a583771c1,2020-11-27_11h10.02.855,lexical_decision_task_MP_exp2,2020.2.5,Win32,60,z,1,0.60935,,,,,,,,0.60935,1,,,,,,312,NW,"ID",33,nerawl,NERAWL,z,,,,,,0.052083333,-0.2265625,0,0,0,,0,279,279,251,1,
,,,,,,,,,,,,,,,,,,5e09ffd8fa3d102a583771c1,2020-11-27_11h10.02.855,lexical_decision_task_MP_exp2,2020.2.5,Win32,60,z,1,0.56353,,,,,,,,0.56353,1,,,,,,401,NW,"ID",16,mustil,MUSTIL,z,,,,,,0.052083333,-0.2265625,0,0,0,,0,280,280,340,1,
,,,,,,,,,,,,,,,,,,5e09ffd8fa3d102a583771c1,2020-11-27_11h10.02.855,lexical_decision_task_MP_exp2,2020.2.5,Win32,60,z,1,0.55169,,,,,,,,0.55169,1,,,,,,422,NW,UN,33,streld,ALCOUD,z,,,,,,0.052083333,-0.2265625,0,0,0,,0,281,281,361,1,
,,,,,,,,,,,,,,,,,,5e09ffd8fa3d102a583771c1,2020-11-27_11h10.02.855,lexical_decision_task_MP_exp2,2020.2.5,Win32,60,m,1,0.506895,,,,,,,,0.506895,1,,,,,,197,WORD,UN,33,wicked,STREAM,m,,,,,,0.052083333,-0.2265625,0,0,0,,0,282,282,136,1,
,,,,,,,,,,,,,,,,,,5e09ffd8fa3d102a583771c1,2020-11-27_11h10.02.855,lexical_decision_task_MP_exp2,2020.2.5,Win32,60,m,1,0.78584,,,,,,,,0.78584,1,,,,,,45,WORD,UN,16,single,CLERGY,m,,,,,,0.052083333,-0.2265625,0,0,0,,0,283,283,224,1,
,,,,,,,,,,,,,,,,,,5e09ffd8fa3d102a583771c1,2020-11-27_11h10.02.855,lexical_decision_task_MP_exp2,2020.2.5,Win32,60,z,1,0.63906,,,,,,,,0.63906,1,,,,,,414,NW,"ID",16,serbol,SERBOL,z,,,,,,0.052083333,-0.2265625,0,0,0,,0,284,284,353,1,
,,,,,,,,,,,,,,,,,,5e09ffd8fa3d102a583771c1,2020-11-27_11h10.02.855,lexical_decision_task_MP_exp2,2020.2.5,Win32,60,m,1,0.626195,,,,,,,,0.626195,1,,,,,,200,WORD,UN,33,admire,BEACON,m,,,,,,0.052083333,-0.2265625,0,0,0,,0,285,285,139,1,
,,,,,,,,,,,,,,,,,,5e09ffd8fa3d102a583771c1,2020-11-27_11h10.02.855,lexical_decision_task_MP_exp2,2020.2.5,Win32,60,m,1,0.561275,,,,,,,,0.561275,1,,,,,,127,WORD,"ID",16,castle,CASTLE,m,,,,,,0.052083333,-0.2265625,0,0,0,,0,286,286,66,1,
,,,,,,,,,,,,,,,,,,5e09ffd8fa3d102a583771c1,2020-11-27_11h10.02.855,lexical_decision_task_MP_exp2,2020.2.5,Win32,60,z,1,0.598835,,,,,,,,0.598835,1,,,,,,310,NW,"ID",33,daniet,DANIET,z,,,,,,0.052083333,-0.2265625,0,0,0,,0,287,287,249,1,
,,,,,,,,,,,,,,,,,,5e09ffd8fa3d102a583771c1,2020-11-27_11h10.02.855,lexical_decision_task_MP_exp2,2020.2.5,Win32,60,z,0,0.448675,,,,,,,,0.448675,0,,,,,,68,WORD,"ID",33,fumble,FUMBLE,m,,,,,,0.052083333,-0.2265625,0,0,0,,0,288,288,7,1,
,,,,,,,,,,,,,,,,,,5e09ffd8fa3d102a583771c1,2020-11-27_11h10.02.855,lexical_decision_task_MP_exp2,2020.2.5,Win32,60,m,1,0.753595,,,,,,,,0.753595,1,,,,,,47,WORD,UN,16,walnut,INCOME,m,,,,,,0.052083333,-0.2265625,0,0,0,,0,289,289,226,1,
,,,,,,,,,,,,,,,,,,5e09ffd8fa3d102a583771c1,2020-11-27_11h10.02.855,lexical_decision_task_MP_exp2,2020.2.5,Win32,60,m,1,0.43269,,,,,,,,0.43269,1,,,,,,112,WORD,"ID",33,breath,BREATH,m,,,,,,0.052083333,-0.2265625,0,0,0,,0,290,290,51,1,
,,,,,,,,,,,,,,,,,,5e09ffd8fa3d102a583771c1,2020-11-27_11h10.02.855,lexical_decision_task_MP_exp2,2020.2.5,Win32,60,z,1,0.681665,,,,,,,,0.681665,1,,,,,,316,NW,"ID",33,scregm,SCREGM,z,,,,,,0.052083333,-0.2265625,0,0,0,,0,291,291,255,1,
,,,,,,,,,,,,,,,,,,5e09ffd8fa3d102a583771c1,2020-11-27_11h10.02.855,lexical_decision_task_MP_exp2,2020.2.5,Win32,60,z,1,0.50351,,,,,,,,0.50351,1,,,,,,354,NW,"ID",33,virlex,VIRLEX,z,,,,,,0.052083333,-0.2265625,0,0,0,,0,292,292,293,1,
,,,,,,,,,,,,,,,,,,5e09ffd8fa3d102a583771c1,2020-11-27_11h10.02.855,lexical_decision_task_MP_exp2,2020.2.5,Win32,60,z,1,0.70233,,,,,,,,0.70233,1,,,,,,425,NW,UN,33,urivel,FRUDGE,z,,,,,,0.052083333,-0.2265625,0,0,0,,0,293,293,364,1,
,,,,,,,,,,,,,,,,,,5e09ffd8fa3d102a583771c1,2020-11-27_11h10.02.855,lexical_decision_task_MP_exp2,2020.2.5,Win32,60,z,1,0.447745,,,,,,,,0.447745,1,,,,,,326,NW,"ID",33,iguade,IGUADE,z,,,,,,0.052083333,-0.2265625,0,0,0,,0,294,294,265,1,
,,,,,,,,,,,,,,,,,,5e09ffd8fa3d102a583771c1,2020-11-27_11h10.02.855,lexical_decision_task_MP_exp2,2020.2.5,Win32,60,m,1,0.50126,,,,,,,,0.50126,1,,,,,,163,WORD,"ID",16,string,STRING,m,,,,,,0.052083333,-0.2265625,0,0,0,,0,295,295,102,1,
,,,,,,,,,,,,,,,,,,5e09ffd8fa3d102a583771c1,2020-11-27_11h10.02.855,lexical_decision_task_MP_exp2,2020.2.5,Win32,60,z,1,0.65254,,,,,,,,0.65254,1,,,,,,281,NW,UN,16,porlex,MELATY,z,,,,,,0.052083333,-0.2265625,0,0,0,,0,296,296,460,1,
,,,,,,,,,,,,,,,,,,5e09ffd8fa3d102a583771c1,2020-11-27_11h10.02.855,lexical_decision_task_MP_exp2,2020.2.5,Win32,60,z,1,0.51448,,,,,,,,0.51448,1,,,,,,324,NW,"ID",33,steikh,STEIKH,z,,,,,,0.052083333,-0.2265625,0,0,0,,0,297,297,263,1,
,,,,,,,,,,,,,,,,,,5e09ffd8fa3d102a583771c1,2020-11-27_11h10.02.855,lexical_decision_task_MP_exp2,2020.2.5,Win32,60,z,1,0.58135,,,,,,,,0.58135,1,,,,,,391,NW,"ID",16,theldy,THELDY,z,,,,,,0.052083333,-0.2265625,0,0,0,,0,298,298,330,1,
,,,,,,,,,,,,,,,,,,5e09ffd8fa3d102a583771c1,2020-11-27_11h10.02.855,lexical_decision_task_MP_exp2,2020.2.5,Win32,60,m,1,0.569805,,,,,,,,0.569805,1,,,,,,3,WORD,UN,16,trench,KNIGHT,m,,,,,,0.052083333,-0.2265625,0,0,0,,0,299,299,182,1,
,,,,,,,,,,,,,,,,,,5e09ffd8fa3d102a583771c1,2020-11-27_11h10.02.855,lexical_decision_task_MP_exp2,2020.2.5,Win32,60,z,1,0.732245,,,,,,,,0.732245,1,,,,,,322,NW,"ID",33,slanch,SLANCH,z,,,,,,0.052083333,-0.2265625,0,0,0,,0,300,300,261,1,
,,,,,,,,,,,,,,,,,,5e09ffd8fa3d102a583771c1,2020-11-27_11h10.02.855,lexical_decision_task_MP_exp2,2020.2.5,Win32,60,z,1,0.553745,,,,,,,,0.553745,1,,,,,,270,NW,UN,16,aubrid,WRIMSY,z,,,,,,0.052083333,-0.2265625,0,0,0,,0,301,301,449,1,
,,,,,,,,,,,,,,,,,,5e09ffd8fa3d102a583771c1,2020-11-27_11h10.02.855,lexical_decision_task_MP_exp2,2020.2.5,Win32,60,z,1,0.514945,,,,,,,,0.514945,1,,,,,,307,NW,"ID",33,kirafe,KIRAFE,z,,,,,,0.052083333,-0.2265625,0,0,0,,0,302,302,246,1,
,,,,,,,,,,,,,,,,,,5e09ffd8fa3d102a583771c1,2020-11-27_11h10.02.855,lexical_decision_task_MP_exp2,2020.2.5,Win32,60,m,1,0.6317,,,,,,,,0.6317,1,,,,,,72,WORD,"ID",33,bright,BRIGHT,m,,,,,,0.052083333,-0.2265625,0,0,0,,0,303,303,11,1,
,,,,,,,,,,,,,,,,,,5e09ffd8fa3d102a583771c1,2020-11-27_11h10.02.855,lexical_decision_task_MP_exp2,2020.2.5,Win32,60,z,1,0.764545,,,,,,,,0.764545,1,,,,,,352,NW,"ID",33,tringe,TRINGE,z,,,,,,0.052083333,-0.2265625,0,0,0,,0,304,304,291,1,
,,,,,,,,,,,,,,,,,,5e09ffd8fa3d102a583771c1,2020-11-27_11h10.02.855,lexical_decision_task_MP_exp2,2020.2.5,Win32,60,m,1,0.755155,,,,,,,,0.755155,1,,,,,,97,WORD,"ID",33,client,CLIENT,m,,,,,,0.052083333,-0.2265625,0,0,0,,0,305,305,36,1,
,,,,,,,,,,,,,,,,,,5e09ffd8fa3d102a583771c1,2020-11-27_11h10.02.855,lexical_decision_task_MP_exp2,2020.2.5,Win32,60,z,1,0.648625,,,,,,,,0.648625,1,,,,,,304,NW,"ID",33,cludie,CLUDIE,z,,,,,,0.052083333,-0.2265625,0,0,0,,0,306,306,243,1,
,,,,,,,,,,,,,,,,,,5e09ffd8fa3d102a583771c1,2020-11-27_11h10.02.855,lexical_decision_task_MP_exp2,2020.2.5,Win32,60,m,1,0.59784,,,,,,,,0.59784,1,,,,,,19,WORD,UN,16,breast,PATRON,m,,,,,,0.052083333,-0.2265625,0,0,0,,0,307,307,198,1,
,,,,,,,,,,,,,,,,,,5e09ffd8fa3d102a583771c1,2020-11-27_11h10.02.855,lexical_decision_task_MP_exp2,2020.2.5,Win32,60,z,1,0.61431,,,,,,,,0.61431,1,,,,,,386,NW,"ID",16,ancust,ANCUST,z,,,,,,0.052083333,-0.2265625,0,0,0,,0,308,308,325,1,
,,,,,,,,,,,,,,,,,,5e09ffd8fa3d102a583771c1,2020-11-27_11h10.02.855,lexical_decision_task_MP_exp2,2020.2.5,Win32,60,m,0,0.551785,,,,,,,,0.551785,0,,,,,,356,NW,"ID",33,othnis,OTHNIS,z,,,,,,0.052083333,-0.2265625,0,0,0,,0,309,309,295,1,
,,,,,,,,,,,,,,,,,,5e09ffd8fa3d102a583771c1,2020-11-27_11h10.02.855,lexical_decision_task_MP_exp2,2020.2.5,Win32,60,m,1,0.555505,,,,,,,,0.555505,1,,,,,,83,WORD,"ID",33,result,RESULT,m,,,,,,0.052083333,-0.2265625,0,0,0,,0,310,310,22,1,
,,,,,,,,,,,,,,,,,,5e09ffd8fa3d102a583771c1,2020-11-27_11h10.02.855,lexical_decision_task_MP_exp2,2020.2.5,Win32,60,m,1,0.46473,,,,,,,,0.46473,1,,,,,,187,WORD,UN,33,social,COURSE,m,,,,,,0.052083333,-0.2265625,0,0,0,,0,311,311,126,1,
,,,,,,,,,,,,,,,,,,5e09ffd8fa3d102a583771c1,2020-11-27_11h10.02.855,lexical_decision_task_MP_exp2,2020.2.5,Win32,60,m,1,0.503445,,,,,,,,0.503445,1,,,,,,223,WORD,UN,33,period,KIDNEY,m,,,,,,0.052083333,-0.2265625,0,0,0,,0,312,312,162,1,
,,,,,,,,,,,,,,,,,,5e09ffd8fa3d102a583771c1,2020-11-27_11h10.02.855,lexical_decision_task_MP_exp2,2020.2.5,Win32,60,z,1,0.57586,,,,,,,,0.57586,1,,,,,,467,NW,UN,33,wictor,GORBIE,z,,,,,,0.052083333,-0.2265625,0,0,0,,0,313,313,406,1,
,,,,,,,,,,,,,,,,,,5e09ffd8fa3d102a583771c1,2020-11-27_11h10.02.855,lexical_decision_task_MP_exp2,2020.2.5,Win32,60,z,1,0.72309,,,,,,,,0.72309,1,,,,,,250,NW,UN,16,lupict,MILTED,z,,,,,,0.052083333,-0.2265625,0,0,0,,0,314,314,429,1,
,,,,,,,,,,,,,,,,,,5e09ffd8fa3d102a583771c1,2020-11-27_11h10.02.855,lexical_decision_task_MP_exp2,2020.2.5,Win32,60,z,1,0.417015,,,,,,,,0.417015,1,,,,,,430,NW,UN,33,chrums,CAROEY,z,,,,,,0.052083333,-0.2265625,0,0,0,,0,315,315,369,1,
,,,,,,,,,,,,,,,,,,5e09ffd8fa3d102a583771c1,2020-11-27_11h10.02.855,lexical_decision_task_MP_exp2,2020.2.5,Win32,60,z,0,0.380855,,,,,,,,0.380855,0,,,,,,18,WORD,UN,16,patron,HUMBLE,m,,,,,,0.052083333,-0.2265625,0,0,0,,0,316,316,197,1,
,,,,,,,,,,,,,,,,,,5e09ffd8fa3d102a583771c1,2020-11-27_11h10.02.855,lexical_decision_task_MP_exp2,2020.2.5,Win32,60,m,1,0.47031,,,,,,,,0.47031,1,,,,,,94,WORD,"ID",33,travel,TRAVEL,m,,,,,,0.052083333,-0.2265625,0,0,0,,0,317,317,33,1,
,,,,,,,,,,,,,,,,,,5e09ffd8fa3d102a583771c1,2020-11-27_11h10.02.855,lexical_decision_task_MP_exp2,2020.2.5,Win32,60,z,1,0.62582,,,,,,,,0.62582,1,,,,,,464,NW,UN,33,whivex,CHAITE,z,,,,,,0.052083333,-0.2265625,0,0,0,,0,318,318,403,1,
,,,,,,,,,,,,,,,,,,5e09ffd8fa3d102a583771c1,2020-11-27_11h10.02.855,lexical_decision_task_MP_exp2,2020.2.5,Win32,60,z,0,0.58466,,,,,,,,0.58466,0,,,,,,155,WORD,"ID",16,lizard,LIZARD,m,,,,,,0.052083333,-0.2265625,0,0,0,,0,319,319,94,1,
,,,,,,,,,,,,,,,,,,5e09ffd8fa3d102a583771c1,2020-11-27_11h10.02.855,lexical_decision_task_MP_exp2,2020.2.5,Win32,60,m,1,0.68458,,,,,,,,0.68458,1,,,,,,80,WORD,"ID",33,family,FAMILY,m,,,,,,0.052083333,-0.2265625,0,0,0,,0,320,320,19,1,
,,,,,,,,,,,,,,,,,,5e09ffd8fa3d102a583771c1,2020-11-27_11h10.02.855,lexical_decision_task_MP_exp2,2020.2.5,Win32,60,m,0,0.58612,,,,,,,,0.58612,0,,,,,,331,NW,"ID",33,gilfew,GILFEW,z,,,,,,0.052083333,-0.2265625,0,0,0,,0,321,321,270,1,
,,,,,,,,,,,,,,,,,,5e09ffd8fa3d102a583771c1,2020-11-27_11h10.02.855,lexical_decision_task_MP_exp2,2020.2.5,Win32,60,m,0,0.85087,,,,,,,,0.85087,0,,,,,,388,NW,"ID",16,cragin,CRAGIN,z,,,,,,0.052083333,-0.2265625,0,0,0,,0,322,322,327,1,
,,,,,,,,,,,,,,,,,,5e09ffd8fa3d102a583771c1,2020-11-27_11h10.02.855,lexical_decision_task_MP_exp2,2020.2.5,Win32,60,z,1,1.53335,,,,,,,,1.53335,1,,,,,,383,NW,"ID",16,aungre,AUNGRE,z,,,,,,0.052083333,-0.2265625,0,0,0,,0,323,323,322,1,
,,,,,,,,,,,,,,,,,,5e09ffd8fa3d102a583771c1,2020-11-27_11h10.02.855,lexical_decision_task_MP_exp2,2020.2.5,Win32,60,z,1,0.535925,,,,,,,,0.535925,1,,,,,,336,NW,"ID",33,ghodus,GHODUS,z,,,,,,0.052083333,-0.2265625,0,0,0,,0,324,324,275,1,
,,,,,,,,,,,,,,,,,,5e09ffd8fa3d102a583771c1,2020-11-27_11h10.02.855,lexical_decision_task_MP_exp2,2020.2.5,Win32,60,z,1,0.468295,,,,,,,,0.468295,1,,,,,,279,NW,UN,16,curbol,CELOND,z,,,,,,0.052083333,-0.2265625,0,0,0,,0,325,325,458,1,
,,,,,,,,,,,,,,,,,,5e09ffd8fa3d102a583771c1,2020-11-27_11h10.02.855,lexical_decision_task_MP_exp2,2020.2.5,Win32,60,m,0,0.734645,,,,,,,,0.734645,0,,,,,,335,NW,"ID",33,desion,DESION,z,,,,,,0.052083333,-0.2265625,0,0,0,,0,326,326,274,1,
,,,,,,,,,,,,,,,,,,5e09ffd8fa3d102a583771c1,2020-11-27_11h10.02.855,lexical_decision_task_MP_exp2,2020.2.5,Win32,60,z,1,0.96737,,,,,,,,0.96737,1,,,,,,294,NW,UN,16,gleath,INHORT,z,,,,,,0.052083333,-0.2265625,0,0,0,,0,327,327,473,1,
,,,,,,,,,,,,,,,,,,5e09ffd8fa3d102a583771c1,2020-11-27_11h10.02.855,lexical_decision_task_MP_exp2,2020.2.5,Win32,60,z,0,0.519185,,,,,,,,0.519185,0,,,,,,4,WORD,UN,16,plunge,TRENCH,m,,,,,,0.052083333,-0.2265625,0,0,0,,0,328,328,183,1,
,,,,,,,,,,,,,,,,,,5e09ffd8fa3d102a583771c1,2020-11-27_11h10.02.855,lexical_decision_task_MP_exp2,2020.2.5,Win32,60,z,1,0.73456,,,,,,,,0.73456,1,,,,,,325,NW,"ID",33,thruse,THRUSE,z,,,,,,0.052083333,-0.2265625,0,0,0,,0,329,329,264,1,
,,,,,,,,,,,,,,,,,,5e09ffd8fa3d102a583771c1,2020-11-27_11h10.02.855,lexical_decision_task_MP_exp2,2020.2.5,Win32,60,z,1,0.86783,,,,,,,,0.86783,1,,,,,,444,NW,UN,33,minkel,JAUNCE,z,,,,,,0.052083333,-0.2265625,0,0,0,,0,330,330,383,1,
,,,,,,,,,,,,,,,,,,5e09ffd8fa3d102a583771c1,2020-11-27_11h10.02.855,lexical_decision_task_MP_exp2,2020.2.5,Win32,60,m,1,0.733185,,,,,,,,0.733185,1,,,,,,240,WORD,UN,33,seldom,FOREST,m,,,,,,0.052083333,-0.2265625,0,0,0,,0,331,331,179,1,
,,,,,,,,,,,,,,,,,,5e09ffd8fa3d102a583771c1,2020-11-27_11h10.02.855,lexical_decision_task_MP_exp2,2020.2.5,Win32,60,m,1,0.501365,,,,,,,,0.501365,1,,,,,,71,WORD,"ID",33,garden,GARDEN,m,,,,,,0.052083333,-0.2265625,0,0,0,,0,332,332,10,1,
,,,,,,,,,,,,,,,,,,5e09ffd8fa3d102a583771c1,2020-11-27_11h10.02.855,lexical_decision_task_MP_exp2,2020.2.5,Win32,60,m,1,0.464875,,,,,,,,0.464875,1,,,,,,55,WORD,UN,16,ambush,STROKE,m,,,,,,0.052083333,-0.2265625,0,0,0,,0,333,333,234,1,
,,,,,,,,,,,,,,,,,,5e09ffd8fa3d102a583771c1,2020-11-27_11h10.02.855,lexical_decision_task_MP_exp2,2020.2.5,Win32,60,z,1,0.89216,,,,,,,,0.89216,1,,,,,,424,NW,UN,33,frudge,PRAILE,z,,,,,,0.052083333,-0.2265625,0,0,0,,0,334,334,363,1,
,,,,,,,,,,,,,,,,,,5e09ffd8fa3d102a583771c1,2020-11-27_11h10.02.855,lexical_decision_task_MP_exp2,2020.2.5,Win32,60,z,1,0.629035,,,,,,,,0.629035,1,,,,,,418,NW,"ID",16,suidle,SUIDLE,z,,,,,,0.052083333,-0.2265625,0,0,0,,0,335,335,357,1,
,,,,,,,,,,,,,,,,,,5e09ffd8fa3d102a583771c1,2020-11-27_11h10.02.855,lexical_decision_task_MP_exp2,2020.2.5,Win32,60,m,1,0.64787,,,,,,,,0.64787,1,,,,,,126,WORD,"ID",16,enough,ENOUGH,m,,,,,,0.052083333,-0.2265625,0,0,0,,0,336,336,65,1,
,,,,,,,,,,,,,,,,,,5e09ffd8fa3d102a583771c1,2020-11-27_11h10.02.855,lexical_decision_task_MP_exp2,2020.2.5,Win32,60,z,1,0.598215,,,,,,,,0.598215,1,,,,,,480,NW,UN,33,knisma,ROBULY,z,,,,,,0.052083333,-0.2265625,0,0,0,,0,337,337,419,1,
,,,,,,,,,,,,,,,,,,5e09ffd8fa3d102a583771c1,2020-11-27_11h10.02.855,lexical_decision_task_MP_exp2,2020.2.5,Win32,60,z,1,0.550795,,,,,,,,0.550795,1,,,,,,428,NW,UN,33,funtle,TANDLY,z,,,,,,0.052083333,-0.2265625,0,0,0,,0,338,338,367,1,
,,,,,,,,,,,,,,,,,,5e09ffd8fa3d102a583771c1,2020-11-27_11h10.02.855,lexical_decision_task_MP_exp2,2020.2.5,Win32,60,m,1,0.66716,,,,,,,,0.66716,1,,,,,,108,WORD,"ID",33,reckon,RECKON,m,,,,,,0.052083333,-0.2265625,0,0,0,,0,339,339,47,1,
,,,,,,,,,,,,,,,,,,5e09ffd8fa3d102a583771c1,2020-11-27_11h10.02.855,lexical_decision_task_MP_exp2,2020.2.5,Win32,60,z,1,0.683195,,,,,,,,0.683195,1,,,,,,260,NW,UN,16,stunch,UNJECT,z,,,,,,0.052083333,-0.2265625,0,0,0,,0,340,340,439,1,
,,,,,,,,,,,,,,,,,,5e09ffd8fa3d102a583771c1,2020-11-27_11h10.02.855,lexical_decision_task_MP_exp2,2020.2.5,Win32,60,z,1,1.01977,,,,,,,,1.01977,1,,,,,,299,NW,UN,16,yarion,STURCH,z,,,,,,0.052083333,-0.2265625,0,0,0,,0,341,341,478,1,
,,,,,,,,,,,,,,,,,,5e09ffd8fa3d102a583771c1,2020-11-27_11h10.02.855,lexical_decision_task_MP_exp2,2020.2.5,Win32,60,z,1,0.67036,,,,,,,,0.67036,1,,,,,,355,NW,"ID",33,zingly,ZINGLY,z,,,,,,0.052083333,-0.2265625,0,0,0,,0,342,342,294,1,
,,,,,,,,,,,,,,,,,,5e09ffd8fa3d102a583771c1,2020-11-27_11h10.02.855,lexical_decision_task_MP_exp2,2020.2.5,Win32,60,z,1,0.62615,,,,,,,,0.62615,1,,,,,,358,NW,"ID",33,fleack,FLEACK,z,,,,,,0.052083333,-0.2265625,0,0,0,,0,343,343,297,1,
,,,,,,,,,,,,,,,,,,5e09ffd8fa3d102a583771c1,2020-11-27_11h10.02.855,lexical_decision_task_MP_exp2,2020.2.5,Win32,60,z,1,0.498305,,,,,,,,0.498305,1,,,,,,367,NW,"ID",16,slique,SLIQUE,z,,,,,,0.052083333,-0.2265625,0,0,0,,0,344,344,306,1,
,,,,,,,,,,,,,,,,,,5e09ffd8fa3d102a583771c1,2020-11-27_11h10.02.855,lexical_decision_task_MP_exp2,2020.2.5,Win32,60,z,1,0.697845,,,,,,,,0.697845,1,,,,,,305,NW,"ID",33,forgle,FORGLE,z,,,,,,0.052083333,-0.2265625,0,0,0,,0,345,345,244,1,
,,,,,,,,,,,,,,,,,,5e09ffd8fa3d102a583771c1,2020-11-27_11h10.02.855,lexical_decision_task_MP_exp2,2020.2.5,Win32,60,m,1,0.534645,,,,,,,,0.534645,1,,,,,,190,WORD,UN,33,stable,BACKUP,m,,,,,,0.052083333,-0.2265625,0,0,0,,0,346,346,129,1,
,,,,,,,,,,,,,,,,,,5e09ffd8fa3d102a583771c1,2020-11-27_11h10.02.855,lexical_decision_task_MP_exp2,2020.2.5,Win32,60,z,1,0.588155,,,,,,,,0.588155,1,,,,,,415,NW,"ID",16,higsta,HIGSTA,z,,,,,,0.052083333,-0.2265625,0,0,0,,0,347,347,354,1,
,,,,,,,,,,,,,,,,,,5e09ffd8fa3d102a583771c1,2020-11-27_11h10.02.855,lexical_decision_task_MP_exp2,2020.2.5,Win32,60,m,1,0.70373,,,,,,,,0.70373,1,,,,,,181,WORD,UN,33,winter,GLANCE,m,,,,,,0.052083333,-0.2265625,0,0,0,,0,348,348,120,1,
,,,,,,,,,,,,,,,,,,5e09ffd8fa3d102a583771c1,2020-11-27_11h10.02.855,lexical_decision_task_MP_exp2,2020.2.5,Win32,60,z,1,0.73493,,,,,,,,0.73493,1,,,,,,280,NW,UN,16,melaty,CURBOL,z,,,,,,0.052083333,-0.2265625,0,0,0,,0,349,349,459,1,
,,,,,,,,,,,,,,,,,,5e09ffd8fa3d102a583771c1,2020-11-27_11h10.02.855,lexical_decision_task_MP_exp2,2020.2.5,Win32,60,z,1,0.6055,,,,,,,,0.6055,1,,,,,,365,NW,"ID",16,guairt,GUAIRT,z,,,,,,0.052083333,-0.2265625,0,0,0,,0,350,350,304,1,
,,,,,,,,,,,,,,,,,,5e09ffd8fa3d102a583771c1,2020-11-27_11h10.02.855,lexical_decision_task_MP_exp2,2020.2.5,Win32,60,z,0,0.51498,,,,,,,,0.51498,0,,,,,,183,WORD,UN,33,sleazy,MILDEW,m,,,,,,0.052083333,-0.2265625,0,0,0,,0,351,351,122,1,
,,,,,,,,,,,,,,,,,,5e09ffd8fa3d102a583771c1,2020-11-27_11h10.02.855,lexical_decision_task_MP_exp2,2020.2.5,Win32,60,z,1,1.01531,,,,,,,,1.01531,1,,,,,,411,NW,"ID",16,orchin,ORCHIN,z,,,,,,0.052083333,-0.2265625,0,0,0,,0,352,352,350,1,
,,,,,,,,,,,,,,,,,,5e09ffd8fa3d102a583771c1,2020-11-27_11h10.02.855,lexical_decision_task_MP_exp2,2020.2.5,Win32,60,m,1,0.665515,,,,,,,,0.665515,1,,,,,,91,WORD,"ID",33,expand,EXPAND,m,,,,,,0.052083333,-0.2265625,0,0,0,,0,353,353,30,1,
,,,,,,,,,,,,,,,,,,5e09ffd8fa3d102a583771c1,2020-11-27_11h10.02.855,lexical_decision_task_MP_exp2,2020.2.5,Win32,60,m,1,0.457945,,,,,,,,0.457945,1,,,,,,203,WORD,UN,33,burden,PHRASE,m,,,,,,0.052083333,-0.2265625,0,0,0,,0,354,354,142,1,
,,,,,,,,,,,,,,,,,,5e09ffd8fa3d102a583771c1,2020-11-27_11h10.02.855,lexical_decision_task_MP_exp2,2020.2.5,Win32,60,m,1,0.564845,,,,,,,,0.564845,1,,,,,,75,WORD,"ID",33,trophy,TROPHY,m,,,,,,0.052083333,-0.2265625,0,0,0,,0,355,355,14,1,
,,,,,,,,,,,,,,,,,,5e09ffd8fa3d102a583771c1,2020-11-27_11h10.02.855,lexical_decision_task_MP_exp2,2020.2.5,Win32,60,m,1,0.48501,,,,,,,,0.48501,1,,,,,,130,WORD,"ID",16,stupid,STUPID,m,,,,,,0.052083333,-0.2265625,0,0,0,,0,356,356,69,1,
,,,,,,,,,,,,,,,,,,5e09ffd8fa3d102a583771c1,2020-11-27_11h10.02.855,lexical_decision_task_MP_exp2,2020.2.5,Win32,60,z,1,0.463575,,,,,,,,0.463575,1,,,,,,288,NW,UN,16,starby,YACEUP,z,,,,,,0.052083333,-0.2265625,0,0,0,,0,357,357,467,1,
,,,,,,,,,,,,,,,,,,5e09ffd8fa3d102a583771c1,2020-11-27_11h10.02.855,lexical_decision_task_MP_exp2,2020.2.5,Win32,60,m,1,0.533485,,,,,,,,0.533485,1,,,,,,119,WORD,"ID",33,spider,SPIDER,m,,,,,,0.052083333,-0.2265625,0,0,0,,0,358,358,58,1,
,,,,,,,,,,,,,,,,,,5e09ffd8fa3d102a583771c1,2020-11-27_11h10.02.855,lexical_decision_task_MP_exp2,2020.2.5,Win32,60,m,1,0.650985,,,,,,,,0.650985,1,,,,,,168,WORD,"ID",16,answer,ANSWER,m,,,,,,0.052083333,-0.2265625,0,0,0,,0,359,359,107,1,
,,,,,,,,,,,,,,,,,,5e09ffd8fa3d102a583771c1,2020-11-27_11h10.02.855,lexical_decision_task_MP_exp2,2020.2.5,Win32,60,z,1,0.54211,,,,,,,,0.54211,1,,,,,,412,NW,"ID",16,jiluer,JILUER,z,,,,,,0.052083333,-0.2265625,0,0,0,,0,360,360,351,1,
,,,,,,,,,,,,,,,,,,5e09ffd8fa3d102a583771c1,2020-11-27_11h10.02.855,lexical_decision_task_MP_exp2,2020.2.5,Win32,60,z,1,0.61461,,,,,,,,0.61461,1,,,,,,372,NW,"ID",16,ramily,RAMILY,z,,,,,,0.052083333,-0.2265625,0,0,0,,0,361,361,311,1,
,,,,,,,,,,,,,,,,,,5e09ffd8fa3d102a583771c1,2020-11-27_11h10.02.855,lexical_decision_task_MP_exp2,2020.2.5,Win32,60,m,1,0.583355,,,,,,,,0.583355,1,,,,,,21,WORD,UN,16,jockey,SIMPLE,m,,,,,,0.052083333,-0.2265625,0,0,0,space,0,362,362,200,1,1.495505
,,,,,,,,,,,,,,,,,,5e09ffd8fa3d102a583771c1,2020-11-27_11h10.02.855,lexical_decision_task_MP_exp2,2020.2.5,Win32,60,,0,,,,,,,,,0.583355,-1,,,,,,5,WORD,UN,16,bundle,PLUNGE,m,,,,,,0.052083333,-0.2265625,0,0,0,,0,363,363,184,1,
,,,,,,,,,,,,,,,,,,5e09ffd8fa3d102a583771c1,2020-11-27_11h10.02.855,lexical_decision_task_MP_exp2,2020.2.5,Win32,60,m,1,0.536945,,,,,,,,0.536945,1,,,,,,198,WORD,UN,33,invoke,WICKED,m,,,,,,0.052083333,-0.2265625,0,0,0,,0,364,364,137,1,
,,,,,,,,,,,,,,,,,,5e09ffd8fa3d102a583771c1,2020-11-27_11h10.02.855,lexical_decision_task_MP_exp2,2020.2.5,Win32,60,z,1,0.65417,,,,,,,,0.65417,1,,,,,,302,NW,"ID",33,miluer,MILUER,z,,,,,,0.052083333,-0.2265625,0,0,0,,0,365,365,241,1,
,,,,,,,,,,,,,,,,,,5e09ffd8fa3d102a583771c1,2020-11-27_11h10.02.855,lexical_decision_task_MP_exp2,2020.2.5,Win32,60,m,0,0.531125,,,,,,,,0.531125,0,,,,,,261,NW,UN,16,quilew,STUNCH,z,,,,,,0.052083333,-0.2265625,0,0,0,,0,366,366,440,1,
,,,,,,,,,,,,,,,,,,5e09ffd8fa3d102a583771c1,2020-11-27_11h10.02.855,lexical_decision_task_MP_exp2,2020.2.5,Win32,60,m,1,0.581975,,,,,,,,0.581975,1,,,,,,201,WORD,UN,33,factor,ADMIRE,m,,,,,,0.052083333,-0.2265625,0,0,0,,0,367,367,140,1,
,,,,,,,,,,,,,,,,,,5e09ffd8fa3d102a583771c1,2020-11-27_11h10.02.855,lexical_decision_task_MP_exp2,2020.2.5,Win32,60,m,1,0.56884,,,,,,,,0.56884,1,,,,,,124,WORD,"ID",16,blouse,BLOUSE,m,,,,,,0.052083333,-0.2265625,0,0,0,,0,368,368,63,1,
,,,,,,,,,,,,,,,,,,5e09ffd8fa3d102a583771c1,2020-11-27_11h10.02.855,lexical_decision_task_MP_exp2,2020.2.5,Win32,60,z,1,0.74868,,,,,,,,0.74868,1,,,,,,477,NW,UN,33,lobush,PHOTIE,z,,,,,,0.052083333,-0.2265625,0,0,0,,0,369,369,416,1,
,,,,,,,,,,,,,,,,,,5e09ffd8fa3d102a583771c1,2020-11-27_11h10.02.855,lexical_decision_task_MP_exp2,2020.2.5,Win32,60,z,1,0.601095,,,,,,,,0.601095,1,,,,,,318,NW,"ID",33,reagly,REAGLY,z,,,,,,0.052083333,-0.2265625,0,0,0,,0,370,370,257,1,
,,,,,,,,,,,,,,,,,,5e09ffd8fa3d102a583771c1,2020-11-27_11h10.02.855,lexical_decision_task_MP_exp2,2020.2.5,Win32,60,m,1,0.70037,,,,,,,,0.70037,1,,,,,,142,WORD,"ID",16,spruce,SPRUCE,m,,,,,,0.052083333,-0.2265625,0,0,0,,0,371,371,81,1,
,,,,,,,,,,,,,,,,,,5e09ffd8fa3d102a583771c1,2020-11-27_11h10.02.855,lexical_decision_task_MP_exp2,2020.2.5,Win32,60,z,1,0.699755,,,,,,,,0.699755,1,,,,,,459,NW,UN,33,mingar,BAFENT,z,,,,,,0.052083333,-0.2265625,0,0,0,,0,372,372,398,1,
,,,,,,,,,,,,,,,,,,5e09ffd8fa3d102a583771c1,2020-11-27_11h10.02.855,lexical_decision_task_MP_exp2,2020.2.5,Win32,60,m,1,0.65006,,,,,,,,0.65006,1,,,,,,149,WORD,"ID",16,invade,INVADE,m,,,,,,0.052083333,-0.2265625,0,0,0,,0,373,373,88,1,
,,,,,,,,,,,,,,,,,,5e09ffd8fa3d102a583771c1,2020-11-27_11h10.02.855,lexical_decision_task_MP_exp2,2020.2.5,Win32,60,z,1,0.5564,,,,,,,,0.5564,1,,,,,,341,NW,"ID",33,myrtie,MYRTIE,z,,,,,,0.052083333,-0.2265625,0,0,0,,0,374,374,280,1,
,,,,,,,,,,,,,,,,,,5e09ffd8fa3d102a583771c1,2020-11-27_11h10.02.855,lexical_decision_task_MP_exp2,2020.2.5,Win32,60,z,1,0.625685,,,,,,,,0.625685,1,,,,,,313,NW,"ID",33,paurse,PAURSE,z,,,,,,0.052083333,-0.2265625,0,0,0,,0,375,375,252,1,
,,,,,,,,,,,,,,,,,,5e09ffd8fa3d102a583771c1,2020-11-27_11h10.02.855,lexical_decision_task_MP_exp2,2020.2.5,Win32,60,m,1,0.676355,,,,,,,,0.676355,1,,,,,,66,WORD,"ID",33,gospel,GOSPEL,m,,,,,,0.052083333,-0.2265625,0,0,0,,0,376,376,5,1,
,,,,,,,,,,,,,,,,,,5e09ffd8fa3d102a583771c1,2020-11-27_11h10.02.855,lexical_decision_task_MP_exp2,2020.2.5,Win32,60,m,1,0.46826,,,,,,,,0.46826,1,,,,,,90,WORD,"ID",33,relish,RELISH,m,,,,,,0.052083333,-0.2265625,0,0,0,,0,377,377,29,1,
,,,,,,,,,,,,,,,,,,5e09ffd8fa3d102a583771c1,2020-11-27_11h10.02.855,lexical_decision_task_MP_exp2,2020.2.5,Win32,60,z,1,0.58636,,,,,,,,0.58636,1,,,,,,347,NW,"ID",33,kerift,KERIFT,z,,,,,,0.052083333,-0.2265625,0,0,0,,0,378,378,286,1,
,,,,,,,,,,,,,,,,,,5e09ffd8fa3d102a583771c1,2020-11-27_11h10.02.855,lexical_decision_task_MP_exp2,2020.2.5,Win32,60,m,1,0.581945,,,,,,,,0.581945,1,,,,,,205,WORD,UN,33,tailor,LOUNGE,m,,,,,,0.052083333,-0.2265625,0,0,0,,0,379,379,144,1,
,,,,,,,,,,,,,,,,,,5e09ffd8fa3d102a583771c1,2020-11-27_11h10.02.855,lexical_decision_task_MP_exp2,2020.2.5,Win32,60,m,1,0.735895,,,,,,,,0.735895,1,,,,,,49,WORD,UN,16,snatch,SURVEY,m,,,,,,0.052083333,-0.2265625,0,0,0,,0,380,380,228,1,
,,,,,,,,,,,,,,,,,,5e09ffd8fa3d102a583771c1,2020-11-27_11h10.02.855,lexical_decision_task_MP_exp2,2020.2.5,Win32,60,z,1,0.59356,,,,,,,,0.59356,1,,,,,,440,NW,UN,33,rastoe,SARIDE,z,,,,,,0.052083333,-0.2265625,0,0,0,,0,381,381,379,1,
,,,,,,,,,,,,,,,,,,5e09ffd8fa3d102a583771c1,2020-11-27_11h10.02.855,lexical_decision_task_MP_exp2,2020.2.5,Win32,60,z,1,0.564075,,,,,,,,0.564075,1,,,,,,286,NW,UN,16,nymbel,RELDON,z,,,,,,0.052083333,-0.2265625,0,0,0,,0,382,382,465,1,
,,,,,,,,,,,,,,,,,,5e09ffd8fa3d102a583771c1,2020-11-27_11h10.02.855,lexical_decision_task_MP_exp2,2020.2.5,Win32,60,z,1,0.51896,,,,,,,,0.51896,1,,,,,,357,NW,"ID",33,derain,DERAIN,z,,,,,,0.052083333,-0.2265625,0,0,0,,0,383,383,296,1,
,,,,,,,,,,,,,,,,,,5e09ffd8fa3d102a583771c1,2020-11-27_11h10.02.855,lexical_decision_task_MP_exp2,2020.2.5,Win32,60,z,1,0.48154,,,,,,,,0.48154,1,,,,,,337,NW,"ID",33,rejols,REJOLS,z,,,,,,0.052083333,-0.2265625,0,0,0,,0,384,384,276,1,
,,,,,,,,,,,,,,,,,,5e09ffd8fa3d102a583771c1,2020-11-27_11h10.02.855,lexical_decision_task_MP_exp2,2020.2.5,Win32,60,m,1,0.597705,,,,,,,,0.597705,1,,,,,,29,WORD,UN,16,orient,SKETCH,m,,,,,,0.052083333,-0.2265625,0,0,0,,0,385,385,208,1,
,,,,,,,,,,,,,,,,,,5e09ffd8fa3d102a583771c1,2020-11-27_11h10.02.855,lexical_decision_task_MP_exp2,2020.2.5,Win32,60,m,1,0.411105,,,,,,,,0.411105,1,,,,,,78,WORD,"ID",33,column,COLUMN,m,,,,,,0.052083333,-0.2265625,0,0,0,,0,386,386,17,1,
,,,,,,,,,,,,,,,,,,5e09ffd8fa3d102a583771c1,2020-11-27_11h10.02.855,lexical_decision_task_MP_exp2,2020.2.5,Win32,60,m,1,0.43451,,,,,,,,0.43451,1,,,,,,161,WORD,"ID",16,pastor,PASTOR,m,,,,,,0.052083333,-0.2265625,0,0,0,,0,387,387,100,1,
,,,,,,,,,,,,,,,,,,5e09ffd8fa3d102a583771c1,2020-11-27_11h10.02.855,lexical_decision_task_MP_exp2,2020.2.5,Win32,60,z,1,0.60336,,,,,,,,0.60336,1,,,,,,406,NW,"ID",16,nouply,NOUPLY,z,,,,,,0.052083333,-0.2265625,0,0,0,,0,388,388,345,1,
,,,,,,,,,,,,,,,,,,5e09ffd8fa3d102a583771c1,2020-11-27_11h10.02.855,lexical_decision_task_MP_exp2,2020.2.5,Win32,60,m,1,0.59597,,,,,,,,0.59597,1,,,,,,211,WORD,UN,33,verify,INFECT,m,,,,,,0.052083333,-0.2265625,0,0,0,,0,389,389,150,1,
,,,,,,,,,,,,,,,,,,5e09ffd8fa3d102a583771c1,2020-11-27_11h10.02.855,lexical_decision_task_MP_exp2,2020.2.5,Win32,60,z,1,0.634505,,,,,,,,0.634505,1,,,,,,248,NW,UN,16,batrol,STROLE,z,,,,,,0.052083333,-0.2265625,0,0,0,,0,390,390,427,1,
,,,,,,,,,,,,,,,,,,5e09ffd8fa3d102a583771c1,2020-11-27_11h10.02.855,lexical_decision_task_MP_exp2,2020.2.5,Win32,60,z,1,0.56779,,,,,,,,0.56779,1,,,,,,379,NW,"ID",16,auting,AUTING,z,,,,,,0.052083333,-0.2265625,0,0,0,,0,391,391,318,1,
,,,,,,,,,,,,,,,,,,5e09ffd8fa3d102a583771c1,2020-11-27_11h10.02.855,lexical_decision_task_MP_exp2,2020.2.5,Win32,60,z,1,0.46826,,,,,,,,0.46826,1,,,,,,471,NW,UN,33,cigney,NOBEST,z,,,,,,0.052083333,-0.2265625,0,0,0,,0,392,392,410,1,
,,,,,,,,,,,,,,,,,,5e09ffd8fa3d102a583771c1,2020-11-27_11h10.02.855,lexical_decision_task_MP_exp2,2020.2.5,Win32,60,z,1,0.484735,,,,,,,,0.484735,1,,,,,,479,NW,UN,33,crible,LOBUSH,z,,,,,,0.052083333,-0.2265625,0,0,0,,0,393,393,418,1,
,,,,,,,,,,,,,,,,,,5e09ffd8fa3d102a583771c1,2020-11-27_11h10.02.855,lexical_decision_task_MP_exp2,2020.2.5,Win32,60,m,1,0.40163,,,,,,,,0.40163,1,,,,,,175,WORD,"ID",16,fabric,FABRIC,m,,,,,,0.052083333,-0.2265625,0,0,0,,0,394,394,114,1,
,,,,,,,,,,,,,,,,,,5e09ffd8fa3d102a583771c1,2020-11-27_11h10.02.855,lexical_decision_task_MP_exp2,2020.2.5,Win32,60,z,1,0.63473,,,,,,,,0.63473,1,,,,,,338,NW,"ID",33,wreash,WREASH,z,,,,,,0.052083333,-0.2265625,0,0,0,,0,395,395,277,1,
,,,,,,,,,,,,,,,,,,5e09ffd8fa3d102a583771c1,2020-11-27_11h10.02.855,lexical_decision_task_MP_exp2,2020.2.5,Win32,60,m,1,0.702615,,,,,,,,0.702615,1,,,,,,7,WORD,UN,16,abrupt,ANCHOR,m,,,,,,0.052083333,-0.2265625,0,0,0,,0,396,396,186,1,
,,,,,,,,,,,,,,,,,,5e09ffd8fa3d102a583771c1,2020-11-27_11h10.02.855,lexical_decision_task_MP_exp2,2020.2.5,Win32,60,z,1,0.63606,,,,,,,,0.63606,1,,,,,,353,NW,"ID",33,clurey,CLUREY,z,,,,,,0.052083333,-0.2265625,0,0,0,,0,397,397,292,1,
,,,,,,,,,,,,,,,,,,5e09ffd8fa3d102a583771c1,2020-11-27_11h10.02.855,lexical_decision_task_MP_exp2,2020.2.5,Win32,60,m,1,0.88478,,,,,,,,0.88478,1,,,,,,69,WORD,"ID",33,plenty,PLENTY,m,,,,,,0.052083333,-0.2265625,0,0,0,,0,398,398,8,1,
