counterbalancing_condition,instr_done_keyboard.keys,instr_done_keyboard.rt,instr_done_touch.x,instr_done_touch.y,instr_done_touch.leftButton,instr_done_touch.midButton,instr_done_touch.rightButton,instruction_pages.thisRepN,instruction_pages.thisTrialN,instruction_pages.thisN,instruction_pages.thisIndex,instruction_pages.ran,pageN,phase,instruct_text,has_image,instruct_image,participant,date,expName,psychopyVersion,OS,frameRate,response.keys,response.corr,touch_resp.x,touch_resp.y,touch_resp.leftButton,touch_resp.midButton,touch_resp.rightButton,touch_resp.time,touch_resp.clicked_name,rt,corr,practice_trials.thisRepN,practice_trials.thisTrialN,practice_trials.thisN,practice_trials.thisIndex,practice_trials.ran,TrialID,StimulusType,Condition,PrimeDuration,Prime,Target,corrAns,response.rt,end_of_practice_trials_pages.thisRepN,end_of_practice_trials_pages.thisTrialN,end_of_practice_trials_pages.thisN,end_of_practice_trials_pages.thisIndex,end_of_practice_trials_pages.ran,break_done_touch.x,break_done_touch.y,break_done_touch.leftButton,break_done_touch.midButton,break_done_touch.rightButton,break_done_keyboard.keys,experiment_trials.thisRepN,experiment_trials.thisTrialN,experiment_trials.thisN,experiment_trials.thisIndex,experiment_trials.ran,break_done_keyboard.rt
3,space,7.365745,0.003910068,-0.384652981,0,0,0,0,0,0,0,1,1,instructions,"INSTRUCTIONS
At the start of each trial, look at the hash marks (######) in the center of the screen. After a moment, a string of letters will appear. Your task is to indicate if the letter string forms a word or not (i.e., if it is a nonword). For example, AUTHOR is a word while AUTHON is a nonword.

Press the space bar or touch the button below to continue.",0,,5e149c03864020aa6e1cf04d,2020-11-27_10h05.48.928,lexical_decision_task_MP_exp2,2020.2.5,Win32,60,,,,,,,,,,,,,,,,,,,,,,,,,,,,,,,,,,,,,,,,,
,space,0.03514,0.003910068,-0.384652981,0,0,0,0,1,1,1,1,2,instructions,"If your device has a keyboard, press the 'Z' key for nonwords and the 'M' key for words.





Press the space bar or touch the button below to continue.",1,keyboard-example.gif,5e149c03864020aa6e1cf04d,2020-11-27_10h05.48.928,lexical_decision_task_MP_exp2,2020.2.5,Win32,60,,,,,,,,,,,,,,,,,,,,,,,,,,,,,,,,,,,,,,,,,
,space,4.37177,-0.26001955,-0.020039101,0,0,0,0,2,2,2,1,3,instructions,"If you are using a touchscreen only device, use the buttons on the screen. Do not use the mouse.





Press the space bar or touch the button below to continue.",1,touchscreen-example.gif,5e149c03864020aa6e1cf04d,2020-11-27_10h05.48.928,lexical_decision_task_MP_exp2,2020.2.5,Win32,60,,,,,,,,,,,,,,,,,,,,,,,,,,,,,,,,,,,,,,,,,
,space,6.618785,-0.061583578,-0.068914956,0,0,0,0,3,3,3,1,4,instructions,"It is very important that you respond as quickly and accurately as possible, as each letter string will only be on the screen for two seconds. If you do not respond within this time, the message 'Too slow!' will be displayed and the experiment will progress to the next letter string. The first 20 trials will be practice trials and you will receive feedback on your answers. 

Press the space bar or touch the button below to start the practice trials.",0,,5e149c03864020aa6e1cf04d,2020-11-27_10h05.48.928,lexical_decision_task_MP_exp2,2020.2.5,Win32,60,,,,,,,,,,,,,,,,,,,,,,,,,,,,,,,,,,,,,,,,,
,,,,,,,,,,,,,,,,,,5e149c03864020aa6e1cf04d,2020-11-27_10h05.48.928,lexical_decision_task_MP_exp2,2020.2.5,Win32,60,,0,,,,,,,,,-1,0,0,0,10,1,1011,NW,"ID",16,inlade,INLADE,z,,,,,,,,,,,,,,,,,,
,,,,,,,,,,,,,,,,,,5e149c03864020aa6e1cf04d,2020-11-27_10h05.48.928,lexical_decision_task_MP_exp2,2020.2.5,Win32,60,m,1,,,,,,,,1.113715,1,0,1,1,4,1,1005,WORD,UN,33,abound,SQUEAK,m,1.113715,,,,,,,,,,,,,,,,,
,,,,,,,,,,,,,,,,,,5e149c03864020aa6e1cf04d,2020-11-27_10h05.48.928,lexical_decision_task_MP_exp2,2020.2.5,Win32,60,z,1,,,,,,,,0.573025,1,0,2,2,14,1,1015,NW,UN,16,miaber,THRALE,z,0.573025,,,,,,,,,,,,,,,,,
,,,,,,,,,,,,,,,,,,5e149c03864020aa6e1cf04d,2020-11-27_10h05.48.928,lexical_decision_task_MP_exp2,2020.2.5,Win32,60,m,0,,,,,,,,0.61503,0,0,3,3,8,1,1009,NW,"ID",33,aslert,ASLERT,z,0.61503,,,,,,,,,,,,,,,,,
,,,,,,,,,,,,,,,,,,5e149c03864020aa6e1cf04d,2020-11-27_10h05.48.928,lexical_decision_task_MP_exp2,2020.2.5,Win32,60,z,1,,,,,,,,0.503925,1,0,4,4,11,1,1012,NW,"ID",16,rashet,RASHET,z,0.503925,,,,,,,,,,,,,,,,,
,,,,,,,,,,,,,,,,,,5e149c03864020aa6e1cf04d,2020-11-27_10h05.48.928,lexical_decision_task_MP_exp2,2020.2.5,Win32,60,m,1,,,,,,,,0.616845,1,0,5,5,5,1,1006,WORD,UN,33,frenzy,OBTAIN,m,0.616845,,,,,,,,,,,,,,,,,
,,,,,,,,,,,,,,,,,,5e149c03864020aa6e1cf04d,2020-11-27_10h05.48.928,lexical_decision_task_MP_exp2,2020.2.5,Win32,60,z,1,,,,,,,,0.565495,1,0,6,6,15,1,1016,NW,UN,16,mushed,WHAISE,z,0.565495,,,,,,,,,,,,,,,,,
,,,,,,,,,,,,,,,,,,5e149c03864020aa6e1cf04d,2020-11-27_10h05.48.928,lexical_decision_task_MP_exp2,2020.2.5,Win32,60,z,1,,,,,,,,0.716395,1,0,7,7,12,1,1013,NW,UN,33,adveil,SPRINY,z,0.716395,,,,,,,,,,,,,,,,,
,,,,,,,,,,,,,,,,,,5e149c03864020aa6e1cf04d,2020-11-27_10h05.48.928,lexical_decision_task_MP_exp2,2020.2.5,Win32,60,m,1,,,,,,,,0.536655,1,0,8,8,0,1,1001,WORD,"ID",33,utopia,UTOPIA,m,0.536655,,,,,,,,,,,,,,,,,
,,,,,,,,,,,,,,,,,,5e149c03864020aa6e1cf04d,2020-11-27_10h05.48.928,lexical_decision_task_MP_exp2,2020.2.5,Win32,60,z,1,,,,,,,,0.559045,1,0,9,9,9,1,1010,NW,"ID",33,fariny,FARINY,z,0.559045,,,,,,,,,,,,,,,,,
,,,,,,,,,,,,,,,,,,5e149c03864020aa6e1cf04d,2020-11-27_10h05.48.928,lexical_decision_task_MP_exp2,2020.2.5,Win32,60,m,1,,,,,,,,0.549945,1,0,10,10,2,1,1003,WORD,"ID",16,almond,ALMOND,m,0.549945,,,,,,,,,,,,,,,,,
,,,,,,,,,,,,,,,,,,5e149c03864020aa6e1cf04d,2020-11-27_10h05.48.928,lexical_decision_task_MP_exp2,2020.2.5,Win32,60,z,1,,,,,,,,0.470325,1,0,11,11,13,1,1014,NW,UN,33,winfer,ROUPET,z,0.470325,,,,,,,,,,,,,,,,,
,,,,,,,,,,,,,,,,,,5e149c03864020aa6e1cf04d,2020-11-27_10h05.48.928,lexical_decision_task_MP_exp2,2020.2.5,Win32,60,m,1,,,,,,,,0.488845,1,0,12,12,7,1,1008,WORD,UN,16,hurdle,VOLUME,m,0.488845,,,,,,,,,,,,,,,,,
,,,,,,,,,,,,,,,,,,5e149c03864020aa6e1cf04d,2020-11-27_10h05.48.928,lexical_decision_task_MP_exp2,2020.2.5,Win32,60,m,1,,,,,,,,0.54256,1,0,13,13,6,1,1007,WORD,UN,16,tropic,ZOMBIE,m,0.54256,,,,,,,,,,,,,,,,,
,,,,,,,,,,,,,,,,,,5e149c03864020aa6e1cf04d,2020-11-27_10h05.48.928,lexical_decision_task_MP_exp2,2020.2.5,Win32,60,m,1,,,,,,,,0.56304,1,0,14,14,3,1,1004,WORD,"ID",16,matrix,MATRIX,m,0.56304,,,,,,,,,,,,,,,,,
,,,,,,,,,,,,,,,,,,5e149c03864020aa6e1cf04d,2020-11-27_10h05.48.928,lexical_decision_task_MP_exp2,2020.2.5,Win32,60,m,1,,,,,,,,0.53179,1,0,15,15,1,1,1002,WORD,"ID",33,adjust,ADJUST,m,0.53179,,,,,,,,,,,,,,,,,
,space,5.66025,-0.061583578,-0.068914956,0,0,0,,,,,,1,end_of_practice,"You have completed the practice trials. During the experimental trials, you will not receive feedback, but it is very important that you respond as quickly and accurately as possible. 
Before you begin, please ensure that you are in a comfortable and quiet location and will not be disturbed for about 15 minutes, as we cannot use your data if you do not complete all the trials. 
There will be opportunities to take breaks at regular intervals during the experiment. When you are ready to start the experimental trials, please press space or touch the button below.",,,5e149c03864020aa6e1cf04d,2020-11-27_10h05.48.928,lexical_decision_task_MP_exp2,2020.2.5,Win32,60,,,,,,,,,,,,,,,,,,,,,,,,,0,0,0,0,1,,,,,,,,,,,,
,,,,,,,,,,,,,,,,,,5e149c03864020aa6e1cf04d,2020-11-27_10h05.48.928,lexical_decision_task_MP_exp2,2020.2.5,Win32,60,z,1,,,,,,,,0.69401,1,,,,,,315,NW,"ID",33,laston,LASTON,z,0.69401,,,,,,-0.061583578,-0.068914956,0,0,0,,0,0,0,254,1,
,,,,,,,,,,,,,,,,,,5e149c03864020aa6e1cf04d,2020-11-27_10h05.48.928,lexical_decision_task_MP_exp2,2020.2.5,Win32,60,z,1,,,,,,,,0.60265,1,,,,,,278,NW,UN,16,celond,UNIGHS,z,0.60265,,,,,,-0.061583578,-0.068914956,0,0,0,,0,1,1,457,1,
,,,,,,,,,,,,,,,,,,5e149c03864020aa6e1cf04d,2020-11-27_10h05.48.928,lexical_decision_task_MP_exp2,2020.2.5,Win32,60,m,1,,,,,,,,0.508995,1,,,,,,220,WORD,UN,33,mascot,VOYAGE,m,0.508995,,,,,,-0.061583578,-0.068914956,0,0,0,,0,2,2,159,1,
,,,,,,,,,,,,,,,,,,5e149c03864020aa6e1cf04d,2020-11-27_10h05.48.928,lexical_decision_task_MP_exp2,2020.2.5,Win32,60,m,1,,,,,,,,0.56399,1,,,,,,221,WORD,UN,33,hinder,MASCOT,m,0.56399,,,,,,-0.061583578,-0.068914956,0,0,0,,0,3,3,160,1,
,,,,,,,,,,,,,,,,,,5e149c03864020aa6e1cf04d,2020-11-27_10h05.48.928,lexical_decision_task_MP_exp2,2020.2.5,Win32,60,z,1,,,,,,,,0.629615,1,,,,,,332,NW,"ID",33,vangue,VANGUE,z,0.629615,,,,,,-0.061583578,-0.068914956,0,0,0,,0,4,4,271,1,
,,,,,,,,,,,,,,,,,,5e149c03864020aa6e1cf04d,2020-11-27_10h05.48.928,lexical_decision_task_MP_exp2,2020.2.5,Win32,60,z,1,,,,,,,,0.556675,1,,,,,,404,NW,"ID",16,cluirm,CLUIRM,z,0.556675,,,,,,-0.061583578,-0.068914956,0,0,0,,0,5,5,343,1,
,,,,,,,,,,,,,,,,,,5e149c03864020aa6e1cf04d,2020-11-27_10h05.48.928,lexical_decision_task_MP_exp2,2020.2.5,Win32,60,z,1,,,,,,,,0.512455,1,,,,,,385,NW,"ID",16,veigma,VEIGMA,z,0.512455,,,,,,-0.061583578,-0.068914956,0,0,0,,0,6,6,324,1,
,,,,,,,,,,,,,,,,,,5e149c03864020aa6e1cf04d,2020-11-27_10h05.48.928,lexical_decision_task_MP_exp2,2020.2.5,Win32,60,m,1,,,,,,,,0.50968,1,,,,,,236,WORD,UN,33,grumpy,PIRATE,m,0.50968,,,,,,-0.061583578,-0.068914956,0,0,0,,0,7,7,175,1,
,,,,,,,,,,,,,,,,,,5e149c03864020aa6e1cf04d,2020-11-27_10h05.48.928,lexical_decision_task_MP_exp2,2020.2.5,Win32,60,z,1,,,,,,,,0.50021,1,,,,,,473,NW,UN,33,hablin,CRIBLE,z,0.50021,,,,,,-0.061583578,-0.068914956,0,0,0,,0,8,8,412,1,
,,,,,,,,,,,,,,,,,,5e149c03864020aa6e1cf04d,2020-11-27_10h05.48.928,lexical_decision_task_MP_exp2,2020.2.5,Win32,60,z,1,,,,,,,,0.537795,1,,,,,,466,NW,UN,33,robuly,HOCITE,z,0.537795,,,,,,-0.061583578,-0.068914956,0,0,0,,0,9,9,405,1,
,,,,,,,,,,,,,,,,,,5e149c03864020aa6e1cf04d,2020-11-27_10h05.48.928,lexical_decision_task_MP_exp2,2020.2.5,Win32,60,z,1,,,,,,,,0.54143,1,,,,,,346,NW,"ID",33,saudic,SAUDIC,z,0.54143,,,,,,-0.061583578,-0.068914956,0,0,0,,0,10,10,285,1,
,,,,,,,,,,,,,,,,,,5e149c03864020aa6e1cf04d,2020-11-27_10h05.48.928,lexical_decision_task_MP_exp2,2020.2.5,Win32,60,m,1,,,,,,,,0.53633,1,,,,,,126,WORD,"ID",16,enough,ENOUGH,m,0.53633,,,,,,-0.061583578,-0.068914956,0,0,0,,0,11,11,65,1,
,,,,,,,,,,,,,,,,,,5e149c03864020aa6e1cf04d,2020-11-27_10h05.48.928,lexical_decision_task_MP_exp2,2020.2.5,Win32,60,m,1,,,,,,,,0.635645,1,,,,,,154,WORD,"ID",16,author,AUTHOR,m,0.635645,,,,,,-0.061583578,-0.068914956,0,0,0,,0,12,12,93,1,
,,,,,,,,,,,,,,,,,,5e149c03864020aa6e1cf04d,2020-11-27_10h05.48.928,lexical_decision_task_MP_exp2,2020.2.5,Win32,60,m,1,,,,,,,,0.488895,1,,,,,,51,WORD,UN,16,impose,HUNGRY,m,0.488895,,,,,,-0.061583578,-0.068914956,0,0,0,,0,13,13,230,1,
,,,,,,,,,,,,,,,,,,5e149c03864020aa6e1cf04d,2020-11-27_10h05.48.928,lexical_decision_task_MP_exp2,2020.2.5,Win32,60,m,1,,,,,,,,0.52394,1,,,,,,133,WORD,"ID",16,chrome,CHROME,m,0.52394,,,,,,-0.061583578,-0.068914956,0,0,0,,0,14,14,72,1,
,,,,,,,,,,,,,,,,,,5e149c03864020aa6e1cf04d,2020-11-27_10h05.48.928,lexical_decision_task_MP_exp2,2020.2.5,Win32,60,m,1,,,,,,,,0.49786,1,,,,,,212,WORD,UN,33,squeal,VERIFY,m,0.49786,,,,,,-0.061583578,-0.068914956,0,0,0,,0,15,15,151,1,
,,,,,,,,,,,,,,,,,,5e149c03864020aa6e1cf04d,2020-11-27_10h05.48.928,lexical_decision_task_MP_exp2,2020.2.5,Win32,60,m,1,,,,,,,,0.49957,1,,,,,,41,WORD,UN,16,chapel,SPRING,m,0.49957,,,,,,-0.061583578,-0.068914956,0,0,0,,0,16,16,220,1,
,,,,,,,,,,,,,,,,,,5e149c03864020aa6e1cf04d,2020-11-27_10h05.48.928,lexical_decision_task_MP_exp2,2020.2.5,Win32,60,z,1,,,,,,,,0.522235,1,,,,,,399,NW,"ID",16,fouret,FOURET,z,0.522235,,,,,,-0.061583578,-0.068914956,0,0,0,,0,17,17,338,1,
,,,,,,,,,,,,,,,,,,5e149c03864020aa6e1cf04d,2020-11-27_10h05.48.928,lexical_decision_task_MP_exp2,2020.2.5,Win32,60,z,1,,,,,,,,0.56511,1,,,,,,451,NW,UN,33,surden,CAINKY,z,0.56511,,,,,,-0.061583578,-0.068914956,0,0,0,,0,18,18,390,1,
,,,,,,,,,,,,,,,,,,5e149c03864020aa6e1cf04d,2020-11-27_10h05.48.928,lexical_decision_task_MP_exp2,2020.2.5,Win32,60,z,1,,,,,,,,0.549895,1,,,,,,324,NW,"ID",33,steikh,STEIKH,z,0.549895,,,,,,-0.061583578,-0.068914956,0,0,0,,0,19,19,263,1,
,,,,,,,,,,,,,,,,,,5e149c03864020aa6e1cf04d,2020-11-27_10h05.48.928,lexical_decision_task_MP_exp2,2020.2.5,Win32,60,z,1,,,,,,,,0.58431,1,,,,,,384,NW,"ID",16,guesco,GUESCO,z,0.58431,,,,,,-0.061583578,-0.068914956,0,0,0,,0,20,20,323,1,
,,,,,,,,,,,,,,,,,,5e149c03864020aa6e1cf04d,2020-11-27_10h05.48.928,lexical_decision_task_MP_exp2,2020.2.5,Win32,60,m,1,,,,,,,,0.626775,1,,,,,,205,WORD,UN,33,tailor,LOUNGE,m,0.626775,,,,,,-0.061583578,-0.068914956,0,0,0,,0,21,21,144,1,
,,,,,,,,,,,,,,,,,,5e149c03864020aa6e1cf04d,2020-11-27_10h05.48.928,lexical_decision_task_MP_exp2,2020.2.5,Win32,60,m,1,,,,,,,,0.548445,1,,,,,,193,WORD,UN,33,mildew,OBJECT,m,0.548445,,,,,,-0.061583578,-0.068914956,0,0,0,,0,22,22,132,1,
,,,,,,,,,,,,,,,,,,5e149c03864020aa6e1cf04d,2020-11-27_10h05.48.928,lexical_decision_task_MP_exp2,2020.2.5,Win32,60,m,1,,,,,,,,0.552785,1,,,,,,224,WORD,UN,33,vulgar,PERIOD,m,0.552785,,,,,,-0.061583578,-0.068914956,0,0,0,,0,23,23,163,1,
,,,,,,,,,,,,,,,,,,5e149c03864020aa6e1cf04d,2020-11-27_10h05.48.928,lexical_decision_task_MP_exp2,2020.2.5,Win32,60,m,1,,,,,,,,0.56572,1,,,,,,76,WORD,"ID",33,exotic,EXOTIC,m,0.56572,,,,,,-0.061583578,-0.068914956,0,0,0,,0,24,24,15,1,
,,,,,,,,,,,,,,,,,,5e149c03864020aa6e1cf04d,2020-11-27_10h05.48.928,lexical_decision_task_MP_exp2,2020.2.5,Win32,60,m,1,,,,,,,,0.537685,1,,,,,,231,WORD,UN,33,inject,EXPORT,m,0.537685,,,,,,-0.061583578,-0.068914956,0,0,0,,0,25,25,170,1,
,,,,,,,,,,,,,,,,,,5e149c03864020aa6e1cf04d,2020-11-27_10h05.48.928,lexical_decision_task_MP_exp2,2020.2.5,Win32,60,m,1,,,,,,,,0.51636,1,,,,,,100,WORD,"ID",33,carbon,CARBON,m,0.51636,,,,,,-0.061583578,-0.068914956,0,0,0,,0,26,26,39,1,
,,,,,,,,,,,,,,,,,,5e149c03864020aa6e1cf04d,2020-11-27_10h05.48.928,lexical_decision_task_MP_exp2,2020.2.5,Win32,60,m,1,,,,,,,,0.50997,1,,,,,,232,WORD,UN,33,nature,INJECT,m,0.50997,,,,,,-0.061583578,-0.068914956,0,0,0,,0,27,27,171,1,
,,,,,,,,,,,,,,,,,,5e149c03864020aa6e1cf04d,2020-11-27_10h05.48.928,lexical_decision_task_MP_exp2,2020.2.5,Win32,60,z,1,,,,,,,,0.723725,1,,,,,,406,NW,"ID",16,nouply,NOUPLY,z,0.723725,,,,,,-0.061583578,-0.068914956,0,0,0,,0,28,28,345,1,
,,,,,,,,,,,,,,,,,,5e149c03864020aa6e1cf04d,2020-11-27_10h05.48.928,lexical_decision_task_MP_exp2,2020.2.5,Win32,60,m,1,,,,,,,,0.57013,1,,,,,,206,WORD,UN,33,wreath,TAILOR,m,0.57013,,,,,,-0.061583578,-0.068914956,0,0,0,,0,29,29,145,1,
,,,,,,,,,,,,,,,,,,5e149c03864020aa6e1cf04d,2020-11-27_10h05.48.928,lexical_decision_task_MP_exp2,2020.2.5,Win32,60,z,1,,,,,,,,0.53966,1,,,,,,356,NW,"ID",33,othnis,OTHNIS,z,0.53966,,,,,,-0.061583578,-0.068914956,0,0,0,,0,30,30,295,1,
,,,,,,,,,,,,,,,,,,5e149c03864020aa6e1cf04d,2020-11-27_10h05.48.928,lexical_decision_task_MP_exp2,2020.2.5,Win32,60,m,1,,,,,,,,0.567295,1,,,,,,84,WORD,"ID",33,mortal,MORTAL,m,0.567295,,,,,,-0.061583578,-0.068914956,0,0,0,,0,31,31,23,1,
,,,,,,,,,,,,,,,,,,5e149c03864020aa6e1cf04d,2020-11-27_10h05.48.928,lexical_decision_task_MP_exp2,2020.2.5,Win32,60,z,1,,,,,,,,0.627685,1,,,,,,330,NW,"ID",33,kensom,KENSOM,z,0.627685,,,,,,-0.061583578,-0.068914956,0,0,0,,0,32,32,269,1,
,,,,,,,,,,,,,,,,,,5e149c03864020aa6e1cf04d,2020-11-27_10h05.48.928,lexical_decision_task_MP_exp2,2020.2.5,Win32,60,m,1,,,,,,,,0.62241,1,,,,,,216,WORD,UN,33,liquor,BEHALF,m,0.62241,,,,,,-0.061583578,-0.068914956,0,0,0,,0,33,33,155,1,
,,,,,,,,,,,,,,,,,,5e149c03864020aa6e1cf04d,2020-11-27_10h05.48.928,lexical_decision_task_MP_exp2,2020.2.5,Win32,60,z,1,,,,,,,,0.588035,1,,,,,,241,NW,UN,16,unwert,SMENCO,z,0.588035,,,,,,-0.061583578,-0.068914956,0,0,0,,0,34,34,420,1,
,,,,,,,,,,,,,,,,,,5e149c03864020aa6e1cf04d,2020-11-27_10h05.48.928,lexical_decision_task_MP_exp2,2020.2.5,Win32,60,m,1,,,,,,,,0.566495,1,,,,,,201,WORD,UN,33,factor,ADMIRE,m,0.566495,,,,,,-0.061583578,-0.068914956,0,0,0,,0,35,35,140,1,
,,,,,,,,,,,,,,,,,,5e149c03864020aa6e1cf04d,2020-11-27_10h05.48.928,lexical_decision_task_MP_exp2,2020.2.5,Win32,60,z,1,,,,,,,,0.689755,1,,,,,,364,NW,"ID",16,impote,IMPOTE,z,0.689755,,,,,,-0.061583578,-0.068914956,0,0,0,,0,36,36,303,1,
,,,,,,,,,,,,,,,,,,5e149c03864020aa6e1cf04d,2020-11-27_10h05.48.928,lexical_decision_task_MP_exp2,2020.2.5,Win32,60,m,1,,,,,,,,0.60481,1,,,,,,144,WORD,"ID",16,sponge,SPONGE,m,0.60481,,,,,,-0.061583578,-0.068914956,0,0,0,,0,37,37,83,1,
,,,,,,,,,,,,,,,,,,5e149c03864020aa6e1cf04d,2020-11-27_10h05.48.928,lexical_decision_task_MP_exp2,2020.2.5,Win32,60,z,1,,,,,,,,0.61648,1,,,,,,362,NW,"ID",16,tireau,TIREAU,z,0.61648,,,,,,-0.061583578,-0.068914956,0,0,0,,0,38,38,301,1,
,,,,,,,,,,,,,,,,,,5e149c03864020aa6e1cf04d,2020-11-27_10h05.48.928,lexical_decision_task_MP_exp2,2020.2.5,Win32,60,z,1,,,,,,,,0.58764,1,,,,,,443,NW,UN,33,jaunce,DORSEX,z,0.58764,,,,,,-0.061583578,-0.068914956,0,0,0,,0,39,39,382,1,
,,,,,,,,,,,,,,,,,,5e149c03864020aa6e1cf04d,2020-11-27_10h05.48.928,lexical_decision_task_MP_exp2,2020.2.5,Win32,60,m,1,,,,,,,,0.525275,1,,,,,,149,WORD,"ID",16,invade,INVADE,m,0.525275,,,,,,-0.061583578,-0.068914956,0,0,0,,0,40,40,88,1,
,,,,,,,,,,,,,,,,,,5e149c03864020aa6e1cf04d,2020-11-27_10h05.48.928,lexical_decision_task_MP_exp2,2020.2.5,Win32,60,m,1,,,,,,,,0.679635,1,,,,,,54,WORD,UN,16,stroke,RAMBLE,m,0.679635,,,,,,-0.061583578,-0.068914956,0,0,0,,0,41,41,233,1,
,,,,,,,,,,,,,,,,,,5e149c03864020aa6e1cf04d,2020-11-27_10h05.48.928,lexical_decision_task_MP_exp2,2020.2.5,Win32,60,m,1,,,,,,,,0.56057,1,,,,,,89,WORD,"ID",33,permit,PERMIT,m,0.56057,,,,,,-0.061583578,-0.068914956,0,0,0,,0,42,42,28,1,
,,,,,,,,,,,,,,,,,,5e149c03864020aa6e1cf04d,2020-11-27_10h05.48.928,lexical_decision_task_MP_exp2,2020.2.5,Win32,60,m,1,,,,,,,,0.50136,1,,,,,,70,WORD,"ID",33,square,SQUARE,m,0.50136,,,,,,-0.061583578,-0.068914956,0,0,0,,0,43,43,9,1,
,,,,,,,,,,,,,,,,,,5e149c03864020aa6e1cf04d,2020-11-27_10h05.48.928,lexical_decision_task_MP_exp2,2020.2.5,Win32,60,m,1,,,,,,,,0.463055,1,,,,,,6,WORD,UN,16,anchor,BUNDLE,m,0.463055,,,,,,-0.061583578,-0.068914956,0,0,0,,0,44,44,185,1,
,,,,,,,,,,,,,,,,,,5e149c03864020aa6e1cf04d,2020-11-27_10h05.48.928,lexical_decision_task_MP_exp2,2020.2.5,Win32,60,m,1,,,,,,,,0.550205,1,,,,,,237,WORD,UN,33,glance,POSTER,m,0.550205,,,,,,-0.061583578,-0.068914956,0,0,0,,0,45,45,176,1,
,,,,,,,,,,,,,,,,,,5e149c03864020aa6e1cf04d,2020-11-27_10h05.48.928,lexical_decision_task_MP_exp2,2020.2.5,Win32,60,m,1,,,,,,,,0.48948,1,,,,,,46,WORD,UN,16,income,SINGLE,m,0.48948,,,,,,-0.061583578,-0.068914956,0,0,0,,0,46,46,225,1,
,,,,,,,,,,,,,,,,,,5e149c03864020aa6e1cf04d,2020-11-27_10h05.48.928,lexical_decision_task_MP_exp2,2020.2.5,Win32,60,m,1,,,,,,,,0.50666,1,,,,,,172,WORD,"ID",16,patrol,PATROL,m,0.50666,,,,,,-0.061583578,-0.068914956,0,0,0,,0,47,47,111,1,
,,,,,,,,,,,,,,,,,,5e149c03864020aa6e1cf04d,2020-11-27_10h05.48.928,lexical_decision_task_MP_exp2,2020.2.5,Win32,60,z,1,,,,,,,,0.48901,1,,,,,,269,NW,UN,16,wrimsy,ORCHET,z,0.48901,,,,,,-0.061583578,-0.068914956,0,0,0,,0,48,48,448,1,
,,,,,,,,,,,,,,,,,,5e149c03864020aa6e1cf04d,2020-11-27_10h05.48.928,lexical_decision_task_MP_exp2,2020.2.5,Win32,60,m,1,,,,,,,,0.543175,1,,,,,,106,WORD,"ID",33,ransom,RANSOM,m,0.543175,,,,,,-0.061583578,-0.068914956,0,0,0,,0,49,49,45,1,
,,,,,,,,,,,,,,,,,,5e149c03864020aa6e1cf04d,2020-11-27_10h05.48.928,lexical_decision_task_MP_exp2,2020.2.5,Win32,60,m,1,,,,,,,,0.620095,1,,,,,,203,WORD,UN,33,burden,PHRASE,m,0.620095,,,,,,-0.061583578,-0.068914956,0,0,0,,0,50,50,142,1,
,,,,,,,,,,,,,,,,,,5e149c03864020aa6e1cf04d,2020-11-27_10h05.48.928,lexical_decision_task_MP_exp2,2020.2.5,Win32,60,z,1,,,,,,,,0.54191,1,,,,,,353,NW,"ID",33,clurey,CLUREY,z,0.54191,,,,,,-0.061583578,-0.068914956,0,0,0,,0,51,51,292,1,
,,,,,,,,,,,,,,,,,,5e149c03864020aa6e1cf04d,2020-11-27_10h05.48.928,lexical_decision_task_MP_exp2,2020.2.5,Win32,60,m,1,,,,,,,,0.7771,1,,,,,,227,WORD,UN,33,master,SELDOM,m,0.7771,,,,,,-0.061583578,-0.068914956,0,0,0,,0,52,52,166,1,
,,,,,,,,,,,,,,,,,,5e149c03864020aa6e1cf04d,2020-11-27_10h05.48.928,lexical_decision_task_MP_exp2,2020.2.5,Win32,60,z,1,,,,,,,,0.60324,1,,,,,,292,NW,UN,16,swance,ABLINT,z,0.60324,,,,,,-0.061583578,-0.068914956,0,0,0,,0,53,53,471,1,
,,,,,,,,,,,,,,,,,,5e149c03864020aa6e1cf04d,2020-11-27_10h05.48.928,lexical_decision_task_MP_exp2,2020.2.5,Win32,60,m,1,,,,,,,,0.47724,1,,,,,,95,WORD,"ID",33,thread,THREAD,m,0.47724,,,,,,-0.061583578,-0.068914956,0,0,0,,0,54,54,34,1,
,,,,,,,,,,,,,,,,,,5e149c03864020aa6e1cf04d,2020-11-27_10h05.48.928,lexical_decision_task_MP_exp2,2020.2.5,Win32,60,m,0,,,,,,,,0.667135,0,,,,,,348,NW,"ID",33,dumple,DUMPLE,z,0.667135,,,,,,-0.061583578,-0.068914956,0,0,0,,0,55,55,287,1,
,,,,,,,,,,,,,,,,,,5e149c03864020aa6e1cf04d,2020-11-27_10h05.48.928,lexical_decision_task_MP_exp2,2020.2.5,Win32,60,m,1,,,,,,,,0.728355,1,,,,,,22,WORD,UN,16,wealth,JOCKEY,m,0.728355,,,,,,-0.061583578,-0.068914956,0,0,0,,0,56,56,201,1,
,,,,,,,,,,,,,,,,,,5e149c03864020aa6e1cf04d,2020-11-27_10h05.48.928,lexical_decision_task_MP_exp2,2020.2.5,Win32,60,m,1,,,,,,,,0.65312,1,,,,,,184,WORD,UN,33,bother,SLEAZY,m,0.65312,,,,,,-0.061583578,-0.068914956,0,0,0,,0,57,57,123,1,
,,,,,,,,,,,,,,,,,,5e149c03864020aa6e1cf04d,2020-11-27_10h05.48.928,lexical_decision_task_MP_exp2,2020.2.5,Win32,60,m,1,,,,,,,,0.556095,1,,,,,,26,WORD,UN,16,butler,SPRINT,m,0.556095,,,,,,-0.061583578,-0.068914956,0,0,0,,0,58,58,205,1,
,,,,,,,,,,,,,,,,,,5e149c03864020aa6e1cf04d,2020-11-27_10h05.48.928,lexical_decision_task_MP_exp2,2020.2.5,Win32,60,m,1,,,,,,,,0.500215,1,,,,,,2,WORD,UN,16,knight,BRIDGE,m,0.500215,,,,,,-0.061583578,-0.068914956,0,0,0,,0,59,59,181,1,
,,,,,,,,,,,,,,,,,,5e149c03864020aa6e1cf04d,2020-11-27_10h05.48.928,lexical_decision_task_MP_exp2,2020.2.5,Win32,60,z,1,,,,,,,,0.502735,1,,,,,,280,NW,UN,16,melaty,CURBOL,z,0.502735,,,,,,-0.061583578,-0.068914956,0,0,0,,0,60,60,459,1,
,,,,,,,,,,,,,,,,,,5e149c03864020aa6e1cf04d,2020-11-27_10h05.48.928,lexical_decision_task_MP_exp2,2020.2.5,Win32,60,m,1,,,,,,,,0.598735,1,,,,,,214,WORD,UN,33,phobia,INTAKE,m,0.598735,,,,,,-0.061583578,-0.068914956,0,0,0,,0,61,61,153,1,
,,,,,,,,,,,,,,,,,,5e149c03864020aa6e1cf04d,2020-11-27_10h05.48.928,lexical_decision_task_MP_exp2,2020.2.5,Win32,60,m,1,,,,,,,,0.514885,1,,,,,,233,WORD,UN,33,clumsy,NATURE,m,0.514885,,,,,,-0.061583578,-0.068914956,0,0,0,,0,62,62,172,1,
,,,,,,,,,,,,,,,,,,5e149c03864020aa6e1cf04d,2020-11-27_10h05.48.928,lexical_decision_task_MP_exp2,2020.2.5,Win32,60,m,1,,,,,,,,0.676365,1,,,,,,198,WORD,UN,33,invoke,WICKED,m,0.676365,,,,,,-0.061583578,-0.068914956,0,0,0,,0,63,63,137,1,
,,,,,,,,,,,,,,,,,,5e149c03864020aa6e1cf04d,2020-11-27_10h05.48.928,lexical_decision_task_MP_exp2,2020.2.5,Win32,60,z,1,,,,,,,,0.56599,1,,,,,,395,NW,"ID",16,colury,COLURY,z,0.56599,,,,,,-0.061583578,-0.068914956,0,0,0,,0,64,64,334,1,
,,,,,,,,,,,,,,,,,,5e149c03864020aa6e1cf04d,2020-11-27_10h05.48.928,lexical_decision_task_MP_exp2,2020.2.5,Win32,60,m,1,,,,,,,,0.586805,1,,,,,,128,WORD,"ID",16,senior,SENIOR,m,0.586805,,,,,,-0.061583578,-0.068914956,0,0,0,,0,65,65,67,1,
,,,,,,,,,,,,,,,,,,5e149c03864020aa6e1cf04d,2020-11-27_10h05.48.928,lexical_decision_task_MP_exp2,2020.2.5,Win32,60,z,1,,,,,,,,0.81584,1,,,,,,294,NW,UN,16,gleath,INHORT,z,0.81584,,,,,,-0.061583578,-0.068914956,0,0,0,,0,66,66,473,1,
,,,,,,,,,,,,,,,,,,5e149c03864020aa6e1cf04d,2020-11-27_10h05.48.928,lexical_decision_task_MP_exp2,2020.2.5,Win32,60,z,1,,,,,,,,0.55946,1,,,,,,331,NW,"ID",33,gilfew,GILFEW,z,0.55946,,,,,,-0.061583578,-0.068914956,0,0,0,,0,67,67,270,1,
,,,,,,,,,,,,,,,,,,5e149c03864020aa6e1cf04d,2020-11-27_10h05.48.928,lexical_decision_task_MP_exp2,2020.2.5,Win32,60,z,1,,,,,,,,0.60506,1,,,,,,248,NW,UN,16,batrol,STROLE,z,0.60506,,,,,,-0.061583578,-0.068914956,0,0,0,,0,68,68,427,1,
,,,,,,,,,,,,,,,,,,5e149c03864020aa6e1cf04d,2020-11-27_10h05.48.928,lexical_decision_task_MP_exp2,2020.2.5,Win32,60,z,1,,,,,,,,0.5921,1,,,,,,313,NW,"ID",33,paurse,PAURSE,z,0.5921,,,,,,-0.061583578,-0.068914956,0,0,0,,0,69,69,252,1,
,,,,,,,,,,,,,,,,,,5e149c03864020aa6e1cf04d,2020-11-27_10h05.48.928,lexical_decision_task_MP_exp2,2020.2.5,Win32,60,z,1,,,,,,,,0.672005,1,,,,,,284,NW,UN,16,prudge,SHAPLE,z,0.672005,,,,,,-0.061583578,-0.068914956,0,0,0,,0,70,70,463,1,
,,,,,,,,,,,,,,,,,,5e149c03864020aa6e1cf04d,2020-11-27_10h05.48.928,lexical_decision_task_MP_exp2,2020.2.5,Win32,60,z,1,,,,,,,,0.563545,1,,,,,,320,NW,"ID",33,jockal,JOCKAL,z,0.563545,,,,,,-0.061583578,-0.068914956,0,0,0,,0,71,71,259,1,
,,,,,,,,,,,,,,,,,,5e149c03864020aa6e1cf04d,2020-11-27_10h05.48.928,lexical_decision_task_MP_exp2,2020.2.5,Win32,60,m,0,,,,,,,,0.555635,0,,,,,,345,NW,"ID",33,absend,ABSEND,z,0.555635,,,,,,-0.061583578,-0.068914956,0,0,0,,0,72,72,284,1,
,,,,,,,,,,,,,,,,,,5e149c03864020aa6e1cf04d,2020-11-27_10h05.48.928,lexical_decision_task_MP_exp2,2020.2.5,Win32,60,z,1,,,,,,,,1.031915,1,,,,,,333,NW,"ID",33,catrie,CATRIE,z,1.031915,,,,,,-0.061583578,-0.068914956,0,0,0,,0,73,73,272,1,
,,,,,,,,,,,,,,,,,,5e149c03864020aa6e1cf04d,2020-11-27_10h05.48.928,lexical_decision_task_MP_exp2,2020.2.5,Win32,60,z,1,,,,,,,,0.669465,1,,,,,,257,NW,UN,16,poluth,VENIOD,z,0.669465,,,,,,-0.061583578,-0.068914956,0,0,0,,0,74,74,436,1,
,,,,,,,,,,,,,,,,,,5e149c03864020aa6e1cf04d,2020-11-27_10h05.48.928,lexical_decision_task_MP_exp2,2020.2.5,Win32,60,m,1,,,,,,,,0.48656,1,,,,,,146,WORD,"ID",16,couple,COUPLE,m,0.48656,,,,,,-0.061583578,-0.068914956,0,0,0,,0,75,75,85,1,
,,,,,,,,,,,,,,,,,,5e149c03864020aa6e1cf04d,2020-11-27_10h05.48.928,lexical_decision_task_MP_exp2,2020.2.5,Win32,60,z,1,,,,,,,,0.58823,1,,,,,,343,NW,"ID",33,aimosy,AIMOSY,z,0.58823,,,,,,-0.061583578,-0.068914956,0,0,0,,0,76,76,282,1,
,,,,,,,,,,,,,,,,,,5e149c03864020aa6e1cf04d,2020-11-27_10h05.48.928,lexical_decision_task_MP_exp2,2020.2.5,Win32,60,m,1,,,,,,,,0.622605,1,,,,,,121,WORD,"ID",16,thrive,THRIVE,m,0.622605,,,,,,-0.061583578,-0.068914956,0,0,0,,0,77,77,60,1,
,,,,,,,,,,,,,,,,,,5e149c03864020aa6e1cf04d,2020-11-27_10h05.48.928,lexical_decision_task_MP_exp2,2020.2.5,Win32,60,m,1,,,,,,,,0.65735,1,,,,,,189,WORD,UN,33,backup,CENSOR,m,0.65735,,,,,,-0.061583578,-0.068914956,0,0,0,,0,78,78,128,1,
,,,,,,,,,,,,,,,,,,5e149c03864020aa6e1cf04d,2020-11-27_10h05.48.928,lexical_decision_task_MP_exp2,2020.2.5,Win32,60,z,1,,,,,,,,0.919075,1,,,,,,304,NW,"ID",33,cludie,CLUDIE,z,0.919075,,,,,,-0.061583578,-0.068914956,0,0,0,,0,79,79,243,1,
,,,,,,,,,,,,,,,,,,5e149c03864020aa6e1cf04d,2020-11-27_10h05.48.928,lexical_decision_task_MP_exp2,2020.2.5,Win32,60,z,0,,,,,,,,0.78649,0,,,,,,163,WORD,"ID",16,string,STRING,m,0.78649,,,,,,-0.061583578,-0.068914956,0,0,0,,0,80,80,102,1,
,,,,,,,,,,,,,,,,,,5e149c03864020aa6e1cf04d,2020-11-27_10h05.48.928,lexical_decision_task_MP_exp2,2020.2.5,Win32,60,z,1,,,,,,,,0.718965,1,,,,,,369,NW,"ID",16,wronch,WRONCH,z,0.718965,,,,,,-0.061583578,-0.068914956,0,0,0,,0,81,81,308,1,
,,,,,,,,,,,,,,,,,,5e149c03864020aa6e1cf04d,2020-11-27_10h05.48.928,lexical_decision_task_MP_exp2,2020.2.5,Win32,60,z,1,,,,,,,,1.10731,1,,,,,,357,NW,"ID",33,derain,DERAIN,z,1.10731,,,,,,-0.061583578,-0.068914956,0,0,0,,0,82,82,296,1,
,,,,,,,,,,,,,,,,,,5e149c03864020aa6e1cf04d,2020-11-27_10h05.48.928,lexical_decision_task_MP_exp2,2020.2.5,Win32,60,z,1,,,,,,,,0.632355,1,,,,,,365,NW,"ID",16,guairt,GUAIRT,z,0.632355,,,,,,-0.061583578,-0.068914956,0,0,0,,0,83,83,304,1,
,,,,,,,,,,,,,,,,,,5e149c03864020aa6e1cf04d,2020-11-27_10h05.48.928,lexical_decision_task_MP_exp2,2020.2.5,Win32,60,z,1,,,,,,,,0.605835,1,,,,,,374,NW,"ID",16,sliant,SLIANT,z,0.605835,,,,,,-0.061583578,-0.068914956,0,0,0,,0,84,84,313,1,
,,,,,,,,,,,,,,,,,,5e149c03864020aa6e1cf04d,2020-11-27_10h05.48.928,lexical_decision_task_MP_exp2,2020.2.5,Win32,60,z,1,,,,,,,,0.76454,1,,,,,,249,NW,UN,16,milted,BATROL,z,0.76454,,,,,,-0.061583578,-0.068914956,0,0,0,,0,85,85,428,1,
,,,,,,,,,,,,,,,,,,5e149c03864020aa6e1cf04d,2020-11-27_10h05.48.928,lexical_decision_task_MP_exp2,2020.2.5,Win32,60,z,1,,,,,,,,0.62512,1,,,,,,268,NW,UN,16,orchet,PACKES,z,0.62512,,,,,,-0.061583578,-0.068914956,0,0,0,,0,86,86,447,1,
,,,,,,,,,,,,,,,,,,5e149c03864020aa6e1cf04d,2020-11-27_10h05.48.928,lexical_decision_task_MP_exp2,2020.2.5,Win32,60,m,1,,,,,,,,0.57702,1,,,,,,135,WORD,"ID",16,import,IMPORT,m,0.57702,,,,,,-0.061583578,-0.068914956,0,0,0,,0,87,87,74,1,
,,,,,,,,,,,,,,,,,,5e149c03864020aa6e1cf04d,2020-11-27_10h05.48.928,lexical_decision_task_MP_exp2,2020.2.5,Win32,60,m,1,,,,,,,,0.52303,1,,,,,,208,WORD,UN,33,search,HOCKEY,m,0.52303,,,,,,-0.061583578,-0.068914956,0,0,0,,0,88,88,147,1,
,,,,,,,,,,,,,,,,,,5e149c03864020aa6e1cf04d,2020-11-27_10h05.48.928,lexical_decision_task_MP_exp2,2020.2.5,Win32,60,z,1,,,,,,,,0.601255,1,,,,,,329,NW,"ID",33,yarike,YARIKE,z,0.601255,,,,,,-0.061583578,-0.068914956,0,0,0,,0,89,89,268,1,
,,,,,,,,,,,,,,,,,,5e149c03864020aa6e1cf04d,2020-11-27_10h05.48.928,lexical_decision_task_MP_exp2,2020.2.5,Win32,60,m,1,,,,,,,,0.585765,1,,,,,,197,WORD,UN,33,wicked,STREAM,m,0.585765,,,,,,-0.061583578,-0.068914956,0,0,0,,0,90,90,136,1,
,,,,,,,,,,,,,,,,,,5e149c03864020aa6e1cf04d,2020-11-27_10h05.48.928,lexical_decision_task_MP_exp2,2020.2.5,Win32,60,m,1,,,,,,,,0.616255,1,,,,,,88,WORD,"ID",33,hunger,HUNGER,m,0.616255,,,,,,-0.061583578,-0.068914956,0,0,0,,0,91,91,27,1,
,,,,,,,,,,,,,,,,,,5e149c03864020aa6e1cf04d,2020-11-27_10h05.48.928,lexical_decision_task_MP_exp2,2020.2.5,Win32,60,m,1,,,,,,,,0.50766,1,,,,,,186,WORD,UN,33,course,PORTAL,m,0.50766,,,,,,-0.061583578,-0.068914956,0,0,0,,0,92,92,125,1,
,,,,,,,,,,,,,,,,,,5e149c03864020aa6e1cf04d,2020-11-27_10h05.48.928,lexical_decision_task_MP_exp2,2020.2.5,Win32,60,z,1,,,,,,,,1.43351,1,,,,,,303,NW,"ID",33,fiream,FIREAM,z,1.43351,,,,,,-0.061583578,-0.068914956,0,0,0,,0,93,93,242,1,
,,,,,,,,,,,,,,,,,,5e149c03864020aa6e1cf04d,2020-11-27_10h05.48.928,lexical_decision_task_MP_exp2,2020.2.5,Win32,60,m,1,,,,,,,,0.64623,1,,,,,,132,WORD,"ID",16,strong,STRONG,m,0.64623,,,,,,-0.061583578,-0.068914956,0,0,0,,0,94,94,71,1,
,,,,,,,,,,,,,,,,,,5e149c03864020aa6e1cf04d,2020-11-27_10h05.48.928,lexical_decision_task_MP_exp2,2020.2.5,Win32,60,z,1,,,,,,,,0.674095,1,,,,,,358,NW,"ID",33,fleack,FLEACK,z,0.674095,,,,,,-0.061583578,-0.068914956,0,0,0,,0,95,95,297,1,
,,,,,,,,,,,,,,,,,,5e149c03864020aa6e1cf04d,2020-11-27_10h05.48.928,lexical_decision_task_MP_exp2,2020.2.5,Win32,60,m,1,,,,,,,,0.60092,1,,,,,,43,WORD,UN,16,foster,TONGUE,m,0.60092,,,,,,-0.061583578,-0.068914956,0,0,0,,0,96,96,222,1,
,,,,,,,,,,,,,,,,,,5e149c03864020aa6e1cf04d,2020-11-27_10h05.48.928,lexical_decision_task_MP_exp2,2020.2.5,Win32,60,z,1,,,,,,,,0.610245,1,,,,,,411,NW,"ID",16,orchin,ORCHIN,z,0.610245,,,,,,-0.061583578,-0.068914956,0,0,0,,0,97,97,350,1,
,,,,,,,,,,,,,,,,,,5e149c03864020aa6e1cf04d,2020-11-27_10h05.48.928,lexical_decision_task_MP_exp2,2020.2.5,Win32,60,z,1,,,,,,,,0.72447,1,,,,,,387,NW,"ID",16,gronce,GRONCE,z,0.72447,,,,,,-0.061583578,-0.068914956,0,0,0,,0,98,98,326,1,
,,,,,,,,,,,,,,,,,,5e149c03864020aa6e1cf04d,2020-11-27_10h05.48.928,lexical_decision_task_MP_exp2,2020.2.5,Win32,60,m,1,,,,,,,,0.597455,1,,,,,,168,WORD,"ID",16,answer,ANSWER,m,0.597455,,,,,,-0.061583578,-0.068914956,0,0,0,,0,99,99,107,1,
,,,,,,,,,,,,,,,,,,5e149c03864020aa6e1cf04d,2020-11-27_10h05.48.928,lexical_decision_task_MP_exp2,2020.2.5,Win32,60,m,1,,,,,,,,0.6517,1,,,,,,25,WORD,UN,16,sprint,DOMAIN,m,0.6517,,,,,,-0.061583578,-0.068914956,0,0,0,,0,100,100,204,1,
,,,,,,,,,,,,,,,,,,5e149c03864020aa6e1cf04d,2020-11-27_10h05.48.928,lexical_decision_task_MP_exp2,2020.2.5,Win32,60,m,1,,,,,,,,0.580705,1,,,,,,92,WORD,"ID",33,strand,STRAND,m,0.580705,,,,,,-0.061583578,-0.068914956,0,0,0,,0,101,101,31,1,
,,,,,,,,,,,,,,,,,,5e149c03864020aa6e1cf04d,2020-11-27_10h05.48.928,lexical_decision_task_MP_exp2,2020.2.5,Win32,60,z,1,,,,,,,,0.51776,1,,,,,,463,NW,UN,33,chaite,KISPEL,z,0.51776,,,,,,-0.061583578,-0.068914956,0,0,0,,0,102,102,402,1,
,,,,,,,,,,,,,,,,,,5e149c03864020aa6e1cf04d,2020-11-27_10h05.48.928,lexical_decision_task_MP_exp2,2020.2.5,Win32,60,m,1,,,,,,,,0.96296,1,,,,,,14,WORD,UN,16,orange,ALMOST,m,0.96296,,,,,,-0.061583578,-0.068914956,0,0,0,,0,103,103,193,1,
,,,,,,,,,,,,,,,,,,5e149c03864020aa6e1cf04d,2020-11-27_10h05.48.928,lexical_decision_task_MP_exp2,2020.2.5,Win32,60,z,0,,,,,,,,0.632775,0,,,,,,82,WORD,"ID",33,stigma,STIGMA,m,0.632775,,,,,,-0.061583578,-0.068914956,0,0,0,,0,104,104,21,1,
,,,,,,,,,,,,,,,,,,5e149c03864020aa6e1cf04d,2020-11-27_10h05.48.928,lexical_decision_task_MP_exp2,2020.2.5,Win32,60,m,1,,,,,,,,0.64923,1,,,,,,169,WORD,"ID",16,genius,GENIUS,m,0.64923,,,,,,-0.061583578,-0.068914956,0,0,0,,0,105,105,108,1,
,,,,,,,,,,,,,,,,,,5e149c03864020aa6e1cf04d,2020-11-27_10h05.48.928,lexical_decision_task_MP_exp2,2020.2.5,Win32,60,m,1,,,,,,,,0.574065,1,,,,,,63,WORD,"ID",33,launch,LAUNCH,m,0.574065,,,,,,-0.061583578,-0.068914956,0,0,0,,0,106,106,2,1,
,,,,,,,,,,,,,,,,,,5e149c03864020aa6e1cf04d,2020-11-27_10h05.48.928,lexical_decision_task_MP_exp2,2020.2.5,Win32,60,m,1,,,,,,,,0.63273,1,,,,,,45,WORD,UN,16,single,CLERGY,m,0.63273,,,,,,-0.061583578,-0.068914956,0,0,0,,0,107,107,224,1,
,,,,,,,,,,,,,,,,,,5e149c03864020aa6e1cf04d,2020-11-27_10h05.48.928,lexical_decision_task_MP_exp2,2020.2.5,Win32,60,z,1,,,,,,,,0.66247,1,,,,,,281,NW,UN,16,porlex,MELATY,z,0.66247,,,,,,-0.061583578,-0.068914956,0,0,0,,0,108,108,460,1,
,,,,,,,,,,,,,,,,,,5e149c03864020aa6e1cf04d,2020-11-27_10h05.48.928,lexical_decision_task_MP_exp2,2020.2.5,Win32,60,z,1,,,,,,,,0.584265,1,,,,,,265,NW,UN,16,varmit,DISTAR,z,0.584265,,,,,,-0.061583578,-0.068914956,0,0,0,,0,109,109,444,1,
,,,,,,,,,,,,,,,,,,5e149c03864020aa6e1cf04d,2020-11-27_10h05.48.928,lexical_decision_task_MP_exp2,2020.2.5,Win32,60,m,1,,,,,,,,0.53146,1,,,,,,15,WORD,UN,16,faucet,AMOUNT,m,0.53146,,,,,,-0.061583578,-0.068914956,0,0,0,,0,110,110,194,1,
,,,,,,,,,,,,,,,,,,5e149c03864020aa6e1cf04d,2020-11-27_10h05.48.928,lexical_decision_task_MP_exp2,2020.2.5,Win32,60,m,1,,,,,,,,0.55051,1,,,,,,79,WORD,"ID",33,theory,THEORY,m,0.55051,,,,,,-0.061583578,-0.068914956,0,0,0,,0,111,111,18,1,
,,,,,,,,,,,,,,,,,,5e149c03864020aa6e1cf04d,2020-11-27_10h05.48.928,lexical_decision_task_MP_exp2,2020.2.5,Win32,60,z,1,,,,,,,,0.65887,1,,,,,,342,NW,"ID",33,randow,RANDOW,z,0.65887,,,,,,-0.061583578,-0.068914956,0,0,0,,0,112,112,281,1,
,,,,,,,,,,,,,,,,,,5e149c03864020aa6e1cf04d,2020-11-27_10h05.48.928,lexical_decision_task_MP_exp2,2020.2.5,Win32,60,m,1,,,,,,,,0.62474,1,,,,,,155,WORD,"ID",16,lizard,LIZARD,m,0.62474,,,,,,-0.061583578,-0.068914956,0,0,0,,0,113,113,94,1,
,,,,,,,,,,,,,,,,,,5e149c03864020aa6e1cf04d,2020-11-27_10h05.48.928,lexical_decision_task_MP_exp2,2020.2.5,Win32,60,m,1,,,,,,,,0.548605,1,,,,,,57,WORD,UN,16,danger,CHANGE,m,0.548605,,,,,,-0.061583578,-0.068914956,0,0,0,,0,114,114,236,1,
,,,,,,,,,,,,,,,,,,5e149c03864020aa6e1cf04d,2020-11-27_10h05.48.928,lexical_decision_task_MP_exp2,2020.2.5,Win32,60,z,1,,,,,,,,0.64798,1,,,,,,458,NW,UN,33,hocite,BARCET,z,0.64798,,,,,,-0.061583578,-0.068914956,0,0,0,,0,115,115,397,1,
,,,,,,,,,,,,,,,,,,5e149c03864020aa6e1cf04d,2020-11-27_10h05.48.928,lexical_decision_task_MP_exp2,2020.2.5,Win32,60,m,1,,,,,,,,0.59865,1,,,,,,190,WORD,UN,33,stable,BACKUP,m,0.59865,,,,,,-0.061583578,-0.068914956,0,0,0,,0,116,116,129,1,
,,,,,,,,,,,,,,,,,,5e149c03864020aa6e1cf04d,2020-11-27_10h05.48.928,lexical_decision_task_MP_exp2,2020.2.5,Win32,60,z,1,,,,,,,,0.65393,1,,,,,,370,NW,"ID",16,sleact,SLEACT,z,0.65393,,,,,,-0.061583578,-0.068914956,0,0,0,,0,117,117,309,1,
,,,,,,,,,,,,,,,,,,5e149c03864020aa6e1cf04d,2020-11-27_10h05.48.928,lexical_decision_task_MP_exp2,2020.2.5,Win32,60,m,0,,,,,,,,0.621645,0,,,,,,471,NW,UN,33,cigney,NOBEST,z,0.621645,,,,,,-0.061583578,-0.068914956,0,0,0,,0,118,118,410,1,
,,,,,,,,,,,,,,,,,,5e149c03864020aa6e1cf04d,2020-11-27_10h05.48.928,lexical_decision_task_MP_exp2,2020.2.5,Win32,60,z,1,,,,,,,,0.662775,1,,,,,,421,NW,UN,33,alcoud,KNISMA,z,0.662775,,,,,,-0.061583578,-0.068914956,0,0,0,,0,119,119,360,1,
,,,,,,,,,,,,,,,,,,5e149c03864020aa6e1cf04d,2020-11-27_10h05.48.928,lexical_decision_task_MP_exp2,2020.2.5,Win32,60,m,1,,,,,,,,0.61089,1,,,,,,61,WORD,"ID",33,ponder,PONDER,m,0.61089,,,,,,-0.061583578,-0.068914956,0,0,0,space,0,120,120,0,1,35.6106
,,,,,,,,,,,,,,,,,,5e149c03864020aa6e1cf04d,2020-11-27_10h05.48.928,lexical_decision_task_MP_exp2,2020.2.5,Win32,60,z,1,,,,,,,,0.63703,1,,,,,,247,NW,UN,16,strole,BLARGE,z,0.63703,,,,,,-0.061583578,-0.068914956,0,0,0,,0,121,121,426,1,
,,,,,,,,,,,,,,,,,,5e149c03864020aa6e1cf04d,2020-11-27_10h05.48.928,lexical_decision_task_MP_exp2,2020.2.5,Win32,60,z,1,,,,,,,,0.590355,1,,,,,,424,NW,UN,33,frudge,PRAILE,z,0.590355,,,,,,-0.061583578,-0.068914956,0,0,0,,0,122,122,363,1,
,,,,,,,,,,,,,,,,,,5e149c03864020aa6e1cf04d,2020-11-27_10h05.48.928,lexical_decision_task_MP_exp2,2020.2.5,Win32,60,m,1,,,,,,,,0.545815,1,,,,,,19,WORD,UN,16,breast,PATRON,m,0.545815,,,,,,-0.061583578,-0.068914956,0,0,0,,0,123,123,198,1,
,,,,,,,,,,,,,,,,,,5e149c03864020aa6e1cf04d,2020-11-27_10h05.48.928,lexical_decision_task_MP_exp2,2020.2.5,Win32,60,z,1,,,,,,,,0.63719,1,,,,,,371,NW,"ID",16,geiloy,GEILOY,z,0.63719,,,,,,-0.061583578,-0.068914956,0,0,0,,0,124,124,310,1,
,,,,,,,,,,,,,,,,,,5e149c03864020aa6e1cf04d,2020-11-27_10h05.48.928,lexical_decision_task_MP_exp2,2020.2.5,Win32,60,m,1,,,,,,,,0.557495,1,,,,,,17,WORD,UN,16,humble,CHARGE,m,0.557495,,,,,,-0.061583578,-0.068914956,0,0,0,,0,125,125,196,1,
,,,,,,,,,,,,,,,,,,5e149c03864020aa6e1cf04d,2020-11-27_10h05.48.928,lexical_decision_task_MP_exp2,2020.2.5,Win32,60,m,1,,,,,,,,0.537105,1,,,,,,72,WORD,"ID",33,bright,BRIGHT,m,0.537105,,,,,,-0.061583578,-0.068914956,0,0,0,,0,126,126,11,1,
,,,,,,,,,,,,,,,,,,5e149c03864020aa6e1cf04d,2020-11-27_10h05.48.928,lexical_decision_task_MP_exp2,2020.2.5,Win32,60,z,1,,,,,,,,0.549975,1,,,,,,359,NW,"ID",33,fonver,FONVER,z,0.549975,,,,,,-0.061583578,-0.068914956,0,0,0,,0,127,127,298,1,
,,,,,,,,,,,,,,,,,,5e149c03864020aa6e1cf04d,2020-11-27_10h05.48.928,lexical_decision_task_MP_exp2,2020.2.5,Win32,60,m,1,,,,,,,,0.799685,1,,,,,,178,WORD,"ID",16,inform,INFORM,m,0.799685,,,,,,-0.061583578,-0.068914956,0,0,0,,0,128,128,117,1,
,,,,,,,,,,,,,,,,,,5e149c03864020aa6e1cf04d,2020-11-27_10h05.48.928,lexical_decision_task_MP_exp2,2020.2.5,Win32,60,m,1,,,,,,,,0.653475,1,,,,,,53,WORD,UN,16,ramble,POLICE,m,0.653475,,,,,,-0.061583578,-0.068914956,0,0,0,,0,129,129,232,1,
,,,,,,,,,,,,,,,,,,5e149c03864020aa6e1cf04d,2020-11-27_10h05.48.928,lexical_decision_task_MP_exp2,2020.2.5,Win32,60,m,1,,,,,,,,0.505935,1,,,,,,56,WORD,UN,16,change,AMBUSH,m,0.505935,,,,,,-0.061583578,-0.068914956,0,0,0,,0,130,130,235,1,
,,,,,,,,,,,,,,,,,,5e149c03864020aa6e1cf04d,2020-11-27_10h05.48.928,lexical_decision_task_MP_exp2,2020.2.5,Win32,60,z,1,,,,,,,,0.56811,1,,,,,,344,NW,"ID",33,scrily,SCRILY,z,0.56811,,,,,,-0.061583578,-0.068914956,0,0,0,,0,131,131,283,1,
,,,,,,,,,,,,,,,,,,5e149c03864020aa6e1cf04d,2020-11-27_10h05.48.928,lexical_decision_task_MP_exp2,2020.2.5,Win32,60,m,1,,,,,,,,0.563495,1,,,,,,109,WORD,"ID",33,wonder,WONDER,m,0.563495,,,,,,-0.061583578,-0.068914956,0,0,0,,0,132,132,48,1,
,,,,,,,,,,,,,,,,,,5e149c03864020aa6e1cf04d,2020-11-27_10h05.48.928,lexical_decision_task_MP_exp2,2020.2.5,Win32,60,m,1,,,,,,,,0.55089,1,,,,,,101,WORD,"ID",33,wrench,WRENCH,m,0.55089,,,,,,-0.061583578,-0.068914956,0,0,0,,0,133,133,40,1,
,,,,,,,,,,,,,,,,,,5e149c03864020aa6e1cf04d,2020-11-27_10h05.48.928,lexical_decision_task_MP_exp2,2020.2.5,Win32,60,z,1,,,,,,,,0.570395,1,,,,,,430,NW,UN,33,chrums,CAROEY,z,0.570395,,,,,,-0.061583578,-0.068914956,0,0,0,,0,134,134,369,1,
,,,,,,,,,,,,,,,,,,5e149c03864020aa6e1cf04d,2020-11-27_10h05.48.928,lexical_decision_task_MP_exp2,2020.2.5,Win32,60,z,1,,,,,,,,1.03347,1,,,,,,381,NW,"ID",16,huniek,HUNIEK,z,1.03347,,,,,,-0.061583578,-0.068914956,0,0,0,,0,135,135,320,1,
,,,,,,,,,,,,,,,,,,5e149c03864020aa6e1cf04d,2020-11-27_10h05.48.928,lexical_decision_task_MP_exp2,2020.2.5,Win32,60,m,1,,,,,,,,0.588465,1,,,,,,35,WORD,UN,16,vanish,SOCKET,m,0.588465,,,,,,-0.061583578,-0.068914956,0,0,0,,0,136,136,214,1,
,,,,,,,,,,,,,,,,,,5e149c03864020aa6e1cf04d,2020-11-27_10h05.48.928,lexical_decision_task_MP_exp2,2020.2.5,Win32,60,m,1,,,,,,,,0.73357,1,,,,,,5,WORD,UN,16,bundle,PLUNGE,m,0.73357,,,,,,-0.061583578,-0.068914956,0,0,0,,0,137,137,184,1,
,,,,,,,,,,,,,,,,,,5e149c03864020aa6e1cf04d,2020-11-27_10h05.48.928,lexical_decision_task_MP_exp2,2020.2.5,Win32,60,z,1,,,,,,,,0.679755,1,,,,,,376,NW,"ID",16,iguare,IGUARE,z,0.679755,,,,,,-0.061583578,-0.068914956,0,0,0,,0,138,138,315,1,
,,,,,,,,,,,,,,,,,,5e149c03864020aa6e1cf04d,2020-11-27_10h05.48.928,lexical_decision_task_MP_exp2,2020.2.5,Win32,60,m,1,,,,,,,,0.53956,1,,,,,,30,WORD,UN,16,weapon,ORIENT,m,0.53956,,,,,,-0.061583578,-0.068914956,0,0,0,,0,139,139,209,1,
,,,,,,,,,,,,,,,,,,5e149c03864020aa6e1cf04d,2020-11-27_10h05.48.928,lexical_decision_task_MP_exp2,2020.2.5,Win32,60,m,1,,,,,,,,0.62356,1,,,,,,200,WORD,UN,33,admire,BEACON,m,0.62356,,,,,,-0.061583578,-0.068914956,0,0,0,,0,140,140,139,1,
,,,,,,,,,,,,,,,,,,5e149c03864020aa6e1cf04d,2020-11-27_10h05.48.928,lexical_decision_task_MP_exp2,2020.2.5,Win32,60,m,1,,,,,,,,0.564075,1,,,,,,136,WORD,"ID",16,bleach,BLEACH,m,0.564075,,,,,,-0.061583578,-0.068914956,0,0,0,,0,141,141,75,1,
,,,,,,,,,,,,,,,,,,5e149c03864020aa6e1cf04d,2020-11-27_10h05.48.928,lexical_decision_task_MP_exp2,2020.2.5,Win32,60,z,1,,,,,,,,0.602925,1,,,,,,455,NW,UN,33,broget,TONDLE,z,0.602925,,,,,,-0.061583578,-0.068914956,0,0,0,,0,142,142,394,1,
,,,,,,,,,,,,,,,,,,5e149c03864020aa6e1cf04d,2020-11-27_10h05.48.928,lexical_decision_task_MP_exp2,2020.2.5,Win32,60,z,1,,,,,,,,0.516895,1,,,,,,459,NW,UN,33,mingar,BAFENT,z,0.516895,,,,,,-0.061583578,-0.068914956,0,0,0,,0,143,143,398,1,
,,,,,,,,,,,,,,,,,,5e149c03864020aa6e1cf04d,2020-11-27_10h05.48.928,lexical_decision_task_MP_exp2,2020.2.5,Win32,60,m,1,,,,,,,,0.672695,1,,,,,,29,WORD,UN,16,orient,SKETCH,m,0.672695,,,,,,-0.061583578,-0.068914956,0,0,0,,0,144,144,208,1,
,,,,,,,,,,,,,,,,,,5e149c03864020aa6e1cf04d,2020-11-27_10h05.48.928,lexical_decision_task_MP_exp2,2020.2.5,Win32,60,z,1,,,,,,,,0.53693,1,,,,,,426,NW,UN,33,schind,URIVEL,z,0.53693,,,,,,-0.061583578,-0.068914956,0,0,0,,0,145,145,365,1,
,,,,,,,,,,,,,,,,,,5e149c03864020aa6e1cf04d,2020-11-27_10h05.48.928,lexical_decision_task_MP_exp2,2020.2.5,Win32,60,m,1,,,,,,,,0.54762,1,,,,,,119,WORD,"ID",33,spider,SPIDER,m,0.54762,,,,,,-0.061583578,-0.068914956,0,0,0,,0,146,146,58,1,
,,,,,,,,,,,,,,,,,,5e149c03864020aa6e1cf04d,2020-11-27_10h05.48.928,lexical_decision_task_MP_exp2,2020.2.5,Win32,60,m,1,,,,,,,,0.864185,1,,,,,,139,WORD,"ID",16,debris,DEBRIS,m,0.864185,,,,,,-0.061583578,-0.068914956,0,0,0,,0,147,147,78,1,
,,,,,,,,,,,,,,,,,,5e149c03864020aa6e1cf04d,2020-11-27_10h05.48.928,lexical_decision_task_MP_exp2,2020.2.5,Win32,60,m,1,,,,,,,,0.60701,1,,,,,,183,WORD,UN,33,sleazy,MILDEW,m,0.60701,,,,,,-0.061583578,-0.068914956,0,0,0,,0,148,148,122,1,
,,,,,,,,,,,,,,,,,,5e149c03864020aa6e1cf04d,2020-11-27_10h05.48.928,lexical_decision_task_MP_exp2,2020.2.5,Win32,60,m,1,,,,,,,,1.08928,1,,,,,,1,WORD,UN,16,ethnic,FRIGHT,m,1.08928,,,,,,-0.061583578,-0.068914956,0,0,0,,0,149,149,180,1,
,,,,,,,,,,,,,,,,,,5e149c03864020aa6e1cf04d,2020-11-27_10h05.48.928,lexical_decision_task_MP_exp2,2020.2.5,Win32,60,m,1,,,,,,,,0.567255,1,,,,,,148,WORD,"ID",16,custom,CUSTOM,m,0.567255,,,,,,-0.061583578,-0.068914956,0,0,0,,0,150,150,87,1,
,,,,,,,,,,,,,,,,,,5e149c03864020aa6e1cf04d,2020-11-27_10h05.48.928,lexical_decision_task_MP_exp2,2020.2.5,Win32,60,z,1,,,,,,,,0.62734,1,,,,,,450,NW,UN,33,cainky,PHRECT,z,0.62734,,,,,,-0.061583578,-0.068914956,0,0,0,,0,151,151,389,1,
,,,,,,,,,,,,,,,,,,5e149c03864020aa6e1cf04d,2020-11-27_10h05.48.928,lexical_decision_task_MP_exp2,2020.2.5,Win32,60,m,1,,,,,,,,0.795915,1,,,,,,124,WORD,"ID",16,blouse,BLOUSE,m,0.795915,,,,,,-0.061583578,-0.068914956,0,0,0,,0,152,152,63,1,
,,,,,,,,,,,,,,,,,,5e149c03864020aa6e1cf04d,2020-11-27_10h05.48.928,lexical_decision_task_MP_exp2,2020.2.5,Win32,60,z,1,,,,,,,,0.807855,1,,,,,,306,NW,"ID",33,sounge,SOUNGE,z,0.807855,,,,,,-0.061583578,-0.068914956,0,0,0,,0,153,153,245,1,
,,,,,,,,,,,,,,,,,,5e149c03864020aa6e1cf04d,2020-11-27_10h05.48.928,lexical_decision_task_MP_exp2,2020.2.5,Win32,60,m,1,,,,,,,,0.666115,1,,,,,,191,WORD,UN,33,beacon,STABLE,m,0.666115,,,,,,-0.061583578,-0.068914956,0,0,0,,0,154,154,130,1,
,,,,,,,,,,,,,,,,,,5e149c03864020aa6e1cf04d,2020-11-27_10h05.48.928,lexical_decision_task_MP_exp2,2020.2.5,Win32,60,m,1,,,,,,,,0.887215,1,,,,,,240,WORD,UN,33,seldom,FOREST,m,0.887215,,,,,,-0.061583578,-0.068914956,0,0,0,,0,155,155,179,1,
,,,,,,,,,,,,,,,,,,5e149c03864020aa6e1cf04d,2020-11-27_10h05.48.928,lexical_decision_task_MP_exp2,2020.2.5,Win32,60,z,1,,,,,,,,0.651895,1,,,,,,438,NW,UN,33,limpor,BAITCH,z,0.651895,,,,,,-0.061583578,-0.068914956,0,0,0,,0,156,156,377,1,
,,,,,,,,,,,,,,,,,,5e149c03864020aa6e1cf04d,2020-11-27_10h05.48.928,lexical_decision_task_MP_exp2,2020.2.5,Win32,60,z,1,,,,,,,,0.95694,1,,,,,,472,NW,UN,33,gorbie,CIGNEY,z,0.95694,,,,,,-0.061583578,-0.068914956,0,0,0,,0,157,157,411,1,
,,,,,,,,,,,,,,,,,,5e149c03864020aa6e1cf04d,2020-11-27_10h05.48.928,lexical_decision_task_MP_exp2,2020.2.5,Win32,60,m,1,,,,,,,,0.815005,1,,,,,,96,WORD,"ID",33,ignore,IGNORE,m,0.815005,,,,,,-0.061583578,-0.068914956,0,0,0,,0,158,158,35,1,
,,,,,,,,,,,,,,,,,,5e149c03864020aa6e1cf04d,2020-11-27_10h05.48.928,lexical_decision_task_MP_exp2,2020.2.5,Win32,60,m,1,,,,,,,,0.616295,1,,,,,,103,WORD,"ID",33,bounce,BOUNCE,m,0.616295,,,,,,-0.061583578,-0.068914956,0,0,0,,0,159,159,42,1,
,,,,,,,,,,,,,,,,,,5e149c03864020aa6e1cf04d,2020-11-27_10h05.48.928,lexical_decision_task_MP_exp2,2020.2.5,Win32,60,m,1,,,,,,,,0.63868,1,,,,,,16,WORD,UN,16,charge,FAUCET,m,0.63868,,,,,,-0.061583578,-0.068914956,0,0,0,,0,160,160,195,1,
,,,,,,,,,,,,,,,,,,5e149c03864020aa6e1cf04d,2020-11-27_10h05.48.928,lexical_decision_task_MP_exp2,2020.2.5,Win32,60,z,1,,,,,,,,0.62073,1,,,,,,276,NW,UN,16,petain,YARMON,z,0.62073,,,,,,-0.061583578,-0.068914956,0,0,0,,0,161,161,455,1,
,,,,,,,,,,,,,,,,,,5e149c03864020aa6e1cf04d,2020-11-27_10h05.48.928,lexical_decision_task_MP_exp2,2020.2.5,Win32,60,m,1,,,,,,,,0.5525,1,,,,,,215,WORD,UN,33,lumber,PHOBIA,m,0.5525,,,,,,-0.061583578,-0.068914956,0,0,0,,0,162,162,154,1,
,,,,,,,,,,,,,,,,,,5e149c03864020aa6e1cf04d,2020-11-27_10h05.48.928,lexical_decision_task_MP_exp2,2020.2.5,Win32,60,z,1,,,,,,,,0.632335,1,,,,,,312,NW,"ID",33,nerawl,NERAWL,z,0.632335,,,,,,-0.061583578,-0.068914956,0,0,0,,0,163,163,251,1,
,,,,,,,,,,,,,,,,,,5e149c03864020aa6e1cf04d,2020-11-27_10h05.48.928,lexical_decision_task_MP_exp2,2020.2.5,Win32,60,m,1,,,,,,,,0.657675,1,,,,,,153,WORD,"ID",16,behold,BEHOLD,m,0.657675,,,,,,-0.061583578,-0.068914956,0,0,0,,0,164,164,92,1,
,,,,,,,,,,,,,,,,,,5e149c03864020aa6e1cf04d,2020-11-27_10h05.48.928,lexical_decision_task_MP_exp2,2020.2.5,Win32,60,m,1,,,,,,,,0.581925,1,,,,,,213,WORD,UN,33,intake,SQUEAL,m,0.581925,,,,,,-0.061583578,-0.068914956,0,0,0,,0,165,165,152,1,
,,,,,,,,,,,,,,,,,,5e149c03864020aa6e1cf04d,2020-11-27_10h05.48.928,lexical_decision_task_MP_exp2,2020.2.5,Win32,60,z,1,,,,,,,,0.56236,1,,,,,,318,NW,"ID",33,reagly,REAGLY,z,0.56236,,,,,,-0.061583578,-0.068914956,0,0,0,,0,166,166,257,1,
,,,,,,,,,,,,,,,,,,5e149c03864020aa6e1cf04d,2020-11-27_10h05.48.928,lexical_decision_task_MP_exp2,2020.2.5,Win32,60,m,1,,,,,,,,1.217415,1,,,,,,85,WORD,"ID",33,sprawl,SPRAWL,m,1.217415,,,,,,-0.061583578,-0.068914956,0,0,0,,0,167,167,24,1,
,,,,,,,,,,,,,,,,,,5e149c03864020aa6e1cf04d,2020-11-27_10h05.48.928,lexical_decision_task_MP_exp2,2020.2.5,Win32,60,m,1,,,,,,,,0.55392,1,,,,,,28,WORD,UN,16,sketch,COMEDY,m,0.55392,,,,,,-0.061583578,-0.068914956,0,0,0,,0,168,168,207,1,
,,,,,,,,,,,,,,,,,,5e149c03864020aa6e1cf04d,2020-11-27_10h05.48.928,lexical_decision_task_MP_exp2,2020.2.5,Win32,60,z,1,,,,,,,,0.510355,1,,,,,,407,NW,"ID",16,suiver,SUIVER,z,0.510355,,,,,,-0.061583578,-0.068914956,0,0,0,,0,169,169,346,1,
,,,,,,,,,,,,,,,,,,5e149c03864020aa6e1cf04d,2020-11-27_10h05.48.928,lexical_decision_task_MP_exp2,2020.2.5,Win32,60,m,1,,,,,,,,0.58744,1,,,,,,171,WORD,"ID",16,depart,DEPART,m,0.58744,,,,,,-0.061583578,-0.068914956,0,0,0,,0,170,170,110,1,
,,,,,,,,,,,,,,,,,,5e149c03864020aa6e1cf04d,2020-11-27_10h05.48.928,lexical_decision_task_MP_exp2,2020.2.5,Win32,60,m,1,,,,,,,,0.5283,1,,,,,,164,WORD,"ID",16,market,MARKET,m,0.5283,,,,,,-0.061583578,-0.068914956,0,0,0,,0,171,171,103,1,
,,,,,,,,,,,,,,,,,,5e149c03864020aa6e1cf04d,2020-11-27_10h05.48.928,lexical_decision_task_MP_exp2,2020.2.5,Win32,60,m,1,,,,,,,,0.47463,1,,,,,,179,WORD,"ID",16,basket,BASKET,m,0.47463,,,,,,-0.061583578,-0.068914956,0,0,0,,0,172,172,118,1,
,,,,,,,,,,,,,,,,,,5e149c03864020aa6e1cf04d,2020-11-27_10h05.48.928,lexical_decision_task_MP_exp2,2020.2.5,Win32,60,z,1,,,,,,,,0.677285,1,,,,,,379,NW,"ID",16,auting,AUTING,z,0.677285,,,,,,-0.061583578,-0.068914956,0,0,0,,0,173,173,318,1,
,,,,,,,,,,,,,,,,,,5e149c03864020aa6e1cf04d,2020-11-27_10h05.48.928,lexical_decision_task_MP_exp2,2020.2.5,Win32,60,m,1,,,,,,,,0.684275,1,,,,,,27,WORD,UN,16,comedy,SCREAM,m,0.684275,,,,,,-0.061583578,-0.068914956,0,0,0,,0,174,174,206,1,
,,,,,,,,,,,,,,,,,,5e149c03864020aa6e1cf04d,2020-11-27_10h05.48.928,lexical_decision_task_MP_exp2,2020.2.5,Win32,60,z,1,,,,,,,,0.83212,1,,,,,,476,NW,UN,33,photie,JOSTED,z,0.83212,,,,,,-0.061583578,-0.068914956,0,0,0,,0,175,175,415,1,
,,,,,,,,,,,,,,,,,,5e149c03864020aa6e1cf04d,2020-11-27_10h05.48.928,lexical_decision_task_MP_exp2,2020.2.5,Win32,60,m,1,,,,,,,,0.479965,1,,,,,,173,WORD,"ID",16,shower,SHOWER,m,0.479965,,,,,,-0.061583578,-0.068914956,0,0,0,,0,176,176,112,1,
,,,,,,,,,,,,,,,,,,5e149c03864020aa6e1cf04d,2020-11-27_10h05.48.928,lexical_decision_task_MP_exp2,2020.2.5,Win32,60,m,1,,,,,,,,0.520045,1,,,,,,48,WORD,UN,16,survey,WALNUT,m,0.520045,,,,,,-0.061583578,-0.068914956,0,0,0,,0,177,177,227,1,
,,,,,,,,,,,,,,,,,,5e149c03864020aa6e1cf04d,2020-11-27_10h05.48.928,lexical_decision_task_MP_exp2,2020.2.5,Win32,60,z,1,,,,,,,,0.516175,1,,,,,,336,NW,"ID",33,ghodus,GHODUS,z,0.516175,,,,,,-0.061583578,-0.068914956,0,0,0,,0,178,178,275,1,
,,,,,,,,,,,,,,,,,,5e149c03864020aa6e1cf04d,2020-11-27_10h05.48.928,lexical_decision_task_MP_exp2,2020.2.5,Win32,60,m,1,,,,,,,,0.45815,1,,,,,,13,WORD,UN,16,almost,STRIVE,m,0.45815,,,,,,-0.061583578,-0.068914956,0,0,0,,0,179,179,192,1,
,,,,,,,,,,,,,,,,,,5e149c03864020aa6e1cf04d,2020-11-27_10h05.48.928,lexical_decision_task_MP_exp2,2020.2.5,Win32,60,z,1,,,,,,,,0.829805,1,,,,,,361,NW,"ID",16,pauche,PAUCHE,z,0.829805,,,,,,-0.061583578,-0.068914956,0,0,0,,0,180,180,300,1,
,,,,,,,,,,,,,,,,,,5e149c03864020aa6e1cf04d,2020-11-27_10h05.48.928,lexical_decision_task_MP_exp2,2020.2.5,Win32,60,m,1,,,,,,,,0.52236,1,,,,,,31,WORD,UN,16,buckle,WEAPON,m,0.52236,,,,,,-0.061583578,-0.068914956,0,0,0,,0,181,181,210,1,
,,,,,,,,,,,,,,,,,,5e149c03864020aa6e1cf04d,2020-11-27_10h05.48.928,lexical_decision_task_MP_exp2,2020.2.5,Win32,60,z,1,,,,,,,,0.653,1,,,,,,327,NW,"ID",33,plenac,PLENAC,z,0.653,,,,,,-0.061583578,-0.068914956,0,0,0,,0,182,182,266,1,
,,,,,,,,,,,,,,,,,,5e149c03864020aa6e1cf04d,2020-11-27_10h05.48.928,lexical_decision_task_MP_exp2,2020.2.5,Win32,60,z,1,,,,,,,,0.638125,1,,,,,,275,NW,UN,16,yarmon,SLEIRT,z,0.638125,,,,,,-0.061583578,-0.068914956,0,0,0,,0,183,183,454,1,
,,,,,,,,,,,,,,,,,,5e149c03864020aa6e1cf04d,2020-11-27_10h05.48.928,lexical_decision_task_MP_exp2,2020.2.5,Win32,60,z,1,,,,,,,,0.56725,1,,,,,,440,NW,UN,33,rastoe,SARIDE,z,0.56725,,,,,,-0.061583578,-0.068914956,0,0,0,,0,184,184,379,1,
,,,,,,,,,,,,,,,,,,5e149c03864020aa6e1cf04d,2020-11-27_10h05.48.928,lexical_decision_task_MP_exp2,2020.2.5,Win32,60,m,1,,,,,,,,0.54942,1,,,,,,104,WORD,"ID",33,studio,STUDIO,m,0.54942,,,,,,-0.061583578,-0.068914956,0,0,0,,0,185,185,43,1,
,,,,,,,,,,,,,,,,,,5e149c03864020aa6e1cf04d,2020-11-27_10h05.48.928,lexical_decision_task_MP_exp2,2020.2.5,Win32,60,z,1,,,,,,,,0.47847,1,,,,,,464,NW,UN,33,whivex,CHAITE,z,0.47847,,,,,,-0.061583578,-0.068914956,0,0,0,,0,186,186,403,1,
,,,,,,,,,,,,,,,,,,5e149c03864020aa6e1cf04d,2020-11-27_10h05.48.928,lexical_decision_task_MP_exp2,2020.2.5,Win32,60,z,1,,,,,,,,0.747775,1,,,,,,382,NW,"ID",16,sarley,SARLEY,z,0.747775,,,,,,-0.061583578,-0.068914956,0,0,0,,0,187,187,321,1,
,,,,,,,,,,,,,,,,,,5e149c03864020aa6e1cf04d,2020-11-27_10h05.48.928,lexical_decision_task_MP_exp2,2020.2.5,Win32,60,z,0,,,,,,,,0.46484,0,,,,,,123,WORD,"ID",16,strike,STRIKE,m,0.46484,,,,,,-0.061583578,-0.068914956,0,0,0,,0,188,188,62,1,
,,,,,,,,,,,,,,,,,,5e149c03864020aa6e1cf04d,2020-11-27_10h05.48.928,lexical_decision_task_MP_exp2,2020.2.5,Win32,60,z,1,,,,,,,,0.727795,1,,,,,,393,NW,"ID",16,ganous,GANOUS,z,0.727795,,,,,,-0.061583578,-0.068914956,0,0,0,,0,189,189,332,1,
,,,,,,,,,,,,,,,,,,5e149c03864020aa6e1cf04d,2020-11-27_10h05.48.928,lexical_decision_task_MP_exp2,2020.2.5,Win32,60,m,1,,,,,,,,0.594175,1,,,,,,8,WORD,UN,16,hustle,ABRUPT,m,0.594175,,,,,,-0.061583578,-0.068914956,0,0,0,,0,190,190,187,1,
,,,,,,,,,,,,,,,,,,5e149c03864020aa6e1cf04d,2020-11-27_10h05.48.928,lexical_decision_task_MP_exp2,2020.2.5,Win32,60,m,1,,,,,,,,0.51366,1,,,,,,108,WORD,"ID",33,reckon,RECKON,m,0.51366,,,,,,-0.061583578,-0.068914956,0,0,0,,0,191,191,47,1,
,,,,,,,,,,,,,,,,,,5e149c03864020aa6e1cf04d,2020-11-27_10h05.48.928,lexical_decision_task_MP_exp2,2020.2.5,Win32,60,z,1,,,,,,,,0.571395,1,,,,,,252,NW,UN,16,resait,STAPOD,z,0.571395,,,,,,-0.061583578,-0.068914956,0,0,0,,0,192,192,431,1,
,,,,,,,,,,,,,,,,,,5e149c03864020aa6e1cf04d,2020-11-27_10h05.48.928,lexical_decision_task_MP_exp2,2020.2.5,Win32,60,m,1,,,,,,,,0.49775,1,,,,,,147,WORD,"ID",16,garlic,GARLIC,m,0.49775,,,,,,-0.061583578,-0.068914956,0,0,0,,0,193,193,86,1,
,,,,,,,,,,,,,,,,,,5e149c03864020aa6e1cf04d,2020-11-27_10h05.48.928,lexical_decision_task_MP_exp2,2020.2.5,Win32,60,m,1,,,,,,,,0.90011,1,,,,,,120,WORD,"ID",33,strain,STRAIN,m,0.90011,,,,,,-0.061583578,-0.068914956,0,0,0,,0,194,194,59,1,
,,,,,,,,,,,,,,,,,,5e149c03864020aa6e1cf04d,2020-11-27_10h05.48.928,lexical_decision_task_MP_exp2,2020.2.5,Win32,60,m,1,,,,,,,,0.489985,1,,,,,,66,WORD,"ID",33,gospel,GOSPEL,m,0.489985,,,,,,-0.061583578,-0.068914956,0,0,0,,0,195,195,5,1,
,,,,,,,,,,,,,,,,,,5e149c03864020aa6e1cf04d,2020-11-27_10h05.48.928,lexical_decision_task_MP_exp2,2020.2.5,Win32,60,z,1,,,,,,,,0.71806,1,,,,,,254,NW,UN,16,apight,VAROSH,z,0.71806,,,,,,-0.061583578,-0.068914956,0,0,0,,0,196,196,433,1,
,,,,,,,,,,,,,,,,,,5e149c03864020aa6e1cf04d,2020-11-27_10h05.48.928,lexical_decision_task_MP_exp2,2020.2.5,Win32,60,m,1,,,,,,,,0.59971,1,,,,,,114,WORD,"ID",33,placid,PLACID,m,0.59971,,,,,,-0.061583578,-0.068914956,0,0,0,,0,197,197,53,1,
,,,,,,,,,,,,,,,,,,5e149c03864020aa6e1cf04d,2020-11-27_10h05.48.928,lexical_decision_task_MP_exp2,2020.2.5,Win32,60,m,1,,,,,,,,0.62256,1,,,,,,228,WORD,UN,33,kidney,MASTER,m,0.62256,,,,,,-0.061583578,-0.068914956,0,0,0,,0,198,198,167,1,
,,,,,,,,,,,,,,,,,,5e149c03864020aa6e1cf04d,2020-11-27_10h05.48.928,lexical_decision_task_MP_exp2,2020.2.5,Win32,60,m,1,,,,,,,,0.614135,1,,,,,,145,WORD,"ID",16,parish,PARISH,m,0.614135,,,,,,-0.061583578,-0.068914956,0,0,0,,0,199,199,84,1,
,,,,,,,,,,,,,,,,,,5e149c03864020aa6e1cf04d,2020-11-27_10h05.48.928,lexical_decision_task_MP_exp2,2020.2.5,Win32,60,m,1,,,,,,,,0.678575,1,,,,,,137,WORD,"ID",16,finger,FINGER,m,0.678575,,,,,,-0.061583578,-0.068914956,0,0,0,,0,200,200,76,1,
,,,,,,,,,,,,,,,,,,5e149c03864020aa6e1cf04d,2020-11-27_10h05.48.928,lexical_decision_task_MP_exp2,2020.2.5,Win32,60,z,1,,,,,,,,0.685425,1,,,,,,360,NW,"ID",33,desory,DESORY,z,0.685425,,,,,,-0.061583578,-0.068914956,0,0,0,,0,201,201,299,1,
,,,,,,,,,,,,,,,,,,5e149c03864020aa6e1cf04d,2020-11-27_10h05.48.928,lexical_decision_task_MP_exp2,2020.2.5,Win32,60,m,1,,,,,,,,0.58185,1,,,,,,138,WORD,"ID",16,melody,MELODY,m,0.58185,,,,,,-0.061583578,-0.068914956,0,0,0,,0,202,202,77,1,
,,,,,,,,,,,,,,,,,,5e149c03864020aa6e1cf04d,2020-11-27_10h05.48.928,lexical_decision_task_MP_exp2,2020.2.5,Win32,60,z,1,,,,,,,,0.575925,1,,,,,,283,NW,UN,16,shaple,VERALF,z,0.575925,,,,,,-0.061583578,-0.068914956,0,0,0,,0,203,203,462,1,
,,,,,,,,,,,,,,,,,,5e149c03864020aa6e1cf04d,2020-11-27_10h05.48.928,lexical_decision_task_MP_exp2,2020.2.5,Win32,60,z,1,,,,,,,,0.72204,1,,,,,,452,NW,UN,33,bolvis,SURDEN,z,0.72204,,,,,,-0.061583578,-0.068914956,0,0,0,,0,204,204,391,1,
,,,,,,,,,,,,,,,,,,5e149c03864020aa6e1cf04d,2020-11-27_10h05.48.928,lexical_decision_task_MP_exp2,2020.2.5,Win32,60,z,1,,,,,,,,0.676365,1,,,,,,419,NW,"ID",16,slount,SLOUNT,z,0.676365,,,,,,-0.061583578,-0.068914956,0,0,0,,0,205,205,358,1,
,,,,,,,,,,,,,,,,,,5e149c03864020aa6e1cf04d,2020-11-27_10h05.48.928,lexical_decision_task_MP_exp2,2020.2.5,Win32,60,z,1,,,,,,,,0.9746,1,,,,,,264,NW,UN,16,distar,VACKEL,z,0.9746,,,,,,-0.061583578,-0.068914956,0,0,0,,0,206,206,443,1,
,,,,,,,,,,,,,,,,,,5e149c03864020aa6e1cf04d,2020-11-27_10h05.48.928,lexical_decision_task_MP_exp2,2020.2.5,Win32,60,m,1,,,,,,,,0.576775,1,,,,,,23,WORD,UN,16,praise,WEALTH,m,0.576775,,,,,,-0.061583578,-0.068914956,0,0,0,,0,207,207,202,1,
,,,,,,,,,,,,,,,,,,5e149c03864020aa6e1cf04d,2020-11-27_10h05.48.928,lexical_decision_task_MP_exp2,2020.2.5,Win32,60,m,1,,,,,,,,0.74025,1,,,,,,83,WORD,"ID",33,result,RESULT,m,0.74025,,,,,,-0.061583578,-0.068914956,0,0,0,,0,208,208,22,1,
,,,,,,,,,,,,,,,,,,5e149c03864020aa6e1cf04d,2020-11-27_10h05.48.928,lexical_decision_task_MP_exp2,2020.2.5,Win32,60,z,1,,,,,,,,0.67248,1,,,,,,414,NW,"ID",16,serbol,SERBOL,z,0.67248,,,,,,-0.061583578,-0.068914956,0,0,0,,0,209,209,353,1,
,,,,,,,,,,,,,,,,,,5e149c03864020aa6e1cf04d,2020-11-27_10h05.48.928,lexical_decision_task_MP_exp2,2020.2.5,Win32,60,z,1,,,,,,,,1.032155,1,,,,,,335,NW,"ID",33,desion,DESION,z,1.032155,,,,,,-0.061583578,-0.068914956,0,0,0,,0,210,210,274,1,
,,,,,,,,,,,,,,,,,,5e149c03864020aa6e1cf04d,2020-11-27_10h05.48.928,lexical_decision_task_MP_exp2,2020.2.5,Win32,60,z,1,,,,,,,,0.69914,1,,,,,,297,NW,UN,16,piergy,FERTIC,z,0.69914,,,,,,-0.061583578,-0.068914956,0,0,0,,0,211,211,476,1,
,,,,,,,,,,,,,,,,,,5e149c03864020aa6e1cf04d,2020-11-27_10h05.48.928,lexical_decision_task_MP_exp2,2020.2.5,Win32,60,z,1,,,,,,,,0.549435,1,,,,,,340,NW,"ID",33,fiatch,FIATCH,z,0.549435,,,,,,-0.061583578,-0.068914956,0,0,0,,0,212,212,279,1,
,,,,,,,,,,,,,,,,,,5e149c03864020aa6e1cf04d,2020-11-27_10h05.48.928,lexical_decision_task_MP_exp2,2020.2.5,Win32,60,z,1,,,,,,,,0.536385,1,,,,,,352,NW,"ID",33,tringe,TRINGE,z,0.536385,,,,,,-0.061583578,-0.068914956,0,0,0,,0,213,213,291,1,
,,,,,,,,,,,,,,,,,,5e149c03864020aa6e1cf04d,2020-11-27_10h05.48.928,lexical_decision_task_MP_exp2,2020.2.5,Win32,60,m,1,,,,,,,,0.541175,1,,,,,,223,WORD,UN,33,period,KIDNEY,m,0.541175,,,,,,-0.061583578,-0.068914956,0,0,0,,0,214,214,162,1,
,,,,,,,,,,,,,,,,,,5e149c03864020aa6e1cf04d,2020-11-27_10h05.48.928,lexical_decision_task_MP_exp2,2020.2.5,Win32,60,m,1,,,,,,,,0.607925,1,,,,,,127,WORD,"ID",16,castle,CASTLE,m,0.607925,,,,,,-0.061583578,-0.068914956,0,0,0,,0,215,215,66,1,
,,,,,,,,,,,,,,,,,,5e149c03864020aa6e1cf04d,2020-11-27_10h05.48.928,lexical_decision_task_MP_exp2,2020.2.5,Win32,60,z,1,,,,,,,,0.572625,1,,,,,,246,NW,UN,16,blarge,PIATON,z,0.572625,,,,,,-0.061583578,-0.068914956,0,0,0,,0,216,216,425,1,
,,,,,,,,,,,,,,,,,,5e149c03864020aa6e1cf04d,2020-11-27_10h05.48.928,lexical_decision_task_MP_exp2,2020.2.5,Win32,60,m,1,,,,,,,,0.597495,1,,,,,,159,WORD,"ID",16,detail,DETAIL,m,0.597495,,,,,,-0.061583578,-0.068914956,0,0,0,,0,217,217,98,1,
,,,,,,,,,,,,,,,,,,5e149c03864020aa6e1cf04d,2020-11-27_10h05.48.928,lexical_decision_task_MP_exp2,2020.2.5,Win32,60,m,1,,,,,,,,0.83075,1,,,,,,176,WORD,"ID",16,strife,STRIFE,m,0.83075,,,,,,-0.061583578,-0.068914956,0,0,0,,0,218,218,115,1,
,,,,,,,,,,,,,,,,,,5e149c03864020aa6e1cf04d,2020-11-27_10h05.48.928,lexical_decision_task_MP_exp2,2020.2.5,Win32,60,m,1,,,,,,,,0.56454,1,,,,,,187,WORD,UN,33,social,COURSE,m,0.56454,,,,,,-0.061583578,-0.068914956,0,0,0,,0,219,219,126,1,
,,,,,,,,,,,,,,,,,,5e149c03864020aa6e1cf04d,2020-11-27_10h05.48.928,lexical_decision_task_MP_exp2,2020.2.5,Win32,60,m,1,,,,,,,,0.57206,1,,,,,,129,WORD,"ID",16,marvel,MARVEL,m,0.57206,,,,,,-0.061583578,-0.068914956,0,0,0,,0,220,220,68,1,
,,,,,,,,,,,,,,,,,,5e149c03864020aa6e1cf04d,2020-11-27_10h05.48.928,lexical_decision_task_MP_exp2,2020.2.5,Win32,60,z,1,,,,,,,,0.597675,1,,,,,,262,NW,UN,16,dolica,QUILEW,z,0.597675,,,,,,-0.061583578,-0.068914956,0,0,0,,0,221,221,441,1,
,,,,,,,,,,,,,,,,,,5e149c03864020aa6e1cf04d,2020-11-27_10h05.48.928,lexical_decision_task_MP_exp2,2020.2.5,Win32,60,m,1,,,,,,,,0.68978,1,,,,,,222,WORD,UN,33,export,HINDER,m,0.68978,,,,,,-0.061583578,-0.068914956,0,0,0,,0,222,222,161,1,
,,,,,,,,,,,,,,,,,,5e149c03864020aa6e1cf04d,2020-11-27_10h05.48.928,lexical_decision_task_MP_exp2,2020.2.5,Win32,60,m,1,,,,,,,,0.639995,1,,,,,,37,WORD,UN,16,powder,INSULT,m,0.639995,,,,,,-0.061583578,-0.068914956,0,0,0,,0,223,223,216,1,
,,,,,,,,,,,,,,,,,,5e149c03864020aa6e1cf04d,2020-11-27_10h05.48.928,lexical_decision_task_MP_exp2,2020.2.5,Win32,60,m,1,,,,,,,,0.78795,1,,,,,,140,WORD,"ID",16,prince,PRINCE,m,0.78795,,,,,,-0.061583578,-0.068914956,0,0,0,,0,224,224,79,1,
,,,,,,,,,,,,,,,,,,5e149c03864020aa6e1cf04d,2020-11-27_10h05.48.928,lexical_decision_task_MP_exp2,2020.2.5,Win32,60,m,1,,,,,,,,0.643915,1,,,,,,218,WORD,UN,33,bucket,SHRINK,m,0.643915,,,,,,-0.061583578,-0.068914956,0,0,0,,0,225,225,157,1,
,,,,,,,,,,,,,,,,,,5e149c03864020aa6e1cf04d,2020-11-27_10h05.48.928,lexical_decision_task_MP_exp2,2020.2.5,Win32,60,z,1,,,,,,,,0.78313,1,,,,,,413,NW,"ID",16,equats,EQUATS,z,0.78313,,,,,,-0.061583578,-0.068914956,0,0,0,,0,226,226,352,1,
,,,,,,,,,,,,,,,,,,5e149c03864020aa6e1cf04d,2020-11-27_10h05.48.928,lexical_decision_task_MP_exp2,2020.2.5,Win32,60,z,1,,,,,,,,1.083135,1,,,,,,355,NW,"ID",33,zingly,ZINGLY,z,1.083135,,,,,,-0.061583578,-0.068914956,0,0,0,,0,227,227,294,1,
,,,,,,,,,,,,,,,,,,5e149c03864020aa6e1cf04d,2020-11-27_10h05.48.928,lexical_decision_task_MP_exp2,2020.2.5,Win32,60,z,1,,,,,,,,0.588875,1,,,,,,302,NW,"ID",33,miluer,MILUER,z,0.588875,,,,,,-0.061583578,-0.068914956,0,0,0,,0,228,228,241,1,
,,,,,,,,,,,,,,,,,,5e149c03864020aa6e1cf04d,2020-11-27_10h05.48.928,lexical_decision_task_MP_exp2,2020.2.5,Win32,60,z,1,,,,,,,,0.58958,1,,,,,,314,NW,"ID",33,sprine,SPRINE,z,0.58958,,,,,,-0.061583578,-0.068914956,0,0,0,,0,229,229,253,1,
,,,,,,,,,,,,,,,,,,5e149c03864020aa6e1cf04d,2020-11-27_10h05.48.928,lexical_decision_task_MP_exp2,2020.2.5,Win32,60,z,1,,,,,,,,0.53475,1,,,,,,390,NW,"ID",16,hatrus,HATRUS,z,0.53475,,,,,,-0.061583578,-0.068914956,0,0,0,,0,230,230,329,1,
,,,,,,,,,,,,,,,,,,5e149c03864020aa6e1cf04d,2020-11-27_10h05.48.928,lexical_decision_task_MP_exp2,2020.2.5,Win32,60,z,1,,,,,,,,0.556285,1,,,,,,266,NW,UN,16,pasink,VARMIT,z,0.556285,,,,,,-0.061583578,-0.068914956,0,0,0,,0,231,231,445,1,
,,,,,,,,,,,,,,,,,,5e149c03864020aa6e1cf04d,2020-11-27_10h05.48.928,lexical_decision_task_MP_exp2,2020.2.5,Win32,60,z,1,,,,,,,,0.49929,1,,,,,,279,NW,UN,16,curbol,CELOND,z,0.49929,,,,,,-0.061583578,-0.068914956,0,0,0,,0,232,232,458,1,
,,,,,,,,,,,,,,,,,,5e149c03864020aa6e1cf04d,2020-11-27_10h05.48.928,lexical_decision_task_MP_exp2,2020.2.5,Win32,60,m,1,,,,,,,,0.61298,1,,,,,,157,WORD,"ID",16,dragon,DRAGON,m,0.61298,,,,,,-0.061583578,-0.068914956,0,0,0,,0,233,233,96,1,
,,,,,,,,,,,,,,,,,,5e149c03864020aa6e1cf04d,2020-11-27_10h05.48.928,lexical_decision_task_MP_exp2,2020.2.5,Win32,60,m,1,,,,,,,,0.42281,1,,,,,,94,WORD,"ID",33,travel,TRAVEL,m,0.42281,,,,,,-0.061583578,-0.068914956,0,0,0,,0,234,234,33,1,
,,,,,,,,,,,,,,,,,,5e149c03864020aa6e1cf04d,2020-11-27_10h05.48.928,lexical_decision_task_MP_exp2,2020.2.5,Win32,60,z,1,,,,,,,,0.479575,1,,,,,,453,NW,UN,33,scouge,BOLVIS,z,0.479575,,,,,,-0.061583578,-0.068914956,0,0,0,,0,235,235,392,1,
,,,,,,,,,,,,,,,,,,5e149c03864020aa6e1cf04d,2020-11-27_10h05.48.928,lexical_decision_task_MP_exp2,2020.2.5,Win32,60,m,1,,,,,,,,0.71914,1,,,,,,116,WORD,"ID",33,tumble,TUMBLE,m,0.71914,,,,,,-0.061583578,-0.068914956,0,0,0,,0,236,236,55,1,
,,,,,,,,,,,,,,,,,,5e149c03864020aa6e1cf04d,2020-11-27_10h05.48.928,lexical_decision_task_MP_exp2,2020.2.5,Win32,60,z,1,,,,,,,,0.52228,1,,,,,,258,NW,UN,16,soudal,POLUTH,z,0.52228,,,,,,-0.061583578,-0.068914956,0,0,0,,0,237,237,437,1,
,,,,,,,,,,,,,,,,,,5e149c03864020aa6e1cf04d,2020-11-27_10h05.48.928,lexical_decision_task_MP_exp2,2020.2.5,Win32,60,z,1,,,,,,,,0.54983,1,,,,,,412,NW,"ID",16,jiluer,JILUER,z,0.54983,,,,,,-0.061583578,-0.068914956,0,0,0,,0,238,238,351,1,
,,,,,,,,,,,,,,,,,,5e149c03864020aa6e1cf04d,2020-11-27_10h05.48.928,lexical_decision_task_MP_exp2,2020.2.5,Win32,60,z,1,,,,,,,,0.51583,1,,,,,,354,NW,"ID",33,virlex,VIRLEX,z,0.51583,,,,,,-0.061583578,-0.068914956,0,0,0,,0,239,239,293,1,
,,,,,,,,,,,,,,,,,,5e149c03864020aa6e1cf04d,2020-11-27_10h05.48.928,lexical_decision_task_MP_exp2,2020.2.5,Win32,60,z,1,,,,,,,,0.58854,1,,,,,,285,NW,UN,16,reldon,PRUDGE,z,0.58854,,,,,,-0.061583578,-0.068914956,0,0,0,,0,240,240,464,1,
,,,,,,,,,,,,,,,,,,5e149c03864020aa6e1cf04d,2020-11-27_10h05.48.928,lexical_decision_task_MP_exp2,2020.2.5,Win32,60,z,1,,,,,,,,0.44632,1,,,,,,408,NW,"ID",16,hurnia,HURNIA,z,0.44632,,,,,,-0.061583578,-0.068914956,0,0,0,space,0,241,241,347,1,70.56732
,,,,,,,,,,,,,,,,,,5e149c03864020aa6e1cf04d,2020-11-27_10h05.48.928,lexical_decision_task_MP_exp2,2020.2.5,Win32,60,z,1,,,,,,,,0.62602,1,,,,,,398,NW,"ID",16,blunde,BLUNDE,z,0.62602,,,,,,-0.061583578,-0.068914956,0,0,0,,0,242,242,337,1,
,,,,,,,,,,,,,,,,,,5e149c03864020aa6e1cf04d,2020-11-27_10h05.48.928,lexical_decision_task_MP_exp2,2020.2.5,Win32,60,m,1,,,,,,,,0.54769,1,,,,,,90,WORD,"ID",33,relish,RELISH,m,0.54769,,,,,,-0.061583578,-0.068914956,0,0,0,,0,243,243,29,1,
,,,,,,,,,,,,,,,,,,5e149c03864020aa6e1cf04d,2020-11-27_10h05.48.928,lexical_decision_task_MP_exp2,2020.2.5,Win32,60,m,1,,,,,,,,0.500945,1,,,,,,238,WORD,UN,33,behalf,FLOWER,m,0.500945,,,,,,-0.061583578,-0.068914956,0,0,0,,0,244,244,177,1,
,,,,,,,,,,,,,,,,,,5e149c03864020aa6e1cf04d,2020-11-27_10h05.48.928,lexical_decision_task_MP_exp2,2020.2.5,Win32,60,z,1,,,,,,,,0.664065,1,,,,,,392,NW,"ID",16,rouncy,ROUNCY,z,0.664065,,,,,,-0.061583578,-0.068914956,0,0,0,,0,245,245,331,1,
,,,,,,,,,,,,,,,,,,5e149c03864020aa6e1cf04d,2020-11-27_10h05.48.928,lexical_decision_task_MP_exp2,2020.2.5,Win32,60,m,1,,,,,,,,0.450795,1,,,,,,11,WORD,UN,16,amount,CRUISE,m,0.450795,,,,,,-0.061583578,-0.068914956,0,0,0,,0,246,246,190,1,
,,,,,,,,,,,,,,,,,,5e149c03864020aa6e1cf04d,2020-11-27_10h05.48.928,lexical_decision_task_MP_exp2,2020.2.5,Win32,60,m,1,,,,,,,,0.499965,1,,,,,,62,WORD,"ID",33,region,REGION,m,0.499965,,,,,,-0.061583578,-0.068914956,0,0,0,,0,247,247,1,1,
,,,,,,,,,,,,,,,,,,5e149c03864020aa6e1cf04d,2020-11-27_10h05.48.928,lexical_decision_task_MP_exp2,2020.2.5,Win32,60,m,1,,,,,,,,0.693985,1,,,,,,122,WORD,"ID",16,linger,LINGER,m,0.693985,,,,,,-0.061583578,-0.068914956,0,0,0,,0,248,248,61,1,
,,,,,,,,,,,,,,,,,,5e149c03864020aa6e1cf04d,2020-11-27_10h05.48.928,lexical_decision_task_MP_exp2,2020.2.5,Win32,60,z,1,,,,,,,,0.498625,1,,,,,,307,NW,"ID",33,kirafe,KIRAFE,z,0.498625,,,,,,-0.061583578,-0.068914956,0,0,0,,0,249,249,246,1,
,,,,,,,,,,,,,,,,,,5e149c03864020aa6e1cf04d,2020-11-27_10h05.48.928,lexical_decision_task_MP_exp2,2020.2.5,Win32,60,z,1,,,,,,,,0.452595,1,,,,,,273,NW,UN,16,fumblo,SORTEL,z,0.452595,,,,,,-0.061583578,-0.068914956,0,0,0,,0,250,250,452,1,
,,,,,,,,,,,,,,,,,,5e149c03864020aa6e1cf04d,2020-11-27_10h05.48.928,lexical_decision_task_MP_exp2,2020.2.5,Win32,60,z,1,,,,,,,,0.45381,1,,,,,,338,NW,"ID",33,wreash,WREASH,z,0.45381,,,,,,-0.061583578,-0.068914956,0,0,0,,0,251,251,277,1,
,,,,,,,,,,,,,,,,,,5e149c03864020aa6e1cf04d,2020-11-27_10h05.48.928,lexical_decision_task_MP_exp2,2020.2.5,Win32,60,z,0,,,,,,,,0.383465,0,,,,,,182,WORD,UN,33,absent,WINTER,m,0.383465,,,,,,-0.061583578,-0.068914956,0,0,0,,0,252,252,121,1,
,,,,,,,,,,,,,,,,,,5e149c03864020aa6e1cf04d,2020-11-27_10h05.48.928,lexical_decision_task_MP_exp2,2020.2.5,Win32,60,m,1,,,,,,,,0.556915,1,,,,,,58,WORD,UN,16,splint,FOSTER,m,0.556915,,,,,,-0.061583578,-0.068914956,0,0,0,,0,253,253,237,1,
,,,,,,,,,,,,,,,,,,5e149c03864020aa6e1cf04d,2020-11-27_10h05.48.928,lexical_decision_task_MP_exp2,2020.2.5,Win32,60,z,1,,,,,,,,0.563805,1,,,,,,300,NW,UN,16,smenco,YARION,z,0.563805,,,,,,-0.061583578,-0.068914956,0,0,0,,0,254,254,479,1,
,,,,,,,,,,,,,,,,,,5e149c03864020aa6e1cf04d,2020-11-27_10h05.48.928,lexical_decision_task_MP_exp2,2020.2.5,Win32,60,z,1,,,,,,,,0.599405,1,,,,,,321,NW,"ID",33,miator,MIATOR,z,0.599405,,,,,,-0.061583578,-0.068914956,0,0,0,,0,255,255,260,1,
,,,,,,,,,,,,,,,,,,5e149c03864020aa6e1cf04d,2020-11-27_10h05.48.928,lexical_decision_task_MP_exp2,2020.2.5,Win32,60,z,1,,,,,,,,0.53391,1,,,,,,439,NW,UN,33,saride,LIMPOR,z,0.53391,,,,,,-0.061583578,-0.068914956,0,0,0,,0,256,256,378,1,
,,,,,,,,,,,,,,,,,,5e149c03864020aa6e1cf04d,2020-11-27_10h05.48.928,lexical_decision_task_MP_exp2,2020.2.5,Win32,60,z,1,,,,,,,,0.74976,1,,,,,,351,NW,"ID",33,tiesch,TIESCH,z,0.74976,,,,,,-0.061583578,-0.068914956,0,0,0,,0,257,257,290,1,
,,,,,,,,,,,,,,,,,,5e149c03864020aa6e1cf04d,2020-11-27_10h05.48.928,lexical_decision_task_MP_exp2,2020.2.5,Win32,60,z,1,,,,,,,,0.51646,1,,,,,,401,NW,"ID",16,mustil,MUSTIL,z,0.51646,,,,,,-0.061583578,-0.068914956,0,0,0,,0,258,258,340,1,
,,,,,,,,,,,,,,,,,,5e149c03864020aa6e1cf04d,2020-11-27_10h05.48.928,lexical_decision_task_MP_exp2,2020.2.5,Win32,60,z,1,,,,,,,,0.554525,1,,,,,,250,NW,UN,16,lupict,MILTED,z,0.554525,,,,,,-0.061583578,-0.068914956,0,0,0,,0,259,259,429,1,
,,,,,,,,,,,,,,,,,,5e149c03864020aa6e1cf04d,2020-11-27_10h05.48.928,lexical_decision_task_MP_exp2,2020.2.5,Win32,60,z,1,,,,,,,,0.465935,1,,,,,,416,NW,"ID",16,pathel,PATHEL,z,0.465935,,,,,,-0.061583578,-0.068914956,0,0,0,,0,260,260,355,1,
,,,,,,,,,,,,,,,,,,5e149c03864020aa6e1cf04d,2020-11-27_10h05.48.928,lexical_decision_task_MP_exp2,2020.2.5,Win32,60,m,1,,,,,,,,0.535625,1,,,,,,40,WORD,UN,16,spring,CONVEY,m,0.535625,,,,,,-0.061583578,-0.068914956,0,0,0,,0,261,261,219,1,
,,,,,,,,,,,,,,,,,,5e149c03864020aa6e1cf04d,2020-11-27_10h05.48.928,lexical_decision_task_MP_exp2,2020.2.5,Win32,60,m,1,,,,,,,,0.567735,1,,,,,,156,WORD,"ID",16,cradle,CRADLE,m,0.567735,,,,,,-0.061583578,-0.068914956,0,0,0,,0,262,262,95,1,
,,,,,,,,,,,,,,,,,,5e149c03864020aa6e1cf04d,2020-11-27_10h05.48.928,lexical_decision_task_MP_exp2,2020.2.5,Win32,60,z,1,,,,,,,,0.526485,1,,,,,,242,NW,UN,16,musied,UNWERT,z,0.526485,,,,,,-0.061583578,-0.068914956,0,0,0,,0,263,263,421,1,
,,,,,,,,,,,,,,,,,,5e149c03864020aa6e1cf04d,2020-11-27_10h05.48.928,lexical_decision_task_MP_exp2,2020.2.5,Win32,60,m,1,,,,,,,,0.515815,1,,,,,,134,WORD,"ID",16,staple,STAPLE,m,0.515815,,,,,,-0.061583578,-0.068914956,0,0,0,,0,264,264,73,1,
,,,,,,,,,,,,,,,,,,5e149c03864020aa6e1cf04d,2020-11-27_10h05.48.928,lexical_decision_task_MP_exp2,2020.2.5,Win32,60,z,1,,,,,,,,0.53255,1,,,,,,389,NW,"ID",16,witmer,WITMER,z,0.53255,,,,,,-0.061583578,-0.068914956,0,0,0,,0,265,265,328,1,
,,,,,,,,,,,,,,,,,,5e149c03864020aa6e1cf04d,2020-11-27_10h05.48.928,lexical_decision_task_MP_exp2,2020.2.5,Win32,60,m,1,,,,,,,,0.482395,1,,,,,,36,WORD,UN,16,insult,VANISH,m,0.482395,,,,,,-0.061583578,-0.068914956,0,0,0,,0,266,266,215,1,
,,,,,,,,,,,,,,,,,,5e149c03864020aa6e1cf04d,2020-11-27_10h05.48.928,lexical_decision_task_MP_exp2,2020.2.5,Win32,60,z,1,,,,,,,,1.507175,1,,,,,,325,NW,"ID",33,thruse,THRUSE,z,1.507175,,,,,,-0.061583578,-0.068914956,0,0,0,,0,267,267,264,1,
,,,,,,,,,,,,,,,,,,5e149c03864020aa6e1cf04d,2020-11-27_10h05.48.928,lexical_decision_task_MP_exp2,2020.2.5,Win32,60,m,1,,,,,,,,0.6411,1,,,,,,113,WORD,"ID",33,chorus,CHORUS,m,0.6411,,,,,,-0.061583578,-0.068914956,0,0,0,,0,268,268,52,1,
,,,,,,,,,,,,,,,,,,5e149c03864020aa6e1cf04d,2020-11-27_10h05.48.928,lexical_decision_task_MP_exp2,2020.2.5,Win32,60,z,1,,,,,,,,0.6463,1,,,,,,380,NW,"ID",16,cavory,CAVORY,z,0.6463,,,,,,-0.061583578,-0.068914956,0,0,0,,0,269,269,319,1,
,,,,,,,,,,,,,,,,,,5e149c03864020aa6e1cf04d,2020-11-27_10h05.48.928,lexical_decision_task_MP_exp2,2020.2.5,Win32,60,m,1,,,,,,,,1.36577,1,,,,,,166,WORD,"ID",16,starch,STARCH,m,1.36577,,,,,,-0.061583578,-0.068914956,0,0,0,,0,270,270,105,1,
,,,,,,,,,,,,,,,,,,5e149c03864020aa6e1cf04d,2020-11-27_10h05.48.928,lexical_decision_task_MP_exp2,2020.2.5,Win32,60,m,1,,,,,,,,0.581885,1,,,,,,207,WORD,UN,33,hockey,WREATH,m,0.581885,,,,,,-0.061583578,-0.068914956,0,0,0,,0,271,271,146,1,
,,,,,,,,,,,,,,,,,,5e149c03864020aa6e1cf04d,2020-11-27_10h05.48.928,lexical_decision_task_MP_exp2,2020.2.5,Win32,60,z,1,,,,,,,,0.50898,1,,,,,,409,NW,"ID",16,elopia,ELOPIA,z,0.50898,,,,,,-0.061583578,-0.068914956,0,0,0,,0,272,272,348,1,
,,,,,,,,,,,,,,,,,,5e149c03864020aa6e1cf04d,2020-11-27_10h05.48.928,lexical_decision_task_MP_exp2,2020.2.5,Win32,60,z,1,,,,,,,,0.90885,1,,,,,,418,NW,"ID",16,suidle,SUIDLE,z,0.90885,,,,,,-0.061583578,-0.068914956,0,0,0,,0,273,273,357,1,
,,,,,,,,,,,,,,,,,,5e149c03864020aa6e1cf04d,2020-11-27_10h05.48.928,lexical_decision_task_MP_exp2,2020.2.5,Win32,60,m,1,,,,,,,,1.02703,1,,,,,,4,WORD,UN,16,plunge,TRENCH,m,1.02703,,,,,,-0.061583578,-0.068914956,0,0,0,,0,274,274,183,1,
,,,,,,,,,,,,,,,,,,5e149c03864020aa6e1cf04d,2020-11-27_10h05.48.928,lexical_decision_task_MP_exp2,2020.2.5,Win32,60,m,1,,,,,,,,0.899215,1,,,,,,64,WORD,"ID",33,throne,THRONE,m,0.899215,,,,,,-0.061583578,-0.068914956,0,0,0,,0,275,275,3,1,
,,,,,,,,,,,,,,,,,,5e149c03864020aa6e1cf04d,2020-11-27_10h05.48.928,lexical_decision_task_MP_exp2,2020.2.5,Win32,60,m,1,,,,,,,,1.537445,1,,,,,,165,WORD,"ID",16,invest,INVEST,m,1.537445,,,,,,-0.061583578,-0.068914956,0,0,0,,0,276,276,104,1,
,,,,,,,,,,,,,,,,,,5e149c03864020aa6e1cf04d,2020-11-27_10h05.48.928,lexical_decision_task_MP_exp2,2020.2.5,Win32,60,z,1,,,,,,,,0.52412,1,,,,,,465,NW,UN,33,bafent,WHIVEX,z,0.52412,,,,,,-0.061583578,-0.068914956,0,0,0,,0,277,277,404,1,
,,,,,,,,,,,,,,,,,,5e149c03864020aa6e1cf04d,2020-11-27_10h05.48.928,lexical_decision_task_MP_exp2,2020.2.5,Win32,60,m,1,,,,,,,,0.617615,1,,,,,,65,WORD,"ID",33,symbol,SYMBOL,m,0.617615,,,,,,-0.061583578,-0.068914956,0,0,0,,0,278,278,4,1,
,,,,,,,,,,,,,,,,,,5e149c03864020aa6e1cf04d,2020-11-27_10h05.48.928,lexical_decision_task_MP_exp2,2020.2.5,Win32,60,z,1,,,,,,,,0.56637,1,,,,,,422,NW,UN,33,streld,ALCOUD,z,0.56637,,,,,,-0.061583578,-0.068914956,0,0,0,,0,279,279,361,1,
,,,,,,,,,,,,,,,,,,5e149c03864020aa6e1cf04d,2020-11-27_10h05.48.928,lexical_decision_task_MP_exp2,2020.2.5,Win32,60,m,1,,,,,,,,0.389425,1,,,,,,98,WORD,"ID",33,belong,BELONG,m,0.389425,,,,,,-0.061583578,-0.068914956,0,0,0,,0,280,280,37,1,
,,,,,,,,,,,,,,,,,,5e149c03864020aa6e1cf04d,2020-11-27_10h05.48.928,lexical_decision_task_MP_exp2,2020.2.5,Win32,60,z,1,,,,,,,,0.479055,1,,,,,,261,NW,UN,16,quilew,STUNCH,z,0.479055,,,,,,-0.061583578,-0.068914956,0,0,0,,0,281,281,440,1,
,,,,,,,,,,,,,,,,,,5e149c03864020aa6e1cf04d,2020-11-27_10h05.48.928,lexical_decision_task_MP_exp2,2020.2.5,Win32,60,m,1,,,,,,,,0.368725,1,,,,,,24,WORD,UN,16,domain,PRAISE,m,0.368725,,,,,,-0.061583578,-0.068914956,0,0,0,,0,282,282,203,1,
,,,,,,,,,,,,,,,,,,5e149c03864020aa6e1cf04d,2020-11-27_10h05.48.928,lexical_decision_task_MP_exp2,2020.2.5,Win32,60,z,1,,,,,,,,0.48806,1,,,,,,310,NW,"ID",33,daniet,DANIET,z,0.48806,,,,,,-0.061583578,-0.068914956,0,0,0,,0,283,283,249,1,
,,,,,,,,,,,,,,,,,,5e149c03864020aa6e1cf04d,2020-11-27_10h05.48.928,lexical_decision_task_MP_exp2,2020.2.5,Win32,60,m,1,,,,,,,,0.983615,1,,,,,,161,WORD,"ID",16,pastor,PASTOR,m,0.983615,,,,,,-0.061583578,-0.068914956,0,0,0,,0,284,284,100,1,
,,,,,,,,,,,,,,,,,,5e149c03864020aa6e1cf04d,2020-11-27_10h05.48.928,lexical_decision_task_MP_exp2,2020.2.5,Win32,60,z,1,,,,,,,,0.554165,1,,,,,,363,NW,"ID",16,breali,BREALI,z,0.554165,,,,,,-0.061583578,-0.068914956,0,0,0,,0,285,285,302,1,
,,,,,,,,,,,,,,,,,,5e149c03864020aa6e1cf04d,2020-11-27_10h05.48.928,lexical_decision_task_MP_exp2,2020.2.5,Win32,60,m,1,,,,,,,,0.513335,1,,,,,,185,WORD,UN,33,portal,BOTHER,m,0.513335,,,,,,-0.061583578,-0.068914956,0,0,0,,0,286,286,124,1,
,,,,,,,,,,,,,,,,,,5e149c03864020aa6e1cf04d,2020-11-27_10h05.48.928,lexical_decision_task_MP_exp2,2020.2.5,Win32,60,m,1,,,,,,,,0.58662,1,,,,,,192,WORD,UN,33,object,PLAGUE,m,0.58662,,,,,,-0.061583578,-0.068914956,0,0,0,,0,287,287,131,1,
,,,,,,,,,,,,,,,,,,5e149c03864020aa6e1cf04d,2020-11-27_10h05.48.928,lexical_decision_task_MP_exp2,2020.2.5,Win32,60,z,1,,,,,,,,0.605835,1,,,,,,305,NW,"ID",33,forgle,FORGLE,z,0.605835,,,,,,-0.061583578,-0.068914956,0,0,0,,0,288,288,244,1,
,,,,,,,,,,,,,,,,,,5e149c03864020aa6e1cf04d,2020-11-27_10h05.48.928,lexical_decision_task_MP_exp2,2020.2.5,Win32,60,m,1,,,,,,,,0.65347,1,,,,,,177,WORD,"ID",16,advent,ADVENT,m,0.65347,,,,,,-0.061583578,-0.068914956,0,0,0,,0,289,289,116,1,
,,,,,,,,,,,,,,,,,,5e149c03864020aa6e1cf04d,2020-11-27_10h05.48.928,lexical_decision_task_MP_exp2,2020.2.5,Win32,60,m,1,,,,,,,,0.59029,1,,,,,,75,WORD,"ID",33,trophy,TROPHY,m,0.59029,,,,,,-0.061583578,-0.068914956,0,0,0,,0,290,290,14,1,
,,,,,,,,,,,,,,,,,,5e149c03864020aa6e1cf04d,2020-11-27_10h05.48.928,lexical_decision_task_MP_exp2,2020.2.5,Win32,60,m,1,,,,,,,,0.53124,1,,,,,,105,WORD,"ID",33,number,NUMBER,m,0.53124,,,,,,-0.061583578,-0.068914956,0,0,0,,0,291,291,44,1,
,,,,,,,,,,,,,,,,,,5e149c03864020aa6e1cf04d,2020-11-27_10h05.48.928,lexical_decision_task_MP_exp2,2020.2.5,Win32,60,m,1,,,,,,,,0.50063,1,,,,,,217,WORD,UN,33,shrink,LIQUOR,m,0.50063,,,,,,-0.061583578,-0.068914956,0,0,0,,0,292,292,156,1,
,,,,,,,,,,,,,,,,,,5e149c03864020aa6e1cf04d,2020-11-27_10h05.48.928,lexical_decision_task_MP_exp2,2020.2.5,Win32,60,z,1,,,,,,,,0.481445,1,,,,,,259,NW,UN,16,unject,SOUDAL,z,0.481445,,,,,,-0.061583578,-0.068914956,0,0,0,,0,293,293,438,1,
,,,,,,,,,,,,,,,,,,5e149c03864020aa6e1cf04d,2020-11-27_10h05.48.928,lexical_decision_task_MP_exp2,2020.2.5,Win32,60,z,1,,,,,,,,0.516775,1,,,,,,447,NW,UN,33,sadent,GIRCUE,z,0.516775,,,,,,-0.061583578,-0.068914956,0,0,0,,0,294,294,386,1,
,,,,,,,,,,,,,,,,,,5e149c03864020aa6e1cf04d,2020-11-27_10h05.48.928,lexical_decision_task_MP_exp2,2020.2.5,Win32,60,m,1,,,,,,,,0.707785,1,,,,,,21,WORD,UN,16,jockey,SIMPLE,m,0.707785,,,,,,-0.061583578,-0.068914956,0,0,0,,0,295,295,200,1,
,,,,,,,,,,,,,,,,,,5e149c03864020aa6e1cf04d,2020-11-27_10h05.48.928,lexical_decision_task_MP_exp2,2020.2.5,Win32,60,m,1,,,,,,,,0.5305,1,,,,,,71,WORD,"ID",33,garden,GARDEN,m,0.5305,,,,,,-0.061583578,-0.068914956,0,0,0,,0,296,296,10,1,
,,,,,,,,,,,,,,,,,,5e149c03864020aa6e1cf04d,2020-11-27_10h05.48.928,lexical_decision_task_MP_exp2,2020.2.5,Win32,60,z,1,,,,,,,,0.469625,1,,,,,,328,NW,"ID",33,broake,BROAKE,z,0.469625,,,,,,-0.061583578,-0.068914956,0,0,0,,0,297,297,267,1,
,,,,,,,,,,,,,,,,,,5e149c03864020aa6e1cf04d,2020-11-27_10h05.48.928,lexical_decision_task_MP_exp2,2020.2.5,Win32,60,z,1,,,,,,,,0.75477,1,,,,,,454,NW,UN,33,tondle,SCOUGE,z,0.75477,,,,,,-0.061583578,-0.068914956,0,0,0,,0,298,298,393,1,
,,,,,,,,,,,,,,,,,,5e149c03864020aa6e1cf04d,2020-11-27_10h05.48.928,lexical_decision_task_MP_exp2,2020.2.5,Win32,60,z,1,,,,,,,,0.78645,1,,,,,,377,NW,"ID",16,injore,INJORE,z,0.78645,,,,,,-0.061583578,-0.068914956,0,0,0,,0,299,299,316,1,
,,,,,,,,,,,,,,,,,,5e149c03864020aa6e1cf04d,2020-11-27_10h05.48.928,lexical_decision_task_MP_exp2,2020.2.5,Win32,60,z,1,,,,,,,,0.565605,1,,,,,,427,NW,UN,33,tandly,SCHIND,z,0.565605,,,,,,-0.061583578,-0.068914956,0,0,0,,0,300,300,366,1,
,,,,,,,,,,,,,,,,,,5e149c03864020aa6e1cf04d,2020-11-27_10h05.48.928,lexical_decision_task_MP_exp2,2020.2.5,Win32,60,m,1,,,,,,,,0.83275,1,,,,,,195,WORD,UN,33,credit,RESIGN,m,0.83275,,,,,,-0.061583578,-0.068914956,0,0,0,,0,301,301,134,1,
,,,,,,,,,,,,,,,,,,5e149c03864020aa6e1cf04d,2020-11-27_10h05.48.928,lexical_decision_task_MP_exp2,2020.2.5,Win32,60,z,1,,,,,,,,1.14139,1,,,,,,469,NW,UN,33,crudio,PADIFS,z,1.14139,,,,,,-0.061583578,-0.068914956,0,0,0,,0,302,302,408,1,
,,,,,,,,,,,,,,,,,,5e149c03864020aa6e1cf04d,2020-11-27_10h05.48.928,lexical_decision_task_MP_exp2,2020.2.5,Win32,60,z,1,,,,,,,,0.682395,1,,,,,,334,NW,"ID",33,watmeg,WATMEG,z,0.682395,,,,,,-0.061583578,-0.068914956,0,0,0,,0,303,303,273,1,
,,,,,,,,,,,,,,,,,,5e149c03864020aa6e1cf04d,2020-11-27_10h05.48.928,lexical_decision_task_MP_exp2,2020.2.5,Win32,60,m,1,,,,,,,,0.53134,1,,,,,,125,WORD,"ID",16,nickel,NICKEL,m,0.53134,,,,,,-0.061583578,-0.068914956,0,0,0,,0,304,304,64,1,
,,,,,,,,,,,,,,,,,,5e149c03864020aa6e1cf04d,2020-11-27_10h05.48.928,lexical_decision_task_MP_exp2,2020.2.5,Win32,60,z,1,,,,,,,,0.65747,1,,,,,,293,NW,UN,16,inhort,SWANCE,z,0.65747,,,,,,-0.061583578,-0.068914956,0,0,0,,0,305,305,472,1,
,,,,,,,,,,,,,,,,,,5e149c03864020aa6e1cf04d,2020-11-27_10h05.48.928,lexical_decision_task_MP_exp2,2020.2.5,Win32,60,z,1,,,,,,,,0.590445,1,,,,,,289,NW,UN,16,splino,STARBY,z,0.590445,,,,,,-0.061583578,-0.068914956,0,0,0,,0,306,306,468,1,
,,,,,,,,,,,,,,,,,,5e149c03864020aa6e1cf04d,2020-11-27_10h05.48.928,lexical_decision_task_MP_exp2,2020.2.5,Win32,60,z,1,,,,,,,,0.55131,1,,,,,,405,NW,"ID",16,flumni,FLUMNI,z,0.55131,,,,,,-0.061583578,-0.068914956,0,0,0,,0,307,307,344,1,
,,,,,,,,,,,,,,,,,,5e149c03864020aa6e1cf04d,2020-11-27_10h05.48.928,lexical_decision_task_MP_exp2,2020.2.5,Win32,60,m,1,,,,,,,,0.52353,1,,,,,,158,WORD,"ID",16,island,ISLAND,m,0.52353,,,,,,-0.061583578,-0.068914956,0,0,0,,0,308,308,97,1,
,,,,,,,,,,,,,,,,,,5e149c03864020aa6e1cf04d,2020-11-27_10h05.48.928,lexical_decision_task_MP_exp2,2020.2.5,Win32,60,m,1,,,,,,,,0.63914,1,,,,,,59,WORD,UN,16,pencil,SPLINT,m,0.63914,,,,,,-0.061583578,-0.068914956,0,0,0,,0,309,309,238,1,
,,,,,,,,,,,,,,,,,,5e149c03864020aa6e1cf04d,2020-11-27_10h05.48.928,lexical_decision_task_MP_exp2,2020.2.5,Win32,60,z,1,,,,,,,,0.66959,1,,,,,,290,NW,UN,16,pretch,SPLINO,z,0.66959,,,,,,-0.061583578,-0.068914956,0,0,0,,0,310,310,469,1,
,,,,,,,,,,,,,,,,,,5e149c03864020aa6e1cf04d,2020-11-27_10h05.48.928,lexical_decision_task_MP_exp2,2020.2.5,Win32,60,z,1,,,,,,,,0.7605,1,,,,,,441,NW,UN,33,aboune,RASTOE,z,0.7605,,,,,,-0.061583578,-0.068914956,0,0,0,,0,311,311,380,1,
,,,,,,,,,,,,,,,,,,5e149c03864020aa6e1cf04d,2020-11-27_10h05.48.928,lexical_decision_task_MP_exp2,2020.2.5,Win32,60,m,1,,,,,,,,0.65972,1,,,,,,181,WORD,UN,33,winter,GLANCE,m,0.65972,,,,,,-0.061583578,-0.068914956,0,0,0,,0,312,312,120,1,
,,,,,,,,,,,,,,,,,,5e149c03864020aa6e1cf04d,2020-11-27_10h05.48.928,lexical_decision_task_MP_exp2,2020.2.5,Win32,60,m,1,,,,,,,,0.80399,1,,,,,,69,WORD,"ID",33,plenty,PLENTY,m,0.80399,,,,,,-0.061583578,-0.068914956,0,0,0,,0,313,313,8,1,
,,,,,,,,,,,,,,,,,,5e149c03864020aa6e1cf04d,2020-11-27_10h05.48.928,lexical_decision_task_MP_exp2,2020.2.5,Win32,60,m,1,,,,,,,,0.581475,1,,,,,,77,WORD,"ID",33,racket,RACKET,m,0.581475,,,,,,-0.061583578,-0.068914956,0,0,0,,0,314,314,16,1,
,,,,,,,,,,,,,,,,,,5e149c03864020aa6e1cf04d,2020-11-27_10h05.48.928,lexical_decision_task_MP_exp2,2020.2.5,Win32,60,z,1,,,,,,,,0.560085,1,,,,,,434,NW,UN,33,impurb,PITROM,z,0.560085,,,,,,-0.061583578,-0.068914956,0,0,0,,0,315,315,373,1,
,,,,,,,,,,,,,,,,,,5e149c03864020aa6e1cf04d,2020-11-27_10h05.48.928,lexical_decision_task_MP_exp2,2020.2.5,Win32,60,m,1,,,,,,,,0.48955,1,,,,,,80,WORD,"ID",33,family,FAMILY,m,0.48955,,,,,,-0.061583578,-0.068914956,0,0,0,,0,316,316,19,1,
,,,,,,,,,,,,,,,,,,5e149c03864020aa6e1cf04d,2020-11-27_10h05.48.928,lexical_decision_task_MP_exp2,2020.2.5,Win32,60,z,1,,,,,,,,0.504555,1,,,,,,383,NW,"ID",16,aungre,AUNGRE,z,0.504555,,,,,,-0.061583578,-0.068914956,0,0,0,,0,317,317,322,1,
,,,,,,,,,,,,,,,,,,5e149c03864020aa6e1cf04d,2020-11-27_10h05.48.928,lexical_decision_task_MP_exp2,2020.2.5,Win32,60,m,1,,,,,,,,0.494295,1,,,,,,7,WORD,UN,16,abrupt,ANCHOR,m,0.494295,,,,,,-0.061583578,-0.068914956,0,0,0,,0,318,318,186,1,
,,,,,,,,,,,,,,,,,,5e149c03864020aa6e1cf04d,2020-11-27_10h05.48.928,lexical_decision_task_MP_exp2,2020.2.5,Win32,60,z,1,,,,,,,,0.54914,1,,,,,,403,NW,"ID",16,bruats,BRUATS,z,0.54914,,,,,,-0.061583578,-0.068914956,0,0,0,,0,319,319,342,1,
,,,,,,,,,,,,,,,,,,5e149c03864020aa6e1cf04d,2020-11-27_10h05.48.928,lexical_decision_task_MP_exp2,2020.2.5,Win32,60,m,1,,,,,,,,0.45353,1,,,,,,47,WORD,UN,16,walnut,INCOME,m,0.45353,,,,,,-0.061583578,-0.068914956,0,0,0,,0,320,320,226,1,
,,,,,,,,,,,,,,,,,,5e149c03864020aa6e1cf04d,2020-11-27_10h05.48.928,lexical_decision_task_MP_exp2,2020.2.5,Win32,60,z,1,,,,,,,,0.38326,1,,,,,,339,NW,"ID",33,fachow,FACHOW,z,0.38326,,,,,,-0.061583578,-0.068914956,0,0,0,,0,321,321,278,1,
,,,,,,,,,,,,,,,,,,5e149c03864020aa6e1cf04d,2020-11-27_10h05.48.928,lexical_decision_task_MP_exp2,2020.2.5,Win32,60,z,1,,,,,,,,0.45876,1,,,,,,350,NW,"ID",33,nagurs,NAGURS,z,0.45876,,,,,,-0.061583578,-0.068914956,0,0,0,,0,322,322,289,1,
,,,,,,,,,,,,,,,,,,5e149c03864020aa6e1cf04d,2020-11-27_10h05.48.928,lexical_decision_task_MP_exp2,2020.2.5,Win32,60,m,1,,,,,,,,0.59433,1,,,,,,117,WORD,"ID",33,branch,BRANCH,m,0.59433,,,,,,-0.061583578,-0.068914956,0,0,0,,0,323,323,56,1,
,,,,,,,,,,,,,,,,,,5e149c03864020aa6e1cf04d,2020-11-27_10h05.48.928,lexical_decision_task_MP_exp2,2020.2.5,Win32,60,z,0,,,,,,,,0.474885,0,,,,,,33,WORD,UN,16,jungle,BUTLER,m,0.474885,,,,,,-0.061583578,-0.068914956,0,0,0,,0,324,324,212,1,
,,,,,,,,,,,,,,,,,,5e149c03864020aa6e1cf04d,2020-11-27_10h05.48.928,lexical_decision_task_MP_exp2,2020.2.5,Win32,60,z,1,,,,,,,,0.5094,1,,,,,,375,NW,"ID",16,yorque,YORQUE,z,0.5094,,,,,,-0.061583578,-0.068914956,0,0,0,,0,325,325,314,1,
,,,,,,,,,,,,,,,,,,5e149c03864020aa6e1cf04d,2020-11-27_10h05.48.928,lexical_decision_task_MP_exp2,2020.2.5,Win32,60,m,1,,,,,,,,0.457825,1,,,,,,150,WORD,"ID",16,random,RANDOM,m,0.457825,,,,,,-0.061583578,-0.068914956,0,0,0,,0,326,326,89,1,
,,,,,,,,,,,,,,,,,,5e149c03864020aa6e1cf04d,2020-11-27_10h05.48.928,lexical_decision_task_MP_exp2,2020.2.5,Win32,60,m,1,,,,,,,,0.51596,1,,,,,,143,WORD,"ID",16,reason,REASON,m,0.51596,,,,,,-0.061583578,-0.068914956,0,0,0,,0,327,327,82,1,
,,,,,,,,,,,,,,,,,,5e149c03864020aa6e1cf04d,2020-11-27_10h05.48.928,lexical_decision_task_MP_exp2,2020.2.5,Win32,60,m,1,,,,,,,,0.524775,1,,,,,,20,WORD,UN,16,simple,BREAST,m,0.524775,,,,,,-0.061583578,-0.068914956,0,0,0,,0,328,328,199,1,
,,,,,,,,,,,,,,,,,,5e149c03864020aa6e1cf04d,2020-11-27_10h05.48.928,lexical_decision_task_MP_exp2,2020.2.5,Win32,60,z,1,,,,,,,,0.59353,1,,,,,,298,NW,UN,16,sturch,PIERGY,z,0.59353,,,,,,-0.061583578,-0.068914956,0,0,0,,0,329,329,477,1,
,,,,,,,,,,,,,,,,,,5e149c03864020aa6e1cf04d,2020-11-27_10h05.48.928,lexical_decision_task_MP_exp2,2020.2.5,Win32,60,z,0,,,,,,,,0.532395,0,,,,,,91,WORD,"ID",33,expand,EXPAND,m,0.532395,,,,,,-0.061583578,-0.068914956,0,0,0,,0,330,330,30,1,
,,,,,,,,,,,,,,,,,,5e149c03864020aa6e1cf04d,2020-11-27_10h05.48.928,lexical_decision_task_MP_exp2,2020.2.5,Win32,60,m,1,,,,,,,,0.721345,1,,,,,,211,WORD,UN,33,verify,INFECT,m,0.721345,,,,,,-0.061583578,-0.068914956,0,0,0,,0,331,331,150,1,
,,,,,,,,,,,,,,,,,,5e149c03864020aa6e1cf04d,2020-11-27_10h05.48.928,lexical_decision_task_MP_exp2,2020.2.5,Win32,60,z,1,,,,,,,,0.78299,1,,,,,,391,NW,"ID",16,theldy,THELDY,z,0.78299,,,,,,-0.061583578,-0.068914956,0,0,0,,0,332,332,330,1,
,,,,,,,,,,,,,,,,,,5e149c03864020aa6e1cf04d,2020-11-27_10h05.48.928,lexical_decision_task_MP_exp2,2020.2.5,Win32,60,z,1,,,,,,,,0.70472,1,,,,,,475,NW,UN,33,josted,PEBRIC,z,0.70472,,,,,,-0.061583578,-0.068914956,0,0,0,,0,333,333,414,1,
,,,,,,,,,,,,,,,,,,5e149c03864020aa6e1cf04d,2020-11-27_10h05.48.928,lexical_decision_task_MP_exp2,2020.2.5,Win32,60,z,1,,,,,,,,0.497925,1,,,,,,337,NW,"ID",33,rejols,REJOLS,z,0.497925,,,,,,-0.061583578,-0.068914956,0,0,0,,0,334,334,276,1,
,,,,,,,,,,,,,,,,,,5e149c03864020aa6e1cf04d,2020-11-27_10h05.48.928,lexical_decision_task_MP_exp2,2020.2.5,Win32,60,z,1,,,,,,,,0.490585,1,,,,,,446,NW,UN,33,gircue,RUNAMO,z,0.490585,,,,,,-0.061583578,-0.068914956,0,0,0,,0,335,335,385,1,
,,,,,,,,,,,,,,,,,,5e149c03864020aa6e1cf04d,2020-11-27_10h05.48.928,lexical_decision_task_MP_exp2,2020.2.5,Win32,60,m,1,,,,,,,,0.473515,1,,,,,,74,WORD,"ID",33,plaque,PLAQUE,m,0.473515,,,,,,-0.061583578,-0.068914956,0,0,0,,0,336,336,13,1,
,,,,,,,,,,,,,,,,,,5e149c03864020aa6e1cf04d,2020-11-27_10h05.48.928,lexical_decision_task_MP_exp2,2020.2.5,Win32,60,m,1,,,,,,,,0.471815,1,,,,,,130,WORD,"ID",16,stupid,STUPID,m,0.471815,,,,,,-0.061583578,-0.068914956,0,0,0,,0,337,337,69,1,
,,,,,,,,,,,,,,,,,,5e149c03864020aa6e1cf04d,2020-11-27_10h05.48.928,lexical_decision_task_MP_exp2,2020.2.5,Win32,60,z,1,,,,,,,,0.471085,1,,,,,,301,NW,"ID",33,fainch,FAINCH,z,0.471085,,,,,,-0.061583578,-0.068914956,0,0,0,,0,338,338,240,1,
,,,,,,,,,,,,,,,,,,5e149c03864020aa6e1cf04d,2020-11-27_10h05.48.928,lexical_decision_task_MP_exp2,2020.2.5,Win32,60,m,1,,,,,,,,0.5157,1,,,,,,151,WORD,"ID",16,mystic,MYSTIC,m,0.5157,,,,,,-0.061583578,-0.068914956,0,0,0,,0,339,339,90,1,
,,,,,,,,,,,,,,,,,,5e149c03864020aa6e1cf04d,2020-11-27_10h05.48.928,lexical_decision_task_MP_exp2,2020.2.5,Win32,60,z,1,,,,,,,,0.58428,1,,,,,,474,NW,UN,33,acrise,HABLIN,z,0.58428,,,,,,-0.061583578,-0.068914956,0,0,0,,0,340,340,413,1,
,,,,,,,,,,,,,,,,,,5e149c03864020aa6e1cf04d,2020-11-27_10h05.48.928,lexical_decision_task_MP_exp2,2020.2.5,Win32,60,m,1,,,,,,,,0.50935,1,,,,,,115,WORD,"ID",33,guitar,GUITAR,m,0.50935,,,,,,-0.061583578,-0.068914956,0,0,0,,0,341,341,54,1,
,,,,,,,,,,,,,,,,,,5e149c03864020aa6e1cf04d,2020-11-27_10h05.48.928,lexical_decision_task_MP_exp2,2020.2.5,Win32,60,m,0,,,,,,,,0.490205,0,,,,,,449,NW,UN,33,phrect,BRUNGE,z,0.490205,,,,,,-0.061583578,-0.068914956,0,0,0,,0,342,342,388,1,
,,,,,,,,,,,,,,,,,,5e149c03864020aa6e1cf04d,2020-11-27_10h05.48.928,lexical_decision_task_MP_exp2,2020.2.5,Win32,60,z,1,,,,,,,,0.71694,1,,,,,,271,NW,UN,16,damilt,AUBRID,z,0.71694,,,,,,-0.061583578,-0.068914956,0,0,0,,0,343,343,450,1,
,,,,,,,,,,,,,,,,,,5e149c03864020aa6e1cf04d,2020-11-27_10h05.48.928,lexical_decision_task_MP_exp2,2020.2.5,Win32,60,z,1,,,,,,,,0.55696,1,,,,,,436,NW,UN,33,snapel,FRUTAN,z,0.55696,,,,,,-0.061583578,-0.068914956,0,0,0,,0,344,344,375,1,
,,,,,,,,,,,,,,,,,,5e149c03864020aa6e1cf04d,2020-11-27_10h05.48.928,lexical_decision_task_MP_exp2,2020.2.5,Win32,60,z,0,,,,,,,,0.439875,0,,,,,,225,WORD,UN,33,casino,VULGAR,m,0.439875,,,,,,-0.061583578,-0.068914956,0,0,0,,0,345,345,164,1,
,,,,,,,,,,,,,,,,,,5e149c03864020aa6e1cf04d,2020-11-27_10h05.48.928,lexical_decision_task_MP_exp2,2020.2.5,Win32,60,z,1,,,,,,,,0.64122,1,,,,,,448,NW,UN,33,brunge,SADENT,z,0.64122,,,,,,-0.061583578,-0.068914956,0,0,0,,0,346,346,387,1,
,,,,,,,,,,,,,,,,,,5e149c03864020aa6e1cf04d,2020-11-27_10h05.48.928,lexical_decision_task_MP_exp2,2020.2.5,Win32,60,m,1,,,,,,,,0.466135,1,,,,,,235,WORD,UN,33,pirate,GRUMPY,m,0.466135,,,,,,-0.061583578,-0.068914956,0,0,0,,0,347,347,174,1,
,,,,,,,,,,,,,,,,,,5e149c03864020aa6e1cf04d,2020-11-27_10h05.48.928,lexical_decision_task_MP_exp2,2020.2.5,Win32,60,z,1,,,,,,,,0.52794,1,,,,,,456,NW,UN,33,wanigh,BROGET,z,0.52794,,,,,,-0.061583578,-0.068914956,0,0,0,,0,348,348,395,1,
,,,,,,,,,,,,,,,,,,5e149c03864020aa6e1cf04d,2020-11-27_10h05.48.928,lexical_decision_task_MP_exp2,2020.2.5,Win32,60,z,1,,,,,,,,0.540265,1,,,,,,480,NW,UN,33,knisma,ROBULY,z,0.540265,,,,,,-0.061583578,-0.068914956,0,0,0,,0,349,349,419,1,
,,,,,,,,,,,,,,,,,,5e149c03864020aa6e1cf04d,2020-11-27_10h05.48.928,lexical_decision_task_MP_exp2,2020.2.5,Win32,60,z,1,,,,,,,,0.48407,1,,,,,,479,NW,UN,33,crible,LOBUSH,z,0.48407,,,,,,-0.061583578,-0.068914956,0,0,0,,0,350,350,418,1,
,,,,,,,,,,,,,,,,,,5e149c03864020aa6e1cf04d,2020-11-27_10h05.48.928,lexical_decision_task_MP_exp2,2020.2.5,Win32,60,m,1,,,,,,,,0.554275,1,,,,,,174,WORD,"ID",16,turkey,TURKEY,m,0.554275,,,,,,-0.061583578,-0.068914956,0,0,0,,0,351,351,113,1,
,,,,,,,,,,,,,,,,,,5e149c03864020aa6e1cf04d,2020-11-27_10h05.48.928,lexical_decision_task_MP_exp2,2020.2.5,Win32,60,z,1,,,,,,,,0.538375,1,,,,,,316,NW,"ID",33,scregm,SCREGM,z,0.538375,,,,,,-0.061583578,-0.068914956,0,0,0,,0,352,352,255,1,
,,,,,,,,,,,,,,,,,,5e149c03864020aa6e1cf04d,2020-11-27_10h05.48.928,lexical_decision_task_MP_exp2,2020.2.5,Win32,60,m,1,,,,,,,,0.549325,1,,,,,,229,WORD,UN,33,fringe,MOTHER,m,0.549325,,,,,,-0.061583578,-0.068914956,0,0,0,,0,353,353,168,1,
,,,,,,,,,,,,,,,,,,5e149c03864020aa6e1cf04d,2020-11-27_10h05.48.928,lexical_decision_task_MP_exp2,2020.2.5,Win32,60,z,1,,,,,,,,1.764825,1,,,,,,437,NW,UN,33,baitch,SNAPEL,z,1.764825,,,,,,-0.061583578,-0.068914956,0,0,0,,0,354,354,376,1,
,,,,,,,,,,,,,,,,,,5e149c03864020aa6e1cf04d,2020-11-27_10h05.48.928,lexical_decision_task_MP_exp2,2020.2.5,Win32,60,z,1,,,,,,,,0.532515,1,,,,,,349,NW,"ID",33,asylen,ASYLEN,z,0.532515,,,,,,-0.061583578,-0.068914956,0,0,0,,0,355,355,288,1,
,,,,,,,,,,,,,,,,,,5e149c03864020aa6e1cf04d,2020-11-27_10h05.48.928,lexical_decision_task_MP_exp2,2020.2.5,Win32,60,z,1,,,,,,,,0.46441,1,,,,,,478,NW,UN,33,pebric,ACRISE,z,0.46441,,,,,,-0.061583578,-0.068914956,0,0,0,,0,356,356,417,1,
,,,,,,,,,,,,,,,,,,5e149c03864020aa6e1cf04d,2020-11-27_10h05.48.928,lexical_decision_task_MP_exp2,2020.2.5,Win32,60,m,1,,,,,,,,0.55931,1,,,,,,32,WORD,UN,16,scream,BUCKLE,m,0.55931,,,,,,-0.061583578,-0.068914956,0,0,0,,0,357,357,211,1,
,,,,,,,,,,,,,,,,,,5e149c03864020aa6e1cf04d,2020-11-27_10h05.48.928,lexical_decision_task_MP_exp2,2020.2.5,Win32,60,z,1,,,,,,,,0.833405,1,,,,,,420,NW,"ID",16,gushop,GUSHOP,z,0.833405,,,,,,-0.061583578,-0.068914956,0,0,0,,0,358,358,359,1,
,,,,,,,,,,,,,,,,,,5e149c03864020aa6e1cf04d,2020-11-27_10h05.48.928,lexical_decision_task_MP_exp2,2020.2.5,Win32,60,m,1,,,,,,,,0.68203,1,,,,,,107,WORD,"ID",33,slogan,SLOGAN,m,0.68203,,,,,,-0.061583578,-0.068914956,0,0,0,,0,359,359,46,1,
,,,,,,,,,,,,,,,,,,5e149c03864020aa6e1cf04d,2020-11-27_10h05.48.928,lexical_decision_task_MP_exp2,2020.2.5,Win32,60,m,1,,,,,,,,0.537455,1,,,,,,202,WORD,UN,33,phrase,FACTOR,m,0.537455,,,,,,-0.061583578,-0.068914956,0,0,0,,0,360,360,141,1,
,,,,,,,,,,,,,,,,,,5e149c03864020aa6e1cf04d,2020-11-27_10h05.48.928,lexical_decision_task_MP_exp2,2020.2.5,Win32,60,m,1,,,,,,,,0.48062,1,,,,,,55,WORD,UN,16,ambush,STROKE,m,0.48062,,,,,,-0.061583578,-0.068914956,0,0,0,,0,361,361,234,1,
,,,,,,,,,,,,,,,,,,5e149c03864020aa6e1cf04d,2020-11-27_10h05.48.928,lexical_decision_task_MP_exp2,2020.2.5,Win32,60,z,1,,,,,,,,0.484405,1,,,,,,323,NW,"ID",33,rosail,ROSAIL,z,0.484405,,,,,,-0.061583578,-0.068914956,0,0,0,space,0,362,362,262,1,54.694765
,,,,,,,,,,,,,,,,,,5e149c03864020aa6e1cf04d,2020-11-27_10h05.48.928,lexical_decision_task_MP_exp2,2020.2.5,Win32,60,z,1,,,,,,,,0.779505,1,,,,,,417,NW,"ID",16,earoud,EAROUD,z,0.779505,,,,,,-0.061583578,-0.068914956,0,0,0,,0,363,363,356,1,
,,,,,,,,,,,,,,,,,,5e149c03864020aa6e1cf04d,2020-11-27_10h05.48.928,lexical_decision_task_MP_exp2,2020.2.5,Win32,60,m,1,,,,,,,,0.5821,1,,,,,,67,WORD,"ID",33,policy,POLICY,m,0.5821,,,,,,-0.061583578,-0.068914956,0,0,0,,0,364,364,6,1,
,,,,,,,,,,,,,,,,,,5e149c03864020aa6e1cf04d,2020-11-27_10h05.48.928,lexical_decision_task_MP_exp2,2020.2.5,Win32,60,m,1,,,,,,,,0.481955,1,,,,,,112,WORD,"ID",33,breath,BREATH,m,0.481955,,,,,,-0.061583578,-0.068914956,0,0,0,,0,365,365,51,1,
,,,,,,,,,,,,,,,,,,5e149c03864020aa6e1cf04d,2020-11-27_10h05.48.928,lexical_decision_task_MP_exp2,2020.2.5,Win32,60,z,1,,,,,,,,0.598955,1,,,,,,468,NW,UN,33,padifs,WICTOR,z,0.598955,,,,,,-0.061583578,-0.068914956,0,0,0,,0,366,366,407,1,
,,,,,,,,,,,,,,,,,,5e149c03864020aa6e1cf04d,2020-11-27_10h05.48.928,lexical_decision_task_MP_exp2,2020.2.5,Win32,60,m,1,,,,,,,,0.532505,1,,,,,,44,WORD,UN,16,clergy,DANGER,m,0.532505,,,,,,-0.061583578,-0.068914956,0,0,0,,0,367,367,223,1,
,,,,,,,,,,,,,,,,,,5e149c03864020aa6e1cf04d,2020-11-27_10h05.48.928,lexical_decision_task_MP_exp2,2020.2.5,Win32,60,z,1,,,,,,,,0.58902,1,,,,,,442,NW,UN,33,dorsex,ABOUNE,z,0.58902,,,,,,-0.061583578,-0.068914956,0,0,0,,0,368,368,381,1,
,,,,,,,,,,,,,,,,,,5e149c03864020aa6e1cf04d,2020-11-27_10h05.48.928,lexical_decision_task_MP_exp2,2020.2.5,Win32,60,z,0,,,,,,,,0.38301,0,,,,,,199,WORD,UN,33,plague,INVOKE,m,0.38301,,,,,,-0.061583578,-0.068914956,0,0,0,,0,369,369,138,1,
,,,,,,,,,,,,,,,,,,5e149c03864020aa6e1cf04d,2020-11-27_10h05.48.928,lexical_decision_task_MP_exp2,2020.2.5,Win32,60,z,1,,,,,,,,0.532405,1,,,,,,274,NW,UN,16,sleirt,FUMBLO,z,0.532405,,,,,,-0.061583578,-0.068914956,0,0,0,,0,370,370,453,1,
,,,,,,,,,,,,,,,,,,5e149c03864020aa6e1cf04d,2020-11-27_10h05.48.928,lexical_decision_task_MP_exp2,2020.2.5,Win32,60,z,1,,,,,,,,0.59752,1,,,,,,396,NW,"ID",16,flengy,FLENGY,z,0.59752,,,,,,-0.061583578,-0.068914956,0,0,0,,0,371,371,335,1,
,,,,,,,,,,,,,,,,,,5e149c03864020aa6e1cf04d,2020-11-27_10h05.48.928,lexical_decision_task_MP_exp2,2020.2.5,Win32,60,z,1,,,,,,,,0.587585,1,,,,,,299,NW,UN,16,yarion,STURCH,z,0.587585,,,,,,-0.061583578,-0.068914956,0,0,0,,0,372,372,478,1,
,,,,,,,,,,,,,,,,,,5e149c03864020aa6e1cf04d,2020-11-27_10h05.48.928,lexical_decision_task_MP_exp2,2020.2.5,Win32,60,z,1,,,,,,,,0.624835,1,,,,,,319,NW,"ID",33,zomber,ZOMBER,z,0.624835,,,,,,-0.061583578,-0.068914956,0,0,0,,0,373,373,258,1,
,,,,,,,,,,,,,,,,,,5e149c03864020aa6e1cf04d,2020-11-27_10h05.48.928,lexical_decision_task_MP_exp2,2020.2.5,Win32,60,z,1,,,,,,,,0.491175,1,,,,,,400,NW,"ID",16,wearox,WEAROX,z,0.491175,,,,,,-0.061583578,-0.068914956,0,0,0,,0,374,374,339,1,
,,,,,,,,,,,,,,,,,,5e149c03864020aa6e1cf04d,2020-11-27_10h05.48.928,lexical_decision_task_MP_exp2,2020.2.5,Win32,60,z,1,,,,,,,,0.471855,1,,,,,,296,NW,UN,16,fertic,BEINCH,z,0.471855,,,,,,-0.061583578,-0.068914956,0,0,0,,0,375,375,475,1,
,,,,,,,,,,,,,,,,,,5e149c03864020aa6e1cf04d,2020-11-27_10h05.48.928,lexical_decision_task_MP_exp2,2020.2.5,Win32,60,z,1,,,,,,,,0.473265,1,,,,,,288,NW,UN,16,starby,YACEUP,z,0.473265,,,,,,-0.061583578,-0.068914956,0,0,0,,0,376,376,467,1,
,,,,,,,,,,,,,,,,,,5e149c03864020aa6e1cf04d,2020-11-27_10h05.48.928,lexical_decision_task_MP_exp2,2020.2.5,Win32,60,z,1,,,,,,,,0.43613,1,,,,,,367,NW,"ID",16,slique,SLIQUE,z,0.43613,,,,,,-0.061583578,-0.068914956,0,0,0,,0,377,377,306,1,
,,,,,,,,,,,,,,,,,,5e149c03864020aa6e1cf04d,2020-11-27_10h05.48.928,lexical_decision_task_MP_exp2,2020.2.5,Win32,60,z,0,,,,,,,,0.47295,0,,,,,,142,WORD,"ID",16,spruce,SPRUCE,m,0.47295,,,,,,-0.061583578,-0.068914956,0,0,0,,0,378,378,81,1,
,,,,,,,,,,,,,,,,,,5e149c03864020aa6e1cf04d,2020-11-27_10h05.48.928,lexical_decision_task_MP_exp2,2020.2.5,Win32,60,m,1,,,,,,,,0.57709,1,,,,,,141,WORD,"ID",16,orphan,ORPHAN,m,0.57709,,,,,,-0.061583578,-0.068914956,0,0,0,,0,379,379,80,1,
,,,,,,,,,,,,,,,,,,5e149c03864020aa6e1cf04d,2020-11-27_10h05.48.928,lexical_decision_task_MP_exp2,2020.2.5,Win32,60,m,1,,,,,,,,0.48292,1,,,,,,210,WORD,UN,33,infect,MONKEY,m,0.48292,,,,,,-0.061583578,-0.068914956,0,0,0,,0,380,380,149,1,
,,,,,,,,,,,,,,,,,,5e149c03864020aa6e1cf04d,2020-11-27_10h05.48.928,lexical_decision_task_MP_exp2,2020.2.5,Win32,60,z,1,,,,,,,,0.45041,1,,,,,,317,NW,"ID",33,worbal,WORBAL,z,0.45041,,,,,,-0.061583578,-0.068914956,0,0,0,,0,381,381,256,1,
,,,,,,,,,,,,,,,,,,5e149c03864020aa6e1cf04d,2020-11-27_10h05.48.928,lexical_decision_task_MP_exp2,2020.2.5,Win32,60,m,1,,,,,,,,0.48829,1,,,,,,86,WORD,"ID",33,rodent,RODENT,m,0.48829,,,,,,-0.061583578,-0.068914956,0,0,0,,0,382,382,25,1,
,,,,,,,,,,,,,,,,,,5e149c03864020aa6e1cf04d,2020-11-27_10h05.48.928,lexical_decision_task_MP_exp2,2020.2.5,Win32,60,z,1,,,,,,,,0.448235,1,,,,,,282,NW,UN,16,veralf,PORLEX,z,0.448235,,,,,,-0.061583578,-0.068914956,0,0,0,,0,383,383,461,1,
,,,,,,,,,,,,,,,,,,5e149c03864020aa6e1cf04d,2020-11-27_10h05.48.928,lexical_decision_task_MP_exp2,2020.2.5,Win32,60,z,1,,,,,,,,0.582965,1,,,,,,462,NW,UN,33,kispel,ABSULT,z,0.582965,,,,,,-0.061583578,-0.068914956,0,0,0,,0,384,384,401,1,
,,,,,,,,,,,,,,,,,,5e149c03864020aa6e1cf04d,2020-11-27_10h05.48.928,lexical_decision_task_MP_exp2,2020.2.5,Win32,60,m,1,,,,,,,,0.80904,1,,,,,,60,WORD,UN,16,fright,PENCIL,m,0.80904,,,,,,-0.061583578,-0.068914956,0,0,0,,0,385,385,239,1,
,,,,,,,,,,,,,,,,,,5e149c03864020aa6e1cf04d,2020-11-27_10h05.48.928,lexical_decision_task_MP_exp2,2020.2.5,Win32,60,m,1,,,,,,,,0.60232,1,,,,,,194,WORD,UN,33,resign,ABSENT,m,0.60232,,,,,,-0.061583578,-0.068914956,0,0,0,,0,386,386,133,1,
,,,,,,,,,,,,,,,,,,5e149c03864020aa6e1cf04d,2020-11-27_10h05.48.928,lexical_decision_task_MP_exp2,2020.2.5,Win32,60,m,1,,,,,,,,0.6038,1,,,,,,219,WORD,UN,33,voyage,BUCKET,m,0.6038,,,,,,-0.061583578,-0.068914956,0,0,0,,0,387,387,158,1,
,,,,,,,,,,,,,,,,,,5e149c03864020aa6e1cf04d,2020-11-27_10h05.48.928,lexical_decision_task_MP_exp2,2020.2.5,Win32,60,z,0,,,,,,,,0.47689,0,,,,,,196,WORD,UN,33,stream,CREDIT,m,0.47689,,,,,,-0.061583578,-0.068914956,0,0,0,,0,388,388,135,1,
,,,,,,,,,,,,,,,,,,5e149c03864020aa6e1cf04d,2020-11-27_10h05.48.928,lexical_decision_task_MP_exp2,2020.2.5,Win32,60,z,1,,,,,,,,0.58498,1,,,,,,245,NW,UN,16,piaton,ANOUGS,z,0.58498,,,,,,-0.061583578,-0.068914956,0,0,0,,0,389,389,424,1,
,,,,,,,,,,,,,,,,,,5e149c03864020aa6e1cf04d,2020-11-27_10h05.48.928,lexical_decision_task_MP_exp2,2020.2.5,Win32,60,z,1,,,,,,,,0.63955,1,,,,,,429,NW,UN,33,caroey,FUNTLE,z,0.63955,,,,,,-0.061583578,-0.068914956,0,0,0,,0,390,390,368,1,
,,,,,,,,,,,,,,,,,,5e149c03864020aa6e1cf04d,2020-11-27_10h05.48.928,lexical_decision_task_MP_exp2,2020.2.5,Win32,60,m,1,,,,,,,,0.53418,1,,,,,,93,WORD,"ID",33,public,PUBLIC,m,0.53418,,,,,,-0.061583578,-0.068914956,0,0,0,,0,391,391,32,1,
,,,,,,,,,,,,,,,,,,5e149c03864020aa6e1cf04d,2020-11-27_10h05.48.928,lexical_decision_task_MP_exp2,2020.2.5,Win32,60,m,1,,,,,,,,0.48216,1,,,,,,188,WORD,UN,33,censor,SOCIAL,m,0.48216,,,,,,-0.061583578,-0.068914956,0,0,0,,0,392,392,127,1,
,,,,,,,,,,,,,,,,,,5e149c03864020aa6e1cf04d,2020-11-27_10h05.48.928,lexical_decision_task_MP_exp2,2020.2.5,Win32,60,z,1,,,,,,,,0.639,1,,,,,,286,NW,UN,16,nymbel,RELDON,z,0.639,,,,,,-0.061583578,-0.068914956,0,0,0,,0,393,393,465,1,
