counterbalancing_condition,instr_done_keyboard.keys,instr_done_touch.x,instr_done_touch.y,instr_done_touch.leftButton,instr_done_touch.midButton,instr_done_touch.rightButton,instr_done_touch.clicked_name,instruction_pages.thisRepN,instruction_pages.thisTrialN,instruction_pages.thisN,instruction_pages.thisIndex,instruction_pages.ran,pageN,phase,instruct_text,has_image,instruct_image,participant,date,expName,psychopyVersion,OS,frameRate,instr_done_keyboard.rt,response.keys,response.corr,response.rt,touch_resp.x,touch_resp.y,touch_resp.leftButton,touch_resp.midButton,touch_resp.rightButton,touch_resp.time,touch_resp.clicked_name,rt,corr,practice_trials.thisRepN,practice_trials.thisTrialN,practice_trials.thisN,practice_trials.thisIndex,practice_trials.ran,TrialID,StimulusType,Condition,PrimeDuration,Prime,Target,corrAns,end_of_practice_trials_pages.thisRepN,end_of_practice_trials_pages.thisTrialN,end_of_practice_trials_pages.thisN,end_of_practice_trials_pages.thisIndex,end_of_practice_trials_pages.ran,break_done_touch.x,break_done_touch.y,break_done_touch.leftButton,break_done_touch.midButton,break_done_touch.rightButton,break_done_keyboard.keys,experiment_trials.thisRepN,experiment_trials.thisTrialN,experiment_trials.thisN,experiment_trials.thisIndex,experiment_trials.ran,break_done_keyboard.rt
2,,0.091666667,-0.396296296,1,0,0,instr_done_button,0,0,0,0,1,1,instructions,"INSTRUCTIONS
At the start of each trial, look at the hash marks (######) in the center of the screen. After a moment, a string of letters will appear. Your task is to indicate if the letter string forms a word or not (i.e., if it is a nonword). For example, AUTHOR is a word while AUTHON is a nonword.

Press the space bar or touch the button below to continue.",0,,5e8421d0df483e18852ff25e,2020-11-27_09h17.22.004,lexical_decision_task_MP_exp2,2020.2.5,Win32,60,,,,,,,,,,,,,,,,,,,,,,,,,,,,,,,,,,,,,,,,,,
,,0.091666667,-0.396296296,1,0,0,instr_done_button,0,1,1,1,1,2,instructions,"If your device has a keyboard, press the 'Z' key for nonwords and the 'M' key for words.





Press the space bar or touch the button below to continue.",1,keyboard-example.gif,5e8421d0df483e18852ff25e,2020-11-27_09h17.22.004,lexical_decision_task_MP_exp2,2020.2.5,Win32,60,,,,,,,,,,,,,,,,,,,,,,,,,,,,,,,,,,,,,,,,,,
,space,0.091666667,-0.396296296,0,0,0,,0,2,2,2,1,3,instructions,"If you are using a touchscreen only device, use the buttons on the screen. Do not use the mouse.





Press the space bar or touch the button below to continue.",1,touchscreen-example.gif,5e8421d0df483e18852ff25e,2020-11-27_09h17.22.004,lexical_decision_task_MP_exp2,2020.2.5,Win32,60,3.08101,,,,,,,,,,,,,,,,,,,,,,,,,,,,,,,,,,,,,,,,,
,space,0.091666667,-0.396296296,0,0,0,,0,3,3,3,1,4,instructions,"It is very important that you respond as quickly and accurately as possible, as each letter string will only be on the screen for two seconds. If you do not respond within this time, the message 'Too slow!' will be displayed and the experiment will progress to the next letter string. The first 20 trials will be practice trials and you will receive feedback on your answers. 

Press the space bar or touch the button below to start the practice trials.",0,,5e8421d0df483e18852ff25e,2020-11-27_09h17.22.004,lexical_decision_task_MP_exp2,2020.2.5,Win32,60,0.600455,,,,,,,,,,,,,,,,,,,,,,,,,,,,,,,,,,,,,,,,,
,,,,,,,,,,,,,,,,,,5e8421d0df483e18852ff25e,2020-11-27_09h17.22.004,lexical_decision_task_MP_exp2,2020.2.5,Win32,60,,z,1,0.72104,,,,,,,,0.72104,1,0,0,0,14,1,1015,NW,UN,16,miaber,THRALE,z,,,,,,,,,,,,,,,,,
,,,,,,,,,,,,,,,,,,5e8421d0df483e18852ff25e,2020-11-27_09h17.22.004,lexical_decision_task_MP_exp2,2020.2.5,Win32,60,,m,1,0.57978,,,,,,,,0.57978,1,0,1,1,1,1,1002,WORD,"ID",33,adjust,ADJUST,m,,,,,,,,,,,,,,,,,
,,,,,,,,,,,,,,,,,,5e8421d0df483e18852ff25e,2020-11-27_09h17.22.004,lexical_decision_task_MP_exp2,2020.2.5,Win32,60,,m,1,0.618215,,,,,,,,0.618215,1,0,2,2,0,1,1001,WORD,"ID",33,utopia,UTOPIA,m,,,,,,,,,,,,,,,,,
,,,,,,,,,,,,,,,,,,5e8421d0df483e18852ff25e,2020-11-27_09h17.22.004,lexical_decision_task_MP_exp2,2020.2.5,Win32,60,,m,1,0.43292,,,,,,,,0.43292,1,0,3,3,2,1,1003,WORD,"ID",16,almond,ALMOND,m,,,,,,,,,,,,,,,,,
,,,,,,,,,,,,,,,,,,5e8421d0df483e18852ff25e,2020-11-27_09h17.22.004,lexical_decision_task_MP_exp2,2020.2.5,Win32,60,,m,1,0.466915,,,,,,,,0.466915,1,0,4,4,4,1,1005,WORD,UN,33,abound,SQUEAK,m,,,,,,,,,,,,,,,,,
,,,,,,,,,,,,,,,,,,5e8421d0df483e18852ff25e,2020-11-27_09h17.22.004,lexical_decision_task_MP_exp2,2020.2.5,Win32,60,,m,1,0.52535,,,,,,,,0.52535,1,0,5,5,5,1,1006,WORD,UN,33,frenzy,OBTAIN,m,,,,,,,,,,,,,,,,,
,,,,,,,,,,,,,,,,,,5e8421d0df483e18852ff25e,2020-11-27_09h17.22.004,lexical_decision_task_MP_exp2,2020.2.5,Win32,60,,z,1,0.56627,,,,,,,,0.56627,1,0,6,6,13,1,1014,NW,UN,33,winfer,ROUPET,z,,,,,,,,,,,,,,,,,
,,,,,,,,,,,,,,,,,,5e8421d0df483e18852ff25e,2020-11-27_09h17.22.004,lexical_decision_task_MP_exp2,2020.2.5,Win32,60,,m,1,0.507435,,,,,,,,0.507435,1,0,7,7,6,1,1007,WORD,UN,16,tropic,ZOMBIE,m,,,,,,,,,,,,,,,,,
,,,,,,,,,,,,,,,,,,5e8421d0df483e18852ff25e,2020-11-27_09h17.22.004,lexical_decision_task_MP_exp2,2020.2.5,Win32,60,,z,1,0.678245,,,,,,,,0.678245,1,0,8,8,11,1,1012,NW,"ID",16,rashet,RASHET,z,,,,,,,,,,,,,,,,,
,,,,,,,,,,,,,,,,,,5e8421d0df483e18852ff25e,2020-11-27_09h17.22.004,lexical_decision_task_MP_exp2,2020.2.5,Win32,60,,z,1,0.57152,,,,,,,,0.57152,1,0,9,9,12,1,1013,NW,UN,33,adveil,SPRINY,z,,,,,,,,,,,,,,,,,
,,,,,,,,,,,,,,,,,,5e8421d0df483e18852ff25e,2020-11-27_09h17.22.004,lexical_decision_task_MP_exp2,2020.2.5,Win32,60,,m,1,0.46334,,,,,,,,0.46334,1,0,10,10,7,1,1008,WORD,UN,16,hurdle,VOLUME,m,,,,,,,,,,,,,,,,,
,,,,,,,,,,,,,,,,,,5e8421d0df483e18852ff25e,2020-11-27_09h17.22.004,lexical_decision_task_MP_exp2,2020.2.5,Win32,60,,m,0,0.71624,,,,,,,,0.71624,0,0,11,11,15,1,1016,NW,UN,16,mushed,WHAISE,z,,,,,,,,,,,,,,,,,
,,,,,,,,,,,,,,,,,,5e8421d0df483e18852ff25e,2020-11-27_09h17.22.004,lexical_decision_task_MP_exp2,2020.2.5,Win32,60,,m,1,0.52694,,,,,,,,0.52694,1,0,12,12,3,1,1004,WORD,"ID",16,matrix,MATRIX,m,,,,,,,,,,,,,,,,,
,,,,,,,,,,,,,,,,,,5e8421d0df483e18852ff25e,2020-11-27_09h17.22.004,lexical_decision_task_MP_exp2,2020.2.5,Win32,60,,z,1,0.688785,,,,,,,,0.688785,1,0,13,13,8,1,1009,NW,"ID",33,aslert,ASLERT,z,,,,,,,,,,,,,,,,,
,,,,,,,,,,,,,,,,,,5e8421d0df483e18852ff25e,2020-11-27_09h17.22.004,lexical_decision_task_MP_exp2,2020.2.5,Win32,60,,z,1,0.70023,,,,,,,,0.70023,1,0,14,14,9,1,1010,NW,"ID",33,fariny,FARINY,z,,,,,,,,,,,,,,,,,
,,,,,,,,,,,,,,,,,,5e8421d0df483e18852ff25e,2020-11-27_09h17.22.004,lexical_decision_task_MP_exp2,2020.2.5,Win32,60,,z,1,0.933055,,,,,,,,0.933055,1,0,15,15,10,1,1011,NW,"ID",16,inlade,INLADE,z,,,,,,,,,,,,,,,,,
,space,0.091666667,-0.396296296,0,0,0,,,,,,,1,end_of_practice,"You have completed the practice trials. During the experimental trials, you will not receive feedback, but it is very important that you respond as quickly and accurately as possible. 
Before you begin, please ensure that you are in a comfortable and quiet location and will not be disturbed for about 15 minutes, as we cannot use your data if you do not complete all the trials. 
There will be opportunities to take breaks at regular intervals during the experiment. When you are ready to start the experimental trials, please press space or touch the button below.",,,5e8421d0df483e18852ff25e,2020-11-27_09h17.22.004,lexical_decision_task_MP_exp2,2020.2.5,Win32,60,5.81243,,,,,,,,,,,,,,,,,,,,,,,,,0,0,0,0,1,,,,,,,,,,,,
,,,,,,,,,,,,,,,,,,5e8421d0df483e18852ff25e,2020-11-27_09h17.22.004,lexical_decision_task_MP_exp2,2020.2.5,Win32,60,,z,1,0.615,,,,,,,,0.615,1,,,,,,334,NW,"ID",33,watmeg,WATMEG,z,,,,,,0.091666667,-0.396296296,0,0,0,,0,0,0,273,1,
,,,,,,,,,,,,,,,,,,5e8421d0df483e18852ff25e,2020-11-27_09h17.22.004,lexical_decision_task_MP_exp2,2020.2.5,Win32,60,,z,1,0.711675,,,,,,,,0.711675,1,,,,,,273,NW,UN,16,fumblo,SORTEL,z,,,,,,0.091666667,-0.396296296,0,0,0,,0,1,1,452,1,
,,,,,,,,,,,,,,,,,,5e8421d0df483e18852ff25e,2020-11-27_09h17.22.004,lexical_decision_task_MP_exp2,2020.2.5,Win32,60,,m,1,0.557675,,,,,,,,0.557675,1,,,,,,54,WORD,UN,16,stroke,RAMBLE,m,,,,,,0.091666667,-0.396296296,0,0,0,,0,2,2,233,1,
,,,,,,,,,,,,,,,,,,5e8421d0df483e18852ff25e,2020-11-27_09h17.22.004,lexical_decision_task_MP_exp2,2020.2.5,Win32,60,,m,1,0.553305,,,,,,,,0.553305,1,,,,,,196,WORD,UN,33,stream,CREDIT,m,,,,,,0.091666667,-0.396296296,0,0,0,,0,3,3,135,1,
,,,,,,,,,,,,,,,,,,5e8421d0df483e18852ff25e,2020-11-27_09h17.22.004,lexical_decision_task_MP_exp2,2020.2.5,Win32,60,,z,1,0.57921,,,,,,,,0.57921,1,,,,,,272,NW,UN,16,sortel,DAMILT,z,,,,,,0.091666667,-0.396296296,0,0,0,,0,4,4,451,1,
,,,,,,,,,,,,,,,,,,5e8421d0df483e18852ff25e,2020-11-27_09h17.22.004,lexical_decision_task_MP_exp2,2020.2.5,Win32,60,,z,1,0.542375,,,,,,,,0.542375,1,,,,,,295,NW,UN,16,beinch,GLEATH,z,,,,,,0.091666667,-0.396296296,0,0,0,,0,5,5,474,1,
,,,,,,,,,,,,,,,,,,5e8421d0df483e18852ff25e,2020-11-27_09h17.22.004,lexical_decision_task_MP_exp2,2020.2.5,Win32,60,,m,1,0.61129,,,,,,,,0.61129,1,,,,,,142,WORD,"ID",16,spruce,SPRUCE,m,,,,,,0.091666667,-0.396296296,0,0,0,,0,6,6,81,1,
,,,,,,,,,,,,,,,,,,5e8421d0df483e18852ff25e,2020-11-27_09h17.22.004,lexical_decision_task_MP_exp2,2020.2.5,Win32,60,,z,1,0.533765,,,,,,,,0.533765,1,,,,,,321,NW,"ID",33,miator,MIATOR,z,,,,,,0.091666667,-0.396296296,0,0,0,,0,7,7,260,1,
,,,,,,,,,,,,,,,,,,5e8421d0df483e18852ff25e,2020-11-27_09h17.22.004,lexical_decision_task_MP_exp2,2020.2.5,Win32,60,,z,1,0.521005,,,,,,,,0.521005,1,,,,,,359,NW,"ID",33,fonver,FONVER,z,,,,,,0.091666667,-0.396296296,0,0,0,,0,8,8,298,1,
,,,,,,,,,,,,,,,,,,5e8421d0df483e18852ff25e,2020-11-27_09h17.22.004,lexical_decision_task_MP_exp2,2020.2.5,Win32,60,,z,1,0.517995,,,,,,,,0.517995,1,,,,,,447,NW,UN,33,sadent,GIRCUE,z,,,,,,0.091666667,-0.396296296,0,0,0,,0,9,9,386,1,
,,,,,,,,,,,,,,,,,,5e8421d0df483e18852ff25e,2020-11-27_09h17.22.004,lexical_decision_task_MP_exp2,2020.2.5,Win32,60,,m,1,0.57065,,,,,,,,0.57065,1,,,,,,208,WORD,UN,33,search,HOCKEY,m,,,,,,0.091666667,-0.396296296,0,0,0,,0,10,10,147,1,
,,,,,,,,,,,,,,,,,,5e8421d0df483e18852ff25e,2020-11-27_09h17.22.004,lexical_decision_task_MP_exp2,2020.2.5,Win32,60,,m,1,0.4521,,,,,,,,0.4521,1,,,,,,123,WORD,"ID",16,strike,STRIKE,m,,,,,,0.091666667,-0.396296296,0,0,0,,0,11,11,62,1,
,,,,,,,,,,,,,,,,,,5e8421d0df483e18852ff25e,2020-11-27_09h17.22.004,lexical_decision_task_MP_exp2,2020.2.5,Win32,60,,m,1,0.493935,,,,,,,,0.493935,1,,,,,,2,WORD,UN,16,knight,BRIDGE,m,,,,,,0.091666667,-0.396296296,0,0,0,,0,12,12,181,1,
,,,,,,,,,,,,,,,,,,5e8421d0df483e18852ff25e,2020-11-27_09h17.22.004,lexical_decision_task_MP_exp2,2020.2.5,Win32,60,,z,1,0.491485,,,,,,,,0.491485,1,,,,,,460,NW,UN,33,justre,MINGAR,z,,,,,,0.091666667,-0.396296296,0,0,0,,0,13,13,399,1,
,,,,,,,,,,,,,,,,,,5e8421d0df483e18852ff25e,2020-11-27_09h17.22.004,lexical_decision_task_MP_exp2,2020.2.5,Win32,60,,z,1,0.91203,,,,,,,,0.91203,1,,,,,,294,NW,UN,16,gleath,INHORT,z,,,,,,0.091666667,-0.396296296,0,0,0,,0,14,14,473,1,
,,,,,,,,,,,,,,,,,,5e8421d0df483e18852ff25e,2020-11-27_09h17.22.004,lexical_decision_task_MP_exp2,2020.2.5,Win32,60,,m,1,0.525355,,,,,,,,0.525355,1,,,,,,42,WORD,UN,16,tongue,CHAPEL,m,,,,,,0.091666667,-0.396296296,0,0,0,,0,15,15,221,1,
,,,,,,,,,,,,,,,,,,5e8421d0df483e18852ff25e,2020-11-27_09h17.22.004,lexical_decision_task_MP_exp2,2020.2.5,Win32,60,,m,1,0.48405,,,,,,,,0.48405,1,,,,,,204,WORD,UN,33,lounge,BURDEN,m,,,,,,0.091666667,-0.396296296,0,0,0,,0,16,16,143,1,
,,,,,,,,,,,,,,,,,,5e8421d0df483e18852ff25e,2020-11-27_09h17.22.004,lexical_decision_task_MP_exp2,2020.2.5,Win32,60,,z,1,0.578845,,,,,,,,0.578845,1,,,,,,246,NW,UN,16,blarge,PIATON,z,,,,,,0.091666667,-0.396296296,0,0,0,,0,17,17,425,1,
,,,,,,,,,,,,,,,,,,5e8421d0df483e18852ff25e,2020-11-27_09h17.22.004,lexical_decision_task_MP_exp2,2020.2.5,Win32,60,,z,1,0.523785,,,,,,,,0.523785,1,,,,,,241,NW,UN,16,unwert,SMENCO,z,,,,,,0.091666667,-0.396296296,0,0,0,,0,18,18,420,1,
,,,,,,,,,,,,,,,,,,5e8421d0df483e18852ff25e,2020-11-27_09h17.22.004,lexical_decision_task_MP_exp2,2020.2.5,Win32,60,,z,1,0.497725,,,,,,,,0.497725,1,,,,,,431,NW,UN,33,lunker,CHRUMS,z,,,,,,0.091666667,-0.396296296,0,0,0,,0,19,19,370,1,
,,,,,,,,,,,,,,,,,,5e8421d0df483e18852ff25e,2020-11-27_09h17.22.004,lexical_decision_task_MP_exp2,2020.2.5,Win32,60,,z,1,0.533555,,,,,,,,0.533555,1,,,,,,267,NW,UN,16,packes,PASINK,z,,,,,,0.091666667,-0.396296296,0,0,0,,0,20,20,446,1,
,,,,,,,,,,,,,,,,,,5e8421d0df483e18852ff25e,2020-11-27_09h17.22.004,lexical_decision_task_MP_exp2,2020.2.5,Win32,60,,z,1,0.5252,,,,,,,,0.5252,1,,,,,,444,NW,UN,33,minkel,JAUNCE,z,,,,,,0.091666667,-0.396296296,0,0,0,,0,21,21,383,1,
,,,,,,,,,,,,,,,,,,5e8421d0df483e18852ff25e,2020-11-27_09h17.22.004,lexical_decision_task_MP_exp2,2020.2.5,Win32,60,,z,1,0.479305,,,,,,,,0.479305,1,,,,,,384,NW,"ID",16,guesco,GUESCO,z,,,,,,0.091666667,-0.396296296,0,0,0,,0,22,22,323,1,
,,,,,,,,,,,,,,,,,,5e8421d0df483e18852ff25e,2020-11-27_09h17.22.004,lexical_decision_task_MP_exp2,2020.2.5,Win32,60,,z,1,0.60636,,,,,,,,0.60636,1,,,,,,377,NW,"ID",16,injore,INJORE,z,,,,,,0.091666667,-0.396296296,0,0,0,,0,23,23,316,1,
,,,,,,,,,,,,,,,,,,5e8421d0df483e18852ff25e,2020-11-27_09h17.22.004,lexical_decision_task_MP_exp2,2020.2.5,Win32,60,,m,1,0.56834,,,,,,,,0.56834,1,,,,,,57,WORD,UN,16,danger,CHANGE,m,,,,,,0.091666667,-0.396296296,0,0,0,,0,24,24,236,1,
,,,,,,,,,,,,,,,,,,5e8421d0df483e18852ff25e,2020-11-27_09h17.22.004,lexical_decision_task_MP_exp2,2020.2.5,Win32,60,,z,1,0.50779,,,,,,,,0.50779,1,,,,,,247,NW,UN,16,strole,BLARGE,z,,,,,,0.091666667,-0.396296296,0,0,0,,0,25,25,426,1,
,,,,,,,,,,,,,,,,,,5e8421d0df483e18852ff25e,2020-11-27_09h17.22.004,lexical_decision_task_MP_exp2,2020.2.5,Win32,60,,z,1,0.62654,,,,,,,,0.62654,1,,,,,,349,NW,"ID",33,asylen,ASYLEN,z,,,,,,0.091666667,-0.396296296,0,0,0,,0,26,26,288,1,
,,,,,,,,,,,,,,,,,,5e8421d0df483e18852ff25e,2020-11-27_09h17.22.004,lexical_decision_task_MP_exp2,2020.2.5,Win32,60,,z,1,0.499275,,,,,,,,0.499275,1,,,,,,339,NW,"ID",33,fachow,FACHOW,z,,,,,,0.091666667,-0.396296296,0,0,0,,0,27,27,278,1,
,,,,,,,,,,,,,,,,,,5e8421d0df483e18852ff25e,2020-11-27_09h17.22.004,lexical_decision_task_MP_exp2,2020.2.5,Win32,60,,m,1,0.5518,,,,,,,,0.5518,1,,,,,,49,WORD,UN,16,snatch,SURVEY,m,,,,,,0.091666667,-0.396296296,0,0,0,,0,28,28,228,1,
,,,,,,,,,,,,,,,,,,5e8421d0df483e18852ff25e,2020-11-27_09h17.22.004,lexical_decision_task_MP_exp2,2020.2.5,Win32,60,,m,1,0.508905,,,,,,,,0.508905,1,,,,,,194,WORD,UN,33,resign,ABSENT,m,,,,,,0.091666667,-0.396296296,0,0,0,,0,29,29,133,1,
,,,,,,,,,,,,,,,,,,5e8421d0df483e18852ff25e,2020-11-27_09h17.22.004,lexical_decision_task_MP_exp2,2020.2.5,Win32,60,,m,1,0.52182,,,,,,,,0.52182,1,,,,,,190,WORD,UN,33,stable,BACKUP,m,,,,,,0.091666667,-0.396296296,0,0,0,,0,30,30,129,1,
,,,,,,,,,,,,,,,,,,5e8421d0df483e18852ff25e,2020-11-27_09h17.22.004,lexical_decision_task_MP_exp2,2020.2.5,Win32,60,,m,1,0.535425,,,,,,,,0.535425,1,,,,,,86,WORD,"ID",33,rodent,RODENT,m,,,,,,0.091666667,-0.396296296,0,0,0,,0,31,31,25,1,
,,,,,,,,,,,,,,,,,,5e8421d0df483e18852ff25e,2020-11-27_09h17.22.004,lexical_decision_task_MP_exp2,2020.2.5,Win32,60,,m,1,0.49023,,,,,,,,0.49023,1,,,,,,147,WORD,"ID",16,garlic,GARLIC,m,,,,,,0.091666667,-0.396296296,0,0,0,,0,32,32,86,1,
,,,,,,,,,,,,,,,,,,5e8421d0df483e18852ff25e,2020-11-27_09h17.22.004,lexical_decision_task_MP_exp2,2020.2.5,Win32,60,,m,1,0.488855,,,,,,,,0.488855,1,,,,,,91,WORD,"ID",33,expand,EXPAND,m,,,,,,0.091666667,-0.396296296,0,0,0,,0,33,33,30,1,
,,,,,,,,,,,,,,,,,,5e8421d0df483e18852ff25e,2020-11-27_09h17.22.004,lexical_decision_task_MP_exp2,2020.2.5,Win32,60,,m,1,0.446895,,,,,,,,0.446895,1,,,,,,187,WORD,UN,33,social,COURSE,m,,,,,,0.091666667,-0.396296296,0,0,0,,0,34,34,126,1,
,,,,,,,,,,,,,,,,,,5e8421d0df483e18852ff25e,2020-11-27_09h17.22.004,lexical_decision_task_MP_exp2,2020.2.5,Win32,60,,m,1,0.48674,,,,,,,,0.48674,1,,,,,,118,WORD,"ID",33,flight,FLIGHT,m,,,,,,0.091666667,-0.396296296,0,0,0,,0,35,35,57,1,
,,,,,,,,,,,,,,,,,,5e8421d0df483e18852ff25e,2020-11-27_09h17.22.004,lexical_decision_task_MP_exp2,2020.2.5,Win32,60,,z,1,0.524955,,,,,,,,0.524955,1,,,,,,327,NW,"ID",33,plenac,PLENAC,z,,,,,,0.091666667,-0.396296296,0,0,0,,0,36,36,266,1,
,,,,,,,,,,,,,,,,,,5e8421d0df483e18852ff25e,2020-11-27_09h17.22.004,lexical_decision_task_MP_exp2,2020.2.5,Win32,60,,z,1,0.567745,,,,,,,,0.567745,1,,,,,,414,NW,"ID",16,serbol,SERBOL,z,,,,,,0.091666667,-0.396296296,0,0,0,,0,37,37,353,1,
,,,,,,,,,,,,,,,,,,5e8421d0df483e18852ff25e,2020-11-27_09h17.22.004,lexical_decision_task_MP_exp2,2020.2.5,Win32,60,,m,1,0.475365,,,,,,,,0.475365,1,,,,,,53,WORD,UN,16,ramble,POLICE,m,,,,,,0.091666667,-0.396296296,0,0,0,,0,38,38,232,1,
,,,,,,,,,,,,,,,,,,5e8421d0df483e18852ff25e,2020-11-27_09h17.22.004,lexical_decision_task_MP_exp2,2020.2.5,Win32,60,,z,1,0.562815,,,,,,,,0.562815,1,,,,,,379,NW,"ID",16,auting,AUTING,z,,,,,,0.091666667,-0.396296296,0,0,0,,0,39,39,318,1,
,,,,,,,,,,,,,,,,,,5e8421d0df483e18852ff25e,2020-11-27_09h17.22.004,lexical_decision_task_MP_exp2,2020.2.5,Win32,60,,z,1,0.70293,,,,,,,,0.70293,1,,,,,,344,NW,"ID",33,scrily,SCRILY,z,,,,,,0.091666667,-0.396296296,0,0,0,,0,40,40,283,1,
,,,,,,,,,,,,,,,,,,5e8421d0df483e18852ff25e,2020-11-27_09h17.22.004,lexical_decision_task_MP_exp2,2020.2.5,Win32,60,,m,1,0.533405,,,,,,,,0.533405,1,,,,,,210,WORD,UN,33,infect,MONKEY,m,,,,,,0.091666667,-0.396296296,0,0,0,,0,41,41,149,1,
,,,,,,,,,,,,,,,,,,5e8421d0df483e18852ff25e,2020-11-27_09h17.22.004,lexical_decision_task_MP_exp2,2020.2.5,Win32,60,,z,1,0.560525,,,,,,,,0.560525,1,,,,,,463,NW,UN,33,chaite,KISPEL,z,,,,,,0.091666667,-0.396296296,0,0,0,,0,42,42,402,1,
,,,,,,,,,,,,,,,,,,5e8421d0df483e18852ff25e,2020-11-27_09h17.22.004,lexical_decision_task_MP_exp2,2020.2.5,Win32,60,,m,1,0.58043,,,,,,,,0.58043,1,,,,,,215,WORD,UN,33,lumber,PHOBIA,m,,,,,,0.091666667,-0.396296296,0,0,0,,0,43,43,154,1,
,,,,,,,,,,,,,,,,,,5e8421d0df483e18852ff25e,2020-11-27_09h17.22.004,lexical_decision_task_MP_exp2,2020.2.5,Win32,60,,z,1,0.661285,,,,,,,,0.661285,1,,,,,,369,NW,"ID",16,wronch,WRONCH,z,,,,,,0.091666667,-0.396296296,0,0,0,,0,44,44,308,1,
,,,,,,,,,,,,,,,,,,5e8421d0df483e18852ff25e,2020-11-27_09h17.22.004,lexical_decision_task_MP_exp2,2020.2.5,Win32,60,,z,1,0.45192,,,,,,,,0.45192,1,,,,,,363,NW,"ID",16,breali,BREALI,z,,,,,,0.091666667,-0.396296296,0,0,0,,0,45,45,302,1,
,,,,,,,,,,,,,,,,,,5e8421d0df483e18852ff25e,2020-11-27_09h17.22.004,lexical_decision_task_MP_exp2,2020.2.5,Win32,60,,z,1,0.57307,,,,,,,,0.57307,1,,,,,,421,NW,UN,33,alcoud,KNISMA,z,,,,,,0.091666667,-0.396296296,0,0,0,,0,46,46,360,1,
,,,,,,,,,,,,,,,,,,5e8421d0df483e18852ff25e,2020-11-27_09h17.22.004,lexical_decision_task_MP_exp2,2020.2.5,Win32,60,,m,1,0.4865,,,,,,,,0.4865,1,,,,,,31,WORD,UN,16,buckle,WEAPON,m,,,,,,0.091666667,-0.396296296,0,0,0,,0,47,47,210,1,
,,,,,,,,,,,,,,,,,,5e8421d0df483e18852ff25e,2020-11-27_09h17.22.004,lexical_decision_task_MP_exp2,2020.2.5,Win32,60,,z,1,0.517865,,,,,,,,0.517865,1,,,,,,275,NW,UN,16,yarmon,SLEIRT,z,,,,,,0.091666667,-0.396296296,0,0,0,,0,48,48,454,1,
,,,,,,,,,,,,,,,,,,5e8421d0df483e18852ff25e,2020-11-27_09h17.22.004,lexical_decision_task_MP_exp2,2020.2.5,Win32,60,,z,1,0.49083,,,,,,,,0.49083,1,,,,,,244,NW,UN,16,anougs,EATRIC,z,,,,,,0.091666667,-0.396296296,0,0,0,,0,49,49,423,1,
,,,,,,,,,,,,,,,,,,5e8421d0df483e18852ff25e,2020-11-27_09h17.22.004,lexical_decision_task_MP_exp2,2020.2.5,Win32,60,,z,1,0.570075,,,,,,,,0.570075,1,,,,,,262,NW,UN,16,dolica,QUILEW,z,,,,,,0.091666667,-0.396296296,0,0,0,,0,50,50,441,1,
,,,,,,,,,,,,,,,,,,5e8421d0df483e18852ff25e,2020-11-27_09h17.22.004,lexical_decision_task_MP_exp2,2020.2.5,Win32,60,,z,1,0.45525,,,,,,,,0.45525,1,,,,,,351,NW,"ID",33,tiesch,TIESCH,z,,,,,,0.091666667,-0.396296296,0,0,0,,0,51,51,290,1,
,,,,,,,,,,,,,,,,,,5e8421d0df483e18852ff25e,2020-11-27_09h17.22.004,lexical_decision_task_MP_exp2,2020.2.5,Win32,60,,m,1,0.61213,,,,,,,,0.61213,1,,,,,,1,WORD,UN,16,ethnic,FRIGHT,m,,,,,,0.091666667,-0.396296296,0,0,0,,0,52,52,180,1,
,,,,,,,,,,,,,,,,,,5e8421d0df483e18852ff25e,2020-11-27_09h17.22.004,lexical_decision_task_MP_exp2,2020.2.5,Win32,60,,z,1,0.550605,,,,,,,,0.550605,1,,,,,,423,NW,UN,33,praile,STRELD,z,,,,,,0.091666667,-0.396296296,0,0,0,,0,53,53,362,1,
,,,,,,,,,,,,,,,,,,5e8421d0df483e18852ff25e,2020-11-27_09h17.22.004,lexical_decision_task_MP_exp2,2020.2.5,Win32,60,,m,1,0.47414,,,,,,,,0.47414,1,,,,,,119,WORD,"ID",33,spider,SPIDER,m,,,,,,0.091666667,-0.396296296,0,0,0,,0,54,54,58,1,
,,,,,,,,,,,,,,,,,,5e8421d0df483e18852ff25e,2020-11-27_09h17.22.004,lexical_decision_task_MP_exp2,2020.2.5,Win32,60,,m,1,0.546085,,,,,,,,0.546085,1,,,,,,101,WORD,"ID",33,wrench,WRENCH,m,,,,,,0.091666667,-0.396296296,0,0,0,,0,55,55,40,1,
,,,,,,,,,,,,,,,,,,5e8421d0df483e18852ff25e,2020-11-27_09h17.22.004,lexical_decision_task_MP_exp2,2020.2.5,Win32,60,,z,1,0.506835,,,,,,,,0.506835,1,,,,,,366,NW,"ID",16,toshel,TOSHEL,z,,,,,,0.091666667,-0.396296296,0,0,0,,0,56,56,305,1,
,,,,,,,,,,,,,,,,,,5e8421d0df483e18852ff25e,2020-11-27_09h17.22.004,lexical_decision_task_MP_exp2,2020.2.5,Win32,60,,m,1,0.47326,,,,,,,,0.47326,1,,,,,,146,WORD,"ID",16,couple,COUPLE,m,,,,,,0.091666667,-0.396296296,0,0,0,,0,57,57,85,1,
,,,,,,,,,,,,,,,,,,5e8421d0df483e18852ff25e,2020-11-27_09h17.22.004,lexical_decision_task_MP_exp2,2020.2.5,Win32,60,,z,1,0.56948,,,,,,,,0.56948,1,,,,,,477,NW,UN,33,lobush,PHOTIE,z,,,,,,0.091666667,-0.396296296,0,0,0,,0,58,58,416,1,
,,,,,,,,,,,,,,,,,,5e8421d0df483e18852ff25e,2020-11-27_09h17.22.004,lexical_decision_task_MP_exp2,2020.2.5,Win32,60,,m,1,0.49205,,,,,,,,0.49205,1,,,,,,205,WORD,UN,33,tailor,LOUNGE,m,,,,,,0.091666667,-0.396296296,0,0,0,,0,59,59,144,1,
,,,,,,,,,,,,,,,,,,5e8421d0df483e18852ff25e,2020-11-27_09h17.22.004,lexical_decision_task_MP_exp2,2020.2.5,Win32,60,,m,1,0.480785,,,,,,,,0.480785,1,,,,,,152,WORD,"ID",16,rocket,ROCKET,m,,,,,,0.091666667,-0.396296296,0,0,0,,0,60,60,91,1,
,,,,,,,,,,,,,,,,,,5e8421d0df483e18852ff25e,2020-11-27_09h17.22.004,lexical_decision_task_MP_exp2,2020.2.5,Win32,60,,m,1,0.417825,,,,,,,,0.417825,1,,,,,,112,WORD,"ID",33,breath,BREATH,m,,,,,,0.091666667,-0.396296296,0,0,0,,0,61,61,51,1,
,,,,,,,,,,,,,,,,,,5e8421d0df483e18852ff25e,2020-11-27_09h17.22.004,lexical_decision_task_MP_exp2,2020.2.5,Win32,60,,m,1,0.439975,,,,,,,,0.439975,1,,,,,,28,WORD,UN,16,sketch,COMEDY,m,,,,,,0.091666667,-0.396296296,0,0,0,,0,62,62,207,1,
,,,,,,,,,,,,,,,,,,5e8421d0df483e18852ff25e,2020-11-27_09h17.22.004,lexical_decision_task_MP_exp2,2020.2.5,Win32,60,,m,1,0.39346,,,,,,,,0.39346,1,,,,,,148,WORD,"ID",16,custom,CUSTOM,m,,,,,,0.091666667,-0.396296296,0,0,0,,0,63,63,87,1,
,,,,,,,,,,,,,,,,,,5e8421d0df483e18852ff25e,2020-11-27_09h17.22.004,lexical_decision_task_MP_exp2,2020.2.5,Win32,60,,m,1,0.45202,,,,,,,,0.45202,1,,,,,,116,WORD,"ID",33,tumble,TUMBLE,m,,,,,,0.091666667,-0.396296296,0,0,0,,0,64,64,55,1,
,,,,,,,,,,,,,,,,,,5e8421d0df483e18852ff25e,2020-11-27_09h17.22.004,lexical_decision_task_MP_exp2,2020.2.5,Win32,60,,z,1,0.46723,,,,,,,,0.46723,1,,,,,,245,NW,UN,16,piaton,ANOUGS,z,,,,,,0.091666667,-0.396296296,0,0,0,,0,65,65,424,1,
,,,,,,,,,,,,,,,,,,5e8421d0df483e18852ff25e,2020-11-27_09h17.22.004,lexical_decision_task_MP_exp2,2020.2.5,Win32,60,,m,1,0.474325,,,,,,,,0.474325,1,,,,,,38,WORD,UN,16,insect,POWDER,m,,,,,,0.091666667,-0.396296296,0,0,0,,0,66,66,217,1,
,,,,,,,,,,,,,,,,,,5e8421d0df483e18852ff25e,2020-11-27_09h17.22.004,lexical_decision_task_MP_exp2,2020.2.5,Win32,60,,z,1,0.63458,,,,,,,,0.63458,1,,,,,,342,NW,"ID",33,randow,RANDOW,z,,,,,,0.091666667,-0.396296296,0,0,0,,0,67,67,281,1,
,,,,,,,,,,,,,,,,,,5e8421d0df483e18852ff25e,2020-11-27_09h17.22.004,lexical_decision_task_MP_exp2,2020.2.5,Win32,60,,m,1,0.52262,,,,,,,,0.52262,1,,,,,,203,WORD,UN,33,burden,PHRASE,m,,,,,,0.091666667,-0.396296296,0,0,0,,0,68,68,142,1,
,,,,,,,,,,,,,,,,,,5e8421d0df483e18852ff25e,2020-11-27_09h17.22.004,lexical_decision_task_MP_exp2,2020.2.5,Win32,60,,z,1,0.57477,,,,,,,,0.57477,1,,,,,,446,NW,UN,33,gircue,RUNAMO,z,,,,,,0.091666667,-0.396296296,0,0,0,,0,69,69,385,1,
,,,,,,,,,,,,,,,,,,5e8421d0df483e18852ff25e,2020-11-27_09h17.22.004,lexical_decision_task_MP_exp2,2020.2.5,Win32,60,,m,1,0.513125,,,,,,,,0.513125,1,,,,,,21,WORD,UN,16,jockey,SIMPLE,m,,,,,,0.091666667,-0.396296296,0,0,0,,0,70,70,200,1,
,,,,,,,,,,,,,,,,,,5e8421d0df483e18852ff25e,2020-11-27_09h17.22.004,lexical_decision_task_MP_exp2,2020.2.5,Win32,60,,m,1,0.424235,,,,,,,,0.424235,1,,,,,,43,WORD,UN,16,foster,TONGUE,m,,,,,,0.091666667,-0.396296296,0,0,0,,0,71,71,222,1,
,,,,,,,,,,,,,,,,,,5e8421d0df483e18852ff25e,2020-11-27_09h17.22.004,lexical_decision_task_MP_exp2,2020.2.5,Win32,60,,z,1,0.51277,,,,,,,,0.51277,1,,,,,,416,NW,"ID",16,pathel,PATHEL,z,,,,,,0.091666667,-0.396296296,0,0,0,,0,72,72,355,1,
,,,,,,,,,,,,,,,,,,5e8421d0df483e18852ff25e,2020-11-27_09h17.22.004,lexical_decision_task_MP_exp2,2020.2.5,Win32,60,,m,1,0.622245,,,,,,,,0.622245,1,,,,,,85,WORD,"ID",33,sprawl,SPRAWL,m,,,,,,0.091666667,-0.396296296,0,0,0,,0,73,73,24,1,
,,,,,,,,,,,,,,,,,,5e8421d0df483e18852ff25e,2020-11-27_09h17.22.004,lexical_decision_task_MP_exp2,2020.2.5,Win32,60,,m,1,0.798055,,,,,,,,0.798055,1,,,,,,60,WORD,UN,16,fright,PENCIL,m,,,,,,0.091666667,-0.396296296,0,0,0,,0,74,74,239,1,
,,,,,,,,,,,,,,,,,,5e8421d0df483e18852ff25e,2020-11-27_09h17.22.004,lexical_decision_task_MP_exp2,2020.2.5,Win32,60,,m,1,0.519475,,,,,,,,0.519475,1,,,,,,27,WORD,UN,16,comedy,SCREAM,m,,,,,,0.091666667,-0.396296296,0,0,0,,0,75,75,206,1,
,,,,,,,,,,,,,,,,,,5e8421d0df483e18852ff25e,2020-11-27_09h17.22.004,lexical_decision_task_MP_exp2,2020.2.5,Win32,60,,m,1,0.67798,,,,,,,,0.67798,1,,,,,,222,WORD,UN,33,export,HINDER,m,,,,,,0.091666667,-0.396296296,0,0,0,,0,76,76,161,1,
,,,,,,,,,,,,,,,,,,5e8421d0df483e18852ff25e,2020-11-27_09h17.22.004,lexical_decision_task_MP_exp2,2020.2.5,Win32,60,,z,1,0.619045,,,,,,,,0.619045,1,,,,,,283,NW,UN,16,shaple,VERALF,z,,,,,,0.091666667,-0.396296296,0,0,0,,0,77,77,462,1,
,,,,,,,,,,,,,,,,,,5e8421d0df483e18852ff25e,2020-11-27_09h17.22.004,lexical_decision_task_MP_exp2,2020.2.5,Win32,60,,m,1,0.54909,,,,,,,,0.54909,1,,,,,,124,WORD,"ID",16,blouse,BLOUSE,m,,,,,,0.091666667,-0.396296296,0,0,0,,0,78,78,63,1,
,,,,,,,,,,,,,,,,,,5e8421d0df483e18852ff25e,2020-11-27_09h17.22.004,lexical_decision_task_MP_exp2,2020.2.5,Win32,60,,m,1,0.512025,,,,,,,,0.512025,1,,,,,,144,WORD,"ID",16,sponge,SPONGE,m,,,,,,0.091666667,-0.396296296,0,0,0,,0,79,79,83,1,
,,,,,,,,,,,,,,,,,,5e8421d0df483e18852ff25e,2020-11-27_09h17.22.004,lexical_decision_task_MP_exp2,2020.2.5,Win32,60,,m,1,0.44806,,,,,,,,0.44806,1,,,,,,229,WORD,UN,33,fringe,MOTHER,m,,,,,,0.091666667,-0.396296296,0,0,0,,0,80,80,168,1,
,,,,,,,,,,,,,,,,,,5e8421d0df483e18852ff25e,2020-11-27_09h17.22.004,lexical_decision_task_MP_exp2,2020.2.5,Win32,60,,z,1,0.501975,,,,,,,,0.501975,1,,,,,,415,NW,"ID",16,higsta,HIGSTA,z,,,,,,0.091666667,-0.396296296,0,0,0,,0,81,81,354,1,
,,,,,,,,,,,,,,,,,,5e8421d0df483e18852ff25e,2020-11-27_09h17.22.004,lexical_decision_task_MP_exp2,2020.2.5,Win32,60,,z,1,1.068095,,,,,,,,1.068095,1,,,,,,270,NW,UN,16,aubrid,WRIMSY,z,,,,,,0.091666667,-0.396296296,0,0,0,,0,82,82,449,1,
,,,,,,,,,,,,,,,,,,5e8421d0df483e18852ff25e,2020-11-27_09h17.22.004,lexical_decision_task_MP_exp2,2020.2.5,Win32,60,,z,1,0.515785,,,,,,,,0.515785,1,,,,,,331,NW,"ID",33,gilfew,GILFEW,z,,,,,,0.091666667,-0.396296296,0,0,0,,0,83,83,270,1,
,,,,,,,,,,,,,,,,,,5e8421d0df483e18852ff25e,2020-11-27_09h17.22.004,lexical_decision_task_MP_exp2,2020.2.5,Win32,60,,z,1,0.494735,,,,,,,,0.494735,1,,,,,,281,NW,UN,16,porlex,MELATY,z,,,,,,0.091666667,-0.396296296,0,0,0,,0,84,84,460,1,
,,,,,,,,,,,,,,,,,,5e8421d0df483e18852ff25e,2020-11-27_09h17.22.004,lexical_decision_task_MP_exp2,2020.2.5,Win32,60,,z,1,0.51562,,,,,,,,0.51562,1,,,,,,413,NW,"ID",16,equats,EQUATS,z,,,,,,0.091666667,-0.396296296,0,0,0,,0,85,85,352,1,
,,,,,,,,,,,,,,,,,,5e8421d0df483e18852ff25e,2020-11-27_09h17.22.004,lexical_decision_task_MP_exp2,2020.2.5,Win32,60,,z,1,0.48326,,,,,,,,0.48326,1,,,,,,309,NW,"ID",33,amiloy,AMILOY,z,,,,,,0.091666667,-0.396296296,0,0,0,,0,86,86,248,1,
,,,,,,,,,,,,,,,,,,5e8421d0df483e18852ff25e,2020-11-27_09h17.22.004,lexical_decision_task_MP_exp2,2020.2.5,Win32,60,,m,1,0.657625,,,,,,,,0.657625,1,,,,,,89,WORD,"ID",33,permit,PERMIT,m,,,,,,0.091666667,-0.396296296,0,0,0,,0,87,87,28,1,
,,,,,,,,,,,,,,,,,,5e8421d0df483e18852ff25e,2020-11-27_09h17.22.004,lexical_decision_task_MP_exp2,2020.2.5,Win32,60,,z,1,0.697255,,,,,,,,0.697255,1,,,,,,435,NW,UN,33,frutan,IMPURB,z,,,,,,0.091666667,-0.396296296,0,0,0,,0,88,88,374,1,
,,,,,,,,,,,,,,,,,,5e8421d0df483e18852ff25e,2020-11-27_09h17.22.004,lexical_decision_task_MP_exp2,2020.2.5,Win32,60,,m,1,0.51067,,,,,,,,0.51067,1,,,,,,156,WORD,"ID",16,cradle,CRADLE,m,,,,,,0.091666667,-0.396296296,0,0,0,,0,89,89,95,1,
,,,,,,,,,,,,,,,,,,5e8421d0df483e18852ff25e,2020-11-27_09h17.22.004,lexical_decision_task_MP_exp2,2020.2.5,Win32,60,,z,1,1.027855,,,,,,,,1.027855,1,,,,,,440,NW,UN,33,rastoe,SARIDE,z,,,,,,0.091666667,-0.396296296,0,0,0,,0,90,90,379,1,
,,,,,,,,,,,,,,,,,,5e8421d0df483e18852ff25e,2020-11-27_09h17.22.004,lexical_decision_task_MP_exp2,2020.2.5,Win32,60,,m,1,0.548135,,,,,,,,0.548135,1,,,,,,227,WORD,UN,33,master,SELDOM,m,,,,,,0.091666667,-0.396296296,0,0,0,,0,91,91,166,1,
,,,,,,,,,,,,,,,,,,5e8421d0df483e18852ff25e,2020-11-27_09h17.22.004,lexical_decision_task_MP_exp2,2020.2.5,Win32,60,,z,1,0.789445,,,,,,,,0.789445,1,,,,,,248,NW,UN,16,batrol,STROLE,z,,,,,,0.091666667,-0.396296296,0,0,0,,0,92,92,427,1,
,,,,,,,,,,,,,,,,,,5e8421d0df483e18852ff25e,2020-11-27_09h17.22.004,lexical_decision_task_MP_exp2,2020.2.5,Win32,60,,z,1,0.6654,,,,,,,,0.6654,1,,,,,,395,NW,"ID",16,colury,COLURY,z,,,,,,0.091666667,-0.396296296,0,0,0,,0,93,93,334,1,
,,,,,,,,,,,,,,,,,,5e8421d0df483e18852ff25e,2020-11-27_09h17.22.004,lexical_decision_task_MP_exp2,2020.2.5,Win32,60,,m,1,0.568845,,,,,,,,0.568845,1,,,,,,160,WORD,"ID",16,violet,VIOLET,m,,,,,,0.091666667,-0.396296296,0,0,0,,0,94,94,99,1,
,,,,,,,,,,,,,,,,,,5e8421d0df483e18852ff25e,2020-11-27_09h17.22.004,lexical_decision_task_MP_exp2,2020.2.5,Win32,60,,m,1,0.54058,,,,,,,,0.54058,1,,,,,,172,WORD,"ID",16,patrol,PATROL,m,,,,,,0.091666667,-0.396296296,0,0,0,,0,95,95,111,1,
,,,,,,,,,,,,,,,,,,5e8421d0df483e18852ff25e,2020-11-27_09h17.22.004,lexical_decision_task_MP_exp2,2020.2.5,Win32,60,,z,1,0.545725,,,,,,,,0.545725,1,,,,,,456,NW,UN,33,wanigh,BROGET,z,,,,,,0.091666667,-0.396296296,0,0,0,,0,96,96,395,1,
,,,,,,,,,,,,,,,,,,5e8421d0df483e18852ff25e,2020-11-27_09h17.22.004,lexical_decision_task_MP_exp2,2020.2.5,Win32,60,,m,1,0.602635,,,,,,,,0.602635,1,,,,,,211,WORD,UN,33,verify,INFECT,m,,,,,,0.091666667,-0.396296296,0,0,0,,0,97,97,150,1,
,,,,,,,,,,,,,,,,,,5e8421d0df483e18852ff25e,2020-11-27_09h17.22.004,lexical_decision_task_MP_exp2,2020.2.5,Win32,60,,m,1,0.62311,,,,,,,,0.62311,1,,,,,,122,WORD,"ID",16,linger,LINGER,m,,,,,,0.091666667,-0.396296296,0,0,0,,0,98,98,61,1,
,,,,,,,,,,,,,,,,,,5e8421d0df483e18852ff25e,2020-11-27_09h17.22.004,lexical_decision_task_MP_exp2,2020.2.5,Win32,60,,m,1,0.535625,,,,,,,,0.535625,1,,,,,,220,WORD,UN,33,mascot,VOYAGE,m,,,,,,0.091666667,-0.396296296,0,0,0,,0,99,99,159,1,
,,,,,,,,,,,,,,,,,,5e8421d0df483e18852ff25e,2020-11-27_09h17.22.004,lexical_decision_task_MP_exp2,2020.2.5,Win32,60,,m,1,0.49975,,,,,,,,0.49975,1,,,,,,68,WORD,"ID",33,fumble,FUMBLE,m,,,,,,0.091666667,-0.396296296,0,0,0,,0,100,100,7,1,
,,,,,,,,,,,,,,,,,,5e8421d0df483e18852ff25e,2020-11-27_09h17.22.004,lexical_decision_task_MP_exp2,2020.2.5,Win32,60,,m,1,0.439835,,,,,,,,0.439835,1,,,,,,41,WORD,UN,16,chapel,SPRING,m,,,,,,0.091666667,-0.396296296,0,0,0,,0,101,101,220,1,
,,,,,,,,,,,,,,,,,,5e8421d0df483e18852ff25e,2020-11-27_09h17.22.004,lexical_decision_task_MP_exp2,2020.2.5,Win32,60,,m,1,0.60877,,,,,,,,0.60877,1,,,,,,26,WORD,UN,16,butler,SPRINT,m,,,,,,0.091666667,-0.396296296,0,0,0,,0,102,102,205,1,
,,,,,,,,,,,,,,,,,,5e8421d0df483e18852ff25e,2020-11-27_09h17.22.004,lexical_decision_task_MP_exp2,2020.2.5,Win32,60,,m,1,0.40315,,,,,,,,0.40315,1,,,,,,88,WORD,"ID",33,hunger,HUNGER,m,,,,,,0.091666667,-0.396296296,0,0,0,,0,103,103,27,1,
,,,,,,,,,,,,,,,,,,5e8421d0df483e18852ff25e,2020-11-27_09h17.22.004,lexical_decision_task_MP_exp2,2020.2.5,Win32,60,,m,1,0.548625,,,,,,,,0.548625,1,,,,,,192,WORD,UN,33,object,PLAGUE,m,,,,,,0.091666667,-0.396296296,0,0,0,,0,104,104,131,1,
,,,,,,,,,,,,,,,,,,5e8421d0df483e18852ff25e,2020-11-27_09h17.22.004,lexical_decision_task_MP_exp2,2020.2.5,Win32,60,,z,1,0.591985,,,,,,,,0.591985,1,,,,,,480,NW,UN,33,knisma,ROBULY,z,,,,,,0.091666667,-0.396296296,0,0,0,,0,105,105,419,1,
,,,,,,,,,,,,,,,,,,5e8421d0df483e18852ff25e,2020-11-27_09h17.22.004,lexical_decision_task_MP_exp2,2020.2.5,Win32,60,,m,1,0.47379,,,,,,,,0.47379,1,,,,,,185,WORD,UN,33,portal,BOTHER,m,,,,,,0.091666667,-0.396296296,0,0,0,,0,106,106,124,1,
,,,,,,,,,,,,,,,,,,5e8421d0df483e18852ff25e,2020-11-27_09h17.22.004,lexical_decision_task_MP_exp2,2020.2.5,Win32,60,,z,1,0.495255,,,,,,,,0.495255,1,,,,,,255,NW,UN,16,inlors,APIGHT,z,,,,,,0.091666667,-0.396296296,0,0,0,,0,107,107,434,1,
,,,,,,,,,,,,,,,,,,5e8421d0df483e18852ff25e,2020-11-27_09h17.22.004,lexical_decision_task_MP_exp2,2020.2.5,Win32,60,,m,1,0.55246,,,,,,,,0.55246,1,,,,,,79,WORD,"ID",33,theory,THEORY,m,,,,,,0.091666667,-0.396296296,0,0,0,,0,108,108,18,1,
,,,,,,,,,,,,,,,,,,5e8421d0df483e18852ff25e,2020-11-27_09h17.22.004,lexical_decision_task_MP_exp2,2020.2.5,Win32,60,,m,1,0.538095,,,,,,,,0.538095,1,,,,,,199,WORD,UN,33,plague,INVOKE,m,,,,,,0.091666667,-0.396296296,0,0,0,,0,109,109,138,1,
,,,,,,,,,,,,,,,,,,5e8421d0df483e18852ff25e,2020-11-27_09h17.22.004,lexical_decision_task_MP_exp2,2020.2.5,Win32,60,,m,1,0.453165,,,,,,,,0.453165,1,,,,,,29,WORD,UN,16,orient,SKETCH,m,,,,,,0.091666667,-0.396296296,0,0,0,,0,110,110,208,1,
,,,,,,,,,,,,,,,,,,5e8421d0df483e18852ff25e,2020-11-27_09h17.22.004,lexical_decision_task_MP_exp2,2020.2.5,Win32,60,,z,1,0.566265,,,,,,,,0.566265,1,,,,,,449,NW,UN,33,phrect,BRUNGE,z,,,,,,0.091666667,-0.396296296,0,0,0,,0,111,111,388,1,
,,,,,,,,,,,,,,,,,,5e8421d0df483e18852ff25e,2020-11-27_09h17.22.004,lexical_decision_task_MP_exp2,2020.2.5,Win32,60,,m,1,0.567955,,,,,,,,0.567955,1,,,,,,5,WORD,UN,16,bundle,PLUNGE,m,,,,,,0.091666667,-0.396296296,0,0,0,,0,112,112,184,1,
,,,,,,,,,,,,,,,,,,5e8421d0df483e18852ff25e,2020-11-27_09h17.22.004,lexical_decision_task_MP_exp2,2020.2.5,Win32,60,,z,1,0.53183,,,,,,,,0.53183,1,,,,,,445,NW,UN,33,runamo,MINKEL,z,,,,,,0.091666667,-0.396296296,0,0,0,,0,113,113,384,1,
,,,,,,,,,,,,,,,,,,5e8421d0df483e18852ff25e,2020-11-27_09h17.22.004,lexical_decision_task_MP_exp2,2020.2.5,Win32,60,,m,1,0.520235,,,,,,,,0.520235,1,,,,,,200,WORD,UN,33,admire,BEACON,m,,,,,,0.091666667,-0.396296296,0,0,0,,0,114,114,139,1,
,,,,,,,,,,,,,,,,,,5e8421d0df483e18852ff25e,2020-11-27_09h17.22.004,lexical_decision_task_MP_exp2,2020.2.5,Win32,60,,m,1,0.476775,,,,,,,,0.476775,1,,,,,,232,WORD,UN,33,nature,INJECT,m,,,,,,0.091666667,-0.396296296,0,0,0,,0,115,115,171,1,
,,,,,,,,,,,,,,,,,,5e8421d0df483e18852ff25e,2020-11-27_09h17.22.004,lexical_decision_task_MP_exp2,2020.2.5,Win32,60,,z,1,0.499215,,,,,,,,0.499215,1,,,,,,439,NW,UN,33,saride,LIMPOR,z,,,,,,0.091666667,-0.396296296,0,0,0,,0,116,116,378,1,
,,,,,,,,,,,,,,,,,,5e8421d0df483e18852ff25e,2020-11-27_09h17.22.004,lexical_decision_task_MP_exp2,2020.2.5,Win32,60,,z,1,0.84932,,,,,,,,0.84932,1,,,,,,299,NW,UN,16,yarion,STURCH,z,,,,,,0.091666667,-0.396296296,0,0,0,,0,117,117,478,1,
,,,,,,,,,,,,,,,,,,5e8421d0df483e18852ff25e,2020-11-27_09h17.22.004,lexical_decision_task_MP_exp2,2020.2.5,Win32,60,,z,1,0.75269,,,,,,,,0.75269,1,,,,,,426,NW,UN,33,schind,URIVEL,z,,,,,,0.091666667,-0.396296296,0,0,0,,0,118,118,365,1,
,,,,,,,,,,,,,,,,,,5e8421d0df483e18852ff25e,2020-11-27_09h17.22.004,lexical_decision_task_MP_exp2,2020.2.5,Win32,60,,m,1,0.50692,,,,,,,,0.50692,1,,,,,,164,WORD,"ID",16,market,MARKET,m,,,,,,0.091666667,-0.396296296,0,0,0,,0,119,119,103,1,
,,,,,,,,,,,,,,,,,,5e8421d0df483e18852ff25e,2020-11-27_09h17.22.004,lexical_decision_task_MP_exp2,2020.2.5,Win32,60,,m,1,0.570275,,,,,,,,0.570275,1,,,,,,72,WORD,"ID",33,bright,BRIGHT,m,,,,,,0.091666667,-0.396296296,0,0,0,space,0,120,120,11,1,43.012845
,,,,,,,,,,,,,,,,,,5e8421d0df483e18852ff25e,2020-11-27_09h17.22.004,lexical_decision_task_MP_exp2,2020.2.5,Win32,60,,m,0,0.65066,,,,,,,,0.65066,0,,,,,,266,NW,UN,16,pasink,VARMIT,z,,,,,,0.091666667,-0.396296296,0,0,0,,0,121,121,445,1,
,,,,,,,,,,,,,,,,,,5e8421d0df483e18852ff25e,2020-11-27_09h17.22.004,lexical_decision_task_MP_exp2,2020.2.5,Win32,60,,m,1,0.52337,,,,,,,,0.52337,1,,,,,,105,WORD,"ID",33,number,NUMBER,m,,,,,,0.091666667,-0.396296296,0,0,0,,0,122,122,44,1,
,,,,,,,,,,,,,,,,,,5e8421d0df483e18852ff25e,2020-11-27_09h17.22.004,lexical_decision_task_MP_exp2,2020.2.5,Win32,60,,z,1,0.96783,,,,,,,,0.96783,1,,,,,,324,NW,"ID",33,steikh,STEIKH,z,,,,,,0.091666667,-0.396296296,0,0,0,,0,123,123,263,1,
,,,,,,,,,,,,,,,,,,5e8421d0df483e18852ff25e,2020-11-27_09h17.22.004,lexical_decision_task_MP_exp2,2020.2.5,Win32,60,,m,1,0.554535,,,,,,,,0.554535,1,,,,,,198,WORD,UN,33,invoke,WICKED,m,,,,,,0.091666667,-0.396296296,0,0,0,,0,124,124,137,1,
,,,,,,,,,,,,,,,,,,5e8421d0df483e18852ff25e,2020-11-27_09h17.22.004,lexical_decision_task_MP_exp2,2020.2.5,Win32,60,,m,1,0.452555,,,,,,,,0.452555,1,,,,,,162,WORD,"ID",16,candle,CANDLE,m,,,,,,0.091666667,-0.396296296,0,0,0,,0,125,125,101,1,
,,,,,,,,,,,,,,,,,,5e8421d0df483e18852ff25e,2020-11-27_09h17.22.004,lexical_decision_task_MP_exp2,2020.2.5,Win32,60,,z,1,0.95691,,,,,,,,0.95691,1,,,,,,284,NW,UN,16,prudge,SHAPLE,z,,,,,,0.091666667,-0.396296296,0,0,0,,0,126,126,463,1,
,,,,,,,,,,,,,,,,,,5e8421d0df483e18852ff25e,2020-11-27_09h17.22.004,lexical_decision_task_MP_exp2,2020.2.5,Win32,60,,m,1,0.53035,,,,,,,,0.53035,1,,,,,,219,WORD,UN,33,voyage,BUCKET,m,,,,,,0.091666667,-0.396296296,0,0,0,,0,127,127,158,1,
,,,,,,,,,,,,,,,,,,5e8421d0df483e18852ff25e,2020-11-27_09h17.22.004,lexical_decision_task_MP_exp2,2020.2.5,Win32,60,,m,1,0.485655,,,,,,,,0.485655,1,,,,,,179,WORD,"ID",16,basket,BASKET,m,,,,,,0.091666667,-0.396296296,0,0,0,,0,128,128,118,1,
,,,,,,,,,,,,,,,,,,5e8421d0df483e18852ff25e,2020-11-27_09h17.22.004,lexical_decision_task_MP_exp2,2020.2.5,Win32,60,,z,1,0.597835,,,,,,,,0.597835,1,,,,,,479,NW,UN,33,crible,LOBUSH,z,,,,,,0.091666667,-0.396296296,0,0,0,,0,129,129,418,1,
,,,,,,,,,,,,,,,,,,5e8421d0df483e18852ff25e,2020-11-27_09h17.22.004,lexical_decision_task_MP_exp2,2020.2.5,Win32,60,,z,1,0.68646,,,,,,,,0.68646,1,,,,,,430,NW,UN,33,chrums,CAROEY,z,,,,,,0.091666667,-0.396296296,0,0,0,,0,130,130,369,1,
,,,,,,,,,,,,,,,,,,5e8421d0df483e18852ff25e,2020-11-27_09h17.22.004,lexical_decision_task_MP_exp2,2020.2.5,Win32,60,,m,1,0.548275,,,,,,,,0.548275,1,,,,,,114,WORD,"ID",33,placid,PLACID,m,,,,,,0.091666667,-0.396296296,0,0,0,,0,131,131,53,1,
,,,,,,,,,,,,,,,,,,5e8421d0df483e18852ff25e,2020-11-27_09h17.22.004,lexical_decision_task_MP_exp2,2020.2.5,Win32,60,,m,1,0.734685,,,,,,,,0.734685,1,,,,,,212,WORD,UN,33,squeal,VERIFY,m,,,,,,0.091666667,-0.396296296,0,0,0,,0,132,132,151,1,
,,,,,,,,,,,,,,,,,,5e8421d0df483e18852ff25e,2020-11-27_09h17.22.004,lexical_decision_task_MP_exp2,2020.2.5,Win32,60,,z,1,0.86627,,,,,,,,0.86627,1,,,,,,277,NW,UN,16,unighs,PETAIN,z,,,,,,0.091666667,-0.396296296,0,0,0,,0,133,133,456,1,
,,,,,,,,,,,,,,,,,,5e8421d0df483e18852ff25e,2020-11-27_09h17.22.004,lexical_decision_task_MP_exp2,2020.2.5,Win32,60,,m,1,0.64196,,,,,,,,0.64196,1,,,,,,134,WORD,"ID",16,staple,STAPLE,m,,,,,,0.091666667,-0.396296296,0,0,0,,0,134,134,73,1,
,,,,,,,,,,,,,,,,,,5e8421d0df483e18852ff25e,2020-11-27_09h17.22.004,lexical_decision_task_MP_exp2,2020.2.5,Win32,60,,m,1,0.474335,,,,,,,,0.474335,1,,,,,,128,WORD,"ID",16,senior,SENIOR,m,,,,,,0.091666667,-0.396296296,0,0,0,,0,135,135,67,1,
,,,,,,,,,,,,,,,,,,5e8421d0df483e18852ff25e,2020-11-27_09h17.22.004,lexical_decision_task_MP_exp2,2020.2.5,Win32,60,,m,0,0.458065,,,,,,,,0.458065,0,,,,,,265,NW,UN,16,varmit,DISTAR,z,,,,,,0.091666667,-0.396296296,0,0,0,,0,136,136,444,1,
,,,,,,,,,,,,,,,,,,5e8421d0df483e18852ff25e,2020-11-27_09h17.22.004,lexical_decision_task_MP_exp2,2020.2.5,Win32,60,,z,1,0.738495,,,,,,,,0.738495,1,,,,,,301,NW,"ID",33,fainch,FAINCH,z,,,,,,0.091666667,-0.396296296,0,0,0,,0,137,137,240,1,
,,,,,,,,,,,,,,,,,,5e8421d0df483e18852ff25e,2020-11-27_09h17.22.004,lexical_decision_task_MP_exp2,2020.2.5,Win32,60,,m,1,0.56012,,,,,,,,0.56012,1,,,,,,218,WORD,UN,33,bucket,SHRINK,m,,,,,,0.091666667,-0.396296296,0,0,0,,0,138,138,157,1,
,,,,,,,,,,,,,,,,,,5e8421d0df483e18852ff25e,2020-11-27_09h17.22.004,lexical_decision_task_MP_exp2,2020.2.5,Win32,60,,z,1,0.60129,,,,,,,,0.60129,1,,,,,,372,NW,"ID",16,ramily,RAMILY,z,,,,,,0.091666667,-0.396296296,0,0,0,,0,139,139,311,1,
,,,,,,,,,,,,,,,,,,5e8421d0df483e18852ff25e,2020-11-27_09h17.22.004,lexical_decision_task_MP_exp2,2020.2.5,Win32,60,,z,1,0.579035,,,,,,,,0.579035,1,,,,,,364,NW,"ID",16,impote,IMPOTE,z,,,,,,0.091666667,-0.396296296,0,0,0,,0,140,140,303,1,
,,,,,,,,,,,,,,,,,,5e8421d0df483e18852ff25e,2020-11-27_09h17.22.004,lexical_decision_task_MP_exp2,2020.2.5,Win32,60,,m,1,0.509805,,,,,,,,0.509805,1,,,,,,84,WORD,"ID",33,mortal,MORTAL,m,,,,,,0.091666667,-0.396296296,0,0,0,,0,141,141,23,1,
,,,,,,,,,,,,,,,,,,5e8421d0df483e18852ff25e,2020-11-27_09h17.22.004,lexical_decision_task_MP_exp2,2020.2.5,Win32,60,,z,1,0.52438,,,,,,,,0.52438,1,,,,,,350,NW,"ID",33,nagurs,NAGURS,z,,,,,,0.091666667,-0.396296296,0,0,0,,0,142,142,289,1,
,,,,,,,,,,,,,,,,,,5e8421d0df483e18852ff25e,2020-11-27_09h17.22.004,lexical_decision_task_MP_exp2,2020.2.5,Win32,60,,z,1,0.631415,,,,,,,,0.631415,1,,,,,,260,NW,UN,16,stunch,UNJECT,z,,,,,,0.091666667,-0.396296296,0,0,0,,0,143,143,439,1,
,,,,,,,,,,,,,,,,,,5e8421d0df483e18852ff25e,2020-11-27_09h17.22.004,lexical_decision_task_MP_exp2,2020.2.5,Win32,60,,m,1,0.577675,,,,,,,,0.577675,1,,,,,,216,WORD,UN,33,liquor,BEHALF,m,,,,,,0.091666667,-0.396296296,0,0,0,,0,144,144,155,1,
,,,,,,,,,,,,,,,,,,5e8421d0df483e18852ff25e,2020-11-27_09h17.22.004,lexical_decision_task_MP_exp2,2020.2.5,Win32,60,,z,1,0.5557,,,,,,,,0.5557,1,,,,,,464,NW,UN,33,whivex,CHAITE,z,,,,,,0.091666667,-0.396296296,0,0,0,,0,145,145,403,1,
,,,,,,,,,,,,,,,,,,5e8421d0df483e18852ff25e,2020-11-27_09h17.22.004,lexical_decision_task_MP_exp2,2020.2.5,Win32,60,,z,1,0.512755,,,,,,,,0.512755,1,,,,,,465,NW,UN,33,bafent,WHIVEX,z,,,,,,0.091666667,-0.396296296,0,0,0,,0,146,146,404,1,
,,,,,,,,,,,,,,,,,,5e8421d0df483e18852ff25e,2020-11-27_09h17.22.004,lexical_decision_task_MP_exp2,2020.2.5,Win32,60,,m,1,0.523925,,,,,,,,0.523925,1,,,,,,165,WORD,"ID",16,invest,INVEST,m,,,,,,0.091666667,-0.396296296,0,0,0,,0,147,147,104,1,
,,,,,,,,,,,,,,,,,,5e8421d0df483e18852ff25e,2020-11-27_09h17.22.004,lexical_decision_task_MP_exp2,2020.2.5,Win32,60,,m,1,0.737205,,,,,,,,0.737205,1,,,,,,74,WORD,"ID",33,plaque,PLAQUE,m,,,,,,0.091666667,-0.396296296,0,0,0,,0,148,148,13,1,
,,,,,,,,,,,,,,,,,,5e8421d0df483e18852ff25e,2020-11-27_09h17.22.004,lexical_decision_task_MP_exp2,2020.2.5,Win32,60,,z,1,0.637565,,,,,,,,0.637565,1,,,,,,448,NW,UN,33,brunge,SADENT,z,,,,,,0.091666667,-0.396296296,0,0,0,,0,149,149,387,1,
,,,,,,,,,,,,,,,,,,5e8421d0df483e18852ff25e,2020-11-27_09h17.22.004,lexical_decision_task_MP_exp2,2020.2.5,Win32,60,,m,1,0.517305,,,,,,,,0.517305,1,,,,,,90,WORD,"ID",33,relish,RELISH,m,,,,,,0.091666667,-0.396296296,0,0,0,,0,150,150,29,1,
,,,,,,,,,,,,,,,,,,5e8421d0df483e18852ff25e,2020-11-27_09h17.22.004,lexical_decision_task_MP_exp2,2020.2.5,Win32,60,,z,1,0.594135,,,,,,,,0.594135,1,,,,,,367,NW,"ID",16,slique,SLIQUE,z,,,,,,0.091666667,-0.396296296,0,0,0,,0,151,151,306,1,
,,,,,,,,,,,,,,,,,,5e8421d0df483e18852ff25e,2020-11-27_09h17.22.004,lexical_decision_task_MP_exp2,2020.2.5,Win32,60,,z,1,0.572035,,,,,,,,0.572035,1,,,,,,475,NW,UN,33,josted,PEBRIC,z,,,,,,0.091666667,-0.396296296,0,0,0,,0,152,152,414,1,
,,,,,,,,,,,,,,,,,,5e8421d0df483e18852ff25e,2020-11-27_09h17.22.004,lexical_decision_task_MP_exp2,2020.2.5,Win32,60,,m,1,0.526045,,,,,,,,0.526045,1,,,,,,17,WORD,UN,16,humble,CHARGE,m,,,,,,0.091666667,-0.396296296,0,0,0,,0,153,153,196,1,
,,,,,,,,,,,,,,,,,,5e8421d0df483e18852ff25e,2020-11-27_09h17.22.004,lexical_decision_task_MP_exp2,2020.2.5,Win32,60,,z,1,0.683275,,,,,,,,0.683275,1,,,,,,402,NW,"ID",16,syntic,SYNTIC,z,,,,,,0.091666667,-0.396296296,0,0,0,,0,154,154,341,1,
,,,,,,,,,,,,,,,,,,5e8421d0df483e18852ff25e,2020-11-27_09h17.22.004,lexical_decision_task_MP_exp2,2020.2.5,Win32,60,,z,1,0.650105,,,,,,,,0.650105,1,,,,,,316,NW,"ID",33,scregm,SCREGM,z,,,,,,0.091666667,-0.396296296,0,0,0,,0,155,155,255,1,
,,,,,,,,,,,,,,,,,,5e8421d0df483e18852ff25e,2020-11-27_09h17.22.004,lexical_decision_task_MP_exp2,2020.2.5,Win32,60,,z,1,0.65111,,,,,,,,0.65111,1,,,,,,320,NW,"ID",33,jockal,JOCKAL,z,,,,,,0.091666667,-0.396296296,0,0,0,,0,156,156,259,1,
,,,,,,,,,,,,,,,,,,5e8421d0df483e18852ff25e,2020-11-27_09h17.22.004,lexical_decision_task_MP_exp2,2020.2.5,Win32,60,,z,1,0.76925,,,,,,,,0.76925,1,,,,,,424,NW,UN,33,frudge,PRAILE,z,,,,,,0.091666667,-0.396296296,0,0,0,,0,157,157,363,1,
,,,,,,,,,,,,,,,,,,5e8421d0df483e18852ff25e,2020-11-27_09h17.22.004,lexical_decision_task_MP_exp2,2020.2.5,Win32,60,,m,1,0.546505,,,,,,,,0.546505,1,,,,,,8,WORD,UN,16,hustle,ABRUPT,m,,,,,,0.091666667,-0.396296296,0,0,0,,0,158,158,187,1,
,,,,,,,,,,,,,,,,,,5e8421d0df483e18852ff25e,2020-11-27_09h17.22.004,lexical_decision_task_MP_exp2,2020.2.5,Win32,60,,z,1,0.47983,,,,,,,,0.47983,1,,,,,,428,NW,UN,33,funtle,TANDLY,z,,,,,,0.091666667,-0.396296296,0,0,0,,0,159,159,367,1,
,,,,,,,,,,,,,,,,,,5e8421d0df483e18852ff25e,2020-11-27_09h17.22.004,lexical_decision_task_MP_exp2,2020.2.5,Win32,60,,z,1,0.62031,,,,,,,,0.62031,1,,,,,,297,NW,UN,16,piergy,FERTIC,z,,,,,,0.091666667,-0.396296296,0,0,0,,0,160,160,476,1,
,,,,,,,,,,,,,,,,,,5e8421d0df483e18852ff25e,2020-11-27_09h17.22.004,lexical_decision_task_MP_exp2,2020.2.5,Win32,60,,m,1,0.550825,,,,,,,,0.550825,1,,,,,,59,WORD,UN,16,pencil,SPLINT,m,,,,,,0.091666667,-0.396296296,0,0,0,,0,161,161,238,1,
,,,,,,,,,,,,,,,,,,5e8421d0df483e18852ff25e,2020-11-27_09h17.22.004,lexical_decision_task_MP_exp2,2020.2.5,Win32,60,,m,1,0.46714,,,,,,,,0.46714,1,,,,,,70,WORD,"ID",33,square,SQUARE,m,,,,,,0.091666667,-0.396296296,0,0,0,,0,162,162,9,1,
,,,,,,,,,,,,,,,,,,5e8421d0df483e18852ff25e,2020-11-27_09h17.22.004,lexical_decision_task_MP_exp2,2020.2.5,Win32,60,,z,1,0.5782,,,,,,,,0.5782,1,,,,,,332,NW,"ID",33,vangue,VANGUE,z,,,,,,0.091666667,-0.396296296,0,0,0,,0,163,163,271,1,
,,,,,,,,,,,,,,,,,,5e8421d0df483e18852ff25e,2020-11-27_09h17.22.004,lexical_decision_task_MP_exp2,2020.2.5,Win32,60,,m,1,0.64503,,,,,,,,0.64503,1,,,,,,158,WORD,"ID",16,island,ISLAND,m,,,,,,0.091666667,-0.396296296,0,0,0,,0,164,164,97,1,
,,,,,,,,,,,,,,,,,,5e8421d0df483e18852ff25e,2020-11-27_09h17.22.004,lexical_decision_task_MP_exp2,2020.2.5,Win32,60,,m,1,0.5091,,,,,,,,0.5091,1,,,,,,138,WORD,"ID",16,melody,MELODY,m,,,,,,0.091666667,-0.396296296,0,0,0,,0,165,165,77,1,
,,,,,,,,,,,,,,,,,,5e8421d0df483e18852ff25e,2020-11-27_09h17.22.004,lexical_decision_task_MP_exp2,2020.2.5,Win32,60,,m,1,0.779515,,,,,,,,0.779515,1,,,,,,77,WORD,"ID",33,racket,RACKET,m,,,,,,0.091666667,-0.396296296,0,0,0,,0,166,166,16,1,
,,,,,,,,,,,,,,,,,,5e8421d0df483e18852ff25e,2020-11-27_09h17.22.004,lexical_decision_task_MP_exp2,2020.2.5,Win32,60,,m,1,0.459545,,,,,,,,0.459545,1,,,,,,32,WORD,UN,16,scream,BUCKLE,m,,,,,,0.091666667,-0.396296296,0,0,0,,0,167,167,211,1,
,,,,,,,,,,,,,,,,,,5e8421d0df483e18852ff25e,2020-11-27_09h17.22.004,lexical_decision_task_MP_exp2,2020.2.5,Win32,60,,m,1,0.61954,,,,,,,,0.61954,1,,,,,,19,WORD,UN,16,breast,PATRON,m,,,,,,0.091666667,-0.396296296,0,0,0,,0,168,168,198,1,
,,,,,,,,,,,,,,,,,,5e8421d0df483e18852ff25e,2020-11-27_09h17.22.004,lexical_decision_task_MP_exp2,2020.2.5,Win32,60,,m,1,0.524555,,,,,,,,0.524555,1,,,,,,40,WORD,UN,16,spring,CONVEY,m,,,,,,0.091666667,-0.396296296,0,0,0,,0,169,169,219,1,
,,,,,,,,,,,,,,,,,,5e8421d0df483e18852ff25e,2020-11-27_09h17.22.004,lexical_decision_task_MP_exp2,2020.2.5,Win32,60,,m,1,0.432965,,,,,,,,0.432965,1,,,,,,55,WORD,UN,16,ambush,STROKE,m,,,,,,0.091666667,-0.396296296,0,0,0,,0,170,170,234,1,
,,,,,,,,,,,,,,,,,,5e8421d0df483e18852ff25e,2020-11-27_09h17.22.004,lexical_decision_task_MP_exp2,2020.2.5,Win32,60,,m,1,1.171155,,,,,,,,1.171155,1,,,,,,228,WORD,UN,33,kidney,MASTER,m,,,,,,0.091666667,-0.396296296,0,0,0,,0,171,171,167,1,
,,,,,,,,,,,,,,,,,,5e8421d0df483e18852ff25e,2020-11-27_09h17.22.004,lexical_decision_task_MP_exp2,2020.2.5,Win32,60,,m,1,0.47047,,,,,,,,0.47047,1,,,,,,56,WORD,UN,16,change,AMBUSH,m,,,,,,0.091666667,-0.396296296,0,0,0,,0,172,172,235,1,
,,,,,,,,,,,,,,,,,,5e8421d0df483e18852ff25e,2020-11-27_09h17.22.004,lexical_decision_task_MP_exp2,2020.2.5,Win32,60,,z,1,0.57351,,,,,,,,0.57351,1,,,,,,269,NW,UN,16,wrimsy,ORCHET,z,,,,,,0.091666667,-0.396296296,0,0,0,,0,173,173,448,1,
,,,,,,,,,,,,,,,,,,5e8421d0df483e18852ff25e,2020-11-27_09h17.22.004,lexical_decision_task_MP_exp2,2020.2.5,Win32,60,,m,1,0.52238,,,,,,,,0.52238,1,,,,,,133,WORD,"ID",16,chrome,CHROME,m,,,,,,0.091666667,-0.396296296,0,0,0,,0,174,174,72,1,
,,,,,,,,,,,,,,,,,,5e8421d0df483e18852ff25e,2020-11-27_09h17.22.004,lexical_decision_task_MP_exp2,2020.2.5,Win32,60,,m,1,0.46275,,,,,,,,0.46275,1,,,,,,71,WORD,"ID",33,garden,GARDEN,m,,,,,,0.091666667,-0.396296296,0,0,0,,0,175,175,10,1,
,,,,,,,,,,,,,,,,,,5e8421d0df483e18852ff25e,2020-11-27_09h17.22.004,lexical_decision_task_MP_exp2,2020.2.5,Win32,60,,m,1,0.444165,,,,,,,,0.444165,1,,,,,,51,WORD,UN,16,impose,HUNGRY,m,,,,,,0.091666667,-0.396296296,0,0,0,,0,176,176,230,1,
,,,,,,,,,,,,,,,,,,5e8421d0df483e18852ff25e,2020-11-27_09h17.22.004,lexical_decision_task_MP_exp2,2020.2.5,Win32,60,,z,1,0.707425,,,,,,,,0.707425,1,,,,,,401,NW,"ID",16,mustil,MUSTIL,z,,,,,,0.091666667,-0.396296296,0,0,0,,0,177,177,340,1,
,,,,,,,,,,,,,,,,,,5e8421d0df483e18852ff25e,2020-11-27_09h17.22.004,lexical_decision_task_MP_exp2,2020.2.5,Win32,60,,m,1,0.62672,,,,,,,,0.62672,1,,,,,,233,WORD,UN,33,clumsy,NATURE,m,,,,,,0.091666667,-0.396296296,0,0,0,,0,178,178,172,1,
,,,,,,,,,,,,,,,,,,5e8421d0df483e18852ff25e,2020-11-27_09h17.22.004,lexical_decision_task_MP_exp2,2020.2.5,Win32,60,,m,1,0.507555,,,,,,,,0.507555,1,,,,,,237,WORD,UN,33,glance,POSTER,m,,,,,,0.091666667,-0.396296296,0,0,0,,0,179,179,176,1,
,,,,,,,,,,,,,,,,,,5e8421d0df483e18852ff25e,2020-11-27_09h17.22.004,lexical_decision_task_MP_exp2,2020.2.5,Win32,60,,m,1,0.54543,,,,,,,,0.54543,1,,,,,,58,WORD,UN,16,splint,FOSTER,m,,,,,,0.091666667,-0.396296296,0,0,0,,0,180,180,237,1,
,,,,,,,,,,,,,,,,,,5e8421d0df483e18852ff25e,2020-11-27_09h17.22.004,lexical_decision_task_MP_exp2,2020.2.5,Win32,60,,m,1,0.645205,,,,,,,,0.645205,1,,,,,,4,WORD,UN,16,plunge,TRENCH,m,,,,,,0.091666667,-0.396296296,0,0,0,,0,181,181,183,1,
,,,,,,,,,,,,,,,,,,5e8421d0df483e18852ff25e,2020-11-27_09h17.22.004,lexical_decision_task_MP_exp2,2020.2.5,Win32,60,,m,0,0.532815,,,,,,,,0.532815,0,,,,,,303,NW,"ID",33,fiream,FIREAM,z,,,,,,0.091666667,-0.396296296,0,0,0,,0,182,182,242,1,
,,,,,,,,,,,,,,,,,,5e8421d0df483e18852ff25e,2020-11-27_09h17.22.004,lexical_decision_task_MP_exp2,2020.2.5,Win32,60,,z,1,1.089635,,,,,,,,1.089635,1,,,,,,279,NW,UN,16,curbol,CELOND,z,,,,,,0.091666667,-0.396296296,0,0,0,,0,183,183,458,1,
,,,,,,,,,,,,,,,,,,5e8421d0df483e18852ff25e,2020-11-27_09h17.22.004,lexical_decision_task_MP_exp2,2020.2.5,Win32,60,,m,1,0.512245,,,,,,,,0.512245,1,,,,,,93,WORD,"ID",33,public,PUBLIC,m,,,,,,0.091666667,-0.396296296,0,0,0,,0,184,184,32,1,
,,,,,,,,,,,,,,,,,,5e8421d0df483e18852ff25e,2020-11-27_09h17.22.004,lexical_decision_task_MP_exp2,2020.2.5,Win32,60,,m,1,0.475505,,,,,,,,0.475505,1,,,,,,151,WORD,"ID",16,mystic,MYSTIC,m,,,,,,0.091666667,-0.396296296,0,0,0,,0,185,185,90,1,
,,,,,,,,,,,,,,,,,,5e8421d0df483e18852ff25e,2020-11-27_09h17.22.004,lexical_decision_task_MP_exp2,2020.2.5,Win32,60,,m,1,0.512625,,,,,,,,0.512625,1,,,,,,113,WORD,"ID",33,chorus,CHORUS,m,,,,,,0.091666667,-0.396296296,0,0,0,,0,186,186,52,1,
,,,,,,,,,,,,,,,,,,5e8421d0df483e18852ff25e,2020-11-27_09h17.22.004,lexical_decision_task_MP_exp2,2020.2.5,Win32,60,,m,1,1.007175,,,,,,,,1.007175,1,,,,,,125,WORD,"ID",16,nickel,NICKEL,m,,,,,,0.091666667,-0.396296296,0,0,0,,0,187,187,64,1,
,,,,,,,,,,,,,,,,,,5e8421d0df483e18852ff25e,2020-11-27_09h17.22.004,lexical_decision_task_MP_exp2,2020.2.5,Win32,60,,z,1,0.65042,,,,,,,,0.65042,1,,,,,,306,NW,"ID",33,sounge,SOUNGE,z,,,,,,0.091666667,-0.396296296,0,0,0,,0,188,188,245,1,
,,,,,,,,,,,,,,,,,,5e8421d0df483e18852ff25e,2020-11-27_09h17.22.004,lexical_decision_task_MP_exp2,2020.2.5,Win32,60,,z,1,0.528535,,,,,,,,0.528535,1,,,,,,370,NW,"ID",16,sleact,SLEACT,z,,,,,,0.091666667,-0.396296296,0,0,0,,0,189,189,309,1,
,,,,,,,,,,,,,,,,,,5e8421d0df483e18852ff25e,2020-11-27_09h17.22.004,lexical_decision_task_MP_exp2,2020.2.5,Win32,60,,m,1,0.56576,,,,,,,,0.56576,1,,,,,,170,WORD,"ID",16,pounce,POUNCE,m,,,,,,0.091666667,-0.396296296,0,0,0,,0,190,190,109,1,
,,,,,,,,,,,,,,,,,,5e8421d0df483e18852ff25e,2020-11-27_09h17.22.004,lexical_decision_task_MP_exp2,2020.2.5,Win32,60,,m,0,0.6332,,,,,,,,0.6332,0,,,,,,398,NW,"ID",16,blunde,BLUNDE,z,,,,,,0.091666667,-0.396296296,0,0,0,,0,191,191,337,1,
,,,,,,,,,,,,,,,,,,5e8421d0df483e18852ff25e,2020-11-27_09h17.22.004,lexical_decision_task_MP_exp2,2020.2.5,Win32,60,,z,1,0.59619,,,,,,,,0.59619,1,,,,,,323,NW,"ID",33,rosail,ROSAIL,z,,,,,,0.091666667,-0.396296296,0,0,0,,0,192,192,262,1,
,,,,,,,,,,,,,,,,,,5e8421d0df483e18852ff25e,2020-11-27_09h17.22.004,lexical_decision_task_MP_exp2,2020.2.5,Win32,60,,m,1,0.76312,,,,,,,,0.76312,1,,,,,,47,WORD,UN,16,walnut,INCOME,m,,,,,,0.091666667,-0.396296296,0,0,0,,0,193,193,226,1,
,,,,,,,,,,,,,,,,,,5e8421d0df483e18852ff25e,2020-11-27_09h17.22.004,lexical_decision_task_MP_exp2,2020.2.5,Win32,60,,z,1,0.669805,,,,,,,,0.669805,1,,,,,,253,NW,UN,16,varosh,RESAIT,z,,,,,,0.091666667,-0.396296296,0,0,0,,0,194,194,432,1,
,,,,,,,,,,,,,,,,,,5e8421d0df483e18852ff25e,2020-11-27_09h17.22.004,lexical_decision_task_MP_exp2,2020.2.5,Win32,60,,m,1,0.51842,,,,,,,,0.51842,1,,,,,,102,WORD,"ID",33,direct,DIRECT,m,,,,,,0.091666667,-0.396296296,0,0,0,,0,195,195,41,1,
,,,,,,,,,,,,,,,,,,5e8421d0df483e18852ff25e,2020-11-27_09h17.22.004,lexical_decision_task_MP_exp2,2020.2.5,Win32,60,,m,1,0.54715,,,,,,,,0.54715,1,,,,,,82,WORD,"ID",33,stigma,STIGMA,m,,,,,,0.091666667,-0.396296296,0,0,0,,0,196,196,21,1,
,,,,,,,,,,,,,,,,,,5e8421d0df483e18852ff25e,2020-11-27_09h17.22.004,lexical_decision_task_MP_exp2,2020.2.5,Win32,60,,m,1,0.62863,,,,,,,,0.62863,1,,,,,,30,WORD,UN,16,weapon,ORIENT,m,,,,,,0.091666667,-0.396296296,0,0,0,,0,197,197,209,1,
,,,,,,,,,,,,,,,,,,5e8421d0df483e18852ff25e,2020-11-27_09h17.22.004,lexical_decision_task_MP_exp2,2020.2.5,Win32,60,,z,1,0.59772,,,,,,,,0.59772,1,,,,,,400,NW,"ID",16,wearox,WEAROX,z,,,,,,0.091666667,-0.396296296,0,0,0,,0,198,198,339,1,
,,,,,,,,,,,,,,,,,,5e8421d0df483e18852ff25e,2020-11-27_09h17.22.004,lexical_decision_task_MP_exp2,2020.2.5,Win32,60,,z,1,0.4643,,,,,,,,0.4643,1,,,,,,394,NW,"ID",16,spaqux,SPAQUX,z,,,,,,0.091666667,-0.396296296,0,0,0,,0,199,199,333,1,
,,,,,,,,,,,,,,,,,,5e8421d0df483e18852ff25e,2020-11-27_09h17.22.004,lexical_decision_task_MP_exp2,2020.2.5,Win32,60,,z,1,0.68809,,,,,,,,0.68809,1,,,,,,271,NW,UN,16,damilt,AUBRID,z,,,,,,0.091666667,-0.396296296,0,0,0,,0,200,200,450,1,
,,,,,,,,,,,,,,,,,,5e8421d0df483e18852ff25e,2020-11-27_09h17.22.004,lexical_decision_task_MP_exp2,2020.2.5,Win32,60,,m,1,0.575835,,,,,,,,0.575835,1,,,,,,159,WORD,"ID",16,detail,DETAIL,m,,,,,,0.091666667,-0.396296296,0,0,0,,0,201,201,98,1,
,,,,,,,,,,,,,,,,,,5e8421d0df483e18852ff25e,2020-11-27_09h17.22.004,lexical_decision_task_MP_exp2,2020.2.5,Win32,60,,m,1,0.74667,,,,,,,,0.74667,1,,,,,,195,WORD,UN,33,credit,RESIGN,m,,,,,,0.091666667,-0.396296296,0,0,0,,0,202,202,134,1,
,,,,,,,,,,,,,,,,,,5e8421d0df483e18852ff25e,2020-11-27_09h17.22.004,lexical_decision_task_MP_exp2,2020.2.5,Win32,60,,z,1,0.620675,,,,,,,,0.620675,1,,,,,,438,NW,UN,33,limpor,BAITCH,z,,,,,,0.091666667,-0.396296296,0,0,0,,0,203,203,377,1,
,,,,,,,,,,,,,,,,,,5e8421d0df483e18852ff25e,2020-11-27_09h17.22.004,lexical_decision_task_MP_exp2,2020.2.5,Win32,60,,m,1,0.445215,,,,,,,,0.445215,1,,,,,,173,WORD,"ID",16,shower,SHOWER,m,,,,,,0.091666667,-0.396296296,0,0,0,,0,204,204,112,1,
,,,,,,,,,,,,,,,,,,5e8421d0df483e18852ff25e,2020-11-27_09h17.22.004,lexical_decision_task_MP_exp2,2020.2.5,Win32,60,,m,1,0.758255,,,,,,,,0.758255,1,,,,,,73,WORD,"ID",33,source,SOURCE,m,,,,,,0.091666667,-0.396296296,0,0,0,,0,205,205,12,1,
,,,,,,,,,,,,,,,,,,5e8421d0df483e18852ff25e,2020-11-27_09h17.22.004,lexical_decision_task_MP_exp2,2020.2.5,Win32,60,,m,1,0.44863,,,,,,,,0.44863,1,,,,,,11,WORD,UN,16,amount,CRUISE,m,,,,,,0.091666667,-0.396296296,0,0,0,,0,206,206,190,1,
,,,,,,,,,,,,,,,,,,5e8421d0df483e18852ff25e,2020-11-27_09h17.22.004,lexical_decision_task_MP_exp2,2020.2.5,Win32,60,,m,1,0.751985,,,,,,,,0.751985,1,,,,,,131,WORD,"ID",16,quench,QUENCH,m,,,,,,0.091666667,-0.396296296,0,0,0,,0,207,207,70,1,
,,,,,,,,,,,,,,,,,,5e8421d0df483e18852ff25e,2020-11-27_09h17.22.004,lexical_decision_task_MP_exp2,2020.2.5,Win32,60,,z,1,0.54149,,,,,,,,0.54149,1,,,,,,455,NW,UN,33,broget,TONDLE,z,,,,,,0.091666667,-0.396296296,0,0,0,,0,208,208,394,1,
,,,,,,,,,,,,,,,,,,5e8421d0df483e18852ff25e,2020-11-27_09h17.22.004,lexical_decision_task_MP_exp2,2020.2.5,Win32,60,,m,1,0.577865,,,,,,,,0.577865,1,,,,,,231,WORD,UN,33,inject,EXPORT,m,,,,,,0.091666667,-0.396296296,0,0,0,,0,209,209,170,1,
,,,,,,,,,,,,,,,,,,5e8421d0df483e18852ff25e,2020-11-27_09h17.22.004,lexical_decision_task_MP_exp2,2020.2.5,Win32,60,,m,1,0.469475,,,,,,,,0.469475,1,,,,,,13,WORD,UN,16,almost,STRIVE,m,,,,,,0.091666667,-0.396296296,0,0,0,,0,210,210,192,1,
,,,,,,,,,,,,,,,,,,5e8421d0df483e18852ff25e,2020-11-27_09h17.22.004,lexical_decision_task_MP_exp2,2020.2.5,Win32,60,,m,1,0.49985,,,,,,,,0.49985,1,,,,,,62,WORD,"ID",33,region,REGION,m,,,,,,0.091666667,-0.396296296,0,0,0,,0,211,211,1,1,
,,,,,,,,,,,,,,,,,,5e8421d0df483e18852ff25e,2020-11-27_09h17.22.004,lexical_decision_task_MP_exp2,2020.2.5,Win32,60,,z,1,0.61602,,,,,,,,0.61602,1,,,,,,462,NW,UN,33,kispel,ABSULT,z,,,,,,0.091666667,-0.396296296,0,0,0,,0,212,212,401,1,
,,,,,,,,,,,,,,,,,,5e8421d0df483e18852ff25e,2020-11-27_09h17.22.004,lexical_decision_task_MP_exp2,2020.2.5,Win32,60,,m,1,0.520735,,,,,,,,0.520735,1,,,,,,67,WORD,"ID",33,policy,POLICY,m,,,,,,0.091666667,-0.396296296,0,0,0,,0,213,213,6,1,
,,,,,,,,,,,,,,,,,,5e8421d0df483e18852ff25e,2020-11-27_09h17.22.004,lexical_decision_task_MP_exp2,2020.2.5,Win32,60,,m,1,0.653715,,,,,,,,0.653715,1,,,,,,184,WORD,UN,33,bother,SLEAZY,m,,,,,,0.091666667,-0.396296296,0,0,0,,0,214,214,123,1,
,,,,,,,,,,,,,,,,,,5e8421d0df483e18852ff25e,2020-11-27_09h17.22.004,lexical_decision_task_MP_exp2,2020.2.5,Win32,60,,z,1,0.65315,,,,,,,,0.65315,1,,,,,,330,NW,"ID",33,kensom,KENSOM,z,,,,,,0.091666667,-0.396296296,0,0,0,,0,215,215,269,1,
,,,,,,,,,,,,,,,,,,5e8421d0df483e18852ff25e,2020-11-27_09h17.22.004,lexical_decision_task_MP_exp2,2020.2.5,Win32,60,,z,1,0.58689,,,,,,,,0.58689,1,,,,,,282,NW,UN,16,veralf,PORLEX,z,,,,,,0.091666667,-0.396296296,0,0,0,,0,216,216,461,1,
,,,,,,,,,,,,,,,,,,5e8421d0df483e18852ff25e,2020-11-27_09h17.22.004,lexical_decision_task_MP_exp2,2020.2.5,Win32,60,,m,0,0.55846,,,,,,,,0.55846,0,,,,,,417,NW,"ID",16,earoud,EAROUD,z,,,,,,0.091666667,-0.396296296,0,0,0,,0,217,217,356,1,
,,,,,,,,,,,,,,,,,,5e8421d0df483e18852ff25e,2020-11-27_09h17.22.004,lexical_decision_task_MP_exp2,2020.2.5,Win32,60,,m,1,0.899225,,,,,,,,0.899225,1,,,,,,120,WORD,"ID",33,strain,STRAIN,m,,,,,,0.091666667,-0.396296296,0,0,0,,0,218,218,59,1,
,,,,,,,,,,,,,,,,,,5e8421d0df483e18852ff25e,2020-11-27_09h17.22.004,lexical_decision_task_MP_exp2,2020.2.5,Win32,60,,m,1,0.50505,,,,,,,,0.50505,1,,,,,,137,WORD,"ID",16,finger,FINGER,m,,,,,,0.091666667,-0.396296296,0,0,0,,0,219,219,76,1,
,,,,,,,,,,,,,,,,,,5e8421d0df483e18852ff25e,2020-11-27_09h17.22.004,lexical_decision_task_MP_exp2,2020.2.5,Win32,60,,z,1,0.614345,,,,,,,,0.614345,1,,,,,,396,NW,"ID",16,flengy,FLENGY,z,,,,,,0.091666667,-0.396296296,0,0,0,,0,220,220,335,1,
,,,,,,,,,,,,,,,,,,5e8421d0df483e18852ff25e,2020-11-27_09h17.22.004,lexical_decision_task_MP_exp2,2020.2.5,Win32,60,,m,1,0.647395,,,,,,,,0.647395,1,,,,,,171,WORD,"ID",16,depart,DEPART,m,,,,,,0.091666667,-0.396296296,0,0,0,,0,221,221,110,1,
,,,,,,,,,,,,,,,,,,5e8421d0df483e18852ff25e,2020-11-27_09h17.22.004,lexical_decision_task_MP_exp2,2020.2.5,Win32,60,,m,1,0.448475,,,,,,,,0.448475,1,,,,,,106,WORD,"ID",33,ransom,RANSOM,m,,,,,,0.091666667,-0.396296296,0,0,0,,0,222,222,45,1,
,,,,,,,,,,,,,,,,,,5e8421d0df483e18852ff25e,2020-11-27_09h17.22.004,lexical_decision_task_MP_exp2,2020.2.5,Win32,60,,m,1,0.487875,,,,,,,,0.487875,1,,,,,,201,WORD,UN,33,factor,ADMIRE,m,,,,,,0.091666667,-0.396296296,0,0,0,,0,223,223,140,1,
,,,,,,,,,,,,,,,,,,5e8421d0df483e18852ff25e,2020-11-27_09h17.22.004,lexical_decision_task_MP_exp2,2020.2.5,Win32,60,,z,1,0.565015,,,,,,,,0.565015,1,,,,,,312,NW,"ID",33,nerawl,NERAWL,z,,,,,,0.091666667,-0.396296296,0,0,0,,0,224,224,251,1,
,,,,,,,,,,,,,,,,,,5e8421d0df483e18852ff25e,2020-11-27_09h17.22.004,lexical_decision_task_MP_exp2,2020.2.5,Win32,60,,z,1,0.68051,,,,,,,,0.68051,1,,,,,,452,NW,UN,33,bolvis,SURDEN,z,,,,,,0.091666667,-0.396296296,0,0,0,,0,225,225,391,1,
,,,,,,,,,,,,,,,,,,5e8421d0df483e18852ff25e,2020-11-27_09h17.22.004,lexical_decision_task_MP_exp2,2020.2.5,Win32,60,,z,1,0.78093,,,,,,,,0.78093,1,,,,,,243,NW,UN,16,eatric,MUSIED,z,,,,,,0.091666667,-0.396296296,0,0,0,,0,226,226,422,1,
,,,,,,,,,,,,,,,,,,5e8421d0df483e18852ff25e,2020-11-27_09h17.22.004,lexical_decision_task_MP_exp2,2020.2.5,Win32,60,,z,1,0.560785,,,,,,,,0.560785,1,,,,,,326,NW,"ID",33,iguade,IGUADE,z,,,,,,0.091666667,-0.396296296,0,0,0,,0,227,227,265,1,
,,,,,,,,,,,,,,,,,,5e8421d0df483e18852ff25e,2020-11-27_09h17.22.004,lexical_decision_task_MP_exp2,2020.2.5,Win32,60,,z,1,0.435625,,,,,,,,0.435625,1,,,,,,393,NW,"ID",16,ganous,GANOUS,z,,,,,,0.091666667,-0.396296296,0,0,0,,0,228,228,332,1,
,,,,,,,,,,,,,,,,,,5e8421d0df483e18852ff25e,2020-11-27_09h17.22.004,lexical_decision_task_MP_exp2,2020.2.5,Win32,60,,z,1,0.524165,,,,,,,,0.524165,1,,,,,,385,NW,"ID",16,veigma,VEIGMA,z,,,,,,0.091666667,-0.396296296,0,0,0,,0,229,229,324,1,
,,,,,,,,,,,,,,,,,,5e8421d0df483e18852ff25e,2020-11-27_09h17.22.004,lexical_decision_task_MP_exp2,2020.2.5,Win32,60,,m,1,0.506065,,,,,,,,0.506065,1,,,,,,78,WORD,"ID",33,column,COLUMN,m,,,,,,0.091666667,-0.396296296,0,0,0,,0,230,230,17,1,
,,,,,,,,,,,,,,,,,,5e8421d0df483e18852ff25e,2020-11-27_09h17.22.004,lexical_decision_task_MP_exp2,2020.2.5,Win32,60,,z,1,0.56556,,,,,,,,0.56556,1,,,,,,410,NW,"ID",16,tunory,TUNORY,z,,,,,,0.091666667,-0.396296296,0,0,0,,0,231,231,349,1,
,,,,,,,,,,,,,,,,,,5e8421d0df483e18852ff25e,2020-11-27_09h17.22.004,lexical_decision_task_MP_exp2,2020.2.5,Win32,60,,m,1,0.706255,,,,,,,,0.706255,1,,,,,,24,WORD,UN,16,domain,PRAISE,m,,,,,,0.091666667,-0.396296296,0,0,0,,0,232,232,203,1,
,,,,,,,,,,,,,,,,,,5e8421d0df483e18852ff25e,2020-11-27_09h17.22.004,lexical_decision_task_MP_exp2,2020.2.5,Win32,60,,m,1,0.52955,,,,,,,,0.52955,1,,,,,,202,WORD,UN,33,phrase,FACTOR,m,,,,,,0.091666667,-0.396296296,0,0,0,,0,233,233,141,1,
,,,,,,,,,,,,,,,,,,5e8421d0df483e18852ff25e,2020-11-27_09h17.22.004,lexical_decision_task_MP_exp2,2020.2.5,Win32,60,,m,1,0.507185,,,,,,,,0.507185,1,,,,,,22,WORD,UN,16,wealth,JOCKEY,m,,,,,,0.091666667,-0.396296296,0,0,0,,0,234,234,201,1,
,,,,,,,,,,,,,,,,,,5e8421d0df483e18852ff25e,2020-11-27_09h17.22.004,lexical_decision_task_MP_exp2,2020.2.5,Win32,60,,m,1,0.47433,,,,,,,,0.47433,1,,,,,,189,WORD,UN,33,backup,CENSOR,m,,,,,,0.091666667,-0.396296296,0,0,0,,0,235,235,128,1,
,,,,,,,,,,,,,,,,,,5e8421d0df483e18852ff25e,2020-11-27_09h17.22.004,lexical_decision_task_MP_exp2,2020.2.5,Win32,60,,z,1,0.57749,,,,,,,,0.57749,1,,,,,,387,NW,"ID",16,gronce,GRONCE,z,,,,,,0.091666667,-0.396296296,0,0,0,,0,236,236,326,1,
,,,,,,,,,,,,,,,,,,5e8421d0df483e18852ff25e,2020-11-27_09h17.22.004,lexical_decision_task_MP_exp2,2020.2.5,Win32,60,,z,1,0.579905,,,,,,,,0.579905,1,,,,,,450,NW,UN,33,cainky,PHRECT,z,,,,,,0.091666667,-0.396296296,0,0,0,,0,237,237,389,1,
,,,,,,,,,,,,,,,,,,5e8421d0df483e18852ff25e,2020-11-27_09h17.22.004,lexical_decision_task_MP_exp2,2020.2.5,Win32,60,,m,1,0.63905,,,,,,,,0.63905,1,,,,,,117,WORD,"ID",33,branch,BRANCH,m,,,,,,0.091666667,-0.396296296,0,0,0,,0,238,238,56,1,
,,,,,,,,,,,,,,,,,,5e8421d0df483e18852ff25e,2020-11-27_09h17.22.004,lexical_decision_task_MP_exp2,2020.2.5,Win32,60,,m,1,0.508875,,,,,,,,0.508875,1,,,,,,143,WORD,"ID",16,reason,REASON,m,,,,,,0.091666667,-0.396296296,0,0,0,,0,239,239,82,1,
,,,,,,,,,,,,,,,,,,5e8421d0df483e18852ff25e,2020-11-27_09h17.22.004,lexical_decision_task_MP_exp2,2020.2.5,Win32,60,,m,1,0.44417,,,,,,,,0.44417,1,,,,,,182,WORD,UN,33,absent,WINTER,m,,,,,,0.091666667,-0.396296296,0,0,0,,0,240,240,121,1,
,,,,,,,,,,,,,,,,,,5e8421d0df483e18852ff25e,2020-11-27_09h17.22.004,lexical_decision_task_MP_exp2,2020.2.5,Win32,60,,z,1,0.611185,,,,,,,,0.611185,1,,,,,,286,NW,UN,16,nymbel,RELDON,z,,,,,,0.091666667,-0.396296296,0,0,0,space,0,241,241,465,1,0.69218
,,,,,,,,,,,,,,,,,,5e8421d0df483e18852ff25e,2020-11-27_09h17.22.004,lexical_decision_task_MP_exp2,2020.2.5,Win32,60,,z,1,0.568685,,,,,,,,0.568685,1,,,,,,368,NW,"ID",16,hornal,HORNAL,z,,,,,,0.091666667,-0.396296296,0,0,0,,0,242,242,307,1,
,,,,,,,,,,,,,,,,,,5e8421d0df483e18852ff25e,2020-11-27_09h17.22.004,lexical_decision_task_MP_exp2,2020.2.5,Win32,60,,z,1,0.509665,,,,,,,,0.509665,1,,,,,,333,NW,"ID",33,catrie,CATRIE,z,,,,,,0.091666667,-0.396296296,0,0,0,,0,243,243,272,1,
,,,,,,,,,,,,,,,,,,5e8421d0df483e18852ff25e,2020-11-27_09h17.22.004,lexical_decision_task_MP_exp2,2020.2.5,Win32,60,,m,1,0.480445,,,,,,,,0.480445,1,,,,,,36,WORD,UN,16,insult,VANISH,m,,,,,,0.091666667,-0.396296296,0,0,0,,0,244,244,215,1,
,,,,,,,,,,,,,,,,,,5e8421d0df483e18852ff25e,2020-11-27_09h17.22.004,lexical_decision_task_MP_exp2,2020.2.5,Win32,60,,z,1,0.50591,,,,,,,,0.50591,1,,,,,,337,NW,"ID",33,rejols,REJOLS,z,,,,,,0.091666667,-0.396296296,0,0,0,,0,245,245,276,1,
,,,,,,,,,,,,,,,,,,5e8421d0df483e18852ff25e,2020-11-27_09h17.22.004,lexical_decision_task_MP_exp2,2020.2.5,Win32,60,,m,1,0.562915,,,,,,,,0.562915,1,,,,,,33,WORD,UN,16,jungle,BUTLER,m,,,,,,0.091666667,-0.396296296,0,0,0,,0,246,246,212,1,
,,,,,,,,,,,,,,,,,,5e8421d0df483e18852ff25e,2020-11-27_09h17.22.004,lexical_decision_task_MP_exp2,2020.2.5,Win32,60,,z,1,0.68103,,,,,,,,0.68103,1,,,,,,454,NW,UN,33,tondle,SCOUGE,z,,,,,,0.091666667,-0.396296296,0,0,0,,0,247,247,393,1,
,,,,,,,,,,,,,,,,,,5e8421d0df483e18852ff25e,2020-11-27_09h17.22.004,lexical_decision_task_MP_exp2,2020.2.5,Win32,60,,m,1,0.53508,,,,,,,,0.53508,1,,,,,,154,WORD,"ID",16,author,AUTHOR,m,,,,,,0.091666667,-0.396296296,0,0,0,,0,248,248,93,1,
,,,,,,,,,,,,,,,,,,5e8421d0df483e18852ff25e,2020-11-27_09h17.22.004,lexical_decision_task_MP_exp2,2020.2.5,Win32,60,,m,1,0.425725,,,,,,,,0.425725,1,,,,,,95,WORD,"ID",33,thread,THREAD,m,,,,,,0.091666667,-0.396296296,0,0,0,,0,249,249,34,1,
,,,,,,,,,,,,,,,,,,5e8421d0df483e18852ff25e,2020-11-27_09h17.22.004,lexical_decision_task_MP_exp2,2020.2.5,Win32,60,,m,1,0.414635,,,,,,,,0.414635,1,,,,,,80,WORD,"ID",33,family,FAMILY,m,,,,,,0.091666667,-0.396296296,0,0,0,,0,250,250,19,1,
,,,,,,,,,,,,,,,,,,5e8421d0df483e18852ff25e,2020-11-27_09h17.22.004,lexical_decision_task_MP_exp2,2020.2.5,Win32,60,,m,1,0.540775,,,,,,,,0.540775,1,,,,,,213,WORD,UN,33,intake,SQUEAL,m,,,,,,0.091666667,-0.396296296,0,0,0,,0,251,251,152,1,
,,,,,,,,,,,,,,,,,,5e8421d0df483e18852ff25e,2020-11-27_09h17.22.004,lexical_decision_task_MP_exp2,2020.2.5,Win32,60,,m,1,0.472055,,,,,,,,0.472055,1,,,,,,9,WORD,UN,16,bridge,HUSTLE,m,,,,,,0.091666667,-0.396296296,0,0,0,,0,252,252,188,1,
,,,,,,,,,,,,,,,,,,5e8421d0df483e18852ff25e,2020-11-27_09h17.22.004,lexical_decision_task_MP_exp2,2020.2.5,Win32,60,,z,1,0.51975,,,,,,,,0.51975,1,,,,,,474,NW,UN,33,acrise,HABLIN,z,,,,,,0.091666667,-0.396296296,0,0,0,,0,253,253,413,1,
,,,,,,,,,,,,,,,,,,5e8421d0df483e18852ff25e,2020-11-27_09h17.22.004,lexical_decision_task_MP_exp2,2020.2.5,Win32,60,,m,1,0.83744,,,,,,,,0.83744,1,,,,,,50,WORD,UN,16,hungry,SNATCH,m,,,,,,0.091666667,-0.396296296,0,0,0,,0,254,254,229,1,
,,,,,,,,,,,,,,,,,,5e8421d0df483e18852ff25e,2020-11-27_09h17.22.004,lexical_decision_task_MP_exp2,2020.2.5,Win32,60,,z,1,0.621235,,,,,,,,0.621235,1,,,,,,437,NW,UN,33,baitch,SNAPEL,z,,,,,,0.091666667,-0.396296296,0,0,0,,0,255,255,376,1,
,,,,,,,,,,,,,,,,,,5e8421d0df483e18852ff25e,2020-11-27_09h17.22.004,lexical_decision_task_MP_exp2,2020.2.5,Win32,60,,m,1,0.52072,,,,,,,,0.52072,1,,,,,,48,WORD,UN,16,survey,WALNUT,m,,,,,,0.091666667,-0.396296296,0,0,0,,0,256,256,227,1,
,,,,,,,,,,,,,,,,,,5e8421d0df483e18852ff25e,2020-11-27_09h17.22.004,lexical_decision_task_MP_exp2,2020.2.5,Win32,60,,z,1,0.536065,,,,,,,,0.536065,1,,,,,,305,NW,"ID",33,forgle,FORGLE,z,,,,,,0.091666667,-0.396296296,0,0,0,,0,257,257,244,1,
,,,,,,,,,,,,,,,,,,5e8421d0df483e18852ff25e,2020-11-27_09h17.22.004,lexical_decision_task_MP_exp2,2020.2.5,Win32,60,,m,1,0.574655,,,,,,,,0.574655,1,,,,,,92,WORD,"ID",33,strand,STRAND,m,,,,,,0.091666667,-0.396296296,0,0,0,,0,258,258,31,1,
,,,,,,,,,,,,,,,,,,5e8421d0df483e18852ff25e,2020-11-27_09h17.22.004,lexical_decision_task_MP_exp2,2020.2.5,Win32,60,,z,1,0.537875,,,,,,,,0.537875,1,,,,,,280,NW,UN,16,melaty,CURBOL,z,,,,,,0.091666667,-0.396296296,0,0,0,,0,259,259,459,1,
,,,,,,,,,,,,,,,,,,5e8421d0df483e18852ff25e,2020-11-27_09h17.22.004,lexical_decision_task_MP_exp2,2020.2.5,Win32,60,,z,1,0.56694,,,,,,,,0.56694,1,,,,,,472,NW,UN,33,gorbie,CIGNEY,z,,,,,,0.091666667,-0.396296296,0,0,0,,0,260,260,411,1,
,,,,,,,,,,,,,,,,,,5e8421d0df483e18852ff25e,2020-11-27_09h17.22.004,lexical_decision_task_MP_exp2,2020.2.5,Win32,60,,z,1,0.55309,,,,,,,,0.55309,1,,,,,,457,NW,UN,33,barcet,WANIGH,z,,,,,,0.091666667,-0.396296296,0,0,0,,0,261,261,396,1,
,,,,,,,,,,,,,,,,,,5e8421d0df483e18852ff25e,2020-11-27_09h17.22.004,lexical_decision_task_MP_exp2,2020.2.5,Win32,60,,z,1,0.79635,,,,,,,,0.79635,1,,,,,,378,NW,"ID",16,shrile,SHRILE,z,,,,,,0.091666667,-0.396296296,0,0,0,,0,262,262,317,1,
,,,,,,,,,,,,,,,,,,5e8421d0df483e18852ff25e,2020-11-27_09h17.22.004,lexical_decision_task_MP_exp2,2020.2.5,Win32,60,,z,1,0.574495,,,,,,,,0.574495,1,,,,,,318,NW,"ID",33,reagly,REAGLY,z,,,,,,0.091666667,-0.396296296,0,0,0,,0,263,263,257,1,
,,,,,,,,,,,,,,,,,,5e8421d0df483e18852ff25e,2020-11-27_09h17.22.004,lexical_decision_task_MP_exp2,2020.2.5,Win32,60,,m,1,0.536115,,,,,,,,0.536115,1,,,,,,81,WORD,"ID",33,friend,FRIEND,m,,,,,,0.091666667,-0.396296296,0,0,0,,0,264,264,20,1,
,,,,,,,,,,,,,,,,,,5e8421d0df483e18852ff25e,2020-11-27_09h17.22.004,lexical_decision_task_MP_exp2,2020.2.5,Win32,60,,m,1,0.46813,,,,,,,,0.46813,1,,,,,,83,WORD,"ID",33,result,RESULT,m,,,,,,0.091666667,-0.396296296,0,0,0,,0,265,265,22,1,
,,,,,,,,,,,,,,,,,,5e8421d0df483e18852ff25e,2020-11-27_09h17.22.004,lexical_decision_task_MP_exp2,2020.2.5,Win32,60,,z,1,0.50102,,,,,,,,0.50102,1,,,,,,376,NW,"ID",16,iguare,IGUARE,z,,,,,,0.091666667,-0.396296296,0,0,0,,0,266,266,315,1,
,,,,,,,,,,,,,,,,,,5e8421d0df483e18852ff25e,2020-11-27_09h17.22.004,lexical_decision_task_MP_exp2,2020.2.5,Win32,60,,m,1,0.53744,,,,,,,,0.53744,1,,,,,,139,WORD,"ID",16,debris,DEBRIS,m,,,,,,0.091666667,-0.396296296,0,0,0,,0,267,267,78,1,
,,,,,,,,,,,,,,,,,,5e8421d0df483e18852ff25e,2020-11-27_09h17.22.004,lexical_decision_task_MP_exp2,2020.2.5,Win32,60,,m,1,0.51909,,,,,,,,0.51909,1,,,,,,234,WORD,UN,33,poster,CLUMSY,m,,,,,,0.091666667,-0.396296296,0,0,0,,0,268,268,173,1,
,,,,,,,,,,,,,,,,,,5e8421d0df483e18852ff25e,2020-11-27_09h17.22.004,lexical_decision_task_MP_exp2,2020.2.5,Win32,60,,m,1,0.47367,,,,,,,,0.47367,1,,,,,,135,WORD,"ID",16,import,IMPORT,m,,,,,,0.091666667,-0.396296296,0,0,0,,0,269,269,74,1,
,,,,,,,,,,,,,,,,,,5e8421d0df483e18852ff25e,2020-11-27_09h17.22.004,lexical_decision_task_MP_exp2,2020.2.5,Win32,60,,m,1,0.730455,,,,,,,,0.730455,1,,,,,,87,WORD,"ID",33,filter,FILTER,m,,,,,,0.091666667,-0.396296296,0,0,0,,0,270,270,26,1,
,,,,,,,,,,,,,,,,,,5e8421d0df483e18852ff25e,2020-11-27_09h17.22.004,lexical_decision_task_MP_exp2,2020.2.5,Win32,60,,z,1,0.485035,,,,,,,,0.485035,1,,,,,,256,NW,UN,16,veniod,INLORS,z,,,,,,0.091666667,-0.396296296,0,0,0,,0,271,271,435,1,
,,,,,,,,,,,,,,,,,,5e8421d0df483e18852ff25e,2020-11-27_09h17.22.004,lexical_decision_task_MP_exp2,2020.2.5,Win32,60,,z,1,0.50129,,,,,,,,0.50129,1,,,,,,356,NW,"ID",33,othnis,OTHNIS,z,,,,,,0.091666667,-0.396296296,0,0,0,,0,272,272,295,1,
,,,,,,,,,,,,,,,,,,5e8421d0df483e18852ff25e,2020-11-27_09h17.22.004,lexical_decision_task_MP_exp2,2020.2.5,Win32,60,,z,1,0.4984,,,,,,,,0.4984,1,,,,,,381,NW,"ID",16,huniek,HUNIEK,z,,,,,,0.091666667,-0.396296296,0,0,0,,0,273,273,320,1,
,,,,,,,,,,,,,,,,,,5e8421d0df483e18852ff25e,2020-11-27_09h17.22.004,lexical_decision_task_MP_exp2,2020.2.5,Win32,60,,m,1,0.480615,,,,,,,,0.480615,1,,,,,,136,WORD,"ID",16,bleach,BLEACH,m,,,,,,0.091666667,-0.396296296,0,0,0,,0,274,274,75,1,
,,,,,,,,,,,,,,,,,,5e8421d0df483e18852ff25e,2020-11-27_09h17.22.004,lexical_decision_task_MP_exp2,2020.2.5,Win32,60,,z,1,0.607215,,,,,,,,0.607215,1,,,,,,453,NW,UN,33,scouge,BOLVIS,z,,,,,,0.091666667,-0.396296296,0,0,0,,0,275,275,392,1,
,,,,,,,,,,,,,,,,,,5e8421d0df483e18852ff25e,2020-11-27_09h17.22.004,lexical_decision_task_MP_exp2,2020.2.5,Win32,60,,m,1,0.497475,,,,,,,,0.497475,1,,,,,,174,WORD,"ID",16,turkey,TURKEY,m,,,,,,0.091666667,-0.396296296,0,0,0,,0,276,276,113,1,
,,,,,,,,,,,,,,,,,,5e8421d0df483e18852ff25e,2020-11-27_09h17.22.004,lexical_decision_task_MP_exp2,2020.2.5,Win32,60,,m,1,0.526525,,,,,,,,0.526525,1,,,,,,181,WORD,UN,33,winter,GLANCE,m,,,,,,0.091666667,-0.396296296,0,0,0,,0,277,277,120,1,
,,,,,,,,,,,,,,,,,,5e8421d0df483e18852ff25e,2020-11-27_09h17.22.004,lexical_decision_task_MP_exp2,2020.2.5,Win32,60,,m,1,0.47542,,,,,,,,0.47542,1,,,,,,111,WORD,"ID",33,induce,INDUCE,m,,,,,,0.091666667,-0.396296296,0,0,0,,0,278,278,50,1,
,,,,,,,,,,,,,,,,,,5e8421d0df483e18852ff25e,2020-11-27_09h17.22.004,lexical_decision_task_MP_exp2,2020.2.5,Win32,60,,z,1,0.71179,,,,,,,,0.71179,1,,,,,,411,NW,"ID",16,orchin,ORCHIN,z,,,,,,0.091666667,-0.396296296,0,0,0,,0,279,279,350,1,
,,,,,,,,,,,,,,,,,,5e8421d0df483e18852ff25e,2020-11-27_09h17.22.004,lexical_decision_task_MP_exp2,2020.2.5,Win32,60,,z,1,0.55059,,,,,,,,0.55059,1,,,,,,418,NW,"ID",16,suidle,SUIDLE,z,,,,,,0.091666667,-0.396296296,0,0,0,,0,280,280,357,1,
,,,,,,,,,,,,,,,,,,5e8421d0df483e18852ff25e,2020-11-27_09h17.22.004,lexical_decision_task_MP_exp2,2020.2.5,Win32,60,,z,1,0.507805,,,,,,,,0.507805,1,,,,,,391,NW,"ID",16,theldy,THELDY,z,,,,,,0.091666667,-0.396296296,0,0,0,,0,281,281,330,1,
,,,,,,,,,,,,,,,,,,5e8421d0df483e18852ff25e,2020-11-27_09h17.22.004,lexical_decision_task_MP_exp2,2020.2.5,Win32,60,,m,1,0.513575,,,,,,,,0.513575,1,,,,,,155,WORD,"ID",16,lizard,LIZARD,m,,,,,,0.091666667,-0.396296296,0,0,0,,0,282,282,94,1,
,,,,,,,,,,,,,,,,,,5e8421d0df483e18852ff25e,2020-11-27_09h17.22.004,lexical_decision_task_MP_exp2,2020.2.5,Win32,60,,z,1,0.567185,,,,,,,,0.567185,1,,,,,,419,NW,"ID",16,slount,SLOUNT,z,,,,,,0.091666667,-0.396296296,0,0,0,,0,283,283,358,1,
,,,,,,,,,,,,,,,,,,5e8421d0df483e18852ff25e,2020-11-27_09h17.22.004,lexical_decision_task_MP_exp2,2020.2.5,Win32,60,,z,1,0.481985,,,,,,,,0.481985,1,,,,,,310,NW,"ID",33,daniet,DANIET,z,,,,,,0.091666667,-0.396296296,0,0,0,,0,284,284,249,1,
,,,,,,,,,,,,,,,,,,5e8421d0df483e18852ff25e,2020-11-27_09h17.22.004,lexical_decision_task_MP_exp2,2020.2.5,Win32,60,,z,1,0.47154,,,,,,,,0.47154,1,,,,,,319,NW,"ID",33,zomber,ZOMBER,z,,,,,,0.091666667,-0.396296296,0,0,0,,0,285,285,258,1,
,,,,,,,,,,,,,,,,,,5e8421d0df483e18852ff25e,2020-11-27_09h17.22.004,lexical_decision_task_MP_exp2,2020.2.5,Win32,60,,m,1,0.51301,,,,,,,,0.51301,1,,,,,,63,WORD,"ID",33,launch,LAUNCH,m,,,,,,0.091666667,-0.396296296,0,0,0,,0,286,286,2,1,
,,,,,,,,,,,,,,,,,,5e8421d0df483e18852ff25e,2020-11-27_09h17.22.004,lexical_decision_task_MP_exp2,2020.2.5,Win32,60,,z,1,0.539065,,,,,,,,0.539065,1,,,,,,325,NW,"ID",33,thruse,THRUSE,z,,,,,,0.091666667,-0.396296296,0,0,0,,0,287,287,264,1,
,,,,,,,,,,,,,,,,,,5e8421d0df483e18852ff25e,2020-11-27_09h17.22.004,lexical_decision_task_MP_exp2,2020.2.5,Win32,60,,m,1,0.727455,,,,,,,,0.727455,1,,,,,,207,WORD,UN,33,hockey,WREATH,m,,,,,,0.091666667,-0.396296296,0,0,0,,0,288,288,146,1,
,,,,,,,,,,,,,,,,,,5e8421d0df483e18852ff25e,2020-11-27_09h17.22.004,lexical_decision_task_MP_exp2,2020.2.5,Win32,60,,z,1,1.41096,,,,,,,,1.41096,1,,,,,,397,NW,"ID",16,camble,CAMBLE,z,,,,,,0.091666667,-0.396296296,0,0,0,,0,289,289,336,1,
,,,,,,,,,,,,,,,,,,5e8421d0df483e18852ff25e,2020-11-27_09h17.22.004,lexical_decision_task_MP_exp2,2020.2.5,Win32,60,,m,1,0.49207,,,,,,,,0.49207,1,,,,,,3,WORD,UN,16,trench,KNIGHT,m,,,,,,0.091666667,-0.396296296,0,0,0,,0,290,290,182,1,
,,,,,,,,,,,,,,,,,,5e8421d0df483e18852ff25e,2020-11-27_09h17.22.004,lexical_decision_task_MP_exp2,2020.2.5,Win32,60,,m,1,0.514595,,,,,,,,0.514595,1,,,,,,115,WORD,"ID",33,guitar,GUITAR,m,,,,,,0.091666667,-0.396296296,0,0,0,,0,291,291,54,1,
,,,,,,,,,,,,,,,,,,5e8421d0df483e18852ff25e,2020-11-27_09h17.22.004,lexical_decision_task_MP_exp2,2020.2.5,Win32,60,,z,1,0.56049,,,,,,,,0.56049,1,,,,,,412,NW,"ID",16,jiluer,JILUER,z,,,,,,0.091666667,-0.396296296,0,0,0,,0,292,292,351,1,
,,,,,,,,,,,,,,,,,,5e8421d0df483e18852ff25e,2020-11-27_09h17.22.004,lexical_decision_task_MP_exp2,2020.2.5,Win32,60,,z,1,0.53886,,,,,,,,0.53886,1,,,,,,374,NW,"ID",16,sliant,SLIANT,z,,,,,,0.091666667,-0.396296296,0,0,0,,0,293,293,313,1,
,,,,,,,,,,,,,,,,,,5e8421d0df483e18852ff25e,2020-11-27_09h17.22.004,lexical_decision_task_MP_exp2,2020.2.5,Win32,60,,z,1,0.536535,,,,,,,,0.536535,1,,,,,,276,NW,UN,16,petain,YARMON,z,,,,,,0.091666667,-0.396296296,0,0,0,,0,294,294,455,1,
,,,,,,,,,,,,,,,,,,5e8421d0df483e18852ff25e,2020-11-27_09h17.22.004,lexical_decision_task_MP_exp2,2020.2.5,Win32,60,,z,1,0.966355,,,,,,,,0.966355,1,,,,,,357,NW,"ID",33,derain,DERAIN,z,,,,,,0.091666667,-0.396296296,0,0,0,,0,295,295,296,1,
,,,,,,,,,,,,,,,,,,5e8421d0df483e18852ff25e,2020-11-27_09h17.22.004,lexical_decision_task_MP_exp2,2020.2.5,Win32,60,,z,1,0.56789,,,,,,,,0.56789,1,,,,,,315,NW,"ID",33,laston,LASTON,z,,,,,,0.091666667,-0.396296296,0,0,0,,0,296,296,254,1,
,,,,,,,,,,,,,,,,,,5e8421d0df483e18852ff25e,2020-11-27_09h17.22.004,lexical_decision_task_MP_exp2,2020.2.5,Win32,60,,z,1,0.529385,,,,,,,,0.529385,1,,,,,,274,NW,UN,16,sleirt,FUMBLO,z,,,,,,0.091666667,-0.396296296,0,0,0,,0,297,297,453,1,
,,,,,,,,,,,,,,,,,,5e8421d0df483e18852ff25e,2020-11-27_09h17.22.004,lexical_decision_task_MP_exp2,2020.2.5,Win32,60,,z,1,0.519235,,,,,,,,0.519235,1,,,,,,311,NW,"ID",33,sproly,SPROLY,z,,,,,,0.091666667,-0.396296296,0,0,0,,0,298,298,250,1,
,,,,,,,,,,,,,,,,,,5e8421d0df483e18852ff25e,2020-11-27_09h17.22.004,lexical_decision_task_MP_exp2,2020.2.5,Win32,60,,z,1,0.54821,,,,,,,,0.54821,1,,,,,,470,NW,UN,33,nobest,CRUDIO,z,,,,,,0.091666667,-0.396296296,0,0,0,,0,299,299,409,1,
,,,,,,,,,,,,,,,,,,5e8421d0df483e18852ff25e,2020-11-27_09h17.22.004,lexical_decision_task_MP_exp2,2020.2.5,Win32,60,,m,1,0.60708,,,,,,,,0.60708,1,,,,,,10,WORD,UN,16,cruise,ETHNIC,m,,,,,,0.091666667,-0.396296296,0,0,0,,0,300,300,189,1,
,,,,,,,,,,,,,,,,,,5e8421d0df483e18852ff25e,2020-11-27_09h17.22.004,lexical_decision_task_MP_exp2,2020.2.5,Win32,60,,m,1,0.496915,,,,,,,,0.496915,1,,,,,,12,WORD,UN,16,strive,ORANGE,m,,,,,,0.091666667,-0.396296296,0,0,0,,0,301,301,191,1,
,,,,,,,,,,,,,,,,,,5e8421d0df483e18852ff25e,2020-11-27_09h17.22.004,lexical_decision_task_MP_exp2,2020.2.5,Win32,60,,m,1,0.54312,,,,,,,,0.54312,1,,,,,,35,WORD,UN,16,vanish,SOCKET,m,,,,,,0.091666667,-0.396296296,0,0,0,,0,302,302,214,1,
,,,,,,,,,,,,,,,,,,5e8421d0df483e18852ff25e,2020-11-27_09h17.22.004,lexical_decision_task_MP_exp2,2020.2.5,Win32,60,,m,1,0.47599,,,,,,,,0.47599,1,,,,,,239,WORD,UN,33,forest,LUMBER,m,,,,,,0.091666667,-0.396296296,0,0,0,,0,303,303,178,1,
,,,,,,,,,,,,,,,,,,5e8421d0df483e18852ff25e,2020-11-27_09h17.22.004,lexical_decision_task_MP_exp2,2020.2.5,Win32,60,,z,1,0.68169,,,,,,,,0.68169,1,,,,,,390,NW,"ID",16,hatrus,HATRUS,z,,,,,,0.091666667,-0.396296296,0,0,0,,0,304,304,329,1,
,,,,,,,,,,,,,,,,,,5e8421d0df483e18852ff25e,2020-11-27_09h17.22.004,lexical_decision_task_MP_exp2,2020.2.5,Win32,60,,z,1,0.47462,,,,,,,,0.47462,1,,,,,,296,NW,UN,16,fertic,BEINCH,z,,,,,,0.091666667,-0.396296296,0,0,0,,0,305,305,475,1,
,,,,,,,,,,,,,,,,,,5e8421d0df483e18852ff25e,2020-11-27_09h17.22.004,lexical_decision_task_MP_exp2,2020.2.5,Win32,60,,m,1,0.48776,,,,,,,,0.48776,1,,,,,,149,WORD,"ID",16,invade,INVADE,m,,,,,,0.091666667,-0.396296296,0,0,0,,0,306,306,88,1,
,,,,,,,,,,,,,,,,,,5e8421d0df483e18852ff25e,2020-11-27_09h17.22.004,lexical_decision_task_MP_exp2,2020.2.5,Win32,60,,m,1,0.43026,,,,,,,,0.43026,1,,,,,,180,WORD,"ID",16,silent,SILENT,m,,,,,,0.091666667,-0.396296296,0,0,0,,0,307,307,119,1,
,,,,,,,,,,,,,,,,,,5e8421d0df483e18852ff25e,2020-11-27_09h17.22.004,lexical_decision_task_MP_exp2,2020.2.5,Win32,60,,m,1,0.431675,,,,,,,,0.431675,1,,,,,,25,WORD,UN,16,sprint,DOMAIN,m,,,,,,0.091666667,-0.396296296,0,0,0,,0,308,308,204,1,
,,,,,,,,,,,,,,,,,,5e8421d0df483e18852ff25e,2020-11-27_09h17.22.004,lexical_decision_task_MP_exp2,2020.2.5,Win32,60,,m,1,0.656815,,,,,,,,0.656815,1,,,,,,235,WORD,UN,33,pirate,GRUMPY,m,,,,,,0.091666667,-0.396296296,0,0,0,,0,309,309,174,1,
,,,,,,,,,,,,,,,,,,5e8421d0df483e18852ff25e,2020-11-27_09h17.22.004,lexical_decision_task_MP_exp2,2020.2.5,Win32,60,,m,1,0.41609,,,,,,,,0.41609,1,,,,,,44,WORD,UN,16,clergy,DANGER,m,,,,,,0.091666667,-0.396296296,0,0,0,,0,310,310,223,1,
,,,,,,,,,,,,,,,,,,5e8421d0df483e18852ff25e,2020-11-27_09h17.22.004,lexical_decision_task_MP_exp2,2020.2.5,Win32,60,,m,1,0.456925,,,,,,,,0.456925,1,,,,,,52,WORD,UN,16,police,IMPOSE,m,,,,,,0.091666667,-0.396296296,0,0,0,,0,311,311,231,1,
,,,,,,,,,,,,,,,,,,5e8421d0df483e18852ff25e,2020-11-27_09h17.22.004,lexical_decision_task_MP_exp2,2020.2.5,Win32,60,,m,1,0.53692,,,,,,,,0.53692,1,,,,,,107,WORD,"ID",33,slogan,SLOGAN,m,,,,,,0.091666667,-0.396296296,0,0,0,,0,312,312,46,1,
,,,,,,,,,,,,,,,,,,5e8421d0df483e18852ff25e,2020-11-27_09h17.22.004,lexical_decision_task_MP_exp2,2020.2.5,Win32,60,,z,1,0.533,,,,,,,,0.533,1,,,,,,362,NW,"ID",16,tireau,TIREAU,z,,,,,,0.091666667,-0.396296296,0,0,0,,0,313,313,301,1,
,,,,,,,,,,,,,,,,,,5e8421d0df483e18852ff25e,2020-11-27_09h17.22.004,lexical_decision_task_MP_exp2,2020.2.5,Win32,60,,m,0,0.579635,,,,,,,,0.579635,0,,,,,,432,NW,UN,33,drance,LUNKER,z,,,,,,0.091666667,-0.396296296,0,0,0,,0,314,314,371,1,
,,,,,,,,,,,,,,,,,,5e8421d0df483e18852ff25e,2020-11-27_09h17.22.004,lexical_decision_task_MP_exp2,2020.2.5,Win32,60,,z,0,0.653735,,,,,,,,0.653735,0,,,,,,230,WORD,UN,33,mother,FRINGE,m,,,,,,0.091666667,-0.396296296,0,0,0,,0,315,315,169,1,
,,,,,,,,,,,,,,,,,,5e8421d0df483e18852ff25e,2020-11-27_09h17.22.004,lexical_decision_task_MP_exp2,2020.2.5,Win32,60,,m,1,0.658915,,,,,,,,0.658915,1,,,,,,7,WORD,UN,16,abrupt,ANCHOR,m,,,,,,0.091666667,-0.396296296,0,0,0,,0,316,316,186,1,
,,,,,,,,,,,,,,,,,,5e8421d0df483e18852ff25e,2020-11-27_09h17.22.004,lexical_decision_task_MP_exp2,2020.2.5,Win32,60,,m,0,0.739785,,,,,,,,0.739785,0,,,,,,425,NW,UN,33,urivel,FRUDGE,z,,,,,,0.091666667,-0.396296296,0,0,0,,0,317,317,364,1,
,,,,,,,,,,,,,,,,,,5e8421d0df483e18852ff25e,2020-11-27_09h17.22.004,lexical_decision_task_MP_exp2,2020.2.5,Win32,60,,z,1,0.61528,,,,,,,,0.61528,1,,,,,,287,NW,UN,16,yaceup,NYMBEL,z,,,,,,0.091666667,-0.396296296,0,0,0,,0,318,318,466,1,
,,,,,,,,,,,,,,,,,,5e8421d0df483e18852ff25e,2020-11-27_09h17.22.004,lexical_decision_task_MP_exp2,2020.2.5,Win32,60,,m,1,0.58544,,,,,,,,0.58544,1,,,,,,75,WORD,"ID",33,trophy,TROPHY,m,,,,,,0.091666667,-0.396296296,0,0,0,,0,319,319,14,1,
,,,,,,,,,,,,,,,,,,5e8421d0df483e18852ff25e,2020-11-27_09h17.22.004,lexical_decision_task_MP_exp2,2020.2.5,Win32,60,,m,1,0.54617,,,,,,,,0.54617,1,,,,,,34,WORD,UN,16,socket,JUNGLE,m,,,,,,0.091666667,-0.396296296,0,0,0,,0,320,320,213,1,
,,,,,,,,,,,,,,,,,,5e8421d0df483e18852ff25e,2020-11-27_09h17.22.004,lexical_decision_task_MP_exp2,2020.2.5,Win32,60,,z,1,0.679905,,,,,,,,0.679905,1,,,,,,317,NW,"ID",33,worbal,WORBAL,z,,,,,,0.091666667,-0.396296296,0,0,0,,0,321,321,256,1,
,,,,,,,,,,,,,,,,,,5e8421d0df483e18852ff25e,2020-11-27_09h17.22.004,lexical_decision_task_MP_exp2,2020.2.5,Win32,60,,m,1,0.5965,,,,,,,,0.5965,1,,,,,,64,WORD,"ID",33,throne,THRONE,m,,,,,,0.091666667,-0.396296296,0,0,0,,0,322,322,3,1,
,,,,,,,,,,,,,,,,,,5e8421d0df483e18852ff25e,2020-11-27_09h17.22.004,lexical_decision_task_MP_exp2,2020.2.5,Win32,60,,m,1,0.493505,,,,,,,,0.493505,1,,,,,,223,WORD,UN,33,period,KIDNEY,m,,,,,,0.091666667,-0.396296296,0,0,0,,0,323,323,162,1,
,,,,,,,,,,,,,,,,,,5e8421d0df483e18852ff25e,2020-11-27_09h17.22.004,lexical_decision_task_MP_exp2,2020.2.5,Win32,60,,z,1,0.57273,,,,,,,,0.57273,1,,,,,,268,NW,UN,16,orchet,PACKES,z,,,,,,0.091666667,-0.396296296,0,0,0,,0,324,324,447,1,
,,,,,,,,,,,,,,,,,,5e8421d0df483e18852ff25e,2020-11-27_09h17.22.004,lexical_decision_task_MP_exp2,2020.2.5,Win32,60,,z,1,0.59102,,,,,,,,0.59102,1,,,,,,380,NW,"ID",16,cavory,CAVORY,z,,,,,,0.091666667,-0.396296296,0,0,0,,0,325,325,319,1,
,,,,,,,,,,,,,,,,,,5e8421d0df483e18852ff25e,2020-11-27_09h17.22.004,lexical_decision_task_MP_exp2,2020.2.5,Win32,60,,m,1,0.44906,,,,,,,,0.44906,1,,,,,,130,WORD,"ID",16,stupid,STUPID,m,,,,,,0.091666667,-0.396296296,0,0,0,,0,326,326,69,1,
,,,,,,,,,,,,,,,,,,5e8421d0df483e18852ff25e,2020-11-27_09h17.22.004,lexical_decision_task_MP_exp2,2020.2.5,Win32,60,,m,1,0.482355,,,,,,,,0.482355,1,,,,,,76,WORD,"ID",33,exotic,EXOTIC,m,,,,,,0.091666667,-0.396296296,0,0,0,,0,327,327,15,1,
,,,,,,,,,,,,,,,,,,5e8421d0df483e18852ff25e,2020-11-27_09h17.22.004,lexical_decision_task_MP_exp2,2020.2.5,Win32,60,,m,1,0.50463,,,,,,,,0.50463,1,,,,,,236,WORD,UN,33,grumpy,PIRATE,m,,,,,,0.091666667,-0.396296296,0,0,0,,0,328,328,175,1,
,,,,,,,,,,,,,,,,,,5e8421d0df483e18852ff25e,2020-11-27_09h17.22.004,lexical_decision_task_MP_exp2,2020.2.5,Win32,60,,m,1,0.589435,,,,,,,,0.589435,1,,,,,,127,WORD,"ID",16,castle,CASTLE,m,,,,,,0.091666667,-0.396296296,0,0,0,,0,329,329,66,1,
,,,,,,,,,,,,,,,,,,5e8421d0df483e18852ff25e,2020-11-27_09h17.22.004,lexical_decision_task_MP_exp2,2020.2.5,Win32,60,,m,1,0.479345,,,,,,,,0.479345,1,,,,,,6,WORD,UN,16,anchor,BUNDLE,m,,,,,,0.091666667,-0.396296296,0,0,0,,0,330,330,185,1,
,,,,,,,,,,,,,,,,,,5e8421d0df483e18852ff25e,2020-11-27_09h17.22.004,lexical_decision_task_MP_exp2,2020.2.5,Win32,60,,z,1,0.654445,,,,,,,,0.654445,1,,,,,,338,NW,"ID",33,wreash,WREASH,z,,,,,,0.091666667,-0.396296296,0,0,0,,0,331,331,277,1,
,,,,,,,,,,,,,,,,,,5e8421d0df483e18852ff25e,2020-11-27_09h17.22.004,lexical_decision_task_MP_exp2,2020.2.5,Win32,60,,z,1,0.653835,,,,,,,,0.653835,1,,,,,,258,NW,UN,16,soudal,POLUTH,z,,,,,,0.091666667,-0.396296296,0,0,0,,0,332,332,437,1,
,,,,,,,,,,,,,,,,,,5e8421d0df483e18852ff25e,2020-11-27_09h17.22.004,lexical_decision_task_MP_exp2,2020.2.5,Win32,60,,z,1,0.541135,,,,,,,,0.541135,1,,,,,,399,NW,"ID",16,fouret,FOURET,z,,,,,,0.091666667,-0.396296296,0,0,0,,0,333,333,338,1,
,,,,,,,,,,,,,,,,,,5e8421d0df483e18852ff25e,2020-11-27_09h17.22.004,lexical_decision_task_MP_exp2,2020.2.5,Win32,60,,m,1,0.66873,,,,,,,,0.66873,1,,,,,,183,WORD,UN,33,sleazy,MILDEW,m,,,,,,0.091666667,-0.396296296,0,0,0,,0,334,334,122,1,
,,,,,,,,,,,,,,,,,,5e8421d0df483e18852ff25e,2020-11-27_09h17.22.004,lexical_decision_task_MP_exp2,2020.2.5,Win32,60,,m,0,0.681415,,,,,,,,0.681415,0,,,,,,433,NW,UN,33,pitrom,DRANCE,z,,,,,,0.091666667,-0.396296296,0,0,0,,0,335,335,372,1,
,,,,,,,,,,,,,,,,,,5e8421d0df483e18852ff25e,2020-11-27_09h17.22.004,lexical_decision_task_MP_exp2,2020.2.5,Win32,60,,m,1,0.56796,,,,,,,,0.56796,1,,,,,,65,WORD,"ID",33,symbol,SYMBOL,m,,,,,,0.091666667,-0.396296296,0,0,0,,0,336,336,4,1,
,,,,,,,,,,,,,,,,,,5e8421d0df483e18852ff25e,2020-11-27_09h17.22.004,lexical_decision_task_MP_exp2,2020.2.5,Win32,60,,z,1,0.58,,,,,,,,0.58,1,,,,,,355,NW,"ID",33,zingly,ZINGLY,z,,,,,,0.091666667,-0.396296296,0,0,0,,0,337,337,294,1,
,,,,,,,,,,,,,,,,,,5e8421d0df483e18852ff25e,2020-11-27_09h17.22.004,lexical_decision_task_MP_exp2,2020.2.5,Win32,60,,m,1,0.5152,,,,,,,,0.5152,1,,,,,,14,WORD,UN,16,orange,ALMOST,m,,,,,,0.091666667,-0.396296296,0,0,0,,0,338,338,193,1,
,,,,,,,,,,,,,,,,,,5e8421d0df483e18852ff25e,2020-11-27_09h17.22.004,lexical_decision_task_MP_exp2,2020.2.5,Win32,60,,z,1,0.615575,,,,,,,,0.615575,1,,,,,,373,NW,"ID",16,bigent,BIGENT,z,,,,,,0.091666667,-0.396296296,0,0,0,,0,339,339,312,1,
,,,,,,,,,,,,,,,,,,5e8421d0df483e18852ff25e,2020-11-27_09h17.22.004,lexical_decision_task_MP_exp2,2020.2.5,Win32,60,,m,1,0.68963,,,,,,,,0.68963,1,,,,,,150,WORD,"ID",16,random,RANDOM,m,,,,,,0.091666667,-0.396296296,0,0,0,,0,340,340,89,1,
,,,,,,,,,,,,,,,,,,5e8421d0df483e18852ff25e,2020-11-27_09h17.22.004,lexical_decision_task_MP_exp2,2020.2.5,Win32,60,,z,1,0.624895,,,,,,,,0.624895,1,,,,,,249,NW,UN,16,milted,BATROL,z,,,,,,0.091666667,-0.396296296,0,0,0,,0,341,341,428,1,
,,,,,,,,,,,,,,,,,,5e8421d0df483e18852ff25e,2020-11-27_09h17.22.004,lexical_decision_task_MP_exp2,2020.2.5,Win32,60,,m,1,0.594725,,,,,,,,0.594725,1,,,,,,161,WORD,"ID",16,pastor,PASTOR,m,,,,,,0.091666667,-0.396296296,0,0,0,,0,342,342,100,1,
,,,,,,,,,,,,,,,,,,5e8421d0df483e18852ff25e,2020-11-27_09h17.22.004,lexical_decision_task_MP_exp2,2020.2.5,Win32,60,,m,1,0.533255,,,,,,,,0.533255,1,,,,,,37,WORD,UN,16,powder,INSULT,m,,,,,,0.091666667,-0.396296296,0,0,0,,0,343,343,216,1,
,,,,,,,,,,,,,,,,,,5e8421d0df483e18852ff25e,2020-11-27_09h17.22.004,lexical_decision_task_MP_exp2,2020.2.5,Win32,60,,m,1,0.48959,,,,,,,,0.48959,1,,,,,,98,WORD,"ID",33,belong,BELONG,m,,,,,,0.091666667,-0.396296296,0,0,0,,0,344,344,37,1,
,,,,,,,,,,,,,,,,,,5e8421d0df483e18852ff25e,2020-11-27_09h17.22.004,lexical_decision_task_MP_exp2,2020.2.5,Win32,60,,m,1,0.518535,,,,,,,,0.518535,1,,,,,,153,WORD,"ID",16,behold,BEHOLD,m,,,,,,0.091666667,-0.396296296,0,0,0,,0,345,345,92,1,
,,,,,,,,,,,,,,,,,,5e8421d0df483e18852ff25e,2020-11-27_09h17.22.004,lexical_decision_task_MP_exp2,2020.2.5,Win32,60,,z,1,0.53279,,,,,,,,0.53279,1,,,,,,427,NW,UN,33,tandly,SCHIND,z,,,,,,0.091666667,-0.396296296,0,0,0,,0,346,346,366,1,
,,,,,,,,,,,,,,,,,,5e8421d0df483e18852ff25e,2020-11-27_09h17.22.004,lexical_decision_task_MP_exp2,2020.2.5,Win32,60,,z,1,0.53021,,,,,,,,0.53021,1,,,,,,302,NW,"ID",33,miluer,MILUER,z,,,,,,0.091666667,-0.396296296,0,0,0,,0,347,347,241,1,
,,,,,,,,,,,,,,,,,,5e8421d0df483e18852ff25e,2020-11-27_09h17.22.004,lexical_decision_task_MP_exp2,2020.2.5,Win32,60,,z,1,0.5805,,,,,,,,0.5805,1,,,,,,291,NW,UN,16,ablint,PRETCH,z,,,,,,0.091666667,-0.396296296,0,0,0,,0,348,348,470,1,
,,,,,,,,,,,,,,,,,,5e8421d0df483e18852ff25e,2020-11-27_09h17.22.004,lexical_decision_task_MP_exp2,2020.2.5,Win32,60,,z,1,0.431635,,,,,,,,0.431635,1,,,,,,352,NW,"ID",33,tringe,TRINGE,z,,,,,,0.091666667,-0.396296296,0,0,0,,0,349,349,291,1,
,,,,,,,,,,,,,,,,,,5e8421d0df483e18852ff25e,2020-11-27_09h17.22.004,lexical_decision_task_MP_exp2,2020.2.5,Win32,60,,m,1,0.55165,,,,,,,,0.55165,1,,,,,,108,WORD,"ID",33,reckon,RECKON,m,,,,,,0.091666667,-0.396296296,0,0,0,,0,350,350,47,1,
,,,,,,,,,,,,,,,,,,5e8421d0df483e18852ff25e,2020-11-27_09h17.22.004,lexical_decision_task_MP_exp2,2020.2.5,Win32,60,,z,0,0.85844,,,,,,,,0.85844,0,,,,,,191,WORD,UN,33,beacon,STABLE,m,,,,,,0.091666667,-0.396296296,0,0,0,,0,351,351,130,1,
,,,,,,,,,,,,,,,,,,5e8421d0df483e18852ff25e,2020-11-27_09h17.22.004,lexical_decision_task_MP_exp2,2020.2.5,Win32,60,,m,1,1.24208,,,,,,,,1.24208,1,,,,,,145,WORD,"ID",16,parish,PARISH,m,,,,,,0.091666667,-0.396296296,0,0,0,,0,352,352,84,1,
,,,,,,,,,,,,,,,,,,5e8421d0df483e18852ff25e,2020-11-27_09h17.22.004,lexical_decision_task_MP_exp2,2020.2.5,Win32,60,,z,1,0.73851,,,,,,,,0.73851,1,,,,,,429,NW,UN,33,caroey,FUNTLE,z,,,,,,0.091666667,-0.396296296,0,0,0,,0,353,353,368,1,
,,,,,,,,,,,,,,,,,,5e8421d0df483e18852ff25e,2020-11-27_09h17.22.004,lexical_decision_task_MP_exp2,2020.2.5,Win32,60,,z,1,0.53366,,,,,,,,0.53366,1,,,,,,298,NW,UN,16,sturch,PIERGY,z,,,,,,0.091666667,-0.396296296,0,0,0,,0,354,354,477,1,
,,,,,,,,,,,,,,,,,,5e8421d0df483e18852ff25e,2020-11-27_09h17.22.004,lexical_decision_task_MP_exp2,2020.2.5,Win32,60,,m,1,0.613225,,,,,,,,0.613225,1,,,,,,209,WORD,UN,33,monkey,SEARCH,m,,,,,,0.091666667,-0.396296296,0,0,0,,0,355,355,148,1,
,,,,,,,,,,,,,,,,,,5e8421d0df483e18852ff25e,2020-11-27_09h17.22.004,lexical_decision_task_MP_exp2,2020.2.5,Win32,60,,z,1,0.58017,,,,,,,,0.58017,1,,,,,,436,NW,UN,33,snapel,FRUTAN,z,,,,,,0.091666667,-0.396296296,0,0,0,,0,356,356,375,1,
,,,,,,,,,,,,,,,,,,5e8421d0df483e18852ff25e,2020-11-27_09h17.22.004,lexical_decision_task_MP_exp2,2020.2.5,Win32,60,,z,1,0.965935,,,,,,,,0.965935,1,,,,,,261,NW,UN,16,quilew,STUNCH,z,,,,,,0.091666667,-0.396296296,0,0,0,,0,357,357,440,1,
,,,,,,,,,,,,,,,,,,5e8421d0df483e18852ff25e,2020-11-27_09h17.22.004,lexical_decision_task_MP_exp2,2020.2.5,Win32,60,,z,1,0.48102,,,,,,,,0.48102,1,,,,,,375,NW,"ID",16,yorque,YORQUE,z,,,,,,0.091666667,-0.396296296,0,0,0,,0,358,358,314,1,
,,,,,,,,,,,,,,,,,,5e8421d0df483e18852ff25e,2020-11-27_09h17.22.004,lexical_decision_task_MP_exp2,2020.2.5,Win32,60,,m,1,0.52986,,,,,,,,0.52986,1,,,,,,109,WORD,"ID",33,wonder,WONDER,m,,,,,,0.091666667,-0.396296296,0,0,0,,0,359,359,48,1,
,,,,,,,,,,,,,,,,,,5e8421d0df483e18852ff25e,2020-11-27_09h17.22.004,lexical_decision_task_MP_exp2,2020.2.5,Win32,60,,m,1,0.50662,,,,,,,,0.50662,1,,,,,,129,WORD,"ID",16,marvel,MARVEL,m,,,,,,0.091666667,-0.396296296,0,0,0,,0,360,360,68,1,
,,,,,,,,,,,,,,,,,,5e8421d0df483e18852ff25e,2020-11-27_09h17.22.004,lexical_decision_task_MP_exp2,2020.2.5,Win32,60,,z,1,0.562345,,,,,,,,0.562345,1,,,,,,292,NW,UN,16,swance,ABLINT,z,,,,,,0.091666667,-0.396296296,0,0,0,,0,361,361,471,1,
,,,,,,,,,,,,,,,,,,5e8421d0df483e18852ff25e,2020-11-27_09h17.22.004,lexical_decision_task_MP_exp2,2020.2.5,Win32,60,,m,1,0.54173,,,,,,,,0.54173,1,,,,,,61,WORD,"ID",33,ponder,PONDER,m,,,,,,0.091666667,-0.396296296,0,0,0,space,0,362,362,0,1,0.948325
,,,,,,,,,,,,,,,,,,5e8421d0df483e18852ff25e,2020-11-27_09h17.22.004,lexical_decision_task_MP_exp2,2020.2.5,Win32,60,,z,1,0.689685,,,,,,,,0.689685,1,,,,,,365,NW,"ID",16,guairt,GUAIRT,z,,,,,,0.091666667,-0.396296296,0,0,0,,0,363,363,304,1,
,,,,,,,,,,,,,,,,,,5e8421d0df483e18852ff25e,2020-11-27_09h17.22.004,lexical_decision_task_MP_exp2,2020.2.5,Win32,60,,z,1,0.8011,,,,,,,,0.8011,1,,,,,,476,NW,UN,33,photie,JOSTED,z,,,,,,0.091666667,-0.396296296,0,0,0,,0,364,364,415,1,
,,,,,,,,,,,,,,,,,,5e8421d0df483e18852ff25e,2020-11-27_09h17.22.004,lexical_decision_task_MP_exp2,2020.2.5,Win32,60,,m,1,0.530265,,,,,,,,0.530265,1,,,,,,193,WORD,UN,33,mildew,OBJECT,m,,,,,,0.091666667,-0.396296296,0,0,0,,0,365,365,132,1,
,,,,,,,,,,,,,,,,,,5e8421d0df483e18852ff25e,2020-11-27_09h17.22.004,lexical_decision_task_MP_exp2,2020.2.5,Win32,60,,z,1,0.71032,,,,,,,,0.71032,1,,,,,,442,NW,UN,33,dorsex,ABOUNE,z,,,,,,0.091666667,-0.396296296,0,0,0,,0,366,366,381,1,
,,,,,,,,,,,,,,,,,,5e8421d0df483e18852ff25e,2020-11-27_09h17.22.004,lexical_decision_task_MP_exp2,2020.2.5,Win32,60,,z,1,0.48375,,,,,,,,0.48375,1,,,,,,259,NW,UN,16,unject,SOUDAL,z,,,,,,0.091666667,-0.396296296,0,0,0,,0,367,367,438,1,
,,,,,,,,,,,,,,,,,,5e8421d0df483e18852ff25e,2020-11-27_09h17.22.004,lexical_decision_task_MP_exp2,2020.2.5,Win32,60,,z,1,0.50547,,,,,,,,0.50547,1,,,,,,389,NW,"ID",16,witmer,WITMER,z,,,,,,0.091666667,-0.396296296,0,0,0,,0,368,368,328,1,
,,,,,,,,,,,,,,,,,,5e8421d0df483e18852ff25e,2020-11-27_09h17.22.004,lexical_decision_task_MP_exp2,2020.2.5,Win32,60,,m,1,0.514075,,,,,,,,0.514075,1,,,,,,225,WORD,UN,33,casino,VULGAR,m,,,,,,0.091666667,-0.396296296,0,0,0,,0,369,369,164,1,
,,,,,,,,,,,,,,,,,,5e8421d0df483e18852ff25e,2020-11-27_09h17.22.004,lexical_decision_task_MP_exp2,2020.2.5,Win32,60,,z,1,0.6453,,,,,,,,0.6453,1,,,,,,252,NW,UN,16,resait,STAPOD,z,,,,,,0.091666667,-0.396296296,0,0,0,,0,370,370,431,1,
,,,,,,,,,,,,,,,,,,5e8421d0df483e18852ff25e,2020-11-27_09h17.22.004,lexical_decision_task_MP_exp2,2020.2.5,Win32,60,,z,1,0.739915,,,,,,,,0.739915,1,,,,,,250,NW,UN,16,lupict,MILTED,z,,,,,,0.091666667,-0.396296296,0,0,0,,0,371,371,429,1,
,,,,,,,,,,,,,,,,,,5e8421d0df483e18852ff25e,2020-11-27_09h17.22.004,lexical_decision_task_MP_exp2,2020.2.5,Win32,60,,z,1,0.616865,,,,,,,,0.616865,1,,,,,,354,NW,"ID",33,virlex,VIRLEX,z,,,,,,0.091666667,-0.396296296,0,0,0,,0,372,372,293,1,
,,,,,,,,,,,,,,,,,,5e8421d0df483e18852ff25e,2020-11-27_09h17.22.004,lexical_decision_task_MP_exp2,2020.2.5,Win32,60,,z,1,0.54631,,,,,,,,0.54631,1,,,,,,407,NW,"ID",16,suiver,SUIVER,z,,,,,,0.091666667,-0.396296296,0,0,0,,0,373,373,346,1,
,,,,,,,,,,,,,,,,,,5e8421d0df483e18852ff25e,2020-11-27_09h17.22.004,lexical_decision_task_MP_exp2,2020.2.5,Win32,60,,z,1,0.486865,,,,,,,,0.486865,1,,,,,,405,NW,"ID",16,flumni,FLUMNI,z,,,,,,0.091666667,-0.396296296,0,0,0,,0,374,374,344,1,
,,,,,,,,,,,,,,,,,,5e8421d0df483e18852ff25e,2020-11-27_09h17.22.004,lexical_decision_task_MP_exp2,2020.2.5,Win32,60,,z,1,0.477575,,,,,,,,0.477575,1,,,,,,467,NW,UN,33,wictor,GORBIE,z,,,,,,0.091666667,-0.396296296,0,0,0,,0,375,375,406,1,
,,,,,,,,,,,,,,,,,,5e8421d0df483e18852ff25e,2020-11-27_09h17.22.004,lexical_decision_task_MP_exp2,2020.2.5,Win32,60,,z,1,0.476335,,,,,,,,0.476335,1,,,,,,361,NW,"ID",16,pauche,PAUCHE,z,,,,,,0.091666667,-0.396296296,0,0,0,,0,376,376,300,1,
,,,,,,,,,,,,,,,,,,5e8421d0df483e18852ff25e,2020-11-27_09h17.22.004,lexical_decision_task_MP_exp2,2020.2.5,Win32,60,,m,1,0.65031,,,,,,,,0.65031,1,,,,,,166,WORD,"ID",16,starch,STARCH,m,,,,,,0.091666667,-0.396296296,0,0,0,,0,377,377,105,1,
,,,,,,,,,,,,,,,,,,5e8421d0df483e18852ff25e,2020-11-27_09h17.22.004,lexical_decision_task_MP_exp2,2020.2.5,Win32,60,,z,1,0.82112,,,,,,,,0.82112,1,,,,,,478,NW,UN,33,pebric,ACRISE,z,,,,,,0.091666667,-0.396296296,0,0,0,,0,378,378,417,1,
,,,,,,,,,,,,,,,,,,5e8421d0df483e18852ff25e,2020-11-27_09h17.22.004,lexical_decision_task_MP_exp2,2020.2.5,Win32,60,,m,1,0.49006,,,,,,,,0.49006,1,,,,,,163,WORD,"ID",16,string,STRING,m,,,,,,0.091666667,-0.396296296,0,0,0,,0,379,379,102,1,
,,,,,,,,,,,,,,,,,,5e8421d0df483e18852ff25e,2020-11-27_09h17.22.004,lexical_decision_task_MP_exp2,2020.2.5,Win32,60,,m,1,0.51504,,,,,,,,0.51504,1,,,,,,238,WORD,UN,33,behalf,FLOWER,m,,,,,,0.091666667,-0.396296296,0,0,0,,0,380,380,177,1,
,,,,,,,,,,,,,,,,,,5e8421d0df483e18852ff25e,2020-11-27_09h17.22.004,lexical_decision_task_MP_exp2,2020.2.5,Win32,60,,z,1,0.542885,,,,,,,,0.542885,1,,,,,,336,NW,"ID",33,ghodus,GHODUS,z,,,,,,0.091666667,-0.396296296,0,0,0,,0,381,381,275,1,
,,,,,,,,,,,,,,,,,,5e8421d0df483e18852ff25e,2020-11-27_09h17.22.004,lexical_decision_task_MP_exp2,2020.2.5,Win32,60,,m,1,0.54713,,,,,,,,0.54713,1,,,,,,224,WORD,UN,33,vulgar,PERIOD,m,,,,,,0.091666667,-0.396296296,0,0,0,,0,382,382,163,1,
,,,,,,,,,,,,,,,,,,5e8421d0df483e18852ff25e,2020-11-27_09h17.22.004,lexical_decision_task_MP_exp2,2020.2.5,Win32,60,,z,1,0.58079,,,,,,,,0.58079,1,,,,,,473,NW,UN,33,hablin,CRIBLE,z,,,,,,0.091666667,-0.396296296,0,0,0,,0,383,383,412,1,
,,,,,,,,,,,,,,,,,,5e8421d0df483e18852ff25e,2020-11-27_09h17.22.004,lexical_decision_task_MP_exp2,2020.2.5,Win32,60,,z,1,0.529595,,,,,,,,0.529595,1,,,,,,322,NW,"ID",33,slanch,SLANCH,z,,,,,,0.091666667,-0.396296296,0,0,0,,0,384,384,261,1,
,,,,,,,,,,,,,,,,,,5e8421d0df483e18852ff25e,2020-11-27_09h17.22.004,lexical_decision_task_MP_exp2,2020.2.5,Win32,60,,z,1,0.484785,,,,,,,,0.484785,1,,,,,,328,NW,"ID",33,broake,BROAKE,z,,,,,,0.091666667,-0.396296296,0,0,0,,0,385,385,267,1,
,,,,,,,,,,,,,,,,,,5e8421d0df483e18852ff25e,2020-11-27_09h17.22.004,lexical_decision_task_MP_exp2,2020.2.5,Win32,60,,m,1,0.46519,,,,,,,,0.46519,1,,,,,,132,WORD,"ID",16,strong,STRONG,m,,,,,,0.091666667,-0.396296296,0,0,0,,0,386,386,71,1,
,,,,,,,,,,,,,,,,,,5e8421d0df483e18852ff25e,2020-11-27_09h17.22.004,lexical_decision_task_MP_exp2,2020.2.5,Win32,60,,z,1,0.46605,,,,,,,,0.46605,1,,,,,,458,NW,UN,33,hocite,BARCET,z,,,,,,0.091666667,-0.396296296,0,0,0,,0,387,387,397,1,
,,,,,,,,,,,,,,,,,,5e8421d0df483e18852ff25e,2020-11-27_09h17.22.004,lexical_decision_task_MP_exp2,2020.2.5,Win32,60,,z,1,0.545245,,,,,,,,0.545245,1,,,,,,383,NW,"ID",16,aungre,AUNGRE,z,,,,,,0.091666667,-0.396296296,0,0,0,,0,388,388,322,1,
,,,,,,,,,,,,,,,,,,5e8421d0df483e18852ff25e,2020-11-27_09h17.22.004,lexical_decision_task_MP_exp2,2020.2.5,Win32,60,,z,1,0.51682,,,,,,,,0.51682,1,,,,,,441,NW,UN,33,aboune,RASTOE,z,,,,,,0.091666667,-0.396296296,0,0,0,,0,389,389,380,1,
,,,,,,,,,,,,,,,,,,5e8421d0df483e18852ff25e,2020-11-27_09h17.22.004,lexical_decision_task_MP_exp2,2020.2.5,Win32,60,,m,1,0.51362,,,,,,,,0.51362,1,,,,,,110,WORD,"ID",33,polite,POLITE,m,,,,,,0.091666667,-0.396296296,0,0,0,,0,390,390,49,1,
,,,,,,,,,,,,,,,,,,5e8421d0df483e18852ff25e,2020-11-27_09h17.22.004,lexical_decision_task_MP_exp2,2020.2.5,Win32,60,,m,1,0.678455,,,,,,,,0.678455,1,,,,,,15,WORD,UN,16,faucet,AMOUNT,m,,,,,,0.091666667,-0.396296296,0,0,0,,0,391,391,194,1,
,,,,,,,,,,,,,,,,,,5e8421d0df483e18852ff25e,2020-11-27_09h17.22.004,lexical_decision_task_MP_exp2,2020.2.5,Win32,60,,z,1,0.61302,,,,,,,,0.61302,1,,,,,,314,NW,"ID",33,sprine,SPRINE,z,,,,,,0.091666667,-0.396296296,0,0,0,,0,392,392,253,1,
