counterbalancing_condition,instr_done_keyboard.keys,instr_done_keyboard.rt,instr_done_touch.x,instr_done_touch.y,instr_done_touch.leftButton,instr_done_touch.midButton,instr_done_touch.rightButton,instruction_pages.thisRepN,instruction_pages.thisTrialN,instruction_pages.thisN,instruction_pages.thisIndex,instruction_pages.ran,pageN,phase,instruct_text,has_image,instruct_image,participant,date,expName,psychopyVersion,OS,frameRate,response.keys,response.corr,response.rt,touch_resp.x,touch_resp.y,touch_resp.leftButton,touch_resp.midButton,touch_resp.rightButton,touch_resp.time,touch_resp.clicked_name,rt,corr,practice_trials.thisRepN,practice_trials.thisTrialN,practice_trials.thisN,practice_trials.thisIndex,practice_trials.ran,TrialID,StimulusType,Condition,PrimeDuration,Prime,Target,corrAns,end_of_practice_trials_pages.thisRepN,end_of_practice_trials_pages.thisTrialN,end_of_practice_trials_pages.thisN,end_of_practice_trials_pages.thisIndex,end_of_practice_trials_pages.ran,break_done_touch.x,break_done_touch.y,break_done_touch.leftButton,break_done_touch.midButton,break_done_touch.rightButton,break_done_keyboard.keys,experiment_trials.thisRepN,experiment_trials.thisTrialN,experiment_trials.thisN,experiment_trials.thisIndex,experiment_trials.ran,break_done_keyboard.rt
3,space,16.193315,0.184259259,-0.149074074,0,0,0,0,0,0,0,1,1,instructions,"INSTRUCTIONS
At the start of each trial, look at the hash marks (######) in the center of the screen. After a moment, a string of letters will appear. Your task is to indicate if the letter string forms a word or not (i.e., if it is a nonword). For example, AUTHOR is a word while AUTHON is a nonword.

Press the space bar or touch the button below to continue.",0,,5e9ffbdcaf81220009abc94f,2020-11-27_15h03.38.204,lexical_decision_task_MP_exp2,2020.2.5,Win32,60,,,,,,,,,,,,,,,,,,,,,,,,,,,,,,,,,,,,,,,,,
,space,8.49683,0.184259259,-0.149074074,0,0,0,0,1,1,1,1,2,instructions,"If your device has a keyboard, press the 'Z' key for nonwords and the 'M' key for words.





Press the space bar or touch the button below to continue.",1,keyboard-example.gif,5e9ffbdcaf81220009abc94f,2020-11-27_15h03.38.204,lexical_decision_task_MP_exp2,2020.2.5,Win32,60,,,,,,,,,,,,,,,,,,,,,,,,,,,,,,,,,,,,,,,,,
,space,1.940045,0.184259259,-0.149074074,0,0,0,0,2,2,2,1,3,instructions,"If you are using a touchscreen only device, use the buttons on the screen. Do not use the mouse.





Press the space bar or touch the button below to continue.",1,touchscreen-example.gif,5e9ffbdcaf81220009abc94f,2020-11-27_15h03.38.204,lexical_decision_task_MP_exp2,2020.2.5,Win32,60,,,,,,,,,,,,,,,,,,,,,,,,,,,,,,,,,,,,,,,,,
,space,7.992515,0.184259259,-0.149074074,0,0,0,0,3,3,3,1,4,instructions,"It is very important that you respond as quickly and accurately as possible, as each letter string will only be on the screen for two seconds. If you do not respond within this time, the message 'Too slow!' will be displayed and the experiment will progress to the next letter string. The first 20 trials will be practice trials and you will receive feedback on your answers. 

Press the space bar or touch the button below to start the practice trials.",0,,5e9ffbdcaf81220009abc94f,2020-11-27_15h03.38.204,lexical_decision_task_MP_exp2,2020.2.5,Win32,60,,,,,,,,,,,,,,,,,,,,,,,,,,,,,,,,,,,,,,,,,
,,,,,,,,,,,,,,,,,,5e9ffbdcaf81220009abc94f,2020-11-27_15h03.38.204,lexical_decision_task_MP_exp2,2020.2.5,Win32,60,z,1,1.20878,,,,,,,,1.20878,1,0,0,0,15,1,1016,NW,UN,16,mushed,WHAISE,z,,,,,,,,,,,,,,,,,
,,,,,,,,,,,,,,,,,,5e9ffbdcaf81220009abc94f,2020-11-27_15h03.38.204,lexical_decision_task_MP_exp2,2020.2.5,Win32,60,z,1,0.99246,,,,,,,,0.99246,1,0,1,1,14,1,1015,NW,UN,16,miaber,THRALE,z,,,,,,,,,,,,,,,,,
,,,,,,,,,,,,,,,,,,5e9ffbdcaf81220009abc94f,2020-11-27_15h03.38.204,lexical_decision_task_MP_exp2,2020.2.5,Win32,60,z,1,1.14848,,,,,,,,1.14848,1,0,2,2,9,1,1010,NW,"ID",33,fariny,FARINY,z,,,,,,,,,,,,,,,,,
,,,,,,,,,,,,,,,,,,5e9ffbdcaf81220009abc94f,2020-11-27_15h03.38.204,lexical_decision_task_MP_exp2,2020.2.5,Win32,60,m,1,0.988055,,,,,,,,0.988055,1,0,3,3,0,1,1001,WORD,"ID",33,utopia,UTOPIA,m,,,,,,,,,,,,,,,,,
,,,,,,,,,,,,,,,,,,5e9ffbdcaf81220009abc94f,2020-11-27_15h03.38.204,lexical_decision_task_MP_exp2,2020.2.5,Win32,60,m,1,0.589905,,,,,,,,0.589905,1,0,4,4,6,1,1007,WORD,UN,16,tropic,ZOMBIE,m,,,,,,,,,,,,,,,,,
,,,,,,,,,,,,,,,,,,5e9ffbdcaf81220009abc94f,2020-11-27_15h03.38.204,lexical_decision_task_MP_exp2,2020.2.5,Win32,60,m,1,0.65145,,,,,,,,0.65145,1,0,5,5,3,1,1004,WORD,"ID",16,matrix,MATRIX,m,,,,,,,,,,,,,,,,,
,,,,,,,,,,,,,,,,,,5e9ffbdcaf81220009abc94f,2020-11-27_15h03.38.204,lexical_decision_task_MP_exp2,2020.2.5,Win32,60,z,1,0.775465,,,,,,,,0.775465,1,0,6,6,11,1,1012,NW,"ID",16,rashet,RASHET,z,,,,,,,,,,,,,,,,,
,,,,,,,,,,,,,,,,,,5e9ffbdcaf81220009abc94f,2020-11-27_15h03.38.204,lexical_decision_task_MP_exp2,2020.2.5,Win32,60,z,1,0.72241,,,,,,,,0.72241,1,0,7,7,10,1,1011,NW,"ID",16,inlade,INLADE,z,,,,,,,,,,,,,,,,,
,,,,,,,,,,,,,,,,,,5e9ffbdcaf81220009abc94f,2020-11-27_15h03.38.204,lexical_decision_task_MP_exp2,2020.2.5,Win32,60,z,1,0.81393,,,,,,,,0.81393,1,0,8,8,13,1,1014,NW,UN,33,winfer,ROUPET,z,,,,,,,,,,,,,,,,,
,,,,,,,,,,,,,,,,,,5e9ffbdcaf81220009abc94f,2020-11-27_15h03.38.204,lexical_decision_task_MP_exp2,2020.2.5,Win32,60,m,1,0.61497,,,,,,,,0.61497,1,0,9,9,1,1,1002,WORD,"ID",33,adjust,ADJUST,m,,,,,,,,,,,,,,,,,
,,,,,,,,,,,,,,,,,,5e9ffbdcaf81220009abc94f,2020-11-27_15h03.38.204,lexical_decision_task_MP_exp2,2020.2.5,Win32,60,m,1,0.537815,,,,,,,,0.537815,1,0,10,10,5,1,1006,WORD,UN,33,frenzy,OBTAIN,m,,,,,,,,,,,,,,,,,
,,,,,,,,,,,,,,,,,,5e9ffbdcaf81220009abc94f,2020-11-27_15h03.38.204,lexical_decision_task_MP_exp2,2020.2.5,Win32,60,z,1,0.683855,,,,,,,,0.683855,1,0,11,11,8,1,1009,NW,"ID",33,aslert,ASLERT,z,,,,,,,,,,,,,,,,,
,,,,,,,,,,,,,,,,,,5e9ffbdcaf81220009abc94f,2020-11-27_15h03.38.204,lexical_decision_task_MP_exp2,2020.2.5,Win32,60,m,1,0.521335,,,,,,,,0.521335,1,0,12,12,7,1,1008,WORD,UN,16,hurdle,VOLUME,m,,,,,,,,,,,,,,,,,
,,,,,,,,,,,,,,,,,,5e9ffbdcaf81220009abc94f,2020-11-27_15h03.38.204,lexical_decision_task_MP_exp2,2020.2.5,Win32,60,m,1,0.704435,,,,,,,,0.704435,1,0,13,13,4,1,1005,WORD,UN,33,abound,SQUEAK,m,,,,,,,,,,,,,,,,,
,,,,,,,,,,,,,,,,,,5e9ffbdcaf81220009abc94f,2020-11-27_15h03.38.204,lexical_decision_task_MP_exp2,2020.2.5,Win32,60,z,1,0.826015,,,,,,,,0.826015,1,0,14,14,12,1,1013,NW,UN,33,adveil,SPRINY,z,,,,,,,,,,,,,,,,,
,,,,,,,,,,,,,,,,,,5e9ffbdcaf81220009abc94f,2020-11-27_15h03.38.204,lexical_decision_task_MP_exp2,2020.2.5,Win32,60,m,1,0.69733,,,,,,,,0.69733,1,0,15,15,2,1,1003,WORD,"ID",16,almond,ALMOND,m,,,,,,,,,,,,,,,,,
,space,7.69228,0.184259259,-0.149074074,0,0,0,,,,,,1,end_of_practice,"You have completed the practice trials. During the experimental trials, you will not receive feedback, but it is very important that you respond as quickly and accurately as possible. 
Before you begin, please ensure that you are in a comfortable and quiet location and will not be disturbed for about 15 minutes, as we cannot use your data if you do not complete all the trials. 
There will be opportunities to take breaks at regular intervals during the experiment. When you are ready to start the experimental trials, please press space or touch the button below.",,,5e9ffbdcaf81220009abc94f,2020-11-27_15h03.38.204,lexical_decision_task_MP_exp2,2020.2.5,Win32,60,,,,,,,,,,,,,,,,,,,,,,,,,0,0,0,0,1,,,,,,,,,,,,
,,,,,,,,,,,,,,,,,,5e9ffbdcaf81220009abc94f,2020-11-27_15h03.38.204,lexical_decision_task_MP_exp2,2020.2.5,Win32,60,z,1,0.8893,,,,,,,,0.8893,1,,,,,,374,NW,"ID",16,sliant,SLIANT,z,,,,,,0.184259259,-0.149074074,0,0,0,,0,0,0,313,1,
,,,,,,,,,,,,,,,,,,5e9ffbdcaf81220009abc94f,2020-11-27_15h03.38.204,lexical_decision_task_MP_exp2,2020.2.5,Win32,60,m,1,0.767805,,,,,,,,0.767805,1,,,,,,190,WORD,UN,33,stable,BACKUP,m,,,,,,0.184259259,-0.149074074,0,0,0,,0,1,1,129,1,
,,,,,,,,,,,,,,,,,,5e9ffbdcaf81220009abc94f,2020-11-27_15h03.38.204,lexical_decision_task_MP_exp2,2020.2.5,Win32,60,m,1,0.65998,,,,,,,,0.65998,1,,,,,,90,WORD,"ID",33,relish,RELISH,m,,,,,,0.184259259,-0.149074074,0,0,0,,0,2,2,29,1,
,,,,,,,,,,,,,,,,,,5e9ffbdcaf81220009abc94f,2020-11-27_15h03.38.204,lexical_decision_task_MP_exp2,2020.2.5,Win32,60,z,1,0.74674,,,,,,,,0.74674,1,,,,,,392,NW,"ID",16,rouncy,ROUNCY,z,,,,,,0.184259259,-0.149074074,0,0,0,,0,3,3,331,1,
,,,,,,,,,,,,,,,,,,5e9ffbdcaf81220009abc94f,2020-11-27_15h03.38.204,lexical_decision_task_MP_exp2,2020.2.5,Win32,60,m,1,0.601045,,,,,,,,0.601045,1,,,,,,138,WORD,"ID",16,melody,MELODY,m,,,,,,0.184259259,-0.149074074,0,0,0,,0,4,4,77,1,
,,,,,,,,,,,,,,,,,,5e9ffbdcaf81220009abc94f,2020-11-27_15h03.38.204,lexical_decision_task_MP_exp2,2020.2.5,Win32,60,z,1,0.71169,,,,,,,,0.71169,1,,,,,,286,NW,UN,16,nymbel,RELDON,z,,,,,,0.184259259,-0.149074074,0,0,0,,0,5,5,465,1,
,,,,,,,,,,,,,,,,,,5e9ffbdcaf81220009abc94f,2020-11-27_15h03.38.204,lexical_decision_task_MP_exp2,2020.2.5,Win32,60,m,1,1.055385,,,,,,,,1.055385,1,,,,,,142,WORD,"ID",16,spruce,SPRUCE,m,,,,,,0.184259259,-0.149074074,0,0,0,,0,6,6,81,1,
,,,,,,,,,,,,,,,,,,5e9ffbdcaf81220009abc94f,2020-11-27_15h03.38.204,lexical_decision_task_MP_exp2,2020.2.5,Win32,60,m,1,0.584085,,,,,,,,0.584085,1,,,,,,227,WORD,UN,33,master,SELDOM,m,,,,,,0.184259259,-0.149074074,0,0,0,,0,7,7,166,1,
,,,,,,,,,,,,,,,,,,5e9ffbdcaf81220009abc94f,2020-11-27_15h03.38.204,lexical_decision_task_MP_exp2,2020.2.5,Win32,60,z,1,0.855735,,,,,,,,0.855735,1,,,,,,381,NW,"ID",16,huniek,HUNIEK,z,,,,,,0.184259259,-0.149074074,0,0,0,,0,8,8,320,1,
,,,,,,,,,,,,,,,,,,5e9ffbdcaf81220009abc94f,2020-11-27_15h03.38.204,lexical_decision_task_MP_exp2,2020.2.5,Win32,60,m,1,0.564765,,,,,,,,0.564765,1,,,,,,174,WORD,"ID",16,turkey,TURKEY,m,,,,,,0.184259259,-0.149074074,0,0,0,,0,9,9,113,1,
,,,,,,,,,,,,,,,,,,5e9ffbdcaf81220009abc94f,2020-11-27_15h03.38.204,lexical_decision_task_MP_exp2,2020.2.5,Win32,60,z,1,1.06381,,,,,,,,1.06381,1,,,,,,253,NW,UN,16,varosh,RESAIT,z,,,,,,0.184259259,-0.149074074,0,0,0,,0,10,10,432,1,
,,,,,,,,,,,,,,,,,,5e9ffbdcaf81220009abc94f,2020-11-27_15h03.38.204,lexical_decision_task_MP_exp2,2020.2.5,Win32,60,z,1,0.770575,,,,,,,,0.770575,1,,,,,,245,NW,UN,16,piaton,ANOUGS,z,,,,,,0.184259259,-0.149074074,0,0,0,,0,11,11,424,1,
,,,,,,,,,,,,,,,,,,5e9ffbdcaf81220009abc94f,2020-11-27_15h03.38.204,lexical_decision_task_MP_exp2,2020.2.5,Win32,60,m,1,0.646415,,,,,,,,0.646415,1,,,,,,43,WORD,UN,16,foster,TONGUE,m,,,,,,0.184259259,-0.149074074,0,0,0,,0,12,12,222,1,
,,,,,,,,,,,,,,,,,,5e9ffbdcaf81220009abc94f,2020-11-27_15h03.38.204,lexical_decision_task_MP_exp2,2020.2.5,Win32,60,z,1,0.74763,,,,,,,,0.74763,1,,,,,,300,NW,UN,16,smenco,YARION,z,,,,,,0.184259259,-0.149074074,0,0,0,,0,13,13,479,1,
,,,,,,,,,,,,,,,,,,5e9ffbdcaf81220009abc94f,2020-11-27_15h03.38.204,lexical_decision_task_MP_exp2,2020.2.5,Win32,60,m,1,0.570375,,,,,,,,0.570375,1,,,,,,121,WORD,"ID",16,thrive,THRIVE,m,,,,,,0.184259259,-0.149074074,0,0,0,,0,14,14,60,1,
,,,,,,,,,,,,,,,,,,5e9ffbdcaf81220009abc94f,2020-11-27_15h03.38.204,lexical_decision_task_MP_exp2,2020.2.5,Win32,60,m,1,0.59081,,,,,,,,0.59081,1,,,,,,196,WORD,UN,33,stream,CREDIT,m,,,,,,0.184259259,-0.149074074,0,0,0,,0,15,15,135,1,
,,,,,,,,,,,,,,,,,,5e9ffbdcaf81220009abc94f,2020-11-27_15h03.38.204,lexical_decision_task_MP_exp2,2020.2.5,Win32,60,z,1,0.64774,,,,,,,,0.64774,1,,,,,,471,NW,UN,33,cigney,NOBEST,z,,,,,,0.184259259,-0.149074074,0,0,0,,0,16,16,410,1,
,,,,,,,,,,,,,,,,,,5e9ffbdcaf81220009abc94f,2020-11-27_15h03.38.204,lexical_decision_task_MP_exp2,2020.2.5,Win32,60,m,1,0.58631,,,,,,,,0.58631,1,,,,,,163,WORD,"ID",16,string,STRING,m,,,,,,0.184259259,-0.149074074,0,0,0,,0,17,17,102,1,
,,,,,,,,,,,,,,,,,,5e9ffbdcaf81220009abc94f,2020-11-27_15h03.38.204,lexical_decision_task_MP_exp2,2020.2.5,Win32,60,m,1,0.56649,,,,,,,,0.56649,1,,,,,,187,WORD,UN,33,social,COURSE,m,,,,,,0.184259259,-0.149074074,0,0,0,,0,18,18,126,1,
,,,,,,,,,,,,,,,,,,5e9ffbdcaf81220009abc94f,2020-11-27_15h03.38.204,lexical_decision_task_MP_exp2,2020.2.5,Win32,60,z,1,0.81838,,,,,,,,0.81838,1,,,,,,307,NW,"ID",33,kirafe,KIRAFE,z,,,,,,0.184259259,-0.149074074,0,0,0,,0,19,19,246,1,
,,,,,,,,,,,,,,,,,,5e9ffbdcaf81220009abc94f,2020-11-27_15h03.38.204,lexical_decision_task_MP_exp2,2020.2.5,Win32,60,m,1,0.784915,,,,,,,,0.784915,1,,,,,,26,WORD,UN,16,butler,SPRINT,m,,,,,,0.184259259,-0.149074074,0,0,0,,0,20,20,205,1,
,,,,,,,,,,,,,,,,,,5e9ffbdcaf81220009abc94f,2020-11-27_15h03.38.204,lexical_decision_task_MP_exp2,2020.2.5,Win32,60,z,1,0.94944,,,,,,,,0.94944,1,,,,,,390,NW,"ID",16,hatrus,HATRUS,z,,,,,,0.184259259,-0.149074074,0,0,0,,0,21,21,329,1,
,,,,,,,,,,,,,,,,,,5e9ffbdcaf81220009abc94f,2020-11-27_15h03.38.204,lexical_decision_task_MP_exp2,2020.2.5,Win32,60,m,1,0.571785,,,,,,,,0.571785,1,,,,,,228,WORD,UN,33,kidney,MASTER,m,,,,,,0.184259259,-0.149074074,0,0,0,,0,22,22,167,1,
,,,,,,,,,,,,,,,,,,5e9ffbdcaf81220009abc94f,2020-11-27_15h03.38.204,lexical_decision_task_MP_exp2,2020.2.5,Win32,60,m,1,0.575535,,,,,,,,0.575535,1,,,,,,119,WORD,"ID",33,spider,SPIDER,m,,,,,,0.184259259,-0.149074074,0,0,0,,0,23,23,58,1,
,,,,,,,,,,,,,,,,,,5e9ffbdcaf81220009abc94f,2020-11-27_15h03.38.204,lexical_decision_task_MP_exp2,2020.2.5,Win32,60,z,1,0.563875,,,,,,,,0.563875,1,,,,,,324,NW,"ID",33,steikh,STEIKH,z,,,,,,0.184259259,-0.149074074,0,0,0,,0,24,24,263,1,
,,,,,,,,,,,,,,,,,,5e9ffbdcaf81220009abc94f,2020-11-27_15h03.38.204,lexical_decision_task_MP_exp2,2020.2.5,Win32,60,m,1,0.549415,,,,,,,,0.549415,1,,,,,,147,WORD,"ID",16,garlic,GARLIC,m,,,,,,0.184259259,-0.149074074,0,0,0,,0,25,25,86,1,
,,,,,,,,,,,,,,,,,,5e9ffbdcaf81220009abc94f,2020-11-27_15h03.38.204,lexical_decision_task_MP_exp2,2020.2.5,Win32,60,z,1,0.62422,,,,,,,,0.62422,1,,,,,,287,NW,UN,16,yaceup,NYMBEL,z,,,,,,0.184259259,-0.149074074,0,0,0,,0,26,26,466,1,
,,,,,,,,,,,,,,,,,,5e9ffbdcaf81220009abc94f,2020-11-27_15h03.38.204,lexical_decision_task_MP_exp2,2020.2.5,Win32,60,z,1,0.550185,,,,,,,,0.550185,1,,,,,,340,NW,"ID",33,fiatch,FIATCH,z,,,,,,0.184259259,-0.149074074,0,0,0,,0,27,27,279,1,
,,,,,,,,,,,,,,,,,,5e9ffbdcaf81220009abc94f,2020-11-27_15h03.38.204,lexical_decision_task_MP_exp2,2020.2.5,Win32,60,m,0,0.59787,,,,,,,,0.59787,0,,,,,,375,NW,"ID",16,yorque,YORQUE,z,,,,,,0.184259259,-0.149074074,0,0,0,,0,28,28,314,1,
,,,,,,,,,,,,,,,,,,5e9ffbdcaf81220009abc94f,2020-11-27_15h03.38.204,lexical_decision_task_MP_exp2,2020.2.5,Win32,60,m,1,0.587635,,,,,,,,0.587635,1,,,,,,148,WORD,"ID",16,custom,CUSTOM,m,,,,,,0.184259259,-0.149074074,0,0,0,,0,29,29,87,1,
,,,,,,,,,,,,,,,,,,5e9ffbdcaf81220009abc94f,2020-11-27_15h03.38.204,lexical_decision_task_MP_exp2,2020.2.5,Win32,60,m,1,0.608085,,,,,,,,0.608085,1,,,,,,42,WORD,UN,16,tongue,CHAPEL,m,,,,,,0.184259259,-0.149074074,0,0,0,,0,30,30,221,1,
,,,,,,,,,,,,,,,,,,5e9ffbdcaf81220009abc94f,2020-11-27_15h03.38.204,lexical_decision_task_MP_exp2,2020.2.5,Win32,60,m,1,0.55933,,,,,,,,0.55933,1,,,,,,101,WORD,"ID",33,wrench,WRENCH,m,,,,,,0.184259259,-0.149074074,0,0,0,,0,31,31,40,1,
,,,,,,,,,,,,,,,,,,5e9ffbdcaf81220009abc94f,2020-11-27_15h03.38.204,lexical_decision_task_MP_exp2,2020.2.5,Win32,60,z,1,0.76434,,,,,,,,0.76434,1,,,,,,363,NW,"ID",16,breali,BREALI,z,,,,,,0.184259259,-0.149074074,0,0,0,,0,32,32,302,1,
,,,,,,,,,,,,,,,,,,5e9ffbdcaf81220009abc94f,2020-11-27_15h03.38.204,lexical_decision_task_MP_exp2,2020.2.5,Win32,60,m,1,0.666085,,,,,,,,0.666085,1,,,,,,139,WORD,"ID",16,debris,DEBRIS,m,,,,,,0.184259259,-0.149074074,0,0,0,,0,33,33,78,1,
,,,,,,,,,,,,,,,,,,5e9ffbdcaf81220009abc94f,2020-11-27_15h03.38.204,lexical_decision_task_MP_exp2,2020.2.5,Win32,60,z,1,0.63804,,,,,,,,0.63804,1,,,,,,447,NW,UN,33,sadent,GIRCUE,z,,,,,,0.184259259,-0.149074074,0,0,0,,0,34,34,386,1,
,,,,,,,,,,,,,,,,,,5e9ffbdcaf81220009abc94f,2020-11-27_15h03.38.204,lexical_decision_task_MP_exp2,2020.2.5,Win32,60,m,1,0.582885,,,,,,,,0.582885,1,,,,,,198,WORD,UN,33,invoke,WICKED,m,,,,,,0.184259259,-0.149074074,0,0,0,,0,35,35,137,1,
,,,,,,,,,,,,,,,,,,5e9ffbdcaf81220009abc94f,2020-11-27_15h03.38.204,lexical_decision_task_MP_exp2,2020.2.5,Win32,60,z,1,0.87257,,,,,,,,0.87257,1,,,,,,378,NW,"ID",16,shrile,SHRILE,z,,,,,,0.184259259,-0.149074074,0,0,0,,0,36,36,317,1,
,,,,,,,,,,,,,,,,,,5e9ffbdcaf81220009abc94f,2020-11-27_15h03.38.204,lexical_decision_task_MP_exp2,2020.2.5,Win32,60,z,1,0.753595,,,,,,,,0.753595,1,,,,,,325,NW,"ID",33,thruse,THRUSE,z,,,,,,0.184259259,-0.149074074,0,0,0,,0,37,37,264,1,
,,,,,,,,,,,,,,,,,,5e9ffbdcaf81220009abc94f,2020-11-27_15h03.38.204,lexical_decision_task_MP_exp2,2020.2.5,Win32,60,z,1,0.8056,,,,,,,,0.8056,1,,,,,,248,NW,UN,16,batrol,STROLE,z,,,,,,0.184259259,-0.149074074,0,0,0,,0,38,38,427,1,
,,,,,,,,,,,,,,,,,,5e9ffbdcaf81220009abc94f,2020-11-27_15h03.38.204,lexical_decision_task_MP_exp2,2020.2.5,Win32,60,z,1,0.647205,,,,,,,,0.647205,1,,,,,,427,NW,UN,33,tandly,SCHIND,z,,,,,,0.184259259,-0.149074074,0,0,0,,0,39,39,366,1,
,,,,,,,,,,,,,,,,,,5e9ffbdcaf81220009abc94f,2020-11-27_15h03.38.204,lexical_decision_task_MP_exp2,2020.2.5,Win32,60,z,1,0.684805,,,,,,,,0.684805,1,,,,,,301,NW,"ID",33,fainch,FAINCH,z,,,,,,0.184259259,-0.149074074,0,0,0,,0,40,40,240,1,
,,,,,,,,,,,,,,,,,,5e9ffbdcaf81220009abc94f,2020-11-27_15h03.38.204,lexical_decision_task_MP_exp2,2020.2.5,Win32,60,m,1,0.617395,,,,,,,,0.617395,1,,,,,,1,WORD,UN,16,ethnic,FRIGHT,m,,,,,,0.184259259,-0.149074074,0,0,0,,0,41,41,180,1,
,,,,,,,,,,,,,,,,,,5e9ffbdcaf81220009abc94f,2020-11-27_15h03.38.204,lexical_decision_task_MP_exp2,2020.2.5,Win32,60,m,1,0.648535,,,,,,,,0.648535,1,,,,,,113,WORD,"ID",33,chorus,CHORUS,m,,,,,,0.184259259,-0.149074074,0,0,0,,0,42,42,52,1,
,,,,,,,,,,,,,,,,,,5e9ffbdcaf81220009abc94f,2020-11-27_15h03.38.204,lexical_decision_task_MP_exp2,2020.2.5,Win32,60,m,1,0.504015,,,,,,,,0.504015,1,,,,,,27,WORD,UN,16,comedy,SCREAM,m,,,,,,0.184259259,-0.149074074,0,0,0,,0,43,43,206,1,
,,,,,,,,,,,,,,,,,,5e9ffbdcaf81220009abc94f,2020-11-27_15h03.38.204,lexical_decision_task_MP_exp2,2020.2.5,Win32,60,m,1,0.68281,,,,,,,,0.68281,1,,,,,,134,WORD,"ID",16,staple,STAPLE,m,,,,,,0.184259259,-0.149074074,0,0,0,,0,44,44,73,1,
,,,,,,,,,,,,,,,,,,5e9ffbdcaf81220009abc94f,2020-11-27_15h03.38.204,lexical_decision_task_MP_exp2,2020.2.5,Win32,60,z,1,0.60646,,,,,,,,0.60646,1,,,,,,351,NW,"ID",33,tiesch,TIESCH,z,,,,,,0.184259259,-0.149074074,0,0,0,,0,45,45,290,1,
,,,,,,,,,,,,,,,,,,5e9ffbdcaf81220009abc94f,2020-11-27_15h03.38.204,lexical_decision_task_MP_exp2,2020.2.5,Win32,60,m,1,0.54987,,,,,,,,0.54987,1,,,,,,44,WORD,UN,16,clergy,DANGER,m,,,,,,0.184259259,-0.149074074,0,0,0,,0,46,46,223,1,
,,,,,,,,,,,,,,,,,,5e9ffbdcaf81220009abc94f,2020-11-27_15h03.38.204,lexical_decision_task_MP_exp2,2020.2.5,Win32,60,m,1,0.580585,,,,,,,,0.580585,1,,,,,,226,WORD,UN,33,flower,CASINO,m,,,,,,0.184259259,-0.149074074,0,0,0,,0,47,47,165,1,
,,,,,,,,,,,,,,,,,,5e9ffbdcaf81220009abc94f,2020-11-27_15h03.38.204,lexical_decision_task_MP_exp2,2020.2.5,Win32,60,m,1,0.552505,,,,,,,,0.552505,1,,,,,,106,WORD,"ID",33,ransom,RANSOM,m,,,,,,0.184259259,-0.149074074,0,0,0,,0,48,48,45,1,
,,,,,,,,,,,,,,,,,,5e9ffbdcaf81220009abc94f,2020-11-27_15h03.38.204,lexical_decision_task_MP_exp2,2020.2.5,Win32,60,z,1,0.65751,,,,,,,,0.65751,1,,,,,,477,NW,UN,33,lobush,PHOTIE,z,,,,,,0.184259259,-0.149074074,0,0,0,,0,49,49,416,1,
,,,,,,,,,,,,,,,,,,5e9ffbdcaf81220009abc94f,2020-11-27_15h03.38.204,lexical_decision_task_MP_exp2,2020.2.5,Win32,60,z,1,1.221435,,,,,,,,1.221435,1,,,,,,330,NW,"ID",33,kensom,KENSOM,z,,,,,,0.184259259,-0.149074074,0,0,0,,0,50,50,269,1,
,,,,,,,,,,,,,,,,,,5e9ffbdcaf81220009abc94f,2020-11-27_15h03.38.204,lexical_decision_task_MP_exp2,2020.2.5,Win32,60,z,1,0.6588,,,,,,,,0.6588,1,,,,,,479,NW,UN,33,crible,LOBUSH,z,,,,,,0.184259259,-0.149074074,0,0,0,,0,51,51,418,1,
,,,,,,,,,,,,,,,,,,5e9ffbdcaf81220009abc94f,2020-11-27_15h03.38.204,lexical_decision_task_MP_exp2,2020.2.5,Win32,60,z,1,1.27069,,,,,,,,1.27069,1,,,,,,348,NW,"ID",33,dumple,DUMPLE,z,,,,,,0.184259259,-0.149074074,0,0,0,,0,52,52,287,1,
,,,,,,,,,,,,,,,,,,5e9ffbdcaf81220009abc94f,2020-11-27_15h03.38.204,lexical_decision_task_MP_exp2,2020.2.5,Win32,60,m,1,0.637585,,,,,,,,0.637585,1,,,,,,30,WORD,UN,16,weapon,ORIENT,m,,,,,,0.184259259,-0.149074074,0,0,0,,0,53,53,209,1,
,,,,,,,,,,,,,,,,,,5e9ffbdcaf81220009abc94f,2020-11-27_15h03.38.204,lexical_decision_task_MP_exp2,2020.2.5,Win32,60,z,1,0.8642,,,,,,,,0.8642,1,,,,,,470,NW,UN,33,nobest,CRUDIO,z,,,,,,0.184259259,-0.149074074,0,0,0,,0,54,54,409,1,
,,,,,,,,,,,,,,,,,,5e9ffbdcaf81220009abc94f,2020-11-27_15h03.38.204,lexical_decision_task_MP_exp2,2020.2.5,Win32,60,z,1,0.693575,,,,,,,,0.693575,1,,,,,,440,NW,UN,33,rastoe,SARIDE,z,,,,,,0.184259259,-0.149074074,0,0,0,,0,55,55,379,1,
,,,,,,,,,,,,,,,,,,5e9ffbdcaf81220009abc94f,2020-11-27_15h03.38.204,lexical_decision_task_MP_exp2,2020.2.5,Win32,60,m,1,0.518185,,,,,,,,0.518185,1,,,,,,230,WORD,UN,33,mother,FRINGE,m,,,,,,0.184259259,-0.149074074,0,0,0,,0,56,56,169,1,
,,,,,,,,,,,,,,,,,,5e9ffbdcaf81220009abc94f,2020-11-27_15h03.38.204,lexical_decision_task_MP_exp2,2020.2.5,Win32,60,m,1,0.532855,,,,,,,,0.532855,1,,,,,,167,WORD,"ID",16,design,DESIGN,m,,,,,,0.184259259,-0.149074074,0,0,0,,0,57,57,106,1,
,,,,,,,,,,,,,,,,,,5e9ffbdcaf81220009abc94f,2020-11-27_15h03.38.204,lexical_decision_task_MP_exp2,2020.2.5,Win32,60,m,1,0.756025,,,,,,,,0.756025,1,,,,,,127,WORD,"ID",16,castle,CASTLE,m,,,,,,0.184259259,-0.149074074,0,0,0,,0,58,58,66,1,
,,,,,,,,,,,,,,,,,,5e9ffbdcaf81220009abc94f,2020-11-27_15h03.38.204,lexical_decision_task_MP_exp2,2020.2.5,Win32,60,m,1,0.569535,,,,,,,,0.569535,1,,,,,,7,WORD,UN,16,abrupt,ANCHOR,m,,,,,,0.184259259,-0.149074074,0,0,0,,0,59,59,186,1,
,,,,,,,,,,,,,,,,,,5e9ffbdcaf81220009abc94f,2020-11-27_15h03.38.204,lexical_decision_task_MP_exp2,2020.2.5,Win32,60,m,1,0.471515,,,,,,,,0.471515,1,,,,,,75,WORD,"ID",33,trophy,TROPHY,m,,,,,,0.184259259,-0.149074074,0,0,0,,0,60,60,14,1,
,,,,,,,,,,,,,,,,,,5e9ffbdcaf81220009abc94f,2020-11-27_15h03.38.204,lexical_decision_task_MP_exp2,2020.2.5,Win32,60,z,1,0.5567,,,,,,,,0.5567,1,,,,,,441,NW,UN,33,aboune,RASTOE,z,,,,,,0.184259259,-0.149074074,0,0,0,,0,61,61,380,1,
,,,,,,,,,,,,,,,,,,5e9ffbdcaf81220009abc94f,2020-11-27_15h03.38.204,lexical_decision_task_MP_exp2,2020.2.5,Win32,60,z,1,0.7478,,,,,,,,0.7478,1,,,,,,429,NW,UN,33,caroey,FUNTLE,z,,,,,,0.184259259,-0.149074074,0,0,0,,0,62,62,368,1,
,,,,,,,,,,,,,,,,,,5e9ffbdcaf81220009abc94f,2020-11-27_15h03.38.204,lexical_decision_task_MP_exp2,2020.2.5,Win32,60,m,1,0.683635,,,,,,,,0.683635,1,,,,,,89,WORD,"ID",33,permit,PERMIT,m,,,,,,0.184259259,-0.149074074,0,0,0,,0,63,63,28,1,
,,,,,,,,,,,,,,,,,,5e9ffbdcaf81220009abc94f,2020-11-27_15h03.38.204,lexical_decision_task_MP_exp2,2020.2.5,Win32,60,m,1,0.54278,,,,,,,,0.54278,1,,,,,,202,WORD,UN,33,phrase,FACTOR,m,,,,,,0.184259259,-0.149074074,0,0,0,,0,64,64,141,1,
,,,,,,,,,,,,,,,,,,5e9ffbdcaf81220009abc94f,2020-11-27_15h03.38.204,lexical_decision_task_MP_exp2,2020.2.5,Win32,60,z,0,0.688255,,,,,,,,0.688255,0,,,,,,176,WORD,"ID",16,strife,STRIFE,m,,,,,,0.184259259,-0.149074074,0,0,0,,0,65,65,115,1,
,,,,,,,,,,,,,,,,,,5e9ffbdcaf81220009abc94f,2020-11-27_15h03.38.204,lexical_decision_task_MP_exp2,2020.2.5,Win32,60,z,1,1.09752,,,,,,,,1.09752,1,,,,,,289,NW,UN,16,splino,STARBY,z,,,,,,0.184259259,-0.149074074,0,0,0,,0,66,66,468,1,
,,,,,,,,,,,,,,,,,,5e9ffbdcaf81220009abc94f,2020-11-27_15h03.38.204,lexical_decision_task_MP_exp2,2020.2.5,Win32,60,m,1,0.502765,,,,,,,,0.502765,1,,,,,,58,WORD,UN,16,splint,FOSTER,m,,,,,,0.184259259,-0.149074074,0,0,0,,0,67,67,237,1,
,,,,,,,,,,,,,,,,,,5e9ffbdcaf81220009abc94f,2020-11-27_15h03.38.204,lexical_decision_task_MP_exp2,2020.2.5,Win32,60,z,1,0.730865,,,,,,,,0.730865,1,,,,,,322,NW,"ID",33,slanch,SLANCH,z,,,,,,0.184259259,-0.149074074,0,0,0,,0,68,68,261,1,
,,,,,,,,,,,,,,,,,,5e9ffbdcaf81220009abc94f,2020-11-27_15h03.38.204,lexical_decision_task_MP_exp2,2020.2.5,Win32,60,z,1,0.806225,,,,,,,,0.806225,1,,,,,,338,NW,"ID",33,wreash,WREASH,z,,,,,,0.184259259,-0.149074074,0,0,0,,0,69,69,277,1,
,,,,,,,,,,,,,,,,,,5e9ffbdcaf81220009abc94f,2020-11-27_15h03.38.204,lexical_decision_task_MP_exp2,2020.2.5,Win32,60,z,1,0.93935,,,,,,,,0.93935,1,,,,,,409,NW,"ID",16,elopia,ELOPIA,z,,,,,,0.184259259,-0.149074074,0,0,0,,0,70,70,348,1,
,,,,,,,,,,,,,,,,,,5e9ffbdcaf81220009abc94f,2020-11-27_15h03.38.204,lexical_decision_task_MP_exp2,2020.2.5,Win32,60,z,1,0.64722,,,,,,,,0.64722,1,,,,,,308,NW,"ID",33,psetch,PSETCH,z,,,,,,0.184259259,-0.149074074,0,0,0,,0,71,71,247,1,
,,,,,,,,,,,,,,,,,,5e9ffbdcaf81220009abc94f,2020-11-27_15h03.38.204,lexical_decision_task_MP_exp2,2020.2.5,Win32,60,z,1,0.73074,,,,,,,,0.73074,1,,,,,,302,NW,"ID",33,miluer,MILUER,z,,,,,,0.184259259,-0.149074074,0,0,0,,0,72,72,241,1,
,,,,,,,,,,,,,,,,,,5e9ffbdcaf81220009abc94f,2020-11-27_15h03.38.204,lexical_decision_task_MP_exp2,2020.2.5,Win32,60,m,1,0.6207,,,,,,,,0.6207,1,,,,,,219,WORD,UN,33,voyage,BUCKET,m,,,,,,0.184259259,-0.149074074,0,0,0,,0,73,73,158,1,
,,,,,,,,,,,,,,,,,,5e9ffbdcaf81220009abc94f,2020-11-27_15h03.38.204,lexical_decision_task_MP_exp2,2020.2.5,Win32,60,m,1,0.54159,,,,,,,,0.54159,1,,,,,,34,WORD,UN,16,socket,JUNGLE,m,,,,,,0.184259259,-0.149074074,0,0,0,,0,74,74,213,1,
,,,,,,,,,,,,,,,,,,5e9ffbdcaf81220009abc94f,2020-11-27_15h03.38.204,lexical_decision_task_MP_exp2,2020.2.5,Win32,60,z,1,0.85818,,,,,,,,0.85818,1,,,,,,400,NW,"ID",16,wearox,WEAROX,z,,,,,,0.184259259,-0.149074074,0,0,0,,0,75,75,339,1,
,,,,,,,,,,,,,,,,,,5e9ffbdcaf81220009abc94f,2020-11-27_15h03.38.204,lexical_decision_task_MP_exp2,2020.2.5,Win32,60,m,1,0.65919,,,,,,,,0.65919,1,,,,,,54,WORD,UN,16,stroke,RAMBLE,m,,,,,,0.184259259,-0.149074074,0,0,0,,0,76,76,233,1,
,,,,,,,,,,,,,,,,,,5e9ffbdcaf81220009abc94f,2020-11-27_15h03.38.204,lexical_decision_task_MP_exp2,2020.2.5,Win32,60,m,1,0.6509,,,,,,,,0.6509,1,,,,,,52,WORD,UN,16,police,IMPOSE,m,,,,,,0.184259259,-0.149074074,0,0,0,,0,77,77,231,1,
,,,,,,,,,,,,,,,,,,5e9ffbdcaf81220009abc94f,2020-11-27_15h03.38.204,lexical_decision_task_MP_exp2,2020.2.5,Win32,60,z,1,0.66401,,,,,,,,0.66401,1,,,,,,435,NW,UN,33,frutan,IMPURB,z,,,,,,0.184259259,-0.149074074,0,0,0,,0,78,78,374,1,
,,,,,,,,,,,,,,,,,,5e9ffbdcaf81220009abc94f,2020-11-27_15h03.38.204,lexical_decision_task_MP_exp2,2020.2.5,Win32,60,z,1,0.643405,,,,,,,,0.643405,1,,,,,,294,NW,UN,16,gleath,INHORT,z,,,,,,0.184259259,-0.149074074,0,0,0,,0,79,79,473,1,
,,,,,,,,,,,,,,,,,,5e9ffbdcaf81220009abc94f,2020-11-27_15h03.38.204,lexical_decision_task_MP_exp2,2020.2.5,Win32,60,m,1,1.087195,,,,,,,,1.087195,1,,,,,,125,WORD,"ID",16,nickel,NICKEL,m,,,,,,0.184259259,-0.149074074,0,0,0,,0,80,80,64,1,
,,,,,,,,,,,,,,,,,,5e9ffbdcaf81220009abc94f,2020-11-27_15h03.38.204,lexical_decision_task_MP_exp2,2020.2.5,Win32,60,z,1,0.92308,,,,,,,,0.92308,1,,,,,,376,NW,"ID",16,iguare,IGUARE,z,,,,,,0.184259259,-0.149074074,0,0,0,,0,81,81,315,1,
,,,,,,,,,,,,,,,,,,5e9ffbdcaf81220009abc94f,2020-11-27_15h03.38.204,lexical_decision_task_MP_exp2,2020.2.5,Win32,60,m,1,0.54763,,,,,,,,0.54763,1,,,,,,61,WORD,"ID",33,ponder,PONDER,m,,,,,,0.184259259,-0.149074074,0,0,0,,0,82,82,0,1,
,,,,,,,,,,,,,,,,,,5e9ffbdcaf81220009abc94f,2020-11-27_15h03.38.204,lexical_decision_task_MP_exp2,2020.2.5,Win32,60,m,1,0.688985,,,,,,,,0.688985,1,,,,,,32,WORD,UN,16,scream,BUCKLE,m,,,,,,0.184259259,-0.149074074,0,0,0,,0,83,83,211,1,
,,,,,,,,,,,,,,,,,,5e9ffbdcaf81220009abc94f,2020-11-27_15h03.38.204,lexical_decision_task_MP_exp2,2020.2.5,Win32,60,m,1,0.509225,,,,,,,,0.509225,1,,,,,,169,WORD,"ID",16,genius,GENIUS,m,,,,,,0.184259259,-0.149074074,0,0,0,,0,84,84,108,1,
,,,,,,,,,,,,,,,,,,5e9ffbdcaf81220009abc94f,2020-11-27_15h03.38.204,lexical_decision_task_MP_exp2,2020.2.5,Win32,60,z,1,0.59978,,,,,,,,0.59978,1,,,,,,474,NW,UN,33,acrise,HABLIN,z,,,,,,0.184259259,-0.149074074,0,0,0,,0,85,85,413,1,
,,,,,,,,,,,,,,,,,,5e9ffbdcaf81220009abc94f,2020-11-27_15h03.38.204,lexical_decision_task_MP_exp2,2020.2.5,Win32,60,m,1,0.588565,,,,,,,,0.588565,1,,,,,,141,WORD,"ID",16,orphan,ORPHAN,m,,,,,,0.184259259,-0.149074074,0,0,0,,0,86,86,80,1,
,,,,,,,,,,,,,,,,,,5e9ffbdcaf81220009abc94f,2020-11-27_15h03.38.204,lexical_decision_task_MP_exp2,2020.2.5,Win32,60,z,1,0.614115,,,,,,,,0.614115,1,,,,,,359,NW,"ID",33,fonver,FONVER,z,,,,,,0.184259259,-0.149074074,0,0,0,,0,87,87,298,1,
,,,,,,,,,,,,,,,,,,5e9ffbdcaf81220009abc94f,2020-11-27_15h03.38.204,lexical_decision_task_MP_exp2,2020.2.5,Win32,60,m,1,0.633925,,,,,,,,0.633925,1,,,,,,74,WORD,"ID",33,plaque,PLAQUE,m,,,,,,0.184259259,-0.149074074,0,0,0,,0,88,88,13,1,
,,,,,,,,,,,,,,,,,,5e9ffbdcaf81220009abc94f,2020-11-27_15h03.38.204,lexical_decision_task_MP_exp2,2020.2.5,Win32,60,m,1,0.687575,,,,,,,,0.687575,1,,,,,,162,WORD,"ID",16,candle,CANDLE,m,,,,,,0.184259259,-0.149074074,0,0,0,,0,89,89,101,1,
,,,,,,,,,,,,,,,,,,5e9ffbdcaf81220009abc94f,2020-11-27_15h03.38.204,lexical_decision_task_MP_exp2,2020.2.5,Win32,60,z,1,0.64943,,,,,,,,0.64943,1,,,,,,449,NW,UN,33,phrect,BRUNGE,z,,,,,,0.184259259,-0.149074074,0,0,0,,0,90,90,388,1,
,,,,,,,,,,,,,,,,,,5e9ffbdcaf81220009abc94f,2020-11-27_15h03.38.204,lexical_decision_task_MP_exp2,2020.2.5,Win32,60,m,1,0.580715,,,,,,,,0.580715,1,,,,,,103,WORD,"ID",33,bounce,BOUNCE,m,,,,,,0.184259259,-0.149074074,0,0,0,,0,91,91,42,1,
,,,,,,,,,,,,,,,,,,5e9ffbdcaf81220009abc94f,2020-11-27_15h03.38.204,lexical_decision_task_MP_exp2,2020.2.5,Win32,60,m,1,0.55929,,,,,,,,0.55929,1,,,,,,118,WORD,"ID",33,flight,FLIGHT,m,,,,,,0.184259259,-0.149074074,0,0,0,,0,92,92,57,1,
,,,,,,,,,,,,,,,,,,5e9ffbdcaf81220009abc94f,2020-11-27_15h03.38.204,lexical_decision_task_MP_exp2,2020.2.5,Win32,60,m,0,0.481145,,,,,,,,0.481145,0,,,,,,316,NW,"ID",33,scregm,SCREGM,z,,,,,,0.184259259,-0.149074074,0,0,0,,0,93,93,255,1,
,,,,,,,,,,,,,,,,,,5e9ffbdcaf81220009abc94f,2020-11-27_15h03.38.204,lexical_decision_task_MP_exp2,2020.2.5,Win32,60,z,1,0.69741,,,,,,,,0.69741,1,,,,,,283,NW,UN,16,shaple,VERALF,z,,,,,,0.184259259,-0.149074074,0,0,0,,0,94,94,462,1,
,,,,,,,,,,,,,,,,,,5e9ffbdcaf81220009abc94f,2020-11-27_15h03.38.204,lexical_decision_task_MP_exp2,2020.2.5,Win32,60,m,1,0.97331,,,,,,,,0.97331,1,,,,,,225,WORD,UN,33,casino,VULGAR,m,,,,,,0.184259259,-0.149074074,0,0,0,,0,95,95,164,1,
,,,,,,,,,,,,,,,,,,5e9ffbdcaf81220009abc94f,2020-11-27_15h03.38.204,lexical_decision_task_MP_exp2,2020.2.5,Win32,60,z,1,1.130825,,,,,,,,1.130825,1,,,,,,250,NW,UN,16,lupict,MILTED,z,,,,,,0.184259259,-0.149074074,0,0,0,,0,96,96,429,1,
,,,,,,,,,,,,,,,,,,5e9ffbdcaf81220009abc94f,2020-11-27_15h03.38.204,lexical_decision_task_MP_exp2,2020.2.5,Win32,60,z,1,0.82681,,,,,,,,0.82681,1,,,,,,445,NW,UN,33,runamo,MINKEL,z,,,,,,0.184259259,-0.149074074,0,0,0,,0,97,97,384,1,
,,,,,,,,,,,,,,,,,,5e9ffbdcaf81220009abc94f,2020-11-27_15h03.38.204,lexical_decision_task_MP_exp2,2020.2.5,Win32,60,z,1,0.93854,,,,,,,,0.93854,1,,,,,,334,NW,"ID",33,watmeg,WATMEG,z,,,,,,0.184259259,-0.149074074,0,0,0,,0,98,98,273,1,
,,,,,,,,,,,,,,,,,,5e9ffbdcaf81220009abc94f,2020-11-27_15h03.38.204,lexical_decision_task_MP_exp2,2020.2.5,Win32,60,z,1,1.685535,,,,,,,,1.685535,1,,,,,,345,NW,"ID",33,absend,ABSEND,z,,,,,,0.184259259,-0.149074074,0,0,0,,0,99,99,284,1,
,,,,,,,,,,,,,,,,,,5e9ffbdcaf81220009abc94f,2020-11-27_15h03.38.204,lexical_decision_task_MP_exp2,2020.2.5,Win32,60,z,1,0.7235,,,,,,,,0.7235,1,,,,,,347,NW,"ID",33,kerift,KERIFT,z,,,,,,0.184259259,-0.149074074,0,0,0,,0,100,100,286,1,
,,,,,,,,,,,,,,,,,,5e9ffbdcaf81220009abc94f,2020-11-27_15h03.38.204,lexical_decision_task_MP_exp2,2020.2.5,Win32,60,z,1,1.181265,,,,,,,,1.181265,1,,,,,,417,NW,"ID",16,earoud,EAROUD,z,,,,,,0.184259259,-0.149074074,0,0,0,,0,101,101,356,1,
,,,,,,,,,,,,,,,,,,5e9ffbdcaf81220009abc94f,2020-11-27_15h03.38.204,lexical_decision_task_MP_exp2,2020.2.5,Win32,60,m,1,0.647305,,,,,,,,0.647305,1,,,,,,175,WORD,"ID",16,fabric,FABRIC,m,,,,,,0.184259259,-0.149074074,0,0,0,,0,102,102,114,1,
,,,,,,,,,,,,,,,,,,5e9ffbdcaf81220009abc94f,2020-11-27_15h03.38.204,lexical_decision_task_MP_exp2,2020.2.5,Win32,60,z,1,0.62607,,,,,,,,0.62607,1,,,,,,306,NW,"ID",33,sounge,SOUNGE,z,,,,,,0.184259259,-0.149074074,0,0,0,,0,103,103,245,1,
,,,,,,,,,,,,,,,,,,5e9ffbdcaf81220009abc94f,2020-11-27_15h03.38.204,lexical_decision_task_MP_exp2,2020.2.5,Win32,60,m,1,0.67458,,,,,,,,0.67458,1,,,,,,18,WORD,UN,16,patron,HUMBLE,m,,,,,,0.184259259,-0.149074074,0,0,0,,0,104,104,197,1,
,,,,,,,,,,,,,,,,,,5e9ffbdcaf81220009abc94f,2020-11-27_15h03.38.204,lexical_decision_task_MP_exp2,2020.2.5,Win32,60,z,1,0.69702,,,,,,,,0.69702,1,,,,,,380,NW,"ID",16,cavory,CAVORY,z,,,,,,0.184259259,-0.149074074,0,0,0,,0,105,105,319,1,
,,,,,,,,,,,,,,,,,,5e9ffbdcaf81220009abc94f,2020-11-27_15h03.38.204,lexical_decision_task_MP_exp2,2020.2.5,Win32,60,z,1,0.80856,,,,,,,,0.80856,1,,,,,,432,NW,UN,33,drance,LUNKER,z,,,,,,0.184259259,-0.149074074,0,0,0,,0,106,106,371,1,
,,,,,,,,,,,,,,,,,,5e9ffbdcaf81220009abc94f,2020-11-27_15h03.38.204,lexical_decision_task_MP_exp2,2020.2.5,Win32,60,z,1,1.236815,,,,,,,,1.236815,1,,,,,,314,NW,"ID",33,sprine,SPRINE,z,,,,,,0.184259259,-0.149074074,0,0,0,,0,107,107,253,1,
,,,,,,,,,,,,,,,,,,5e9ffbdcaf81220009abc94f,2020-11-27_15h03.38.204,lexical_decision_task_MP_exp2,2020.2.5,Win32,60,m,1,0.763935,,,,,,,,0.763935,1,,,,,,40,WORD,UN,16,spring,CONVEY,m,,,,,,0.184259259,-0.149074074,0,0,0,,0,108,108,219,1,
,,,,,,,,,,,,,,,,,,5e9ffbdcaf81220009abc94f,2020-11-27_15h03.38.204,lexical_decision_task_MP_exp2,2020.2.5,Win32,60,m,1,0.58843,,,,,,,,0.58843,1,,,,,,110,WORD,"ID",33,polite,POLITE,m,,,,,,0.184259259,-0.149074074,0,0,0,,0,109,109,49,1,
,,,,,,,,,,,,,,,,,,5e9ffbdcaf81220009abc94f,2020-11-27_15h03.38.204,lexical_decision_task_MP_exp2,2020.2.5,Win32,60,z,1,0.736195,,,,,,,,0.736195,1,,,,,,299,NW,UN,16,yarion,STURCH,z,,,,,,0.184259259,-0.149074074,0,0,0,,0,110,110,478,1,
,,,,,,,,,,,,,,,,,,5e9ffbdcaf81220009abc94f,2020-11-27_15h03.38.204,lexical_decision_task_MP_exp2,2020.2.5,Win32,60,z,1,0.70253,,,,,,,,0.70253,1,,,,,,370,NW,"ID",16,sleact,SLEACT,z,,,,,,0.184259259,-0.149074074,0,0,0,,0,111,111,309,1,
,,,,,,,,,,,,,,,,,,5e9ffbdcaf81220009abc94f,2020-11-27_15h03.38.204,lexical_decision_task_MP_exp2,2020.2.5,Win32,60,m,1,0.588445,,,,,,,,0.588445,1,,,,,,33,WORD,UN,16,jungle,BUTLER,m,,,,,,0.184259259,-0.149074074,0,0,0,,0,112,112,212,1,
,,,,,,,,,,,,,,,,,,5e9ffbdcaf81220009abc94f,2020-11-27_15h03.38.204,lexical_decision_task_MP_exp2,2020.2.5,Win32,60,z,1,0.61919,,,,,,,,0.61919,1,,,,,,436,NW,UN,33,snapel,FRUTAN,z,,,,,,0.184259259,-0.149074074,0,0,0,,0,113,113,375,1,
,,,,,,,,,,,,,,,,,,5e9ffbdcaf81220009abc94f,2020-11-27_15h03.38.204,lexical_decision_task_MP_exp2,2020.2.5,Win32,60,m,1,0.53433,,,,,,,,0.53433,1,,,,,,63,WORD,"ID",33,launch,LAUNCH,m,,,,,,0.184259259,-0.149074074,0,0,0,,0,114,114,2,1,
,,,,,,,,,,,,,,,,,,5e9ffbdcaf81220009abc94f,2020-11-27_15h03.38.204,lexical_decision_task_MP_exp2,2020.2.5,Win32,60,m,1,0.5373,,,,,,,,0.5373,1,,,,,,130,WORD,"ID",16,stupid,STUPID,m,,,,,,0.184259259,-0.149074074,0,0,0,,0,115,115,69,1,
,,,,,,,,,,,,,,,,,,5e9ffbdcaf81220009abc94f,2020-11-27_15h03.38.204,lexical_decision_task_MP_exp2,2020.2.5,Win32,60,z,1,0.86007,,,,,,,,0.86007,1,,,,,,454,NW,UN,33,tondle,SCOUGE,z,,,,,,0.184259259,-0.149074074,0,0,0,,0,116,116,393,1,
,,,,,,,,,,,,,,,,,,5e9ffbdcaf81220009abc94f,2020-11-27_15h03.38.204,lexical_decision_task_MP_exp2,2020.2.5,Win32,60,z,1,0.73528,,,,,,,,0.73528,1,,,,,,394,NW,"ID",16,spaqux,SPAQUX,z,,,,,,0.184259259,-0.149074074,0,0,0,,0,117,117,333,1,
,,,,,,,,,,,,,,,,,,5e9ffbdcaf81220009abc94f,2020-11-27_15h03.38.204,lexical_decision_task_MP_exp2,2020.2.5,Win32,60,z,1,0.6976,,,,,,,,0.6976,1,,,,,,249,NW,UN,16,milted,BATROL,z,,,,,,0.184259259,-0.149074074,0,0,0,,0,118,118,428,1,
,,,,,,,,,,,,,,,,,,5e9ffbdcaf81220009abc94f,2020-11-27_15h03.38.204,lexical_decision_task_MP_exp2,2020.2.5,Win32,60,m,1,1.47639,,,,,,,,1.47639,1,,,,,,100,WORD,"ID",33,carbon,CARBON,m,,,,,,0.184259259,-0.149074074,0,0,0,,0,119,119,39,1,
,,,,,,,,,,,,,,,,,,5e9ffbdcaf81220009abc94f,2020-11-27_15h03.38.204,lexical_decision_task_MP_exp2,2020.2.5,Win32,60,z,1,0.69181,,,,,,,,0.69181,1,,,,,,275,NW,UN,16,yarmon,SLEIRT,z,,,,,,0.184259259,-0.149074074,0,0,0,space,0,120,120,454,1,10.00209
,,,,,,,,,,,,,,,,,,5e9ffbdcaf81220009abc94f,2020-11-27_15h03.38.204,lexical_decision_task_MP_exp2,2020.2.5,Win32,60,m,1,0.585265,,,,,,,,0.585265,1,,,,,,238,WORD,UN,33,behalf,FLOWER,m,,,,,,0.184259259,-0.149074074,0,0,0,,0,121,121,177,1,
,,,,,,,,,,,,,,,,,,5e9ffbdcaf81220009abc94f,2020-11-27_15h03.38.204,lexical_decision_task_MP_exp2,2020.2.5,Win32,60,z,1,0.83018,,,,,,,,0.83018,1,,,,,,266,NW,UN,16,pasink,VARMIT,z,,,,,,0.184259259,-0.149074074,0,0,0,,0,122,122,445,1,
,,,,,,,,,,,,,,,,,,5e9ffbdcaf81220009abc94f,2020-11-27_15h03.38.204,lexical_decision_task_MP_exp2,2020.2.5,Win32,60,m,1,0.700415,,,,,,,,0.700415,1,,,,,,97,WORD,"ID",33,client,CLIENT,m,,,,,,0.184259259,-0.149074074,0,0,0,,0,123,123,36,1,
,,,,,,,,,,,,,,,,,,5e9ffbdcaf81220009abc94f,2020-11-27_15h03.38.204,lexical_decision_task_MP_exp2,2020.2.5,Win32,60,m,1,0.51065,,,,,,,,0.51065,1,,,,,,210,WORD,UN,33,infect,MONKEY,m,,,,,,0.184259259,-0.149074074,0,0,0,,0,124,124,149,1,
,,,,,,,,,,,,,,,,,,5e9ffbdcaf81220009abc94f,2020-11-27_15h03.38.204,lexical_decision_task_MP_exp2,2020.2.5,Win32,60,z,1,0.62037,,,,,,,,0.62037,1,,,,,,278,NW,UN,16,celond,UNIGHS,z,,,,,,0.184259259,-0.149074074,0,0,0,,0,125,125,457,1,
,,,,,,,,,,,,,,,,,,5e9ffbdcaf81220009abc94f,2020-11-27_15h03.38.204,lexical_decision_task_MP_exp2,2020.2.5,Win32,60,z,1,0.74945,,,,,,,,0.74945,1,,,,,,319,NW,"ID",33,zomber,ZOMBER,z,,,,,,0.184259259,-0.149074074,0,0,0,,0,126,126,258,1,
,,,,,,,,,,,,,,,,,,5e9ffbdcaf81220009abc94f,2020-11-27_15h03.38.204,lexical_decision_task_MP_exp2,2020.2.5,Win32,60,z,1,0.61625,,,,,,,,0.61625,1,,,,,,264,NW,UN,16,distar,VACKEL,z,,,,,,0.184259259,-0.149074074,0,0,0,,0,127,127,443,1,
,,,,,,,,,,,,,,,,,,5e9ffbdcaf81220009abc94f,2020-11-27_15h03.38.204,lexical_decision_task_MP_exp2,2020.2.5,Win32,60,z,1,0.5901,,,,,,,,0.5901,1,,,,,,463,NW,UN,33,chaite,KISPEL,z,,,,,,0.184259259,-0.149074074,0,0,0,,0,128,128,402,1,
,,,,,,,,,,,,,,,,,,5e9ffbdcaf81220009abc94f,2020-11-27_15h03.38.204,lexical_decision_task_MP_exp2,2020.2.5,Win32,60,m,1,0.606025,,,,,,,,0.606025,1,,,,,,38,WORD,UN,16,insect,POWDER,m,,,,,,0.184259259,-0.149074074,0,0,0,,0,129,129,217,1,
,,,,,,,,,,,,,,,,,,5e9ffbdcaf81220009abc94f,2020-11-27_15h03.38.204,lexical_decision_task_MP_exp2,2020.2.5,Win32,60,z,1,0.669705,,,,,,,,0.669705,1,,,,,,256,NW,UN,16,veniod,INLORS,z,,,,,,0.184259259,-0.149074074,0,0,0,,0,130,130,435,1,
,,,,,,,,,,,,,,,,,,5e9ffbdcaf81220009abc94f,2020-11-27_15h03.38.204,lexical_decision_task_MP_exp2,2020.2.5,Win32,60,z,1,0.73224,,,,,,,,0.73224,1,,,,,,332,NW,"ID",33,vangue,VANGUE,z,,,,,,0.184259259,-0.149074074,0,0,0,,0,131,131,271,1,
,,,,,,,,,,,,,,,,,,5e9ffbdcaf81220009abc94f,2020-11-27_15h03.38.204,lexical_decision_task_MP_exp2,2020.2.5,Win32,60,z,1,0.891005,,,,,,,,0.891005,1,,,,,,349,NW,"ID",33,asylen,ASYLEN,z,,,,,,0.184259259,-0.149074074,0,0,0,,0,132,132,288,1,
,,,,,,,,,,,,,,,,,,5e9ffbdcaf81220009abc94f,2020-11-27_15h03.38.204,lexical_decision_task_MP_exp2,2020.2.5,Win32,60,z,1,0.68808,,,,,,,,0.68808,1,,,,,,466,NW,UN,33,robuly,HOCITE,z,,,,,,0.184259259,-0.149074074,0,0,0,,0,133,133,405,1,
,,,,,,,,,,,,,,,,,,5e9ffbdcaf81220009abc94f,2020-11-27_15h03.38.204,lexical_decision_task_MP_exp2,2020.2.5,Win32,60,z,1,0.76386,,,,,,,,0.76386,1,,,,,,331,NW,"ID",33,gilfew,GILFEW,z,,,,,,0.184259259,-0.149074074,0,0,0,,0,134,134,270,1,
,,,,,,,,,,,,,,,,,,5e9ffbdcaf81220009abc94f,2020-11-27_15h03.38.204,lexical_decision_task_MP_exp2,2020.2.5,Win32,60,z,1,1.04772,,,,,,,,1.04772,1,,,,,,251,NW,UN,16,stapod,LUPICT,z,,,,,,0.184259259,-0.149074074,0,0,0,,0,135,135,430,1,
,,,,,,,,,,,,,,,,,,5e9ffbdcaf81220009abc94f,2020-11-27_15h03.38.204,lexical_decision_task_MP_exp2,2020.2.5,Win32,60,m,1,0.49726,,,,,,,,0.49726,1,,,,,,112,WORD,"ID",33,breath,BREATH,m,,,,,,0.184259259,-0.149074074,0,0,0,,0,136,136,51,1,
,,,,,,,,,,,,,,,,,,5e9ffbdcaf81220009abc94f,2020-11-27_15h03.38.204,lexical_decision_task_MP_exp2,2020.2.5,Win32,60,m,1,0.732735,,,,,,,,0.732735,1,,,,,,122,WORD,"ID",16,linger,LINGER,m,,,,,,0.184259259,-0.149074074,0,0,0,,0,137,137,61,1,
,,,,,,,,,,,,,,,,,,5e9ffbdcaf81220009abc94f,2020-11-27_15h03.38.204,lexical_decision_task_MP_exp2,2020.2.5,Win32,60,z,1,0.613825,,,,,,,,0.613825,1,,,,,,443,NW,UN,33,jaunce,DORSEX,z,,,,,,0.184259259,-0.149074074,0,0,0,,0,138,138,382,1,
,,,,,,,,,,,,,,,,,,5e9ffbdcaf81220009abc94f,2020-11-27_15h03.38.204,lexical_decision_task_MP_exp2,2020.2.5,Win32,60,m,1,0.58487,,,,,,,,0.58487,1,,,,,,2,WORD,UN,16,knight,BRIDGE,m,,,,,,0.184259259,-0.149074074,0,0,0,,0,139,139,181,1,
,,,,,,,,,,,,,,,,,,5e9ffbdcaf81220009abc94f,2020-11-27_15h03.38.204,lexical_decision_task_MP_exp2,2020.2.5,Win32,60,m,1,0.56392,,,,,,,,0.56392,1,,,,,,83,WORD,"ID",33,result,RESULT,m,,,,,,0.184259259,-0.149074074,0,0,0,,0,140,140,22,1,
,,,,,,,,,,,,,,,,,,5e9ffbdcaf81220009abc94f,2020-11-27_15h03.38.204,lexical_decision_task_MP_exp2,2020.2.5,Win32,60,m,1,0.71959,,,,,,,,0.71959,1,,,,,,152,WORD,"ID",16,rocket,ROCKET,m,,,,,,0.184259259,-0.149074074,0,0,0,,0,141,141,91,1,
,,,,,,,,,,,,,,,,,,5e9ffbdcaf81220009abc94f,2020-11-27_15h03.38.204,lexical_decision_task_MP_exp2,2020.2.5,Win32,60,z,1,0.55691,,,,,,,,0.55691,1,,,,,,413,NW,"ID",16,equats,EQUATS,z,,,,,,0.184259259,-0.149074074,0,0,0,,0,142,142,352,1,
,,,,,,,,,,,,,,,,,,5e9ffbdcaf81220009abc94f,2020-11-27_15h03.38.204,lexical_decision_task_MP_exp2,2020.2.5,Win32,60,m,1,0.674645,,,,,,,,0.674645,1,,,,,,136,WORD,"ID",16,bleach,BLEACH,m,,,,,,0.184259259,-0.149074074,0,0,0,,0,143,143,75,1,
,,,,,,,,,,,,,,,,,,5e9ffbdcaf81220009abc94f,2020-11-27_15h03.38.204,lexical_decision_task_MP_exp2,2020.2.5,Win32,60,m,1,0.5541,,,,,,,,0.5541,1,,,,,,151,WORD,"ID",16,mystic,MYSTIC,m,,,,,,0.184259259,-0.149074074,0,0,0,,0,144,144,90,1,
,,,,,,,,,,,,,,,,,,5e9ffbdcaf81220009abc94f,2020-11-27_15h03.38.204,lexical_decision_task_MP_exp2,2020.2.5,Win32,60,z,1,0.6037,,,,,,,,0.6037,1,,,,,,267,NW,UN,16,packes,PASINK,z,,,,,,0.184259259,-0.149074074,0,0,0,,0,145,145,446,1,
,,,,,,,,,,,,,,,,,,5e9ffbdcaf81220009abc94f,2020-11-27_15h03.38.204,lexical_decision_task_MP_exp2,2020.2.5,Win32,60,z,1,0.638305,,,,,,,,0.638305,1,,,,,,468,NW,UN,33,padifs,WICTOR,z,,,,,,0.184259259,-0.149074074,0,0,0,,0,146,146,407,1,
,,,,,,,,,,,,,,,,,,5e9ffbdcaf81220009abc94f,2020-11-27_15h03.38.204,lexical_decision_task_MP_exp2,2020.2.5,Win32,60,m,1,0.73373,,,,,,,,0.73373,1,,,,,,59,WORD,UN,16,pencil,SPLINT,m,,,,,,0.184259259,-0.149074074,0,0,0,,0,147,147,238,1,
,,,,,,,,,,,,,,,,,,5e9ffbdcaf81220009abc94f,2020-11-27_15h03.38.204,lexical_decision_task_MP_exp2,2020.2.5,Win32,60,m,1,0.70705,,,,,,,,0.70705,1,,,,,,82,WORD,"ID",33,stigma,STIGMA,m,,,,,,0.184259259,-0.149074074,0,0,0,,0,148,148,21,1,
,,,,,,,,,,,,,,,,,,5e9ffbdcaf81220009abc94f,2020-11-27_15h03.38.204,lexical_decision_task_MP_exp2,2020.2.5,Win32,60,z,1,0.56776,,,,,,,,0.56776,1,,,,,,472,NW,UN,33,gorbie,CIGNEY,z,,,,,,0.184259259,-0.149074074,0,0,0,,0,149,149,411,1,
,,,,,,,,,,,,,,,,,,5e9ffbdcaf81220009abc94f,2020-11-27_15h03.38.204,lexical_decision_task_MP_exp2,2020.2.5,Win32,60,z,1,0.58181,,,,,,,,0.58181,1,,,,,,411,NW,"ID",16,orchin,ORCHIN,z,,,,,,0.184259259,-0.149074074,0,0,0,,0,150,150,350,1,
,,,,,,,,,,,,,,,,,,5e9ffbdcaf81220009abc94f,2020-11-27_15h03.38.204,lexical_decision_task_MP_exp2,2020.2.5,Win32,60,m,1,0.559275,,,,,,,,0.559275,1,,,,,,56,WORD,UN,16,change,AMBUSH,m,,,,,,0.184259259,-0.149074074,0,0,0,,0,151,151,235,1,
,,,,,,,,,,,,,,,,,,5e9ffbdcaf81220009abc94f,2020-11-27_15h03.38.204,lexical_decision_task_MP_exp2,2020.2.5,Win32,60,m,1,0.664045,,,,,,,,0.664045,1,,,,,,3,WORD,UN,16,trench,KNIGHT,m,,,,,,0.184259259,-0.149074074,0,0,0,,0,152,152,182,1,
,,,,,,,,,,,,,,,,,,5e9ffbdcaf81220009abc94f,2020-11-27_15h03.38.204,lexical_decision_task_MP_exp2,2020.2.5,Win32,60,m,1,0.76432,,,,,,,,0.76432,1,,,,,,123,WORD,"ID",16,strike,STRIKE,m,,,,,,0.184259259,-0.149074074,0,0,0,,0,153,153,62,1,
,,,,,,,,,,,,,,,,,,5e9ffbdcaf81220009abc94f,2020-11-27_15h03.38.204,lexical_decision_task_MP_exp2,2020.2.5,Win32,60,m,1,0.509455,,,,,,,,0.509455,1,,,,,,229,WORD,UN,33,fringe,MOTHER,m,,,,,,0.184259259,-0.149074074,0,0,0,,0,154,154,168,1,
,,,,,,,,,,,,,,,,,,5e9ffbdcaf81220009abc94f,2020-11-27_15h03.38.204,lexical_decision_task_MP_exp2,2020.2.5,Win32,60,m,1,0.524785,,,,,,,,0.524785,1,,,,,,15,WORD,UN,16,faucet,AMOUNT,m,,,,,,0.184259259,-0.149074074,0,0,0,,0,155,155,194,1,
,,,,,,,,,,,,,,,,,,5e9ffbdcaf81220009abc94f,2020-11-27_15h03.38.204,lexical_decision_task_MP_exp2,2020.2.5,Win32,60,z,1,0.690295,,,,,,,,0.690295,1,,,,,,465,NW,UN,33,bafent,WHIVEX,z,,,,,,0.184259259,-0.149074074,0,0,0,,0,156,156,404,1,
,,,,,,,,,,,,,,,,,,5e9ffbdcaf81220009abc94f,2020-11-27_15h03.38.204,lexical_decision_task_MP_exp2,2020.2.5,Win32,60,m,1,1.188435,,,,,,,,1.188435,1,,,,,,60,WORD,UN,16,fright,PENCIL,m,,,,,,0.184259259,-0.149074074,0,0,0,,0,157,157,239,1,
,,,,,,,,,,,,,,,,,,5e9ffbdcaf81220009abc94f,2020-11-27_15h03.38.204,lexical_decision_task_MP_exp2,2020.2.5,Win32,60,m,0,1.1923,,,,,,,,1.1923,0,,,,,,341,NW,"ID",33,myrtie,MYRTIE,z,,,,,,0.184259259,-0.149074074,0,0,0,,0,158,158,280,1,
,,,,,,,,,,,,,,,,,,5e9ffbdcaf81220009abc94f,2020-11-27_15h03.38.204,lexical_decision_task_MP_exp2,2020.2.5,Win32,60,m,1,0.738295,,,,,,,,0.738295,1,,,,,,21,WORD,UN,16,jockey,SIMPLE,m,,,,,,0.184259259,-0.149074074,0,0,0,,0,159,159,200,1,
,,,,,,,,,,,,,,,,,,5e9ffbdcaf81220009abc94f,2020-11-27_15h03.38.204,lexical_decision_task_MP_exp2,2020.2.5,Win32,60,z,1,0.691715,,,,,,,,0.691715,1,,,,,,395,NW,"ID",16,colury,COLURY,z,,,,,,0.184259259,-0.149074074,0,0,0,,0,160,160,334,1,
,,,,,,,,,,,,,,,,,,5e9ffbdcaf81220009abc94f,2020-11-27_15h03.38.204,lexical_decision_task_MP_exp2,2020.2.5,Win32,60,z,1,0.655715,,,,,,,,0.655715,1,,,,,,407,NW,"ID",16,suiver,SUIVER,z,,,,,,0.184259259,-0.149074074,0,0,0,,0,161,161,346,1,
,,,,,,,,,,,,,,,,,,5e9ffbdcaf81220009abc94f,2020-11-27_15h03.38.204,lexical_decision_task_MP_exp2,2020.2.5,Win32,60,m,1,0.701805,,,,,,,,0.701805,1,,,,,,99,WORD,"ID",33,fluent,FLUENT,m,,,,,,0.184259259,-0.149074074,0,0,0,,0,162,162,38,1,
,,,,,,,,,,,,,,,,,,5e9ffbdcaf81220009abc94f,2020-11-27_15h03.38.204,lexical_decision_task_MP_exp2,2020.2.5,Win32,60,z,1,0.73218,,,,,,,,0.73218,1,,,,,,389,NW,"ID",16,witmer,WITMER,z,,,,,,0.184259259,-0.149074074,0,0,0,,0,163,163,328,1,
,,,,,,,,,,,,,,,,,,5e9ffbdcaf81220009abc94f,2020-11-27_15h03.38.204,lexical_decision_task_MP_exp2,2020.2.5,Win32,60,m,1,0.635295,,,,,,,,0.635295,1,,,,,,87,WORD,"ID",33,filter,FILTER,m,,,,,,0.184259259,-0.149074074,0,0,0,,0,164,164,26,1,
,,,,,,,,,,,,,,,,,,5e9ffbdcaf81220009abc94f,2020-11-27_15h03.38.204,lexical_decision_task_MP_exp2,2020.2.5,Win32,60,m,1,0.571895,,,,,,,,0.571895,1,,,,,,188,WORD,UN,33,censor,SOCIAL,m,,,,,,0.184259259,-0.149074074,0,0,0,,0,165,165,127,1,
,,,,,,,,,,,,,,,,,,5e9ffbdcaf81220009abc94f,2020-11-27_15h03.38.204,lexical_decision_task_MP_exp2,2020.2.5,Win32,60,m,1,0.516535,,,,,,,,0.516535,1,,,,,,155,WORD,"ID",16,lizard,LIZARD,m,,,,,,0.184259259,-0.149074074,0,0,0,,0,166,166,94,1,
,,,,,,,,,,,,,,,,,,5e9ffbdcaf81220009abc94f,2020-11-27_15h03.38.204,lexical_decision_task_MP_exp2,2020.2.5,Win32,60,z,1,0.617485,,,,,,,,0.617485,1,,,,,,459,NW,UN,33,mingar,BAFENT,z,,,,,,0.184259259,-0.149074074,0,0,0,,0,167,167,398,1,
,,,,,,,,,,,,,,,,,,5e9ffbdcaf81220009abc94f,2020-11-27_15h03.38.204,lexical_decision_task_MP_exp2,2020.2.5,Win32,60,m,1,0.47185,,,,,,,,0.47185,1,,,,,,126,WORD,"ID",16,enough,ENOUGH,m,,,,,,0.184259259,-0.149074074,0,0,0,,0,168,168,65,1,
,,,,,,,,,,,,,,,,,,5e9ffbdcaf81220009abc94f,2020-11-27_15h03.38.204,lexical_decision_task_MP_exp2,2020.2.5,Win32,60,m,1,0.54721,,,,,,,,0.54721,1,,,,,,53,WORD,UN,16,ramble,POLICE,m,,,,,,0.184259259,-0.149074074,0,0,0,,0,169,169,232,1,
,,,,,,,,,,,,,,,,,,5e9ffbdcaf81220009abc94f,2020-11-27_15h03.38.204,lexical_decision_task_MP_exp2,2020.2.5,Win32,60,m,1,0.48158,,,,,,,,0.48158,1,,,,,,65,WORD,"ID",33,symbol,SYMBOL,m,,,,,,0.184259259,-0.149074074,0,0,0,,0,170,170,4,1,
,,,,,,,,,,,,,,,,,,5e9ffbdcaf81220009abc94f,2020-11-27_15h03.38.204,lexical_decision_task_MP_exp2,2020.2.5,Win32,60,m,1,0.73415,,,,,,,,0.73415,1,,,,,,114,WORD,"ID",33,placid,PLACID,m,,,,,,0.184259259,-0.149074074,0,0,0,,0,171,171,53,1,
,,,,,,,,,,,,,,,,,,5e9ffbdcaf81220009abc94f,2020-11-27_15h03.38.204,lexical_decision_task_MP_exp2,2020.2.5,Win32,60,z,1,0.60079,,,,,,,,0.60079,1,,,,,,270,NW,UN,16,aubrid,WRIMSY,z,,,,,,0.184259259,-0.149074074,0,0,0,,0,172,172,449,1,
,,,,,,,,,,,,,,,,,,5e9ffbdcaf81220009abc94f,2020-11-27_15h03.38.204,lexical_decision_task_MP_exp2,2020.2.5,Win32,60,m,1,0.58176,,,,,,,,0.58176,1,,,,,,102,WORD,"ID",33,direct,DIRECT,m,,,,,,0.184259259,-0.149074074,0,0,0,,0,173,173,41,1,
,,,,,,,,,,,,,,,,,,5e9ffbdcaf81220009abc94f,2020-11-27_15h03.38.204,lexical_decision_task_MP_exp2,2020.2.5,Win32,60,z,1,1.097715,,,,,,,,1.097715,1,,,,,,304,NW,"ID",33,cludie,CLUDIE,z,,,,,,0.184259259,-0.149074074,0,0,0,,0,174,174,243,1,
,,,,,,,,,,,,,,,,,,5e9ffbdcaf81220009abc94f,2020-11-27_15h03.38.204,lexical_decision_task_MP_exp2,2020.2.5,Win32,60,z,1,0.71774,,,,,,,,0.71774,1,,,,,,405,NW,"ID",16,flumni,FLUMNI,z,,,,,,0.184259259,-0.149074074,0,0,0,,0,175,175,344,1,
,,,,,,,,,,,,,,,,,,5e9ffbdcaf81220009abc94f,2020-11-27_15h03.38.204,lexical_decision_task_MP_exp2,2020.2.5,Win32,60,m,1,0.4893,,,,,,,,0.4893,1,,,,,,135,WORD,"ID",16,import,IMPORT,m,,,,,,0.184259259,-0.149074074,0,0,0,,0,176,176,74,1,
,,,,,,,,,,,,,,,,,,5e9ffbdcaf81220009abc94f,2020-11-27_15h03.38.204,lexical_decision_task_MP_exp2,2020.2.5,Win32,60,z,1,0.75589,,,,,,,,0.75589,1,,,,,,343,NW,"ID",33,aimosy,AIMOSY,z,,,,,,0.184259259,-0.149074074,0,0,0,,0,177,177,282,1,
,,,,,,,,,,,,,,,,,,5e9ffbdcaf81220009abc94f,2020-11-27_15h03.38.204,lexical_decision_task_MP_exp2,2020.2.5,Win32,60,m,1,0.67407,,,,,,,,0.67407,1,,,,,,213,WORD,UN,33,intake,SQUEAL,m,,,,,,0.184259259,-0.149074074,0,0,0,,0,178,178,152,1,
,,,,,,,,,,,,,,,,,,5e9ffbdcaf81220009abc94f,2020-11-27_15h03.38.204,lexical_decision_task_MP_exp2,2020.2.5,Win32,60,m,1,0.63138,,,,,,,,0.63138,1,,,,,,77,WORD,"ID",33,racket,RACKET,m,,,,,,0.184259259,-0.149074074,0,0,0,,0,179,179,16,1,
,,,,,,,,,,,,,,,,,,5e9ffbdcaf81220009abc94f,2020-11-27_15h03.38.204,lexical_decision_task_MP_exp2,2020.2.5,Win32,60,z,1,0.68301,,,,,,,,0.68301,1,,,,,,455,NW,UN,33,broget,TONDLE,z,,,,,,0.184259259,-0.149074074,0,0,0,,0,180,180,394,1,
,,,,,,,,,,,,,,,,,,5e9ffbdcaf81220009abc94f,2020-11-27_15h03.38.204,lexical_decision_task_MP_exp2,2020.2.5,Win32,60,m,1,0.57015,,,,,,,,0.57015,1,,,,,,166,WORD,"ID",16,starch,STARCH,m,,,,,,0.184259259,-0.149074074,0,0,0,,0,181,181,105,1,
,,,,,,,,,,,,,,,,,,5e9ffbdcaf81220009abc94f,2020-11-27_15h03.38.204,lexical_decision_task_MP_exp2,2020.2.5,Win32,60,z,1,0.621085,,,,,,,,0.621085,1,,,,,,456,NW,UN,33,wanigh,BROGET,z,,,,,,0.184259259,-0.149074074,0,0,0,,0,182,182,395,1,
,,,,,,,,,,,,,,,,,,5e9ffbdcaf81220009abc94f,2020-11-27_15h03.38.204,lexical_decision_task_MP_exp2,2020.2.5,Win32,60,m,1,0.631395,,,,,,,,0.631395,1,,,,,,115,WORD,"ID",33,guitar,GUITAR,m,,,,,,0.184259259,-0.149074074,0,0,0,,0,183,183,54,1,
,,,,,,,,,,,,,,,,,,5e9ffbdcaf81220009abc94f,2020-11-27_15h03.38.204,lexical_decision_task_MP_exp2,2020.2.5,Win32,60,z,1,1.00149,,,,,,,,1.00149,1,,,,,,368,NW,"ID",16,hornal,HORNAL,z,,,,,,0.184259259,-0.149074074,0,0,0,,0,184,184,307,1,
,,,,,,,,,,,,,,,,,,5e9ffbdcaf81220009abc94f,2020-11-27_15h03.38.204,lexical_decision_task_MP_exp2,2020.2.5,Win32,60,m,1,0.648665,,,,,,,,0.648665,1,,,,,,206,WORD,UN,33,wreath,TAILOR,m,,,,,,0.184259259,-0.149074074,0,0,0,,0,185,185,145,1,
,,,,,,,,,,,,,,,,,,5e9ffbdcaf81220009abc94f,2020-11-27_15h03.38.204,lexical_decision_task_MP_exp2,2020.2.5,Win32,60,m,1,0.598055,,,,,,,,0.598055,1,,,,,,104,WORD,"ID",33,studio,STUDIO,m,,,,,,0.184259259,-0.149074074,0,0,0,,0,186,186,43,1,
,,,,,,,,,,,,,,,,,,5e9ffbdcaf81220009abc94f,2020-11-27_15h03.38.204,lexical_decision_task_MP_exp2,2020.2.5,Win32,60,m,1,0.547565,,,,,,,,0.547565,1,,,,,,178,WORD,"ID",16,inform,INFORM,m,,,,,,0.184259259,-0.149074074,0,0,0,,0,187,187,117,1,
,,,,,,,,,,,,,,,,,,5e9ffbdcaf81220009abc94f,2020-11-27_15h03.38.204,lexical_decision_task_MP_exp2,2020.2.5,Win32,60,m,1,1.042715,,,,,,,,1.042715,1,,,,,,208,WORD,UN,33,search,HOCKEY,m,,,,,,0.184259259,-0.149074074,0,0,0,,0,188,188,147,1,
,,,,,,,,,,,,,,,,,,5e9ffbdcaf81220009abc94f,2020-11-27_15h03.38.204,lexical_decision_task_MP_exp2,2020.2.5,Win32,60,m,1,0.597165,,,,,,,,0.597165,1,,,,,,236,WORD,UN,33,grumpy,PIRATE,m,,,,,,0.184259259,-0.149074074,0,0,0,,0,189,189,175,1,
,,,,,,,,,,,,,,,,,,5e9ffbdcaf81220009abc94f,2020-11-27_15h03.38.204,lexical_decision_task_MP_exp2,2020.2.5,Win32,60,z,1,0.643395,,,,,,,,0.643395,1,,,,,,353,NW,"ID",33,clurey,CLUREY,z,,,,,,0.184259259,-0.149074074,0,0,0,,0,190,190,292,1,
,,,,,,,,,,,,,,,,,,5e9ffbdcaf81220009abc94f,2020-11-27_15h03.38.204,lexical_decision_task_MP_exp2,2020.2.5,Win32,60,z,1,0.800895,,,,,,,,0.800895,1,,,,,,418,NW,"ID",16,suidle,SUIDLE,z,,,,,,0.184259259,-0.149074074,0,0,0,,0,191,191,357,1,
,,,,,,,,,,,,,,,,,,5e9ffbdcaf81220009abc94f,2020-11-27_15h03.38.204,lexical_decision_task_MP_exp2,2020.2.5,Win32,60,m,1,0.539975,,,,,,,,0.539975,1,,,,,,22,WORD,UN,16,wealth,JOCKEY,m,,,,,,0.184259259,-0.149074074,0,0,0,,0,192,192,201,1,
,,,,,,,,,,,,,,,,,,5e9ffbdcaf81220009abc94f,2020-11-27_15h03.38.204,lexical_decision_task_MP_exp2,2020.2.5,Win32,60,z,1,0.833035,,,,,,,,0.833035,1,,,,,,419,NW,"ID",16,slount,SLOUNT,z,,,,,,0.184259259,-0.149074074,0,0,0,,0,193,193,358,1,
,,,,,,,,,,,,,,,,,,5e9ffbdcaf81220009abc94f,2020-11-27_15h03.38.204,lexical_decision_task_MP_exp2,2020.2.5,Win32,60,m,1,0.46059,,,,,,,,0.46059,1,,,,,,117,WORD,"ID",33,branch,BRANCH,m,,,,,,0.184259259,-0.149074074,0,0,0,,0,194,194,56,1,
,,,,,,,,,,,,,,,,,,5e9ffbdcaf81220009abc94f,2020-11-27_15h03.38.204,lexical_decision_task_MP_exp2,2020.2.5,Win32,60,m,1,0.47753,,,,,,,,0.47753,1,,,,,,233,WORD,UN,33,clumsy,NATURE,m,,,,,,0.184259259,-0.149074074,0,0,0,,0,195,195,172,1,
,,,,,,,,,,,,,,,,,,5e9ffbdcaf81220009abc94f,2020-11-27_15h03.38.204,lexical_decision_task_MP_exp2,2020.2.5,Win32,60,z,1,0.94074,,,,,,,,0.94074,1,,,,,,281,NW,UN,16,porlex,MELATY,z,,,,,,0.184259259,-0.149074074,0,0,0,,0,196,196,460,1,
,,,,,,,,,,,,,,,,,,5e9ffbdcaf81220009abc94f,2020-11-27_15h03.38.204,lexical_decision_task_MP_exp2,2020.2.5,Win32,60,z,1,0.6528,,,,,,,,0.6528,1,,,,,,362,NW,"ID",16,tireau,TIREAU,z,,,,,,0.184259259,-0.149074074,0,0,0,,0,197,197,301,1,
,,,,,,,,,,,,,,,,,,5e9ffbdcaf81220009abc94f,2020-11-27_15h03.38.204,lexical_decision_task_MP_exp2,2020.2.5,Win32,60,z,1,0.524135,,,,,,,,0.524135,1,,,,,,439,NW,UN,33,saride,LIMPOR,z,,,,,,0.184259259,-0.149074074,0,0,0,,0,198,198,378,1,
,,,,,,,,,,,,,,,,,,5e9ffbdcaf81220009abc94f,2020-11-27_15h03.38.204,lexical_decision_task_MP_exp2,2020.2.5,Win32,60,m,1,0.690865,,,,,,,,0.690865,1,,,,,,68,WORD,"ID",33,fumble,FUMBLE,m,,,,,,0.184259259,-0.149074074,0,0,0,,0,199,199,7,1,
,,,,,,,,,,,,,,,,,,5e9ffbdcaf81220009abc94f,2020-11-27_15h03.38.204,lexical_decision_task_MP_exp2,2020.2.5,Win32,60,m,0,0.959775,,,,,,,,0.959775,0,,,,,,425,NW,UN,33,urivel,FRUDGE,z,,,,,,0.184259259,-0.149074074,0,0,0,,0,200,200,364,1,
,,,,,,,,,,,,,,,,,,5e9ffbdcaf81220009abc94f,2020-11-27_15h03.38.204,lexical_decision_task_MP_exp2,2020.2.5,Win32,60,z,1,0.700385,,,,,,,,0.700385,1,,,,,,339,NW,"ID",33,fachow,FACHOW,z,,,,,,0.184259259,-0.149074074,0,0,0,,0,201,201,278,1,
,,,,,,,,,,,,,,,,,,5e9ffbdcaf81220009abc94f,2020-11-27_15h03.38.204,lexical_decision_task_MP_exp2,2020.2.5,Win32,60,m,1,0.49791,,,,,,,,0.49791,1,,,,,,172,WORD,"ID",16,patrol,PATROL,m,,,,,,0.184259259,-0.149074074,0,0,0,,0,202,202,111,1,
,,,,,,,,,,,,,,,,,,5e9ffbdcaf81220009abc94f,2020-11-27_15h03.38.204,lexical_decision_task_MP_exp2,2020.2.5,Win32,60,z,1,0.600905,,,,,,,,0.600905,1,,,,,,277,NW,UN,16,unighs,PETAIN,z,,,,,,0.184259259,-0.149074074,0,0,0,,0,203,203,456,1,
,,,,,,,,,,,,,,,,,,5e9ffbdcaf81220009abc94f,2020-11-27_15h03.38.204,lexical_decision_task_MP_exp2,2020.2.5,Win32,60,m,1,0.801265,,,,,,,,0.801265,1,,,,,,120,WORD,"ID",33,strain,STRAIN,m,,,,,,0.184259259,-0.149074074,0,0,0,,0,204,204,59,1,
,,,,,,,,,,,,,,,,,,5e9ffbdcaf81220009abc94f,2020-11-27_15h03.38.204,lexical_decision_task_MP_exp2,2020.2.5,Win32,60,m,1,0.746905,,,,,,,,0.746905,1,,,,,,131,WORD,"ID",16,quench,QUENCH,m,,,,,,0.184259259,-0.149074074,0,0,0,,0,205,205,70,1,
,,,,,,,,,,,,,,,,,,5e9ffbdcaf81220009abc94f,2020-11-27_15h03.38.204,lexical_decision_task_MP_exp2,2020.2.5,Win32,60,m,1,0.514,,,,,,,,0.514,1,,,,,,79,WORD,"ID",33,theory,THEORY,m,,,,,,0.184259259,-0.149074074,0,0,0,,0,206,206,18,1,
,,,,,,,,,,,,,,,,,,5e9ffbdcaf81220009abc94f,2020-11-27_15h03.38.204,lexical_decision_task_MP_exp2,2020.2.5,Win32,60,m,1,0.549465,,,,,,,,0.549465,1,,,,,,156,WORD,"ID",16,cradle,CRADLE,m,,,,,,0.184259259,-0.149074074,0,0,0,,0,207,207,95,1,
,,,,,,,,,,,,,,,,,,5e9ffbdcaf81220009abc94f,2020-11-27_15h03.38.204,lexical_decision_task_MP_exp2,2020.2.5,Win32,60,z,1,0.632805,,,,,,,,0.632805,1,,,,,,247,NW,UN,16,strole,BLARGE,z,,,,,,0.184259259,-0.149074074,0,0,0,,0,208,208,426,1,
,,,,,,,,,,,,,,,,,,5e9ffbdcaf81220009abc94f,2020-11-27_15h03.38.204,lexical_decision_task_MP_exp2,2020.2.5,Win32,60,m,1,0.81482,,,,,,,,0.81482,1,,,,,,203,WORD,UN,33,burden,PHRASE,m,,,,,,0.184259259,-0.149074074,0,0,0,,0,209,209,142,1,
,,,,,,,,,,,,,,,,,,5e9ffbdcaf81220009abc94f,2020-11-27_15h03.38.204,lexical_decision_task_MP_exp2,2020.2.5,Win32,60,m,1,0.60863,,,,,,,,0.60863,1,,,,,,164,WORD,"ID",16,market,MARKET,m,,,,,,0.184259259,-0.149074074,0,0,0,,0,210,210,103,1,
,,,,,,,,,,,,,,,,,,5e9ffbdcaf81220009abc94f,2020-11-27_15h03.38.204,lexical_decision_task_MP_exp2,2020.2.5,Win32,60,z,1,1.00728,,,,,,,,1.00728,1,,,,,,356,NW,"ID",33,othnis,OTHNIS,z,,,,,,0.184259259,-0.149074074,0,0,0,,0,211,211,295,1,
,,,,,,,,,,,,,,,,,,5e9ffbdcaf81220009abc94f,2020-11-27_15h03.38.204,lexical_decision_task_MP_exp2,2020.2.5,Win32,60,z,1,0.67443,,,,,,,,0.67443,1,,,,,,453,NW,UN,33,scouge,BOLVIS,z,,,,,,0.184259259,-0.149074074,0,0,0,,0,212,212,392,1,
,,,,,,,,,,,,,,,,,,5e9ffbdcaf81220009abc94f,2020-11-27_15h03.38.204,lexical_decision_task_MP_exp2,2020.2.5,Win32,60,z,1,0.67306,,,,,,,,0.67306,1,,,,,,460,NW,UN,33,justre,MINGAR,z,,,,,,0.184259259,-0.149074074,0,0,0,,0,213,213,399,1,
,,,,,,,,,,,,,,,,,,5e9ffbdcaf81220009abc94f,2020-11-27_15h03.38.204,lexical_decision_task_MP_exp2,2020.2.5,Win32,60,m,1,0.530925,,,,,,,,0.530925,1,,,,,,47,WORD,UN,16,walnut,INCOME,m,,,,,,0.184259259,-0.149074074,0,0,0,,0,214,214,226,1,
,,,,,,,,,,,,,,,,,,5e9ffbdcaf81220009abc94f,2020-11-27_15h03.38.204,lexical_decision_task_MP_exp2,2020.2.5,Win32,60,m,1,0.675585,,,,,,,,0.675585,1,,,,,,194,WORD,UN,33,resign,ABSENT,m,,,,,,0.184259259,-0.149074074,0,0,0,,0,215,215,133,1,
,,,,,,,,,,,,,,,,,,5e9ffbdcaf81220009abc94f,2020-11-27_15h03.38.204,lexical_decision_task_MP_exp2,2020.2.5,Win32,60,m,1,0.518705,,,,,,,,0.518705,1,,,,,,67,WORD,"ID",33,policy,POLICY,m,,,,,,0.184259259,-0.149074074,0,0,0,,0,216,216,6,1,
,,,,,,,,,,,,,,,,,,5e9ffbdcaf81220009abc94f,2020-11-27_15h03.38.204,lexical_decision_task_MP_exp2,2020.2.5,Win32,60,z,1,0.56491,,,,,,,,0.56491,1,,,,,,457,NW,UN,33,barcet,WANIGH,z,,,,,,0.184259259,-0.149074074,0,0,0,,0,217,217,396,1,
,,,,,,,,,,,,,,,,,,5e9ffbdcaf81220009abc94f,2020-11-27_15h03.38.204,lexical_decision_task_MP_exp2,2020.2.5,Win32,60,z,1,1.099625,,,,,,,,1.099625,1,,,,,,243,NW,UN,16,eatric,MUSIED,z,,,,,,0.184259259,-0.149074074,0,0,0,,0,218,218,422,1,
,,,,,,,,,,,,,,,,,,5e9ffbdcaf81220009abc94f,2020-11-27_15h03.38.204,lexical_decision_task_MP_exp2,2020.2.5,Win32,60,z,1,0.70478,,,,,,,,0.70478,1,,,,,,326,NW,"ID",33,iguade,IGUADE,z,,,,,,0.184259259,-0.149074074,0,0,0,,0,219,219,265,1,
,,,,,,,,,,,,,,,,,,5e9ffbdcaf81220009abc94f,2020-11-27_15h03.38.204,lexical_decision_task_MP_exp2,2020.2.5,Win32,60,m,1,0.547275,,,,,,,,0.547275,1,,,,,,105,WORD,"ID",33,number,NUMBER,m,,,,,,0.184259259,-0.149074074,0,0,0,,0,220,220,44,1,
,,,,,,,,,,,,,,,,,,5e9ffbdcaf81220009abc94f,2020-11-27_15h03.38.204,lexical_decision_task_MP_exp2,2020.2.5,Win32,60,z,1,0.597475,,,,,,,,0.597475,1,,,,,,295,NW,UN,16,beinch,GLEATH,z,,,,,,0.184259259,-0.149074074,0,0,0,,0,221,221,474,1,
,,,,,,,,,,,,,,,,,,5e9ffbdcaf81220009abc94f,2020-11-27_15h03.38.204,lexical_decision_task_MP_exp2,2020.2.5,Win32,60,m,1,1.10266,,,,,,,,1.10266,1,,,,,,35,WORD,UN,16,vanish,SOCKET,m,,,,,,0.184259259,-0.149074074,0,0,0,,0,222,222,214,1,
,,,,,,,,,,,,,,,,,,5e9ffbdcaf81220009abc94f,2020-11-27_15h03.38.204,lexical_decision_task_MP_exp2,2020.2.5,Win32,60,m,1,0.71044,,,,,,,,0.71044,1,,,,,,39,WORD,UN,16,convey,INSECT,m,,,,,,0.184259259,-0.149074074,0,0,0,,0,223,223,218,1,
,,,,,,,,,,,,,,,,,,5e9ffbdcaf81220009abc94f,2020-11-27_15h03.38.204,lexical_decision_task_MP_exp2,2020.2.5,Win32,60,m,1,0.59836,,,,,,,,0.59836,1,,,,,,10,WORD,UN,16,cruise,ETHNIC,m,,,,,,0.184259259,-0.149074074,0,0,0,,0,224,224,189,1,
,,,,,,,,,,,,,,,,,,5e9ffbdcaf81220009abc94f,2020-11-27_15h03.38.204,lexical_decision_task_MP_exp2,2020.2.5,Win32,60,m,1,0.581485,,,,,,,,0.581485,1,,,,,,235,WORD,UN,33,pirate,GRUMPY,m,,,,,,0.184259259,-0.149074074,0,0,0,,0,225,225,174,1,
,,,,,,,,,,,,,,,,,,5e9ffbdcaf81220009abc94f,2020-11-27_15h03.38.204,lexical_decision_task_MP_exp2,2020.2.5,Win32,60,z,1,0.521125,,,,,,,,0.521125,1,,,,,,476,NW,UN,33,photie,JOSTED,z,,,,,,0.184259259,-0.149074074,0,0,0,,0,226,226,415,1,
,,,,,,,,,,,,,,,,,,5e9ffbdcaf81220009abc94f,2020-11-27_15h03.38.204,lexical_decision_task_MP_exp2,2020.2.5,Win32,60,z,1,0.66395,,,,,,,,0.66395,1,,,,,,391,NW,"ID",16,theldy,THELDY,z,,,,,,0.184259259,-0.149074074,0,0,0,,0,227,227,330,1,
,,,,,,,,,,,,,,,,,,5e9ffbdcaf81220009abc94f,2020-11-27_15h03.38.204,lexical_decision_task_MP_exp2,2020.2.5,Win32,60,m,1,0.539,,,,,,,,0.539,1,,,,,,14,WORD,UN,16,orange,ALMOST,m,,,,,,0.184259259,-0.149074074,0,0,0,,0,228,228,193,1,
,,,,,,,,,,,,,,,,,,5e9ffbdcaf81220009abc94f,2020-11-27_15h03.38.204,lexical_decision_task_MP_exp2,2020.2.5,Win32,60,z,1,0.58549,,,,,,,,0.58549,1,,,,,,273,NW,UN,16,fumblo,SORTEL,z,,,,,,0.184259259,-0.149074074,0,0,0,,0,229,229,452,1,
,,,,,,,,,,,,,,,,,,5e9ffbdcaf81220009abc94f,2020-11-27_15h03.38.204,lexical_decision_task_MP_exp2,2020.2.5,Win32,60,z,1,0.61809,,,,,,,,0.61809,1,,,,,,415,NW,"ID",16,higsta,HIGSTA,z,,,,,,0.184259259,-0.149074074,0,0,0,,0,230,230,354,1,
,,,,,,,,,,,,,,,,,,5e9ffbdcaf81220009abc94f,2020-11-27_15h03.38.204,lexical_decision_task_MP_exp2,2020.2.5,Win32,60,z,1,0.590795,,,,,,,,0.590795,1,,,,,,385,NW,"ID",16,veigma,VEIGMA,z,,,,,,0.184259259,-0.149074074,0,0,0,,0,231,231,324,1,
,,,,,,,,,,,,,,,,,,5e9ffbdcaf81220009abc94f,2020-11-27_15h03.38.204,lexical_decision_task_MP_exp2,2020.2.5,Win32,60,z,1,0.61608,,,,,,,,0.61608,1,,,,,,298,NW,UN,16,sturch,PIERGY,z,,,,,,0.184259259,-0.149074074,0,0,0,,0,232,232,477,1,
,,,,,,,,,,,,,,,,,,5e9ffbdcaf81220009abc94f,2020-11-27_15h03.38.204,lexical_decision_task_MP_exp2,2020.2.5,Win32,60,z,1,0.675995,,,,,,,,0.675995,1,,,,,,379,NW,"ID",16,auting,AUTING,z,,,,,,0.184259259,-0.149074074,0,0,0,,0,233,233,318,1,
,,,,,,,,,,,,,,,,,,5e9ffbdcaf81220009abc94f,2020-11-27_15h03.38.204,lexical_decision_task_MP_exp2,2020.2.5,Win32,60,z,1,0.6227,,,,,,,,0.6227,1,,,,,,333,NW,"ID",33,catrie,CATRIE,z,,,,,,0.184259259,-0.149074074,0,0,0,,0,234,234,272,1,
,,,,,,,,,,,,,,,,,,5e9ffbdcaf81220009abc94f,2020-11-27_15h03.38.204,lexical_decision_task_MP_exp2,2020.2.5,Win32,60,m,1,0.6816,,,,,,,,0.6816,1,,,,,,192,WORD,UN,33,object,PLAGUE,m,,,,,,0.184259259,-0.149074074,0,0,0,,0,235,235,131,1,
,,,,,,,,,,,,,,,,,,5e9ffbdcaf81220009abc94f,2020-11-27_15h03.38.204,lexical_decision_task_MP_exp2,2020.2.5,Win32,60,m,1,0.52665,,,,,,,,0.52665,1,,,,,,154,WORD,"ID",16,author,AUTHOR,m,,,,,,0.184259259,-0.149074074,0,0,0,,0,236,236,93,1,
,,,,,,,,,,,,,,,,,,5e9ffbdcaf81220009abc94f,2020-11-27_15h03.38.204,lexical_decision_task_MP_exp2,2020.2.5,Win32,60,m,1,0.688705,,,,,,,,0.688705,1,,,,,,9,WORD,UN,16,bridge,HUSTLE,m,,,,,,0.184259259,-0.149074074,0,0,0,,0,237,237,188,1,
,,,,,,,,,,,,,,,,,,5e9ffbdcaf81220009abc94f,2020-11-27_15h03.38.204,lexical_decision_task_MP_exp2,2020.2.5,Win32,60,z,1,0.64071,,,,,,,,0.64071,1,,,,,,386,NW,"ID",16,ancust,ANCUST,z,,,,,,0.184259259,-0.149074074,0,0,0,,0,238,238,325,1,
,,,,,,,,,,,,,,,,,,5e9ffbdcaf81220009abc94f,2020-11-27_15h03.38.204,lexical_decision_task_MP_exp2,2020.2.5,Win32,60,z,1,0.60194,,,,,,,,0.60194,1,,,,,,337,NW,"ID",33,rejols,REJOLS,z,,,,,,0.184259259,-0.149074074,0,0,0,,0,239,239,276,1,
,,,,,,,,,,,,,,,,,,5e9ffbdcaf81220009abc94f,2020-11-27_15h03.38.204,lexical_decision_task_MP_exp2,2020.2.5,Win32,60,m,1,0.489235,,,,,,,,0.489235,1,,,,,,55,WORD,UN,16,ambush,STROKE,m,,,,,,0.184259259,-0.149074074,0,0,0,,0,240,240,234,1,
,,,,,,,,,,,,,,,,,,5e9ffbdcaf81220009abc94f,2020-11-27_15h03.38.204,lexical_decision_task_MP_exp2,2020.2.5,Win32,60,z,1,0.656555,,,,,,,,0.656555,1,,,,,,473,NW,UN,33,hablin,CRIBLE,z,,,,,,0.184259259,-0.149074074,0,0,0,space,0,241,241,412,1,40.80675
,,,,,,,,,,,,,,,,,,5e9ffbdcaf81220009abc94f,2020-11-27_15h03.38.204,lexical_decision_task_MP_exp2,2020.2.5,Win32,60,z,1,0.910085,,,,,,,,0.910085,1,,,,,,462,NW,UN,33,kispel,ABSULT,z,,,,,,0.184259259,-0.149074074,0,0,0,,0,242,242,401,1,
,,,,,,,,,,,,,,,,,,5e9ffbdcaf81220009abc94f,2020-11-27_15h03.38.204,lexical_decision_task_MP_exp2,2020.2.5,Win32,60,z,1,0.65089,,,,,,,,0.65089,1,,,,,,279,NW,UN,16,curbol,CELOND,z,,,,,,0.184259259,-0.149074074,0,0,0,,0,243,243,458,1,
,,,,,,,,,,,,,,,,,,5e9ffbdcaf81220009abc94f,2020-11-27_15h03.38.204,lexical_decision_task_MP_exp2,2020.2.5,Win32,60,z,1,0.720145,,,,,,,,0.720145,1,,,,,,426,NW,UN,33,schind,URIVEL,z,,,,,,0.184259259,-0.149074074,0,0,0,,0,244,244,365,1,
,,,,,,,,,,,,,,,,,,5e9ffbdcaf81220009abc94f,2020-11-27_15h03.38.204,lexical_decision_task_MP_exp2,2020.2.5,Win32,60,z,1,0.790045,,,,,,,,0.790045,1,,,,,,367,NW,"ID",16,slique,SLIQUE,z,,,,,,0.184259259,-0.149074074,0,0,0,,0,245,245,306,1,
,,,,,,,,,,,,,,,,,,5e9ffbdcaf81220009abc94f,2020-11-27_15h03.38.204,lexical_decision_task_MP_exp2,2020.2.5,Win32,60,m,1,0.55101,,,,,,,,0.55101,1,,,,,,66,WORD,"ID",33,gospel,GOSPEL,m,,,,,,0.184259259,-0.149074074,0,0,0,,0,246,246,5,1,
,,,,,,,,,,,,,,,,,,5e9ffbdcaf81220009abc94f,2020-11-27_15h03.38.204,lexical_decision_task_MP_exp2,2020.2.5,Win32,60,z,1,0.538845,,,,,,,,0.538845,1,,,,,,288,NW,UN,16,starby,YACEUP,z,,,,,,0.184259259,-0.149074074,0,0,0,,0,247,247,467,1,
,,,,,,,,,,,,,,,,,,5e9ffbdcaf81220009abc94f,2020-11-27_15h03.38.204,lexical_decision_task_MP_exp2,2020.2.5,Win32,60,z,1,0.60666,,,,,,,,0.60666,1,,,,,,478,NW,UN,33,pebric,ACRISE,z,,,,,,0.184259259,-0.149074074,0,0,0,,0,248,248,417,1,
,,,,,,,,,,,,,,,,,,5e9ffbdcaf81220009abc94f,2020-11-27_15h03.38.204,lexical_decision_task_MP_exp2,2020.2.5,Win32,60,m,1,0.52549,,,,,,,,0.52549,1,,,,,,157,WORD,"ID",16,dragon,DRAGON,m,,,,,,0.184259259,-0.149074074,0,0,0,,0,249,249,96,1,
,,,,,,,,,,,,,,,,,,5e9ffbdcaf81220009abc94f,2020-11-27_15h03.38.204,lexical_decision_task_MP_exp2,2020.2.5,Win32,60,m,1,0.623685,,,,,,,,0.623685,1,,,,,,86,WORD,"ID",33,rodent,RODENT,m,,,,,,0.184259259,-0.149074074,0,0,0,,0,250,250,25,1,
,,,,,,,,,,,,,,,,,,5e9ffbdcaf81220009abc94f,2020-11-27_15h03.38.204,lexical_decision_task_MP_exp2,2020.2.5,Win32,60,m,1,0.68061,,,,,,,,0.68061,1,,,,,,220,WORD,UN,33,mascot,VOYAGE,m,,,,,,0.184259259,-0.149074074,0,0,0,,0,251,251,159,1,
,,,,,,,,,,,,,,,,,,5e9ffbdcaf81220009abc94f,2020-11-27_15h03.38.204,lexical_decision_task_MP_exp2,2020.2.5,Win32,60,m,1,0.573655,,,,,,,,0.573655,1,,,,,,207,WORD,UN,33,hockey,WREATH,m,,,,,,0.184259259,-0.149074074,0,0,0,,0,252,252,146,1,
,,,,,,,,,,,,,,,,,,5e9ffbdcaf81220009abc94f,2020-11-27_15h03.38.204,lexical_decision_task_MP_exp2,2020.2.5,Win32,60,m,1,0.4862,,,,,,,,0.4862,1,,,,,,94,WORD,"ID",33,travel,TRAVEL,m,,,,,,0.184259259,-0.149074074,0,0,0,,0,253,253,33,1,
,,,,,,,,,,,,,,,,,,5e9ffbdcaf81220009abc94f,2020-11-27_15h03.38.204,lexical_decision_task_MP_exp2,2020.2.5,Win32,60,m,1,0.67385,,,,,,,,0.67385,1,,,,,,20,WORD,UN,16,simple,BREAST,m,,,,,,0.184259259,-0.149074074,0,0,0,,0,254,254,199,1,
,,,,,,,,,,,,,,,,,,5e9ffbdcaf81220009abc94f,2020-11-27_15h03.38.204,lexical_decision_task_MP_exp2,2020.2.5,Win32,60,z,1,0.83175,,,,,,,,0.83175,1,,,,,,342,NW,"ID",33,randow,RANDOW,z,,,,,,0.184259259,-0.149074074,0,0,0,,0,255,255,281,1,
,,,,,,,,,,,,,,,,,,5e9ffbdcaf81220009abc94f,2020-11-27_15h03.38.204,lexical_decision_task_MP_exp2,2020.2.5,Win32,60,z,1,0.581375,,,,,,,,0.581375,1,,,,,,350,NW,"ID",33,nagurs,NAGURS,z,,,,,,0.184259259,-0.149074074,0,0,0,,0,256,256,289,1,
,,,,,,,,,,,,,,,,,,5e9ffbdcaf81220009abc94f,2020-11-27_15h03.38.204,lexical_decision_task_MP_exp2,2020.2.5,Win32,60,m,1,0.52413,,,,,,,,0.52413,1,,,,,,189,WORD,UN,33,backup,CENSOR,m,,,,,,0.184259259,-0.149074074,0,0,0,,0,257,257,128,1,
,,,,,,,,,,,,,,,,,,5e9ffbdcaf81220009abc94f,2020-11-27_15h03.38.204,lexical_decision_task_MP_exp2,2020.2.5,Win32,60,z,1,0.592795,,,,,,,,0.592795,1,,,,,,480,NW,UN,33,knisma,ROBULY,z,,,,,,0.184259259,-0.149074074,0,0,0,,0,258,258,419,1,
,,,,,,,,,,,,,,,,,,5e9ffbdcaf81220009abc94f,2020-11-27_15h03.38.204,lexical_decision_task_MP_exp2,2020.2.5,Win32,60,z,1,1.050435,,,,,,,,1.050435,1,,,,,,355,NW,"ID",33,zingly,ZINGLY,z,,,,,,0.184259259,-0.149074074,0,0,0,,0,259,259,294,1,
,,,,,,,,,,,,,,,,,,5e9ffbdcaf81220009abc94f,2020-11-27_15h03.38.204,lexical_decision_task_MP_exp2,2020.2.5,Win32,60,z,1,1.492225,,,,,,,,1.492225,1,,,,,,303,NW,"ID",33,fiream,FIREAM,z,,,,,,0.184259259,-0.149074074,0,0,0,,0,260,260,242,1,
,,,,,,,,,,,,,,,,,,5e9ffbdcaf81220009abc94f,2020-11-27_15h03.38.204,lexical_decision_task_MP_exp2,2020.2.5,Win32,60,z,1,0.814625,,,,,,,,0.814625,1,,,,,,369,NW,"ID",16,wronch,WRONCH,z,,,,,,0.184259259,-0.149074074,0,0,0,,0,261,261,308,1,
,,,,,,,,,,,,,,,,,,5e9ffbdcaf81220009abc94f,2020-11-27_15h03.38.204,lexical_decision_task_MP_exp2,2020.2.5,Win32,60,z,1,0.733835,,,,,,,,0.733835,1,,,,,,424,NW,UN,33,frudge,PRAILE,z,,,,,,0.184259259,-0.149074074,0,0,0,,0,262,262,363,1,
,,,,,,,,,,,,,,,,,,5e9ffbdcaf81220009abc94f,2020-11-27_15h03.38.204,lexical_decision_task_MP_exp2,2020.2.5,Win32,60,z,1,0.74789,,,,,,,,0.74789,1,,,,,,442,NW,UN,33,dorsex,ABOUNE,z,,,,,,0.184259259,-0.149074074,0,0,0,,0,263,263,381,1,
,,,,,,,,,,,,,,,,,,5e9ffbdcaf81220009abc94f,2020-11-27_15h03.38.204,lexical_decision_task_MP_exp2,2020.2.5,Win32,60,m,1,0.91384,,,,,,,,0.91384,1,,,,,,5,WORD,UN,16,bundle,PLUNGE,m,,,,,,0.184259259,-0.149074074,0,0,0,,0,264,264,184,1,
,,,,,,,,,,,,,,,,,,5e9ffbdcaf81220009abc94f,2020-11-27_15h03.38.204,lexical_decision_task_MP_exp2,2020.2.5,Win32,60,m,1,0.663815,,,,,,,,0.663815,1,,,,,,181,WORD,UN,33,winter,GLANCE,m,,,,,,0.184259259,-0.149074074,0,0,0,,0,265,265,120,1,
,,,,,,,,,,,,,,,,,,5e9ffbdcaf81220009abc94f,2020-11-27_15h03.38.204,lexical_decision_task_MP_exp2,2020.2.5,Win32,60,m,1,0.47111,,,,,,,,0.47111,1,,,,,,180,WORD,"ID",16,silent,SILENT,m,,,,,,0.184259259,-0.149074074,0,0,0,,0,266,266,119,1,
,,,,,,,,,,,,,,,,,,5e9ffbdcaf81220009abc94f,2020-11-27_15h03.38.204,lexical_decision_task_MP_exp2,2020.2.5,Win32,60,z,1,1.167205,,,,,,,,1.167205,1,,,,,,452,NW,UN,33,bolvis,SURDEN,z,,,,,,0.184259259,-0.149074074,0,0,0,,0,267,267,391,1,
,,,,,,,,,,,,,,,,,,5e9ffbdcaf81220009abc94f,2020-11-27_15h03.38.204,lexical_decision_task_MP_exp2,2020.2.5,Win32,60,m,1,0.60034,,,,,,,,0.60034,1,,,,,,46,WORD,UN,16,income,SINGLE,m,,,,,,0.184259259,-0.149074074,0,0,0,,0,268,268,225,1,
,,,,,,,,,,,,,,,,,,5e9ffbdcaf81220009abc94f,2020-11-27_15h03.38.204,lexical_decision_task_MP_exp2,2020.2.5,Win32,60,m,1,0.50578,,,,,,,,0.50578,1,,,,,,237,WORD,UN,33,glance,POSTER,m,,,,,,0.184259259,-0.149074074,0,0,0,,0,269,269,176,1,
,,,,,,,,,,,,,,,,,,5e9ffbdcaf81220009abc94f,2020-11-27_15h03.38.204,lexical_decision_task_MP_exp2,2020.2.5,Win32,60,z,1,0.676675,,,,,,,,0.676675,1,,,,,,360,NW,"ID",33,desory,DESORY,z,,,,,,0.184259259,-0.149074074,0,0,0,,0,270,270,299,1,
,,,,,,,,,,,,,,,,,,5e9ffbdcaf81220009abc94f,2020-11-27_15h03.38.204,lexical_decision_task_MP_exp2,2020.2.5,Win32,60,z,1,1.197005,,,,,,,,1.197005,1,,,,,,242,NW,UN,16,musied,UNWERT,z,,,,,,0.184259259,-0.149074074,0,0,0,,0,271,271,421,1,
,,,,,,,,,,,,,,,,,,5e9ffbdcaf81220009abc94f,2020-11-27_15h03.38.204,lexical_decision_task_MP_exp2,2020.2.5,Win32,60,z,1,0.66045,,,,,,,,0.66045,1,,,,,,320,NW,"ID",33,jockal,JOCKAL,z,,,,,,0.184259259,-0.149074074,0,0,0,,0,272,272,259,1,
,,,,,,,,,,,,,,,,,,5e9ffbdcaf81220009abc94f,2020-11-27_15h03.38.204,lexical_decision_task_MP_exp2,2020.2.5,Win32,60,m,1,0.569195,,,,,,,,0.569195,1,,,,,,108,WORD,"ID",33,reckon,RECKON,m,,,,,,0.184259259,-0.149074074,0,0,0,,0,273,273,47,1,
,,,,,,,,,,,,,,,,,,5e9ffbdcaf81220009abc94f,2020-11-27_15h03.38.204,lexical_decision_task_MP_exp2,2020.2.5,Win32,60,m,1,1.017855,,,,,,,,1.017855,1,,,,,,85,WORD,"ID",33,sprawl,SPRAWL,m,,,,,,0.184259259,-0.149074074,0,0,0,,0,274,274,24,1,
,,,,,,,,,,,,,,,,,,5e9ffbdcaf81220009abc94f,2020-11-27_15h03.38.204,lexical_decision_task_MP_exp2,2020.2.5,Win32,60,z,1,0.70333,,,,,,,,0.70333,1,,,,,,397,NW,"ID",16,camble,CAMBLE,z,,,,,,0.184259259,-0.149074074,0,0,0,,0,275,275,336,1,
,,,,,,,,,,,,,,,,,,5e9ffbdcaf81220009abc94f,2020-11-27_15h03.38.204,lexical_decision_task_MP_exp2,2020.2.5,Win32,60,m,1,0.548105,,,,,,,,0.548105,1,,,,,,29,WORD,UN,16,orient,SKETCH,m,,,,,,0.184259259,-0.149074074,0,0,0,,0,276,276,208,1,
,,,,,,,,,,,,,,,,,,5e9ffbdcaf81220009abc94f,2020-11-27_15h03.38.204,lexical_decision_task_MP_exp2,2020.2.5,Win32,60,m,1,0.575825,,,,,,,,0.575825,1,,,,,,81,WORD,"ID",33,friend,FRIEND,m,,,,,,0.184259259,-0.149074074,0,0,0,,0,277,277,20,1,
,,,,,,,,,,,,,,,,,,5e9ffbdcaf81220009abc94f,2020-11-27_15h03.38.204,lexical_decision_task_MP_exp2,2020.2.5,Win32,60,z,1,1.283015,,,,,,,,1.283015,1,,,,,,280,NW,UN,16,melaty,CURBOL,z,,,,,,0.184259259,-0.149074074,0,0,0,,0,278,278,459,1,
,,,,,,,,,,,,,,,,,,5e9ffbdcaf81220009abc94f,2020-11-27_15h03.38.204,lexical_decision_task_MP_exp2,2020.2.5,Win32,60,z,1,0.751575,,,,,,,,0.751575,1,,,,,,254,NW,UN,16,apight,VAROSH,z,,,,,,0.184259259,-0.149074074,0,0,0,,0,279,279,433,1,
,,,,,,,,,,,,,,,,,,5e9ffbdcaf81220009abc94f,2020-11-27_15h03.38.204,lexical_decision_task_MP_exp2,2020.2.5,Win32,60,m,1,0.653445,,,,,,,,0.653445,1,,,,,,223,WORD,UN,33,period,KIDNEY,m,,,,,,0.184259259,-0.149074074,0,0,0,,0,280,280,162,1,
,,,,,,,,,,,,,,,,,,5e9ffbdcaf81220009abc94f,2020-11-27_15h03.38.204,lexical_decision_task_MP_exp2,2020.2.5,Win32,60,z,1,0.64126,,,,,,,,0.64126,1,,,,,,408,NW,"ID",16,hurnia,HURNIA,z,,,,,,0.184259259,-0.149074074,0,0,0,,0,281,281,347,1,
,,,,,,,,,,,,,,,,,,5e9ffbdcaf81220009abc94f,2020-11-27_15h03.38.204,lexical_decision_task_MP_exp2,2020.2.5,Win32,60,m,1,0.63538,,,,,,,,0.63538,1,,,,,,107,WORD,"ID",33,slogan,SLOGAN,m,,,,,,0.184259259,-0.149074074,0,0,0,,0,282,282,46,1,
,,,,,,,,,,,,,,,,,,5e9ffbdcaf81220009abc94f,2020-11-27_15h03.38.204,lexical_decision_task_MP_exp2,2020.2.5,Win32,60,z,1,0.686975,,,,,,,,0.686975,1,,,,,,258,NW,UN,16,soudal,POLUTH,z,,,,,,0.184259259,-0.149074074,0,0,0,,0,283,283,437,1,
,,,,,,,,,,,,,,,,,,5e9ffbdcaf81220009abc94f,2020-11-27_15h03.38.204,lexical_decision_task_MP_exp2,2020.2.5,Win32,60,m,1,0.732645,,,,,,,,0.732645,1,,,,,,133,WORD,"ID",16,chrome,CHROME,m,,,,,,0.184259259,-0.149074074,0,0,0,,0,284,284,72,1,
,,,,,,,,,,,,,,,,,,5e9ffbdcaf81220009abc94f,2020-11-27_15h03.38.204,lexical_decision_task_MP_exp2,2020.2.5,Win32,60,z,1,1.18065,,,,,,,,1.18065,1,,,,,,260,NW,UN,16,stunch,UNJECT,z,,,,,,0.184259259,-0.149074074,0,0,0,,0,285,285,439,1,
,,,,,,,,,,,,,,,,,,5e9ffbdcaf81220009abc94f,2020-11-27_15h03.38.204,lexical_decision_task_MP_exp2,2020.2.5,Win32,60,z,1,1.59209,,,,,,,,1.59209,1,,,,,,315,NW,"ID",33,laston,LASTON,z,,,,,,0.184259259,-0.149074074,0,0,0,,0,286,286,254,1,
,,,,,,,,,,,,,,,,,,5e9ffbdcaf81220009abc94f,2020-11-27_15h03.38.204,lexical_decision_task_MP_exp2,2020.2.5,Win32,60,m,1,0.63489,,,,,,,,0.63489,1,,,,,,159,WORD,"ID",16,detail,DETAIL,m,,,,,,0.184259259,-0.149074074,0,0,0,,0,287,287,98,1,
,,,,,,,,,,,,,,,,,,5e9ffbdcaf81220009abc94f,2020-11-27_15h03.38.204,lexical_decision_task_MP_exp2,2020.2.5,Win32,60,m,1,0.839195,,,,,,,,0.839195,1,,,,,,197,WORD,UN,33,wicked,STREAM,m,,,,,,0.184259259,-0.149074074,0,0,0,,0,288,288,136,1,
,,,,,,,,,,,,,,,,,,5e9ffbdcaf81220009abc94f,2020-11-27_15h03.38.204,lexical_decision_task_MP_exp2,2020.2.5,Win32,60,z,1,1.62935,,,,,,,,1.62935,1,,,,,,398,NW,"ID",16,blunde,BLUNDE,z,,,,,,0.184259259,-0.149074074,0,0,0,,0,289,289,337,1,
,,,,,,,,,,,,,,,,,,5e9ffbdcaf81220009abc94f,2020-11-27_15h03.38.204,lexical_decision_task_MP_exp2,2020.2.5,Win32,60,m,1,0.520325,,,,,,,,0.520325,1,,,,,,98,WORD,"ID",33,belong,BELONG,m,,,,,,0.184259259,-0.149074074,0,0,0,,0,290,290,37,1,
,,,,,,,,,,,,,,,,,,5e9ffbdcaf81220009abc94f,2020-11-27_15h03.38.204,lexical_decision_task_MP_exp2,2020.2.5,Win32,60,z,1,0.6477,,,,,,,,0.6477,1,,,,,,282,NW,UN,16,veralf,PORLEX,z,,,,,,0.184259259,-0.149074074,0,0,0,,0,291,291,461,1,
,,,,,,,,,,,,,,,,,,5e9ffbdcaf81220009abc94f,2020-11-27_15h03.38.204,lexical_decision_task_MP_exp2,2020.2.5,Win32,60,z,1,0.85328,,,,,,,,0.85328,1,,,,,,373,NW,"ID",16,bigent,BIGENT,z,,,,,,0.184259259,-0.149074074,0,0,0,,0,292,292,312,1,
,,,,,,,,,,,,,,,,,,5e9ffbdcaf81220009abc94f,2020-11-27_15h03.38.204,lexical_decision_task_MP_exp2,2020.2.5,Win32,60,z,1,0.983855,,,,,,,,0.983855,1,,,,,,428,NW,UN,33,funtle,TANDLY,z,,,,,,0.184259259,-0.149074074,0,0,0,,0,293,293,367,1,
,,,,,,,,,,,,,,,,,,5e9ffbdcaf81220009abc94f,2020-11-27_15h03.38.204,lexical_decision_task_MP_exp2,2020.2.5,Win32,60,z,1,0.8416,,,,,,,,0.8416,1,,,,,,328,NW,"ID",33,broake,BROAKE,z,,,,,,0.184259259,-0.149074074,0,0,0,,0,294,294,267,1,
,,,,,,,,,,,,,,,,,,5e9ffbdcaf81220009abc94f,2020-11-27_15h03.38.204,lexical_decision_task_MP_exp2,2020.2.5,Win32,60,z,1,0.69796,,,,,,,,0.69796,1,,,,,,383,NW,"ID",16,aungre,AUNGRE,z,,,,,,0.184259259,-0.149074074,0,0,0,,0,295,295,322,1,
,,,,,,,,,,,,,,,,,,5e9ffbdcaf81220009abc94f,2020-11-27_15h03.38.204,lexical_decision_task_MP_exp2,2020.2.5,Win32,60,m,1,0.60945,,,,,,,,0.60945,1,,,,,,224,WORD,UN,33,vulgar,PERIOD,m,,,,,,0.184259259,-0.149074074,0,0,0,,0,296,296,163,1,
,,,,,,,,,,,,,,,,,,5e9ffbdcaf81220009abc94f,2020-11-27_15h03.38.204,lexical_decision_task_MP_exp2,2020.2.5,Win32,60,m,1,0.603575,,,,,,,,0.603575,1,,,,,,17,WORD,UN,16,humble,CHARGE,m,,,,,,0.184259259,-0.149074074,0,0,0,,0,297,297,196,1,
,,,,,,,,,,,,,,,,,,5e9ffbdcaf81220009abc94f,2020-11-27_15h03.38.204,lexical_decision_task_MP_exp2,2020.2.5,Win32,60,z,1,0.73147,,,,,,,,0.73147,1,,,,,,464,NW,UN,33,whivex,CHAITE,z,,,,,,0.184259259,-0.149074074,0,0,0,,0,298,298,403,1,
,,,,,,,,,,,,,,,,,,5e9ffbdcaf81220009abc94f,2020-11-27_15h03.38.204,lexical_decision_task_MP_exp2,2020.2.5,Win32,60,m,0,0.73692,,,,,,,,0.73692,0,,,,,,357,NW,"ID",33,derain,DERAIN,z,,,,,,0.184259259,-0.149074074,0,0,0,,0,299,299,296,1,
,,,,,,,,,,,,,,,,,,5e9ffbdcaf81220009abc94f,2020-11-27_15h03.38.204,lexical_decision_task_MP_exp2,2020.2.5,Win32,60,,0,,,,,,,,,0.73692,-1,,,,,,269,NW,UN,16,wrimsy,ORCHET,z,,,,,,0.184259259,-0.149074074,0,0,0,,0,300,300,448,1,
,,,,,,,,,,,,,,,,,,5e9ffbdcaf81220009abc94f,2020-11-27_15h03.38.204,lexical_decision_task_MP_exp2,2020.2.5,Win32,60,m,1,0.66255,,,,,,,,0.66255,1,,,,,,132,WORD,"ID",16,strong,STRONG,m,,,,,,0.184259259,-0.149074074,0,0,0,,0,301,301,71,1,
,,,,,,,,,,,,,,,,,,5e9ffbdcaf81220009abc94f,2020-11-27_15h03.38.204,lexical_decision_task_MP_exp2,2020.2.5,Win32,60,m,1,0.556955,,,,,,,,0.556955,1,,,,,,12,WORD,UN,16,strive,ORANGE,m,,,,,,0.184259259,-0.149074074,0,0,0,,0,302,302,191,1,
,,,,,,,,,,,,,,,,,,5e9ffbdcaf81220009abc94f,2020-11-27_15h03.38.204,lexical_decision_task_MP_exp2,2020.2.5,Win32,60,m,1,0.6271,,,,,,,,0.6271,1,,,,,,140,WORD,"ID",16,prince,PRINCE,m,,,,,,0.184259259,-0.149074074,0,0,0,,0,303,303,79,1,
,,,,,,,,,,,,,,,,,,5e9ffbdcaf81220009abc94f,2020-11-27_15h03.38.204,lexical_decision_task_MP_exp2,2020.2.5,Win32,60,m,1,0.477235,,,,,,,,0.477235,1,,,,,,168,WORD,"ID",16,answer,ANSWER,m,,,,,,0.184259259,-0.149074074,0,0,0,,0,304,304,107,1,
,,,,,,,,,,,,,,,,,,5e9ffbdcaf81220009abc94f,2020-11-27_15h03.38.204,lexical_decision_task_MP_exp2,2020.2.5,Win32,60,m,1,0.54143,,,,,,,,0.54143,1,,,,,,144,WORD,"ID",16,sponge,SPONGE,m,,,,,,0.184259259,-0.149074074,0,0,0,,0,305,305,83,1,
,,,,,,,,,,,,,,,,,,5e9ffbdcaf81220009abc94f,2020-11-27_15h03.38.204,lexical_decision_task_MP_exp2,2020.2.5,Win32,60,z,0,0.633205,,,,,,,,0.633205,0,,,,,,170,WORD,"ID",16,pounce,POUNCE,m,,,,,,0.184259259,-0.149074074,0,0,0,,0,306,306,109,1,
,,,,,,,,,,,,,,,,,,5e9ffbdcaf81220009abc94f,2020-11-27_15h03.38.204,lexical_decision_task_MP_exp2,2020.2.5,Win32,60,z,1,0.638915,,,,,,,,0.638915,1,,,,,,263,NW,UN,16,vackel,DOLICA,z,,,,,,0.184259259,-0.149074074,0,0,0,,0,307,307,442,1,
,,,,,,,,,,,,,,,,,,5e9ffbdcaf81220009abc94f,2020-11-27_15h03.38.204,lexical_decision_task_MP_exp2,2020.2.5,Win32,60,z,1,0.74288,,,,,,,,0.74288,1,,,,,,450,NW,UN,33,cainky,PHRECT,z,,,,,,0.184259259,-0.149074074,0,0,0,,0,308,308,389,1,
,,,,,,,,,,,,,,,,,,5e9ffbdcaf81220009abc94f,2020-11-27_15h03.38.204,lexical_decision_task_MP_exp2,2020.2.5,Win32,60,z,1,0.684605,,,,,,,,0.684605,1,,,,,,290,NW,UN,16,pretch,SPLINO,z,,,,,,0.184259259,-0.149074074,0,0,0,,0,309,309,469,1,
,,,,,,,,,,,,,,,,,,5e9ffbdcaf81220009abc94f,2020-11-27_15h03.38.204,lexical_decision_task_MP_exp2,2020.2.5,Win32,60,z,1,0.63169,,,,,,,,0.63169,1,,,,,,361,NW,"ID",16,pauche,PAUCHE,z,,,,,,0.184259259,-0.149074074,0,0,0,,0,310,310,300,1,
,,,,,,,,,,,,,,,,,,5e9ffbdcaf81220009abc94f,2020-11-27_15h03.38.204,lexical_decision_task_MP_exp2,2020.2.5,Win32,60,z,1,0.97129,,,,,,,,0.97129,1,,,,,,335,NW,"ID",33,desion,DESION,z,,,,,,0.184259259,-0.149074074,0,0,0,,0,311,311,274,1,
,,,,,,,,,,,,,,,,,,5e9ffbdcaf81220009abc94f,2020-11-27_15h03.38.204,lexical_decision_task_MP_exp2,2020.2.5,Win32,60,z,1,0.68209,,,,,,,,0.68209,1,,,,,,458,NW,UN,33,hocite,BARCET,z,,,,,,0.184259259,-0.149074074,0,0,0,,0,312,312,397,1,
,,,,,,,,,,,,,,,,,,5e9ffbdcaf81220009abc94f,2020-11-27_15h03.38.204,lexical_decision_task_MP_exp2,2020.2.5,Win32,60,z,1,1.417205,,,,,,,,1.417205,1,,,,,,372,NW,"ID",16,ramily,RAMILY,z,,,,,,0.184259259,-0.149074074,0,0,0,,0,313,313,311,1,
,,,,,,,,,,,,,,,,,,5e9ffbdcaf81220009abc94f,2020-11-27_15h03.38.204,lexical_decision_task_MP_exp2,2020.2.5,Win32,60,z,1,0.71418,,,,,,,,0.71418,1,,,,,,265,NW,UN,16,varmit,DISTAR,z,,,,,,0.184259259,-0.149074074,0,0,0,,0,314,314,444,1,
,,,,,,,,,,,,,,,,,,5e9ffbdcaf81220009abc94f,2020-11-27_15h03.38.204,lexical_decision_task_MP_exp2,2020.2.5,Win32,60,m,1,0.65855,,,,,,,,0.65855,1,,,,,,124,WORD,"ID",16,blouse,BLOUSE,m,,,,,,0.184259259,-0.149074074,0,0,0,,0,315,315,63,1,
,,,,,,,,,,,,,,,,,,5e9ffbdcaf81220009abc94f,2020-11-27_15h03.38.204,lexical_decision_task_MP_exp2,2020.2.5,Win32,60,z,1,0.664275,,,,,,,,0.664275,1,,,,,,309,NW,"ID",33,amiloy,AMILOY,z,,,,,,0.184259259,-0.149074074,0,0,0,,0,316,316,248,1,
,,,,,,,,,,,,,,,,,,5e9ffbdcaf81220009abc94f,2020-11-27_15h03.38.204,lexical_decision_task_MP_exp2,2020.2.5,Win32,60,m,1,0.5475,,,,,,,,0.5475,1,,,,,,72,WORD,"ID",33,bright,BRIGHT,m,,,,,,0.184259259,-0.149074074,0,0,0,,0,317,317,11,1,
,,,,,,,,,,,,,,,,,,5e9ffbdcaf81220009abc94f,2020-11-27_15h03.38.204,lexical_decision_task_MP_exp2,2020.2.5,Win32,60,z,1,0.714995,,,,,,,,0.714995,1,,,,,,312,NW,"ID",33,nerawl,NERAWL,z,,,,,,0.184259259,-0.149074074,0,0,0,,0,318,318,251,1,
,,,,,,,,,,,,,,,,,,5e9ffbdcaf81220009abc94f,2020-11-27_15h03.38.204,lexical_decision_task_MP_exp2,2020.2.5,Win32,60,m,1,0.530965,,,,,,,,0.530965,1,,,,,,91,WORD,"ID",33,expand,EXPAND,m,,,,,,0.184259259,-0.149074074,0,0,0,,0,319,319,30,1,
,,,,,,,,,,,,,,,,,,5e9ffbdcaf81220009abc94f,2020-11-27_15h03.38.204,lexical_decision_task_MP_exp2,2020.2.5,Win32,60,m,1,0.53806,,,,,,,,0.53806,1,,,,,,232,WORD,UN,33,nature,INJECT,m,,,,,,0.184259259,-0.149074074,0,0,0,,0,320,320,171,1,
,,,,,,,,,,,,,,,,,,5e9ffbdcaf81220009abc94f,2020-11-27_15h03.38.204,lexical_decision_task_MP_exp2,2020.2.5,Win32,60,z,1,0.639505,,,,,,,,0.639505,1,,,,,,329,NW,"ID",33,yarike,YARIKE,z,,,,,,0.184259259,-0.149074074,0,0,0,,0,321,321,268,1,
,,,,,,,,,,,,,,,,,,5e9ffbdcaf81220009abc94f,2020-11-27_15h03.38.204,lexical_decision_task_MP_exp2,2020.2.5,Win32,60,z,1,0.61996,,,,,,,,0.61996,1,,,,,,246,NW,UN,16,blarge,PIATON,z,,,,,,0.184259259,-0.149074074,0,0,0,,0,322,322,425,1,
,,,,,,,,,,,,,,,,,,5e9ffbdcaf81220009abc94f,2020-11-27_15h03.38.204,lexical_decision_task_MP_exp2,2020.2.5,Win32,60,z,1,1.135235,,,,,,,,1.135235,1,,,,,,433,NW,UN,33,pitrom,DRANCE,z,,,,,,0.184259259,-0.149074074,0,0,0,,0,323,323,372,1,
,,,,,,,,,,,,,,,,,,5e9ffbdcaf81220009abc94f,2020-11-27_15h03.38.204,lexical_decision_task_MP_exp2,2020.2.5,Win32,60,m,1,0.563865,,,,,,,,0.563865,1,,,,,,173,WORD,"ID",16,shower,SHOWER,m,,,,,,0.184259259,-0.149074074,0,0,0,,0,324,324,112,1,
,,,,,,,,,,,,,,,,,,5e9ffbdcaf81220009abc94f,2020-11-27_15h03.38.204,lexical_decision_task_MP_exp2,2020.2.5,Win32,60,m,1,0.513855,,,,,,,,0.513855,1,,,,,,4,WORD,UN,16,plunge,TRENCH,m,,,,,,0.184259259,-0.149074074,0,0,0,,0,325,325,183,1,
,,,,,,,,,,,,,,,,,,5e9ffbdcaf81220009abc94f,2020-11-27_15h03.38.204,lexical_decision_task_MP_exp2,2020.2.5,Win32,60,m,1,0.49217,,,,,,,,0.49217,1,,,,,,37,WORD,UN,16,powder,INSULT,m,,,,,,0.184259259,-0.149074074,0,0,0,,0,326,326,216,1,
,,,,,,,,,,,,,,,,,,5e9ffbdcaf81220009abc94f,2020-11-27_15h03.38.204,lexical_decision_task_MP_exp2,2020.2.5,Win32,60,m,1,0.501705,,,,,,,,0.501705,1,,,,,,204,WORD,UN,33,lounge,BURDEN,m,,,,,,0.184259259,-0.149074074,0,0,0,,0,327,327,143,1,
,,,,,,,,,,,,,,,,,,5e9ffbdcaf81220009abc94f,2020-11-27_15h03.38.204,lexical_decision_task_MP_exp2,2020.2.5,Win32,60,m,1,0.810365,,,,,,,,0.810365,1,,,,,,183,WORD,UN,33,sleazy,MILDEW,m,,,,,,0.184259259,-0.149074074,0,0,0,,0,328,328,122,1,
,,,,,,,,,,,,,,,,,,5e9ffbdcaf81220009abc94f,2020-11-27_15h03.38.204,lexical_decision_task_MP_exp2,2020.2.5,Win32,60,m,1,0.4832,,,,,,,,0.4832,1,,,,,,205,WORD,UN,33,tailor,LOUNGE,m,,,,,,0.184259259,-0.149074074,0,0,0,,0,329,329,144,1,
,,,,,,,,,,,,,,,,,,5e9ffbdcaf81220009abc94f,2020-11-27_15h03.38.204,lexical_decision_task_MP_exp2,2020.2.5,Win32,60,m,1,0.48398,,,,,,,,0.48398,1,,,,,,240,WORD,UN,33,seldom,FOREST,m,,,,,,0.184259259,-0.149074074,0,0,0,,0,330,330,179,1,
,,,,,,,,,,,,,,,,,,5e9ffbdcaf81220009abc94f,2020-11-27_15h03.38.204,lexical_decision_task_MP_exp2,2020.2.5,Win32,60,z,1,0.59737,,,,,,,,0.59737,1,,,,,,403,NW,"ID",16,bruats,BRUATS,z,,,,,,0.184259259,-0.149074074,0,0,0,,0,331,331,342,1,
,,,,,,,,,,,,,,,,,,5e9ffbdcaf81220009abc94f,2020-11-27_15h03.38.204,lexical_decision_task_MP_exp2,2020.2.5,Win32,60,z,1,0.70693,,,,,,,,0.70693,1,,,,,,271,NW,UN,16,damilt,AUBRID,z,,,,,,0.184259259,-0.149074074,0,0,0,,0,332,332,450,1,
,,,,,,,,,,,,,,,,,,5e9ffbdcaf81220009abc94f,2020-11-27_15h03.38.204,lexical_decision_task_MP_exp2,2020.2.5,Win32,60,z,1,0.58077,,,,,,,,0.58077,1,,,,,,431,NW,UN,33,lunker,CHRUMS,z,,,,,,0.184259259,-0.149074074,0,0,0,,0,333,333,370,1,
,,,,,,,,,,,,,,,,,,5e9ffbdcaf81220009abc94f,2020-11-27_15h03.38.204,lexical_decision_task_MP_exp2,2020.2.5,Win32,60,z,1,1.08817,,,,,,,,1.08817,1,,,,,,268,NW,UN,16,orchet,PACKES,z,,,,,,0.184259259,-0.149074074,0,0,0,,0,334,334,447,1,
,,,,,,,,,,,,,,,,,,5e9ffbdcaf81220009abc94f,2020-11-27_15h03.38.204,lexical_decision_task_MP_exp2,2020.2.5,Win32,60,m,1,0.55369,,,,,,,,0.55369,1,,,,,,31,WORD,UN,16,buckle,WEAPON,m,,,,,,0.184259259,-0.149074074,0,0,0,,0,335,335,210,1,
,,,,,,,,,,,,,,,,,,5e9ffbdcaf81220009abc94f,2020-11-27_15h03.38.204,lexical_decision_task_MP_exp2,2020.2.5,Win32,60,m,1,0.46956,,,,,,,,0.46956,1,,,,,,137,WORD,"ID",16,finger,FINGER,m,,,,,,0.184259259,-0.149074074,0,0,0,,0,336,336,76,1,
,,,,,,,,,,,,,,,,,,5e9ffbdcaf81220009abc94f,2020-11-27_15h03.38.204,lexical_decision_task_MP_exp2,2020.2.5,Win32,60,z,1,0.617835,,,,,,,,0.617835,1,,,,,,393,NW,"ID",16,ganous,GANOUS,z,,,,,,0.184259259,-0.149074074,0,0,0,,0,337,337,332,1,
,,,,,,,,,,,,,,,,,,5e9ffbdcaf81220009abc94f,2020-11-27_15h03.38.204,lexical_decision_task_MP_exp2,2020.2.5,Win32,60,z,1,0.65797,,,,,,,,0.65797,1,,,,,,382,NW,"ID",16,sarley,SARLEY,z,,,,,,0.184259259,-0.149074074,0,0,0,,0,338,338,321,1,
,,,,,,,,,,,,,,,,,,5e9ffbdcaf81220009abc94f,2020-11-27_15h03.38.204,lexical_decision_task_MP_exp2,2020.2.5,Win32,60,z,1,0.737925,,,,,,,,0.737925,1,,,,,,396,NW,"ID",16,flengy,FLENGY,z,,,,,,0.184259259,-0.149074074,0,0,0,,0,339,339,335,1,
,,,,,,,,,,,,,,,,,,5e9ffbdcaf81220009abc94f,2020-11-27_15h03.38.204,lexical_decision_task_MP_exp2,2020.2.5,Win32,60,m,1,0.61906,,,,,,,,0.61906,1,,,,,,160,WORD,"ID",16,violet,VIOLET,m,,,,,,0.184259259,-0.149074074,0,0,0,,0,340,340,99,1,
,,,,,,,,,,,,,,,,,,5e9ffbdcaf81220009abc94f,2020-11-27_15h03.38.204,lexical_decision_task_MP_exp2,2020.2.5,Win32,60,m,1,0.467065,,,,,,,,0.467065,1,,,,,,146,WORD,"ID",16,couple,COUPLE,m,,,,,,0.184259259,-0.149074074,0,0,0,,0,341,341,85,1,
,,,,,,,,,,,,,,,,,,5e9ffbdcaf81220009abc94f,2020-11-27_15h03.38.204,lexical_decision_task_MP_exp2,2020.2.5,Win32,60,m,1,0.46668,,,,,,,,0.46668,1,,,,,,76,WORD,"ID",33,exotic,EXOTIC,m,,,,,,0.184259259,-0.149074074,0,0,0,,0,342,342,15,1,
,,,,,,,,,,,,,,,,,,5e9ffbdcaf81220009abc94f,2020-11-27_15h03.38.204,lexical_decision_task_MP_exp2,2020.2.5,Win32,60,z,1,0.51376,,,,,,,,0.51376,1,,,,,,430,NW,UN,33,chrums,CAROEY,z,,,,,,0.184259259,-0.149074074,0,0,0,,0,343,343,369,1,
,,,,,,,,,,,,,,,,,,5e9ffbdcaf81220009abc94f,2020-11-27_15h03.38.204,lexical_decision_task_MP_exp2,2020.2.5,Win32,60,z,1,1.15473,,,,,,,,1.15473,1,,,,,,318,NW,"ID",33,reagly,REAGLY,z,,,,,,0.184259259,-0.149074074,0,0,0,,0,344,344,257,1,
,,,,,,,,,,,,,,,,,,5e9ffbdcaf81220009abc94f,2020-11-27_15h03.38.204,lexical_decision_task_MP_exp2,2020.2.5,Win32,60,m,1,0.54288,,,,,,,,0.54288,1,,,,,,239,WORD,UN,33,forest,LUMBER,m,,,,,,0.184259259,-0.149074074,0,0,0,,0,345,345,178,1,
,,,,,,,,,,,,,,,,,,5e9ffbdcaf81220009abc94f,2020-11-27_15h03.38.204,lexical_decision_task_MP_exp2,2020.2.5,Win32,60,m,1,0.631255,,,,,,,,0.631255,1,,,,,,215,WORD,UN,33,lumber,PHOBIA,m,,,,,,0.184259259,-0.149074074,0,0,0,,0,346,346,154,1,
,,,,,,,,,,,,,,,,,,5e9ffbdcaf81220009abc94f,2020-11-27_15h03.38.204,lexical_decision_task_MP_exp2,2020.2.5,Win32,60,m,1,0.63043,,,,,,,,0.63043,1,,,,,,8,WORD,UN,16,hustle,ABRUPT,m,,,,,,0.184259259,-0.149074074,0,0,0,,0,347,347,187,1,
,,,,,,,,,,,,,,,,,,5e9ffbdcaf81220009abc94f,2020-11-27_15h03.38.204,lexical_decision_task_MP_exp2,2020.2.5,Win32,60,m,1,0.481435,,,,,,,,0.481435,1,,,,,,150,WORD,"ID",16,random,RANDOM,m,,,,,,0.184259259,-0.149074074,0,0,0,,0,348,348,89,1,
,,,,,,,,,,,,,,,,,,5e9ffbdcaf81220009abc94f,2020-11-27_15h03.38.204,lexical_decision_task_MP_exp2,2020.2.5,Win32,60,z,1,1.09356,,,,,,,,1.09356,1,,,,,,437,NW,UN,33,baitch,SNAPEL,z,,,,,,0.184259259,-0.149074074,0,0,0,,0,349,349,376,1,
,,,,,,,,,,,,,,,,,,5e9ffbdcaf81220009abc94f,2020-11-27_15h03.38.204,lexical_decision_task_MP_exp2,2020.2.5,Win32,60,z,1,0.6232,,,,,,,,0.6232,1,,,,,,323,NW,"ID",33,rosail,ROSAIL,z,,,,,,0.184259259,-0.149074074,0,0,0,,0,350,350,262,1,
,,,,,,,,,,,,,,,,,,5e9ffbdcaf81220009abc94f,2020-11-27_15h03.38.204,lexical_decision_task_MP_exp2,2020.2.5,Win32,60,m,1,0.68501,,,,,,,,0.68501,1,,,,,,128,WORD,"ID",16,senior,SENIOR,m,,,,,,0.184259259,-0.149074074,0,0,0,,0,351,351,67,1,
,,,,,,,,,,,,,,,,,,5e9ffbdcaf81220009abc94f,2020-11-27_15h03.38.204,lexical_decision_task_MP_exp2,2020.2.5,Win32,60,z,1,0.901615,,,,,,,,0.901615,1,,,,,,365,NW,"ID",16,guairt,GUAIRT,z,,,,,,0.184259259,-0.149074074,0,0,0,,0,352,352,304,1,
,,,,,,,,,,,,,,,,,,5e9ffbdcaf81220009abc94f,2020-11-27_15h03.38.204,lexical_decision_task_MP_exp2,2020.2.5,Win32,60,m,1,0.500565,,,,,,,,0.500565,1,,,,,,41,WORD,UN,16,chapel,SPRING,m,,,,,,0.184259259,-0.149074074,0,0,0,,0,353,353,220,1,
,,,,,,,,,,,,,,,,,,5e9ffbdcaf81220009abc94f,2020-11-27_15h03.38.204,lexical_decision_task_MP_exp2,2020.2.5,Win32,60,m,1,0.522175,,,,,,,,0.522175,1,,,,,,209,WORD,UN,33,monkey,SEARCH,m,,,,,,0.184259259,-0.149074074,0,0,0,,0,354,354,148,1,
,,,,,,,,,,,,,,,,,,5e9ffbdcaf81220009abc94f,2020-11-27_15h03.38.204,lexical_decision_task_MP_exp2,2020.2.5,Win32,60,z,1,0.730685,,,,,,,,0.730685,1,,,,,,420,NW,"ID",16,gushop,GUSHOP,z,,,,,,0.184259259,-0.149074074,0,0,0,,0,355,355,359,1,
,,,,,,,,,,,,,,,,,,5e9ffbdcaf81220009abc94f,2020-11-27_15h03.38.204,lexical_decision_task_MP_exp2,2020.2.5,Win32,60,z,1,0.613895,,,,,,,,0.613895,1,,,,,,469,NW,UN,33,crudio,PADIFS,z,,,,,,0.184259259,-0.149074074,0,0,0,,0,356,356,408,1,
,,,,,,,,,,,,,,,,,,5e9ffbdcaf81220009abc94f,2020-11-27_15h03.38.204,lexical_decision_task_MP_exp2,2020.2.5,Win32,60,m,1,0.61454,,,,,,,,0.61454,1,,,,,,199,WORD,UN,33,plague,INVOKE,m,,,,,,0.184259259,-0.149074074,0,0,0,,0,357,357,138,1,
,,,,,,,,,,,,,,,,,,5e9ffbdcaf81220009abc94f,2020-11-27_15h03.38.204,lexical_decision_task_MP_exp2,2020.2.5,Win32,60,z,1,0.85894,,,,,,,,0.85894,1,,,,,,284,NW,UN,16,prudge,SHAPLE,z,,,,,,0.184259259,-0.149074074,0,0,0,,0,358,358,463,1,
,,,,,,,,,,,,,,,,,,5e9ffbdcaf81220009abc94f,2020-11-27_15h03.38.204,lexical_decision_task_MP_exp2,2020.2.5,Win32,60,z,1,0.67252,,,,,,,,0.67252,1,,,,,,438,NW,UN,33,limpor,BAITCH,z,,,,,,0.184259259,-0.149074074,0,0,0,,0,359,359,377,1,
,,,,,,,,,,,,,,,,,,5e9ffbdcaf81220009abc94f,2020-11-27_15h03.38.204,lexical_decision_task_MP_exp2,2020.2.5,Win32,60,z,1,0.691285,,,,,,,,0.691285,1,,,,,,387,NW,"ID",16,gronce,GRONCE,z,,,,,,0.184259259,-0.149074074,0,0,0,,0,360,360,326,1,
,,,,,,,,,,,,,,,,,,5e9ffbdcaf81220009abc94f,2020-11-27_15h03.38.204,lexical_decision_task_MP_exp2,2020.2.5,Win32,60,m,1,0.546825,,,,,,,,0.546825,1,,,,,,201,WORD,UN,33,factor,ADMIRE,m,,,,,,0.184259259,-0.149074074,0,0,0,,0,361,361,140,1,
,,,,,,,,,,,,,,,,,,5e9ffbdcaf81220009abc94f,2020-11-27_15h03.38.204,lexical_decision_task_MP_exp2,2020.2.5,Win32,60,m,1,0.48263,,,,,,,,0.48263,1,,,,,,51,WORD,UN,16,impose,HUNGRY,m,,,,,,0.184259259,-0.149074074,0,0,0,space,0,362,362,230,1,11.808
,,,,,,,,,,,,,,,,,,5e9ffbdcaf81220009abc94f,2020-11-27_15h03.38.204,lexical_decision_task_MP_exp2,2020.2.5,Win32,60,m,1,0.540005,,,,,,,,0.540005,1,,,,,,71,WORD,"ID",33,garden,GARDEN,m,,,,,,0.184259259,-0.149074074,0,0,0,,0,363,363,10,1,
,,,,,,,,,,,,,,,,,,5e9ffbdcaf81220009abc94f,2020-11-27_15h03.38.204,lexical_decision_task_MP_exp2,2020.2.5,Win32,60,m,1,1.159645,,,,,,,,1.159645,1,,,,,,69,WORD,"ID",33,plenty,PLENTY,m,,,,,,0.184259259,-0.149074074,0,0,0,,0,364,364,8,1,
,,,,,,,,,,,,,,,,,,5e9ffbdcaf81220009abc94f,2020-11-27_15h03.38.204,lexical_decision_task_MP_exp2,2020.2.5,Win32,60,m,1,0.537875,,,,,,,,0.537875,1,,,,,,182,WORD,UN,33,absent,WINTER,m,,,,,,0.184259259,-0.149074074,0,0,0,,0,365,365,121,1,
,,,,,,,,,,,,,,,,,,5e9ffbdcaf81220009abc94f,2020-11-27_15h03.38.204,lexical_decision_task_MP_exp2,2020.2.5,Win32,60,m,1,0.78695,,,,,,,,0.78695,1,,,,,,16,WORD,UN,16,charge,FAUCET,m,,,,,,0.184259259,-0.149074074,0,0,0,,0,366,366,195,1,
,,,,,,,,,,,,,,,,,,5e9ffbdcaf81220009abc94f,2020-11-27_15h03.38.204,lexical_decision_task_MP_exp2,2020.2.5,Win32,60,m,1,1.313865,,,,,,,,1.313865,1,,,,,,195,WORD,UN,33,credit,RESIGN,m,,,,,,0.184259259,-0.149074074,0,0,0,,0,367,367,134,1,
,,,,,,,,,,,,,,,,,,5e9ffbdcaf81220009abc94f,2020-11-27_15h03.38.204,lexical_decision_task_MP_exp2,2020.2.5,Win32,60,m,1,0.75925,,,,,,,,0.75925,1,,,,,,191,WORD,UN,33,beacon,STABLE,m,,,,,,0.184259259,-0.149074074,0,0,0,,0,368,368,130,1,
,,,,,,,,,,,,,,,,,,5e9ffbdcaf81220009abc94f,2020-11-27_15h03.38.204,lexical_decision_task_MP_exp2,2020.2.5,Win32,60,z,1,0.997225,,,,,,,,0.997225,1,,,,,,364,NW,"ID",16,impote,IMPOTE,z,,,,,,0.184259259,-0.149074074,0,0,0,,0,369,369,303,1,
,,,,,,,,,,,,,,,,,,5e9ffbdcaf81220009abc94f,2020-11-27_15h03.38.204,lexical_decision_task_MP_exp2,2020.2.5,Win32,60,m,1,0.57683,,,,,,,,0.57683,1,,,,,,93,WORD,"ID",33,public,PUBLIC,m,,,,,,0.184259259,-0.149074074,0,0,0,,0,370,370,32,1,
,,,,,,,,,,,,,,,,,,5e9ffbdcaf81220009abc94f,2020-11-27_15h03.38.204,lexical_decision_task_MP_exp2,2020.2.5,Win32,60,m,1,0.726065,,,,,,,,0.726065,1,,,,,,45,WORD,UN,16,single,CLERGY,m,,,,,,0.184259259,-0.149074074,0,0,0,,0,371,371,224,1,
,,,,,,,,,,,,,,,,,,5e9ffbdcaf81220009abc94f,2020-11-27_15h03.38.204,lexical_decision_task_MP_exp2,2020.2.5,Win32,60,z,1,1.23605,,,,,,,,1.23605,1,,,,,,276,NW,UN,16,petain,YARMON,z,,,,,,0.184259259,-0.149074074,0,0,0,,0,372,372,455,1,
,,,,,,,,,,,,,,,,,,5e9ffbdcaf81220009abc94f,2020-11-27_15h03.38.204,lexical_decision_task_MP_exp2,2020.2.5,Win32,60,z,1,0.756535,,,,,,,,0.756535,1,,,,,,444,NW,UN,33,minkel,JAUNCE,z,,,,,,0.184259259,-0.149074074,0,0,0,,0,373,373,383,1,
,,,,,,,,,,,,,,,,,,5e9ffbdcaf81220009abc94f,2020-11-27_15h03.38.204,lexical_decision_task_MP_exp2,2020.2.5,Win32,60,m,1,0.515665,,,,,,,,0.515665,1,,,,,,193,WORD,UN,33,mildew,OBJECT,m,,,,,,0.184259259,-0.149074074,0,0,0,,0,374,374,132,1,
,,,,,,,,,,,,,,,,,,5e9ffbdcaf81220009abc94f,2020-11-27_15h03.38.204,lexical_decision_task_MP_exp2,2020.2.5,Win32,60,m,1,0.508315,,,,,,,,0.508315,1,,,,,,49,WORD,UN,16,snatch,SURVEY,m,,,,,,0.184259259,-0.149074074,0,0,0,,0,375,375,228,1,
,,,,,,,,,,,,,,,,,,5e9ffbdcaf81220009abc94f,2020-11-27_15h03.38.204,lexical_decision_task_MP_exp2,2020.2.5,Win32,60,m,1,0.47621,,,,,,,,0.47621,1,,,,,,80,WORD,"ID",33,family,FAMILY,m,,,,,,0.184259259,-0.149074074,0,0,0,,0,376,376,19,1,
,,,,,,,,,,,,,,,,,,5e9ffbdcaf81220009abc94f,2020-11-27_15h03.38.204,lexical_decision_task_MP_exp2,2020.2.5,Win32,60,z,1,0.855915,,,,,,,,0.855915,1,,,,,,423,NW,UN,33,praile,STRELD,z,,,,,,0.184259259,-0.149074074,0,0,0,,0,377,377,362,1,
,,,,,,,,,,,,,,,,,,5e9ffbdcaf81220009abc94f,2020-11-27_15h03.38.204,lexical_decision_task_MP_exp2,2020.2.5,Win32,60,m,1,0.60443,,,,,,,,0.60443,1,,,,,,95,WORD,"ID",33,thread,THREAD,m,,,,,,0.184259259,-0.149074074,0,0,0,,0,378,378,34,1,
,,,,,,,,,,,,,,,,,,5e9ffbdcaf81220009abc94f,2020-11-27_15h03.38.204,lexical_decision_task_MP_exp2,2020.2.5,Win32,60,z,1,0.81442,,,,,,,,0.81442,1,,,,,,305,NW,"ID",33,forgle,FORGLE,z,,,,,,0.184259259,-0.149074074,0,0,0,,0,379,379,244,1,
,,,,,,,,,,,,,,,,,,5e9ffbdcaf81220009abc94f,2020-11-27_15h03.38.204,lexical_decision_task_MP_exp2,2020.2.5,Win32,60,z,1,0.60913,,,,,,,,0.60913,1,,,,,,406,NW,"ID",16,nouply,NOUPLY,z,,,,,,0.184259259,-0.149074074,0,0,0,,0,380,380,345,1,
,,,,,,,,,,,,,,,,,,5e9ffbdcaf81220009abc94f,2020-11-27_15h03.38.204,lexical_decision_task_MP_exp2,2020.2.5,Win32,60,z,1,0.658345,,,,,,,,0.658345,1,,,,,,244,NW,UN,16,anougs,EATRIC,z,,,,,,0.184259259,-0.149074074,0,0,0,,0,381,381,423,1,
,,,,,,,,,,,,,,,,,,5e9ffbdcaf81220009abc94f,2020-11-27_15h03.38.204,lexical_decision_task_MP_exp2,2020.2.5,Win32,60,m,1,0.71854,,,,,,,,0.71854,1,,,,,,217,WORD,UN,33,shrink,LIQUOR,m,,,,,,0.184259259,-0.149074074,0,0,0,,0,382,382,156,1,
,,,,,,,,,,,,,,,,,,5e9ffbdcaf81220009abc94f,2020-11-27_15h03.38.204,lexical_decision_task_MP_exp2,2020.2.5,Win32,60,m,1,0.533555,,,,,,,,0.533555,1,,,,,,179,WORD,"ID",16,basket,BASKET,m,,,,,,0.184259259,-0.149074074,0,0,0,,0,383,383,118,1,
,,,,,,,,,,,,,,,,,,5e9ffbdcaf81220009abc94f,2020-11-27_15h03.38.204,lexical_decision_task_MP_exp2,2020.2.5,Win32,60,m,1,0.90379,,,,,,,,0.90379,1,,,,,,6,WORD,UN,16,anchor,BUNDLE,m,,,,,,0.184259259,-0.149074074,0,0,0,,0,384,384,185,1,
,,,,,,,,,,,,,,,,,,5e9ffbdcaf81220009abc94f,2020-11-27_15h03.38.204,lexical_decision_task_MP_exp2,2020.2.5,Win32,60,z,1,0.614075,,,,,,,,0.614075,1,,,,,,317,NW,"ID",33,worbal,WORBAL,z,,,,,,0.184259259,-0.149074074,0,0,0,,0,385,385,256,1,
,,,,,,,,,,,,,,,,,,5e9ffbdcaf81220009abc94f,2020-11-27_15h03.38.204,lexical_decision_task_MP_exp2,2020.2.5,Win32,60,m,1,0.601695,,,,,,,,0.601695,1,,,,,,48,WORD,UN,16,survey,WALNUT,m,,,,,,0.184259259,-0.149074074,0,0,0,,0,386,386,227,1,
,,,,,,,,,,,,,,,,,,5e9ffbdcaf81220009abc94f,2020-11-27_15h03.38.204,lexical_decision_task_MP_exp2,2020.2.5,Win32,60,m,1,0.683395,,,,,,,,0.683395,1,,,,,,184,WORD,UN,33,bother,SLEAZY,m,,,,,,0.184259259,-0.149074074,0,0,0,,0,387,387,123,1,
,,,,,,,,,,,,,,,,,,5e9ffbdcaf81220009abc94f,2020-11-27_15h03.38.204,lexical_decision_task_MP_exp2,2020.2.5,Win32,60,m,1,0.656485,,,,,,,,0.656485,1,,,,,,25,WORD,UN,16,sprint,DOMAIN,m,,,,,,0.184259259,-0.149074074,0,0,0,,0,388,388,204,1,
,,,,,,,,,,,,,,,,,,5e9ffbdcaf81220009abc94f,2020-11-27_15h03.38.204,lexical_decision_task_MP_exp2,2020.2.5,Win32,60,m,1,0.584325,,,,,,,,0.584325,1,,,,,,62,WORD,"ID",33,region,REGION,m,,,,,,0.184259259,-0.149074074,0,0,0,,0,389,389,1,1,
,,,,,,,,,,,,,,,,,,5e9ffbdcaf81220009abc94f,2020-11-27_15h03.38.204,lexical_decision_task_MP_exp2,2020.2.5,Win32,60,m,1,0.46592,,,,,,,,0.46592,1,,,,,,88,WORD,"ID",33,hunger,HUNGER,m,,,,,,0.184259259,-0.149074074,0,0,0,,0,390,390,27,1,
,,,,,,,,,,,,,,,,,,5e9ffbdcaf81220009abc94f,2020-11-27_15h03.38.204,lexical_decision_task_MP_exp2,2020.2.5,Win32,60,m,1,0.573165,,,,,,,,0.573165,1,,,,,,73,WORD,"ID",33,source,SOURCE,m,,,,,,0.184259259,-0.149074074,0,0,0,,0,391,391,12,1,
,,,,,,,,,,,,,,,,,,5e9ffbdcaf81220009abc94f,2020-11-27_15h03.38.204,lexical_decision_task_MP_exp2,2020.2.5,Win32,60,z,1,0.619195,,,,,,,,0.619195,1,,,,,,255,NW,UN,16,inlors,APIGHT,z,,,,,,0.184259259,-0.149074074,0,0,0,,0,392,392,434,1,
,,,,,,,,,,,,,,,,,,5e9ffbdcaf81220009abc94f,2020-11-27_15h03.38.204,lexical_decision_task_MP_exp2,2020.2.5,Win32,60,m,1,0.590255,,,,,,,,0.590255,1,,,,,,185,WORD,UN,33,portal,BOTHER,m,,,,,,0.184259259,-0.149074074,0,0,0,,0,393,393,124,1,
,,,,,,,,,,,,,,,,,,5e9ffbdcaf81220009abc94f,2020-11-27_15h03.38.204,lexical_decision_task_MP_exp2,2020.2.5,Win32,60,m,1,0.50245,,,,,,,,0.50245,1,,,,,,28,WORD,UN,16,sketch,COMEDY,m,,,,,,0.184259259,-0.149074074,0,0,0,,0,394,394,207,1,
