counterbalancing_condition,instr_done_keyboard.keys,instr_done_touch.x,instr_done_touch.y,instr_done_touch.leftButton,instr_done_touch.midButton,instr_done_touch.rightButton,instr_done_touch.clicked_name,instruction_pages.thisRepN,instruction_pages.thisTrialN,instruction_pages.thisN,instruction_pages.thisIndex,instruction_pages.ran,pageN,phase,instruct_text,has_image,instruct_image,participant,date,expName,psychopyVersion,OS,frameRate,response.keys,response.corr,touch_resp.x,touch_resp.y,touch_resp.leftButton,touch_resp.midButton,touch_resp.rightButton,touch_resp.time,touch_resp.clicked_name,rt,corr,practice_trials.thisRepN,practice_trials.thisTrialN,practice_trials.thisN,practice_trials.thisIndex,practice_trials.ran,TrialID,StimulusType,Condition,PrimeDuration,Prime,Target,corrAns,end_of_practice_trials_pages.thisRepN,end_of_practice_trials_pages.thisTrialN,end_of_practice_trials_pages.thisN,end_of_practice_trials_pages.thisIndex,end_of_practice_trials_pages.ran,break_done_touch.x,break_done_touch.y,break_done_touch.leftButton,break_done_touch.midButton,break_done_touch.rightButton,break_done_keyboard.keys,experiment_trials.thisRepN,experiment_trials.thisTrialN,experiment_trials.thisN,experiment_trials.thisIndex,experiment_trials.ran,break_done_touch.clicked_name
0,,0.073333359,-0.4,1,0,0,instr_done_button,0,0,0,0,1,1,instructions,"INSTRUCTIONS
At the start of each trial, look at the hash marks (######) in the center of the screen. After a moment, a string of letters will appear. Your task is to indicate if the letter string forms a word or not (i.e., if it is a nonword). For example, AUTHOR is a word while AUTHON is a nonword.

Press the space bar or touch the button below to continue.",0,,5ea320452d77060f49a6de2c,2020-11-26_15h57.54.329,lexical_decision_task_MP_exp2,2020.2.5,Linux armv8l,60,,,,,,,,,,,,,,,,,,,,,,,,,,,,,,,,,,,,,,,,
,,0.0775,-0.418333359,1,0,0,instr_done_button,0,1,1,1,1,2,instructions,"If your device has a keyboard, press the 'Z' key for nonwords and the 'M' key for words.





Press the space bar or touch the button below to continue.",1,keyboard-example.gif,5ea320452d77060f49a6de2c,2020-11-26_15h57.54.329,lexical_decision_task_MP_exp2,2020.2.5,Linux armv8l,60,,,,,,,,,,,,,,,,,,,,,,,,,,,,,,,,,,,,,,,,
,,0.093333359,-0.401666718,1,0,0,instr_done_button,0,2,2,2,1,3,instructions,"If you are using a touchscreen only device, use the buttons on the screen. Do not use the mouse.





Press the space bar or touch the button below to continue.",1,touchscreen-example.gif,5ea320452d77060f49a6de2c,2020-11-26_15h57.54.329,lexical_decision_task_MP_exp2,2020.2.5,Linux armv8l,60,,,,,,,,,,,,,,,,,,,,,,,,,,,,,,,,,,,,,,,,
,,0.110833359,-0.41,1,0,0,instr_done_button,0,3,3,3,1,4,instructions,"It is very important that you respond as quickly and accurately as possible, as each letter string will only be on the screen for two seconds. If you do not respond within this time, the message 'Too slow!' will be displayed and the experiment will progress to the next letter string. The first 20 trials will be practice trials and you will receive feedback on your answers. 

Press the space bar or touch the button below to start the practice trials.",0,,5ea320452d77060f49a6de2c,2020-11-26_15h57.54.329,lexical_decision_task_MP_exp2,2020.2.5,Linux armv8l,60,,,,,,,,,,,,,,,,,,,,,,,,,,,,,,,,,,,,,,,,
,,,,,,,,,,,,,,,,,,5ea320452d77060f49a6de2c,2020-11-26_15h57.54.329,lexical_decision_task_MP_exp2,2020.2.5,Linux armv8l,60,,0,-0.295,-0.301666718,1,0,0,1.1233,button_left,1.1233,1,0,0,0,10,1,1011,NW,"ID",16,inlade,INLADE,z,,,,,,,,,,,,,,,,,
,,,,,,,,,,,,,,,,,,5ea320452d77060f49a6de2c,2020-11-26_15h57.54.329,lexical_decision_task_MP_exp2,2020.2.5,Linux armv8l,60,,0,-0.286666641,-0.311666718,1,0,0,0.8211,button_left,0.8211,1,0,1,1,14,1,1015,NW,UN,16,miaber,THRALE,z,,,,,,,,,,,,,,,,,
,,,,,,,,,,,,,,,,,,5ea320452d77060f49a6de2c,2020-11-26_15h57.54.329,lexical_decision_task_MP_exp2,2020.2.5,Linux armv8l,60,,0,0.428333359,-0.336666718,1,0,0,0.6827,button_right,0.6827,1,0,2,2,3,1,1004,WORD,"ID",16,matrix,MATRIX,m,,,,,,,,,,,,,,,,,
,,,,,,,,,,,,,,,,,,5ea320452d77060f49a6de2c,2020-11-26_15h57.54.329,lexical_decision_task_MP_exp2,2020.2.5,Linux armv8l,60,,0,-0.275833321,-0.306666718,1,0,0,0.8657,button_left,0.8657,1,0,3,3,12,1,1013,NW,UN,33,adveil,SPRINY,z,,,,,,,,,,,,,,,,,
,,,,,,,,,,,,,,,,,,5ea320452d77060f49a6de2c,2020-11-26_15h57.54.329,lexical_decision_task_MP_exp2,2020.2.5,Linux armv8l,60,,0,0.370833359,-0.345,1,0,0,0.6164,button_right,0.6164,1,0,4,4,7,1,1008,WORD,UN,16,hurdle,VOLUME,m,,,,,,,,,,,,,,,,,
,,,,,,,,,,,,,,,,,,5ea320452d77060f49a6de2c,2020-11-26_15h57.54.329,lexical_decision_task_MP_exp2,2020.2.5,Linux armv8l,60,,0,0.39,-0.33,1,0,0,0.6508,button_right,0.6508,1,0,5,5,4,1,1005,WORD,UN,33,abound,SQUEAK,m,,,,,,,,,,,,,,,,,
,,,,,,,,,,,,,,,,,,5ea320452d77060f49a6de2c,2020-11-26_15h57.54.329,lexical_decision_task_MP_exp2,2020.2.5,Linux armv8l,60,,0,0.375,-0.315833359,1,0,0,0.6932,button_right,0.6932,1,0,6,6,0,1,1001,WORD,"ID",33,utopia,UTOPIA,m,,,,,,,,,,,,,,,,,
,,,,,,,,,,,,,,,,,,5ea320452d77060f49a6de2c,2020-11-26_15h57.54.329,lexical_decision_task_MP_exp2,2020.2.5,Linux armv8l,60,,0,0.374166718,-0.309166718,1,0,0,0.6538,button_right,0.6538,1,0,7,7,2,1,1003,WORD,"ID",16,almond,ALMOND,m,,,,,,,,,,,,,,,,,
,,,,,,,,,,,,,,,,,,5ea320452d77060f49a6de2c,2020-11-26_15h57.54.329,lexical_decision_task_MP_exp2,2020.2.5,Linux armv8l,60,,0,0.375833359,-0.3275,1,0,0,0.6489,button_right,0.6489,1,0,8,8,5,1,1006,WORD,UN,33,frenzy,OBTAIN,m,,,,,,,,,,,,,,,,,
,,,,,,,,,,,,,,,,,,5ea320452d77060f49a6de2c,2020-11-26_15h57.54.329,lexical_decision_task_MP_exp2,2020.2.5,Linux armv8l,60,,0,-0.271666641,-0.295833359,1,0,0,0.7959,button_left,0.7959,1,0,9,9,13,1,1014,NW,UN,33,winfer,ROUPET,z,,,,,,,,,,,,,,,,,
,,,,,,,,,,,,,,,,,,5ea320452d77060f49a6de2c,2020-11-26_15h57.54.329,lexical_decision_task_MP_exp2,2020.2.5,Linux armv8l,60,,0,0.375,-0.330833359,1,0,0,0.6542,button_right,0.6542,1,0,10,10,6,1,1007,WORD,UN,16,tropic,ZOMBIE,m,,,,,,,,,,,,,,,,,
,,,,,,,,,,,,,,,,,,5ea320452d77060f49a6de2c,2020-11-26_15h57.54.329,lexical_decision_task_MP_exp2,2020.2.5,Linux armv8l,60,,0,-0.235,-0.304166718,1,0,0,0.7059,button_left,0.7059,1,0,11,11,8,1,1009,NW,"ID",33,aslert,ASLERT,z,,,,,,,,,,,,,,,,,
,,,,,,,,,,,,,,,,,,5ea320452d77060f49a6de2c,2020-11-26_15h57.54.329,lexical_decision_task_MP_exp2,2020.2.5,Linux armv8l,60,,0,-0.233333321,-0.300833359,1,0,0,0.7737,button_left,0.7737,1,0,12,12,9,1,1010,NW,"ID",33,fariny,FARINY,z,,,,,,,,,,,,,,,,,
,,,,,,,,,,,,,,,,,,5ea320452d77060f49a6de2c,2020-11-26_15h57.54.329,lexical_decision_task_MP_exp2,2020.2.5,Linux armv8l,60,,0,-0.236666641,-0.294166718,1,0,0,0.7009,button_left,0.7009,1,0,13,13,11,1,1012,NW,"ID",16,rashet,RASHET,z,,,,,,,,,,,,,,,,,
,,,,,,,,,,,,,,,,,,5ea320452d77060f49a6de2c,2020-11-26_15h57.54.329,lexical_decision_task_MP_exp2,2020.2.5,Linux armv8l,60,,0,-0.225,-0.305,1,0,0,0.7272,button_left,0.7272,1,0,14,14,15,1,1016,NW,UN,16,mushed,WHAISE,z,,,,,,,,,,,,,,,,,
,,,,,,,,,,,,,,,,,,5ea320452d77060f49a6de2c,2020-11-26_15h57.54.329,lexical_decision_task_MP_exp2,2020.2.5,Linux armv8l,60,,0,0.3325,-0.3,1,0,0,0.6285,button_right,0.6285,1,0,15,15,1,1,1002,WORD,"ID",33,adjust,ADJUST,m,,,,,,,,,,,,,,,,,
,,0.054166718,-0.423333359,1,0,0,instr_done_button,,,,,,1,end_of_practice,"You have completed the practice trials. During the experimental trials, you will not receive feedback, but it is very important that you respond as quickly and accurately as possible. 
Before you begin, please ensure that you are in a comfortable and quiet location and will not be disturbed for about 15 minutes, as we cannot use your data if you do not complete all the trials. 
There will be opportunities to take breaks at regular intervals during the experiment. When you are ready to start the experimental trials, please press space or touch the button below.",,,5ea320452d77060f49a6de2c,2020-11-26_15h57.54.329,lexical_decision_task_MP_exp2,2020.2.5,Linux armv8l,60,,,,,,,,,,,,,,,,,,,,,,,,0,0,0,0,1,,,,,,,,,,,,
,,,,,,,,,,,,,,,,,,5ea320452d77060f49a6de2c,2020-11-26_15h57.54.329,lexical_decision_task_MP_exp2,2020.2.5,Linux armv8l,60,,0,0.371666718,-0.3625,1,0,0,0.7628,button_right,0.7628,1,,,,,,231,WORD,"ID",33,export,EXPORT,m,,,,,,0.371666718,-0.3625,1,0,0,,0,0,0,50,1,
,,,,,,,,,,,,,,,,,,5ea320452d77060f49a6de2c,2020-11-26_15h57.54.329,lexical_decision_task_MP_exp2,2020.2.5,Linux armv8l,60,,0,-0.31,-0.304166718,1,0,0,0.8027,button_left,0.8027,1,,,,,,469,NW,"ID",33,padifs,PADIFS,z,,,,,,-0.31,-0.304166718,1,0,0,,0,1,1,288,1,
,,,,,,,,,,,,,,,,,,5ea320452d77060f49a6de2c,2020-11-26_15h57.54.329,lexical_decision_task_MP_exp2,2020.2.5,Linux armv8l,60,,0,0.330833359,-0.309166718,1,0,0,0.6789,button_right,0.6789,1,,,,,,25,WORD,"ID",16,domain,DOMAIN,m,,,,,,0.330833359,-0.309166718,1,0,0,,0,2,2,84,1,
,,,,,,,,,,,,,,,,,,5ea320452d77060f49a6de2c,2020-11-26_15h57.54.329,lexical_decision_task_MP_exp2,2020.2.5,Linux armv8l,60,,0,0.328333359,-0.3075,1,0,0,0.8157,button_right,0.8157,1,,,,,,45,WORD,"ID",16,clergy,CLERGY,m,,,,,,0.328333359,-0.3075,1,0,0,,0,3,3,104,1,
,,,,,,,,,,,,,,,,,,5ea320452d77060f49a6de2c,2020-11-26_15h57.54.329,lexical_decision_task_MP_exp2,2020.2.5,Linux armv8l,60,,0,-0.2525,-0.308333359,1,0,0,0.7677,button_left,0.7677,1,,,,,,472,NW,"ID",33,cigney,CIGNEY,z,,,,,,-0.2525,-0.308333359,1,0,0,,0,4,4,291,1,
,,,,,,,,,,,,,,,,,,5ea320452d77060f49a6de2c,2020-11-26_15h57.54.329,lexical_decision_task_MP_exp2,2020.2.5,Linux armv8l,60,,0,-0.235833321,-0.3,1,0,0,0.8883,button_left,0.8883,1,,,,,,248,NW,"ID",16,strole,STROLE,z,,,,,,-0.235833321,-0.3,1,0,0,,0,5,5,307,1,
,,,,,,,,,,,,,,,,,,5ea320452d77060f49a6de2c,2020-11-26_15h57.54.329,lexical_decision_task_MP_exp2,2020.2.5,Linux armv8l,60,,0,0.355,-0.328333359,1,0,0,0.8192,button_right,0.8192,1,,,,,,161,WORD,UN,16,candle,PASTOR,m,,,,,,0.355,-0.328333359,1,0,0,,0,6,6,220,1,
,,,,,,,,,,,,,,,,,,5ea320452d77060f49a6de2c,2020-11-26_15h57.54.329,lexical_decision_task_MP_exp2,2020.2.5,Linux armv8l,60,,0,0.370833359,-0.324166718,1,0,0,0.6551,button_right,0.6551,1,,,,,,42,WORD,"ID",16,chapel,CHAPEL,m,,,,,,0.370833359,-0.324166718,1,0,0,,0,7,7,101,1,
,,,,,,,,,,,,,,,,,,5ea320452d77060f49a6de2c,2020-11-26_15h57.54.329,lexical_decision_task_MP_exp2,2020.2.5,Linux armv8l,60,,0,-0.2775,-0.299166718,1,0,0,0.7798,button_left,0.7798,1,,,,,,476,NW,"ID",33,josted,JOSTED,z,,,,,,-0.2775,-0.299166718,1,0,0,,0,8,8,295,1,
,,,,,,,,,,,,,,,,,,5ea320452d77060f49a6de2c,2020-11-26_15h57.54.329,lexical_decision_task_MP_exp2,2020.2.5,Linux armv8l,60,,0,0.354166718,-0.305,1,0,0,0.6611,button_right,0.6611,1,,,,,,191,WORD,"ID",33,stable,STABLE,m,,,,,,0.354166718,-0.305,1,0,0,,0,9,9,10,1,
,,,,,,,,,,,,,,,,,,5ea320452d77060f49a6de2c,2020-11-26_15h57.54.329,lexical_decision_task_MP_exp2,2020.2.5,Linux armv8l,60,,0,-0.264166641,-0.3275,1,0,0,0.8669,button_left,0.8669,1,,,,,,265,NW,"ID",16,distar,DISTAR,z,,,,,,-0.264166641,-0.3275,1,0,0,,0,10,10,324,1,
,,,,,,,,,,,,,,,,,,5ea320452d77060f49a6de2c,2020-11-26_15h57.54.329,lexical_decision_task_MP_exp2,2020.2.5,Linux armv8l,60,,0,0.335833359,-0.3225,1,0,0,0.8159,button_right,0.8159,1,,,,,,144,WORD,UN,16,parish,SPONGE,m,,,,,,0.335833359,-0.3225,1,0,0,,0,11,11,203,1,
,,,,,,,,,,,,,,,,,,5ea320452d77060f49a6de2c,2020-11-26_15h57.54.329,lexical_decision_task_MP_exp2,2020.2.5,Linux armv8l,60,,0,-0.268333321,-0.306666718,1,0,0,0.71,button_left,0.71,1,,,,,,421,NW,"ID",33,knisma,KNISMA,z,,,,,,-0.268333321,-0.306666718,1,0,0,,0,12,12,240,1,
,,,,,,,,,,,,,,,,,,5ea320452d77060f49a6de2c,2020-11-26_15h57.54.329,lexical_decision_task_MP_exp2,2020.2.5,Linux armv8l,60,,0,-0.2775,-0.318333359,1,0,0,0.8021,button_left,0.8021,1,,,,,,344,NW,UN,33,absend,SCRILY,z,,,,,,-0.2775,-0.318333359,1,0,0,,0,13,13,403,1,
,,,,,,,,,,,,,,,,,,5ea320452d77060f49a6de2c,2020-11-26_15h57.54.329,lexical_decision_task_MP_exp2,2020.2.5,Linux armv8l,60,,0,0.385,-0.3025,1,0,0,0.7406,button_right,0.7406,1,,,,,,1,WORD,"ID",16,fright,FRIGHT,m,,,,,,0.385,-0.3025,1,0,0,,0,14,14,60,1,
,,,,,,,,,,,,,,,,,,5ea320452d77060f49a6de2c,2020-11-26_15h57.54.329,lexical_decision_task_MP_exp2,2020.2.5,Linux armv8l,60,,0,-0.286666641,-0.305,1,0,0,0.916,button_left,0.916,0,,,,,,104,WORD,UN,33,number,STUDIO,m,,,,,,-0.286666641,-0.305,1,0,0,,0,15,15,163,1,
,,,,,,,,,,,,,,,,,,5ea320452d77060f49a6de2c,2020-11-26_15h57.54.329,lexical_decision_task_MP_exp2,2020.2.5,Linux armv8l,60,,0,0.376666718,-0.338333359,1,0,0,0.8968,button_right,0.8968,1,,,,,,94,WORD,UN,33,thread,TRAVEL,m,,,,,,0.376666718,-0.338333359,1,0,0,,0,16,16,153,1,
,,,,,,,,,,,,,,,,,,5ea320452d77060f49a6de2c,2020-11-26_15h57.54.329,lexical_decision_task_MP_exp2,2020.2.5,Linux armv8l,60,,0,0.374166718,-0.32,1,0,0,0.7175,button_right,0.7175,1,,,,,,215,WORD,"ID",33,phobia,PHOBIA,m,,,,,,0.374166718,-0.32,1,0,0,,0,17,17,34,1,
,,,,,,,,,,,,,,,,,,5ea320452d77060f49a6de2c,2020-11-26_15h57.54.329,lexical_decision_task_MP_exp2,2020.2.5,Linux armv8l,60,,0,0.369166718,-0.323333359,1,0,0,0.7417,button_right,0.7417,1,,,,,,150,WORD,UN,16,mystic,RANDOM,m,,,,,,0.369166718,-0.323333359,1,0,0,,0,18,18,209,1,
,,,,,,,,,,,,,,,,,,5ea320452d77060f49a6de2c,2020-11-26_15h57.54.329,lexical_decision_task_MP_exp2,2020.2.5,Linux armv8l,60,,0,0.399166718,-0.3275,1,0,0,0.8596,button_right,0.8596,1,,,,,,85,WORD,UN,33,rodent,SPRAWL,m,,,,,,0.399166718,-0.3275,1,0,0,,0,19,19,144,1,
,,,,,,,,,,,,,,,,,,5ea320452d77060f49a6de2c,2020-11-26_15h57.54.329,lexical_decision_task_MP_exp2,2020.2.5,Linux armv8l,60,,0,0.386666718,-0.316666718,1,0,0,0.7033,button_right,0.7033,1,,,,,,157,WORD,UN,16,island,DRAGON,m,,,,,,0.386666718,-0.316666718,1,0,0,,0,20,20,216,1,
,,,,,,,,,,,,,,,,,,5ea320452d77060f49a6de2c,2020-11-26_15h57.54.329,lexical_decision_task_MP_exp2,2020.2.5,Linux armv8l,60,,0,-0.285833321,-0.279166718,1,0,0,0.8246,button_left,0.8246,1,,,,,,307,NW,UN,33,psetch,KIRAFE,z,,,,,,-0.285833321,-0.279166718,1,0,0,,0,21,21,366,1,
,,,,,,,,,,,,,,,,,,5ea320452d77060f49a6de2c,2020-11-26_15h57.54.329,lexical_decision_task_MP_exp2,2020.2.5,Linux armv8l,60,,0,-0.260833321,-0.293333359,1,0,0,0.8006,button_left,0.8006,1,,,,,,289,NW,"ID",16,starby,STARBY,z,,,,,,-0.260833321,-0.293333359,1,0,0,,0,22,22,348,1,
,,,,,,,,,,,,,,,,,,5ea320452d77060f49a6de2c,2020-11-26_15h57.54.329,lexical_decision_task_MP_exp2,2020.2.5,Linux armv8l,60,,0,-0.231666641,-0.313333359,1,0,0,0.8152,button_left,0.8152,1,,,,,,372,NW,UN,16,bigent,RAMILY,z,,,,,,-0.231666641,-0.313333359,1,0,0,,0,23,23,431,1,
,,,,,,,,,,,,,,,,,,5ea320452d77060f49a6de2c,2020-11-26_15h57.54.329,lexical_decision_task_MP_exp2,2020.2.5,Linux armv8l,60,,0,-0.253333321,-0.298333359,1,0,0,0.8195,button_left,0.8195,1,,,,,,266,NW,"ID",16,varmit,VARMIT,z,,,,,,-0.253333321,-0.298333359,1,0,0,,0,24,24,325,1,
,,,,,,,,,,,,,,,,,,5ea320452d77060f49a6de2c,2020-11-26_15h57.54.329,lexical_decision_task_MP_exp2,2020.2.5,Linux armv8l,60,,0,-0.2525,-0.306666718,1,0,0,0.7785,button_left,0.7785,1,,,,,,410,NW,UN,16,orchin,TUNORY,z,,,,,,-0.2525,-0.306666718,1,0,0,,0,25,25,469,1,
,,,,,,,,,,,,,,,,,,5ea320452d77060f49a6de2c,2020-11-26_15h57.54.329,lexical_decision_task_MP_exp2,2020.2.5,Linux armv8l,60,,0,-0.261666641,-0.313333359,1,0,0,0.8468,button_left,0.8468,1,,,,,,394,NW,UN,16,colury,SPAQUX,z,,,,,,-0.261666641,-0.313333359,1,0,0,,0,26,26,453,1,
,,,,,,,,,,,,,,,,,,5ea320452d77060f49a6de2c,2020-11-26_15h57.54.329,lexical_decision_task_MP_exp2,2020.2.5,Linux armv8l,60,,0,0.364166718,-0.296666718,1,0,0,0.7185,button_right,0.7185,1,,,,,,13,WORD,"ID",16,strive,STRIVE,m,,,,,,0.364166718,-0.296666718,1,0,0,,0,27,27,72,1,
,,,,,,,,,,,,,,,,,,5ea320452d77060f49a6de2c,2020-11-26_15h57.54.329,lexical_decision_task_MP_exp2,2020.2.5,Linux armv8l,60,,0,0.353333359,-0.305,1,0,0,0.7878,button_right,0.7878,1,,,,,,155,WORD,UN,16,cradle,LIZARD,m,,,,,,0.353333359,-0.305,1,0,0,,0,28,28,214,1,
,,,,,,,,,,,,,,,,,,5ea320452d77060f49a6de2c,2020-11-26_15h57.54.329,lexical_decision_task_MP_exp2,2020.2.5,Linux armv8l,60,,0,0.364166718,-0.32,1,0,0,0.776,button_right,0.776,1,,,,,,69,WORD,UN,33,square,PLENTY,m,,,,,,0.364166718,-0.32,1,0,0,,0,29,29,128,1,
,,,,,,,,,,,,,,,,,,5ea320452d77060f49a6de2c,2020-11-26_15h57.54.329,lexical_decision_task_MP_exp2,2020.2.5,Linux armv8l,60,,0,-0.244166641,-0.279166718,1,0,0,0.8691,button_left,0.8691,1,,,,,,376,NW,UN,16,veigma,IGUARE,z,,,,,,-0.244166641,-0.279166718,1,0,0,,0,30,30,435,1,
,,,,,,,,,,,,,,,,,,5ea320452d77060f49a6de2c,2020-11-26_15h57.54.329,lexical_decision_task_MP_exp2,2020.2.5,Linux armv8l,60,,0,-0.2925,-0.3025,1,0,0,0.8314,button_left,0.8314,1,,,,,,478,NW,"ID",33,acrise,ACRISE,z,,,,,,-0.2925,-0.3025,1,0,0,,0,31,31,297,1,
,,,,,,,,,,,,,,,,,,5ea320452d77060f49a6de2c,2020-11-26_15h57.54.329,lexical_decision_task_MP_exp2,2020.2.5,Linux armv8l,60,,0,0.3575,-0.29,1,0,0,0.768,button_right,0.768,1,,,,,,77,WORD,UN,33,column,RACKET,m,,,,,,0.3575,-0.29,1,0,0,,0,32,32,136,1,
,,,,,,,,,,,,,,,,,,5ea320452d77060f49a6de2c,2020-11-26_15h57.54.329,lexical_decision_task_MP_exp2,2020.2.5,Linux armv8l,60,,0,-0.2525,-0.2875,1,0,0,0.7728,button_left,0.7728,1,,,,,,295,NW,"ID",16,gleath,GLEATH,z,,,,,,-0.2525,-0.2875,1,0,0,,0,33,33,354,1,
,,,,,,,,,,,,,,,,,,5ea320452d77060f49a6de2c,2020-11-26_15h57.54.329,lexical_decision_task_MP_exp2,2020.2.5,Linux armv8l,60,,0,0.3225,-0.2775,1,0,0,0.8404,button_right,0.8404,1,,,,,,128,WORD,UN,16,marvel,SENIOR,m,,,,,,0.3225,-0.2775,1,0,0,,0,34,34,187,1,
,,,,,,,,,,,,,,,,,,5ea320452d77060f49a6de2c,2020-11-26_15h57.54.329,lexical_decision_task_MP_exp2,2020.2.5,Linux armv8l,60,,0,0.355833359,-0.331666718,1,0,0,0.7696,button_right,0.7696,1,,,,,,160,WORD,UN,16,pastor,VIOLET,m,,,,,,0.355833359,-0.331666718,1,0,0,,0,35,35,219,1,
,,,,,,,,,,,,,,,,,,5ea320452d77060f49a6de2c,2020-11-26_15h57.54.329,lexical_decision_task_MP_exp2,2020.2.5,Linux armv8l,60,,0,-0.264166641,-0.306666718,1,0,0,0.7868,button_left,0.7868,1,,,,,,366,NW,UN,16,slique,TOSHEL,z,,,,,,-0.264166641,-0.306666718,1,0,0,,0,36,36,425,1,
,,,,,,,,,,,,,,,,,,5ea320452d77060f49a6de2c,2020-11-26_15h57.54.329,lexical_decision_task_MP_exp2,2020.2.5,Linux armv8l,60,,0,0.323333359,-0.295833359,1,0,0,0.6446,button_right,0.6446,1,,,,,,187,WORD,"ID",33,course,COURSE,m,,,,,,0.323333359,-0.295833359,1,0,0,,0,37,37,6,1,
,,,,,,,,,,,,,,,,,,5ea320452d77060f49a6de2c,2020-11-26_15h57.54.329,lexical_decision_task_MP_exp2,2020.2.5,Linux armv8l,60,,0,0.3225,-0.291666718,1,0,0,0.8555,button_right,0.8555,1,,,,,,61,WORD,UN,33,region,PONDER,m,,,,,,0.3225,-0.291666718,1,0,0,,0,38,38,120,1,
,,,,,,,,,,,,,,,,,,5ea320452d77060f49a6de2c,2020-11-26_15h57.54.329,lexical_decision_task_MP_exp2,2020.2.5,Linux armv8l,60,,0,-0.240833321,-0.298333359,1,0,0,0.8521,button_left,0.8521,1,,,,,,377,NW,UN,16,shrile,INJORE,z,,,,,,-0.240833321,-0.298333359,1,0,0,,0,39,39,436,1,
,,,,,,,,,,,,,,,,,,5ea320452d77060f49a6de2c,2020-11-26_15h57.54.329,lexical_decision_task_MP_exp2,2020.2.5,Linux armv8l,60,,0,-0.2775,-0.315833359,1,0,0,0.8522,button_left,0.8522,1,,,,,,349,NW,UN,33,nagurs,ASYLEN,z,,,,,,-0.2775,-0.315833359,1,0,0,,0,40,40,408,1,
,,,,,,,,,,,,,,,,,,5ea320452d77060f49a6de2c,2020-11-26_15h57.54.329,lexical_decision_task_MP_exp2,2020.2.5,Linux armv8l,60,,0,-0.258333321,-0.3,1,0,0,0.7636,button_left,0.7636,1,,,,,,401,NW,UN,16,syntic,MUSTIL,z,,,,,,-0.258333321,-0.3,1,0,0,,0,41,41,460,1,
,,,,,,,,,,,,,,,,,,5ea320452d77060f49a6de2c,2020-11-26_15h57.54.329,lexical_decision_task_MP_exp2,2020.2.5,Linux armv8l,60,,0,-0.293333321,-0.309166718,1,0,0,0.7586,button_left,0.7586,1,,,,,,350,NW,UN,33,tiesch,NAGURS,z,,,,,,-0.293333321,-0.309166718,1,0,0,,0,42,42,409,1,
,,,,,,,,,,,,,,,,,,5ea320452d77060f49a6de2c,2020-11-26_15h57.54.329,lexical_decision_task_MP_exp2,2020.2.5,Linux armv8l,60,,0,0.370833359,-0.291666718,1,0,0,0.6827,button_right,0.6827,1,,,,,,203,WORD,"ID",33,phrase,PHRASE,m,,,,,,0.370833359,-0.291666718,1,0,0,,0,43,43,22,1,
,,,,,,,,,,,,,,,,,,5ea320452d77060f49a6de2c,2020-11-26_15h57.54.329,lexical_decision_task_MP_exp2,2020.2.5,Linux armv8l,60,,0,0.32,-0.3,1,0,0,0.7705,button_right,0.7705,1,,,,,,176,WORD,UN,16,advent,STRIFE,m,,,,,,0.32,-0.3,1,0,0,,0,44,44,235,1,
,,,,,,,,,,,,,,,,,,5ea320452d77060f49a6de2c,2020-11-26_15h57.54.329,lexical_decision_task_MP_exp2,2020.2.5,Linux armv8l,60,,0,0.340833359,-0.299166718,1,0,0,0.8584,button_right,0.8584,1,,,,,,89,WORD,UN,33,relish,PERMIT,m,,,,,,0.340833359,-0.299166718,1,0,0,,0,45,45,148,1,
,,,,,,,,,,,,,,,,,,5ea320452d77060f49a6de2c,2020-11-26_15h57.54.329,lexical_decision_task_MP_exp2,2020.2.5,Linux armv8l,60,,0,-0.193333321,-0.314166718,1,0,0,0.925,button_left,0.925,1,,,,,,290,NW,"ID",16,splino,SPLINO,z,,,,,,-0.276666641,-0.313333359,1,0,0,,0,46,46,349,1,
,,,,,,,,,,,,,,,,,,5ea320452d77060f49a6de2c,2020-11-26_15h57.54.329,lexical_decision_task_MP_exp2,2020.2.5,Linux armv8l,60,,0,0.380833359,-0.340833359,1,0,0,0.6533,button_right,0.6533,1,,,,,,188,WORD,"ID",33,social,SOCIAL,m,,,,,,0.380833359,-0.340833359,1,0,0,,0,47,47,7,1,
,,,,,,,,,,,,,,,,,,5ea320452d77060f49a6de2c,2020-11-26_15h57.54.329,lexical_decision_task_MP_exp2,2020.2.5,Linux armv8l,60,,0,0.33,-0.309166718,1,0,0,0.7602,button_right,0.7602,1,,,,,,119,WORD,UN,33,strain,SPIDER,m,,,,,,0.33,-0.309166718,1,0,0,,0,48,48,178,1,
,,,,,,,,,,,,,,,,,,5ea320452d77060f49a6de2c,2020-11-26_15h57.54.329,lexical_decision_task_MP_exp2,2020.2.5,Linux armv8l,60,,0,0.3325,-0.306666718,1,0,0,0.7313,button_right,0.7313,1,,,,,,175,WORD,UN,16,strife,FABRIC,m,,,,,,0.3325,-0.306666718,1,0,0,,0,49,49,234,1,
,,,,,,,,,,,,,,,,,,5ea320452d77060f49a6de2c,2020-11-26_15h57.54.329,lexical_decision_task_MP_exp2,2020.2.5,Linux armv8l,60,,0,-0.303333321,-0.294166718,1,0,0,0.7636,button_left,0.7636,1,,,,,,471,NW,"ID",33,nobest,NOBEST,z,,,,,,-0.303333321,-0.294166718,1,0,0,,0,50,50,290,1,
,,,,,,,,,,,,,,,,,,5ea320452d77060f49a6de2c,2020-11-26_15h57.54.329,lexical_decision_task_MP_exp2,2020.2.5,Linux armv8l,60,,0,0.365833359,-0.286666718,1,0,0,0.7239,button_right,0.7239,1,,,,,,165,WORD,UN,16,starch,INVEST,m,,,,,,0.365833359,-0.286666718,1,0,0,,0,51,51,224,1,
,,,,,,,,,,,,,,,,,,5ea320452d77060f49a6de2c,2020-11-26_15h57.54.329,lexical_decision_task_MP_exp2,2020.2.5,Linux armv8l,60,,0,-0.313333321,-0.28,1,0,0,0.6848,button_left,0.6848,1,,,,,,379,NW,UN,16,cavory,AUTING,z,,,,,,-0.313333321,-0.28,1,0,0,,0,52,52,438,1,
,,,,,,,,,,,,,,,,,,5ea320452d77060f49a6de2c,2020-11-26_15h57.54.329,lexical_decision_task_MP_exp2,2020.2.5,Linux armv8l,60,,0,0.3775,-0.295,1,0,0,0.6638,button_right,0.6638,1,,,,,,185,WORD,"ID",33,bother,BOTHER,m,,,,,,0.3775,-0.295,1,0,0,,0,53,53,4,1,
,,,,,,,,,,,,,,,,,,5ea320452d77060f49a6de2c,2020-11-26_15h57.54.329,lexical_decision_task_MP_exp2,2020.2.5,Linux armv8l,60,,0,0.351666718,-0.3,1,0,0,0.7737,button_right,0.7737,1,,,,,,142,WORD,UN,16,reason,SPRUCE,m,,,,,,0.351666718,-0.3,1,0,0,,0,54,54,201,1,
,,,,,,,,,,,,,,,,,,5ea320452d77060f49a6de2c,2020-11-26_15h57.54.329,lexical_decision_task_MP_exp2,2020.2.5,Linux armv8l,60,,0,-0.271666641,-0.290833359,1,0,0,0.6821,button_left,0.6821,1,,,,,,267,NW,"ID",16,pasink,PASINK,z,,,,,,-0.271666641,-0.290833359,1,0,0,,0,55,55,326,1,
,,,,,,,,,,,,,,,,,,5ea320452d77060f49a6de2c,2020-11-26_15h57.54.329,lexical_decision_task_MP_exp2,2020.2.5,Linux armv8l,60,,0,0.325833359,-0.305833359,1,0,0,0.7111,button_right,0.7111,1,,,,,,170,WORD,UN,16,dragon,POUNCE,m,,,,,,0.325833359,-0.305833359,1,0,0,,0,56,56,229,1,
,,,,,,,,,,,,,,,,,,5ea320452d77060f49a6de2c,2020-11-26_15h57.54.329,lexical_decision_task_MP_exp2,2020.2.5,Linux armv8l,60,,0,-0.221666641,-0.291666718,1,0,0,0.7826,button_left,0.7826,1,,,,,,428,NW,"ID",33,tandly,TANDLY,z,,,,,,-0.221666641,-0.291666718,1,0,0,,0,57,57,247,1,
,,,,,,,,,,,,,,,,,,5ea320452d77060f49a6de2c,2020-11-26_15h57.54.329,lexical_decision_task_MP_exp2,2020.2.5,Linux armv8l,60,,0,0.366666718,-0.311666718,1,0,0,0.6327,button_right,0.6327,1,,,,,,207,WORD,"ID",33,wreath,WREATH,m,,,,,,0.366666718,-0.311666718,1,0,0,,0,58,58,26,1,
,,,,,,,,,,,,,,,,,,5ea320452d77060f49a6de2c,2020-11-26_15h57.54.329,lexical_decision_task_MP_exp2,2020.2.5,Linux armv8l,60,,0,-0.271666641,-0.284166718,1,0,0,0.8427,button_left,0.8427,1,,,,,,247,NW,"ID",16,blarge,BLARGE,z,,,,,,-0.271666641,-0.284166718,1,0,0,,0,59,59,306,1,
,,,,,,,,,,,,,,,,,,5ea320452d77060f49a6de2c,2020-11-26_15h57.54.329,lexical_decision_task_MP_exp2,2020.2.5,Linux armv8l,60,,0,-0.255,-0.291666718,1,0,0,0.6935,button_left,0.6935,1,,,,,,359,NW,UN,33,desory,FONVER,z,,,,,,-0.255,-0.291666718,1,0,0,,0,60,60,418,1,
,,,,,,,,,,,,,,,,,,5ea320452d77060f49a6de2c,2020-11-26_15h57.54.329,lexical_decision_task_MP_exp2,2020.2.5,Linux armv8l,60,,0,0.314166718,-0.3,1,0,0,0.7335,button_right,0.7335,1,,,,,,112,WORD,UN,33,chorus,BREATH,m,,,,,,0.314166718,-0.3,1,0,0,,0,61,61,171,1,
,,,,,,,,,,,,,,,,,,5ea320452d77060f49a6de2c,2020-11-26_15h57.54.329,lexical_decision_task_MP_exp2,2020.2.5,Linux armv8l,60,,0,0.32,-0.284166718,1,0,0,0.6844,button_right,0.6844,1,,,,,,117,WORD,UN,33,flight,BRANCH,m,,,,,,0.32,-0.284166718,1,0,0,,0,62,62,176,1,
,,,,,,,,,,,,,,,,,,5ea320452d77060f49a6de2c,2020-11-26_15h57.54.329,lexical_decision_task_MP_exp2,2020.2.5,Linux armv8l,60,,0,0.354166718,-0.2925,1,0,0,0.6656,button_right,0.6656,1,,,,,,96,WORD,UN,33,client,IGNORE,m,,,,,,0.354166718,-0.2925,1,0,0,,0,63,63,155,1,
,,,,,,,,,,,,,,,,,,5ea320452d77060f49a6de2c,2020-11-26_15h57.54.329,lexical_decision_task_MP_exp2,2020.2.5,Linux armv8l,60,,0,-0.285,-0.2975,1,0,0,0.7781,button_left,0.7781,1,,,,,,254,NW,"ID",16,varosh,VAROSH,z,,,,,,-0.285,-0.2975,1,0,0,,0,64,64,313,1,
,,,,,,,,,,,,,,,,,,5ea320452d77060f49a6de2c,2020-11-26_15h57.54.329,lexical_decision_task_MP_exp2,2020.2.5,Linux armv8l,60,,0,0.345833359,-0.3125,1,0,0,0.6589,button_right,0.6589,1,,,,,,137,WORD,UN,16,melody,FINGER,m,,,,,,0.345833359,-0.3125,1,0,0,,0,65,65,196,1,
,,,,,,,,,,,,,,,,,,5ea320452d77060f49a6de2c,2020-11-26_15h57.54.329,lexical_decision_task_MP_exp2,2020.2.5,Linux armv8l,60,,0,0.32,-0.306666718,1,0,0,0.6605,button_right,0.6605,1,,,,,,60,WORD,"ID",16,pencil,PENCIL,m,,,,,,0.32,-0.306666718,1,0,0,,0,66,66,119,1,
,,,,,,,,,,,,,,,,,,5ea320452d77060f49a6de2c,2020-11-26_15h57.54.329,lexical_decision_task_MP_exp2,2020.2.5,Linux armv8l,60,,0,0.3275,-0.285833359,1,0,0,0.9212,button_right,0.9212,1,,,,,,9,WORD,"ID",16,hustle,HUSTLE,m,,,,,,0.3275,-0.285833359,1,0,0,,0,67,67,68,1,
,,,,,,,,,,,,,,,,,,5ea320452d77060f49a6de2c,2020-11-26_15h57.54.329,lexical_decision_task_MP_exp2,2020.2.5,Linux armv8l,60,,0,0.350833359,-0.3075,1,0,0,0.6378,button_right,0.6378,1,,,,,,38,WORD,"ID",16,powder,POWDER,m,,,,,,0.350833359,-0.3075,1,0,0,,0,68,68,97,1,
,,,,,,,,,,,,,,,,,,5ea320452d77060f49a6de2c,2020-11-26_15h57.54.329,lexical_decision_task_MP_exp2,2020.2.5,Linux armv8l,60,,0,0.364166718,-0.3075,1,0,0,0.588,button_right,0.588,1,,,,,,91,WORD,UN,33,hunger,EXPAND,m,,,,,,0.364166718,-0.3075,1,0,0,,0,69,69,150,1,
,,,,,,,,,,,,,,,,,,5ea320452d77060f49a6de2c,2020-11-26_15h57.54.329,lexical_decision_task_MP_exp2,2020.2.5,Linux armv8l,60,,0,-0.235833321,-0.3125,1,0,0,0.7602,button_left,0.7602,1,,,,,,264,NW,"ID",16,vackel,VACKEL,z,,,,,,-0.235833321,-0.3125,1,0,0,,0,70,70,323,1,
,,,,,,,,,,,,,,,,,,5ea320452d77060f49a6de2c,2020-11-26_15h57.54.329,lexical_decision_task_MP_exp2,2020.2.5,Linux armv8l,60,,0,-0.294166641,-0.2975,1,0,0,0.7228,button_left,0.7228,1,,,,,,261,NW,"ID",16,stunch,STUNCH,z,,,,,,-0.294166641,-0.2975,1,0,0,,0,71,71,320,1,
,,,,,,,,,,,,,,,,,,5ea320452d77060f49a6de2c,2020-11-26_15h57.54.329,lexical_decision_task_MP_exp2,2020.2.5,Linux armv8l,60,,0,-0.290833321,-0.306666718,1,0,0,0.6516,button_left,0.6516,1,,,,,,419,NW,UN,16,gushop,SLOUNT,z,,,,,,-0.290833321,-0.306666718,1,0,0,,0,72,72,478,1,
,,,,,,,,,,,,,,,,,,5ea320452d77060f49a6de2c,2020-11-26_15h57.54.329,lexical_decision_task_MP_exp2,2020.2.5,Linux armv8l,60,,0,0.358333359,-0.305,1,0,0,0.7295,button_right,0.7295,1,,,,,,223,WORD,"ID",33,kidney,KIDNEY,m,,,,,,0.358333359,-0.305,1,0,0,,0,73,73,42,1,
,,,,,,,,,,,,,,,,,,5ea320452d77060f49a6de2c,2020-11-26_15h57.54.329,lexical_decision_task_MP_exp2,2020.2.5,Linux armv8l,60,,0,0.315833359,-0.29,1,0,0,0.7221,button_right,0.7221,1,,,,,,127,WORD,UN,16,senior,CASTLE,m,,,,,,0.315833359,-0.29,1,0,0,,0,74,74,186,1,
,,,,,,,,,,,,,,,,,,5ea320452d77060f49a6de2c,2020-11-26_15h57.54.329,lexical_decision_task_MP_exp2,2020.2.5,Linux armv8l,60,,0,0.301666718,-0.303333359,1,0,0,0.6997,button_right,0.6997,1,,,,,,143,WORD,UN,16,sponge,REASON,m,,,,,,0.301666718,-0.303333359,1,0,0,,0,75,75,202,1,
,,,,,,,,,,,,,,,,,,5ea320452d77060f49a6de2c,2020-11-26_15h57.54.329,lexical_decision_task_MP_exp2,2020.2.5,Linux armv8l,60,,0,-0.293333321,-0.299166718,1,0,0,0.7988,button_left,0.7988,1,,,,,,406,NW,UN,16,suiver,NOUPLY,z,,,,,,-0.293333321,-0.299166718,1,0,0,,0,76,76,465,1,
,,,,,,,,,,,,,,,,,,5ea320452d77060f49a6de2c,2020-11-26_15h57.54.329,lexical_decision_task_MP_exp2,2020.2.5,Linux armv8l,60,,0,0.3375,-0.294166718,1,0,0,0.6157,button_right,0.6157,0,,,,,,321,NW,UN,33,slanch,MIATOR,z,,,,,,0.3375,-0.294166718,1,0,0,,0,77,77,380,1,
,,,,,,,,,,,,,,,,,,5ea320452d77060f49a6de2c,2020-11-26_15h57.54.329,lexical_decision_task_MP_exp2,2020.2.5,Linux armv8l,60,,0,0.343333359,-0.311666718,1,0,0,0.6427,button_right,0.6427,1,,,,,,182,WORD,"ID",33,winter,WINTER,m,,,,,,0.343333359,-0.311666718,1,0,0,,0,78,78,1,1,
,,,,,,,,,,,,,,,,,,5ea320452d77060f49a6de2c,2020-11-26_15h57.54.329,lexical_decision_task_MP_exp2,2020.2.5,Linux armv8l,60,,0,-0.2425,-0.289166718,1,0,0,0.8101,button_left,0.8101,1,,,,,,246,NW,"ID",16,piaton,PIATON,z,,,,,,-0.2425,-0.289166718,1,0,0,,0,79,79,305,1,
,,,,,,,,,,,,,,,,,,5ea320452d77060f49a6de2c,2020-11-26_15h57.54.329,lexical_decision_task_MP_exp2,2020.2.5,Linux armv8l,60,,0,-0.26,-0.285,1,0,0,0.7508,button_left,0.7508,1,,,,,,353,NW,UN,33,virlex,CLUREY,z,,,,,,-0.26,-0.285,1,0,0,,0,80,80,412,1,
,,,,,,,,,,,,,,,,,,5ea320452d77060f49a6de2c,2020-11-26_15h57.54.329,lexical_decision_task_MP_exp2,2020.2.5,Linux armv8l,60,,0,-0.251666641,-0.27,1,0,0,0.7159,button_left,0.7159,1,,,,,,313,NW,UN,33,sprine,PAURSE,z,,,,,,-0.251666641,-0.27,1,0,0,,0,81,81,372,1,
,,,,,,,,,,,,,,,,,,5ea320452d77060f49a6de2c,2020-11-26_15h57.54.329,lexical_decision_task_MP_exp2,2020.2.5,Linux armv8l,60,,0,-0.2525,-0.27,1,0,0,0.741,button_left,0.741,1,,,,,,308,NW,UN,33,amiloy,PSETCH,z,,,,,,-0.2525,-0.27,1,0,0,,0,82,82,367,1,
,,,,,,,,,,,,,,,,,,5ea320452d77060f49a6de2c,2020-11-26_15h57.54.329,lexical_decision_task_MP_exp2,2020.2.5,Linux armv8l,60,,0,0.313333359,-0.261666718,1,0,0,0.7209,button_right,0.7209,1,,,,,,79,WORD,UN,33,family,THEORY,m,,,,,,0.313333359,-0.261666718,1,0,0,,0,83,83,138,1,
,,,,,,,,,,,,,,,,,,5ea320452d77060f49a6de2c,2020-11-26_15h57.54.329,lexical_decision_task_MP_exp2,2020.2.5,Linux armv8l,60,,0,0.3275,-0.281666718,1,0,0,0.6951,button_right,0.6951,1,,,,,,193,WORD,"ID",33,object,OBJECT,m,,,,,,0.3275,-0.281666718,1,0,0,,0,84,84,12,1,
,,,,,,,,,,,,,,,,,,5ea320452d77060f49a6de2c,2020-11-26_15h57.54.329,lexical_decision_task_MP_exp2,2020.2.5,Linux armv8l,60,,0,0.313333359,-0.314166718,1,0,0,0.7035,button_right,0.7035,1,,,,,,115,WORD,UN,33,tumble,GUITAR,m,,,,,,0.313333359,-0.314166718,1,0,0,,0,85,85,174,1,
,,,,,,,,,,,,,,,,,,5ea320452d77060f49a6de2c,2020-11-26_15h57.54.329,lexical_decision_task_MP_exp2,2020.2.5,Linux armv8l,60,,0,-0.246666641,-0.3,1,0,0,0.7587,button_left,0.7587,1,,,,,,404,NW,UN,16,flumni,CLUIRM,z,,,,,,-0.246666641,-0.3,1,0,0,,0,86,86,463,1,
,,,,,,,,,,,,,,,,,,5ea320452d77060f49a6de2c,2020-11-26_15h57.54.329,lexical_decision_task_MP_exp2,2020.2.5,Linux armv8l,60,,0,0.330833359,-0.289166718,1,0,0,0.7341,button_right,0.7341,1,,,,,,95,WORD,UN,33,ignore,THREAD,m,,,,,,0.330833359,-0.289166718,1,0,0,,0,87,87,154,1,
,,,,,,,,,,,,,,,,,,5ea320452d77060f49a6de2c,2020-11-26_15h57.54.329,lexical_decision_task_MP_exp2,2020.2.5,Linux armv8l,60,,0,-0.239166641,-0.290833359,1,0,0,0.8456,button_left,0.8456,1,,,,,,281,NW,"ID",16,melaty,MELATY,z,,,,,,-0.239166641,-0.290833359,1,0,0,,0,88,88,340,1,
,,,,,,,,,,,,,,,,,,5ea320452d77060f49a6de2c,2020-11-26_15h57.54.329,lexical_decision_task_MP_exp2,2020.2.5,Linux armv8l,60,,0,-0.245833321,-0.291666718,1,0,0,0.9065,button_left,0.9065,1,,,,,,306,NW,UN,33,kirafe,SOUNGE,z,,,,,,-0.245833321,-0.291666718,1,0,0,,0,89,89,365,1,
,,,,,,,,,,,,,,,,,,5ea320452d77060f49a6de2c,2020-11-26_15h57.54.329,lexical_decision_task_MP_exp2,2020.2.5,Linux armv8l,60,,0,0.371666718,-0.2925,1,0,0,0.6611,button_right,0.6611,1,,,,,,200,WORD,"ID",33,beacon,BEACON,m,,,,,,0.371666718,-0.2925,1,0,0,,0,90,90,19,1,
,,,,,,,,,,,,,,,,,,5ea320452d77060f49a6de2c,2020-11-26_15h57.54.329,lexical_decision_task_MP_exp2,2020.2.5,Linux armv8l,60,,0,0.325,-0.291666718,1,0,0,0.7524,button_right,0.7524,1,,,,,,126,WORD,UN,16,castle,ENOUGH,m,,,,,,0.325,-0.291666718,1,0,0,,0,91,91,185,1,
,,,,,,,,,,,,,,,,,,5ea320452d77060f49a6de2c,2020-11-26_15h57.54.329,lexical_decision_task_MP_exp2,2020.2.5,Linux armv8l,60,,0,-0.260833321,-0.304166718,1,0,0,0.7444,button_left,0.7444,1,,,,,,339,NW,UN,33,fiatch,FACHOW,z,,,,,,-0.260833321,-0.304166718,1,0,0,,0,92,92,398,1,
,,,,,,,,,,,,,,,,,,5ea320452d77060f49a6de2c,2020-11-26_15h57.54.329,lexical_decision_task_MP_exp2,2020.2.5,Linux armv8l,60,,0,0.32,-0.298333359,1,0,0,0.668,button_right,0.668,1,,,,,,167,WORD,UN,16,answer,DESIGN,m,,,,,,0.32,-0.298333359,1,0,0,,0,93,93,226,1,
,,,,,,,,,,,,,,,,,,5ea320452d77060f49a6de2c,2020-11-26_15h57.54.329,lexical_decision_task_MP_exp2,2020.2.5,Linux armv8l,60,,0,0.329166718,-0.299166718,1,0,0,0.6972,button_right,0.6972,1,,,,,,90,WORD,UN,33,expand,RELISH,m,,,,,,0.329166718,-0.299166718,1,0,0,,0,94,94,149,1,
,,,,,,,,,,,,,,,,,,5ea320452d77060f49a6de2c,2020-11-26_15h57.54.329,lexical_decision_task_MP_exp2,2020.2.5,Linux armv8l,60,,0,0.298333359,-0.318333359,1,0,0,0.6272,button_right,0.6272,1,,,,,,178,WORD,UN,16,basket,INFORM,m,,,,,,0.298333359,-0.318333359,1,0,0,,0,95,95,237,1,
,,,,,,,,,,,,,,,,,,5ea320452d77060f49a6de2c,2020-11-26_15h57.54.329,lexical_decision_task_MP_exp2,2020.2.5,Linux armv8l,60,,0,0.305833359,-0.301666718,1,0,0,0.7583,button_right,0.7583,1,,,,,,86,WORD,UN,33,filter,RODENT,m,,,,,,0.305833359,-0.301666718,1,0,0,,0,96,96,145,1,
,,,,,,,,,,,,,,,,,,5ea320452d77060f49a6de2c,2020-11-26_15h57.54.329,lexical_decision_task_MP_exp2,2020.2.5,Linux armv8l,60,,0,-0.25,-0.313333359,1,0,0,0.8711,button_left,0.8711,1,,,,,,479,NW,"ID",33,lobush,LOBUSH,z,,,,,,-0.25,-0.313333359,1,0,0,,0,97,97,298,1,
,,,,,,,,,,,,,,,,,,5ea320452d77060f49a6de2c,2020-11-26_15h57.54.329,lexical_decision_task_MP_exp2,2020.2.5,Linux armv8l,60,,0,0.3075,-0.3,1,0,0,0.6331,button_right,0.6331,1,,,,,,70,WORD,UN,33,garden,SQUARE,m,,,,,,0.3075,-0.3,1,0,0,,0,98,98,129,1,
,,,,,,,,,,,,,,,,,,5ea320452d77060f49a6de2c,2020-11-26_15h57.54.329,lexical_decision_task_MP_exp2,2020.2.5,Linux armv8l,60,,0,0.320833359,-0.288333359,1,0,0,0.7211,button_right,0.7211,1,,,,,,84,WORD,UN,33,strand,MORTAL,m,,,,,,0.320833359,-0.288333359,1,0,0,,0,99,99,143,1,
,,,,,,,,,,,,,,,,,,5ea320452d77060f49a6de2c,2020-11-26_15h57.54.329,lexical_decision_task_MP_exp2,2020.2.5,Linux armv8l,60,,0,0.324166718,-0.298333359,1,0,0,0.7116,button_right,0.7116,1,,,,,,162,WORD,UN,16,string,CANDLE,m,,,,,,0.324166718,-0.298333359,1,0,0,,0,100,100,221,1,
,,,,,,,,,,,,,,,,,,5ea320452d77060f49a6de2c,2020-11-26_15h57.54.329,lexical_decision_task_MP_exp2,2020.2.5,Linux armv8l,60,,0,-0.240833321,-0.285833359,1,0,0,0.7306,button_left,0.7306,1,,,,,,470,NW,"ID",33,crudio,CRUDIO,z,,,,,,-0.240833321,-0.285833359,1,0,0,,0,101,101,289,1,
,,,,,,,,,,,,,,,,,,5ea320452d77060f49a6de2c,2020-11-26_15h57.54.329,lexical_decision_task_MP_exp2,2020.2.5,Linux armv8l,60,,0,0.335833359,-0.296666718,1,0,0,0.7067,button_right,0.7067,1,,,,,,35,WORD,"ID",16,socket,SOCKET,m,,,,,,0.335833359,-0.296666718,1,0,0,,0,102,102,94,1,
,,,,,,,,,,,,,,,,,,5ea320452d77060f49a6de2c,2020-11-26_15h57.54.329,lexical_decision_task_MP_exp2,2020.2.5,Linux armv8l,60,,0,0.3,-0.2925,1,0,0,0.6619,button_right,0.6619,1,,,,,,198,WORD,"ID",33,wicked,WICKED,m,,,,,,0.3,-0.2925,1,0,0,,0,103,103,17,1,
,,,,,,,,,,,,,,,,,,5ea320452d77060f49a6de2c,2020-11-26_15h57.54.329,lexical_decision_task_MP_exp2,2020.2.5,Linux armv8l,60,,0,-0.253333321,-0.296666718,1,0,0,0.6859,button_left,0.6859,1,,,,,,268,NW,"ID",16,packes,PACKES,z,,,,,,-0.253333321,-0.296666718,1,0,0,,0,104,104,327,1,
,,,,,,,,,,,,,,,,,,5ea320452d77060f49a6de2c,2020-11-26_15h57.54.329,lexical_decision_task_MP_exp2,2020.2.5,Linux armv8l,60,,0,-0.263333321,-0.31,1,0,0,0.7019,button_left,0.7019,1,,,,,,331,NW,UN,33,vangue,GILFEW,z,,,,,,-0.263333321,-0.31,1,0,0,,0,105,105,390,1,
,,,,,,,,,,,,,,,,,,5ea320452d77060f49a6de2c,2020-11-26_15h57.54.329,lexical_decision_task_MP_exp2,2020.2.5,Linux armv8l,60,,0,0.294166718,-0.291666718,1,0,0,0.6671,button_right,0.6671,1,,,,,,210,WORD,"ID",33,monkey,MONKEY,m,,,,,,0.294166718,-0.291666718,1,0,0,,0,106,106,29,1,
,,,,,,,,,,,,,,,,,,5ea320452d77060f49a6de2c,2020-11-26_15h57.54.329,lexical_decision_task_MP_exp2,2020.2.5,Linux armv8l,60,,0,-0.234166641,-0.305,1,0,0,0.7434,button_left,0.7434,1,,,,,,370,NW,UN,16,geiloy,SLEACT,z,,,,,,-0.234166641,-0.305,1,0,0,,0,107,107,429,1,
,,,,,,,,,,,,,,,,,,5ea320452d77060f49a6de2c,2020-11-26_15h57.54.329,lexical_decision_task_MP_exp2,2020.2.5,Linux armv8l,60,,0,-0.248333321,-0.311666718,1,0,0,0.7709,button_left,0.7709,1,,,,,,257,NW,"ID",16,veniod,VENIOD,z,,,,,,-0.248333321,-0.311666718,1,0,0,,0,108,108,316,1,
,,,,,,,,,,,,,,,,,,5ea320452d77060f49a6de2c,2020-11-26_15h57.54.329,lexical_decision_task_MP_exp2,2020.2.5,Linux armv8l,60,,0,-0.2125,-0.326666718,1,0,0,0.665,button_left,0.665,1,,,,,,367,NW,UN,16,hornal,SLIQUE,z,,,,,,-0.2125,-0.326666718,1,0,0,,0,109,109,426,1,
,,,,,,,,,,,,,,,,,,5ea320452d77060f49a6de2c,2020-11-26_15h57.54.329,lexical_decision_task_MP_exp2,2020.2.5,Linux armv8l,60,,0,-0.254166641,-0.306666718,1,0,0,0.6731,button_left,0.6731,1,,,,,,252,NW,"ID",16,stapod,STAPOD,z,,,,,,-0.254166641,-0.306666718,1,0,0,,0,110,110,311,1,
,,,,,,,,,,,,,,,,,,5ea320452d77060f49a6de2c,2020-11-26_15h57.54.329,lexical_decision_task_MP_exp2,2020.2.5,Linux armv8l,60,,0,-0.278333321,-0.2925,1,0,0,0.6965,button_left,0.6965,1,,,,,,399,NW,UN,16,wearox,FOURET,z,,,,,,-0.278333321,-0.2925,1,0,0,,0,111,111,458,1,
,,,,,,,,,,,,,,,,,,5ea320452d77060f49a6de2c,2020-11-26_15h57.54.329,lexical_decision_task_MP_exp2,2020.2.5,Linux armv8l,60,,0,0.359166718,-0.276666718,1,0,0,0.7871,button_right,0.7871,1,,,,,,108,WORD,UN,33,wonder,RECKON,m,,,,,,0.359166718,-0.276666718,1,0,0,,0,112,112,167,1,
,,,,,,,,,,,,,,,,,,5ea320452d77060f49a6de2c,2020-11-26_15h57.54.329,lexical_decision_task_MP_exp2,2020.2.5,Linux armv8l,60,,0,0.330833359,-0.2575,1,0,0,0.6857,button_right,0.6857,1,,,,,,204,WORD,"ID",33,burden,BURDEN,m,,,,,,0.330833359,-0.2575,1,0,0,,0,113,113,23,1,
,,,,,,,,,,,,,,,,,,5ea320452d77060f49a6de2c,2020-11-26_15h57.54.329,lexical_decision_task_MP_exp2,2020.2.5,Linux armv8l,60,,0,-0.265,-0.305,1,0,0,0.7661,button_left,0.7661,1,,,,,,361,NW,UN,16,tireau,PAUCHE,z,,,,,,-0.265,-0.305,1,0,0,,0,114,114,420,1,
,,,,,,,,,,,,,,,,,,5ea320452d77060f49a6de2c,2020-11-26_15h57.54.329,lexical_decision_task_MP_exp2,2020.2.5,Linux armv8l,60,,0,0.335,-0.288333359,1,0,0,0.6585,button_right,0.6585,1,,,,,,43,WORD,"ID",16,tongue,TONGUE,m,,,,,,0.335,-0.288333359,1,0,0,,0,115,115,102,1,
,,,,,,,,,,,,,,,,,,5ea320452d77060f49a6de2c,2020-11-26_15h57.54.329,lexical_decision_task_MP_exp2,2020.2.5,Linux armv8l,60,,0,-0.21,-0.305833359,1,0,0,0.903,button_left,0.903,1,,,,,,276,NW,"ID",16,yarmon,YARMON,z,,,,,,-0.21,-0.305833359,1,0,0,,0,116,116,335,1,
,,,,,,,,,,,,,,,,,,5ea320452d77060f49a6de2c,2020-11-26_15h57.54.329,lexical_decision_task_MP_exp2,2020.2.5,Linux armv8l,60,,0,0.280833359,-0.294166718,1,0,0,0.665,button_right,0.665,1,,,,,,174,WORD,UN,16,fabric,TURKEY,m,,,,,,0.280833359,-0.294166718,1,0,0,,0,117,117,233,1,
,,,,,,,,,,,,,,,,,,5ea320452d77060f49a6de2c,2020-11-26_15h57.54.329,lexical_decision_task_MP_exp2,2020.2.5,Linux armv8l,60,,0,-0.245,-0.305,1,0,0,0.7618,button_left,0.7618,1,,,,,,287,NW,"ID",16,nymbel,NYMBEL,z,,,,,,-0.245,-0.305,1,0,0,,0,118,118,346,1,
,,,,,,,,,,,,,,,,,,5ea320452d77060f49a6de2c,2020-11-26_15h57.54.329,lexical_decision_task_MP_exp2,2020.2.5,Linux armv8l,60,,0,0.32,-0.285833359,1,0,0,1.0166,button_right,1.0166,1,,,,,,222,WORD,"ID",33,hinder,HINDER,m,,,,,,0.32,-0.285833359,1,0,0,,0,119,119,41,1,
,,,,,,,,,,,,,,,,,,5ea320452d77060f49a6de2c,2020-11-26_15h57.54.329,lexical_decision_task_MP_exp2,2020.2.5,Linux armv8l,60,,0,0.354166718,-0.260833359,1,0,0,0.9131,button_right,0.9131,1,,,,,,68,WORD,UN,33,plenty,FUMBLE,m,,,,,,0.0375,-0.4025,1,0,0,,0,120,120,127,1,break_done_button
,,,,,,,,,,,,,,,,,,5ea320452d77060f49a6de2c,2020-11-26_15h57.54.329,lexical_decision_task_MP_exp2,2020.2.5,Linux armv8l,60,,0,0.3225,-0.325,1,0,0,0.6962,button_right,0.6962,1,,,,,,59,WORD,"ID",16,splint,SPLINT,m,,,,,,0.3225,-0.325,1,0,0,,0,121,121,118,1,
,,,,,,,,,,,,,,,,,,5ea320452d77060f49a6de2c,2020-11-26_15h57.54.329,lexical_decision_task_MP_exp2,2020.2.5,Linux armv8l,60,,0,0.326666718,-0.3275,1,0,0,0.5974,button_right,0.5974,1,,,,,,173,WORD,UN,16,turkey,SHOWER,m,,,,,,0.326666718,-0.3275,1,0,0,,0,122,122,232,1,
,,,,,,,,,,,,,,,,,,5ea320452d77060f49a6de2c,2020-11-26_15h57.54.329,lexical_decision_task_MP_exp2,2020.2.5,Linux armv8l,60,,0,0.321666718,-0.300833359,1,0,0,1.1914,button_right,1.1914,1,,,,,,36,WORD,"ID",16,vanish,VANISH,m,,,,,,0.321666718,-0.300833359,1,0,0,,0,123,123,95,1,
,,,,,,,,,,,,,,,,,,5ea320452d77060f49a6de2c,2020-11-26_15h57.54.329,lexical_decision_task_MP_exp2,2020.2.5,Linux armv8l,60,,0,0.326666718,-0.295833359,1,0,0,0.8696,button_right,0.8696,1,,,,,,87,WORD,UN,33,sprawl,FILTER,m,,,,,,0.326666718,-0.295833359,1,0,0,,0,124,124,146,1,
,,,,,,,,,,,,,,,,,,5ea320452d77060f49a6de2c,2020-11-26_15h57.54.329,lexical_decision_task_MP_exp2,2020.2.5,Linux armv8l,60,,0,-0.289166641,-0.3075,1,0,0,0.7975,button_left,0.7975,1,,,,,,449,NW,"ID",33,brunge,BRUNGE,z,,,,,,-0.289166641,-0.3075,1,0,0,,0,125,125,268,1,
,,,,,,,,,,,,,,,,,,5ea320452d77060f49a6de2c,2020-11-26_15h57.54.329,lexical_decision_task_MP_exp2,2020.2.5,Linux armv8l,60,,0,0.333333359,-0.285833359,1,0,0,0.7246,button_right,0.7246,1,,,,,,20,WORD,"ID",16,breast,BREAST,m,,,,,,0.333333359,-0.285833359,1,0,0,,0,126,126,79,1,
,,,,,,,,,,,,,,,,,,5ea320452d77060f49a6de2c,2020-11-26_15h57.54.329,lexical_decision_task_MP_exp2,2020.2.5,Linux armv8l,60,,0,0.325,-0.2925,1,0,0,0.792,button_right,0.792,1,,,,,,131,WORD,UN,16,strong,QUENCH,m,,,,,,0.325,-0.2925,1,0,0,,0,127,127,190,1,
,,,,,,,,,,,,,,,,,,5ea320452d77060f49a6de2c,2020-11-26_15h57.54.329,lexical_decision_task_MP_exp2,2020.2.5,Linux armv8l,60,,0,0.338333359,-0.288333359,1,0,0,0.6882,button_right,0.6882,1,,,,,,139,WORD,UN,16,prince,DEBRIS,m,,,,,,0.338333359,-0.288333359,1,0,0,,0,128,128,198,1,
,,,,,,,,,,,,,,,,,,5ea320452d77060f49a6de2c,2020-11-26_15h57.54.329,lexical_decision_task_MP_exp2,2020.2.5,Linux armv8l,60,,0,-0.235833321,-0.279166718,1,0,0,0.8683,button_left,0.8683,1,,,,,,332,NW,UN,33,catrie,VANGUE,z,,,,,,-0.235833321,-0.279166718,1,0,0,,0,129,129,391,1,
,,,,,,,,,,,,,,,,,,5ea320452d77060f49a6de2c,2020-11-26_15h57.54.329,lexical_decision_task_MP_exp2,2020.2.5,Linux armv8l,60,,0,-0.2475,-0.2925,1,0,0,0.6445,button_left,0.6445,1,,,,,,364,NW,UN,16,guairt,IMPOTE,z,,,,,,-0.2475,-0.2925,1,0,0,,0,130,130,423,1,
,,,,,,,,,,,,,,,,,,5ea320452d77060f49a6de2c,2020-11-26_15h57.54.329,lexical_decision_task_MP_exp2,2020.2.5,Linux armv8l,60,,0,-0.249166641,-0.2925,1,0,0,0.6833,button_left,0.6833,1,,,,,,258,NW,"ID",16,poluth,POLUTH,z,,,,,,-0.249166641,-0.2925,1,0,0,,0,131,131,317,1,
,,,,,,,,,,,,,,,,,,5ea320452d77060f49a6de2c,2020-11-26_15h57.54.329,lexical_decision_task_MP_exp2,2020.2.5,Linux armv8l,60,,0,-0.236666641,-0.304166718,1,0,0,0.6844,button_left,0.6844,1,,,,,,346,NW,UN,33,kerift,SAUDIC,z,,,,,,-0.236666641,-0.304166718,1,0,0,,0,132,132,405,1,
,,,,,,,,,,,,,,,,,,5ea320452d77060f49a6de2c,2020-11-26_15h57.54.329,lexical_decision_task_MP_exp2,2020.2.5,Linux armv8l,60,,0,0.405,-0.328333359,1,0,0,0.6474,button_right,0.6474,1,,,,,,213,WORD,"ID",33,squeal,SQUEAL,m,,,,,,0.405,-0.328333359,1,0,0,,0,133,133,32,1,
,,,,,,,,,,,,,,,,,,5ea320452d77060f49a6de2c,2020-11-26_15h57.54.329,lexical_decision_task_MP_exp2,2020.2.5,Linux armv8l,60,,0,0.345,-0.295833359,1,0,0,0.6617,button_right,0.6617,1,,,,,,2,WORD,"ID",16,bridge,BRIDGE,m,,,,,,0.345,-0.295833359,1,0,0,,0,134,134,61,1,
,,,,,,,,,,,,,,,,,,5ea320452d77060f49a6de2c,2020-11-26_15h57.54.329,lexical_decision_task_MP_exp2,2020.2.5,Linux armv8l,60,,0,0.348333359,-0.331666718,1,0,0,0.598,button_right,0.598,1,,,,,,102,WORD,UN,33,bounce,DIRECT,m,,,,,,0.348333359,-0.331666718,1,0,0,,0,135,135,161,1,
,,,,,,,,,,,,,,,,,,5ea320452d77060f49a6de2c,2020-11-26_15h57.54.329,lexical_decision_task_MP_exp2,2020.2.5,Linux armv8l,60,,0,0.408333359,-0.326666718,1,0,0,0.6309,button_right,0.6309,1,,,,,,209,WORD,"ID",33,search,SEARCH,m,,,,,,0.408333359,-0.326666718,1,0,0,,0,136,136,28,1,
,,,,,,,,,,,,,,,,,,5ea320452d77060f49a6de2c,2020-11-26_15h57.54.329,lexical_decision_task_MP_exp2,2020.2.5,Linux armv8l,60,,0,-0.275833321,-0.280833359,1,0,0,0.7144,button_left,0.7144,1,,,,,,272,NW,"ID",16,damilt,DAMILT,z,,,,,,-0.275833321,-0.280833359,1,0,0,,0,137,137,331,1,
,,,,,,,,,,,,,,,,,,5ea320452d77060f49a6de2c,2020-11-26_15h57.54.329,lexical_decision_task_MP_exp2,2020.2.5,Linux armv8l,60,,0,0.3475,-0.3225,1,0,0,0.6864,button_right,0.6864,1,,,,,,233,WORD,"ID",33,nature,NATURE,m,,,,,,0.3475,-0.3225,1,0,0,,0,138,138,52,1,
,,,,,,,,,,,,,,,,,,5ea320452d77060f49a6de2c,2020-11-26_15h57.54.329,lexical_decision_task_MP_exp2,2020.2.5,Linux armv8l,60,,0,0.339166718,-0.323333359,1,0,0,0.6686,button_right,0.6686,1,,,,,,4,WORD,"ID",16,trench,TRENCH,m,,,,,,0.339166718,-0.323333359,1,0,0,,0,139,139,63,1,
,,,,,,,,,,,,,,,,,,5ea320452d77060f49a6de2c,2020-11-26_15h57.54.329,lexical_decision_task_MP_exp2,2020.2.5,Linux armv8l,60,,0,-0.255833321,-0.316666718,1,0,0,0.6154,button_left,0.6154,1,,,,,,417,NW,UN,16,suidle,EAROUD,z,,,,,,-0.255833321,-0.316666718,1,0,0,,0,140,140,476,1,
,,,,,,,,,,,,,,,,,,5ea320452d77060f49a6de2c,2020-11-26_15h57.54.329,lexical_decision_task_MP_exp2,2020.2.5,Linux armv8l,60,,0,-0.284166641,-0.31,1,0,0,0.8102,button_left,0.8102,1,,,,,,439,NW,"ID",33,limpor,LIMPOR,z,,,,,,-0.284166641,-0.31,1,0,0,,0,141,141,258,1,
,,,,,,,,,,,,,,,,,,5ea320452d77060f49a6de2c,2020-11-26_15h57.54.329,lexical_decision_task_MP_exp2,2020.2.5,Linux armv8l,60,,0,-0.275833321,-0.281666718,1,0,0,0.7156,button_left,0.7156,1,,,,,,273,NW,"ID",16,sortel,SORTEL,z,,,,,,-0.275833321,-0.281666718,1,0,0,,0,142,142,332,1,
,,,,,,,,,,,,,,,,,,5ea320452d77060f49a6de2c,2020-11-26_15h57.54.329,lexical_decision_task_MP_exp2,2020.2.5,Linux armv8l,60,,0,-0.269166641,-0.279166718,1,0,0,0.8272,button_left,0.8272,1,,,,,,458,NW,"ID",33,barcet,BARCET,z,,,,,,-0.269166641,-0.279166718,1,0,0,,0,143,143,277,1,
,,,,,,,,,,,,,,,,,,5ea320452d77060f49a6de2c,2020-11-26_15h57.54.329,lexical_decision_task_MP_exp2,2020.2.5,Linux armv8l,60,,0,0.364166718,-0.306666718,1,0,0,0.7001,button_right,0.7001,0,,,,,,345,NW,UN,33,saudic,ABSEND,z,,,,,,0.364166718,-0.306666718,1,0,0,,0,144,144,404,1,
,,,,,,,,,,,,,,,,,,5ea320452d77060f49a6de2c,2020-11-26_15h57.54.329,lexical_decision_task_MP_exp2,2020.2.5,Linux armv8l,60,,0,0.418333359,-0.325,1,0,0,0.9413,button_right,0.9413,1,,,,,,82,WORD,UN,33,result,STIGMA,m,,,,,,0.418333359,-0.325,1,0,0,,0,145,145,141,1,
,,,,,,,,,,,,,,,,,,5ea320452d77060f49a6de2c,2020-11-26_15h57.54.329,lexical_decision_task_MP_exp2,2020.2.5,Linux armv8l,60,,0,-0.3175,-0.269166718,1,0,0,0.8802,button_left,0.8802,1,,,,,,245,NW,"ID",16,anougs,ANOUGS,z,,,,,,-0.3175,-0.269166718,1,0,0,,0,146,146,304,1,
,,,,,,,,,,,,,,,,,,5ea320452d77060f49a6de2c,2020-11-26_15h57.54.329,lexical_decision_task_MP_exp2,2020.2.5,Linux armv8l,60,,0,0.408333359,-0.3675,1,0,0,1.0024,button_right,1.0024,0,,,,,,468,NW,"ID",33,wictor,WICTOR,z,,,,,,0.408333359,-0.3675,1,0,0,,0,147,147,287,1,
,,,,,,,,,,,,,,,,,,5ea320452d77060f49a6de2c,2020-11-26_15h57.54.329,lexical_decision_task_MP_exp2,2020.2.5,Linux armv8l,60,,0,0.424166718,-0.365,1,0,0,1.3321,button_right,1.3321,1,,,,,,98,WORD,UN,33,fluent,BELONG,m,,,,,,0.424166718,-0.365,1,0,0,,0,148,148,157,1,
,,,,,,,,,,,,,,,,,,5ea320452d77060f49a6de2c,2020-11-26_15h57.54.329,lexical_decision_task_MP_exp2,2020.2.5,Linux armv8l,60,,0,0.32,-0.275,1,0,0,0.9419,button_right,0.9419,1,,,,,,186,WORD,"ID",33,portal,PORTAL,m,,,,,,0.32,-0.275,1,0,0,,0,149,149,5,1,
,,,,,,,,,,,,,,,,,,5ea320452d77060f49a6de2c,2020-11-26_15h57.54.329,lexical_decision_task_MP_exp2,2020.2.5,Linux armv8l,60,,0,-0.2925,-0.285,1,0,0,0.8311,button_left,0.8311,1,,,,,,356,NW,UN,33,derain,OTHNIS,z,,,,,,-0.2925,-0.285,1,0,0,,0,150,150,415,1,
,,,,,,,,,,,,,,,,,,5ea320452d77060f49a6de2c,2020-11-26_15h57.54.329,lexical_decision_task_MP_exp2,2020.2.5,Linux armv8l,60,,0,-0.291666641,-0.301666718,1,0,0,0.876,button_left,0.876,1,,,,,,274,NW,"ID",16,fumblo,FUMBLO,z,,,,,,-0.291666641,-0.301666718,1,0,0,,0,151,151,333,1,
,,,,,,,,,,,,,,,,,,5ea320452d77060f49a6de2c,2020-11-26_15h57.54.329,lexical_decision_task_MP_exp2,2020.2.5,Linux armv8l,60,,0,-0.305833321,-0.2975,1,0,0,0.8275,button_left,0.8275,1,,,,,,282,NW,"ID",16,porlex,PORLEX,z,,,,,,-0.305833321,-0.2975,1,0,0,,0,152,152,341,1,
,,,,,,,,,,,,,,,,,,5ea320452d77060f49a6de2c,2020-11-26_15h57.54.329,lexical_decision_task_MP_exp2,2020.2.5,Linux armv8l,60,,0,0.325,-0.32,1,0,0,0.8053,button_right,0.8053,1,,,,,,101,WORD,UN,33,direct,WRENCH,m,,,,,,0.325,-0.32,1,0,0,,0,153,153,160,1,
,,,,,,,,,,,,,,,,,,5ea320452d77060f49a6de2c,2020-11-26_15h57.54.329,lexical_decision_task_MP_exp2,2020.2.5,Linux armv8l,60,,0,0.306666718,-0.28,1,0,0,0.9378,button_right,0.9378,1,,,,,,147,WORD,UN,16,custom,GARLIC,m,,,,,,0.306666718,-0.28,1,0,0,,0,154,154,206,1,
,,,,,,,,,,,,,,,,,,5ea320452d77060f49a6de2c,2020-11-26_15h57.54.329,lexical_decision_task_MP_exp2,2020.2.5,Linux armv8l,60,,0,-0.27,-0.303333359,1,0,0,0.8175,button_left,0.8175,1,,,,,,317,NW,UN,33,reagly,WORBAL,z,,,,,,-0.27,-0.303333359,1,0,0,,0,155,155,376,1,
,,,,,,,,,,,,,,,,,,5ea320452d77060f49a6de2c,2020-11-26_15h57.54.329,lexical_decision_task_MP_exp2,2020.2.5,Linux armv8l,60,,0,-0.2475,-0.295,1,0,0,1.0033,button_left,1.0033,1,,,,,,322,NW,UN,33,rosail,SLANCH,z,,,,,,-0.2475,-0.295,1,0,0,,0,156,156,381,1,
,,,,,,,,,,,,,,,,,,5ea320452d77060f49a6de2c,2020-11-26_15h57.54.329,lexical_decision_task_MP_exp2,2020.2.5,Linux armv8l,60,,0,-0.269166641,-0.305833359,1,0,0,0.7391,button_left,0.7391,1,,,,,,441,NW,"ID",33,rastoe,RASTOE,z,,,,,,-0.269166641,-0.305833359,1,0,0,,0,157,157,260,1,
,,,,,,,,,,,,,,,,,,5ea320452d77060f49a6de2c,2020-11-26_15h57.54.329,lexical_decision_task_MP_exp2,2020.2.5,Linux armv8l,60,,0,0.3275,-0.285833359,1,0,0,0.7196,button_right,0.7196,1,,,,,,205,WORD,"ID",33,lounge,LOUNGE,m,,,,,,0.3275,-0.285833359,1,0,0,,0,158,158,24,1,
,,,,,,,,,,,,,,,,,,5ea320452d77060f49a6de2c,2020-11-26_15h57.54.329,lexical_decision_task_MP_exp2,2020.2.5,Linux armv8l,60,,0,0.319166718,-0.295833359,1,0,0,0.7651,button_right,0.7651,1,,,,,,88,WORD,UN,33,permit,HUNGER,m,,,,,,0.319166718,-0.295833359,1,0,0,,0,159,159,147,1,
,,,,,,,,,,,,,,,,,,5ea320452d77060f49a6de2c,2020-11-26_15h57.54.329,lexical_decision_task_MP_exp2,2020.2.5,Linux armv8l,60,,0,0.3475,-0.295,1,0,0,0.6422,button_right,0.6422,1,,,,,,168,WORD,UN,16,genius,ANSWER,m,,,,,,0.3475,-0.295,1,0,0,,0,160,160,227,1,
,,,,,,,,,,,,,,,,,,5ea320452d77060f49a6de2c,2020-11-26_15h57.54.329,lexical_decision_task_MP_exp2,2020.2.5,Linux armv8l,60,,0,0.3475,-0.300833359,1,0,0,0.6978,button_right,0.6978,1,,,,,,71,WORD,UN,33,bright,GARDEN,m,,,,,,0.3475,-0.300833359,1,0,0,,0,161,161,130,1,
,,,,,,,,,,,,,,,,,,5ea320452d77060f49a6de2c,2020-11-26_15h57.54.329,lexical_decision_task_MP_exp2,2020.2.5,Linux armv8l,60,,0,0.329166718,-0.3075,1,0,0,0.6815,button_right,0.6815,1,,,,,,228,WORD,"ID",33,master,MASTER,m,,,,,,0.329166718,-0.3075,1,0,0,,0,162,162,47,1,
,,,,,,,,,,,,,,,,,,5ea320452d77060f49a6de2c,2020-11-26_15h57.54.329,lexical_decision_task_MP_exp2,2020.2.5,Linux armv8l,60,,0,0.360833359,-0.291666718,1,0,0,0.7073,button_right,0.7073,1,,,,,,92,WORD,UN,33,public,STRAND,m,,,,,,0.360833359,-0.291666718,1,0,0,,0,163,163,151,1,
,,,,,,,,,,,,,,,,,,5ea320452d77060f49a6de2c,2020-11-26_15h57.54.329,lexical_decision_task_MP_exp2,2020.2.5,Linux armv8l,60,,0,-0.226666641,-0.276666718,1,0,0,0.6957,button_left,0.6957,1,,,,,,375,NW,UN,16,iguare,YORQUE,z,,,,,,-0.226666641,-0.276666718,1,0,0,,0,164,164,434,1,
,,,,,,,,,,,,,,,,,,5ea320452d77060f49a6de2c,2020-11-26_15h57.54.329,lexical_decision_task_MP_exp2,2020.2.5,Linux armv8l,60,,0,0.258333359,-0.251666718,1,0,0,0.6996,button_right,0.6996,1,,,,,,83,WORD,UN,33,mortal,RESULT,m,,,,,,0.258333359,-0.251666718,1,0,0,,0,165,165,142,1,
,,,,,,,,,,,,,,,,,,5ea320452d77060f49a6de2c,2020-11-26_15h57.54.329,lexical_decision_task_MP_exp2,2020.2.5,Linux armv8l,60,,0,-0.235833321,-0.3,1,0,0,0.7513,button_left,0.7513,1,,,,,,280,NW,"ID",16,curbol,CURBOL,z,,,,,,-0.235833321,-0.3,1,0,0,,0,166,166,339,1,
,,,,,,,,,,,,,,,,,,5ea320452d77060f49a6de2c,2020-11-26_15h57.54.329,lexical_decision_task_MP_exp2,2020.2.5,Linux armv8l,60,,0,-0.239166641,-0.293333359,1,0,0,0.6736,button_left,0.6736,1,,,,,,347,NW,UN,33,dumple,KERIFT,z,,,,,,-0.239166641,-0.293333359,1,0,0,,0,167,167,406,1,
,,,,,,,,,,,,,,,,,,5ea320452d77060f49a6de2c,2020-11-26_15h57.54.329,lexical_decision_task_MP_exp2,2020.2.5,Linux armv8l,60,,0,-0.231666641,-0.304166718,1,0,0,0.6805,button_left,0.6805,1,,,,,,480,NW,"ID",33,robuly,ROBULY,z,,,,,,-0.231666641,-0.304166718,1,0,0,,0,168,168,299,1,
,,,,,,,,,,,,,,,,,,5ea320452d77060f49a6de2c,2020-11-26_15h57.54.329,lexical_decision_task_MP_exp2,2020.2.5,Linux armv8l,60,,0,-0.2425,-0.298333359,1,0,0,0.7065,button_left,0.7065,1,,,,,,386,NW,UN,16,gronce,ANCUST,z,,,,,,-0.2425,-0.298333359,1,0,0,,0,169,169,445,1,
,,,,,,,,,,,,,,,,,,5ea320452d77060f49a6de2c,2020-11-26_15h57.54.329,lexical_decision_task_MP_exp2,2020.2.5,Linux armv8l,60,,0,-0.265,-0.298333359,1,0,0,0.6782,button_left,0.6782,1,,,,,,463,NW,"ID",33,kispel,KISPEL,z,,,,,,-0.265,-0.298333359,1,0,0,,0,170,170,282,1,
,,,,,,,,,,,,,,,,,,5ea320452d77060f49a6de2c,2020-11-26_15h57.54.329,lexical_decision_task_MP_exp2,2020.2.5,Linux armv8l,60,,0,0.3225,-0.281666718,1,0,0,0.6649,button_right,0.6649,1,,,,,,164,WORD,UN,16,invest,MARKET,m,,,,,,0.3225,-0.281666718,1,0,0,,0,171,171,223,1,
,,,,,,,,,,,,,,,,,,5ea320452d77060f49a6de2c,2020-11-26_15h57.54.329,lexical_decision_task_MP_exp2,2020.2.5,Linux armv8l,60,,0,-0.229166641,-0.283333359,1,0,0,0.7929,button_left,0.7929,1,,,,,,334,NW,UN,33,desion,WATMEG,z,,,,,,-0.229166641,-0.283333359,1,0,0,,0,172,172,393,1,
,,,,,,,,,,,,,,,,,,5ea320452d77060f49a6de2c,2020-11-26_15h57.54.329,lexical_decision_task_MP_exp2,2020.2.5,Linux armv8l,60,,0,-0.269166641,-0.296666718,1,0,0,0.7413,button_left,0.7413,1,,,,,,384,NW,UN,16,injore,GUESCO,z,,,,,,-0.269166641,-0.296666718,1,0,0,,0,173,173,443,1,
,,,,,,,,,,,,,,,,,,5ea320452d77060f49a6de2c,2020-11-26_15h57.54.329,lexical_decision_task_MP_exp2,2020.2.5,Linux armv8l,60,,0,0.251666718,-0.259166718,1,0,0,0.8019,button_right,0.8019,1,,,,,,124,WORD,UN,16,nickel,BLOUSE,m,,,,,,0.251666718,-0.259166718,1,0,0,,0,174,174,183,1,
,,,,,,,,,,,,,,,,,,5ea320452d77060f49a6de2c,2020-11-26_15h57.54.329,lexical_decision_task_MP_exp2,2020.2.5,Linux armv8l,60,,0,-0.218333321,-0.29,1,0,0,0.8255,button_left,0.8255,1,,,,,,408,NW,UN,16,elopia,HURNIA,z,,,,,,-0.218333321,-0.29,1,0,0,,0,175,175,467,1,
,,,,,,,,,,,,,,,,,,5ea320452d77060f49a6de2c,2020-11-26_15h57.54.329,lexical_decision_task_MP_exp2,2020.2.5,Linux armv8l,60,,0,0.321666718,-0.256666718,1,0,0,0.7272,button_right,0.7272,1,,,,,,74,WORD,UN,33,trophy,PLAQUE,m,,,,,,0.321666718,-0.256666718,1,0,0,,0,176,176,133,1,
,,,,,,,,,,,,,,,,,,5ea320452d77060f49a6de2c,2020-11-26_15h57.54.329,lexical_decision_task_MP_exp2,2020.2.5,Linux armv8l,60,,0,-0.2375,-0.285,1,0,0,0.7261,button_left,0.7261,1,,,,,,423,NW,"ID",33,streld,STRELD,z,,,,,,-0.2375,-0.285,1,0,0,,0,177,177,242,1,
,,,,,,,,,,,,,,,,,,5ea320452d77060f49a6de2c,2020-11-26_15h57.54.329,lexical_decision_task_MP_exp2,2020.2.5,Linux armv8l,60,,0,-0.295833321,-0.3025,1,0,0,0.7223,button_left,0.7223,1,,,,,,283,NW,"ID",16,veralf,VERALF,z,,,,,,-0.295833321,-0.3025,1,0,0,,0,178,178,342,1,
,,,,,,,,,,,,,,,,,,5ea320452d77060f49a6de2c,2020-11-26_15h57.54.329,lexical_decision_task_MP_exp2,2020.2.5,Linux armv8l,60,,0,0.335833359,-0.2875,1,0,0,0.7287,button_right,0.7287,1,,,,,,206,WORD,"ID",33,tailor,TAILOR,m,,,,,,0.335833359,-0.2875,1,0,0,,0,179,179,25,1,
,,,,,,,,,,,,,,,,,,5ea320452d77060f49a6de2c,2020-11-26_15h57.54.329,lexical_decision_task_MP_exp2,2020.2.5,Linux armv8l,60,,0,-0.268333321,-0.293333359,1,0,0,0.7408,button_left,0.7408,1,,,,,,369,NW,UN,16,sleact,WRONCH,z,,,,,,-0.268333321,-0.293333359,1,0,0,,0,180,180,428,1,
,,,,,,,,,,,,,,,,,,5ea320452d77060f49a6de2c,2020-11-26_15h57.54.329,lexical_decision_task_MP_exp2,2020.2.5,Linux armv8l,60,,0,0.338333359,-0.2925,1,0,0,0.7345,button_right,0.7345,1,,,,,,217,WORD,"ID",33,liquor,LIQUOR,m,,,,,,0.338333359,-0.2925,1,0,0,,0,181,181,36,1,
,,,,,,,,,,,,,,,,,,5ea320452d77060f49a6de2c,2020-11-26_15h57.54.329,lexical_decision_task_MP_exp2,2020.2.5,Linux armv8l,60,,0,0.3525,-0.285833359,1,0,0,0.7422,button_right,0.7422,1,,,,,,31,WORD,"ID",16,weapon,WEAPON,m,,,,,,0.3525,-0.285833359,1,0,0,,0,182,182,90,1,
,,,,,,,,,,,,,,,,,,5ea320452d77060f49a6de2c,2020-11-26_15h57.54.329,lexical_decision_task_MP_exp2,2020.2.5,Linux armv8l,60,,0,-0.2475,-0.3,1,0,0,0.7484,button_left,0.7484,1,,,,,,271,NW,"ID",16,aubrid,AUBRID,z,,,,,,-0.2475,-0.3,1,0,0,,0,183,183,330,1,
,,,,,,,,,,,,,,,,,,5ea320452d77060f49a6de2c,2020-11-26_15h57.54.329,lexical_decision_task_MP_exp2,2020.2.5,Linux armv8l,60,,0,0.315,-0.29,1,0,0,0.6985,button_right,0.6985,1,,,,,,50,WORD,"ID",16,snatch,SNATCH,m,,,,,,0.315,-0.29,1,0,0,,0,184,184,109,1,
,,,,,,,,,,,,,,,,,,5ea320452d77060f49a6de2c,2020-11-26_15h57.54.329,lexical_decision_task_MP_exp2,2020.2.5,Linux armv8l,60,,0,-0.250833321,-0.305833359,1,0,0,0.767,button_left,0.767,1,,,,,,398,NW,UN,16,fouret,BLUNDE,z,,,,,,-0.250833321,-0.305833359,1,0,0,,0,185,185,457,1,
,,,,,,,,,,,,,,,,,,5ea320452d77060f49a6de2c,2020-11-26_15h57.54.329,lexical_decision_task_MP_exp2,2020.2.5,Linux armv8l,60,,0,-0.293333321,-0.305,1,0,0,0.7742,button_left,0.7742,1,,,,,,355,NW,UN,33,othnis,ZINGLY,z,,,,,,-0.293333321,-0.305,1,0,0,,0,186,186,414,1,
,,,,,,,,,,,,,,,,,,5ea320452d77060f49a6de2c,2020-11-26_15h57.54.329,lexical_decision_task_MP_exp2,2020.2.5,Linux armv8l,60,,0,-0.2725,-0.311666718,1,0,0,0.693,button_left,0.693,1,,,,,,341,NW,UN,33,randow,MYRTIE,z,,,,,,-0.2725,-0.311666718,1,0,0,,0,187,187,400,1,
,,,,,,,,,,,,,,,,,,5ea320452d77060f49a6de2c,2020-11-26_15h57.54.329,lexical_decision_task_MP_exp2,2020.2.5,Linux armv8l,60,,0,-0.276666641,-0.295,1,0,0,0.794,button_left,0.794,1,,,,,,407,NW,UN,16,hurnia,SUIVER,z,,,,,,-0.276666641,-0.295,1,0,0,,0,188,188,466,1,
,,,,,,,,,,,,,,,,,,5ea320452d77060f49a6de2c,2020-11-26_15h57.54.329,lexical_decision_task_MP_exp2,2020.2.5,Linux armv8l,60,,0,-0.245833321,-0.298333359,1,0,0,0.8197,button_left,0.8197,1,,,,,,373,NW,UN,16,sliant,BIGENT,z,,,,,,-0.245833321,-0.298333359,1,0,0,,0,189,189,432,1,
,,,,,,,,,,,,,,,,,,5ea320452d77060f49a6de2c,2020-11-26_15h57.54.329,lexical_decision_task_MP_exp2,2020.2.5,Linux armv8l,60,,0,0.345833359,-0.290833359,1,0,0,0.6738,button_right,0.6738,1,,,,,,56,WORD,"ID",16,ambush,AMBUSH,m,,,,,,0.345833359,-0.290833359,1,0,0,,0,190,190,115,1,
,,,,,,,,,,,,,,,,,,5ea320452d77060f49a6de2c,2020-11-26_15h57.54.329,lexical_decision_task_MP_exp2,2020.2.5,Linux armv8l,60,,0,-0.223333321,-0.291666718,1,0,0,0.7771,button_left,0.7771,1,,,,,,297,NW,"ID",16,fertic,FERTIC,z,,,,,,-0.223333321,-0.291666718,1,0,0,,0,191,191,356,1,
,,,,,,,,,,,,,,,,,,5ea320452d77060f49a6de2c,2020-11-26_15h57.54.329,lexical_decision_task_MP_exp2,2020.2.5,Linux armv8l,60,,0,0.295833359,-0.3,1,0,0,0.7621,button_right,0.7621,1,,,,,,123,WORD,UN,16,blouse,STRIKE,m,,,,,,0.295833359,-0.3,1,0,0,,0,192,192,182,1,
,,,,,,,,,,,,,,,,,,5ea320452d77060f49a6de2c,2020-11-26_15h57.54.329,lexical_decision_task_MP_exp2,2020.2.5,Linux armv8l,60,,0,0.310833359,-0.273333359,1,0,0,0.9339,button_right,0.9339,1,,,,,,208,WORD,"ID",33,hockey,HOCKEY,m,,,,,,0.310833359,-0.273333359,1,0,0,,0,193,193,27,1,
,,,,,,,,,,,,,,,,,,5ea320452d77060f49a6de2c,2020-11-26_15h57.54.329,lexical_decision_task_MP_exp2,2020.2.5,Linux armv8l,60,,0,-0.233333321,-0.308333359,1,0,0,0.7044,button_left,0.7044,1,,,,,,411,NW,UN,16,jiluer,ORCHIN,z,,,,,,-0.233333321,-0.308333359,1,0,0,,0,194,194,470,1,
,,,,,,,,,,,,,,,,,,5ea320452d77060f49a6de2c,2020-11-26_15h57.54.329,lexical_decision_task_MP_exp2,2020.2.5,Linux armv8l,60,,0,-0.223333321,-0.32,1,0,0,0.7887,button_left,0.7887,1,,,,,,262,NW,"ID",16,quilew,QUILEW,z,,,,,,-0.223333321,-0.32,1,0,0,,0,195,195,321,1,
,,,,,,,,,,,,,,,,,,5ea320452d77060f49a6de2c,2020-11-26_15h57.54.329,lexical_decision_task_MP_exp2,2020.2.5,Linux armv8l,60,,0,-0.216666641,-0.311666718,1,0,0,1.1155,button_left,1.1155,1,,,,,,294,NW,"ID",16,inhort,INHORT,z,,,,,,-0.216666641,-0.311666718,1,0,0,,0,196,196,353,1,
,,,,,,,,,,,,,,,,,,5ea320452d77060f49a6de2c,2020-11-26_15h57.54.329,lexical_decision_task_MP_exp2,2020.2.5,Linux armv8l,60,,0,-0.286666641,-0.3075,1,0,0,0.8436,button_left,0.8436,1,,,,,,444,NW,"ID",33,jaunce,JAUNCE,z,,,,,,-0.286666641,-0.3075,1,0,0,,0,197,197,263,1,
,,,,,,,,,,,,,,,,,,5ea320452d77060f49a6de2c,2020-11-26_15h57.54.329,lexical_decision_task_MP_exp2,2020.2.5,Linux armv8l,60,,0,-0.2425,-0.295833359,1,0,0,0.7533,button_left,0.7533,1,,,,,,285,NW,"ID",16,prudge,PRUDGE,z,,,,,,-0.2425,-0.295833359,1,0,0,,0,198,198,344,1,
,,,,,,,,,,,,,,,,,,5ea320452d77060f49a6de2c,2020-11-26_15h57.54.329,lexical_decision_task_MP_exp2,2020.2.5,Linux armv8l,60,,0,-0.241666641,-0.310833359,1,0,0,0.8946,button_left,0.8946,1,,,,,,244,NW,"ID",16,eatric,EATRIC,z,,,,,,-0.241666641,-0.310833359,1,0,0,,0,199,199,303,1,
,,,,,,,,,,,,,,,,,,5ea320452d77060f49a6de2c,2020-11-26_15h57.54.329,lexical_decision_task_MP_exp2,2020.2.5,Linux armv8l,60,,0,0.293333359,-0.290833359,1,0,0,0.7333,button_right,0.7333,1,,,,,,122,WORD,UN,16,strike,LINGER,m,,,,,,0.293333359,-0.290833359,1,0,0,,0,200,200,181,1,
,,,,,,,,,,,,,,,,,,5ea320452d77060f49a6de2c,2020-11-26_15h57.54.329,lexical_decision_task_MP_exp2,2020.2.5,Linux armv8l,60,,0,0.29,-0.2875,1,0,0,0.7479,button_right,0.7479,1,,,,,,235,WORD,"ID",33,grumpy,GRUMPY,m,,,,,,0.29,-0.2875,1,0,0,,0,201,201,54,1,
,,,,,,,,,,,,,,,,,,5ea320452d77060f49a6de2c,2020-11-26_15h57.54.329,lexical_decision_task_MP_exp2,2020.2.5,Linux armv8l,60,,0,-0.215833321,-0.28,1,0,0,0.7785,button_left,0.7785,1,,,,,,255,NW,"ID",16,apight,APIGHT,z,,,,,,-0.215833321,-0.28,1,0,0,,0,202,202,314,1,
,,,,,,,,,,,,,,,,,,5ea320452d77060f49a6de2c,2020-11-26_15h57.54.329,lexical_decision_task_MP_exp2,2020.2.5,Linux armv8l,60,,0,-0.2525,-0.311666718,1,0,0,0.7433,button_left,0.7433,1,,,,,,455,NW,"ID",33,tondle,TONDLE,z,,,,,,-0.2525,-0.311666718,1,0,0,,0,203,203,274,1,
,,,,,,,,,,,,,,,,,,5ea320452d77060f49a6de2c,2020-11-26_15h57.54.329,lexical_decision_task_MP_exp2,2020.2.5,Linux armv8l,60,,0,-0.251666641,-0.299166718,1,0,0,0.7802,button_left,0.7802,1,,,,,,311,NW,UN,33,nerawl,SPROLY,z,,,,,,-0.251666641,-0.299166718,1,0,0,,0,204,204,370,1,
,,,,,,,,,,,,,,,,,,5ea320452d77060f49a6de2c,2020-11-26_15h57.54.329,lexical_decision_task_MP_exp2,2020.2.5,Linux armv8l,60,,0,0.275,-0.288333359,1,0,0,0.8222,button_right,0.8222,1,,,,,,34,WORD,"ID",16,jungle,JUNGLE,m,,,,,,0.275,-0.288333359,1,0,0,,0,205,205,93,1,
,,,,,,,,,,,,,,,,,,5ea320452d77060f49a6de2c,2020-11-26_15h57.54.329,lexical_decision_task_MP_exp2,2020.2.5,Linux armv8l,60,,0,-0.25,-0.294166718,1,0,0,0.6865,button_left,0.6865,1,,,,,,448,NW,"ID",33,sadent,SADENT,z,,,,,,-0.25,-0.294166718,1,0,0,,0,206,206,267,1,
,,,,,,,,,,,,,,,,,,5ea320452d77060f49a6de2c,2020-11-26_15h57.54.329,lexical_decision_task_MP_exp2,2020.2.5,Linux armv8l,60,,0,-0.263333321,-0.308333359,1,0,0,0.7206,button_left,0.7206,1,,,,,,391,NW,UN,16,rouncy,THELDY,z,,,,,,-0.263333321,-0.308333359,1,0,0,,0,207,207,450,1,
,,,,,,,,,,,,,,,,,,5ea320452d77060f49a6de2c,2020-11-26_15h57.54.329,lexical_decision_task_MP_exp2,2020.2.5,Linux armv8l,60,,0,-0.266666641,-0.3075,1,0,0,0.7254,button_left,0.7254,1,,,,,,464,NW,"ID",33,chaite,CHAITE,z,,,,,,-0.266666641,-0.3075,1,0,0,,0,208,208,283,1,
,,,,,,,,,,,,,,,,,,5ea320452d77060f49a6de2c,2020-11-26_15h57.54.329,lexical_decision_task_MP_exp2,2020.2.5,Linux armv8l,60,,0,0.284166718,-0.2775,1,0,0,0.7325,button_right,0.7325,1,,,,,,39,WORD,"ID",16,insect,INSECT,m,,,,,,0.284166718,-0.2775,1,0,0,,0,209,209,98,1,
,,,,,,,,,,,,,,,,,,5ea320452d77060f49a6de2c,2020-11-26_15h57.54.329,lexical_decision_task_MP_exp2,2020.2.5,Linux armv8l,60,,0,-0.248333321,-0.294166718,1,0,0,0.6768,button_left,0.6768,1,,,,,,251,NW,"ID",16,lupict,LUPICT,z,,,,,,-0.248333321,-0.294166718,1,0,0,,0,210,210,310,1,
,,,,,,,,,,,,,,,,,,5ea320452d77060f49a6de2c,2020-11-26_15h57.54.329,lexical_decision_task_MP_exp2,2020.2.5,Linux armv8l,60,,0,-0.236666641,-0.3075,1,0,0,0.7174,button_left,0.7174,1,,,,,,269,NW,"ID",16,orchet,ORCHET,z,,,,,,-0.236666641,-0.3075,1,0,0,,0,211,211,328,1,
,,,,,,,,,,,,,,,,,,5ea320452d77060f49a6de2c,2020-11-26_15h57.54.329,lexical_decision_task_MP_exp2,2020.2.5,Linux armv8l,60,,0,-0.233333321,-0.304166718,1,0,0,0.7319,button_left,0.7319,1,,,,,,475,NW,"ID",33,pebric,PEBRIC,z,,,,,,-0.233333321,-0.304166718,1,0,0,,0,212,212,294,1,
,,,,,,,,,,,,,,,,,,5ea320452d77060f49a6de2c,2020-11-26_15h57.54.329,lexical_decision_task_MP_exp2,2020.2.5,Linux armv8l,60,,0,0.279166718,-0.276666718,1,0,0,0.6177,button_right,0.6177,1,,,,,,37,WORD,"ID",16,insult,INSULT,m,,,,,,0.279166718,-0.276666718,1,0,0,,0,213,213,96,1,
,,,,,,,,,,,,,,,,,,5ea320452d77060f49a6de2c,2020-11-26_15h57.54.329,lexical_decision_task_MP_exp2,2020.2.5,Linux armv8l,60,,0,0.314166718,-0.303333359,1,0,0,0.8894,button_right,0.8894,1,,,,,,99,WORD,UN,33,carbon,FLUENT,m,,,,,,0.314166718,-0.303333359,1,0,0,,0,214,214,158,1,
,,,,,,,,,,,,,,,,,,5ea320452d77060f49a6de2c,2020-11-26_15h57.54.329,lexical_decision_task_MP_exp2,2020.2.5,Linux armv8l,60,,0,0.311666718,-0.2925,1,0,0,0.6471,button_right,0.6471,1,,,,,,197,WORD,"ID",33,stream,STREAM,m,,,,,,0.311666718,-0.2925,1,0,0,,0,215,215,16,1,
,,,,,,,,,,,,,,,,,,5ea320452d77060f49a6de2c,2020-11-26_15h57.54.329,lexical_decision_task_MP_exp2,2020.2.5,Linux armv8l,60,,0,0.293333359,-0.31,1,0,0,0.7623,button_right,0.7623,1,,,,,,212,WORD,"ID",33,verify,VERIFY,m,,,,,,0.293333359,-0.31,1,0,0,,0,216,216,31,1,
,,,,,,,,,,,,,,,,,,5ea320452d77060f49a6de2c,2020-11-26_15h57.54.329,lexical_decision_task_MP_exp2,2020.2.5,Linux armv8l,60,,0,-0.243333321,-0.3025,1,0,0,0.6907,button_left,0.6907,1,,,,,,427,NW,"ID",33,schind,SCHIND,z,,,,,,-0.243333321,-0.3025,1,0,0,,0,217,217,246,1,
,,,,,,,,,,,,,,,,,,5ea320452d77060f49a6de2c,2020-11-26_15h57.54.329,lexical_decision_task_MP_exp2,2020.2.5,Linux armv8l,60,,0,-0.27,-0.3075,1,0,0,0.7343,button_left,0.7343,1,,,,,,402,NW,UN,16,bruats,SYNTIC,z,,,,,,-0.27,-0.3075,1,0,0,,0,218,218,461,1,
,,,,,,,,,,,,,,,,,,5ea320452d77060f49a6de2c,2020-11-26_15h57.54.329,lexical_decision_task_MP_exp2,2020.2.5,Linux armv8l,60,,0,0.2525,-0.2975,1,0,0,0.803,button_right,0.803,1,,,,,,232,WORD,"ID",33,inject,INJECT,m,,,,,,0.2525,-0.2975,1,0,0,,0,219,219,51,1,
,,,,,,,,,,,,,,,,,,5ea320452d77060f49a6de2c,2020-11-26_15h57.54.329,lexical_decision_task_MP_exp2,2020.2.5,Linux armv8l,60,,0,-0.239166641,-0.298333359,1,0,0,0.7456,button_left,0.7456,1,,,,,,445,NW,"ID",33,minkel,MINKEL,z,,,,,,-0.239166641,-0.298333359,1,0,0,,0,220,220,264,1,
,,,,,,,,,,,,,,,,,,5ea320452d77060f49a6de2c,2020-11-26_15h57.54.329,lexical_decision_task_MP_exp2,2020.2.5,Linux armv8l,60,,0,-0.223333321,-0.309166718,1,0,0,0.7319,button_left,0.7319,1,,,,,,390,NW,UN,16,theldy,HATRUS,z,,,,,,-0.223333321,-0.309166718,1,0,0,,0,221,221,449,1,
,,,,,,,,,,,,,,,,,,5ea320452d77060f49a6de2c,2020-11-26_15h57.54.329,lexical_decision_task_MP_exp2,2020.2.5,Linux armv8l,60,,0,0.304166718,-0.2975,1,0,0,0.7042,button_right,0.7042,1,,,,,,225,WORD,"ID",33,vulgar,VULGAR,m,,,,,,0.304166718,-0.2975,1,0,0,,0,222,222,44,1,
,,,,,,,,,,,,,,,,,,5ea320452d77060f49a6de2c,2020-11-26_15h57.54.329,lexical_decision_task_MP_exp2,2020.2.5,Linux armv8l,60,,0,0.326666718,-0.311666718,1,0,0,0.7406,button_right,0.7406,1,,,,,,67,WORD,UN,33,fumble,POLICY,m,,,,,,0.326666718,-0.311666718,1,0,0,,0,223,223,126,1,
,,,,,,,,,,,,,,,,,,5ea320452d77060f49a6de2c,2020-11-26_15h57.54.329,lexical_decision_task_MP_exp2,2020.2.5,Linux armv8l,60,,0,0.315,-0.301666718,1,0,0,0.7792,button_right,0.7792,1,,,,,,118,WORD,UN,33,spider,FLIGHT,m,,,,,,0.315,-0.301666718,1,0,0,,0,224,224,177,1,
,,,,,,,,,,,,,,,,,,5ea320452d77060f49a6de2c,2020-11-26_15h57.54.329,lexical_decision_task_MP_exp2,2020.2.5,Linux armv8l,60,,0,-0.2375,-0.2925,1,0,0,0.7413,button_left,0.7413,1,,,,,,275,NW,"ID",16,sleirt,SLEIRT,z,,,,,,-0.2375,-0.2925,1,0,0,,0,225,225,334,1,
,,,,,,,,,,,,,,,,,,5ea320452d77060f49a6de2c,2020-11-26_15h57.54.329,lexical_decision_task_MP_exp2,2020.2.5,Linux armv8l,60,,0,-0.234166641,-0.301666718,1,0,0,0.8637,button_left,0.8637,1,,,,,,299,NW,"ID",16,sturch,STURCH,z,,,,,,-0.234166641,-0.301666718,1,0,0,,0,226,226,358,1,
,,,,,,,,,,,,,,,,,,5ea320452d77060f49a6de2c,2020-11-26_15h57.54.329,lexical_decision_task_MP_exp2,2020.2.5,Linux armv8l,60,,0,0.329166718,-0.2825,1,0,0,0.8512,button_right,0.8512,1,,,,,,221,WORD,"ID",33,mascot,MASCOT,m,,,,,,0.329166718,-0.2825,1,0,0,,0,227,227,40,1,
,,,,,,,,,,,,,,,,,,5ea320452d77060f49a6de2c,2020-11-26_15h57.54.329,lexical_decision_task_MP_exp2,2020.2.5,Linux armv8l,60,,0,0.2775,-0.305833359,1,0,0,0.6138,button_right,0.6138,1,,,,,,3,WORD,"ID",16,knight,KNIGHT,m,,,,,,0.2775,-0.305833359,1,0,0,,0,228,228,62,1,
,,,,,,,,,,,,,,,,,,5ea320452d77060f49a6de2c,2020-11-26_15h57.54.329,lexical_decision_task_MP_exp2,2020.2.5,Linux armv8l,60,,0,0.2775,-0.28,1,0,0,0.7086,button_right,0.7086,1,,,,,,66,WORD,UN,33,policy,GOSPEL,m,,,,,,0.2775,-0.28,1,0,0,,0,229,229,125,1,
,,,,,,,,,,,,,,,,,,5ea320452d77060f49a6de2c,2020-11-26_15h57.54.329,lexical_decision_task_MP_exp2,2020.2.5,Linux armv8l,60,,0,-0.1975,-0.295833359,1,0,0,0.772,button_left,0.772,1,,,,,,424,NW,"ID",33,praile,PRAILE,z,,,,,,-0.243333321,-0.320833359,1,0,0,,0,230,230,243,1,
,,,,,,,,,,,,,,,,,,5ea320452d77060f49a6de2c,2020-11-26_15h57.54.329,lexical_decision_task_MP_exp2,2020.2.5,Linux armv8l,60,,0,-0.244166641,-0.319166718,1,0,0,0.7636,button_left,0.7636,1,,,,,,400,NW,UN,16,mustil,WEAROX,z,,,,,,-0.244166641,-0.319166718,1,0,0,,0,231,231,459,1,
,,,,,,,,,,,,,,,,,,5ea320452d77060f49a6de2c,2020-11-26_15h57.54.329,lexical_decision_task_MP_exp2,2020.2.5,Linux armv8l,60,,0,0.313333359,-0.293333359,1,0,0,0.739,button_right,0.739,1,,,,,,17,WORD,"ID",16,charge,CHARGE,m,,,,,,0.313333359,-0.293333359,1,0,0,,0,232,232,76,1,
,,,,,,,,,,,,,,,,,,5ea320452d77060f49a6de2c,2020-11-26_15h57.54.329,lexical_decision_task_MP_exp2,2020.2.5,Linux armv8l,60,,0,-0.2325,-0.288333359,1,0,0,0.6733,button_left,0.6733,0,,,,,,78,WORD,UN,33,theory,COLUMN,m,,,,,,-0.2325,-0.288333359,1,0,0,,0,233,233,137,1,
,,,,,,,,,,,,,,,,,,5ea320452d77060f49a6de2c,2020-11-26_15h57.54.329,lexical_decision_task_MP_exp2,2020.2.5,Linux armv8l,60,,0,0.283333359,-0.280833359,1,0,0,0.9165,button_right,0.9165,1,,,,,,10,WORD,"ID",16,ethnic,ETHNIC,m,,,,,,0.283333359,-0.280833359,1,0,0,,0,234,234,69,1,
,,,,,,,,,,,,,,,,,,5ea320452d77060f49a6de2c,2020-11-26_15h57.54.329,lexical_decision_task_MP_exp2,2020.2.5,Linux armv8l,60,,0,-0.216666641,-0.299166718,1,0,0,0.7041,button_left,0.7041,1,,,,,,446,NW,"ID",33,runamo,RUNAMO,z,,,,,,-0.216666641,-0.299166718,1,0,0,,0,235,235,265,1,
,,,,,,,,,,,,,,,,,,5ea320452d77060f49a6de2c,2020-11-26_15h57.54.329,lexical_decision_task_MP_exp2,2020.2.5,Linux armv8l,60,,0,-0.228333321,-0.305833359,1,0,0,0.7832,button_left,0.7832,1,,,,,,437,NW,"ID",33,snapel,SNAPEL,z,,,,,,-0.228333321,-0.305833359,1,0,0,,0,236,236,256,1,
,,,,,,,,,,,,,,,,,,5ea320452d77060f49a6de2c,2020-11-26_15h57.54.329,lexical_decision_task_MP_exp2,2020.2.5,Linux armv8l,60,,0,-0.244166641,-0.3025,1,0,0,0.7474,button_left,0.7474,1,,,,,,380,NW,UN,16,huniek,CAVORY,z,,,,,,-0.244166641,-0.3025,1,0,0,,0,237,237,439,1,
,,,,,,,,,,,,,,,,,,5ea320452d77060f49a6de2c,2020-11-26_15h57.54.329,lexical_decision_task_MP_exp2,2020.2.5,Linux armv8l,60,,0,0.314166718,-0.295,1,0,0,0.69,button_right,0.69,1,,,,,,93,WORD,UN,33,travel,PUBLIC,m,,,,,,0.314166718,-0.295,1,0,0,,0,238,238,152,1,
,,,,,,,,,,,,,,,,,,5ea320452d77060f49a6de2c,2020-11-26_15h57.54.329,lexical_decision_task_MP_exp2,2020.2.5,Linux armv8l,60,,0,0.3075,-0.291666718,1,0,0,0.7486,button_right,0.7486,1,,,,,,44,WORD,"ID",16,danger,DANGER,m,,,,,,0.3075,-0.291666718,1,0,0,,0,239,239,103,1,
,,,,,,,,,,,,,,,,,,5ea320452d77060f49a6de2c,2020-11-26_15h57.54.329,lexical_decision_task_MP_exp2,2020.2.5,Linux armv8l,60,,0,-0.195,-0.280833359,1,0,0,0.8606,button_left,0.8606,1,,,,,,454,NW,"ID",33,scouge,SCOUGE,z,,,,,,-0.25,-0.3225,1,0,0,,0,240,240,273,1,
,,,,,,,,,,,,,,,,,,5ea320452d77060f49a6de2c,2020-11-26_15h57.54.329,lexical_decision_task_MP_exp2,2020.2.5,Linux armv8l,60,,0,0.3,-0.293333359,1,0,0,0.8628,button_right,0.8628,1,,,,,,64,WORD,UN,33,symbol,THRONE,m,,,,,,0.070833359,-0.406666718,1,0,0,,0,241,241,123,1,break_done_button
,,,,,,,,,,,,,,,,,,5ea320452d77060f49a6de2c,2020-11-26_15h57.54.329,lexical_decision_task_MP_exp2,2020.2.5,Linux armv8l,60,,0,-0.293333321,-0.3275,1,0,0,0.7214,button_left,0.7214,1,,,,,,243,NW,"ID",16,musied,MUSIED,z,,,,,,-0.293333321,-0.3275,1,0,0,,0,242,242,302,1,
,,,,,,,,,,,,,,,,,,5ea320452d77060f49a6de2c,2020-11-26_15h57.54.329,lexical_decision_task_MP_exp2,2020.2.5,Linux armv8l,60,,0,-0.2625,-0.305833359,1,0,0,0.781,button_left,0.781,1,,,,,,340,NW,UN,33,myrtie,FIATCH,z,,,,,,-0.2625,-0.305833359,1,0,0,,0,243,243,399,1,
,,,,,,,,,,,,,,,,,,5ea320452d77060f49a6de2c,2020-11-26_15h57.54.329,lexical_decision_task_MP_exp2,2020.2.5,Linux armv8l,60,,0,-0.289166641,-0.2625,1,0,0,0.7195,button_left,0.7195,1,,,,,,288,NW,"ID",16,yaceup,YACEUP,z,,,,,,-0.289166641,-0.2625,1,0,0,,0,244,244,347,1,
,,,,,,,,,,,,,,,,,,5ea320452d77060f49a6de2c,2020-11-26_15h57.54.329,lexical_decision_task_MP_exp2,2020.2.5,Linux armv8l,60,,0,-0.29,-0.31,1,0,0,0.7565,button_left,0.7565,1,,,,,,316,NW,UN,33,worbal,SCREGM,z,,,,,,-0.29,-0.31,1,0,0,,0,245,245,375,1,
,,,,,,,,,,,,,,,,,,5ea320452d77060f49a6de2c,2020-11-26_15h57.54.329,lexical_decision_task_MP_exp2,2020.2.5,Linux armv8l,60,,0,-0.284166641,-0.291666718,1,0,0,0.662,button_left,0.662,1,,,,,,309,NW,UN,33,daniet,AMILOY,z,,,,,,-0.284166641,-0.291666718,1,0,0,,0,246,246,368,1,
,,,,,,,,,,,,,,,,,,5ea320452d77060f49a6de2c,2020-11-26_15h57.54.329,lexical_decision_task_MP_exp2,2020.2.5,Linux armv8l,60,,0,0.293333359,-0.2875,1,0,0,0.762,button_right,0.762,1,,,,,,106,WORD,UN,33,slogan,RANSOM,m,,,,,,0.293333359,-0.2875,1,0,0,,0,247,247,165,1,
,,,,,,,,,,,,,,,,,,5ea320452d77060f49a6de2c,2020-11-26_15h57.54.329,lexical_decision_task_MP_exp2,2020.2.5,Linux armv8l,60,,0,-0.220833321,-0.289166718,1,0,0,0.7531,button_left,0.7531,1,,,,,,352,NW,UN,33,clurey,TRINGE,z,,,,,,-0.220833321,-0.289166718,1,0,0,,0,248,248,411,1,
,,,,,,,,,,,,,,,,,,5ea320452d77060f49a6de2c,2020-11-26_15h57.54.329,lexical_decision_task_MP_exp2,2020.2.5,Linux armv8l,60,,0,0.313333359,-0.2975,1,0,0,0.7049,button_right,0.7049,1,,,,,,11,WORD,"ID",16,cruise,CRUISE,m,,,,,,0.313333359,-0.2975,1,0,0,,0,249,249,70,1,
,,,,,,,,,,,,,,,,,,5ea320452d77060f49a6de2c,2020-11-26_15h57.54.329,lexical_decision_task_MP_exp2,2020.2.5,Linux armv8l,60,,0,0.295,-0.3175,1,0,0,0.7518,button_right,0.7518,1,,,,,,14,WORD,"ID",16,almost,ALMOST,m,,,,,,0.295,-0.3175,1,0,0,,0,250,250,73,1,
,,,,,,,,,,,,,,,,,,5ea320452d77060f49a6de2c,2020-11-26_15h57.54.329,lexical_decision_task_MP_exp2,2020.2.5,Linux armv8l,60,,0,0.301666718,-0.316666718,1,0,0,0.7098,button_right,0.7098,1,,,,,,149,WORD,UN,16,random,INVADE,m,,,,,,0.301666718,-0.316666718,1,0,0,,0,251,251,208,1,
,,,,,,,,,,,,,,,,,,5ea320452d77060f49a6de2c,2020-11-26_15h57.54.329,lexical_decision_task_MP_exp2,2020.2.5,Linux armv8l,60,,0,-0.233333321,-0.286666718,1,0,0,0.7531,button_left,0.7531,1,,,,,,450,NW,"ID",33,phrect,PHRECT,z,,,,,,-0.233333321,-0.286666718,1,0,0,,0,252,252,269,1,
,,,,,,,,,,,,,,,,,,5ea320452d77060f49a6de2c,2020-11-26_15h57.54.329,lexical_decision_task_MP_exp2,2020.2.5,Linux armv8l,60,,0,0.3075,-0.298333359,1,0,0,0.826,button_right,0.826,1,,,,,,192,WORD,"ID",33,plague,PLAGUE,m,,,,,,0.3075,-0.298333359,1,0,0,,0,253,253,11,1,
,,,,,,,,,,,,,,,,,,5ea320452d77060f49a6de2c,2020-11-26_15h57.54.329,lexical_decision_task_MP_exp2,2020.2.5,Linux armv8l,60,,0,0.338333359,-0.318333359,1,0,0,0.7525,button_right,0.7525,1,,,,,,28,WORD,"ID",16,comedy,COMEDY,m,,,,,,0.338333359,-0.318333359,1,0,0,,0,254,254,87,1,
,,,,,,,,,,,,,,,,,,5ea320452d77060f49a6de2c,2020-11-26_15h57.54.329,lexical_decision_task_MP_exp2,2020.2.5,Linux armv8l,60,,0,0.363333359,-0.318333359,1,0,0,0.9589,button_right,0.9589,1,,,,,,40,WORD,"ID",16,convey,CONVEY,m,,,,,,0.363333359,-0.318333359,1,0,0,,0,255,255,99,1,
,,,,,,,,,,,,,,,,,,5ea320452d77060f49a6de2c,2020-11-26_15h57.54.329,lexical_decision_task_MP_exp2,2020.2.5,Linux armv8l,60,,0,0.344166718,-0.320833359,1,0,0,0.6195,button_right,0.6195,1,,,,,,179,WORD,UN,16,silent,BASKET,m,,,,,,0.344166718,-0.320833359,1,0,0,,0,256,256,238,1,
,,,,,,,,,,,,,,,,,,5ea320452d77060f49a6de2c,2020-11-26_15h57.54.329,lexical_decision_task_MP_exp2,2020.2.5,Linux armv8l,60,,0,-0.234166641,-0.295833359,1,0,0,0.6595,button_left,0.6595,1,,,,,,343,NW,UN,33,scrily,AIMOSY,z,,,,,,-0.234166641,-0.295833359,1,0,0,,0,257,257,402,1,
,,,,,,,,,,,,,,,,,,5ea320452d77060f49a6de2c,2020-11-26_15h57.54.329,lexical_decision_task_MP_exp2,2020.2.5,Linux armv8l,60,,0,-0.230833321,-0.305833359,1,0,0,0.7088,button_left,0.7088,1,,,,,,242,NW,"ID",16,unwert,UNWERT,z,,,,,,-0.230833321,-0.305833359,1,0,0,,0,258,258,301,1,
,,,,,,,,,,,,,,,,,,5ea320452d77060f49a6de2c,2020-11-26_15h57.54.329,lexical_decision_task_MP_exp2,2020.2.5,Linux armv8l,60,,0,-0.264166641,-0.306666718,1,0,0,0.6541,button_left,0.6541,1,,,,,,457,NW,"ID",33,wanigh,WANIGH,z,,,,,,-0.264166641,-0.306666718,1,0,0,,0,259,259,276,1,
,,,,,,,,,,,,,,,,,,5ea320452d77060f49a6de2c,2020-11-26_15h57.54.329,lexical_decision_task_MP_exp2,2020.2.5,Linux armv8l,60,,0,0.309166718,-0.304166718,1,0,0,0.6988,button_right,0.6988,1,,,,,,52,WORD,"ID",16,impose,IMPOSE,m,,,,,,0.309166718,-0.304166718,1,0,0,,0,260,260,111,1,
,,,,,,,,,,,,,,,,,,5ea320452d77060f49a6de2c,2020-11-26_15h57.54.329,lexical_decision_task_MP_exp2,2020.2.5,Linux armv8l,60,,0,0.285,-0.3225,1,0,0,0.7376,button_right,0.7376,1,,,,,,196,WORD,"ID",33,credit,CREDIT,m,,,,,,0.285,-0.3225,1,0,0,,0,261,261,15,1,
,,,,,,,,,,,,,,,,,,5ea320452d77060f49a6de2c,2020-11-26_15h57.54.329,lexical_decision_task_MP_exp2,2020.2.5,Linux armv8l,60,,0,-0.275833321,-0.309166718,1,0,0,0.7304,button_left,0.7304,1,,,,,,465,NW,"ID",33,whivex,WHIVEX,z,,,,,,-0.275833321,-0.309166718,1,0,0,,0,262,262,284,1,
,,,,,,,,,,,,,,,,,,5ea320452d77060f49a6de2c,2020-11-26_15h57.54.329,lexical_decision_task_MP_exp2,2020.2.5,Linux armv8l,60,,0,0.335,-0.296666718,1,0,0,0.8967,button_right,0.8967,1,,,,,,75,WORD,UN,33,exotic,TROPHY,m,,,,,,0.335,-0.296666718,1,0,0,,0,263,263,134,1,
,,,,,,,,,,,,,,,,,,5ea320452d77060f49a6de2c,2020-11-26_15h57.54.329,lexical_decision_task_MP_exp2,2020.2.5,Linux armv8l,60,,0,0.321666718,-0.305,1,0,0,0.6689,button_right,0.6689,1,,,,,,73,WORD,UN,33,plaque,SOURCE,m,,,,,,0.321666718,-0.305,1,0,0,,0,264,264,132,1,
,,,,,,,,,,,,,,,,,,5ea320452d77060f49a6de2c,2020-11-26_15h57.54.329,lexical_decision_task_MP_exp2,2020.2.5,Linux armv8l,60,,0,0.350833359,-0.3225,1,0,0,0.6558,button_right,0.6558,1,,,,,,172,WORD,UN,16,shower,PATROL,m,,,,,,0.350833359,-0.3225,1,0,0,,0,265,265,231,1,
,,,,,,,,,,,,,,,,,,5ea320452d77060f49a6de2c,2020-11-26_15h57.54.329,lexical_decision_task_MP_exp2,2020.2.5,Linux armv8l,60,,0,-0.248333321,-0.290833359,1,0,0,0.7159,button_left,0.7159,1,,,,,,336,NW,UN,33,rejols,GHODUS,z,,,,,,-0.248333321,-0.290833359,1,0,0,,0,266,266,395,1,
,,,,,,,,,,,,,,,,,,5ea320452d77060f49a6de2c,2020-11-26_15h57.54.329,lexical_decision_task_MP_exp2,2020.2.5,Linux armv8l,60,,0,0.375833359,-0.295,1,0,0,0.9138,button_right,0.9138,1,,,,,,111,WORD,UN,33,breath,INDUCE,m,,,,,,0.375833359,-0.295,1,0,0,,0,267,267,170,1,
,,,,,,,,,,,,,,,,,,5ea320452d77060f49a6de2c,2020-11-26_15h57.54.329,lexical_decision_task_MP_exp2,2020.2.5,Linux armv8l,60,,0,0.329166718,-0.3175,1,0,0,0.6439,button_right,0.6439,1,,,,,,21,WORD,"ID",16,simple,SIMPLE,m,,,,,,0.329166718,-0.3175,1,0,0,,0,268,268,80,1,
,,,,,,,,,,,,,,,,,,5ea320452d77060f49a6de2c,2020-11-26_15h57.54.329,lexical_decision_task_MP_exp2,2020.2.5,Linux armv8l,60,,0,0.353333359,-0.311666718,1,0,0,0.7037,button_right,0.7037,1,,,,,,114,WORD,UN,33,guitar,PLACID,m,,,,,,0.353333359,-0.311666718,1,0,0,,0,269,269,173,1,
,,,,,,,,,,,,,,,,,,5ea320452d77060f49a6de2c,2020-11-26_15h57.54.329,lexical_decision_task_MP_exp2,2020.2.5,Linux armv8l,60,,0,-0.248333321,-0.32,1,0,0,0.8067,button_left,0.8067,1,,,,,,435,NW,"ID",33,impurb,IMPURB,z,,,,,,-0.248333321,-0.32,1,0,0,,0,270,270,254,1,
,,,,,,,,,,,,,,,,,,5ea320452d77060f49a6de2c,2020-11-26_15h57.54.329,lexical_decision_task_MP_exp2,2020.2.5,Linux armv8l,60,,0,0.3075,-0.294166718,1,0,0,0.753,button_right,0.753,1,,,,,,76,WORD,UN,33,racket,EXOTIC,m,,,,,,0.3075,-0.294166718,1,0,0,,0,271,271,135,1,
,,,,,,,,,,,,,,,,,,5ea320452d77060f49a6de2c,2020-11-26_15h57.54.329,lexical_decision_task_MP_exp2,2020.2.5,Linux armv8l,60,,0,0.348333359,-0.316666718,1,0,0,0.7867,button_right,0.7867,1,,,,,,240,WORD,"ID",33,forest,FOREST,m,,,,,,0.348333359,-0.316666718,1,0,0,,0,272,272,59,1,
,,,,,,,,,,,,,,,,,,5ea320452d77060f49a6de2c,2020-11-26_15h57.54.329,lexical_decision_task_MP_exp2,2020.2.5,Linux armv8l,60,,0,0.320833359,-0.3,1,0,0,0.7732,button_right,0.7732,1,,,,,,54,WORD,"ID",16,ramble,RAMBLE,m,,,,,,0.320833359,-0.3,1,0,0,,0,273,273,113,1,
,,,,,,,,,,,,,,,,,,5ea320452d77060f49a6de2c,2020-11-26_15h57.54.329,lexical_decision_task_MP_exp2,2020.2.5,Linux armv8l,60,,0,0.300833359,-0.288333359,1,0,0,0.7172,button_right,0.7172,1,,,,,,100,WORD,UN,33,wrench,CARBON,m,,,,,,0.300833359,-0.288333359,1,0,0,,0,274,274,159,1,
,,,,,,,,,,,,,,,,,,5ea320452d77060f49a6de2c,2020-11-26_15h57.54.329,lexical_decision_task_MP_exp2,2020.2.5,Linux armv8l,60,,0,-0.27,-0.295833359,1,0,0,0.7524,button_left,0.7524,1,,,,,,431,NW,"ID",33,chrums,CHRUMS,z,,,,,,-0.27,-0.295833359,1,0,0,,0,275,275,250,1,
,,,,,,,,,,,,,,,,,,5ea320452d77060f49a6de2c,2020-11-26_15h57.54.329,lexical_decision_task_MP_exp2,2020.2.5,Linux armv8l,60,,0,-0.260833321,-0.3025,1,0,0,0.746,button_left,0.746,1,,,,,,292,NW,"ID",16,ablint,ABLINT,z,,,,,,-0.260833321,-0.3025,1,0,0,,0,276,276,351,1,
,,,,,,,,,,,,,,,,,,5ea320452d77060f49a6de2c,2020-11-26_15h57.54.329,lexical_decision_task_MP_exp2,2020.2.5,Linux armv8l,60,,0,0.26,-0.2475,1,0,0,0.7551,button_right,0.7551,1,,,,,,33,WORD,"ID",16,butler,BUTLER,m,,,,,,0.26,-0.2475,1,0,0,,0,277,277,92,1,
,,,,,,,,,,,,,,,,,,5ea320452d77060f49a6de2c,2020-11-26_15h57.54.329,lexical_decision_task_MP_exp2,2020.2.5,Linux armv8l,60,,0,-0.265,-0.27,1,0,0,0.7766,button_left,0.7766,1,,,,,,467,NW,"ID",33,gorbie,GORBIE,z,,,,,,-0.265,-0.27,1,0,0,,0,278,278,286,1,
,,,,,,,,,,,,,,,,,,5ea320452d77060f49a6de2c,2020-11-26_15h57.54.329,lexical_decision_task_MP_exp2,2020.2.5,Linux armv8l,60,,0,0.316666718,-0.27,1,0,0,0.693,button_right,0.693,1,,,,,,133,WORD,UN,16,staple,CHROME,m,,,,,,0.316666718,-0.27,1,0,0,,0,279,279,192,1,
,,,,,,,,,,,,,,,,,,5ea320452d77060f49a6de2c,2020-11-26_15h57.54.329,lexical_decision_task_MP_exp2,2020.2.5,Linux armv8l,60,,0,-0.254166641,-0.283333359,1,0,0,0.8042,button_left,0.8042,1,,,,,,405,NW,UN,16,nouply,FLUMNI,z,,,,,,-0.254166641,-0.283333359,1,0,0,,0,280,280,464,1,
,,,,,,,,,,,,,,,,,,5ea320452d77060f49a6de2c,2020-11-26_15h57.54.329,lexical_decision_task_MP_exp2,2020.2.5,Linux armv8l,60,,0,-0.2725,-0.295833359,1,0,0,0.9909,button_left,0.9909,1,,,,,,436,NW,"ID",33,frutan,FRUTAN,z,,,,,,-0.2725,-0.295833359,1,0,0,,0,281,281,255,1,
,,,,,,,,,,,,,,,,,,5ea320452d77060f49a6de2c,2020-11-26_15h57.54.329,lexical_decision_task_MP_exp2,2020.2.5,Linux armv8l,60,,0,-0.2375,-0.283333359,1,0,0,0.7104,button_left,0.7104,1,,,,,,337,NW,UN,33,wreash,REJOLS,z,,,,,,-0.2375,-0.283333359,1,0,0,,0,282,282,396,1,
,,,,,,,,,,,,,,,,,,5ea320452d77060f49a6de2c,2020-11-26_15h57.54.329,lexical_decision_task_MP_exp2,2020.2.5,Linux armv8l,60,,0,0.300833359,-0.26,1,0,0,0.9553,button_right,0.9553,1,,,,,,16,WORD,"ID",16,faucet,FAUCET,m,,,,,,0.300833359,-0.26,1,0,0,,0,283,283,75,1,
,,,,,,,,,,,,,,,,,,5ea320452d77060f49a6de2c,2020-11-26_15h57.54.329,lexical_decision_task_MP_exp2,2020.2.5,Linux armv8l,60,,0,0.304166718,-0.280833359,1,0,0,0.7946,button_right,0.7946,1,,,,,,141,WORD,UN,16,spruce,ORPHAN,m,,,,,,0.304166718,-0.280833359,1,0,0,,0,284,284,200,1,
,,,,,,,,,,,,,,,,,,5ea320452d77060f49a6de2c,2020-11-26_15h57.54.329,lexical_decision_task_MP_exp2,2020.2.5,Linux armv8l,60,,0,0.3425,-0.3175,1,0,0,0.8159,button_right,0.8159,1,,,,,,97,WORD,UN,33,belong,CLIENT,m,,,,,,0.3425,-0.3175,1,0,0,,0,285,285,156,1,
,,,,,,,,,,,,,,,,,,5ea320452d77060f49a6de2c,2020-11-26_15h57.54.329,lexical_decision_task_MP_exp2,2020.2.5,Linux armv8l,60,,0,0.34,-0.304166718,1,0,0,0.6773,button_right,0.6773,1,,,,,,158,WORD,UN,16,detail,ISLAND,m,,,,,,0.34,-0.304166718,1,0,0,,0,286,286,217,1,
,,,,,,,,,,,,,,,,,,5ea320452d77060f49a6de2c,2020-11-26_15h57.54.329,lexical_decision_task_MP_exp2,2020.2.5,Linux armv8l,60,,0,0.298333359,-0.305,1,0,0,0.7509,button_right,0.7509,1,,,,,,224,WORD,"ID",33,period,PERIOD,m,,,,,,0.298333359,-0.305,1,0,0,,0,287,287,43,1,
,,,,,,,,,,,,,,,,,,5ea320452d77060f49a6de2c,2020-11-26_15h57.54.329,lexical_decision_task_MP_exp2,2020.2.5,Linux armv8l,60,,0,-0.214166641,-0.315,1,0,0,0.7651,button_left,0.7651,1,,,,,,259,NW,"ID",16,soudal,SOUDAL,z,,,,,,-0.214166641,-0.315,1,0,0,,0,288,288,318,1,
,,,,,,,,,,,,,,,,,,5ea320452d77060f49a6de2c,2020-11-26_15h57.54.329,lexical_decision_task_MP_exp2,2020.2.5,Linux armv8l,60,,0,-0.2425,-0.2975,1,0,0,0.7578,button_left,0.7578,1,,,,,,250,NW,"ID",16,milted,MILTED,z,,,,,,-0.2425,-0.2975,1,0,0,,0,289,289,309,1,
,,,,,,,,,,,,,,,,,,5ea320452d77060f49a6de2c,2020-11-26_15h57.54.329,lexical_decision_task_MP_exp2,2020.2.5,Linux armv8l,60,,0,-0.226666641,-0.300833359,1,0,0,0.7541,button_left,0.7541,1,,,,,,432,NW,"ID",33,lunker,LUNKER,z,,,,,,-0.226666641,-0.300833359,1,0,0,,0,290,290,251,1,
,,,,,,,,,,,,,,,,,,5ea320452d77060f49a6de2c,2020-11-26_15h57.54.329,lexical_decision_task_MP_exp2,2020.2.5,Linux armv8l,60,,0,0.2575,-0.274166718,1,0,0,0.7345,button_right,0.7345,1,,,,,,211,WORD,"ID",33,infect,INFECT,m,,,,,,0.2575,-0.274166718,1,0,0,,0,291,291,30,1,
,,,,,,,,,,,,,,,,,,5ea320452d77060f49a6de2c,2020-11-26_15h57.54.329,lexical_decision_task_MP_exp2,2020.2.5,Linux armv8l,60,,0,-0.245833321,-0.289166718,1,0,0,0.7328,button_left,0.7328,1,,,,,,351,NW,UN,33,tringe,TIESCH,z,,,,,,-0.245833321,-0.289166718,1,0,0,,0,292,292,410,1,
,,,,,,,,,,,,,,,,,,5ea320452d77060f49a6de2c,2020-11-26_15h57.54.329,lexical_decision_task_MP_exp2,2020.2.5,Linux armv8l,60,,0,-0.23,-0.284166718,1,0,0,0.897,button_left,0.897,1,,,,,,314,NW,UN,33,laston,SPRINE,z,,,,,,-0.23,-0.284166718,1,0,0,,0,293,293,373,1,
,,,,,,,,,,,,,,,,,,5ea320452d77060f49a6de2c,2020-11-26_15h57.54.329,lexical_decision_task_MP_exp2,2020.2.5,Linux armv8l,60,,0,0.3075,-0.286666718,1,0,0,0.7899,button_right,0.7899,1,,,,,,5,WORD,"ID",16,plunge,PLUNGE,m,,,,,,0.3075,-0.286666718,1,0,0,,0,294,294,64,1,
,,,,,,,,,,,,,,,,,,5ea320452d77060f49a6de2c,2020-11-26_15h57.54.329,lexical_decision_task_MP_exp2,2020.2.5,Linux armv8l,60,,0,-0.251666641,-0.285833359,1,0,0,0.7316,button_left,0.7316,1,,,,,,429,NW,"ID",33,funtle,FUNTLE,z,,,,,,-0.251666641,-0.285833359,1,0,0,,0,295,295,248,1,
,,,,,,,,,,,,,,,,,,5ea320452d77060f49a6de2c,2020-11-26_15h57.54.329,lexical_decision_task_MP_exp2,2020.2.5,Linux armv8l,60,,0,0.329166718,-0.276666718,1,0,0,0.7283,button_right,0.7283,1,,,,,,152,WORD,UN,16,behold,ROCKET,m,,,,,,0.329166718,-0.276666718,1,0,0,,0,296,296,211,1,
,,,,,,,,,,,,,,,,,,5ea320452d77060f49a6de2c,2020-11-26_15h57.54.329,lexical_decision_task_MP_exp2,2020.2.5,Linux armv8l,60,,0,0.3325,-0.275,1,0,0,0.8205,button_right,0.8205,1,,,,,,47,WORD,"ID",16,income,INCOME,m,,,,,,0.3325,-0.275,1,0,0,,0,297,297,106,1,
,,,,,,,,,,,,,,,,,,5ea320452d77060f49a6de2c,2020-11-26_15h57.54.329,lexical_decision_task_MP_exp2,2020.2.5,Linux armv8l,60,,0,0.370833359,-0.3125,1,0,0,0.8419,button_right,0.8419,1,,,,,,62,WORD,UN,33,launch,REGION,m,,,,,,0.370833359,-0.3125,1,0,0,,0,298,298,121,1,
,,,,,,,,,,,,,,,,,,5ea320452d77060f49a6de2c,2020-11-26_15h57.54.329,lexical_decision_task_MP_exp2,2020.2.5,Linux armv8l,60,,0,-0.259166641,-0.295833359,1,0,0,0.7842,button_left,0.7842,1,,,,,,434,NW,"ID",33,pitrom,PITROM,z,,,,,,-0.259166641,-0.295833359,1,0,0,,0,299,299,253,1,
,,,,,,,,,,,,,,,,,,5ea320452d77060f49a6de2c,2020-11-26_15h57.54.329,lexical_decision_task_MP_exp2,2020.2.5,Linux armv8l,60,,0,0.339166718,-0.276666718,1,0,0,0.7985,button_right,0.7985,1,,,,,,120,WORD,UN,33,ponder,STRAIN,m,,,,,,0.339166718,-0.276666718,1,0,0,,0,300,300,179,1,
,,,,,,,,,,,,,,,,,,5ea320452d77060f49a6de2c,2020-11-26_15h57.54.329,lexical_decision_task_MP_exp2,2020.2.5,Linux armv8l,60,,0,-0.263333321,-0.3,1,0,0,0.8291,button_left,0.8291,1,,,,,,342,NW,UN,33,aimosy,RANDOW,z,,,,,,-0.263333321,-0.3,1,0,0,,0,301,301,401,1,
,,,,,,,,,,,,,,,,,,5ea320452d77060f49a6de2c,2020-11-26_15h57.54.329,lexical_decision_task_MP_exp2,2020.2.5,Linux armv8l,60,,0,-0.253333321,-0.301666718,1,0,0,0.8972,button_left,0.8972,1,,,,,,461,NW,"ID",33,justre,JUSTRE,z,,,,,,-0.253333321,-0.301666718,1,0,0,,0,302,302,280,1,
,,,,,,,,,,,,,,,,,,5ea320452d77060f49a6de2c,2020-11-26_15h57.54.329,lexical_decision_task_MP_exp2,2020.2.5,Linux armv8l,60,,0,-0.296666641,-0.298333359,1,0,0,0.7222,button_left,0.7222,1,,,,,,378,NW,UN,16,auting,SHRILE,z,,,,,,-0.296666641,-0.298333359,1,0,0,,0,303,303,437,1,
,,,,,,,,,,,,,,,,,,5ea320452d77060f49a6de2c,2020-11-26_15h57.54.329,lexical_decision_task_MP_exp2,2020.2.5,Linux armv8l,60,,0,-0.29,-0.291666718,1,0,0,0.7881,button_left,0.7881,1,,,,,,473,NW,"ID",33,crible,CRIBLE,z,,,,,,-0.29,-0.291666718,1,0,0,,0,304,304,292,1,
,,,,,,,,,,,,,,,,,,5ea320452d77060f49a6de2c,2020-11-26_15h57.54.329,lexical_decision_task_MP_exp2,2020.2.5,Linux armv8l,60,,0,-0.2575,-0.295,1,0,0,0.6837,button_left,0.6837,1,,,,,,354,NW,UN,33,zingly,VIRLEX,z,,,,,,-0.2575,-0.295,1,0,0,,0,305,305,413,1,
,,,,,,,,,,,,,,,,,,5ea320452d77060f49a6de2c,2020-11-26_15h57.54.329,lexical_decision_task_MP_exp2,2020.2.5,Linux armv8l,60,,0,0.328333359,-0.278333359,1,0,0,0.7589,button_right,0.7589,0,,,,,,260,NW,"ID",16,unject,UNJECT,z,,,,,,0.328333359,-0.278333359,1,0,0,,0,306,306,319,1,
,,,,,,,,,,,,,,,,,,5ea320452d77060f49a6de2c,2020-11-26_15h57.54.329,lexical_decision_task_MP_exp2,2020.2.5,Linux armv8l,60,,0,0.360833359,-0.299166718,1,0,0,0.9313,button_right,0.9313,1,,,,,,237,WORD,"ID",33,poster,POSTER,m,,,,,,0.360833359,-0.299166718,1,0,0,,0,307,307,56,1,
,,,,,,,,,,,,,,,,,,5ea320452d77060f49a6de2c,2020-11-26_15h57.54.329,lexical_decision_task_MP_exp2,2020.2.5,Linux armv8l,60,,0,0.348333359,-0.28,1,0,0,0.7661,button_right,0.7661,1,,,,,,24,WORD,"ID",16,praise,PRAISE,m,,,,,,0.348333359,-0.28,1,0,0,,0,308,308,83,1,
,,,,,,,,,,,,,,,,,,5ea320452d77060f49a6de2c,2020-11-26_15h57.54.329,lexical_decision_task_MP_exp2,2020.2.5,Linux armv8l,60,,0,0.354166718,-0.293333359,1,0,0,0.9139,button_right,0.9139,1,,,,,,22,WORD,"ID",16,jockey,JOCKEY,m,,,,,,0.354166718,-0.293333359,1,0,0,,0,309,309,81,1,
,,,,,,,,,,,,,,,,,,5ea320452d77060f49a6de2c,2020-11-26_15h57.54.329,lexical_decision_task_MP_exp2,2020.2.5,Linux armv8l,60,,0,-0.309166641,-0.281666718,1,0,0,0.8549,button_left,0.8549,1,,,,,,270,NW,"ID",16,wrimsy,WRIMSY,z,,,,,,-0.309166641,-0.281666718,1,0,0,,0,310,310,329,1,
,,,,,,,,,,,,,,,,,,5ea320452d77060f49a6de2c,2020-11-26_15h57.54.329,lexical_decision_task_MP_exp2,2020.2.5,Linux armv8l,60,,0,0.308333359,-0.28,1,0,0,0.8185,button_right,0.8185,1,,,,,,219,WORD,"ID",33,bucket,BUCKET,m,,,,,,0.308333359,-0.28,1,0,0,,0,311,311,38,1,
,,,,,,,,,,,,,,,,,,5ea320452d77060f49a6de2c,2020-11-26_15h57.54.329,lexical_decision_task_MP_exp2,2020.2.5,Linux armv8l,60,,0,-0.295,-0.291666718,1,0,0,0.7033,button_left,0.7033,1,,,,,,412,NW,UN,16,equats,JILUER,z,,,,,,-0.295,-0.291666718,1,0,0,,0,312,312,471,1,
,,,,,,,,,,,,,,,,,,5ea320452d77060f49a6de2c,2020-11-26_15h57.54.329,lexical_decision_task_MP_exp2,2020.2.5,Linux armv8l,60,,0,0.323333359,-0.2875,1,0,0,0.7628,button_right,0.7628,1,,,,,,199,WORD,"ID",33,invoke,INVOKE,m,,,,,,0.323333359,-0.2875,1,0,0,,0,313,313,18,1,
,,,,,,,,,,,,,,,,,,5ea320452d77060f49a6de2c,2020-11-26_15h57.54.329,lexical_decision_task_MP_exp2,2020.2.5,Linux armv8l,60,,0,-0.293333321,-0.279166718,1,0,0,0.8019,button_left,0.8019,1,,,,,,418,NW,UN,16,slount,SUIDLE,z,,,,,,-0.293333321,-0.279166718,1,0,0,,0,314,314,477,1,
,,,,,,,,,,,,,,,,,,5ea320452d77060f49a6de2c,2020-11-26_15h57.54.329,lexical_decision_task_MP_exp2,2020.2.5,Linux armv8l,60,,0,0.335833359,-0.280833359,1,0,0,0.9577,button_right,0.9577,1,,,,,,58,WORD,"ID",16,foster,FOSTER,m,,,,,,0.335833359,-0.280833359,1,0,0,,0,315,315,117,1,
,,,,,,,,,,,,,,,,,,5ea320452d77060f49a6de2c,2020-11-26_15h57.54.329,lexical_decision_task_MP_exp2,2020.2.5,Linux armv8l,60,,0,-0.2675,-0.271666718,1,0,0,0.6741,button_left,0.6741,1,,,,,,460,NW,"ID",33,mingar,MINGAR,z,,,,,,-0.2675,-0.271666718,1,0,0,,0,316,316,279,1,
,,,,,,,,,,,,,,,,,,5ea320452d77060f49a6de2c,2020-11-26_15h57.54.329,lexical_decision_task_MP_exp2,2020.2.5,Linux armv8l,60,,0,0.345833359,-0.290833359,1,0,0,0.7017,button_right,0.7017,1,,,,,,194,WORD,"ID",33,absent,ABSENT,m,,,,,,0.345833359,-0.290833359,1,0,0,,0,317,317,13,1,
,,,,,,,,,,,,,,,,,,5ea320452d77060f49a6de2c,2020-11-26_15h57.54.329,lexical_decision_task_MP_exp2,2020.2.5,Linux armv8l,60,,0,-0.260833321,-0.285833359,1,0,0,0.7047,button_left,0.7047,1,,,,,,447,NW,"ID",33,gircue,GIRCUE,z,,,,,,-0.260833321,-0.285833359,1,0,0,,0,318,318,266,1,
,,,,,,,,,,,,,,,,,,5ea320452d77060f49a6de2c,2020-11-26_15h57.54.329,lexical_decision_task_MP_exp2,2020.2.5,Linux armv8l,60,,0,0.32,-0.283333359,1,0,0,0.6971,button_right,0.6971,1,,,,,,153,WORD,UN,16,author,BEHOLD,m,,,,,,0.32,-0.283333359,1,0,0,,0,319,319,212,1,
,,,,,,,,,,,,,,,,,,5ea320452d77060f49a6de2c,2020-11-26_15h57.54.329,lexical_decision_task_MP_exp2,2020.2.5,Linux armv8l,60,,0,-0.2525,-0.2775,1,0,0,0.6535,button_left,0.6535,1,,,,,,279,NW,"ID",16,celond,CELOND,z,,,,,,-0.2525,-0.2775,1,0,0,,0,320,320,338,1,
,,,,,,,,,,,,,,,,,,5ea320452d77060f49a6de2c,2020-11-26_15h57.54.329,lexical_decision_task_MP_exp2,2020.2.5,Linux armv8l,60,,0,0.326666718,-0.2875,1,0,0,0.6554,button_right,0.6554,1,,,,,,154,WORD,UN,16,lizard,AUTHOR,m,,,,,,0.326666718,-0.2875,1,0,0,,0,321,321,213,1,
,,,,,,,,,,,,,,,,,,5ea320452d77060f49a6de2c,2020-11-26_15h57.54.329,lexical_decision_task_MP_exp2,2020.2.5,Linux armv8l,60,,0,0.346666718,-0.286666718,1,0,0,0.7791,button_right,0.7791,1,,,,,,110,WORD,UN,33,induce,POLITE,m,,,,,,0.346666718,-0.286666718,1,0,0,,0,322,322,169,1,
,,,,,,,,,,,,,,,,,,5ea320452d77060f49a6de2c,2020-11-26_15h57.54.329,lexical_decision_task_MP_exp2,2020.2.5,Linux armv8l,60,,0,-0.246666641,-0.278333359,1,0,0,0.7461,button_left,0.7461,1,,,,,,291,NW,"ID",16,pretch,PRETCH,z,,,,,,-0.246666641,-0.278333359,1,0,0,,0,323,323,350,1,
,,,,,,,,,,,,,,,,,,5ea320452d77060f49a6de2c,2020-11-26_15h57.54.329,lexical_decision_task_MP_exp2,2020.2.5,Linux armv8l,60,,0,-0.244166641,-0.294166718,1,0,0,0.7663,button_left,0.7663,1,,,,,,420,NW,UN,16,pauche,GUSHOP,z,,,,,,-0.244166641,-0.294166718,1,0,0,,0,324,324,479,1,
,,,,,,,,,,,,,,,,,,5ea320452d77060f49a6de2c,2020-11-26_15h57.54.329,lexical_decision_task_MP_exp2,2020.2.5,Linux armv8l,60,,0,-0.291666641,-0.286666718,1,0,0,0.7566,button_left,0.7566,1,,,,,,368,NW,UN,16,wronch,HORNAL,z,,,,,,-0.291666641,-0.286666718,1,0,0,,0,325,325,427,1,
,,,,,,,,,,,,,,,,,,5ea320452d77060f49a6de2c,2020-11-26_15h57.54.329,lexical_decision_task_MP_exp2,2020.2.5,Linux armv8l,60,,0,-0.26,-0.301666718,1,0,0,0.6706,button_left,0.6706,1,,,,,,413,NW,UN,16,serbol,EQUATS,z,,,,,,-0.26,-0.301666718,1,0,0,,0,326,326,472,1,
,,,,,,,,,,,,,,,,,,5ea320452d77060f49a6de2c,2020-11-26_15h57.54.329,lexical_decision_task_MP_exp2,2020.2.5,Linux armv8l,60,,0,-0.23,-0.283333359,1,0,0,0.9479,button_left,0.9479,1,,,,,,284,NW,"ID",16,shaple,SHAPLE,z,,,,,,-0.23,-0.283333359,1,0,0,,0,327,327,343,1,
,,,,,,,,,,,,,,,,,,5ea320452d77060f49a6de2c,2020-11-26_15h57.54.329,lexical_decision_task_MP_exp2,2020.2.5,Linux armv8l,60,,0,-0.290833321,-0.299166718,1,0,0,0.7363,button_left,0.7363,1,,,,,,415,NW,UN,16,pathel,HIGSTA,z,,,,,,-0.290833321,-0.299166718,1,0,0,,0,328,328,474,1,
,,,,,,,,,,,,,,,,,,5ea320452d77060f49a6de2c,2020-11-26_15h57.54.329,lexical_decision_task_MP_exp2,2020.2.5,Linux armv8l,60,,0,0.309166718,-0.295,1,0,0,0.6984,button_right,0.6984,1,,,,,,51,WORD,"ID",16,hungry,HUNGRY,m,,,,,,0.309166718,-0.295,1,0,0,,0,329,329,110,1,
,,,,,,,,,,,,,,,,,,5ea320452d77060f49a6de2c,2020-11-26_15h57.54.329,lexical_decision_task_MP_exp2,2020.2.5,Linux armv8l,60,,0,0.305833359,-0.294166718,1,0,0,0.7931,button_right,0.7931,1,,,,,,125,WORD,UN,16,enough,NICKEL,m,,,,,,0.305833359,-0.294166718,1,0,0,,0,330,330,184,1,
,,,,,,,,,,,,,,,,,,5ea320452d77060f49a6de2c,2020-11-26_15h57.54.329,lexical_decision_task_MP_exp2,2020.2.5,Linux armv8l,60,,0,0.305,-0.309166718,1,0,0,0.7556,button_right,0.7556,1,,,,,,218,WORD,"ID",33,shrink,SHRINK,m,,,,,,0.305,-0.309166718,1,0,0,,0,331,331,37,1,
,,,,,,,,,,,,,,,,,,5ea320452d77060f49a6de2c,2020-11-26_15h57.54.329,lexical_decision_task_MP_exp2,2020.2.5,Linux armv8l,60,,0,0.318333359,-0.319166718,1,0,0,0.7335,button_right,0.7335,1,,,,,,113,WORD,UN,33,placid,CHORUS,m,,,,,,0.318333359,-0.319166718,1,0,0,,0,332,332,172,1,
,,,,,,,,,,,,,,,,,,5ea320452d77060f49a6de2c,2020-11-26_15h57.54.329,lexical_decision_task_MP_exp2,2020.2.5,Linux armv8l,60,,0,-0.2475,-0.285833359,1,0,0,0.8094,button_left,0.8094,1,,,,,,362,NW,UN,16,breali,TIREAU,z,,,,,,-0.2475,-0.285833359,1,0,0,,0,333,333,421,1,
,,,,,,,,,,,,,,,,,,5ea320452d77060f49a6de2c,2020-11-26_15h57.54.329,lexical_decision_task_MP_exp2,2020.2.5,Linux armv8l,60,,0,-0.256666641,-0.3075,1,0,0,0.7641,button_left,0.7641,1,,,,,,365,NW,UN,16,toshel,GUAIRT,z,,,,,,-0.256666641,-0.3075,1,0,0,,0,334,334,424,1,
,,,,,,,,,,,,,,,,,,5ea320452d77060f49a6de2c,2020-11-26_15h57.54.329,lexical_decision_task_MP_exp2,2020.2.5,Linux armv8l,60,,0,-0.234166641,-0.308333359,1,0,0,0.7944,button_left,0.7944,1,,,,,,387,NW,UN,16,cragin,GRONCE,z,,,,,,-0.234166641,-0.308333359,1,0,0,,0,335,335,446,1,
,,,,,,,,,,,,,,,,,,5ea320452d77060f49a6de2c,2020-11-26_15h57.54.329,lexical_decision_task_MP_exp2,2020.2.5,Linux armv8l,60,,0,0.284166718,-0.294166718,1,0,0,0.8233,button_right,0.8233,1,,,,,,166,WORD,UN,16,design,STARCH,m,,,,,,0.284166718,-0.294166718,1,0,0,,0,336,336,225,1,
,,,,,,,,,,,,,,,,,,5ea320452d77060f49a6de2c,2020-11-26_15h57.54.329,lexical_decision_task_MP_exp2,2020.2.5,Linux armv8l,60,,0,-0.203333321,-0.27,1,0,0,0.745,button_left,0.745,1,,,,,,300,NW,"ID",16,yarion,YARION,z,,,,,,-0.203333321,-0.27,1,0,0,,0,337,337,359,1,
,,,,,,,,,,,,,,,,,,5ea320452d77060f49a6de2c,2020-11-26_15h57.54.329,lexical_decision_task_MP_exp2,2020.2.5,Linux armv8l,60,,0,-0.24,-0.294166718,1,0,0,0.696,button_left,0.696,1,,,,,,298,NW,"ID",16,piergy,PIERGY,z,,,,,,-0.24,-0.294166718,1,0,0,,0,338,338,357,1,
,,,,,,,,,,,,,,,,,,5ea320452d77060f49a6de2c,2020-11-26_15h57.54.329,lexical_decision_task_MP_exp2,2020.2.5,Linux armv8l,60,,0,-0.2375,-0.301666718,1,0,0,0.836,button_left,0.836,1,,,,,,397,NW,UN,16,blunde,CAMBLE,z,,,,,,-0.2375,-0.301666718,1,0,0,,0,339,339,456,1,
,,,,,,,,,,,,,,,,,,5ea320452d77060f49a6de2c,2020-11-26_15h57.54.329,lexical_decision_task_MP_exp2,2020.2.5,Linux armv8l,60,,0,0.325833359,-0.290833359,1,0,0,0.7098,button_right,0.7098,1,,,,,,72,WORD,UN,33,source,BRIGHT,m,,,,,,0.325833359,-0.290833359,1,0,0,,0,340,340,131,1,
,,,,,,,,,,,,,,,,,,5ea320452d77060f49a6de2c,2020-11-26_15h57.54.329,lexical_decision_task_MP_exp2,2020.2.5,Linux armv8l,60,,0,0.34,-0.295833359,1,0,0,0.8337,button_right,0.8337,1,,,,,,216,WORD,"ID",33,behalf,BEHALF,m,,,,,,0.34,-0.295833359,1,0,0,,0,341,341,35,1,
,,,,,,,,,,,,,,,,,,5ea320452d77060f49a6de2c,2020-11-26_15h57.54.329,lexical_decision_task_MP_exp2,2020.2.5,Linux armv8l,60,,0,0.316666718,-0.295,1,0,0,0.6938,button_right,0.6938,1,,,,,,19,WORD,"ID",16,patron,PATRON,m,,,,,,0.316666718,-0.295,1,0,0,,0,342,342,78,1,
,,,,,,,,,,,,,,,,,,5ea320452d77060f49a6de2c,2020-11-26_15h57.54.329,lexical_decision_task_MP_exp2,2020.2.5,Linux armv8l,60,,0,-0.2425,-0.295,1,0,0,1.1151,button_left,1.1151,1,,,,,,324,NW,UN,33,thruse,STEIKH,z,,,,,,-0.2425,-0.295,1,0,0,,0,343,343,383,1,
,,,,,,,,,,,,,,,,,,5ea320452d77060f49a6de2c,2020-11-26_15h57.54.329,lexical_decision_task_MP_exp2,2020.2.5,Linux armv8l,60,,0,0.35,-0.2725,1,0,0,0.7658,button_right,0.7658,1,,,,,,156,WORD,UN,16,depart,CRADLE,m,,,,,,0.35,-0.2725,1,0,0,,0,344,344,215,1,
