counterbalancing_condition,instr_done_keyboard.keys,instr_done_keyboard.rt,instr_done_touch.x,instr_done_touch.y,instr_done_touch.leftButton,instr_done_touch.midButton,instr_done_touch.rightButton,instruction_pages.thisRepN,instruction_pages.thisTrialN,instruction_pages.thisN,instruction_pages.thisIndex,instruction_pages.ran,pageN,phase,instruct_text,has_image,instruct_image,participant,date,expName,psychopyVersion,OS,frameRate,response.keys,response.corr,response.rt,touch_resp.x,touch_resp.y,touch_resp.leftButton,touch_resp.midButton,touch_resp.rightButton,touch_resp.time,touch_resp.clicked_name,rt,corr,practice_trials.thisRepN,practice_trials.thisTrialN,practice_trials.thisN,practice_trials.thisIndex,practice_trials.ran,TrialID,StimulusType,Condition,PrimeDuration,Prime,Target,corrAns,end_of_practice_trials_pages.thisRepN,end_of_practice_trials_pages.thisTrialN,end_of_practice_trials_pages.thisN,end_of_practice_trials_pages.thisIndex,end_of_practice_trials_pages.ran,break_done_touch.x,break_done_touch.y,break_done_touch.leftButton,break_done_touch.midButton,break_done_touch.rightButton,break_done_keyboard.keys,experiment_trials.thisRepN,experiment_trials.thisTrialN,experiment_trials.thisN,experiment_trials.thisIndex,experiment_trials.ran,break_done_keyboard.rt
3,space,15.266355,0.02962963,-0.378703704,0,0,0,0,0,0,0,1,1,instructions,"INSTRUCTIONS
At the start of each trial, look at the hash marks (######) in the center of the screen. After a moment, a string of letters will appear. Your task is to indicate if the letter string forms a word or not (i.e., if it is a nonword). For example, AUTHOR is a word while AUTHON is a nonword.

Press the space bar or touch the button below to continue.",0,,5ebe9ba752363c05058883d8,2020-11-27_15h21.37.948,lexical_decision_task_MP_exp2,2020.2.5,Win32,60,,,,,,,,,,,,,,,,,,,,,,,,,,,,,,,,,,,,,,,,,
,space,11.06768,0.02962963,-0.378703704,0,0,0,0,1,1,1,1,2,instructions,"If your device has a keyboard, press the 'Z' key for nonwords and the 'M' key for words.





Press the space bar or touch the button below to continue.",1,keyboard-example.gif,5ebe9ba752363c05058883d8,2020-11-27_15h21.37.948,lexical_decision_task_MP_exp2,2020.2.5,Win32,60,,,,,,,,,,,,,,,,,,,,,,,,,,,,,,,,,,,,,,,,,
,space,5.201935,0.02962963,-0.378703704,0,0,0,0,2,2,2,1,3,instructions,"If you are using a touchscreen only device, use the buttons on the screen. Do not use the mouse.





Press the space bar or touch the button below to continue.",1,touchscreen-example.gif,5ebe9ba752363c05058883d8,2020-11-27_15h21.37.948,lexical_decision_task_MP_exp2,2020.2.5,Win32,60,,,,,,,,,,,,,,,,,,,,,,,,,,,,,,,,,,,,,,,,,
,space,11.766495,0.02962963,-0.378703704,0,0,0,0,3,3,3,1,4,instructions,"It is very important that you respond as quickly and accurately as possible, as each letter string will only be on the screen for two seconds. If you do not respond within this time, the message 'Too slow!' will be displayed and the experiment will progress to the next letter string. The first 20 trials will be practice trials and you will receive feedback on your answers. 

Press the space bar or touch the button below to start the practice trials.",0,,5ebe9ba752363c05058883d8,2020-11-27_15h21.37.948,lexical_decision_task_MP_exp2,2020.2.5,Win32,60,,,,,,,,,,,,,,,,,,,,,,,,,,,,,,,,,,,,,,,,,
,,,,,,,,,,,,,,,,,,5ebe9ba752363c05058883d8,2020-11-27_15h21.37.948,lexical_decision_task_MP_exp2,2020.2.5,Win32,60,m,1,1.393725,,,,,,,,1.393725,1,0,0,0,1,1,1002,WORD,"ID",33,adjust,ADJUST,m,,,,,,,,,,,,,,,,,
,,,,,,,,,,,,,,,,,,5ebe9ba752363c05058883d8,2020-11-27_15h21.37.948,lexical_decision_task_MP_exp2,2020.2.5,Win32,60,m,1,0.661435,,,,,,,,0.661435,1,0,1,1,2,1,1003,WORD,"ID",16,almond,ALMOND,m,,,,,,,,,,,,,,,,,
,,,,,,,,,,,,,,,,,,5ebe9ba752363c05058883d8,2020-11-27_15h21.37.948,lexical_decision_task_MP_exp2,2020.2.5,Win32,60,m,1,0.816555,,,,,,,,0.816555,1,0,2,2,6,1,1007,WORD,UN,16,tropic,ZOMBIE,m,,,,,,,,,,,,,,,,,
,,,,,,,,,,,,,,,,,,5ebe9ba752363c05058883d8,2020-11-27_15h21.37.948,lexical_decision_task_MP_exp2,2020.2.5,Win32,60,z,1,1.1821,,,,,,,,1.1821,1,0,3,3,15,1,1016,NW,UN,16,mushed,WHAISE,z,,,,,,,,,,,,,,,,,
,,,,,,,,,,,,,,,,,,5ebe9ba752363c05058883d8,2020-11-27_15h21.37.948,lexical_decision_task_MP_exp2,2020.2.5,Win32,60,z,1,0.997335,,,,,,,,0.997335,1,0,4,4,13,1,1014,NW,UN,33,winfer,ROUPET,z,,,,,,,,,,,,,,,,,
,,,,,,,,,,,,,,,,,,5ebe9ba752363c05058883d8,2020-11-27_15h21.37.948,lexical_decision_task_MP_exp2,2020.2.5,Win32,60,z,1,1.266035,,,,,,,,1.266035,1,0,5,5,14,1,1015,NW,UN,16,miaber,THRALE,z,,,,,,,,,,,,,,,,,
,,,,,,,,,,,,,,,,,,5ebe9ba752363c05058883d8,2020-11-27_15h21.37.948,lexical_decision_task_MP_exp2,2020.2.5,Win32,60,z,1,1.182345,,,,,,,,1.182345,1,0,6,6,12,1,1013,NW,UN,33,adveil,SPRINY,z,,,,,,,,,,,,,,,,,
,,,,,,,,,,,,,,,,,,5ebe9ba752363c05058883d8,2020-11-27_15h21.37.948,lexical_decision_task_MP_exp2,2020.2.5,Win32,60,m,1,0.59717,,,,,,,,0.59717,1,0,7,7,7,1,1008,WORD,UN,16,hurdle,VOLUME,m,,,,,,,,,,,,,,,,,
,,,,,,,,,,,,,,,,,,5ebe9ba752363c05058883d8,2020-11-27_15h21.37.948,lexical_decision_task_MP_exp2,2020.2.5,Win32,60,z,1,1.050595,,,,,,,,1.050595,1,0,8,8,10,1,1011,NW,"ID",16,inlade,INLADE,z,,,,,,,,,,,,,,,,,
,,,,,,,,,,,,,,,,,,5ebe9ba752363c05058883d8,2020-11-27_15h21.37.948,lexical_decision_task_MP_exp2,2020.2.5,Win32,60,z,1,1.08514,,,,,,,,1.08514,1,0,9,9,8,1,1009,NW,"ID",33,aslert,ASLERT,z,,,,,,,,,,,,,,,,,
,,,,,,,,,,,,,,,,,,5ebe9ba752363c05058883d8,2020-11-27_15h21.37.948,lexical_decision_task_MP_exp2,2020.2.5,Win32,60,m,1,0.643565,,,,,,,,0.643565,1,0,10,10,3,1,1004,WORD,"ID",16,matrix,MATRIX,m,,,,,,,,,,,,,,,,,
,,,,,,,,,,,,,,,,,,5ebe9ba752363c05058883d8,2020-11-27_15h21.37.948,lexical_decision_task_MP_exp2,2020.2.5,Win32,60,m,1,0.703625,,,,,,,,0.703625,1,0,11,11,5,1,1006,WORD,UN,33,frenzy,OBTAIN,m,,,,,,,,,,,,,,,,,
,,,,,,,,,,,,,,,,,,5ebe9ba752363c05058883d8,2020-11-27_15h21.37.948,lexical_decision_task_MP_exp2,2020.2.5,Win32,60,z,1,0.73061,,,,,,,,0.73061,1,0,12,12,9,1,1010,NW,"ID",33,fariny,FARINY,z,,,,,,,,,,,,,,,,,
,,,,,,,,,,,,,,,,,,5ebe9ba752363c05058883d8,2020-11-27_15h21.37.948,lexical_decision_task_MP_exp2,2020.2.5,Win32,60,m,1,0.607995,,,,,,,,0.607995,1,0,13,13,4,1,1005,WORD,UN,33,abound,SQUEAK,m,,,,,,,,,,,,,,,,,
,,,,,,,,,,,,,,,,,,5ebe9ba752363c05058883d8,2020-11-27_15h21.37.948,lexical_decision_task_MP_exp2,2020.2.5,Win32,60,z,1,0.821715,,,,,,,,0.821715,1,0,14,14,11,1,1012,NW,"ID",16,rashet,RASHET,z,,,,,,,,,,,,,,,,,
,,,,,,,,,,,,,,,,,,5ebe9ba752363c05058883d8,2020-11-27_15h21.37.948,lexical_decision_task_MP_exp2,2020.2.5,Win32,60,m,1,0.69712,,,,,,,,0.69712,1,0,15,15,0,1,1001,WORD,"ID",33,utopia,UTOPIA,m,,,,,,,,,,,,,,,,,
,space,13.60377,0.02962963,-0.378703704,0,0,0,,,,,,1,end_of_practice,"You have completed the practice trials. During the experimental trials, you will not receive feedback, but it is very important that you respond as quickly and accurately as possible. 
Before you begin, please ensure that you are in a comfortable and quiet location and will not be disturbed for about 15 minutes, as we cannot use your data if you do not complete all the trials. 
There will be opportunities to take breaks at regular intervals during the experiment. When you are ready to start the experimental trials, please press space or touch the button below.",,,5ebe9ba752363c05058883d8,2020-11-27_15h21.37.948,lexical_decision_task_MP_exp2,2020.2.5,Win32,60,,,,,,,,,,,,,,,,,,,,,,,,,0,0,0,0,1,,,,,,,,,,,,
,,,,,,,,,,,,,,,,,,5ebe9ba752363c05058883d8,2020-11-27_15h21.37.948,lexical_decision_task_MP_exp2,2020.2.5,Win32,60,z,1,0.9316,,,,,,,,0.9316,1,,,,,,423,NW,UN,33,praile,STRELD,z,,,,,,0.02962963,-0.378703704,0,0,0,,0,0,0,362,1,
,,,,,,,,,,,,,,,,,,5ebe9ba752363c05058883d8,2020-11-27_15h21.37.948,lexical_decision_task_MP_exp2,2020.2.5,Win32,60,m,1,0.7736,,,,,,,,0.7736,1,,,,,,230,WORD,UN,33,mother,FRINGE,m,,,,,,0.02962963,-0.378703704,0,0,0,,0,1,1,169,1,
,,,,,,,,,,,,,,,,,,5ebe9ba752363c05058883d8,2020-11-27_15h21.37.948,lexical_decision_task_MP_exp2,2020.2.5,Win32,60,m,1,0.72153,,,,,,,,0.72153,1,,,,,,69,WORD,"ID",33,plenty,PLENTY,m,,,,,,0.02962963,-0.378703704,0,0,0,,0,2,2,8,1,
,,,,,,,,,,,,,,,,,,5ebe9ba752363c05058883d8,2020-11-27_15h21.37.948,lexical_decision_task_MP_exp2,2020.2.5,Win32,60,m,1,0.647305,,,,,,,,0.647305,1,,,,,,225,WORD,UN,33,casino,VULGAR,m,,,,,,0.02962963,-0.378703704,0,0,0,,0,3,3,164,1,
,,,,,,,,,,,,,,,,,,5ebe9ba752363c05058883d8,2020-11-27_15h21.37.948,lexical_decision_task_MP_exp2,2020.2.5,Win32,60,z,1,0.924335,,,,,,,,0.924335,1,,,,,,464,NW,UN,33,whivex,CHAITE,z,,,,,,0.02962963,-0.378703704,0,0,0,,0,4,4,403,1,
,,,,,,,,,,,,,,,,,,5ebe9ba752363c05058883d8,2020-11-27_15h21.37.948,lexical_decision_task_MP_exp2,2020.2.5,Win32,60,z,1,0.94733,,,,,,,,0.94733,1,,,,,,429,NW,UN,33,caroey,FUNTLE,z,,,,,,0.02962963,-0.378703704,0,0,0,,0,5,5,368,1,
,,,,,,,,,,,,,,,,,,5ebe9ba752363c05058883d8,2020-11-27_15h21.37.948,lexical_decision_task_MP_exp2,2020.2.5,Win32,60,z,1,0.925315,,,,,,,,0.925315,1,,,,,,472,NW,UN,33,gorbie,CIGNEY,z,,,,,,0.02962963,-0.378703704,0,0,0,,0,6,6,411,1,
,,,,,,,,,,,,,,,,,,5ebe9ba752363c05058883d8,2020-11-27_15h21.37.948,lexical_decision_task_MP_exp2,2020.2.5,Win32,60,m,1,0.68342,,,,,,,,0.68342,1,,,,,,166,WORD,"ID",16,starch,STARCH,m,,,,,,0.02962963,-0.378703704,0,0,0,,0,7,7,105,1,
,,,,,,,,,,,,,,,,,,5ebe9ba752363c05058883d8,2020-11-27_15h21.37.948,lexical_decision_task_MP_exp2,2020.2.5,Win32,60,z,1,1.047915,,,,,,,,1.047915,1,,,,,,267,NW,UN,16,packes,PASINK,z,,,,,,0.02962963,-0.378703704,0,0,0,,0,8,8,446,1,
,,,,,,,,,,,,,,,,,,5ebe9ba752363c05058883d8,2020-11-27_15h21.37.948,lexical_decision_task_MP_exp2,2020.2.5,Win32,60,m,1,0.705185,,,,,,,,0.705185,1,,,,,,38,WORD,UN,16,insect,POWDER,m,,,,,,0.02962963,-0.378703704,0,0,0,,0,9,9,217,1,
,,,,,,,,,,,,,,,,,,5ebe9ba752363c05058883d8,2020-11-27_15h21.37.948,lexical_decision_task_MP_exp2,2020.2.5,Win32,60,m,1,0.667595,,,,,,,,0.667595,1,,,,,,82,WORD,"ID",33,stigma,STIGMA,m,,,,,,0.02962963,-0.378703704,0,0,0,,0,10,10,21,1,
,,,,,,,,,,,,,,,,,,5ebe9ba752363c05058883d8,2020-11-27_15h21.37.948,lexical_decision_task_MP_exp2,2020.2.5,Win32,60,m,1,0.725945,,,,,,,,0.725945,1,,,,,,129,WORD,"ID",16,marvel,MARVEL,m,,,,,,0.02962963,-0.378703704,0,0,0,,0,11,11,68,1,
,,,,,,,,,,,,,,,,,,5ebe9ba752363c05058883d8,2020-11-27_15h21.37.948,lexical_decision_task_MP_exp2,2020.2.5,Win32,60,m,1,0.70187,,,,,,,,0.70187,1,,,,,,7,WORD,UN,16,abrupt,ANCHOR,m,,,,,,0.02962963,-0.378703704,0,0,0,,0,12,12,186,1,
,,,,,,,,,,,,,,,,,,5ebe9ba752363c05058883d8,2020-11-27_15h21.37.948,lexical_decision_task_MP_exp2,2020.2.5,Win32,60,m,1,0.6134,,,,,,,,0.6134,1,,,,,,173,WORD,"ID",16,shower,SHOWER,m,,,,,,0.02962963,-0.378703704,0,0,0,,0,13,13,112,1,
,,,,,,,,,,,,,,,,,,5ebe9ba752363c05058883d8,2020-11-27_15h21.37.948,lexical_decision_task_MP_exp2,2020.2.5,Win32,60,m,1,0.618425,,,,,,,,0.618425,1,,,,,,119,WORD,"ID",33,spider,SPIDER,m,,,,,,0.02962963,-0.378703704,0,0,0,,0,14,14,58,1,
,,,,,,,,,,,,,,,,,,5ebe9ba752363c05058883d8,2020-11-27_15h21.37.948,lexical_decision_task_MP_exp2,2020.2.5,Win32,60,m,1,0.724555,,,,,,,,0.724555,1,,,,,,8,WORD,UN,16,hustle,ABRUPT,m,,,,,,0.02962963,-0.378703704,0,0,0,,0,15,15,187,1,
,,,,,,,,,,,,,,,,,,5ebe9ba752363c05058883d8,2020-11-27_15h21.37.948,lexical_decision_task_MP_exp2,2020.2.5,Win32,60,z,1,0.884885,,,,,,,,0.884885,1,,,,,,459,NW,UN,33,mingar,BAFENT,z,,,,,,0.02962963,-0.378703704,0,0,0,,0,16,16,398,1,
,,,,,,,,,,,,,,,,,,5ebe9ba752363c05058883d8,2020-11-27_15h21.37.948,lexical_decision_task_MP_exp2,2020.2.5,Win32,60,z,1,0.85409,,,,,,,,0.85409,1,,,,,,350,NW,"ID",33,nagurs,NAGURS,z,,,,,,0.02962963,-0.378703704,0,0,0,,0,17,17,289,1,
,,,,,,,,,,,,,,,,,,5ebe9ba752363c05058883d8,2020-11-27_15h21.37.948,lexical_decision_task_MP_exp2,2020.2.5,Win32,60,m,0,1.58193,,,,,,,,1.58193,0,,,,,,277,NW,UN,16,unighs,PETAIN,z,,,,,,0.02962963,-0.378703704,0,0,0,,0,18,18,456,1,
,,,,,,,,,,,,,,,,,,5ebe9ba752363c05058883d8,2020-11-27_15h21.37.948,lexical_decision_task_MP_exp2,2020.2.5,Win32,60,m,0,1.092345,,,,,,,,1.092345,0,,,,,,248,NW,UN,16,batrol,STROLE,z,,,,,,0.02962963,-0.378703704,0,0,0,,0,19,19,427,1,
,,,,,,,,,,,,,,,,,,5ebe9ba752363c05058883d8,2020-11-27_15h21.37.948,lexical_decision_task_MP_exp2,2020.2.5,Win32,60,z,1,1.551085,,,,,,,,1.551085,1,,,,,,418,NW,"ID",16,suidle,SUIDLE,z,,,,,,0.02962963,-0.378703704,0,0,0,,0,20,20,357,1,
,,,,,,,,,,,,,,,,,,5ebe9ba752363c05058883d8,2020-11-27_15h21.37.948,lexical_decision_task_MP_exp2,2020.2.5,Win32,60,m,1,0.756035,,,,,,,,0.756035,1,,,,,,26,WORD,UN,16,butler,SPRINT,m,,,,,,0.02962963,-0.378703704,0,0,0,,0,21,21,205,1,
,,,,,,,,,,,,,,,,,,5ebe9ba752363c05058883d8,2020-11-27_15h21.37.948,lexical_decision_task_MP_exp2,2020.2.5,Win32,60,z,1,1.085915,,,,,,,,1.085915,1,,,,,,354,NW,"ID",33,virlex,VIRLEX,z,,,,,,0.02962963,-0.378703704,0,0,0,,0,22,22,293,1,
,,,,,,,,,,,,,,,,,,5ebe9ba752363c05058883d8,2020-11-27_15h21.37.948,lexical_decision_task_MP_exp2,2020.2.5,Win32,60,z,1,1.69313,,,,,,,,1.69313,1,,,,,,268,NW,UN,16,orchet,PACKES,z,,,,,,0.02962963,-0.378703704,0,0,0,,0,23,23,447,1,
,,,,,,,,,,,,,,,,,,5ebe9ba752363c05058883d8,2020-11-27_15h21.37.948,lexical_decision_task_MP_exp2,2020.2.5,Win32,60,m,1,0.70671,,,,,,,,0.70671,1,,,,,,43,WORD,UN,16,foster,TONGUE,m,,,,,,0.02962963,-0.378703704,0,0,0,,0,24,24,222,1,
,,,,,,,,,,,,,,,,,,5ebe9ba752363c05058883d8,2020-11-27_15h21.37.948,lexical_decision_task_MP_exp2,2020.2.5,Win32,60,m,1,0.7211,,,,,,,,0.7211,1,,,,,,229,WORD,UN,33,fringe,MOTHER,m,,,,,,0.02962963,-0.378703704,0,0,0,,0,25,25,168,1,
,,,,,,,,,,,,,,,,,,5ebe9ba752363c05058883d8,2020-11-27_15h21.37.948,lexical_decision_task_MP_exp2,2020.2.5,Win32,60,m,1,0.622705,,,,,,,,0.622705,1,,,,,,15,WORD,UN,16,faucet,AMOUNT,m,,,,,,0.02962963,-0.378703704,0,0,0,,0,26,26,194,1,
,,,,,,,,,,,,,,,,,,5ebe9ba752363c05058883d8,2020-11-27_15h21.37.948,lexical_decision_task_MP_exp2,2020.2.5,Win32,60,m,1,0.70076,,,,,,,,0.70076,1,,,,,,56,WORD,UN,16,change,AMBUSH,m,,,,,,0.02962963,-0.378703704,0,0,0,,0,27,27,235,1,
,,,,,,,,,,,,,,,,,,5ebe9ba752363c05058883d8,2020-11-27_15h21.37.948,lexical_decision_task_MP_exp2,2020.2.5,Win32,60,m,1,0.725595,,,,,,,,0.725595,1,,,,,,107,WORD,"ID",33,slogan,SLOGAN,m,,,,,,0.02962963,-0.378703704,0,0,0,,0,28,28,46,1,
,,,,,,,,,,,,,,,,,,5ebe9ba752363c05058883d8,2020-11-27_15h21.37.948,lexical_decision_task_MP_exp2,2020.2.5,Win32,60,m,1,0.917215,,,,,,,,0.917215,1,,,,,,176,WORD,"ID",16,strife,STRIFE,m,,,,,,0.02962963,-0.378703704,0,0,0,,0,29,29,115,1,
,,,,,,,,,,,,,,,,,,5ebe9ba752363c05058883d8,2020-11-27_15h21.37.948,lexical_decision_task_MP_exp2,2020.2.5,Win32,60,m,1,0.831035,,,,,,,,0.831035,1,,,,,,120,WORD,"ID",33,strain,STRAIN,m,,,,,,0.02962963,-0.378703704,0,0,0,,0,30,30,59,1,
,,,,,,,,,,,,,,,,,,5ebe9ba752363c05058883d8,2020-11-27_15h21.37.948,lexical_decision_task_MP_exp2,2020.2.5,Win32,60,m,1,0.606835,,,,,,,,0.606835,1,,,,,,203,WORD,UN,33,burden,PHRASE,m,,,,,,0.02962963,-0.378703704,0,0,0,,0,31,31,142,1,
,,,,,,,,,,,,,,,,,,5ebe9ba752363c05058883d8,2020-11-27_15h21.37.948,lexical_decision_task_MP_exp2,2020.2.5,Win32,60,z,1,0.77598,,,,,,,,0.77598,1,,,,,,446,NW,UN,33,gircue,RUNAMO,z,,,,,,0.02962963,-0.378703704,0,0,0,,0,32,32,385,1,
,,,,,,,,,,,,,,,,,,5ebe9ba752363c05058883d8,2020-11-27_15h21.37.948,lexical_decision_task_MP_exp2,2020.2.5,Win32,60,m,1,0.7156,,,,,,,,0.7156,1,,,,,,139,WORD,"ID",16,debris,DEBRIS,m,,,,,,0.02962963,-0.378703704,0,0,0,,0,33,33,78,1,
,,,,,,,,,,,,,,,,,,5ebe9ba752363c05058883d8,2020-11-27_15h21.37.948,lexical_decision_task_MP_exp2,2020.2.5,Win32,60,m,1,0.600575,,,,,,,,0.600575,1,,,,,,115,WORD,"ID",33,guitar,GUITAR,m,,,,,,0.02962963,-0.378703704,0,0,0,,0,34,34,54,1,
,,,,,,,,,,,,,,,,,,5ebe9ba752363c05058883d8,2020-11-27_15h21.37.948,lexical_decision_task_MP_exp2,2020.2.5,Win32,60,m,1,0.67119,,,,,,,,0.67119,1,,,,,,131,WORD,"ID",16,quench,QUENCH,m,,,,,,0.02962963,-0.378703704,0,0,0,,0,35,35,70,1,
,,,,,,,,,,,,,,,,,,5ebe9ba752363c05058883d8,2020-11-27_15h21.37.948,lexical_decision_task_MP_exp2,2020.2.5,Win32,60,z,1,0.96389,,,,,,,,0.96389,1,,,,,,355,NW,"ID",33,zingly,ZINGLY,z,,,,,,0.02962963,-0.378703704,0,0,0,,0,36,36,294,1,
,,,,,,,,,,,,,,,,,,5ebe9ba752363c05058883d8,2020-11-27_15h21.37.948,lexical_decision_task_MP_exp2,2020.2.5,Win32,60,m,1,0.63114,,,,,,,,0.63114,1,,,,,,201,WORD,UN,33,factor,ADMIRE,m,,,,,,0.02962963,-0.378703704,0,0,0,,0,37,37,140,1,
,,,,,,,,,,,,,,,,,,5ebe9ba752363c05058883d8,2020-11-27_15h21.37.948,lexical_decision_task_MP_exp2,2020.2.5,Win32,60,m,1,0.635305,,,,,,,,0.635305,1,,,,,,123,WORD,"ID",16,strike,STRIKE,m,,,,,,0.02962963,-0.378703704,0,0,0,,0,38,38,62,1,
,,,,,,,,,,,,,,,,,,5ebe9ba752363c05058883d8,2020-11-27_15h21.37.948,lexical_decision_task_MP_exp2,2020.2.5,Win32,60,m,1,0.74048,,,,,,,,0.74048,1,,,,,,108,WORD,"ID",33,reckon,RECKON,m,,,,,,0.02962963,-0.378703704,0,0,0,,0,39,39,47,1,
,,,,,,,,,,,,,,,,,,5ebe9ba752363c05058883d8,2020-11-27_15h21.37.948,lexical_decision_task_MP_exp2,2020.2.5,Win32,60,z,1,0.72043,,,,,,,,0.72043,1,,,,,,288,NW,UN,16,starby,YACEUP,z,,,,,,0.02962963,-0.378703704,0,0,0,,0,40,40,467,1,
,,,,,,,,,,,,,,,,,,5ebe9ba752363c05058883d8,2020-11-27_15h21.37.948,lexical_decision_task_MP_exp2,2020.2.5,Win32,60,m,1,0.629895,,,,,,,,0.629895,1,,,,,,72,WORD,"ID",33,bright,BRIGHT,m,,,,,,0.02962963,-0.378703704,0,0,0,,0,41,41,11,1,
,,,,,,,,,,,,,,,,,,5ebe9ba752363c05058883d8,2020-11-27_15h21.37.948,lexical_decision_task_MP_exp2,2020.2.5,Win32,60,m,1,0.70167,,,,,,,,0.70167,1,,,,,,211,WORD,UN,33,verify,INFECT,m,,,,,,0.02962963,-0.378703704,0,0,0,,0,42,42,150,1,
,,,,,,,,,,,,,,,,,,5ebe9ba752363c05058883d8,2020-11-27_15h21.37.948,lexical_decision_task_MP_exp2,2020.2.5,Win32,60,m,1,0.650595,,,,,,,,0.650595,1,,,,,,76,WORD,"ID",33,exotic,EXOTIC,m,,,,,,0.02962963,-0.378703704,0,0,0,,0,43,43,15,1,
,,,,,,,,,,,,,,,,,,5ebe9ba752363c05058883d8,2020-11-27_15h21.37.948,lexical_decision_task_MP_exp2,2020.2.5,Win32,60,z,1,1.30578,,,,,,,,1.30578,1,,,,,,341,NW,"ID",33,myrtie,MYRTIE,z,,,,,,0.02962963,-0.378703704,0,0,0,,0,44,44,280,1,
,,,,,,,,,,,,,,,,,,5ebe9ba752363c05058883d8,2020-11-27_15h21.37.948,lexical_decision_task_MP_exp2,2020.2.5,Win32,60,z,1,1.10042,,,,,,,,1.10042,1,,,,,,389,NW,"ID",16,witmer,WITMER,z,,,,,,0.02962963,-0.378703704,0,0,0,,0,45,45,328,1,
,,,,,,,,,,,,,,,,,,5ebe9ba752363c05058883d8,2020-11-27_15h21.37.948,lexical_decision_task_MP_exp2,2020.2.5,Win32,60,z,1,0.943135,,,,,,,,0.943135,1,,,,,,395,NW,"ID",16,colury,COLURY,z,,,,,,0.02962963,-0.378703704,0,0,0,,0,46,46,334,1,
,,,,,,,,,,,,,,,,,,5ebe9ba752363c05058883d8,2020-11-27_15h21.37.948,lexical_decision_task_MP_exp2,2020.2.5,Win32,60,z,1,0.867335,,,,,,,,0.867335,1,,,,,,466,NW,UN,33,robuly,HOCITE,z,,,,,,0.02962963,-0.378703704,0,0,0,,0,47,47,405,1,
,,,,,,,,,,,,,,,,,,5ebe9ba752363c05058883d8,2020-11-27_15h21.37.948,lexical_decision_task_MP_exp2,2020.2.5,Win32,60,z,1,0.887785,,,,,,,,0.887785,1,,,,,,336,NW,"ID",33,ghodus,GHODUS,z,,,,,,0.02962963,-0.378703704,0,0,0,,0,48,48,275,1,
,,,,,,,,,,,,,,,,,,5ebe9ba752363c05058883d8,2020-11-27_15h21.37.948,lexical_decision_task_MP_exp2,2020.2.5,Win32,60,m,1,0.71799,,,,,,,,0.71799,1,,,,,,30,WORD,UN,16,weapon,ORIENT,m,,,,,,0.02962963,-0.378703704,0,0,0,,0,49,49,209,1,
,,,,,,,,,,,,,,,,,,5ebe9ba752363c05058883d8,2020-11-27_15h21.37.948,lexical_decision_task_MP_exp2,2020.2.5,Win32,60,m,1,0.73907,,,,,,,,0.73907,1,,,,,,97,WORD,"ID",33,client,CLIENT,m,,,,,,0.02962963,-0.378703704,0,0,0,,0,50,50,36,1,
,,,,,,,,,,,,,,,,,,5ebe9ba752363c05058883d8,2020-11-27_15h21.37.948,lexical_decision_task_MP_exp2,2020.2.5,Win32,60,m,1,0.647785,,,,,,,,0.647785,1,,,,,,188,WORD,UN,33,censor,SOCIAL,m,,,,,,0.02962963,-0.378703704,0,0,0,,0,51,51,127,1,
,,,,,,,,,,,,,,,,,,5ebe9ba752363c05058883d8,2020-11-27_15h21.37.948,lexical_decision_task_MP_exp2,2020.2.5,Win32,60,m,1,0.631985,,,,,,,,0.631985,1,,,,,,134,WORD,"ID",16,staple,STAPLE,m,,,,,,0.02962963,-0.378703704,0,0,0,,0,52,52,73,1,
,,,,,,,,,,,,,,,,,,5ebe9ba752363c05058883d8,2020-11-27_15h21.37.948,lexical_decision_task_MP_exp2,2020.2.5,Win32,60,z,1,0.83179,,,,,,,,0.83179,1,,,,,,242,NW,UN,16,musied,UNWERT,z,,,,,,0.02962963,-0.378703704,0,0,0,,0,53,53,421,1,
,,,,,,,,,,,,,,,,,,5ebe9ba752363c05058883d8,2020-11-27_15h21.37.948,lexical_decision_task_MP_exp2,2020.2.5,Win32,60,z,1,0.71731,,,,,,,,0.71731,1,,,,,,340,NW,"ID",33,fiatch,FIATCH,z,,,,,,0.02962963,-0.378703704,0,0,0,,0,54,54,279,1,
,,,,,,,,,,,,,,,,,,5ebe9ba752363c05058883d8,2020-11-27_15h21.37.948,lexical_decision_task_MP_exp2,2020.2.5,Win32,60,m,1,0.725415,,,,,,,,0.725415,1,,,,,,178,WORD,"ID",16,inform,INFORM,m,,,,,,0.02962963,-0.378703704,0,0,0,,0,55,55,117,1,
,,,,,,,,,,,,,,,,,,5ebe9ba752363c05058883d8,2020-11-27_15h21.37.948,lexical_decision_task_MP_exp2,2020.2.5,Win32,60,m,1,0.73759,,,,,,,,0.73759,1,,,,,,184,WORD,UN,33,bother,SLEAZY,m,,,,,,0.02962963,-0.378703704,0,0,0,,0,56,56,123,1,
,,,,,,,,,,,,,,,,,,5ebe9ba752363c05058883d8,2020-11-27_15h21.37.948,lexical_decision_task_MP_exp2,2020.2.5,Win32,60,m,1,0.68028,,,,,,,,0.68028,1,,,,,,58,WORD,UN,16,splint,FOSTER,m,,,,,,0.02962963,-0.378703704,0,0,0,,0,57,57,237,1,
,,,,,,,,,,,,,,,,,,5ebe9ba752363c05058883d8,2020-11-27_15h21.37.948,lexical_decision_task_MP_exp2,2020.2.5,Win32,60,z,1,0.940755,,,,,,,,0.940755,1,,,,,,397,NW,"ID",16,camble,CAMBLE,z,,,,,,0.02962963,-0.378703704,0,0,0,,0,58,58,336,1,
,,,,,,,,,,,,,,,,,,5ebe9ba752363c05058883d8,2020-11-27_15h21.37.948,lexical_decision_task_MP_exp2,2020.2.5,Win32,60,m,1,0.60136,,,,,,,,0.60136,1,,,,,,80,WORD,"ID",33,family,FAMILY,m,,,,,,0.02962963,-0.378703704,0,0,0,,0,59,59,19,1,
,,,,,,,,,,,,,,,,,,5ebe9ba752363c05058883d8,2020-11-27_15h21.37.948,lexical_decision_task_MP_exp2,2020.2.5,Win32,60,m,1,0.712375,,,,,,,,0.712375,1,,,,,,150,WORD,"ID",16,random,RANDOM,m,,,,,,0.02962963,-0.378703704,0,0,0,,0,60,60,89,1,
,,,,,,,,,,,,,,,,,,5ebe9ba752363c05058883d8,2020-11-27_15h21.37.948,lexical_decision_task_MP_exp2,2020.2.5,Win32,60,z,1,0.93296,,,,,,,,0.93296,1,,,,,,352,NW,"ID",33,tringe,TRINGE,z,,,,,,0.02962963,-0.378703704,0,0,0,,0,61,61,291,1,
,,,,,,,,,,,,,,,,,,5ebe9ba752363c05058883d8,2020-11-27_15h21.37.948,lexical_decision_task_MP_exp2,2020.2.5,Win32,60,z,1,0.73984,,,,,,,,0.73984,1,,,,,,421,NW,UN,33,alcoud,KNISMA,z,,,,,,0.02962963,-0.378703704,0,0,0,,0,62,62,360,1,
,,,,,,,,,,,,,,,,,,5ebe9ba752363c05058883d8,2020-11-27_15h21.37.948,lexical_decision_task_MP_exp2,2020.2.5,Win32,60,z,1,0.80749,,,,,,,,0.80749,1,,,,,,468,NW,UN,33,padifs,WICTOR,z,,,,,,0.02962963,-0.378703704,0,0,0,,0,63,63,407,1,
,,,,,,,,,,,,,,,,,,5ebe9ba752363c05058883d8,2020-11-27_15h21.37.948,lexical_decision_task_MP_exp2,2020.2.5,Win32,60,z,1,0.83354,,,,,,,,0.83354,1,,,,,,287,NW,UN,16,yaceup,NYMBEL,z,,,,,,0.02962963,-0.378703704,0,0,0,,0,64,64,466,1,
,,,,,,,,,,,,,,,,,,5ebe9ba752363c05058883d8,2020-11-27_15h21.37.948,lexical_decision_task_MP_exp2,2020.2.5,Win32,60,m,1,0.70724,,,,,,,,0.70724,1,,,,,,151,WORD,"ID",16,mystic,MYSTIC,m,,,,,,0.02962963,-0.378703704,0,0,0,,0,65,65,90,1,
,,,,,,,,,,,,,,,,,,5ebe9ba752363c05058883d8,2020-11-27_15h21.37.948,lexical_decision_task_MP_exp2,2020.2.5,Win32,60,z,1,1.53471,,,,,,,,1.53471,1,,,,,,378,NW,"ID",16,shrile,SHRILE,z,,,,,,0.02962963,-0.378703704,0,0,0,,0,66,66,317,1,
,,,,,,,,,,,,,,,,,,5ebe9ba752363c05058883d8,2020-11-27_15h21.37.948,lexical_decision_task_MP_exp2,2020.2.5,Win32,60,m,1,0.65271,,,,,,,,0.65271,1,,,,,,179,WORD,"ID",16,basket,BASKET,m,,,,,,0.02962963,-0.378703704,0,0,0,,0,67,67,118,1,
,,,,,,,,,,,,,,,,,,5ebe9ba752363c05058883d8,2020-11-27_15h21.37.948,lexical_decision_task_MP_exp2,2020.2.5,Win32,60,z,1,1.01344,,,,,,,,1.01344,1,,,,,,320,NW,"ID",33,jockal,JOCKAL,z,,,,,,0.02962963,-0.378703704,0,0,0,,0,68,68,259,1,
,,,,,,,,,,,,,,,,,,5ebe9ba752363c05058883d8,2020-11-27_15h21.37.948,lexical_decision_task_MP_exp2,2020.2.5,Win32,60,z,1,0.851945,,,,,,,,0.851945,1,,,,,,346,NW,"ID",33,saudic,SAUDIC,z,,,,,,0.02962963,-0.378703704,0,0,0,,0,69,69,285,1,
,,,,,,,,,,,,,,,,,,5ebe9ba752363c05058883d8,2020-11-27_15h21.37.948,lexical_decision_task_MP_exp2,2020.2.5,Win32,60,z,1,0.858775,,,,,,,,0.858775,1,,,,,,406,NW,"ID",16,nouply,NOUPLY,z,,,,,,0.02962963,-0.378703704,0,0,0,,0,70,70,345,1,
,,,,,,,,,,,,,,,,,,5ebe9ba752363c05058883d8,2020-11-27_15h21.37.948,lexical_decision_task_MP_exp2,2020.2.5,Win32,60,z,1,1.05179,,,,,,,,1.05179,1,,,,,,342,NW,"ID",33,randow,RANDOW,z,,,,,,0.02962963,-0.378703704,0,0,0,,0,71,71,281,1,
,,,,,,,,,,,,,,,,,,5ebe9ba752363c05058883d8,2020-11-27_15h21.37.948,lexical_decision_task_MP_exp2,2020.2.5,Win32,60,z,1,1.16384,,,,,,,,1.16384,1,,,,,,409,NW,"ID",16,elopia,ELOPIA,z,,,,,,0.02962963,-0.378703704,0,0,0,,0,72,72,348,1,
,,,,,,,,,,,,,,,,,,5ebe9ba752363c05058883d8,2020-11-27_15h21.37.948,lexical_decision_task_MP_exp2,2020.2.5,Win32,60,m,1,0.72756,,,,,,,,0.72756,1,,,,,,47,WORD,UN,16,walnut,INCOME,m,,,,,,0.02962963,-0.378703704,0,0,0,,0,73,73,226,1,
,,,,,,,,,,,,,,,,,,5ebe9ba752363c05058883d8,2020-11-27_15h21.37.948,lexical_decision_task_MP_exp2,2020.2.5,Win32,60,z,1,1.04679,,,,,,,,1.04679,1,,,,,,260,NW,UN,16,stunch,UNJECT,z,,,,,,0.02962963,-0.378703704,0,0,0,,0,74,74,439,1,
,,,,,,,,,,,,,,,,,,5ebe9ba752363c05058883d8,2020-11-27_15h21.37.948,lexical_decision_task_MP_exp2,2020.2.5,Win32,60,z,1,0.966885,,,,,,,,0.966885,1,,,,,,413,NW,"ID",16,equats,EQUATS,z,,,,,,0.02962963,-0.378703704,0,0,0,,0,75,75,352,1,
,,,,,,,,,,,,,,,,,,5ebe9ba752363c05058883d8,2020-11-27_15h21.37.948,lexical_decision_task_MP_exp2,2020.2.5,Win32,60,m,1,0.69778,,,,,,,,0.69778,1,,,,,,101,WORD,"ID",33,wrench,WRENCH,m,,,,,,0.02962963,-0.378703704,0,0,0,,0,76,76,40,1,
,,,,,,,,,,,,,,,,,,5ebe9ba752363c05058883d8,2020-11-27_15h21.37.948,lexical_decision_task_MP_exp2,2020.2.5,Win32,60,z,1,1.017225,,,,,,,,1.017225,1,,,,,,432,NW,UN,33,drance,LUNKER,z,,,,,,0.02962963,-0.378703704,0,0,0,,0,77,77,371,1,
,,,,,,,,,,,,,,,,,,5ebe9ba752363c05058883d8,2020-11-27_15h21.37.948,lexical_decision_task_MP_exp2,2020.2.5,Win32,60,z,1,0.847565,,,,,,,,0.847565,1,,,,,,276,NW,UN,16,petain,YARMON,z,,,,,,0.02962963,-0.378703704,0,0,0,,0,78,78,455,1,
,,,,,,,,,,,,,,,,,,5ebe9ba752363c05058883d8,2020-11-27_15h21.37.948,lexical_decision_task_MP_exp2,2020.2.5,Win32,60,m,1,0.584695,,,,,,,,0.584695,1,,,,,,39,WORD,UN,16,convey,INSECT,m,,,,,,0.02962963,-0.378703704,0,0,0,,0,79,79,218,1,
,,,,,,,,,,,,,,,,,,5ebe9ba752363c05058883d8,2020-11-27_15h21.37.948,lexical_decision_task_MP_exp2,2020.2.5,Win32,60,z,1,0.78699,,,,,,,,0.78699,1,,,,,,369,NW,"ID",16,wronch,WRONCH,z,,,,,,0.02962963,-0.378703704,0,0,0,,0,80,80,308,1,
,,,,,,,,,,,,,,,,,,5ebe9ba752363c05058883d8,2020-11-27_15h21.37.948,lexical_decision_task_MP_exp2,2020.2.5,Win32,60,z,1,0.917625,,,,,,,,0.917625,1,,,,,,273,NW,UN,16,fumblo,SORTEL,z,,,,,,0.02962963,-0.378703704,0,0,0,,0,81,81,452,1,
,,,,,,,,,,,,,,,,,,5ebe9ba752363c05058883d8,2020-11-27_15h21.37.948,lexical_decision_task_MP_exp2,2020.2.5,Win32,60,m,1,0.65618,,,,,,,,0.65618,1,,,,,,202,WORD,UN,33,phrase,FACTOR,m,,,,,,0.02962963,-0.378703704,0,0,0,,0,82,82,141,1,
,,,,,,,,,,,,,,,,,,5ebe9ba752363c05058883d8,2020-11-27_15h21.37.948,lexical_decision_task_MP_exp2,2020.2.5,Win32,60,z,1,1.0869,,,,,,,,1.0869,1,,,,,,475,NW,UN,33,josted,PEBRIC,z,,,,,,0.02962963,-0.378703704,0,0,0,,0,83,83,414,1,
,,,,,,,,,,,,,,,,,,5ebe9ba752363c05058883d8,2020-11-27_15h21.37.948,lexical_decision_task_MP_exp2,2020.2.5,Win32,60,m,1,0.676565,,,,,,,,0.676565,1,,,,,,217,WORD,UN,33,shrink,LIQUOR,m,,,,,,0.02962963,-0.378703704,0,0,0,,0,84,84,156,1,
,,,,,,,,,,,,,,,,,,5ebe9ba752363c05058883d8,2020-11-27_15h21.37.948,lexical_decision_task_MP_exp2,2020.2.5,Win32,60,m,1,0.619595,,,,,,,,0.619595,1,,,,,,63,WORD,"ID",33,launch,LAUNCH,m,,,,,,0.02962963,-0.378703704,0,0,0,,0,85,85,2,1,
,,,,,,,,,,,,,,,,,,5ebe9ba752363c05058883d8,2020-11-27_15h21.37.948,lexical_decision_task_MP_exp2,2020.2.5,Win32,60,m,1,0.85208,,,,,,,,0.85208,1,,,,,,219,WORD,UN,33,voyage,BUCKET,m,,,,,,0.02962963,-0.378703704,0,0,0,,0,86,86,158,1,
,,,,,,,,,,,,,,,,,,5ebe9ba752363c05058883d8,2020-11-27_15h21.37.948,lexical_decision_task_MP_exp2,2020.2.5,Win32,60,m,1,0.63535,,,,,,,,0.63535,1,,,,,,52,WORD,UN,16,police,IMPOSE,m,,,,,,0.02962963,-0.378703704,0,0,0,,0,87,87,231,1,
,,,,,,,,,,,,,,,,,,5ebe9ba752363c05058883d8,2020-11-27_15h21.37.948,lexical_decision_task_MP_exp2,2020.2.5,Win32,60,m,1,0.7343,,,,,,,,0.7343,1,,,,,,234,WORD,UN,33,poster,CLUMSY,m,,,,,,0.02962963,-0.378703704,0,0,0,,0,88,88,173,1,
,,,,,,,,,,,,,,,,,,5ebe9ba752363c05058883d8,2020-11-27_15h21.37.948,lexical_decision_task_MP_exp2,2020.2.5,Win32,60,z,1,1.003005,,,,,,,,1.003005,1,,,,,,283,NW,UN,16,shaple,VERALF,z,,,,,,0.02962963,-0.378703704,0,0,0,,0,89,89,462,1,
,,,,,,,,,,,,,,,,,,5ebe9ba752363c05058883d8,2020-11-27_15h21.37.948,lexical_decision_task_MP_exp2,2020.2.5,Win32,60,m,1,0.66702,,,,,,,,0.66702,1,,,,,,42,WORD,UN,16,tongue,CHAPEL,m,,,,,,0.02962963,-0.378703704,0,0,0,,0,90,90,221,1,
,,,,,,,,,,,,,,,,,,5ebe9ba752363c05058883d8,2020-11-27_15h21.37.948,lexical_decision_task_MP_exp2,2020.2.5,Win32,60,m,1,0.952135,,,,,,,,0.952135,1,,,,,,114,WORD,"ID",33,placid,PLACID,m,,,,,,0.02962963,-0.378703704,0,0,0,,0,91,91,53,1,
,,,,,,,,,,,,,,,,,,5ebe9ba752363c05058883d8,2020-11-27_15h21.37.948,lexical_decision_task_MP_exp2,2020.2.5,Win32,60,z,1,0.756275,,,,,,,,0.756275,1,,,,,,302,NW,"ID",33,miluer,MILUER,z,,,,,,0.02962963,-0.378703704,0,0,0,,0,92,92,241,1,
,,,,,,,,,,,,,,,,,,5ebe9ba752363c05058883d8,2020-11-27_15h21.37.948,lexical_decision_task_MP_exp2,2020.2.5,Win32,60,z,1,1.33617,,,,,,,,1.33617,1,,,,,,353,NW,"ID",33,clurey,CLUREY,z,,,,,,0.02962963,-0.378703704,0,0,0,,0,93,93,292,1,
,,,,,,,,,,,,,,,,,,5ebe9ba752363c05058883d8,2020-11-27_15h21.37.948,lexical_decision_task_MP_exp2,2020.2.5,Win32,60,m,1,0.68316,,,,,,,,0.68316,1,,,,,,240,WORD,UN,33,seldom,FOREST,m,,,,,,0.02962963,-0.378703704,0,0,0,,0,94,94,179,1,
,,,,,,,,,,,,,,,,,,5ebe9ba752363c05058883d8,2020-11-27_15h21.37.948,lexical_decision_task_MP_exp2,2020.2.5,Win32,60,m,1,0.610565,,,,,,,,0.610565,1,,,,,,213,WORD,UN,33,intake,SQUEAL,m,,,,,,0.02962963,-0.378703704,0,0,0,,0,95,95,152,1,
,,,,,,,,,,,,,,,,,,5ebe9ba752363c05058883d8,2020-11-27_15h21.37.948,lexical_decision_task_MP_exp2,2020.2.5,Win32,60,m,1,0.587325,,,,,,,,0.587325,1,,,,,,94,WORD,"ID",33,travel,TRAVEL,m,,,,,,0.02962963,-0.378703704,0,0,0,,0,96,96,33,1,
,,,,,,,,,,,,,,,,,,5ebe9ba752363c05058883d8,2020-11-27_15h21.37.948,lexical_decision_task_MP_exp2,2020.2.5,Win32,60,m,1,0.70935,,,,,,,,0.70935,1,,,,,,187,WORD,UN,33,social,COURSE,m,,,,,,0.02962963,-0.378703704,0,0,0,,0,97,97,126,1,
,,,,,,,,,,,,,,,,,,5ebe9ba752363c05058883d8,2020-11-27_15h21.37.948,lexical_decision_task_MP_exp2,2020.2.5,Win32,60,z,1,0.87036,,,,,,,,0.87036,1,,,,,,271,NW,UN,16,damilt,AUBRID,z,,,,,,0.02962963,-0.378703704,0,0,0,,0,98,98,450,1,
,,,,,,,,,,,,,,,,,,5ebe9ba752363c05058883d8,2020-11-27_15h21.37.948,lexical_decision_task_MP_exp2,2020.2.5,Win32,60,m,1,0.682305,,,,,,,,0.682305,1,,,,,,33,WORD,UN,16,jungle,BUTLER,m,,,,,,0.02962963,-0.378703704,0,0,0,,0,99,99,212,1,
,,,,,,,,,,,,,,,,,,5ebe9ba752363c05058883d8,2020-11-27_15h21.37.948,lexical_decision_task_MP_exp2,2020.2.5,Win32,60,m,1,0.88095,,,,,,,,0.88095,1,,,,,,74,WORD,"ID",33,plaque,PLAQUE,m,,,,,,0.02962963,-0.378703704,0,0,0,,0,100,100,13,1,
,,,,,,,,,,,,,,,,,,5ebe9ba752363c05058883d8,2020-11-27_15h21.37.948,lexical_decision_task_MP_exp2,2020.2.5,Win32,60,m,1,0.57417,,,,,,,,0.57417,1,,,,,,84,WORD,"ID",33,mortal,MORTAL,m,,,,,,0.02962963,-0.378703704,0,0,0,,0,101,101,23,1,
,,,,,,,,,,,,,,,,,,5ebe9ba752363c05058883d8,2020-11-27_15h21.37.948,lexical_decision_task_MP_exp2,2020.2.5,Win32,60,m,1,0.585045,,,,,,,,0.585045,1,,,,,,110,WORD,"ID",33,polite,POLITE,m,,,,,,0.02962963,-0.378703704,0,0,0,,0,102,102,49,1,
,,,,,,,,,,,,,,,,,,5ebe9ba752363c05058883d8,2020-11-27_15h21.37.948,lexical_decision_task_MP_exp2,2020.2.5,Win32,60,m,1,0.581075,,,,,,,,0.581075,1,,,,,,105,WORD,"ID",33,number,NUMBER,m,,,,,,0.02962963,-0.378703704,0,0,0,,0,103,103,44,1,
,,,,,,,,,,,,,,,,,,5ebe9ba752363c05058883d8,2020-11-27_15h21.37.948,lexical_decision_task_MP_exp2,2020.2.5,Win32,60,z,1,1.15019,,,,,,,,1.15019,1,,,,,,314,NW,"ID",33,sprine,SPRINE,z,,,,,,0.02962963,-0.378703704,0,0,0,,0,104,104,253,1,
,,,,,,,,,,,,,,,,,,5ebe9ba752363c05058883d8,2020-11-27_15h21.37.948,lexical_decision_task_MP_exp2,2020.2.5,Win32,60,z,1,0.880555,,,,,,,,0.880555,1,,,,,,251,NW,UN,16,stapod,LUPICT,z,,,,,,0.02962963,-0.378703704,0,0,0,,0,105,105,430,1,
,,,,,,,,,,,,,,,,,,5ebe9ba752363c05058883d8,2020-11-27_15h21.37.948,lexical_decision_task_MP_exp2,2020.2.5,Win32,60,m,1,0.635885,,,,,,,,0.635885,1,,,,,,138,WORD,"ID",16,melody,MELODY,m,,,,,,0.02962963,-0.378703704,0,0,0,,0,106,106,77,1,
,,,,,,,,,,,,,,,,,,5ebe9ba752363c05058883d8,2020-11-27_15h21.37.948,lexical_decision_task_MP_exp2,2020.2.5,Win32,60,z,1,0.867865,,,,,,,,0.867865,1,,,,,,307,NW,"ID",33,kirafe,KIRAFE,z,,,,,,0.02962963,-0.378703704,0,0,0,,0,107,107,246,1,
,,,,,,,,,,,,,,,,,,5ebe9ba752363c05058883d8,2020-11-27_15h21.37.948,lexical_decision_task_MP_exp2,2020.2.5,Win32,60,z,1,0.88435,,,,,,,,0.88435,1,,,,,,419,NW,"ID",16,slount,SLOUNT,z,,,,,,0.02962963,-0.378703704,0,0,0,,0,108,108,358,1,
,,,,,,,,,,,,,,,,,,5ebe9ba752363c05058883d8,2020-11-27_15h21.37.948,lexical_decision_task_MP_exp2,2020.2.5,Win32,60,z,1,1.10921,,,,,,,,1.10921,1,,,,,,253,NW,UN,16,varosh,RESAIT,z,,,,,,0.02962963,-0.378703704,0,0,0,,0,109,109,432,1,
,,,,,,,,,,,,,,,,,,5ebe9ba752363c05058883d8,2020-11-27_15h21.37.948,lexical_decision_task_MP_exp2,2020.2.5,Win32,60,m,1,0.75097,,,,,,,,0.75097,1,,,,,,49,WORD,UN,16,snatch,SURVEY,m,,,,,,0.02962963,-0.378703704,0,0,0,,0,110,110,228,1,
,,,,,,,,,,,,,,,,,,5ebe9ba752363c05058883d8,2020-11-27_15h21.37.948,lexical_decision_task_MP_exp2,2020.2.5,Win32,60,z,1,0.974575,,,,,,,,0.974575,1,,,,,,309,NW,"ID",33,amiloy,AMILOY,z,,,,,,0.02962963,-0.378703704,0,0,0,,0,111,111,248,1,
,,,,,,,,,,,,,,,,,,5ebe9ba752363c05058883d8,2020-11-27_15h21.37.948,lexical_decision_task_MP_exp2,2020.2.5,Win32,60,z,1,0.81091,,,,,,,,0.81091,1,,,,,,393,NW,"ID",16,ganous,GANOUS,z,,,,,,0.02962963,-0.378703704,0,0,0,,0,112,112,332,1,
,,,,,,,,,,,,,,,,,,5ebe9ba752363c05058883d8,2020-11-27_15h21.37.948,lexical_decision_task_MP_exp2,2020.2.5,Win32,60,m,1,0.773175,,,,,,,,0.773175,1,,,,,,9,WORD,UN,16,bridge,HUSTLE,m,,,,,,0.02962963,-0.378703704,0,0,0,,0,113,113,188,1,
,,,,,,,,,,,,,,,,,,5ebe9ba752363c05058883d8,2020-11-27_15h21.37.948,lexical_decision_task_MP_exp2,2020.2.5,Win32,60,m,1,0.766865,,,,,,,,0.766865,1,,,,,,226,WORD,UN,33,flower,CASINO,m,,,,,,0.02962963,-0.378703704,0,0,0,,0,114,114,165,1,
,,,,,,,,,,,,,,,,,,5ebe9ba752363c05058883d8,2020-11-27_15h21.37.948,lexical_decision_task_MP_exp2,2020.2.5,Win32,60,m,1,0.64161,,,,,,,,0.64161,1,,,,,,197,WORD,UN,33,wicked,STREAM,m,,,,,,0.02962963,-0.378703704,0,0,0,,0,115,115,136,1,
,,,,,,,,,,,,,,,,,,5ebe9ba752363c05058883d8,2020-11-27_15h21.37.948,lexical_decision_task_MP_exp2,2020.2.5,Win32,60,z,1,1.11408,,,,,,,,1.11408,1,,,,,,365,NW,"ID",16,guairt,GUAIRT,z,,,,,,0.02962963,-0.378703704,0,0,0,,0,116,116,304,1,
,,,,,,,,,,,,,,,,,,5ebe9ba752363c05058883d8,2020-11-27_15h21.37.948,lexical_decision_task_MP_exp2,2020.2.5,Win32,60,z,1,0.903025,,,,,,,,0.903025,1,,,,,,256,NW,UN,16,veniod,INLORS,z,,,,,,0.02962963,-0.378703704,0,0,0,,0,117,117,435,1,
,,,,,,,,,,,,,,,,,,5ebe9ba752363c05058883d8,2020-11-27_15h21.37.948,lexical_decision_task_MP_exp2,2020.2.5,Win32,60,z,1,0.825335,,,,,,,,0.825335,1,,,,,,298,NW,UN,16,sturch,PIERGY,z,,,,,,0.02962963,-0.378703704,0,0,0,,0,118,118,477,1,
,,,,,,,,,,,,,,,,,,5ebe9ba752363c05058883d8,2020-11-27_15h21.37.948,lexical_decision_task_MP_exp2,2020.2.5,Win32,60,z,1,1.64754,,,,,,,,1.64754,1,,,,,,462,NW,UN,33,kispel,ABSULT,z,,,,,,0.02962963,-0.378703704,0,0,0,,0,119,119,401,1,
,,,,,,,,,,,,,,,,,,5ebe9ba752363c05058883d8,2020-11-27_15h21.37.948,lexical_decision_task_MP_exp2,2020.2.5,Win32,60,z,1,1.033775,,,,,,,,1.033775,1,,,,,,381,NW,"ID",16,huniek,HUNIEK,z,,,,,,0.02962963,-0.378703704,0,0,0,space,0,120,120,320,1,7.828865
,,,,,,,,,,,,,,,,,,5ebe9ba752363c05058883d8,2020-11-27_15h21.37.948,lexical_decision_task_MP_exp2,2020.2.5,Win32,60,z,1,0.80353,,,,,,,,0.80353,1,,,,,,377,NW,"ID",16,injore,INJORE,z,,,,,,0.02962963,-0.378703704,0,0,0,,0,121,121,316,1,
,,,,,,,,,,,,,,,,,,5ebe9ba752363c05058883d8,2020-11-27_15h21.37.948,lexical_decision_task_MP_exp2,2020.2.5,Win32,60,z,1,0.67126,,,,,,,,0.67126,1,,,,,,259,NW,UN,16,unject,SOUDAL,z,,,,,,0.02962963,-0.378703704,0,0,0,,0,122,122,438,1,
,,,,,,,,,,,,,,,,,,5ebe9ba752363c05058883d8,2020-11-27_15h21.37.948,lexical_decision_task_MP_exp2,2020.2.5,Win32,60,z,1,0.728615,,,,,,,,0.728615,1,,,,,,380,NW,"ID",16,cavory,CAVORY,z,,,,,,0.02962963,-0.378703704,0,0,0,,0,123,123,319,1,
,,,,,,,,,,,,,,,,,,5ebe9ba752363c05058883d8,2020-11-27_15h21.37.948,lexical_decision_task_MP_exp2,2020.2.5,Win32,60,m,1,0.70597,,,,,,,,0.70597,1,,,,,,45,WORD,UN,16,single,CLERGY,m,,,,,,0.02962963,-0.378703704,0,0,0,,0,124,124,224,1,
,,,,,,,,,,,,,,,,,,5ebe9ba752363c05058883d8,2020-11-27_15h21.37.948,lexical_decision_task_MP_exp2,2020.2.5,Win32,60,m,1,0.784745,,,,,,,,0.784745,1,,,,,,195,WORD,UN,33,credit,RESIGN,m,,,,,,0.02962963,-0.378703704,0,0,0,,0,125,125,134,1,
,,,,,,,,,,,,,,,,,,5ebe9ba752363c05058883d8,2020-11-27_15h21.37.948,lexical_decision_task_MP_exp2,2020.2.5,Win32,60,m,1,0.62645,,,,,,,,0.62645,1,,,,,,25,WORD,UN,16,sprint,DOMAIN,m,,,,,,0.02962963,-0.378703704,0,0,0,,0,126,126,204,1,
,,,,,,,,,,,,,,,,,,5ebe9ba752363c05058883d8,2020-11-27_15h21.37.948,lexical_decision_task_MP_exp2,2020.2.5,Win32,60,m,1,0.63234,,,,,,,,0.63234,1,,,,,,193,WORD,UN,33,mildew,OBJECT,m,,,,,,0.02962963,-0.378703704,0,0,0,,0,127,127,132,1,
,,,,,,,,,,,,,,,,,,5ebe9ba752363c05058883d8,2020-11-27_15h21.37.948,lexical_decision_task_MP_exp2,2020.2.5,Win32,60,z,1,0.670835,,,,,,,,0.670835,1,,,,,,371,NW,"ID",16,geiloy,GEILOY,z,,,,,,0.02962963,-0.378703704,0,0,0,,0,128,128,310,1,
,,,,,,,,,,,,,,,,,,5ebe9ba752363c05058883d8,2020-11-27_15h21.37.948,lexical_decision_task_MP_exp2,2020.2.5,Win32,60,m,1,0.750645,,,,,,,,0.750645,1,,,,,,196,WORD,UN,33,stream,CREDIT,m,,,,,,0.02962963,-0.378703704,0,0,0,,0,129,129,135,1,
,,,,,,,,,,,,,,,,,,5ebe9ba752363c05058883d8,2020-11-27_15h21.37.948,lexical_decision_task_MP_exp2,2020.2.5,Win32,60,z,1,0.90136,,,,,,,,0.90136,1,,,,,,270,NW,UN,16,aubrid,WRIMSY,z,,,,,,0.02962963,-0.378703704,0,0,0,,0,130,130,449,1,
,,,,,,,,,,,,,,,,,,5ebe9ba752363c05058883d8,2020-11-27_15h21.37.948,lexical_decision_task_MP_exp2,2020.2.5,Win32,60,m,1,0.64709,,,,,,,,0.64709,1,,,,,,172,WORD,"ID",16,patrol,PATROL,m,,,,,,0.02962963,-0.378703704,0,0,0,,0,131,131,111,1,
,,,,,,,,,,,,,,,,,,5ebe9ba752363c05058883d8,2020-11-27_15h21.37.948,lexical_decision_task_MP_exp2,2020.2.5,Win32,60,m,1,0.691645,,,,,,,,0.691645,1,,,,,,236,WORD,UN,33,grumpy,PIRATE,m,,,,,,0.02962963,-0.378703704,0,0,0,,0,132,132,175,1,
,,,,,,,,,,,,,,,,,,5ebe9ba752363c05058883d8,2020-11-27_15h21.37.948,lexical_decision_task_MP_exp2,2020.2.5,Win32,60,z,1,1.088905,,,,,,,,1.088905,1,,,,,,424,NW,UN,33,frudge,PRAILE,z,,,,,,0.02962963,-0.378703704,0,0,0,,0,133,133,363,1,
,,,,,,,,,,,,,,,,,,5ebe9ba752363c05058883d8,2020-11-27_15h21.37.948,lexical_decision_task_MP_exp2,2020.2.5,Win32,60,z,1,1.064865,,,,,,,,1.064865,1,,,,,,454,NW,UN,33,tondle,SCOUGE,z,,,,,,0.02962963,-0.378703704,0,0,0,,0,134,134,393,1,
,,,,,,,,,,,,,,,,,,5ebe9ba752363c05058883d8,2020-11-27_15h21.37.948,lexical_decision_task_MP_exp2,2020.2.5,Win32,60,m,1,0.6027,,,,,,,,0.6027,1,,,,,,51,WORD,UN,16,impose,HUNGRY,m,,,,,,0.02962963,-0.378703704,0,0,0,,0,135,135,230,1,
,,,,,,,,,,,,,,,,,,5ebe9ba752363c05058883d8,2020-11-27_15h21.37.948,lexical_decision_task_MP_exp2,2020.2.5,Win32,60,z,1,0.68086,,,,,,,,0.68086,1,,,,,,330,NW,"ID",33,kensom,KENSOM,z,,,,,,0.02962963,-0.378703704,0,0,0,,0,136,136,269,1,
,,,,,,,,,,,,,,,,,,5ebe9ba752363c05058883d8,2020-11-27_15h21.37.948,lexical_decision_task_MP_exp2,2020.2.5,Win32,60,m,1,0.74568,,,,,,,,0.74568,1,,,,,,171,WORD,"ID",16,depart,DEPART,m,,,,,,0.02962963,-0.378703704,0,0,0,,0,137,137,110,1,
,,,,,,,,,,,,,,,,,,5ebe9ba752363c05058883d8,2020-11-27_15h21.37.948,lexical_decision_task_MP_exp2,2020.2.5,Win32,60,m,1,0.698405,,,,,,,,0.698405,1,,,,,,104,WORD,"ID",33,studio,STUDIO,m,,,,,,0.02962963,-0.378703704,0,0,0,,0,138,138,43,1,
,,,,,,,,,,,,,,,,,,5ebe9ba752363c05058883d8,2020-11-27_15h21.37.948,lexical_decision_task_MP_exp2,2020.2.5,Win32,60,z,1,1.00773,,,,,,,,1.00773,1,,,,,,394,NW,"ID",16,spaqux,SPAQUX,z,,,,,,0.02962963,-0.378703704,0,0,0,,0,139,139,333,1,
,,,,,,,,,,,,,,,,,,5ebe9ba752363c05058883d8,2020-11-27_15h21.37.948,lexical_decision_task_MP_exp2,2020.2.5,Win32,60,z,1,1.104685,,,,,,,,1.104685,1,,,,,,437,NW,UN,33,baitch,SNAPEL,z,,,,,,0.02962963,-0.378703704,0,0,0,,0,140,140,376,1,
,,,,,,,,,,,,,,,,,,5ebe9ba752363c05058883d8,2020-11-27_15h21.37.948,lexical_decision_task_MP_exp2,2020.2.5,Win32,60,z,1,1.05434,,,,,,,,1.05434,1,,,,,,427,NW,UN,33,tandly,SCHIND,z,,,,,,0.02962963,-0.378703704,0,0,0,,0,141,141,366,1,
,,,,,,,,,,,,,,,,,,5ebe9ba752363c05058883d8,2020-11-27_15h21.37.948,lexical_decision_task_MP_exp2,2020.2.5,Win32,60,m,1,0.601545,,,,,,,,0.601545,1,,,,,,132,WORD,"ID",16,strong,STRONG,m,,,,,,0.02962963,-0.378703704,0,0,0,,0,142,142,71,1,
,,,,,,,,,,,,,,,,,,5ebe9ba752363c05058883d8,2020-11-27_15h21.37.948,lexical_decision_task_MP_exp2,2020.2.5,Win32,60,z,1,0.68067,,,,,,,,0.68067,1,,,,,,405,NW,"ID",16,flumni,FLUMNI,z,,,,,,0.02962963,-0.378703704,0,0,0,,0,143,143,344,1,
,,,,,,,,,,,,,,,,,,5ebe9ba752363c05058883d8,2020-11-27_15h21.37.948,lexical_decision_task_MP_exp2,2020.2.5,Win32,60,m,1,0.622245,,,,,,,,0.622245,1,,,,,,186,WORD,UN,33,course,PORTAL,m,,,,,,0.02962963,-0.378703704,0,0,0,,0,144,144,125,1,
,,,,,,,,,,,,,,,,,,5ebe9ba752363c05058883d8,2020-11-27_15h21.37.948,lexical_decision_task_MP_exp2,2020.2.5,Win32,60,z,1,0.77448,,,,,,,,0.77448,1,,,,,,379,NW,"ID",16,auting,AUTING,z,,,,,,0.02962963,-0.378703704,0,0,0,,0,145,145,318,1,
,,,,,,,,,,,,,,,,,,5ebe9ba752363c05058883d8,2020-11-27_15h21.37.948,lexical_decision_task_MP_exp2,2020.2.5,Win32,60,m,1,0.61772,,,,,,,,0.61772,1,,,,,,91,WORD,"ID",33,expand,EXPAND,m,,,,,,0.02962963,-0.378703704,0,0,0,,0,146,146,30,1,
,,,,,,,,,,,,,,,,,,5ebe9ba752363c05058883d8,2020-11-27_15h21.37.948,lexical_decision_task_MP_exp2,2020.2.5,Win32,60,m,1,0.658765,,,,,,,,0.658765,1,,,,,,85,WORD,"ID",33,sprawl,SPRAWL,m,,,,,,0.02962963,-0.378703704,0,0,0,,0,147,147,24,1,
,,,,,,,,,,,,,,,,,,5ebe9ba752363c05058883d8,2020-11-27_15h21.37.948,lexical_decision_task_MP_exp2,2020.2.5,Win32,60,m,1,0.530915,,,,,,,,0.530915,1,,,,,,68,WORD,"ID",33,fumble,FUMBLE,m,,,,,,0.02962963,-0.378703704,0,0,0,,0,148,148,7,1,
,,,,,,,,,,,,,,,,,,5ebe9ba752363c05058883d8,2020-11-27_15h21.37.948,lexical_decision_task_MP_exp2,2020.2.5,Win32,60,m,1,0.605325,,,,,,,,0.605325,1,,,,,,231,WORD,UN,33,inject,EXPORT,m,,,,,,0.02962963,-0.378703704,0,0,0,,0,149,149,170,1,
,,,,,,,,,,,,,,,,,,5ebe9ba752363c05058883d8,2020-11-27_15h21.37.948,lexical_decision_task_MP_exp2,2020.2.5,Win32,60,z,1,0.688175,,,,,,,,0.688175,1,,,,,,279,NW,UN,16,curbol,CELOND,z,,,,,,0.02962963,-0.378703704,0,0,0,,0,150,150,458,1,
,,,,,,,,,,,,,,,,,,5ebe9ba752363c05058883d8,2020-11-27_15h21.37.948,lexical_decision_task_MP_exp2,2020.2.5,Win32,60,z,1,0.806575,,,,,,,,0.806575,1,,,,,,250,NW,UN,16,lupict,MILTED,z,,,,,,0.02962963,-0.378703704,0,0,0,,0,151,151,429,1,
,,,,,,,,,,,,,,,,,,5ebe9ba752363c05058883d8,2020-11-27_15h21.37.948,lexical_decision_task_MP_exp2,2020.2.5,Win32,60,m,1,0.638725,,,,,,,,0.638725,1,,,,,,160,WORD,"ID",16,violet,VIOLET,m,,,,,,0.02962963,-0.378703704,0,0,0,,0,152,152,99,1,
,,,,,,,,,,,,,,,,,,5ebe9ba752363c05058883d8,2020-11-27_15h21.37.948,lexical_decision_task_MP_exp2,2020.2.5,Win32,60,m,1,0.91702,,,,,,,,0.91702,1,,,,,,170,WORD,"ID",16,pounce,POUNCE,m,,,,,,0.02962963,-0.378703704,0,0,0,,0,153,153,109,1,
,,,,,,,,,,,,,,,,,,5ebe9ba752363c05058883d8,2020-11-27_15h21.37.948,lexical_decision_task_MP_exp2,2020.2.5,Win32,60,m,1,0.65443,,,,,,,,0.65443,1,,,,,,163,WORD,"ID",16,string,STRING,m,,,,,,0.02962963,-0.378703704,0,0,0,,0,154,154,102,1,
,,,,,,,,,,,,,,,,,,5ebe9ba752363c05058883d8,2020-11-27_15h21.37.948,lexical_decision_task_MP_exp2,2020.2.5,Win32,60,m,1,0.823385,,,,,,,,0.823385,1,,,,,,218,WORD,UN,33,bucket,SHRINK,m,,,,,,0.02962963,-0.378703704,0,0,0,,0,155,155,157,1,
,,,,,,,,,,,,,,,,,,5ebe9ba752363c05058883d8,2020-11-27_15h21.37.948,lexical_decision_task_MP_exp2,2020.2.5,Win32,60,m,1,0.65421,,,,,,,,0.65421,1,,,,,,6,WORD,UN,16,anchor,BUNDLE,m,,,,,,0.02962963,-0.378703704,0,0,0,,0,156,156,185,1,
,,,,,,,,,,,,,,,,,,5ebe9ba752363c05058883d8,2020-11-27_15h21.37.948,lexical_decision_task_MP_exp2,2020.2.5,Win32,60,z,1,0.95876,,,,,,,,0.95876,1,,,,,,469,NW,UN,33,crudio,PADIFS,z,,,,,,0.02962963,-0.378703704,0,0,0,,0,157,157,408,1,
,,,,,,,,,,,,,,,,,,5ebe9ba752363c05058883d8,2020-11-27_15h21.37.948,lexical_decision_task_MP_exp2,2020.2.5,Win32,60,z,1,0.796895,,,,,,,,0.796895,1,,,,,,263,NW,UN,16,vackel,DOLICA,z,,,,,,0.02962963,-0.378703704,0,0,0,,0,158,158,442,1,
,,,,,,,,,,,,,,,,,,5ebe9ba752363c05058883d8,2020-11-27_15h21.37.948,lexical_decision_task_MP_exp2,2020.2.5,Win32,60,z,1,1.0495,,,,,,,,1.0495,1,,,,,,335,NW,"ID",33,desion,DESION,z,,,,,,0.02962963,-0.378703704,0,0,0,,0,159,159,274,1,
,,,,,,,,,,,,,,,,,,5ebe9ba752363c05058883d8,2020-11-27_15h21.37.948,lexical_decision_task_MP_exp2,2020.2.5,Win32,60,m,1,1.116685,,,,,,,,1.116685,1,,,,,,19,WORD,UN,16,breast,PATRON,m,,,,,,0.02962963,-0.378703704,0,0,0,,0,160,160,198,1,
,,,,,,,,,,,,,,,,,,5ebe9ba752363c05058883d8,2020-11-27_15h21.37.948,lexical_decision_task_MP_exp2,2020.2.5,Win32,60,z,1,1.08851,,,,,,,,1.08851,1,,,,,,445,NW,UN,33,runamo,MINKEL,z,,,,,,0.02962963,-0.378703704,0,0,0,,0,161,161,384,1,
,,,,,,,,,,,,,,,,,,5ebe9ba752363c05058883d8,2020-11-27_15h21.37.948,lexical_decision_task_MP_exp2,2020.2.5,Win32,60,m,1,0.687615,,,,,,,,0.687615,1,,,,,,102,WORD,"ID",33,direct,DIRECT,m,,,,,,0.02962963,-0.378703704,0,0,0,,0,162,162,41,1,
,,,,,,,,,,,,,,,,,,5ebe9ba752363c05058883d8,2020-11-27_15h21.37.948,lexical_decision_task_MP_exp2,2020.2.5,Win32,60,z,1,0.94862,,,,,,,,0.94862,1,,,,,,344,NW,"ID",33,scrily,SCRILY,z,,,,,,0.02962963,-0.378703704,0,0,0,,0,163,163,283,1,
,,,,,,,,,,,,,,,,,,5ebe9ba752363c05058883d8,2020-11-27_15h21.37.948,lexical_decision_task_MP_exp2,2020.2.5,Win32,60,z,1,1.072935,,,,,,,,1.072935,1,,,,,,294,NW,UN,16,gleath,INHORT,z,,,,,,0.02962963,-0.378703704,0,0,0,,0,164,164,473,1,
,,,,,,,,,,,,,,,,,,5ebe9ba752363c05058883d8,2020-11-27_15h21.37.948,lexical_decision_task_MP_exp2,2020.2.5,Win32,60,z,1,0.91784,,,,,,,,0.91784,1,,,,,,457,NW,UN,33,barcet,WANIGH,z,,,,,,0.02962963,-0.378703704,0,0,0,,0,165,165,396,1,
,,,,,,,,,,,,,,,,,,5ebe9ba752363c05058883d8,2020-11-27_15h21.37.948,lexical_decision_task_MP_exp2,2020.2.5,Win32,60,m,1,0.626485,,,,,,,,0.626485,1,,,,,,153,WORD,"ID",16,behold,BEHOLD,m,,,,,,0.02962963,-0.378703704,0,0,0,,0,166,166,92,1,
,,,,,,,,,,,,,,,,,,5ebe9ba752363c05058883d8,2020-11-27_15h21.37.948,lexical_decision_task_MP_exp2,2020.2.5,Win32,60,m,1,0.66698,,,,,,,,0.66698,1,,,,,,239,WORD,UN,33,forest,LUMBER,m,,,,,,0.02962963,-0.378703704,0,0,0,,0,167,167,178,1,
,,,,,,,,,,,,,,,,,,5ebe9ba752363c05058883d8,2020-11-27_15h21.37.948,lexical_decision_task_MP_exp2,2020.2.5,Win32,60,m,0,0.835335,,,,,,,,0.835335,0,,,,,,345,NW,"ID",33,absend,ABSEND,z,,,,,,0.02962963,-0.378703704,0,0,0,,0,168,168,284,1,
,,,,,,,,,,,,,,,,,,5ebe9ba752363c05058883d8,2020-11-27_15h21.37.948,lexical_decision_task_MP_exp2,2020.2.5,Win32,60,z,1,1.90745,,,,,,,,1.90745,1,,,,,,444,NW,UN,33,minkel,JAUNCE,z,,,,,,0.02962963,-0.378703704,0,0,0,,0,169,169,383,1,
,,,,,,,,,,,,,,,,,,5ebe9ba752363c05058883d8,2020-11-27_15h21.37.948,lexical_decision_task_MP_exp2,2020.2.5,Win32,60,m,1,0.818325,,,,,,,,0.818325,1,,,,,,125,WORD,"ID",16,nickel,NICKEL,m,,,,,,0.02962963,-0.378703704,0,0,0,,0,170,170,64,1,
,,,,,,,,,,,,,,,,,,5ebe9ba752363c05058883d8,2020-11-27_15h21.37.948,lexical_decision_task_MP_exp2,2020.2.5,Win32,60,m,1,0.582725,,,,,,,,0.582725,1,,,,,,17,WORD,UN,16,humble,CHARGE,m,,,,,,0.02962963,-0.378703704,0,0,0,,0,171,171,196,1,
,,,,,,,,,,,,,,,,,,5ebe9ba752363c05058883d8,2020-11-27_15h21.37.948,lexical_decision_task_MP_exp2,2020.2.5,Win32,60,z,1,0.867445,,,,,,,,0.867445,1,,,,,,467,NW,UN,33,wictor,GORBIE,z,,,,,,0.02962963,-0.378703704,0,0,0,,0,172,172,406,1,
,,,,,,,,,,,,,,,,,,5ebe9ba752363c05058883d8,2020-11-27_15h21.37.948,lexical_decision_task_MP_exp2,2020.2.5,Win32,60,z,1,0.81818,,,,,,,,0.81818,1,,,,,,439,NW,UN,33,saride,LIMPOR,z,,,,,,0.02962963,-0.378703704,0,0,0,,0,173,173,378,1,
,,,,,,,,,,,,,,,,,,5ebe9ba752363c05058883d8,2020-11-27_15h21.37.948,lexical_decision_task_MP_exp2,2020.2.5,Win32,60,z,1,0.86035,,,,,,,,0.86035,1,,,,,,471,NW,UN,33,cigney,NOBEST,z,,,,,,0.02962963,-0.378703704,0,0,0,,0,174,174,410,1,
,,,,,,,,,,,,,,,,,,5ebe9ba752363c05058883d8,2020-11-27_15h21.37.948,lexical_decision_task_MP_exp2,2020.2.5,Win32,60,z,1,1.03482,,,,,,,,1.03482,1,,,,,,452,NW,UN,33,bolvis,SURDEN,z,,,,,,0.02962963,-0.378703704,0,0,0,,0,175,175,391,1,
,,,,,,,,,,,,,,,,,,5ebe9ba752363c05058883d8,2020-11-27_15h21.37.948,lexical_decision_task_MP_exp2,2020.2.5,Win32,60,m,1,0.61234,,,,,,,,0.61234,1,,,,,,20,WORD,UN,16,simple,BREAST,m,,,,,,0.02962963,-0.378703704,0,0,0,,0,176,176,199,1,
,,,,,,,,,,,,,,,,,,5ebe9ba752363c05058883d8,2020-11-27_15h21.37.948,lexical_decision_task_MP_exp2,2020.2.5,Win32,60,z,1,1.30032,,,,,,,,1.30032,1,,,,,,313,NW,"ID",33,paurse,PAURSE,z,,,,,,0.02962963,-0.378703704,0,0,0,,0,177,177,252,1,
,,,,,,,,,,,,,,,,,,5ebe9ba752363c05058883d8,2020-11-27_15h21.37.948,lexical_decision_task_MP_exp2,2020.2.5,Win32,60,m,1,0.689975,,,,,,,,0.689975,1,,,,,,103,WORD,"ID",33,bounce,BOUNCE,m,,,,,,0.02962963,-0.378703704,0,0,0,,0,178,178,42,1,
,,,,,,,,,,,,,,,,,,5ebe9ba752363c05058883d8,2020-11-27_15h21.37.948,lexical_decision_task_MP_exp2,2020.2.5,Win32,60,z,1,1.03443,,,,,,,,1.03443,1,,,,,,456,NW,UN,33,wanigh,BROGET,z,,,,,,0.02962963,-0.378703704,0,0,0,,0,179,179,395,1,
,,,,,,,,,,,,,,,,,,5ebe9ba752363c05058883d8,2020-11-27_15h21.37.948,lexical_decision_task_MP_exp2,2020.2.5,Win32,60,z,1,0.87031,,,,,,,,0.87031,1,,,,,,326,NW,"ID",33,iguade,IGUADE,z,,,,,,0.02962963,-0.378703704,0,0,0,,0,180,180,265,1,
,,,,,,,,,,,,,,,,,,5ebe9ba752363c05058883d8,2020-11-27_15h21.37.948,lexical_decision_task_MP_exp2,2020.2.5,Win32,60,m,1,0.838385,,,,,,,,0.838385,1,,,,,,228,WORD,UN,33,kidney,MASTER,m,,,,,,0.02962963,-0.378703704,0,0,0,,0,181,181,167,1,
,,,,,,,,,,,,,,,,,,5ebe9ba752363c05058883d8,2020-11-27_15h21.37.948,lexical_decision_task_MP_exp2,2020.2.5,Win32,60,m,1,0.59929,,,,,,,,0.59929,1,,,,,,34,WORD,UN,16,socket,JUNGLE,m,,,,,,0.02962963,-0.378703704,0,0,0,,0,182,182,213,1,
,,,,,,,,,,,,,,,,,,5ebe9ba752363c05058883d8,2020-11-27_15h21.37.948,lexical_decision_task_MP_exp2,2020.2.5,Win32,60,m,1,0.65092,,,,,,,,0.65092,1,,,,,,106,WORD,"ID",33,ransom,RANSOM,m,,,,,,0.02962963,-0.378703704,0,0,0,,0,183,183,45,1,
,,,,,,,,,,,,,,,,,,5ebe9ba752363c05058883d8,2020-11-27_15h21.37.948,lexical_decision_task_MP_exp2,2020.2.5,Win32,60,z,1,1.117085,,,,,,,,1.117085,1,,,,,,426,NW,UN,33,schind,URIVEL,z,,,,,,0.02962963,-0.378703704,0,0,0,,0,184,184,365,1,
,,,,,,,,,,,,,,,,,,5ebe9ba752363c05058883d8,2020-11-27_15h21.37.948,lexical_decision_task_MP_exp2,2020.2.5,Win32,60,m,1,0.68488,,,,,,,,0.68488,1,,,,,,117,WORD,"ID",33,branch,BRANCH,m,,,,,,0.02962963,-0.378703704,0,0,0,,0,185,185,56,1,
,,,,,,,,,,,,,,,,,,5ebe9ba752363c05058883d8,2020-11-27_15h21.37.948,lexical_decision_task_MP_exp2,2020.2.5,Win32,60,z,1,0.94792,,,,,,,,0.94792,1,,,,,,246,NW,UN,16,blarge,PIATON,z,,,,,,0.02962963,-0.378703704,0,0,0,,0,186,186,425,1,
,,,,,,,,,,,,,,,,,,5ebe9ba752363c05058883d8,2020-11-27_15h21.37.948,lexical_decision_task_MP_exp2,2020.2.5,Win32,60,z,1,1.13829,,,,,,,,1.13829,1,,,,,,261,NW,UN,16,quilew,STUNCH,z,,,,,,0.02962963,-0.378703704,0,0,0,,0,187,187,440,1,
,,,,,,,,,,,,,,,,,,5ebe9ba752363c05058883d8,2020-11-27_15h21.37.948,lexical_decision_task_MP_exp2,2020.2.5,Win32,60,m,1,0.667475,,,,,,,,0.667475,1,,,,,,21,WORD,UN,16,jockey,SIMPLE,m,,,,,,0.02962963,-0.378703704,0,0,0,,0,188,188,200,1,
,,,,,,,,,,,,,,,,,,5ebe9ba752363c05058883d8,2020-11-27_15h21.37.948,lexical_decision_task_MP_exp2,2020.2.5,Win32,60,z,1,1.21735,,,,,,,,1.21735,1,,,,,,478,NW,UN,33,pebric,ACRISE,z,,,,,,0.02962963,-0.378703704,0,0,0,,0,189,189,417,1,
,,,,,,,,,,,,,,,,,,5ebe9ba752363c05058883d8,2020-11-27_15h21.37.948,lexical_decision_task_MP_exp2,2020.2.5,Win32,60,m,1,1.115125,,,,,,,,1.115125,1,,,,,,87,WORD,"ID",33,filter,FILTER,m,,,,,,0.02962963,-0.378703704,0,0,0,,0,190,190,26,1,
,,,,,,,,,,,,,,,,,,5ebe9ba752363c05058883d8,2020-11-27_15h21.37.948,lexical_decision_task_MP_exp2,2020.2.5,Win32,60,z,1,0.832725,,,,,,,,0.832725,1,,,,,,372,NW,"ID",16,ramily,RAMILY,z,,,,,,0.02962963,-0.378703704,0,0,0,,0,191,191,311,1,
,,,,,,,,,,,,,,,,,,5ebe9ba752363c05058883d8,2020-11-27_15h21.37.948,lexical_decision_task_MP_exp2,2020.2.5,Win32,60,m,1,0.72235,,,,,,,,0.72235,1,,,,,,29,WORD,UN,16,orient,SKETCH,m,,,,,,0.02962963,-0.378703704,0,0,0,,0,192,192,208,1,
,,,,,,,,,,,,,,,,,,5ebe9ba752363c05058883d8,2020-11-27_15h21.37.948,lexical_decision_task_MP_exp2,2020.2.5,Win32,60,z,1,1.00545,,,,,,,,1.00545,1,,,,,,453,NW,UN,33,scouge,BOLVIS,z,,,,,,0.02962963,-0.378703704,0,0,0,,0,193,193,392,1,
,,,,,,,,,,,,,,,,,,5ebe9ba752363c05058883d8,2020-11-27_15h21.37.948,lexical_decision_task_MP_exp2,2020.2.5,Win32,60,z,1,1.0072,,,,,,,,1.0072,1,,,,,,422,NW,UN,33,streld,ALCOUD,z,,,,,,0.02962963,-0.378703704,0,0,0,,0,194,194,361,1,
,,,,,,,,,,,,,,,,,,5ebe9ba752363c05058883d8,2020-11-27_15h21.37.948,lexical_decision_task_MP_exp2,2020.2.5,Win32,60,m,1,0.869925,,,,,,,,0.869925,1,,,,,,140,WORD,"ID",16,prince,PRINCE,m,,,,,,0.02962963,-0.378703704,0,0,0,,0,195,195,79,1,
,,,,,,,,,,,,,,,,,,5ebe9ba752363c05058883d8,2020-11-27_15h21.37.948,lexical_decision_task_MP_exp2,2020.2.5,Win32,60,m,1,0.719835,,,,,,,,0.719835,1,,,,,,128,WORD,"ID",16,senior,SENIOR,m,,,,,,0.02962963,-0.378703704,0,0,0,,0,196,196,67,1,
,,,,,,,,,,,,,,,,,,5ebe9ba752363c05058883d8,2020-11-27_15h21.37.948,lexical_decision_task_MP_exp2,2020.2.5,Win32,60,m,1,0.58887,,,,,,,,0.58887,1,,,,,,126,WORD,"ID",16,enough,ENOUGH,m,,,,,,0.02962963,-0.378703704,0,0,0,,0,197,197,65,1,
,,,,,,,,,,,,,,,,,,5ebe9ba752363c05058883d8,2020-11-27_15h21.37.948,lexical_decision_task_MP_exp2,2020.2.5,Win32,60,m,1,0.550565,,,,,,,,0.550565,1,,,,,,60,WORD,UN,16,fright,PENCIL,m,,,,,,0.02962963,-0.378703704,0,0,0,,0,198,198,239,1,
,,,,,,,,,,,,,,,,,,5ebe9ba752363c05058883d8,2020-11-27_15h21.37.948,lexical_decision_task_MP_exp2,2020.2.5,Win32,60,m,1,0.75393,,,,,,,,0.75393,1,,,,,,66,WORD,"ID",33,gospel,GOSPEL,m,,,,,,0.02962963,-0.378703704,0,0,0,,0,199,199,5,1,
,,,,,,,,,,,,,,,,,,5ebe9ba752363c05058883d8,2020-11-27_15h21.37.948,lexical_decision_task_MP_exp2,2020.2.5,Win32,60,z,1,0.88765,,,,,,,,0.88765,1,,,,,,470,NW,UN,33,nobest,CRUDIO,z,,,,,,0.02962963,-0.378703704,0,0,0,,0,200,200,409,1,
,,,,,,,,,,,,,,,,,,5ebe9ba752363c05058883d8,2020-11-27_15h21.37.948,lexical_decision_task_MP_exp2,2020.2.5,Win32,60,m,1,0.68385,,,,,,,,0.68385,1,,,,,,191,WORD,UN,33,beacon,STABLE,m,,,,,,0.02962963,-0.378703704,0,0,0,,0,201,201,130,1,
,,,,,,,,,,,,,,,,,,5ebe9ba752363c05058883d8,2020-11-27_15h21.37.948,lexical_decision_task_MP_exp2,2020.2.5,Win32,60,m,1,0.651505,,,,,,,,0.651505,1,,,,,,14,WORD,UN,16,orange,ALMOST,m,,,,,,0.02962963,-0.378703704,0,0,0,,0,202,202,193,1,
,,,,,,,,,,,,,,,,,,5ebe9ba752363c05058883d8,2020-11-27_15h21.37.948,lexical_decision_task_MP_exp2,2020.2.5,Win32,60,z,1,0.75484,,,,,,,,0.75484,1,,,,,,465,NW,UN,33,bafent,WHIVEX,z,,,,,,0.02962963,-0.378703704,0,0,0,,0,203,203,404,1,
,,,,,,,,,,,,,,,,,,5ebe9ba752363c05058883d8,2020-11-27_15h21.37.948,lexical_decision_task_MP_exp2,2020.2.5,Win32,60,z,1,0.79799,,,,,,,,0.79799,1,,,,,,339,NW,"ID",33,fachow,FACHOW,z,,,,,,0.02962963,-0.378703704,0,0,0,,0,204,204,278,1,
,,,,,,,,,,,,,,,,,,5ebe9ba752363c05058883d8,2020-11-27_15h21.37.948,lexical_decision_task_MP_exp2,2020.2.5,Win32,60,z,1,0.703495,,,,,,,,0.703495,1,,,,,,480,NW,UN,33,knisma,ROBULY,z,,,,,,0.02962963,-0.378703704,0,0,0,,0,205,205,419,1,
,,,,,,,,,,,,,,,,,,5ebe9ba752363c05058883d8,2020-11-27_15h21.37.948,lexical_decision_task_MP_exp2,2020.2.5,Win32,60,m,1,0.78819,,,,,,,,0.78819,1,,,,,,10,WORD,UN,16,cruise,ETHNIC,m,,,,,,0.02962963,-0.378703704,0,0,0,,0,206,206,189,1,
,,,,,,,,,,,,,,,,,,5ebe9ba752363c05058883d8,2020-11-27_15h21.37.948,lexical_decision_task_MP_exp2,2020.2.5,Win32,60,z,1,1.368275,,,,,,,,1.368275,1,,,,,,291,NW,UN,16,ablint,PRETCH,z,,,,,,0.02962963,-0.378703704,0,0,0,,0,207,207,470,1,
,,,,,,,,,,,,,,,,,,5ebe9ba752363c05058883d8,2020-11-27_15h21.37.948,lexical_decision_task_MP_exp2,2020.2.5,Win32,60,z,1,1.084255,,,,,,,,1.084255,1,,,,,,280,NW,UN,16,melaty,CURBOL,z,,,,,,0.02962963,-0.378703704,0,0,0,,0,208,208,459,1,
,,,,,,,,,,,,,,,,,,5ebe9ba752363c05058883d8,2020-11-27_15h21.37.948,lexical_decision_task_MP_exp2,2020.2.5,Win32,60,m,1,0.670325,,,,,,,,0.670325,1,,,,,,148,WORD,"ID",16,custom,CUSTOM,m,,,,,,0.02962963,-0.378703704,0,0,0,,0,209,209,87,1,
,,,,,,,,,,,,,,,,,,5ebe9ba752363c05058883d8,2020-11-27_15h21.37.948,lexical_decision_task_MP_exp2,2020.2.5,Win32,60,m,1,0.64972,,,,,,,,0.64972,1,,,,,,18,WORD,UN,16,patron,HUMBLE,m,,,,,,0.02962963,-0.378703704,0,0,0,,0,210,210,197,1,
,,,,,,,,,,,,,,,,,,5ebe9ba752363c05058883d8,2020-11-27_15h21.37.948,lexical_decision_task_MP_exp2,2020.2.5,Win32,60,z,1,0.75148,,,,,,,,0.75148,1,,,,,,359,NW,"ID",33,fonver,FONVER,z,,,,,,0.02962963,-0.378703704,0,0,0,,0,211,211,298,1,
,,,,,,,,,,,,,,,,,,5ebe9ba752363c05058883d8,2020-11-27_15h21.37.948,lexical_decision_task_MP_exp2,2020.2.5,Win32,60,m,1,0.739795,,,,,,,,0.739795,1,,,,,,216,WORD,UN,33,liquor,BEHALF,m,,,,,,0.02962963,-0.378703704,0,0,0,,0,212,212,155,1,
,,,,,,,,,,,,,,,,,,5ebe9ba752363c05058883d8,2020-11-27_15h21.37.948,lexical_decision_task_MP_exp2,2020.2.5,Win32,60,z,1,1.21833,,,,,,,,1.21833,1,,,,,,368,NW,"ID",16,hornal,HORNAL,z,,,,,,0.02962963,-0.378703704,0,0,0,,0,213,213,307,1,
,,,,,,,,,,,,,,,,,,5ebe9ba752363c05058883d8,2020-11-27_15h21.37.948,lexical_decision_task_MP_exp2,2020.2.5,Win32,60,z,1,0.849475,,,,,,,,0.849475,1,,,,,,311,NW,"ID",33,sproly,SPROLY,z,,,,,,0.02962963,-0.378703704,0,0,0,,0,214,214,250,1,
,,,,,,,,,,,,,,,,,,5ebe9ba752363c05058883d8,2020-11-27_15h21.37.948,lexical_decision_task_MP_exp2,2020.2.5,Win32,60,z,1,0.90509,,,,,,,,0.90509,1,,,,,,275,NW,UN,16,yarmon,SLEIRT,z,,,,,,0.02962963,-0.378703704,0,0,0,,0,215,215,454,1,
,,,,,,,,,,,,,,,,,,5ebe9ba752363c05058883d8,2020-11-27_15h21.37.948,lexical_decision_task_MP_exp2,2020.2.5,Win32,60,m,1,0.68872,,,,,,,,0.68872,1,,,,,,177,WORD,"ID",16,advent,ADVENT,m,,,,,,0.02962963,-0.378703704,0,0,0,,0,216,216,116,1,
,,,,,,,,,,,,,,,,,,5ebe9ba752363c05058883d8,2020-11-27_15h21.37.948,lexical_decision_task_MP_exp2,2020.2.5,Win32,60,z,1,1.31766,,,,,,,,1.31766,1,,,,,,450,NW,UN,33,cainky,PHRECT,z,,,,,,0.02962963,-0.378703704,0,0,0,,0,217,217,389,1,
,,,,,,,,,,,,,,,,,,5ebe9ba752363c05058883d8,2020-11-27_15h21.37.948,lexical_decision_task_MP_exp2,2020.2.5,Win32,60,z,1,1.18627,,,,,,,,1.18627,1,,,,,,357,NW,"ID",33,derain,DERAIN,z,,,,,,0.02962963,-0.378703704,0,0,0,,0,218,218,296,1,
,,,,,,,,,,,,,,,,,,5ebe9ba752363c05058883d8,2020-11-27_15h21.37.948,lexical_decision_task_MP_exp2,2020.2.5,Win32,60,m,1,0.66758,,,,,,,,0.66758,1,,,,,,162,WORD,"ID",16,candle,CANDLE,m,,,,,,0.02962963,-0.378703704,0,0,0,,0,219,219,101,1,
,,,,,,,,,,,,,,,,,,5ebe9ba752363c05058883d8,2020-11-27_15h21.37.948,lexical_decision_task_MP_exp2,2020.2.5,Win32,60,z,1,0.724045,,,,,,,,0.724045,1,,,,,,296,NW,UN,16,fertic,BEINCH,z,,,,,,0.02962963,-0.378703704,0,0,0,,0,220,220,475,1,
,,,,,,,,,,,,,,,,,,5ebe9ba752363c05058883d8,2020-11-27_15h21.37.948,lexical_decision_task_MP_exp2,2020.2.5,Win32,60,z,1,1.105155,,,,,,,,1.105155,1,,,,,,244,NW,UN,16,anougs,EATRIC,z,,,,,,0.02962963,-0.378703704,0,0,0,,0,221,221,423,1,
,,,,,,,,,,,,,,,,,,5ebe9ba752363c05058883d8,2020-11-27_15h21.37.948,lexical_decision_task_MP_exp2,2020.2.5,Win32,60,m,1,0.63806,,,,,,,,0.63806,1,,,,,,181,WORD,UN,33,winter,GLANCE,m,,,,,,0.02962963,-0.378703704,0,0,0,,0,222,222,120,1,
,,,,,,,,,,,,,,,,,,5ebe9ba752363c05058883d8,2020-11-27_15h21.37.948,lexical_decision_task_MP_exp2,2020.2.5,Win32,60,z,1,0.75113,,,,,,,,0.75113,1,,,,,,301,NW,"ID",33,fainch,FAINCH,z,,,,,,0.02962963,-0.378703704,0,0,0,,0,223,223,240,1,
,,,,,,,,,,,,,,,,,,5ebe9ba752363c05058883d8,2020-11-27_15h21.37.948,lexical_decision_task_MP_exp2,2020.2.5,Win32,60,m,1,0.61021,,,,,,,,0.61021,1,,,,,,96,WORD,"ID",33,ignore,IGNORE,m,,,,,,0.02962963,-0.378703704,0,0,0,,0,224,224,35,1,
,,,,,,,,,,,,,,,,,,5ebe9ba752363c05058883d8,2020-11-27_15h21.37.948,lexical_decision_task_MP_exp2,2020.2.5,Win32,60,m,1,0.738035,,,,,,,,0.738035,1,,,,,,13,WORD,UN,16,almost,STRIVE,m,,,,,,0.02962963,-0.378703704,0,0,0,,0,225,225,192,1,
,,,,,,,,,,,,,,,,,,5ebe9ba752363c05058883d8,2020-11-27_15h21.37.948,lexical_decision_task_MP_exp2,2020.2.5,Win32,60,m,1,0.68037,,,,,,,,0.68037,1,,,,,,223,WORD,UN,33,period,KIDNEY,m,,,,,,0.02962963,-0.378703704,0,0,0,,0,226,226,162,1,
,,,,,,,,,,,,,,,,,,5ebe9ba752363c05058883d8,2020-11-27_15h21.37.948,lexical_decision_task_MP_exp2,2020.2.5,Win32,60,m,1,0.59007,,,,,,,,0.59007,1,,,,,,65,WORD,"ID",33,symbol,SYMBOL,m,,,,,,0.02962963,-0.378703704,0,0,0,,0,227,227,4,1,
,,,,,,,,,,,,,,,,,,5ebe9ba752363c05058883d8,2020-11-27_15h21.37.948,lexical_decision_task_MP_exp2,2020.2.5,Win32,60,m,1,0.63961,,,,,,,,0.63961,1,,,,,,92,WORD,"ID",33,strand,STRAND,m,,,,,,0.02962963,-0.378703704,0,0,0,,0,228,228,31,1,
,,,,,,,,,,,,,,,,,,5ebe9ba752363c05058883d8,2020-11-27_15h21.37.948,lexical_decision_task_MP_exp2,2020.2.5,Win32,60,z,1,0.90152,,,,,,,,0.90152,1,,,,,,300,NW,UN,16,smenco,YARION,z,,,,,,0.02962963,-0.378703704,0,0,0,,0,229,229,479,1,
,,,,,,,,,,,,,,,,,,5ebe9ba752363c05058883d8,2020-11-27_15h21.37.948,lexical_decision_task_MP_exp2,2020.2.5,Win32,60,m,1,0.654235,,,,,,,,0.654235,1,,,,,,37,WORD,UN,16,powder,INSULT,m,,,,,,0.02962963,-0.378703704,0,0,0,,0,230,230,216,1,
,,,,,,,,,,,,,,,,,,5ebe9ba752363c05058883d8,2020-11-27_15h21.37.948,lexical_decision_task_MP_exp2,2020.2.5,Win32,60,z,1,0.84734,,,,,,,,0.84734,1,,,,,,278,NW,UN,16,celond,UNIGHS,z,,,,,,0.02962963,-0.378703704,0,0,0,,0,231,231,457,1,
,,,,,,,,,,,,,,,,,,5ebe9ba752363c05058883d8,2020-11-27_15h21.37.948,lexical_decision_task_MP_exp2,2020.2.5,Win32,60,m,1,0.6175,,,,,,,,0.6175,1,,,,,,174,WORD,"ID",16,turkey,TURKEY,m,,,,,,0.02962963,-0.378703704,0,0,0,,0,232,232,113,1,
,,,,,,,,,,,,,,,,,,5ebe9ba752363c05058883d8,2020-11-27_15h21.37.948,lexical_decision_task_MP_exp2,2020.2.5,Win32,60,z,1,0.866575,,,,,,,,0.866575,1,,,,,,399,NW,"ID",16,fouret,FOURET,z,,,,,,0.02962963,-0.378703704,0,0,0,,0,233,233,338,1,
,,,,,,,,,,,,,,,,,,5ebe9ba752363c05058883d8,2020-11-27_15h21.37.948,lexical_decision_task_MP_exp2,2020.2.5,Win32,60,m,1,0.76739,,,,,,,,0.76739,1,,,,,,154,WORD,"ID",16,author,AUTHOR,m,,,,,,0.02962963,-0.378703704,0,0,0,,0,234,234,93,1,
,,,,,,,,,,,,,,,,,,5ebe9ba752363c05058883d8,2020-11-27_15h21.37.948,lexical_decision_task_MP_exp2,2020.2.5,Win32,60,z,1,1.225795,,,,,,,,1.225795,1,,,,,,449,NW,UN,33,phrect,BRUNGE,z,,,,,,0.02962963,-0.378703704,0,0,0,,0,235,235,388,1,
,,,,,,,,,,,,,,,,,,5ebe9ba752363c05058883d8,2020-11-27_15h21.37.948,lexical_decision_task_MP_exp2,2020.2.5,Win32,60,m,1,0.64964,,,,,,,,0.64964,1,,,,,,3,WORD,UN,16,trench,KNIGHT,m,,,,,,0.02962963,-0.378703704,0,0,0,,0,236,236,182,1,
,,,,,,,,,,,,,,,,,,5ebe9ba752363c05058883d8,2020-11-27_15h21.37.948,lexical_decision_task_MP_exp2,2020.2.5,Win32,60,z,1,0.859245,,,,,,,,0.859245,1,,,,,,252,NW,UN,16,resait,STAPOD,z,,,,,,0.02962963,-0.378703704,0,0,0,,0,237,237,431,1,
,,,,,,,,,,,,,,,,,,5ebe9ba752363c05058883d8,2020-11-27_15h21.37.948,lexical_decision_task_MP_exp2,2020.2.5,Win32,60,z,1,0.76746,,,,,,,,0.76746,1,,,,,,317,NW,"ID",33,worbal,WORBAL,z,,,,,,0.02962963,-0.378703704,0,0,0,,0,238,238,256,1,
,,,,,,,,,,,,,,,,,,5ebe9ba752363c05058883d8,2020-11-27_15h21.37.948,lexical_decision_task_MP_exp2,2020.2.5,Win32,60,z,1,0.7905,,,,,,,,0.7905,1,,,,,,417,NW,"ID",16,earoud,EAROUD,z,,,,,,0.02962963,-0.378703704,0,0,0,,0,239,239,356,1,
,,,,,,,,,,,,,,,,,,5ebe9ba752363c05058883d8,2020-11-27_15h21.37.948,lexical_decision_task_MP_exp2,2020.2.5,Win32,60,z,1,0.823685,,,,,,,,0.823685,1,,,,,,441,NW,UN,33,aboune,RASTOE,z,,,,,,0.02962963,-0.378703704,0,0,0,,0,240,240,380,1,
,,,,,,,,,,,,,,,,,,5ebe9ba752363c05058883d8,2020-11-27_15h21.37.948,lexical_decision_task_MP_exp2,2020.2.5,Win32,60,m,1,0.66486,,,,,,,,0.66486,1,,,,,,61,WORD,"ID",33,ponder,PONDER,m,,,,,,0.02962963,-0.378703704,0,0,0,space,0,241,241,0,1,12.26194
,,,,,,,,,,,,,,,,,,5ebe9ba752363c05058883d8,2020-11-27_15h21.37.948,lexical_decision_task_MP_exp2,2020.2.5,Win32,60,z,1,0.705715,,,,,,,,0.705715,1,,,,,,400,NW,"ID",16,wearox,WEAROX,z,,,,,,0.02962963,-0.378703704,0,0,0,,0,242,242,339,1,
,,,,,,,,,,,,,,,,,,5ebe9ba752363c05058883d8,2020-11-27_15h21.37.948,lexical_decision_task_MP_exp2,2020.2.5,Win32,60,m,1,0.71331,,,,,,,,0.71331,1,,,,,,23,WORD,UN,16,praise,WEALTH,m,,,,,,0.02962963,-0.378703704,0,0,0,,0,243,243,202,1,
,,,,,,,,,,,,,,,,,,5ebe9ba752363c05058883d8,2020-11-27_15h21.37.948,lexical_decision_task_MP_exp2,2020.2.5,Win32,60,z,1,0.80762,,,,,,,,0.80762,1,,,,,,416,NW,"ID",16,pathel,PATHEL,z,,,,,,0.02962963,-0.378703704,0,0,0,,0,244,244,355,1,
,,,,,,,,,,,,,,,,,,5ebe9ba752363c05058883d8,2020-11-27_15h21.37.948,lexical_decision_task_MP_exp2,2020.2.5,Win32,60,z,1,0.75323,,,,,,,,0.75323,1,,,,,,479,NW,UN,33,crible,LOBUSH,z,,,,,,0.02962963,-0.378703704,0,0,0,,0,245,245,418,1,
,,,,,,,,,,,,,,,,,,5ebe9ba752363c05058883d8,2020-11-27_15h21.37.948,lexical_decision_task_MP_exp2,2020.2.5,Win32,60,m,1,0.764665,,,,,,,,0.764665,1,,,,,,36,WORD,UN,16,insult,VANISH,m,,,,,,0.02962963,-0.378703704,0,0,0,,0,246,246,215,1,
,,,,,,,,,,,,,,,,,,5ebe9ba752363c05058883d8,2020-11-27_15h21.37.948,lexical_decision_task_MP_exp2,2020.2.5,Win32,60,z,1,0.70376,,,,,,,,0.70376,1,,,,,,388,NW,"ID",16,cragin,CRAGIN,z,,,,,,0.02962963,-0.378703704,0,0,0,,0,247,247,327,1,
,,,,,,,,,,,,,,,,,,5ebe9ba752363c05058883d8,2020-11-27_15h21.37.948,lexical_decision_task_MP_exp2,2020.2.5,Win32,60,z,1,0.85377,,,,,,,,0.85377,1,,,,,,327,NW,"ID",33,plenac,PLENAC,z,,,,,,0.02962963,-0.378703704,0,0,0,,0,248,248,266,1,
,,,,,,,,,,,,,,,,,,5ebe9ba752363c05058883d8,2020-11-27_15h21.37.948,lexical_decision_task_MP_exp2,2020.2.5,Win32,60,z,1,0.88671,,,,,,,,0.88671,1,,,,,,255,NW,UN,16,inlors,APIGHT,z,,,,,,0.02962963,-0.378703704,0,0,0,,0,249,249,434,1,
,,,,,,,,,,,,,,,,,,5ebe9ba752363c05058883d8,2020-11-27_15h21.37.948,lexical_decision_task_MP_exp2,2020.2.5,Win32,60,m,1,0.630415,,,,,,,,0.630415,1,,,,,,232,WORD,UN,33,nature,INJECT,m,,,,,,0.02962963,-0.378703704,0,0,0,,0,250,250,171,1,
,,,,,,,,,,,,,,,,,,5ebe9ba752363c05058883d8,2020-11-27_15h21.37.948,lexical_decision_task_MP_exp2,2020.2.5,Win32,60,z,1,0.78126,,,,,,,,0.78126,1,,,,,,440,NW,UN,33,rastoe,SARIDE,z,,,,,,0.02962963,-0.378703704,0,0,0,,0,251,251,379,1,
,,,,,,,,,,,,,,,,,,5ebe9ba752363c05058883d8,2020-11-27_15h21.37.948,lexical_decision_task_MP_exp2,2020.2.5,Win32,60,m,1,0.669195,,,,,,,,0.669195,1,,,,,,227,WORD,UN,33,master,SELDOM,m,,,,,,0.02962963,-0.378703704,0,0,0,,0,252,252,166,1,
,,,,,,,,,,,,,,,,,,5ebe9ba752363c05058883d8,2020-11-27_15h21.37.948,lexical_decision_task_MP_exp2,2020.2.5,Win32,60,m,1,0.556285,,,,,,,,0.556285,1,,,,,,155,WORD,"ID",16,lizard,LIZARD,m,,,,,,0.02962963,-0.378703704,0,0,0,,0,253,253,94,1,
,,,,,,,,,,,,,,,,,,5ebe9ba752363c05058883d8,2020-11-27_15h21.37.948,lexical_decision_task_MP_exp2,2020.2.5,Win32,60,m,1,0.681075,,,,,,,,0.681075,1,,,,,,199,WORD,UN,33,plague,INVOKE,m,,,,,,0.02962963,-0.378703704,0,0,0,,0,254,254,138,1,
,,,,,,,,,,,,,,,,,,5ebe9ba752363c05058883d8,2020-11-27_15h21.37.948,lexical_decision_task_MP_exp2,2020.2.5,Win32,60,z,1,0.990475,,,,,,,,0.990475,1,,,,,,428,NW,UN,33,funtle,TANDLY,z,,,,,,0.02962963,-0.378703704,0,0,0,,0,255,255,367,1,
,,,,,,,,,,,,,,,,,,5ebe9ba752363c05058883d8,2020-11-27_15h21.37.948,lexical_decision_task_MP_exp2,2020.2.5,Win32,60,m,1,0.640255,,,,,,,,0.640255,1,,,,,,90,WORD,"ID",33,relish,RELISH,m,,,,,,0.02962963,-0.378703704,0,0,0,,0,256,256,29,1,
,,,,,,,,,,,,,,,,,,5ebe9ba752363c05058883d8,2020-11-27_15h21.37.948,lexical_decision_task_MP_exp2,2020.2.5,Win32,60,m,1,0.609485,,,,,,,,0.609485,1,,,,,,95,WORD,"ID",33,thread,THREAD,m,,,,,,0.02962963,-0.378703704,0,0,0,,0,257,257,34,1,
,,,,,,,,,,,,,,,,,,5ebe9ba752363c05058883d8,2020-11-27_15h21.37.948,lexical_decision_task_MP_exp2,2020.2.5,Win32,60,z,1,0.98579,,,,,,,,0.98579,1,,,,,,362,NW,"ID",16,tireau,TIREAU,z,,,,,,0.02962963,-0.378703704,0,0,0,,0,258,258,301,1,
,,,,,,,,,,,,,,,,,,5ebe9ba752363c05058883d8,2020-11-27_15h21.37.948,lexical_decision_task_MP_exp2,2020.2.5,Win32,60,m,1,0.833365,,,,,,,,0.833365,1,,,,,,175,WORD,"ID",16,fabric,FABRIC,m,,,,,,0.02962963,-0.378703704,0,0,0,,0,259,259,114,1,
,,,,,,,,,,,,,,,,,,5ebe9ba752363c05058883d8,2020-11-27_15h21.37.948,lexical_decision_task_MP_exp2,2020.2.5,Win32,60,m,1,0.767805,,,,,,,,0.767805,1,,,,,,89,WORD,"ID",33,permit,PERMIT,m,,,,,,0.02962963,-0.378703704,0,0,0,,0,260,260,28,1,
,,,,,,,,,,,,,,,,,,5ebe9ba752363c05058883d8,2020-11-27_15h21.37.948,lexical_decision_task_MP_exp2,2020.2.5,Win32,60,m,1,0.914105,,,,,,,,0.914105,1,,,,,,212,WORD,UN,33,squeal,VERIFY,m,,,,,,0.02962963,-0.378703704,0,0,0,,0,261,261,151,1,
,,,,,,,,,,,,,,,,,,5ebe9ba752363c05058883d8,2020-11-27_15h21.37.948,lexical_decision_task_MP_exp2,2020.2.5,Win32,60,m,1,1.1467,,,,,,,,1.1467,1,,,,,,111,WORD,"ID",33,induce,INDUCE,m,,,,,,0.02962963,-0.378703704,0,0,0,,0,262,262,50,1,
,,,,,,,,,,,,,,,,,,5ebe9ba752363c05058883d8,2020-11-27_15h21.37.948,lexical_decision_task_MP_exp2,2020.2.5,Win32,60,m,1,0.580215,,,,,,,,0.580215,1,,,,,,12,WORD,UN,16,strive,ORANGE,m,,,,,,0.02962963,-0.378703704,0,0,0,,0,263,263,191,1,
,,,,,,,,,,,,,,,,,,5ebe9ba752363c05058883d8,2020-11-27_15h21.37.948,lexical_decision_task_MP_exp2,2020.2.5,Win32,60,m,1,0.666545,,,,,,,,0.666545,1,,,,,,136,WORD,"ID",16,bleach,BLEACH,m,,,,,,0.02962963,-0.378703704,0,0,0,,0,264,264,75,1,
,,,,,,,,,,,,,,,,,,5ebe9ba752363c05058883d8,2020-11-27_15h21.37.948,lexical_decision_task_MP_exp2,2020.2.5,Win32,60,z,1,0.91774,,,,,,,,0.91774,1,,,,,,382,NW,"ID",16,sarley,SARLEY,z,,,,,,0.02962963,-0.378703704,0,0,0,,0,265,265,321,1,
,,,,,,,,,,,,,,,,,,5ebe9ba752363c05058883d8,2020-11-27_15h21.37.948,lexical_decision_task_MP_exp2,2020.2.5,Win32,60,m,1,0.85125,,,,,,,,0.85125,1,,,,,,146,WORD,"ID",16,couple,COUPLE,m,,,,,,0.02962963,-0.378703704,0,0,0,,0,266,266,85,1,
,,,,,,,,,,,,,,,,,,5ebe9ba752363c05058883d8,2020-11-27_15h21.37.948,lexical_decision_task_MP_exp2,2020.2.5,Win32,60,z,1,0.881705,,,,,,,,0.881705,1,,,,,,376,NW,"ID",16,iguare,IGUARE,z,,,,,,0.02962963,-0.378703704,0,0,0,,0,267,267,315,1,
,,,,,,,,,,,,,,,,,,5ebe9ba752363c05058883d8,2020-11-27_15h21.37.948,lexical_decision_task_MP_exp2,2020.2.5,Win32,60,z,1,0.742005,,,,,,,,0.742005,1,,,,,,370,NW,"ID",16,sleact,SLEACT,z,,,,,,0.02962963,-0.378703704,0,0,0,,0,268,268,309,1,
,,,,,,,,,,,,,,,,,,5ebe9ba752363c05058883d8,2020-11-27_15h21.37.948,lexical_decision_task_MP_exp2,2020.2.5,Win32,60,m,1,1.07394,,,,,,,,1.07394,1,,,,,,189,WORD,UN,33,backup,CENSOR,m,,,,,,0.02962963,-0.378703704,0,0,0,,0,269,269,128,1,
,,,,,,,,,,,,,,,,,,5ebe9ba752363c05058883d8,2020-11-27_15h21.37.948,lexical_decision_task_MP_exp2,2020.2.5,Win32,60,z,1,1.056035,,,,,,,,1.056035,1,,,,,,306,NW,"ID",33,sounge,SOUNGE,z,,,,,,0.02962963,-0.378703704,0,0,0,,0,270,270,245,1,
,,,,,,,,,,,,,,,,,,5ebe9ba752363c05058883d8,2020-11-27_15h21.37.948,lexical_decision_task_MP_exp2,2020.2.5,Win32,60,m,1,0.73612,,,,,,,,0.73612,1,,,,,,127,WORD,"ID",16,castle,CASTLE,m,,,,,,0.02962963,-0.378703704,0,0,0,,0,271,271,66,1,
,,,,,,,,,,,,,,,,,,5ebe9ba752363c05058883d8,2020-11-27_15h21.37.948,lexical_decision_task_MP_exp2,2020.2.5,Win32,60,m,1,0.63515,,,,,,,,0.63515,1,,,,,,159,WORD,"ID",16,detail,DETAIL,m,,,,,,0.02962963,-0.378703704,0,0,0,,0,272,272,98,1,
,,,,,,,,,,,,,,,,,,5ebe9ba752363c05058883d8,2020-11-27_15h21.37.948,lexical_decision_task_MP_exp2,2020.2.5,Win32,60,m,1,0.86421,,,,,,,,0.86421,1,,,,,,4,WORD,UN,16,plunge,TRENCH,m,,,,,,0.02962963,-0.378703704,0,0,0,,0,273,273,183,1,
,,,,,,,,,,,,,,,,,,5ebe9ba752363c05058883d8,2020-11-27_15h21.37.948,lexical_decision_task_MP_exp2,2020.2.5,Win32,60,m,1,0.58823,,,,,,,,0.58823,1,,,,,,210,WORD,UN,33,infect,MONKEY,m,,,,,,0.02962963,-0.378703704,0,0,0,,0,274,274,149,1,
,,,,,,,,,,,,,,,,,,5ebe9ba752363c05058883d8,2020-11-27_15h21.37.948,lexical_decision_task_MP_exp2,2020.2.5,Win32,60,m,1,0.83841,,,,,,,,0.83841,1,,,,,,50,WORD,UN,16,hungry,SNATCH,m,,,,,,0.02962963,-0.378703704,0,0,0,,0,275,275,229,1,
,,,,,,,,,,,,,,,,,,5ebe9ba752363c05058883d8,2020-11-27_15h21.37.948,lexical_decision_task_MP_exp2,2020.2.5,Win32,60,z,1,1.006175,,,,,,,,1.006175,1,,,,,,262,NW,UN,16,dolica,QUILEW,z,,,,,,0.02962963,-0.378703704,0,0,0,,0,276,276,441,1,
,,,,,,,,,,,,,,,,,,5ebe9ba752363c05058883d8,2020-11-27_15h21.37.948,lexical_decision_task_MP_exp2,2020.2.5,Win32,60,m,1,0.62972,,,,,,,,0.62972,1,,,,,,124,WORD,"ID",16,blouse,BLOUSE,m,,,,,,0.02962963,-0.378703704,0,0,0,,0,277,277,63,1,
,,,,,,,,,,,,,,,,,,5ebe9ba752363c05058883d8,2020-11-27_15h21.37.948,lexical_decision_task_MP_exp2,2020.2.5,Win32,60,m,1,0.849885,,,,,,,,0.849885,1,,,,,,183,WORD,UN,33,sleazy,MILDEW,m,,,,,,0.02962963,-0.378703704,0,0,0,,0,278,278,122,1,
,,,,,,,,,,,,,,,,,,5ebe9ba752363c05058883d8,2020-11-27_15h21.37.948,lexical_decision_task_MP_exp2,2020.2.5,Win32,60,z,1,1.026305,,,,,,,,1.026305,1,,,,,,295,NW,UN,16,beinch,GLEATH,z,,,,,,0.02962963,-0.378703704,0,0,0,,0,279,279,474,1,
,,,,,,,,,,,,,,,,,,5ebe9ba752363c05058883d8,2020-11-27_15h21.37.948,lexical_decision_task_MP_exp2,2020.2.5,Win32,60,m,1,0.580825,,,,,,,,0.580825,1,,,,,,169,WORD,"ID",16,genius,GENIUS,m,,,,,,0.02962963,-0.378703704,0,0,0,,0,280,280,108,1,
,,,,,,,,,,,,,,,,,,5ebe9ba752363c05058883d8,2020-11-27_15h21.37.948,lexical_decision_task_MP_exp2,2020.2.5,Win32,60,z,1,1.17117,,,,,,,,1.17117,1,,,,,,266,NW,UN,16,pasink,VARMIT,z,,,,,,0.02962963,-0.378703704,0,0,0,,0,281,281,445,1,
,,,,,,,,,,,,,,,,,,5ebe9ba752363c05058883d8,2020-11-27_15h21.37.948,lexical_decision_task_MP_exp2,2020.2.5,Win32,60,m,1,0.96832,,,,,,,,0.96832,1,,,,,,180,WORD,"ID",16,silent,SILENT,m,,,,,,0.02962963,-0.378703704,0,0,0,,0,282,282,119,1,
,,,,,,,,,,,,,,,,,,5ebe9ba752363c05058883d8,2020-11-27_15h21.37.948,lexical_decision_task_MP_exp2,2020.2.5,Win32,60,z,1,1.031945,,,,,,,,1.031945,1,,,,,,284,NW,UN,16,prudge,SHAPLE,z,,,,,,0.02962963,-0.378703704,0,0,0,,0,283,283,463,1,
,,,,,,,,,,,,,,,,,,5ebe9ba752363c05058883d8,2020-11-27_15h21.37.948,lexical_decision_task_MP_exp2,2020.2.5,Win32,60,m,1,0.636435,,,,,,,,0.636435,1,,,,,,165,WORD,"ID",16,invest,INVEST,m,,,,,,0.02962963,-0.378703704,0,0,0,,0,284,284,104,1,
,,,,,,,,,,,,,,,,,,5ebe9ba752363c05058883d8,2020-11-27_15h21.37.948,lexical_decision_task_MP_exp2,2020.2.5,Win32,60,z,1,1.134395,,,,,,,,1.134395,1,,,,,,319,NW,"ID",33,zomber,ZOMBER,z,,,,,,0.02962963,-0.378703704,0,0,0,,0,285,285,258,1,
,,,,,,,,,,,,,,,,,,5ebe9ba752363c05058883d8,2020-11-27_15h21.37.948,lexical_decision_task_MP_exp2,2020.2.5,Win32,60,z,1,0.808785,,,,,,,,0.808785,1,,,,,,347,NW,"ID",33,kerift,KERIFT,z,,,,,,0.02962963,-0.378703704,0,0,0,,0,286,286,286,1,
,,,,,,,,,,,,,,,,,,5ebe9ba752363c05058883d8,2020-11-27_15h21.37.948,lexical_decision_task_MP_exp2,2020.2.5,Win32,60,m,1,0.675105,,,,,,,,0.675105,1,,,,,,157,WORD,"ID",16,dragon,DRAGON,m,,,,,,0.02962963,-0.378703704,0,0,0,,0,287,287,96,1,
,,,,,,,,,,,,,,,,,,5ebe9ba752363c05058883d8,2020-11-27_15h21.37.948,lexical_decision_task_MP_exp2,2020.2.5,Win32,60,m,1,0.690295,,,,,,,,0.690295,1,,,,,,142,WORD,"ID",16,spruce,SPRUCE,m,,,,,,0.02962963,-0.378703704,0,0,0,,0,288,288,81,1,
,,,,,,,,,,,,,,,,,,5ebe9ba752363c05058883d8,2020-11-27_15h21.37.948,lexical_decision_task_MP_exp2,2020.2.5,Win32,60,z,1,0.969635,,,,,,,,0.969635,1,,,,,,404,NW,"ID",16,cluirm,CLUIRM,z,,,,,,0.02962963,-0.378703704,0,0,0,,0,289,289,343,1,
,,,,,,,,,,,,,,,,,,5ebe9ba752363c05058883d8,2020-11-27_15h21.37.948,lexical_decision_task_MP_exp2,2020.2.5,Win32,60,z,1,0.83445,,,,,,,,0.83445,1,,,,,,290,NW,UN,16,pretch,SPLINO,z,,,,,,0.02962963,-0.378703704,0,0,0,,0,290,290,469,1,
,,,,,,,,,,,,,,,,,,5ebe9ba752363c05058883d8,2020-11-27_15h21.37.948,lexical_decision_task_MP_exp2,2020.2.5,Win32,60,z,1,0.78377,,,,,,,,0.78377,1,,,,,,414,NW,"ID",16,serbol,SERBOL,z,,,,,,0.02962963,-0.378703704,0,0,0,,0,291,291,353,1,
,,,,,,,,,,,,,,,,,,5ebe9ba752363c05058883d8,2020-11-27_15h21.37.948,lexical_decision_task_MP_exp2,2020.2.5,Win32,60,z,1,0.863805,,,,,,,,0.863805,1,,,,,,430,NW,UN,33,chrums,CAROEY,z,,,,,,0.02962963,-0.378703704,0,0,0,,0,292,292,369,1,
,,,,,,,,,,,,,,,,,,5ebe9ba752363c05058883d8,2020-11-27_15h21.37.948,lexical_decision_task_MP_exp2,2020.2.5,Win32,60,m,1,0.636925,,,,,,,,0.636925,1,,,,,,167,WORD,"ID",16,design,DESIGN,m,,,,,,0.02962963,-0.378703704,0,0,0,,0,293,293,106,1,
,,,,,,,,,,,,,,,,,,5ebe9ba752363c05058883d8,2020-11-27_15h21.37.948,lexical_decision_task_MP_exp2,2020.2.5,Win32,60,m,1,0.567375,,,,,,,,0.567375,1,,,,,,93,WORD,"ID",33,public,PUBLIC,m,,,,,,0.02962963,-0.378703704,0,0,0,,0,294,294,32,1,
,,,,,,,,,,,,,,,,,,5ebe9ba752363c05058883d8,2020-11-27_15h21.37.948,lexical_decision_task_MP_exp2,2020.2.5,Win32,60,m,1,1.02445,,,,,,,,1.02445,1,,,,,,99,WORD,"ID",33,fluent,FLUENT,m,,,,,,0.02962963,-0.378703704,0,0,0,,0,295,295,38,1,
,,,,,,,,,,,,,,,,,,5ebe9ba752363c05058883d8,2020-11-27_15h21.37.948,lexical_decision_task_MP_exp2,2020.2.5,Win32,60,z,1,1.08653,,,,,,,,1.08653,1,,,,,,363,NW,"ID",16,breali,BREALI,z,,,,,,0.02962963,-0.378703704,0,0,0,,0,296,296,302,1,
,,,,,,,,,,,,,,,,,,5ebe9ba752363c05058883d8,2020-11-27_15h21.37.948,lexical_decision_task_MP_exp2,2020.2.5,Win32,60,m,1,0.63369,,,,,,,,0.63369,1,,,,,,141,WORD,"ID",16,orphan,ORPHAN,m,,,,,,0.02962963,-0.378703704,0,0,0,,0,297,297,80,1,
,,,,,,,,,,,,,,,,,,5ebe9ba752363c05058883d8,2020-11-27_15h21.37.948,lexical_decision_task_MP_exp2,2020.2.5,Win32,60,m,1,0.56424,,,,,,,,0.56424,1,,,,,,121,WORD,"ID",16,thrive,THRIVE,m,,,,,,0.02962963,-0.378703704,0,0,0,,0,298,298,60,1,
,,,,,,,,,,,,,,,,,,5ebe9ba752363c05058883d8,2020-11-27_15h21.37.948,lexical_decision_task_MP_exp2,2020.2.5,Win32,60,m,1,0.65087,,,,,,,,0.65087,1,,,,,,149,WORD,"ID",16,invade,INVADE,m,,,,,,0.02962963,-0.378703704,0,0,0,,0,299,299,88,1,
,,,,,,,,,,,,,,,,,,5ebe9ba752363c05058883d8,2020-11-27_15h21.37.948,lexical_decision_task_MP_exp2,2020.2.5,Win32,60,m,1,0.750635,,,,,,,,0.750635,1,,,,,,116,WORD,"ID",33,tumble,TUMBLE,m,,,,,,0.02962963,-0.378703704,0,0,0,,0,300,300,55,1,
,,,,,,,,,,,,,,,,,,5ebe9ba752363c05058883d8,2020-11-27_15h21.37.948,lexical_decision_task_MP_exp2,2020.2.5,Win32,60,z,1,1.00707,,,,,,,,1.00707,1,,,,,,434,NW,UN,33,impurb,PITROM,z,,,,,,0.02962963,-0.378703704,0,0,0,,0,301,301,373,1,
,,,,,,,,,,,,,,,,,,5ebe9ba752363c05058883d8,2020-11-27_15h21.37.948,lexical_decision_task_MP_exp2,2020.2.5,Win32,60,z,1,0.930365,,,,,,,,0.930365,1,,,,,,258,NW,UN,16,soudal,POLUTH,z,,,,,,0.02962963,-0.378703704,0,0,0,,0,302,302,437,1,
,,,,,,,,,,,,,,,,,,5ebe9ba752363c05058883d8,2020-11-27_15h21.37.948,lexical_decision_task_MP_exp2,2020.2.5,Win32,60,z,1,1.106375,,,,,,,,1.106375,1,,,,,,396,NW,"ID",16,flengy,FLENGY,z,,,,,,0.02962963,-0.378703704,0,0,0,,0,303,303,335,1,
,,,,,,,,,,,,,,,,,,5ebe9ba752363c05058883d8,2020-11-27_15h21.37.948,lexical_decision_task_MP_exp2,2020.2.5,Win32,60,z,1,0.75533,,,,,,,,0.75533,1,,,,,,254,NW,UN,16,apight,VAROSH,z,,,,,,0.02962963,-0.378703704,0,0,0,,0,304,304,433,1,
,,,,,,,,,,,,,,,,,,5ebe9ba752363c05058883d8,2020-11-27_15h21.37.948,lexical_decision_task_MP_exp2,2020.2.5,Win32,60,z,1,1.33442,,,,,,,,1.33442,1,,,,,,433,NW,UN,33,pitrom,DRANCE,z,,,,,,0.02962963,-0.378703704,0,0,0,,0,305,305,372,1,
,,,,,,,,,,,,,,,,,,5ebe9ba752363c05058883d8,2020-11-27_15h21.37.948,lexical_decision_task_MP_exp2,2020.2.5,Win32,60,m,1,0.72022,,,,,,,,0.72022,1,,,,,,59,WORD,UN,16,pencil,SPLINT,m,,,,,,0.02962963,-0.378703704,0,0,0,,0,306,306,238,1,
,,,,,,,,,,,,,,,,,,5ebe9ba752363c05058883d8,2020-11-27_15h21.37.948,lexical_decision_task_MP_exp2,2020.2.5,Win32,60,z,1,1.081145,,,,,,,,1.081145,1,,,,,,269,NW,UN,16,wrimsy,ORCHET,z,,,,,,0.02962963,-0.378703704,0,0,0,,0,307,307,448,1,
,,,,,,,,,,,,,,,,,,5ebe9ba752363c05058883d8,2020-11-27_15h21.37.948,lexical_decision_task_MP_exp2,2020.2.5,Win32,60,m,1,0.87091,,,,,,,,0.87091,1,,,,,,237,WORD,UN,33,glance,POSTER,m,,,,,,0.02962963,-0.378703704,0,0,0,,0,308,308,176,1,
,,,,,,,,,,,,,,,,,,5ebe9ba752363c05058883d8,2020-11-27_15h21.37.948,lexical_decision_task_MP_exp2,2020.2.5,Win32,60,m,1,0.590185,,,,,,,,0.590185,1,,,,,,22,WORD,UN,16,wealth,JOCKEY,m,,,,,,0.02962963,-0.378703704,0,0,0,,0,309,309,201,1,
,,,,,,,,,,,,,,,,,,5ebe9ba752363c05058883d8,2020-11-27_15h21.37.948,lexical_decision_task_MP_exp2,2020.2.5,Win32,60,m,1,0.60849,,,,,,,,0.60849,1,,,,,,221,WORD,UN,33,hinder,MASCOT,m,,,,,,0.02962963,-0.378703704,0,0,0,,0,310,310,160,1,
,,,,,,,,,,,,,,,,,,5ebe9ba752363c05058883d8,2020-11-27_15h21.37.948,lexical_decision_task_MP_exp2,2020.2.5,Win32,60,z,1,1.017495,,,,,,,,1.017495,1,,,,,,338,NW,"ID",33,wreash,WREASH,z,,,,,,0.02962963,-0.378703704,0,0,0,,0,311,311,277,1,
,,,,,,,,,,,,,,,,,,5ebe9ba752363c05058883d8,2020-11-27_15h21.37.948,lexical_decision_task_MP_exp2,2020.2.5,Win32,60,m,1,0.666535,,,,,,,,0.666535,1,,,,,,185,WORD,UN,33,portal,BOTHER,m,,,,,,0.02962963,-0.378703704,0,0,0,,0,312,312,124,1,
,,,,,,,,,,,,,,,,,,5ebe9ba752363c05058883d8,2020-11-27_15h21.37.948,lexical_decision_task_MP_exp2,2020.2.5,Win32,60,z,1,0.818425,,,,,,,,0.818425,1,,,,,,321,NW,"ID",33,miator,MIATOR,z,,,,,,0.02962963,-0.378703704,0,0,0,,0,313,313,260,1,
,,,,,,,,,,,,,,,,,,5ebe9ba752363c05058883d8,2020-11-27_15h21.37.948,lexical_decision_task_MP_exp2,2020.2.5,Win32,60,m,1,0.70589,,,,,,,,0.70589,1,,,,,,73,WORD,"ID",33,source,SOURCE,m,,,,,,0.02962963,-0.378703704,0,0,0,,0,314,314,12,1,
,,,,,,,,,,,,,,,,,,5ebe9ba752363c05058883d8,2020-11-27_15h21.37.948,lexical_decision_task_MP_exp2,2020.2.5,Win32,60,m,1,0.88627,,,,,,,,0.88627,1,,,,,,1,WORD,UN,16,ethnic,FRIGHT,m,,,,,,0.02962963,-0.378703704,0,0,0,,0,315,315,180,1,
,,,,,,,,,,,,,,,,,,5ebe9ba752363c05058883d8,2020-11-27_15h21.37.948,lexical_decision_task_MP_exp2,2020.2.5,Win32,60,m,1,0.9492,,,,,,,,0.9492,1,,,,,,190,WORD,UN,33,stable,BACKUP,m,,,,,,0.02962963,-0.378703704,0,0,0,,0,316,316,129,1,
,,,,,,,,,,,,,,,,,,5ebe9ba752363c05058883d8,2020-11-27_15h21.37.948,lexical_decision_task_MP_exp2,2020.2.5,Win32,60,m,1,0.697505,,,,,,,,0.697505,1,,,,,,209,WORD,UN,33,monkey,SEARCH,m,,,,,,0.02962963,-0.378703704,0,0,0,,0,317,317,148,1,
,,,,,,,,,,,,,,,,,,5ebe9ba752363c05058883d8,2020-11-27_15h21.37.948,lexical_decision_task_MP_exp2,2020.2.5,Win32,60,z,1,1.03971,,,,,,,,1.03971,1,,,,,,247,NW,UN,16,strole,BLARGE,z,,,,,,0.02962963,-0.378703704,0,0,0,,0,318,318,426,1,
,,,,,,,,,,,,,,,,,,5ebe9ba752363c05058883d8,2020-11-27_15h21.37.948,lexical_decision_task_MP_exp2,2020.2.5,Win32,60,z,1,1.080705,,,,,,,,1.080705,1,,,,,,364,NW,"ID",16,impote,IMPOTE,z,,,,,,0.02962963,-0.378703704,0,0,0,,0,319,319,303,1,
,,,,,,,,,,,,,,,,,,5ebe9ba752363c05058883d8,2020-11-27_15h21.37.948,lexical_decision_task_MP_exp2,2020.2.5,Win32,60,z,1,0.94358,,,,,,,,0.94358,1,,,,,,431,NW,UN,33,lunker,CHRUMS,z,,,,,,0.02962963,-0.378703704,0,0,0,,0,320,320,370,1,
,,,,,,,,,,,,,,,,,,5ebe9ba752363c05058883d8,2020-11-27_15h21.37.948,lexical_decision_task_MP_exp2,2020.2.5,Win32,60,m,1,0.681645,,,,,,,,0.681645,1,,,,,,208,WORD,UN,33,search,HOCKEY,m,,,,,,0.02962963,-0.378703704,0,0,0,,0,321,321,147,1,
,,,,,,,,,,,,,,,,,,5ebe9ba752363c05058883d8,2020-11-27_15h21.37.948,lexical_decision_task_MP_exp2,2020.2.5,Win32,60,z,1,0.903775,,,,,,,,0.903775,1,,,,,,241,NW,UN,16,unwert,SMENCO,z,,,,,,0.02962963,-0.378703704,0,0,0,,0,322,322,420,1,
,,,,,,,,,,,,,,,,,,5ebe9ba752363c05058883d8,2020-11-27_15h21.37.948,lexical_decision_task_MP_exp2,2020.2.5,Win32,60,z,1,0.871035,,,,,,,,0.871035,1,,,,,,373,NW,"ID",16,bigent,BIGENT,z,,,,,,0.02962963,-0.378703704,0,0,0,,0,323,323,312,1,
,,,,,,,,,,,,,,,,,,5ebe9ba752363c05058883d8,2020-11-27_15h21.37.948,lexical_decision_task_MP_exp2,2020.2.5,Win32,60,m,1,0.64402,,,,,,,,0.64402,1,,,,,,122,WORD,"ID",16,linger,LINGER,m,,,,,,0.02962963,-0.378703704,0,0,0,,0,324,324,61,1,
,,,,,,,,,,,,,,,,,,5ebe9ba752363c05058883d8,2020-11-27_15h21.37.948,lexical_decision_task_MP_exp2,2020.2.5,Win32,60,z,1,0.91754,,,,,,,,0.91754,1,,,,,,385,NW,"ID",16,veigma,VEIGMA,z,,,,,,0.02962963,-0.378703704,0,0,0,,0,325,325,324,1,
,,,,,,,,,,,,,,,,,,5ebe9ba752363c05058883d8,2020-11-27_15h21.37.948,lexical_decision_task_MP_exp2,2020.2.5,Win32,60,z,1,0.7643,,,,,,,,0.7643,1,,,,,,361,NW,"ID",16,pauche,PAUCHE,z,,,,,,0.02962963,-0.378703704,0,0,0,,0,326,326,300,1,
,,,,,,,,,,,,,,,,,,5ebe9ba752363c05058883d8,2020-11-27_15h21.37.948,lexical_decision_task_MP_exp2,2020.2.5,Win32,60,m,1,0.68065,,,,,,,,0.68065,1,,,,,,55,WORD,UN,16,ambush,STROKE,m,,,,,,0.02962963,-0.378703704,0,0,0,,0,327,327,234,1,
,,,,,,,,,,,,,,,,,,5ebe9ba752363c05058883d8,2020-11-27_15h21.37.948,lexical_decision_task_MP_exp2,2020.2.5,Win32,60,z,1,1.22268,,,,,,,,1.22268,1,,,,,,411,NW,"ID",16,orchin,ORCHIN,z,,,,,,0.02962963,-0.378703704,0,0,0,,0,328,328,350,1,
,,,,,,,,,,,,,,,,,,5ebe9ba752363c05058883d8,2020-11-27_15h21.37.948,lexical_decision_task_MP_exp2,2020.2.5,Win32,60,z,1,0.87762,,,,,,,,0.87762,1,,,,,,329,NW,"ID",33,yarike,YARIKE,z,,,,,,0.02962963,-0.378703704,0,0,0,,0,329,329,268,1,
,,,,,,,,,,,,,,,,,,5ebe9ba752363c05058883d8,2020-11-27_15h21.37.948,lexical_decision_task_MP_exp2,2020.2.5,Win32,60,m,1,0.79769,,,,,,,,0.79769,1,,,,,,48,WORD,UN,16,survey,WALNUT,m,,,,,,0.02962963,-0.378703704,0,0,0,,0,330,330,227,1,
,,,,,,,,,,,,,,,,,,5ebe9ba752363c05058883d8,2020-11-27_15h21.37.948,lexical_decision_task_MP_exp2,2020.2.5,Win32,60,m,1,0.599025,,,,,,,,0.599025,1,,,,,,235,WORD,UN,33,pirate,GRUMPY,m,,,,,,0.02962963,-0.378703704,0,0,0,,0,331,331,174,1,
,,,,,,,,,,,,,,,,,,5ebe9ba752363c05058883d8,2020-11-27_15h21.37.948,lexical_decision_task_MP_exp2,2020.2.5,Win32,60,z,1,0.816765,,,,,,,,0.816765,1,,,,,,391,NW,"ID",16,theldy,THELDY,z,,,,,,0.02962963,-0.378703704,0,0,0,,0,332,332,330,1,
,,,,,,,,,,,,,,,,,,5ebe9ba752363c05058883d8,2020-11-27_15h21.37.948,lexical_decision_task_MP_exp2,2020.2.5,Win32,60,m,1,0.71457,,,,,,,,0.71457,1,,,,,,98,WORD,"ID",33,belong,BELONG,m,,,,,,0.02962963,-0.378703704,0,0,0,,0,333,333,37,1,
,,,,,,,,,,,,,,,,,,5ebe9ba752363c05058883d8,2020-11-27_15h21.37.948,lexical_decision_task_MP_exp2,2020.2.5,Win32,60,m,1,0.76603,,,,,,,,0.76603,1,,,,,,205,WORD,UN,33,tailor,LOUNGE,m,,,,,,0.02962963,-0.378703704,0,0,0,,0,334,334,144,1,
,,,,,,,,,,,,,,,,,,5ebe9ba752363c05058883d8,2020-11-27_15h21.37.948,lexical_decision_task_MP_exp2,2020.2.5,Win32,60,m,1,0.62484,,,,,,,,0.62484,1,,,,,,88,WORD,"ID",33,hunger,HUNGER,m,,,,,,0.02962963,-0.378703704,0,0,0,,0,335,335,27,1,
,,,,,,,,,,,,,,,,,,5ebe9ba752363c05058883d8,2020-11-27_15h21.37.948,lexical_decision_task_MP_exp2,2020.2.5,Win32,60,m,1,0.964595,,,,,,,,0.964595,1,,,,,,158,WORD,"ID",16,island,ISLAND,m,,,,,,0.02962963,-0.378703704,0,0,0,,0,336,336,97,1,
,,,,,,,,,,,,,,,,,,5ebe9ba752363c05058883d8,2020-11-27_15h21.37.948,lexical_decision_task_MP_exp2,2020.2.5,Win32,60,z,1,0.700565,,,,,,,,0.700565,1,,,,,,375,NW,"ID",16,yorque,YORQUE,z,,,,,,0.02962963,-0.378703704,0,0,0,,0,337,337,314,1,
,,,,,,,,,,,,,,,,,,5ebe9ba752363c05058883d8,2020-11-27_15h21.37.948,lexical_decision_task_MP_exp2,2020.2.5,Win32,60,z,1,1.15537,,,,,,,,1.15537,1,,,,,,292,NW,UN,16,swance,ABLINT,z,,,,,,0.02962963,-0.378703704,0,0,0,,0,338,338,471,1,
,,,,,,,,,,,,,,,,,,5ebe9ba752363c05058883d8,2020-11-27_15h21.37.948,lexical_decision_task_MP_exp2,2020.2.5,Win32,60,z,1,0.93368,,,,,,,,0.93368,1,,,,,,392,NW,"ID",16,rouncy,ROUNCY,z,,,,,,0.02962963,-0.378703704,0,0,0,,0,339,339,331,1,
,,,,,,,,,,,,,,,,,,5ebe9ba752363c05058883d8,2020-11-27_15h21.37.948,lexical_decision_task_MP_exp2,2020.2.5,Win32,60,z,1,1.099775,,,,,,,,1.099775,1,,,,,,458,NW,UN,33,hocite,BARCET,z,,,,,,0.02962963,-0.378703704,0,0,0,,0,340,340,397,1,
,,,,,,,,,,,,,,,,,,5ebe9ba752363c05058883d8,2020-11-27_15h21.37.948,lexical_decision_task_MP_exp2,2020.2.5,Win32,60,z,1,1.03324,,,,,,,,1.03324,1,,,,,,272,NW,UN,16,sortel,DAMILT,z,,,,,,0.02962963,-0.378703704,0,0,0,,0,341,341,451,1,
,,,,,,,,,,,,,,,,,,5ebe9ba752363c05058883d8,2020-11-27_15h21.37.948,lexical_decision_task_MP_exp2,2020.2.5,Win32,60,z,1,1.033895,,,,,,,,1.033895,1,,,,,,401,NW,"ID",16,mustil,MUSTIL,z,,,,,,0.02962963,-0.378703704,0,0,0,,0,342,342,340,1,
,,,,,,,,,,,,,,,,,,5ebe9ba752363c05058883d8,2020-11-27_15h21.37.948,lexical_decision_task_MP_exp2,2020.2.5,Win32,60,z,1,0.986265,,,,,,,,0.986265,1,,,,,,384,NW,"ID",16,guesco,GUESCO,z,,,,,,0.02962963,-0.378703704,0,0,0,,0,343,343,323,1,
,,,,,,,,,,,,,,,,,,5ebe9ba752363c05058883d8,2020-11-27_15h21.37.948,lexical_decision_task_MP_exp2,2020.2.5,Win32,60,z,1,1.018065,,,,,,,,1.018065,1,,,,,,387,NW,"ID",16,gronce,GRONCE,z,,,,,,0.02962963,-0.378703704,0,0,0,,0,344,344,326,1,
,,,,,,,,,,,,,,,,,,5ebe9ba752363c05058883d8,2020-11-27_15h21.37.948,lexical_decision_task_MP_exp2,2020.2.5,Win32,60,z,1,0.870095,,,,,,,,0.870095,1,,,,,,312,NW,"ID",33,nerawl,NERAWL,z,,,,,,0.02962963,-0.378703704,0,0,0,,0,345,345,251,1,
,,,,,,,,,,,,,,,,,,5ebe9ba752363c05058883d8,2020-11-27_15h21.37.948,lexical_decision_task_MP_exp2,2020.2.5,Win32,60,m,1,0.62933,,,,,,,,0.62933,1,,,,,,83,WORD,"ID",33,result,RESULT,m,,,,,,0.02962963,-0.378703704,0,0,0,,0,346,346,22,1,
,,,,,,,,,,,,,,,,,,5ebe9ba752363c05058883d8,2020-11-27_15h21.37.948,lexical_decision_task_MP_exp2,2020.2.5,Win32,60,z,1,0.949255,,,,,,,,0.949255,1,,,,,,293,NW,UN,16,inhort,SWANCE,z,,,,,,0.02962963,-0.378703704,0,0,0,,0,347,347,472,1,
,,,,,,,,,,,,,,,,,,5ebe9ba752363c05058883d8,2020-11-27_15h21.37.948,lexical_decision_task_MP_exp2,2020.2.5,Win32,60,z,1,0.69481,,,,,,,,0.69481,1,,,,,,367,NW,"ID",16,slique,SLIQUE,z,,,,,,0.02962963,-0.378703704,0,0,0,,0,348,348,306,1,
,,,,,,,,,,,,,,,,,,5ebe9ba752363c05058883d8,2020-11-27_15h21.37.948,lexical_decision_task_MP_exp2,2020.2.5,Win32,60,z,1,0.99064,,,,,,,,0.99064,1,,,,,,410,NW,"ID",16,tunory,TUNORY,z,,,,,,0.02962963,-0.378703704,0,0,0,,0,349,349,349,1,
,,,,,,,,,,,,,,,,,,5ebe9ba752363c05058883d8,2020-11-27_15h21.37.948,lexical_decision_task_MP_exp2,2020.2.5,Win32,60,z,1,0.873025,,,,,,,,0.873025,1,,,,,,447,NW,UN,33,sadent,GIRCUE,z,,,,,,0.02962963,-0.378703704,0,0,0,,0,350,350,386,1,
,,,,,,,,,,,,,,,,,,5ebe9ba752363c05058883d8,2020-11-27_15h21.37.948,lexical_decision_task_MP_exp2,2020.2.5,Win32,60,z,1,0.769015,,,,,,,,0.769015,1,,,,,,477,NW,UN,33,lobush,PHOTIE,z,,,,,,0.02962963,-0.378703704,0,0,0,,0,351,351,416,1,
,,,,,,,,,,,,,,,,,,5ebe9ba752363c05058883d8,2020-11-27_15h21.37.948,lexical_decision_task_MP_exp2,2020.2.5,Win32,60,m,1,0.715335,,,,,,,,0.715335,1,,,,,,24,WORD,UN,16,domain,PRAISE,m,,,,,,0.02962963,-0.378703704,0,0,0,,0,352,352,203,1,
,,,,,,,,,,,,,,,,,,5ebe9ba752363c05058883d8,2020-11-27_15h21.37.948,lexical_decision_task_MP_exp2,2020.2.5,Win32,60,z,1,1.000925,,,,,,,,1.000925,1,,,,,,349,NW,"ID",33,asylen,ASYLEN,z,,,,,,0.02962963,-0.378703704,0,0,0,,0,353,353,288,1,
,,,,,,,,,,,,,,,,,,5ebe9ba752363c05058883d8,2020-11-27_15h21.37.948,lexical_decision_task_MP_exp2,2020.2.5,Win32,60,z,1,1.0336,,,,,,,,1.0336,1,,,,,,412,NW,"ID",16,jiluer,JILUER,z,,,,,,0.02962963,-0.378703704,0,0,0,,0,354,354,351,1,
,,,,,,,,,,,,,,,,,,5ebe9ba752363c05058883d8,2020-11-27_15h21.37.948,lexical_decision_task_MP_exp2,2020.2.5,Win32,60,m,1,0.59694,,,,,,,,0.59694,1,,,,,,135,WORD,"ID",16,import,IMPORT,m,,,,,,0.02962963,-0.378703704,0,0,0,,0,355,355,74,1,
,,,,,,,,,,,,,,,,,,5ebe9ba752363c05058883d8,2020-11-27_15h21.37.948,lexical_decision_task_MP_exp2,2020.2.5,Win32,60,m,1,0.568275,,,,,,,,0.568275,1,,,,,,168,WORD,"ID",16,answer,ANSWER,m,,,,,,0.02962963,-0.378703704,0,0,0,,0,356,356,107,1,
,,,,,,,,,,,,,,,,,,5ebe9ba752363c05058883d8,2020-11-27_15h21.37.948,lexical_decision_task_MP_exp2,2020.2.5,Win32,60,z,1,1.53456,,,,,,,,1.53456,1,,,,,,408,NW,"ID",16,hurnia,HURNIA,z,,,,,,0.02962963,-0.378703704,0,0,0,,0,357,357,347,1,
,,,,,,,,,,,,,,,,,,5ebe9ba752363c05058883d8,2020-11-27_15h21.37.948,lexical_decision_task_MP_exp2,2020.2.5,Win32,60,z,1,1.37243,,,,,,,,1.37243,1,,,,,,476,NW,UN,33,photie,JOSTED,z,,,,,,0.02962963,-0.378703704,0,0,0,,0,358,358,415,1,
,,,,,,,,,,,,,,,,,,5ebe9ba752363c05058883d8,2020-11-27_15h21.37.948,lexical_decision_task_MP_exp2,2020.2.5,Win32,60,z,1,1.103275,,,,,,,,1.103275,1,,,,,,386,NW,"ID",16,ancust,ANCUST,z,,,,,,0.02962963,-0.378703704,0,0,0,,0,359,359,325,1,
,,,,,,,,,,,,,,,,,,5ebe9ba752363c05058883d8,2020-11-27_15h21.37.948,lexical_decision_task_MP_exp2,2020.2.5,Win32,60,z,1,1.220935,,,,,,,,1.220935,1,,,,,,299,NW,UN,16,yarion,STURCH,z,,,,,,0.02962963,-0.378703704,0,0,0,,0,360,360,478,1,
,,,,,,,,,,,,,,,,,,5ebe9ba752363c05058883d8,2020-11-27_15h21.37.948,lexical_decision_task_MP_exp2,2020.2.5,Win32,60,m,1,0.57348,,,,,,,,0.57348,1,,,,,,62,WORD,"ID",33,region,REGION,m,,,,,,0.02962963,-0.378703704,0,0,0,,0,361,361,1,1,
,,,,,,,,,,,,,,,,,,5ebe9ba752363c05058883d8,2020-11-27_15h21.37.948,lexical_decision_task_MP_exp2,2020.2.5,Win32,60,z,1,0.7685,,,,,,,,0.7685,1,,,,,,390,NW,"ID",16,hatrus,HATRUS,z,,,,,,0.02962963,-0.378703704,0,0,0,space,0,362,362,329,1,12.234885
,,,,,,,,,,,,,,,,,,5ebe9ba752363c05058883d8,2020-11-27_15h21.37.948,lexical_decision_task_MP_exp2,2020.2.5,Win32,60,m,1,0.82588,,,,,,,,0.82588,1,,,,,,220,WORD,UN,33,mascot,VOYAGE,m,,,,,,0.02962963,-0.378703704,0,0,0,,0,363,363,159,1,
,,,,,,,,,,,,,,,,,,5ebe9ba752363c05058883d8,2020-11-27_15h21.37.948,lexical_decision_task_MP_exp2,2020.2.5,Win32,60,z,1,0.94726,,,,,,,,0.94726,1,,,,,,435,NW,UN,33,frutan,IMPURB,z,,,,,,0.02962963,-0.378703704,0,0,0,,0,364,364,374,1,
,,,,,,,,,,,,,,,,,,5ebe9ba752363c05058883d8,2020-11-27_15h21.37.948,lexical_decision_task_MP_exp2,2020.2.5,Win32,60,z,1,0.95756,,,,,,,,0.95756,1,,,,,,343,NW,"ID",33,aimosy,AIMOSY,z,,,,,,0.02962963,-0.378703704,0,0,0,,0,365,365,282,1,
,,,,,,,,,,,,,,,,,,5ebe9ba752363c05058883d8,2020-11-27_15h21.37.948,lexical_decision_task_MP_exp2,2020.2.5,Win32,60,m,1,0.58479,,,,,,,,0.58479,1,,,,,,207,WORD,UN,33,hockey,WREATH,m,,,,,,0.02962963,-0.378703704,0,0,0,,0,366,366,146,1,
,,,,,,,,,,,,,,,,,,5ebe9ba752363c05058883d8,2020-11-27_15h21.37.948,lexical_decision_task_MP_exp2,2020.2.5,Win32,60,m,1,0.66718,,,,,,,,0.66718,1,,,,,,100,WORD,"ID",33,carbon,CARBON,m,,,,,,0.02962963,-0.378703704,0,0,0,,0,367,367,39,1,
,,,,,,,,,,,,,,,,,,5ebe9ba752363c05058883d8,2020-11-27_15h21.37.948,lexical_decision_task_MP_exp2,2020.2.5,Win32,60,m,1,0.596995,,,,,,,,0.596995,1,,,,,,27,WORD,UN,16,comedy,SCREAM,m,,,,,,0.02962963,-0.378703704,0,0,0,,0,368,368,206,1,
,,,,,,,,,,,,,,,,,,5ebe9ba752363c05058883d8,2020-11-27_15h21.37.948,lexical_decision_task_MP_exp2,2020.2.5,Win32,60,z,1,0.73939,,,,,,,,0.73939,1,,,,,,473,NW,UN,33,hablin,CRIBLE,z,,,,,,0.02962963,-0.378703704,0,0,0,,0,369,369,412,1,
,,,,,,,,,,,,,,,,,,5ebe9ba752363c05058883d8,2020-11-27_15h21.37.948,lexical_decision_task_MP_exp2,2020.2.5,Win32,60,z,1,0.766765,,,,,,,,0.766765,1,,,,,,257,NW,UN,16,poluth,VENIOD,z,,,,,,0.02962963,-0.378703704,0,0,0,,0,370,370,436,1,
,,,,,,,,,,,,,,,,,,5ebe9ba752363c05058883d8,2020-11-27_15h21.37.948,lexical_decision_task_MP_exp2,2020.2.5,Win32,60,m,1,0.68286,,,,,,,,0.68286,1,,,,,,67,WORD,"ID",33,policy,POLICY,m,,,,,,0.02962963,-0.378703704,0,0,0,,0,371,371,6,1,
,,,,,,,,,,,,,,,,,,5ebe9ba752363c05058883d8,2020-11-27_15h21.37.948,lexical_decision_task_MP_exp2,2020.2.5,Win32,60,z,1,0.62469,,,,,,,,0.62469,1,,,,,,463,NW,UN,33,chaite,KISPEL,z,,,,,,0.02962963,-0.378703704,0,0,0,,0,372,372,402,1,
,,,,,,,,,,,,,,,,,,5ebe9ba752363c05058883d8,2020-11-27_15h21.37.948,lexical_decision_task_MP_exp2,2020.2.5,Win32,60,z,1,0.89011,,,,,,,,0.89011,1,,,,,,265,NW,UN,16,varmit,DISTAR,z,,,,,,0.02962963,-0.378703704,0,0,0,,0,373,373,444,1,
,,,,,,,,,,,,,,,,,,5ebe9ba752363c05058883d8,2020-11-27_15h21.37.948,lexical_decision_task_MP_exp2,2020.2.5,Win32,60,m,1,0.720385,,,,,,,,0.720385,1,,,,,,200,WORD,UN,33,admire,BEACON,m,,,,,,0.02962963,-0.378703704,0,0,0,,0,374,374,139,1,
,,,,,,,,,,,,,,,,,,5ebe9ba752363c05058883d8,2020-11-27_15h21.37.948,lexical_decision_task_MP_exp2,2020.2.5,Win32,60,m,1,0.589565,,,,,,,,0.589565,1,,,,,,41,WORD,UN,16,chapel,SPRING,m,,,,,,0.02962963,-0.378703704,0,0,0,,0,375,375,220,1,
,,,,,,,,,,,,,,,,,,5ebe9ba752363c05058883d8,2020-11-27_15h21.37.948,lexical_decision_task_MP_exp2,2020.2.5,Win32,60,m,1,0.759325,,,,,,,,0.759325,1,,,,,,81,WORD,"ID",33,friend,FRIEND,m,,,,,,0.02962963,-0.378703704,0,0,0,,0,376,376,20,1,
,,,,,,,,,,,,,,,,,,5ebe9ba752363c05058883d8,2020-11-27_15h21.37.948,lexical_decision_task_MP_exp2,2020.2.5,Win32,60,z,1,0.958965,,,,,,,,0.958965,1,,,,,,403,NW,"ID",16,bruats,BRUATS,z,,,,,,0.02962963,-0.378703704,0,0,0,,0,377,377,342,1,
,,,,,,,,,,,,,,,,,,5ebe9ba752363c05058883d8,2020-11-27_15h21.37.948,lexical_decision_task_MP_exp2,2020.2.5,Win32,60,z,1,0.78244,,,,,,,,0.78244,1,,,,,,407,NW,"ID",16,suiver,SUIVER,z,,,,,,0.02962963,-0.378703704,0,0,0,,0,378,378,346,1,
,,,,,,,,,,,,,,,,,,5ebe9ba752363c05058883d8,2020-11-27_15h21.37.948,lexical_decision_task_MP_exp2,2020.2.5,Win32,60,z,1,1.12074,,,,,,,,1.12074,1,,,,,,328,NW,"ID",33,broake,BROAKE,z,,,,,,0.02962963,-0.378703704,0,0,0,,0,379,379,267,1,
,,,,,,,,,,,,,,,,,,5ebe9ba752363c05058883d8,2020-11-27_15h21.37.948,lexical_decision_task_MP_exp2,2020.2.5,Win32,60,z,1,1.02967,,,,,,,,1.02967,1,,,,,,460,NW,UN,33,justre,MINGAR,z,,,,,,0.02962963,-0.378703704,0,0,0,,0,380,380,399,1,
,,,,,,,,,,,,,,,,,,5ebe9ba752363c05058883d8,2020-11-27_15h21.37.948,lexical_decision_task_MP_exp2,2020.2.5,Win32,60,z,1,1.05403,,,,,,,,1.05403,1,,,,,,282,NW,UN,16,veralf,PORLEX,z,,,,,,0.02962963,-0.378703704,0,0,0,,0,381,381,461,1,
,,,,,,,,,,,,,,,,,,5ebe9ba752363c05058883d8,2020-11-27_15h21.37.948,lexical_decision_task_MP_exp2,2020.2.5,Win32,60,z,1,1.02565,,,,,,,,1.02565,1,,,,,,281,NW,UN,16,porlex,MELATY,z,,,,,,0.02962963,-0.378703704,0,0,0,,0,382,382,460,1,
,,,,,,,,,,,,,,,,,,5ebe9ba752363c05058883d8,2020-11-27_15h21.37.948,lexical_decision_task_MP_exp2,2020.2.5,Win32,60,m,1,0.566335,,,,,,,,0.566335,1,,,,,,70,WORD,"ID",33,square,SQUARE,m,,,,,,0.02962963,-0.378703704,0,0,0,,0,383,383,9,1,
,,,,,,,,,,,,,,,,,,5ebe9ba752363c05058883d8,2020-11-27_15h21.37.948,lexical_decision_task_MP_exp2,2020.2.5,Win32,60,m,1,0.732725,,,,,,,,0.732725,1,,,,,,16,WORD,UN,16,charge,FAUCET,m,,,,,,0.02962963,-0.378703704,0,0,0,,0,384,384,195,1,
,,,,,,,,,,,,,,,,,,5ebe9ba752363c05058883d8,2020-11-27_15h21.37.948,lexical_decision_task_MP_exp2,2020.2.5,Win32,60,m,1,0.590695,,,,,,,,0.590695,1,,,,,,145,WORD,"ID",16,parish,PARISH,m,,,,,,0.02962963,-0.378703704,0,0,0,,0,385,385,84,1,
,,,,,,,,,,,,,,,,,,5ebe9ba752363c05058883d8,2020-11-27_15h21.37.948,lexical_decision_task_MP_exp2,2020.2.5,Win32,60,m,1,0.714105,,,,,,,,0.714105,1,,,,,,133,WORD,"ID",16,chrome,CHROME,m,,,,,,0.02962963,-0.378703704,0,0,0,,0,386,386,72,1,
,,,,,,,,,,,,,,,,,,5ebe9ba752363c05058883d8,2020-11-27_15h21.37.948,lexical_decision_task_MP_exp2,2020.2.5,Win32,60,z,1,1.184095,,,,,,,,1.184095,1,,,,,,304,NW,"ID",33,cludie,CLUDIE,z,,,,,,0.02962963,-0.378703704,0,0,0,,0,387,387,243,1,
,,,,,,,,,,,,,,,,,,5ebe9ba752363c05058883d8,2020-11-27_15h21.37.948,lexical_decision_task_MP_exp2,2020.2.5,Win32,60,z,1,0.911905,,,,,,,,0.911905,1,,,,,,332,NW,"ID",33,vangue,VANGUE,z,,,,,,0.02962963,-0.378703704,0,0,0,,0,388,388,271,1,
,,,,,,,,,,,,,,,,,,5ebe9ba752363c05058883d8,2020-11-27_15h21.37.948,lexical_decision_task_MP_exp2,2020.2.5,Win32,60,m,1,0.883905,,,,,,,,0.883905,1,,,,,,11,WORD,UN,16,amount,CRUISE,m,,,,,,0.02962963,-0.378703704,0,0,0,,0,389,389,190,1,
,,,,,,,,,,,,,,,,,,5ebe9ba752363c05058883d8,2020-11-27_15h21.37.948,lexical_decision_task_MP_exp2,2020.2.5,Win32,60,z,1,1.260545,,,,,,,,1.260545,1,,,,,,249,NW,UN,16,milted,BATROL,z,,,,,,0.02962963,-0.378703704,0,0,0,,0,390,390,428,1,
,,,,,,,,,,,,,,,,,,5ebe9ba752363c05058883d8,2020-11-27_15h21.37.948,lexical_decision_task_MP_exp2,2020.2.5,Win32,60,z,1,0.83364,,,,,,,,0.83364,1,,,,,,322,NW,"ID",33,slanch,SLANCH,z,,,,,,0.02962963,-0.378703704,0,0,0,,0,391,391,261,1,
,,,,,,,,,,,,,,,,,,5ebe9ba752363c05058883d8,2020-11-27_15h21.37.948,lexical_decision_task_MP_exp2,2020.2.5,Win32,60,m,1,0.584355,,,,,,,,0.584355,1,,,,,,143,WORD,"ID",16,reason,REASON,m,,,,,,0.02962963,-0.378703704,0,0,0,,0,392,392,82,1,
,,,,,,,,,,,,,,,,,,5ebe9ba752363c05058883d8,2020-11-27_15h21.37.948,lexical_decision_task_MP_exp2,2020.2.5,Win32,60,z,1,0.77383,,,,,,,,0.77383,1,,,,,,438,NW,UN,33,limpor,BAITCH,z,,,,,,0.02962963,-0.378703704,0,0,0,,0,393,393,377,1,
,,,,,,,,,,,,,,,,,,5ebe9ba752363c05058883d8,2020-11-27_15h21.37.948,lexical_decision_task_MP_exp2,2020.2.5,Win32,60,m,1,0.680875,,,,,,,,0.680875,1,,,,,,75,WORD,"ID",33,trophy,TROPHY,m,,,,,,0.02962963,-0.378703704,0,0,0,,0,394,394,14,1,
,,,,,,,,,,,,,,,,,,5ebe9ba752363c05058883d8,2020-11-27_15h21.37.948,lexical_decision_task_MP_exp2,2020.2.5,Win32,60,z,1,0.831085,,,,,,,,0.831085,1,,,,,,366,NW,"ID",16,toshel,TOSHEL,z,,,,,,0.02962963,-0.378703704,0,0,0,,0,395,395,305,1,
,,,,,,,,,,,,,,,,,,5ebe9ba752363c05058883d8,2020-11-27_15h21.37.948,lexical_decision_task_MP_exp2,2020.2.5,Win32,60,m,1,0.722715,,,,,,,,0.722715,1,,,,,,54,WORD,UN,16,stroke,RAMBLE,m,,,,,,0.02962963,-0.378703704,0,0,0,,0,396,396,233,1,
