counterbalancing_condition,instr_done_keyboard.keys,instr_done_keyboard.rt,instr_done_touch.x,instr_done_touch.y,instr_done_touch.leftButton,instr_done_touch.midButton,instr_done_touch.rightButton,instruction_pages.thisRepN,instruction_pages.thisTrialN,instruction_pages.thisN,instruction_pages.thisIndex,instruction_pages.ran,pageN,phase,instruct_text,has_image,instruct_image,participant,date,expName,psychopyVersion,OS,frameRate,response.keys,response.corr,response.rt,touch_resp.x,touch_resp.y,touch_resp.leftButton,touch_resp.midButton,touch_resp.rightButton,touch_resp.time,touch_resp.clicked_name,rt,corr,practice_trials.thisRepN,practice_trials.thisTrialN,practice_trials.thisN,practice_trials.thisIndex,practice_trials.ran,TrialID,StimulusType,Condition,PrimeDuration,Prime,Target,corrAns,end_of_practice_trials_pages.thisRepN,end_of_practice_trials_pages.thisTrialN,end_of_practice_trials_pages.thisN,end_of_practice_trials_pages.thisIndex,end_of_practice_trials_pages.ran,break_done_touch.x,break_done_touch.y,break_done_touch.leftButton,break_done_touch.midButton,break_done_touch.rightButton,break_done_keyboard.keys,experiment_trials.thisRepN,experiment_trials.thisTrialN,experiment_trials.thisN,experiment_trials.thisIndex,experiment_trials.ran,break_done_keyboard.rt
3,space,2.96602,0.02592594,-0.449074088,0,0,0,0,0,0,0,1,1,instructions,"INSTRUCTIONS
At the start of each trial, look at the hash marks (######) in the center of the screen. After a moment, a string of letters will appear. Your task is to indicate if the letter string forms a word or not (i.e., if it is a nonword). For example, AUTHOR is a word while AUTHON is a nonword.

Press the space bar or touch the button below to continue.",0,,5ec875255c6a2700081554ac,2020-12-01_16h19.25.477,lexical_decision_task_MP_exp2,2020.2.8,Win32,60,,,,,,,,,,,,,,,,,,,,,,,,,,,,,,,,,,,,,,,,,
,space,2.79685,0.02592594,-0.449074088,0,0,0,0,1,1,1,1,2,instructions,"If your device has a keyboard, press the 'Z' key for nonwords and the 'M' key for words.





Press the space bar or touch the button below to continue.",1,keyboard-example.gif,5ec875255c6a2700081554ac,2020-12-01_16h19.25.477,lexical_decision_task_MP_exp2,2020.2.8,Win32,60,,,,,,,,,,,,,,,,,,,,,,,,,,,,,,,,,,,,,,,,,
,space,1.514905,0.02592594,-0.449074088,0,0,0,0,2,2,2,1,3,instructions,"If you are using a touchscreen only device, use the buttons on the screen. Do not use the mouse.





Press the space bar or touch the button below to continue.",1,touchscreen-example.gif,5ec875255c6a2700081554ac,2020-12-01_16h19.25.477,lexical_decision_task_MP_exp2,2020.2.8,Win32,60,,,,,,,,,,,,,,,,,,,,,,,,,,,,,,,,,,,,,,,,,
,space,1.17307,0.02592594,-0.449074088,0,0,0,0,3,3,3,1,4,instructions,"It is very important that you respond as quickly and accurately as possible, as each letter string will only be on the screen for two seconds. If you do not respond within this time, the message 'Too slow!' will be displayed and the experiment will progress to the next letter string. The first 20 trials will be practice trials and you will receive feedback on your answers. 

Press the space bar or touch the button below to start the practice trials.",0,,5ec875255c6a2700081554ac,2020-12-01_16h19.25.477,lexical_decision_task_MP_exp2,2020.2.8,Win32,60,,,,,,,,,,,,,,,,,,,,,,,,,,,,,,,,,,,,,,,,,
,,,,,,,,,,,,,,,,,,5ec875255c6a2700081554ac,2020-12-01_16h19.25.477,lexical_decision_task_MP_exp2,2020.2.8,Win32,60,m,0,0.950485,,,,,,,,0.950485,0,0,0,0,12,1,1013,NW,UN,33,adveil,SPRINY,z,,,,,,,,,,,,,,,,,
,,,,,,,,,,,,,,,,,,5ec875255c6a2700081554ac,2020-12-01_16h19.25.477,lexical_decision_task_MP_exp2,2020.2.8,Win32,60,m,1,0.67133,,,,,,,,0.67133,1,0,1,1,5,1,1006,WORD,UN,33,frenzy,OBTAIN,m,,,,,,,,,,,,,,,,,
,,,,,,,,,,,,,,,,,,5ec875255c6a2700081554ac,2020-12-01_16h19.25.477,lexical_decision_task_MP_exp2,2020.2.8,Win32,60,z,1,0.601245,,,,,,,,0.601245,1,0,2,2,14,1,1015,NW,UN,16,miaber,THRALE,z,,,,,,,,,,,,,,,,,
,,,,,,,,,,,,,,,,,,5ec875255c6a2700081554ac,2020-12-01_16h19.25.477,lexical_decision_task_MP_exp2,2020.2.8,Win32,60,z,1,0.60022,,,,,,,,0.60022,1,0,3,3,11,1,1012,NW,"ID",16,rashet,RASHET,z,,,,,,,,,,,,,,,,,
,,,,,,,,,,,,,,,,,,5ec875255c6a2700081554ac,2020-12-01_16h19.25.477,lexical_decision_task_MP_exp2,2020.2.8,Win32,60,m,1,0.44762,,,,,,,,0.44762,1,0,4,4,7,1,1008,WORD,UN,16,hurdle,VOLUME,m,,,,,,,,,,,,,,,,,
,,,,,,,,,,,,,,,,,,5ec875255c6a2700081554ac,2020-12-01_16h19.25.477,lexical_decision_task_MP_exp2,2020.2.8,Win32,60,m,1,0.616485,,,,,,,,0.616485,1,0,5,5,3,1,1004,WORD,"ID",16,matrix,MATRIX,m,,,,,,,,,,,,,,,,,
,,,,,,,,,,,,,,,,,,5ec875255c6a2700081554ac,2020-12-01_16h19.25.477,lexical_decision_task_MP_exp2,2020.2.8,Win32,60,z,0,0.56923,,,,,,,,0.56923,0,0,6,6,4,1,1005,WORD,UN,33,abound,SQUEAK,m,,,,,,,,,,,,,,,,,
,,,,,,,,,,,,,,,,,,5ec875255c6a2700081554ac,2020-12-01_16h19.25.477,lexical_decision_task_MP_exp2,2020.2.8,Win32,60,m,1,0.486595,,,,,,,,0.486595,1,0,7,7,0,1,1001,WORD,"ID",33,utopia,UTOPIA,m,,,,,,,,,,,,,,,,,
,,,,,,,,,,,,,,,,,,5ec875255c6a2700081554ac,2020-12-01_16h19.25.477,lexical_decision_task_MP_exp2,2020.2.8,Win32,60,z,1,0.59508,,,,,,,,0.59508,1,0,8,8,15,1,1016,NW,UN,16,mushed,WHAISE,z,,,,,,,,,,,,,,,,,
,,,,,,,,,,,,,,,,,,5ec875255c6a2700081554ac,2020-12-01_16h19.25.477,lexical_decision_task_MP_exp2,2020.2.8,Win32,60,z,1,0.700715,,,,,,,,0.700715,1,0,9,9,10,1,1011,NW,"ID",16,inlade,INLADE,z,,,,,,,,,,,,,,,,,
,,,,,,,,,,,,,,,,,,5ec875255c6a2700081554ac,2020-12-01_16h19.25.477,lexical_decision_task_MP_exp2,2020.2.8,Win32,60,z,1,0.64756,,,,,,,,0.64756,1,0,10,10,9,1,1010,NW,"ID",33,fariny,FARINY,z,,,,,,,,,,,,,,,,,
,,,,,,,,,,,,,,,,,,5ec875255c6a2700081554ac,2020-12-01_16h19.25.477,lexical_decision_task_MP_exp2,2020.2.8,Win32,60,m,1,0.53039,,,,,,,,0.53039,1,0,11,11,1,1,1002,WORD,"ID",33,adjust,ADJUST,m,,,,,,,,,,,,,,,,,
,,,,,,,,,,,,,,,,,,5ec875255c6a2700081554ac,2020-12-01_16h19.25.477,lexical_decision_task_MP_exp2,2020.2.8,Win32,60,m,1,0.56704,,,,,,,,0.56704,1,0,12,12,2,1,1003,WORD,"ID",16,almond,ALMOND,m,,,,,,,,,,,,,,,,,
,,,,,,,,,,,,,,,,,,5ec875255c6a2700081554ac,2020-12-01_16h19.25.477,lexical_decision_task_MP_exp2,2020.2.8,Win32,60,m,1,0.58568,,,,,,,,0.58568,1,0,13,13,6,1,1007,WORD,UN,16,tropic,ZOMBIE,m,,,,,,,,,,,,,,,,,
,,,,,,,,,,,,,,,,,,5ec875255c6a2700081554ac,2020-12-01_16h19.25.477,lexical_decision_task_MP_exp2,2020.2.8,Win32,60,z,1,0.6516,,,,,,,,0.6516,1,0,14,14,13,1,1014,NW,UN,33,winfer,ROUPET,z,,,,,,,,,,,,,,,,,
,,,,,,,,,,,,,,,,,,5ec875255c6a2700081554ac,2020-12-01_16h19.25.477,lexical_decision_task_MP_exp2,2020.2.8,Win32,60,z,1,0.63438,,,,,,,,0.63438,1,0,15,15,8,1,1009,NW,"ID",33,aslert,ASLERT,z,,,,,,,,,,,,,,,,,
,space,3.00014,0.02592594,-0.449074088,0,0,0,,,,,,1,end_of_practice,"You have completed the practice trials. During the experimental trials, you will not receive feedback, but it is very important that you respond as quickly and accurately as possible. 
Before you begin, please ensure that you are in a comfortable and quiet location and will not be disturbed for about 15 minutes, as we cannot use your data if you do not complete all the trials. 
There will be opportunities to take breaks at regular intervals during the experiment. When you are ready to start the experimental trials, please press space or touch the button below.",,,5ec875255c6a2700081554ac,2020-12-01_16h19.25.477,lexical_decision_task_MP_exp2,2020.2.8,Win32,60,,,,,,,,,,,,,,,,,,,,,,,,,0,0,0,0,1,,,,,,,,,,,,
,,,,,,,,,,,,,,,,,,5ec875255c6a2700081554ac,2020-12-01_16h19.25.477,lexical_decision_task_MP_exp2,2020.2.8,Win32,60,z,1,0.68293,,,,,,,,0.68293,1,,,,,,475,NW,UN,33,josted,PEBRIC,z,,,,,,0.02592594,-0.449074088,0,0,0,,0,0,0,414,1,
,,,,,,,,,,,,,,,,,,5ec875255c6a2700081554ac,2020-12-01_16h19.25.477,lexical_decision_task_MP_exp2,2020.2.8,Win32,60,z,1,0.623535,,,,,,,,0.623535,1,,,,,,478,NW,UN,33,pebric,ACRISE,z,,,,,,0.02592594,-0.449074088,0,0,0,,0,1,1,417,1,
,,,,,,,,,,,,,,,,,,5ec875255c6a2700081554ac,2020-12-01_16h19.25.477,lexical_decision_task_MP_exp2,2020.2.8,Win32,60,m,0,0.49324,,,,,,,,0.49324,0,,,,,,452,NW,UN,33,bolvis,SURDEN,z,,,,,,0.02592594,-0.449074088,0,0,0,,0,2,2,391,1,
,,,,,,,,,,,,,,,,,,5ec875255c6a2700081554ac,2020-12-01_16h19.25.477,lexical_decision_task_MP_exp2,2020.2.8,Win32,60,m,1,0.71804,,,,,,,,0.71804,1,,,,,,77,WORD,"ID",33,racket,RACKET,m,,,,,,0.02592594,-0.449074088,0,0,0,,0,3,3,16,1,
,,,,,,,,,,,,,,,,,,5ec875255c6a2700081554ac,2020-12-01_16h19.25.477,lexical_decision_task_MP_exp2,2020.2.8,Win32,60,m,1,0.634785,,,,,,,,0.634785,1,,,,,,149,WORD,"ID",16,invade,INVADE,m,,,,,,0.02592594,-0.449074088,0,0,0,,0,4,4,88,1,
,,,,,,,,,,,,,,,,,,5ec875255c6a2700081554ac,2020-12-01_16h19.25.477,lexical_decision_task_MP_exp2,2020.2.8,Win32,60,z,1,0.52424,,,,,,,,0.52424,1,,,,,,465,NW,UN,33,bafent,WHIVEX,z,,,,,,0.02592594,-0.449074088,0,0,0,,0,5,5,404,1,
,,,,,,,,,,,,,,,,,,5ec875255c6a2700081554ac,2020-12-01_16h19.25.477,lexical_decision_task_MP_exp2,2020.2.8,Win32,60,m,1,0.551325,,,,,,,,0.551325,1,,,,,,29,WORD,UN,16,orient,SKETCH,m,,,,,,0.02592594,-0.449074088,0,0,0,,0,6,6,208,1,
,,,,,,,,,,,,,,,,,,5ec875255c6a2700081554ac,2020-12-01_16h19.25.477,lexical_decision_task_MP_exp2,2020.2.8,Win32,60,z,1,0.58344,,,,,,,,0.58344,1,,,,,,257,NW,UN,16,poluth,VENIOD,z,,,,,,0.02592594,-0.449074088,0,0,0,,0,7,7,436,1,
,,,,,,,,,,,,,,,,,,5ec875255c6a2700081554ac,2020-12-01_16h19.25.477,lexical_decision_task_MP_exp2,2020.2.8,Win32,60,m,1,0.637555,,,,,,,,0.637555,1,,,,,,172,WORD,"ID",16,patrol,PATROL,m,,,,,,0.02592594,-0.449074088,0,0,0,,0,8,8,111,1,
,,,,,,,,,,,,,,,,,,5ec875255c6a2700081554ac,2020-12-01_16h19.25.477,lexical_decision_task_MP_exp2,2020.2.8,Win32,60,z,1,0.65115,,,,,,,,0.65115,1,,,,,,329,NW,"ID",33,yarike,YARIKE,z,,,,,,0.02592594,-0.449074088,0,0,0,,0,9,9,268,1,
,,,,,,,,,,,,,,,,,,5ec875255c6a2700081554ac,2020-12-01_16h19.25.477,lexical_decision_task_MP_exp2,2020.2.8,Win32,60,z,1,0.6008,,,,,,,,0.6008,1,,,,,,414,NW,"ID",16,serbol,SERBOL,z,,,,,,0.02592594,-0.449074088,0,0,0,,0,10,10,353,1,
,,,,,,,,,,,,,,,,,,5ec875255c6a2700081554ac,2020-12-01_16h19.25.477,lexical_decision_task_MP_exp2,2020.2.8,Win32,60,m,1,0.537015,,,,,,,,0.537015,1,,,,,,141,WORD,"ID",16,orphan,ORPHAN,m,,,,,,0.02592594,-0.449074088,0,0,0,,0,11,11,80,1,
,,,,,,,,,,,,,,,,,,5ec875255c6a2700081554ac,2020-12-01_16h19.25.477,lexical_decision_task_MP_exp2,2020.2.8,Win32,60,z,1,0.507085,,,,,,,,0.507085,1,,,,,,406,NW,"ID",16,nouply,NOUPLY,z,,,,,,0.02592594,-0.449074088,0,0,0,,0,12,12,345,1,
,,,,,,,,,,,,,,,,,,5ec875255c6a2700081554ac,2020-12-01_16h19.25.477,lexical_decision_task_MP_exp2,2020.2.8,Win32,60,z,1,0.61831,,,,,,,,0.61831,1,,,,,,345,NW,"ID",33,absend,ABSEND,z,,,,,,0.02592594,-0.449074088,0,0,0,,0,13,13,284,1,
,,,,,,,,,,,,,,,,,,5ec875255c6a2700081554ac,2020-12-01_16h19.25.477,lexical_decision_task_MP_exp2,2020.2.8,Win32,60,z,1,0.91094,,,,,,,,0.91094,1,,,,,,249,NW,UN,16,milted,BATROL,z,,,,,,0.02592594,-0.449074088,0,0,0,,0,14,14,428,1,
,,,,,,,,,,,,,,,,,,5ec875255c6a2700081554ac,2020-12-01_16h19.25.477,lexical_decision_task_MP_exp2,2020.2.8,Win32,60,m,1,0.568605,,,,,,,,0.568605,1,,,,,,6,WORD,UN,16,anchor,BUNDLE,m,,,,,,0.02592594,-0.449074088,0,0,0,,0,15,15,185,1,
,,,,,,,,,,,,,,,,,,5ec875255c6a2700081554ac,2020-12-01_16h19.25.477,lexical_decision_task_MP_exp2,2020.2.8,Win32,60,m,1,0.534365,,,,,,,,0.534365,1,,,,,,105,WORD,"ID",33,number,NUMBER,m,,,,,,0.02592594,-0.449074088,0,0,0,,0,16,16,44,1,
,,,,,,,,,,,,,,,,,,5ec875255c6a2700081554ac,2020-12-01_16h19.25.477,lexical_decision_task_MP_exp2,2020.2.8,Win32,60,z,1,0.587825,,,,,,,,0.587825,1,,,,,,394,NW,"ID",16,spaqux,SPAQUX,z,,,,,,0.02592594,-0.449074088,0,0,0,,0,17,17,333,1,
,,,,,,,,,,,,,,,,,,5ec875255c6a2700081554ac,2020-12-01_16h19.25.477,lexical_decision_task_MP_exp2,2020.2.8,Win32,60,m,1,0.590675,,,,,,,,0.590675,1,,,,,,143,WORD,"ID",16,reason,REASON,m,,,,,,0.02592594,-0.449074088,0,0,0,,0,18,18,82,1,
,,,,,,,,,,,,,,,,,,5ec875255c6a2700081554ac,2020-12-01_16h19.25.477,lexical_decision_task_MP_exp2,2020.2.8,Win32,60,m,1,0.502595,,,,,,,,0.502595,1,,,,,,93,WORD,"ID",33,public,PUBLIC,m,,,,,,0.02592594,-0.449074088,0,0,0,,0,19,19,32,1,
,,,,,,,,,,,,,,,,,,5ec875255c6a2700081554ac,2020-12-01_16h19.25.477,lexical_decision_task_MP_exp2,2020.2.8,Win32,60,m,1,0.52302,,,,,,,,0.52302,1,,,,,,158,WORD,"ID",16,island,ISLAND,m,,,,,,0.02592594,-0.449074088,0,0,0,,0,20,20,97,1,
,,,,,,,,,,,,,,,,,,5ec875255c6a2700081554ac,2020-12-01_16h19.25.477,lexical_decision_task_MP_exp2,2020.2.8,Win32,60,m,1,0.64991,,,,,,,,0.64991,1,,,,,,139,WORD,"ID",16,debris,DEBRIS,m,,,,,,0.02592594,-0.449074088,0,0,0,,0,21,21,78,1,
,,,,,,,,,,,,,,,,,,5ec875255c6a2700081554ac,2020-12-01_16h19.25.477,lexical_decision_task_MP_exp2,2020.2.8,Win32,60,m,1,0.601375,,,,,,,,0.601375,1,,,,,,107,WORD,"ID",33,slogan,SLOGAN,m,,,,,,0.02592594,-0.449074088,0,0,0,,0,22,22,46,1,
,,,,,,,,,,,,,,,,,,5ec875255c6a2700081554ac,2020-12-01_16h19.25.477,lexical_decision_task_MP_exp2,2020.2.8,Win32,60,m,1,0.71123,,,,,,,,0.71123,1,,,,,,90,WORD,"ID",33,relish,RELISH,m,,,,,,0.02592594,-0.449074088,0,0,0,,0,23,23,29,1,
,,,,,,,,,,,,,,,,,,5ec875255c6a2700081554ac,2020-12-01_16h19.25.477,lexical_decision_task_MP_exp2,2020.2.8,Win32,60,z,1,0.6689,,,,,,,,0.6689,1,,,,,,306,NW,"ID",33,sounge,SOUNGE,z,,,,,,0.02592594,-0.449074088,0,0,0,,0,24,24,245,1,
,,,,,,,,,,,,,,,,,,5ec875255c6a2700081554ac,2020-12-01_16h19.25.477,lexical_decision_task_MP_exp2,2020.2.8,Win32,60,m,1,0.791995,,,,,,,,0.791995,1,,,,,,81,WORD,"ID",33,friend,FRIEND,m,,,,,,0.02592594,-0.449074088,0,0,0,,0,25,25,20,1,
,,,,,,,,,,,,,,,,,,5ec875255c6a2700081554ac,2020-12-01_16h19.25.477,lexical_decision_task_MP_exp2,2020.2.8,Win32,60,m,1,1.137515,,,,,,,,1.137515,1,,,,,,235,WORD,UN,33,pirate,GRUMPY,m,,,,,,0.02592594,-0.449074088,0,0,0,,0,26,26,174,1,
,,,,,,,,,,,,,,,,,,5ec875255c6a2700081554ac,2020-12-01_16h19.25.477,lexical_decision_task_MP_exp2,2020.2.8,Win32,60,z,1,0.651655,,,,,,,,0.651655,1,,,,,,405,NW,"ID",16,flumni,FLUMNI,z,,,,,,0.02592594,-0.449074088,0,0,0,,0,27,27,344,1,
,,,,,,,,,,,,,,,,,,5ec875255c6a2700081554ac,2020-12-01_16h19.25.477,lexical_decision_task_MP_exp2,2020.2.8,Win32,60,z,1,0.74086,,,,,,,,0.74086,1,,,,,,271,NW,UN,16,damilt,AUBRID,z,,,,,,0.02592594,-0.449074088,0,0,0,,0,28,28,450,1,
,,,,,,,,,,,,,,,,,,5ec875255c6a2700081554ac,2020-12-01_16h19.25.477,lexical_decision_task_MP_exp2,2020.2.8,Win32,60,m,1,1.037135,,,,,,,,1.037135,1,,,,,,184,WORD,UN,33,bother,SLEAZY,m,,,,,,0.02592594,-0.449074088,0,0,0,,0,29,29,123,1,
,,,,,,,,,,,,,,,,,,5ec875255c6a2700081554ac,2020-12-01_16h19.25.477,lexical_decision_task_MP_exp2,2020.2.8,Win32,60,z,1,0.604015,,,,,,,,0.604015,1,,,,,,366,NW,"ID",16,toshel,TOSHEL,z,,,,,,0.02592594,-0.449074088,0,0,0,,0,30,30,305,1,
,,,,,,,,,,,,,,,,,,5ec875255c6a2700081554ac,2020-12-01_16h19.25.477,lexical_decision_task_MP_exp2,2020.2.8,Win32,60,m,1,0.752155,,,,,,,,0.752155,1,,,,,,191,WORD,UN,33,beacon,STABLE,m,,,,,,0.02592594,-0.449074088,0,0,0,,0,31,31,130,1,
,,,,,,,,,,,,,,,,,,5ec875255c6a2700081554ac,2020-12-01_16h19.25.477,lexical_decision_task_MP_exp2,2020.2.8,Win32,60,m,1,0.73688,,,,,,,,0.73688,1,,,,,,171,WORD,"ID",16,depart,DEPART,m,,,,,,0.02592594,-0.449074088,0,0,0,,0,32,32,110,1,
,,,,,,,,,,,,,,,,,,5ec875255c6a2700081554ac,2020-12-01_16h19.25.477,lexical_decision_task_MP_exp2,2020.2.8,Win32,60,z,1,0.669005,,,,,,,,0.669005,1,,,,,,453,NW,UN,33,scouge,BOLVIS,z,,,,,,0.02592594,-0.449074088,0,0,0,,0,33,33,392,1,
,,,,,,,,,,,,,,,,,,5ec875255c6a2700081554ac,2020-12-01_16h19.25.477,lexical_decision_task_MP_exp2,2020.2.8,Win32,60,m,1,0.66813,,,,,,,,0.66813,1,,,,,,237,WORD,UN,33,glance,POSTER,m,,,,,,0.02592594,-0.449074088,0,0,0,,0,34,34,176,1,
,,,,,,,,,,,,,,,,,,5ec875255c6a2700081554ac,2020-12-01_16h19.25.477,lexical_decision_task_MP_exp2,2020.2.8,Win32,60,z,1,0.784815,,,,,,,,0.784815,1,,,,,,449,NW,UN,33,phrect,BRUNGE,z,,,,,,0.02592594,-0.449074088,0,0,0,,0,35,35,388,1,
,,,,,,,,,,,,,,,,,,5ec875255c6a2700081554ac,2020-12-01_16h19.25.477,lexical_decision_task_MP_exp2,2020.2.8,Win32,60,m,1,0.640725,,,,,,,,0.640725,1,,,,,,64,WORD,"ID",33,throne,THRONE,m,,,,,,0.02592594,-0.449074088,0,0,0,,0,36,36,3,1,
,,,,,,,,,,,,,,,,,,5ec875255c6a2700081554ac,2020-12-01_16h19.25.477,lexical_decision_task_MP_exp2,2020.2.8,Win32,60,z,1,0.908275,,,,,,,,0.908275,1,,,,,,433,NW,UN,33,pitrom,DRANCE,z,,,,,,0.02592594,-0.449074088,0,0,0,,0,37,37,372,1,
,,,,,,,,,,,,,,,,,,5ec875255c6a2700081554ac,2020-12-01_16h19.25.477,lexical_decision_task_MP_exp2,2020.2.8,Win32,60,m,1,0.71095,,,,,,,,0.71095,1,,,,,,165,WORD,"ID",16,invest,INVEST,m,,,,,,0.02592594,-0.449074088,0,0,0,,0,38,38,104,1,
,,,,,,,,,,,,,,,,,,5ec875255c6a2700081554ac,2020-12-01_16h19.25.477,lexical_decision_task_MP_exp2,2020.2.8,Win32,60,m,1,0.668505,,,,,,,,0.668505,1,,,,,,3,WORD,UN,16,trench,KNIGHT,m,,,,,,0.02592594,-0.449074088,0,0,0,,0,39,39,182,1,
,,,,,,,,,,,,,,,,,,5ec875255c6a2700081554ac,2020-12-01_16h19.25.477,lexical_decision_task_MP_exp2,2020.2.8,Win32,60,z,1,0.65291,,,,,,,,0.65291,1,,,,,,334,NW,"ID",33,watmeg,WATMEG,z,,,,,,0.02592594,-0.449074088,0,0,0,,0,40,40,273,1,
,,,,,,,,,,,,,,,,,,5ec875255c6a2700081554ac,2020-12-01_16h19.25.477,lexical_decision_task_MP_exp2,2020.2.8,Win32,60,m,1,0.618945,,,,,,,,0.618945,1,,,,,,228,WORD,UN,33,kidney,MASTER,m,,,,,,0.02592594,-0.449074088,0,0,0,,0,41,41,167,1,
,,,,,,,,,,,,,,,,,,5ec875255c6a2700081554ac,2020-12-01_16h19.25.477,lexical_decision_task_MP_exp2,2020.2.8,Win32,60,m,1,0.626405,,,,,,,,0.626405,1,,,,,,80,WORD,"ID",33,family,FAMILY,m,,,,,,0.02592594,-0.449074088,0,0,0,,0,42,42,19,1,
,,,,,,,,,,,,,,,,,,5ec875255c6a2700081554ac,2020-12-01_16h19.25.477,lexical_decision_task_MP_exp2,2020.2.8,Win32,60,m,1,0.609045,,,,,,,,0.609045,1,,,,,,151,WORD,"ID",16,mystic,MYSTIC,m,,,,,,0.02592594,-0.449074088,0,0,0,,0,43,43,90,1,
,,,,,,,,,,,,,,,,,,5ec875255c6a2700081554ac,2020-12-01_16h19.25.477,lexical_decision_task_MP_exp2,2020.2.8,Win32,60,m,1,0.56614,,,,,,,,0.56614,1,,,,,,46,WORD,UN,16,income,SINGLE,m,,,,,,0.02592594,-0.449074088,0,0,0,,0,44,44,225,1,
,,,,,,,,,,,,,,,,,,5ec875255c6a2700081554ac,2020-12-01_16h19.25.477,lexical_decision_task_MP_exp2,2020.2.8,Win32,60,z,1,0.685505,,,,,,,,0.685505,1,,,,,,326,NW,"ID",33,iguade,IGUADE,z,,,,,,0.02592594,-0.449074088,0,0,0,,0,45,45,265,1,
,,,,,,,,,,,,,,,,,,5ec875255c6a2700081554ac,2020-12-01_16h19.25.477,lexical_decision_task_MP_exp2,2020.2.8,Win32,60,m,1,0.526965,,,,,,,,0.526965,1,,,,,,119,WORD,"ID",33,spider,SPIDER,m,,,,,,0.02592594,-0.449074088,0,0,0,,0,46,46,58,1,
,,,,,,,,,,,,,,,,,,5ec875255c6a2700081554ac,2020-12-01_16h19.25.477,lexical_decision_task_MP_exp2,2020.2.8,Win32,60,m,1,0.700475,,,,,,,,0.700475,1,,,,,,36,WORD,UN,16,insult,VANISH,m,,,,,,0.02592594,-0.449074088,0,0,0,,0,47,47,215,1,
,,,,,,,,,,,,,,,,,,5ec875255c6a2700081554ac,2020-12-01_16h19.25.477,lexical_decision_task_MP_exp2,2020.2.8,Win32,60,z,1,0.93417,,,,,,,,0.93417,1,,,,,,385,NW,"ID",16,veigma,VEIGMA,z,,,,,,0.02592594,-0.449074088,0,0,0,,0,48,48,324,1,
,,,,,,,,,,,,,,,,,,5ec875255c6a2700081554ac,2020-12-01_16h19.25.477,lexical_decision_task_MP_exp2,2020.2.8,Win32,60,z,1,0.785065,,,,,,,,0.785065,1,,,,,,253,NW,UN,16,varosh,RESAIT,z,,,,,,0.02592594,-0.449074088,0,0,0,,0,49,49,432,1,
,,,,,,,,,,,,,,,,,,5ec875255c6a2700081554ac,2020-12-01_16h19.25.477,lexical_decision_task_MP_exp2,2020.2.8,Win32,60,z,0,0.622015,,,,,,,,0.622015,0,,,,,,124,WORD,"ID",16,blouse,BLOUSE,m,,,,,,0.02592594,-0.449074088,0,0,0,,0,50,50,63,1,
,,,,,,,,,,,,,,,,,,5ec875255c6a2700081554ac,2020-12-01_16h19.25.477,lexical_decision_task_MP_exp2,2020.2.8,Win32,60,m,1,0.65485,,,,,,,,0.65485,1,,,,,,9,WORD,UN,16,bridge,HUSTLE,m,,,,,,0.02592594,-0.449074088,0,0,0,,0,51,51,188,1,
,,,,,,,,,,,,,,,,,,5ec875255c6a2700081554ac,2020-12-01_16h19.25.477,lexical_decision_task_MP_exp2,2020.2.8,Win32,60,z,1,0.686575,,,,,,,,0.686575,1,,,,,,375,NW,"ID",16,yorque,YORQUE,z,,,,,,0.02592594,-0.449074088,0,0,0,,0,52,52,314,1,
,,,,,,,,,,,,,,,,,,5ec875255c6a2700081554ac,2020-12-01_16h19.25.477,lexical_decision_task_MP_exp2,2020.2.8,Win32,60,z,1,0.73764,,,,,,,,0.73764,1,,,,,,258,NW,UN,16,soudal,POLUTH,z,,,,,,0.02592594,-0.449074088,0,0,0,,0,53,53,437,1,
,,,,,,,,,,,,,,,,,,5ec875255c6a2700081554ac,2020-12-01_16h19.25.477,lexical_decision_task_MP_exp2,2020.2.8,Win32,60,m,1,0.53629,,,,,,,,0.53629,1,,,,,,132,WORD,"ID",16,strong,STRONG,m,,,,,,0.02592594,-0.449074088,0,0,0,,0,54,54,71,1,
,,,,,,,,,,,,,,,,,,5ec875255c6a2700081554ac,2020-12-01_16h19.25.477,lexical_decision_task_MP_exp2,2020.2.8,Win32,60,z,1,0.67528,,,,,,,,0.67528,1,,,,,,360,NW,"ID",33,desory,DESORY,z,,,,,,0.02592594,-0.449074088,0,0,0,,0,55,55,299,1,
,,,,,,,,,,,,,,,,,,5ec875255c6a2700081554ac,2020-12-01_16h19.25.477,lexical_decision_task_MP_exp2,2020.2.8,Win32,60,m,1,0.61817,,,,,,,,0.61817,1,,,,,,163,WORD,"ID",16,string,STRING,m,,,,,,0.02592594,-0.449074088,0,0,0,,0,56,56,102,1,
,,,,,,,,,,,,,,,,,,5ec875255c6a2700081554ac,2020-12-01_16h19.25.477,lexical_decision_task_MP_exp2,2020.2.8,Win32,60,m,1,0.722695,,,,,,,,0.722695,1,,,,,,188,WORD,UN,33,censor,SOCIAL,m,,,,,,0.02592594,-0.449074088,0,0,0,,0,57,57,127,1,
,,,,,,,,,,,,,,,,,,5ec875255c6a2700081554ac,2020-12-01_16h19.25.477,lexical_decision_task_MP_exp2,2020.2.8,Win32,60,m,1,0.834995,,,,,,,,0.834995,1,,,,,,216,WORD,UN,33,liquor,BEHALF,m,,,,,,0.02592594,-0.449074088,0,0,0,,0,58,58,155,1,
,,,,,,,,,,,,,,,,,,5ec875255c6a2700081554ac,2020-12-01_16h19.25.477,lexical_decision_task_MP_exp2,2020.2.8,Win32,60,m,1,0.070715,,,,,,,,0.070715,1,,,,,,179,WORD,"ID",16,basket,BASKET,m,,,,,,0.02592594,-0.449074088,0,0,0,,0,59,59,118,1,
,,,,,,,,,,,,,,,,,,5ec875255c6a2700081554ac,2020-12-01_16h19.25.477,lexical_decision_task_MP_exp2,2020.2.8,Win32,60,z,1,0.92592,,,,,,,,0.92592,1,,,,,,425,NW,UN,33,urivel,FRUDGE,z,,,,,,0.02592594,-0.449074088,0,0,0,,0,60,60,364,1,
,,,,,,,,,,,,,,,,,,5ec875255c6a2700081554ac,2020-12-01_16h19.25.477,lexical_decision_task_MP_exp2,2020.2.8,Win32,60,m,1,0.88495,,,,,,,,0.88495,1,,,,,,142,WORD,"ID",16,spruce,SPRUCE,m,,,,,,0.02592594,-0.449074088,0,0,0,,0,61,61,81,1,
,,,,,,,,,,,,,,,,,,5ec875255c6a2700081554ac,2020-12-01_16h19.25.477,lexical_decision_task_MP_exp2,2020.2.8,Win32,60,m,1,0.741435,,,,,,,,0.741435,1,,,,,,164,WORD,"ID",16,market,MARKET,m,,,,,,0.02592594,-0.449074088,0,0,0,,0,62,62,103,1,
,,,,,,,,,,,,,,,,,,5ec875255c6a2700081554ac,2020-12-01_16h19.25.477,lexical_decision_task_MP_exp2,2020.2.8,Win32,60,m,1,0.951605,,,,,,,,0.951605,1,,,,,,213,WORD,UN,33,intake,SQUEAL,m,,,,,,0.02592594,-0.449074088,0,0,0,,0,63,63,152,1,
,,,,,,,,,,,,,,,,,,5ec875255c6a2700081554ac,2020-12-01_16h19.25.477,lexical_decision_task_MP_exp2,2020.2.8,Win32,60,m,1,0.519565,,,,,,,,0.519565,1,,,,,,136,WORD,"ID",16,bleach,BLEACH,m,,,,,,0.02592594,-0.449074088,0,0,0,,0,64,64,75,1,
,,,,,,,,,,,,,,,,,,5ec875255c6a2700081554ac,2020-12-01_16h19.25.477,lexical_decision_task_MP_exp2,2020.2.8,Win32,60,z,1,0.77652,,,,,,,,0.77652,1,,,,,,392,NW,"ID",16,rouncy,ROUNCY,z,,,,,,0.02592594,-0.449074088,0,0,0,,0,65,65,331,1,
,,,,,,,,,,,,,,,,,,5ec875255c6a2700081554ac,2020-12-01_16h19.25.477,lexical_decision_task_MP_exp2,2020.2.8,Win32,60,z,1,1.19239,,,,,,,,1.19239,1,,,,,,436,NW,UN,33,snapel,FRUTAN,z,,,,,,0.02592594,-0.449074088,0,0,0,,0,66,66,375,1,
,,,,,,,,,,,,,,,,,,5ec875255c6a2700081554ac,2020-12-01_16h19.25.477,lexical_decision_task_MP_exp2,2020.2.8,Win32,60,m,1,0.65265,,,,,,,,0.65265,1,,,,,,140,WORD,"ID",16,prince,PRINCE,m,,,,,,0.02592594,-0.449074088,0,0,0,,0,67,67,79,1,
,,,,,,,,,,,,,,,,,,5ec875255c6a2700081554ac,2020-12-01_16h19.25.477,lexical_decision_task_MP_exp2,2020.2.8,Win32,60,m,1,0.91843,,,,,,,,0.91843,1,,,,,,115,WORD,"ID",33,guitar,GUITAR,m,,,,,,0.02592594,-0.449074088,0,0,0,,0,68,68,54,1,
,,,,,,,,,,,,,,,,,,5ec875255c6a2700081554ac,2020-12-01_16h19.25.477,lexical_decision_task_MP_exp2,2020.2.8,Win32,60,z,1,0.867075,,,,,,,,0.867075,1,,,,,,277,NW,UN,16,unighs,PETAIN,z,,,,,,0.02592594,-0.449074088,0,0,0,,0,69,69,456,1,
,,,,,,,,,,,,,,,,,,5ec875255c6a2700081554ac,2020-12-01_16h19.25.477,lexical_decision_task_MP_exp2,2020.2.8,Win32,60,m,1,0.50668,,,,,,,,0.50668,1,,,,,,13,WORD,UN,16,almost,STRIVE,m,,,,,,0.02592594,-0.449074088,0,0,0,,0,70,70,192,1,
,,,,,,,,,,,,,,,,,,5ec875255c6a2700081554ac,2020-12-01_16h19.25.477,lexical_decision_task_MP_exp2,2020.2.8,Win32,60,z,0,0.70184,,,,,,,,0.70184,0,,,,,,24,WORD,UN,16,domain,PRAISE,m,,,,,,0.02592594,-0.449074088,0,0,0,,0,71,71,203,1,
,,,,,,,,,,,,,,,,,,5ec875255c6a2700081554ac,2020-12-01_16h19.25.477,lexical_decision_task_MP_exp2,2020.2.8,Win32,60,m,1,0.88615,,,,,,,,0.88615,1,,,,,,87,WORD,"ID",33,filter,FILTER,m,,,,,,0.02592594,-0.449074088,0,0,0,,0,72,72,26,1,
,,,,,,,,,,,,,,,,,,5ec875255c6a2700081554ac,2020-12-01_16h19.25.477,lexical_decision_task_MP_exp2,2020.2.8,Win32,60,m,1,0.71033,,,,,,,,0.71033,1,,,,,,232,WORD,UN,33,nature,INJECT,m,,,,,,0.02592594,-0.449074088,0,0,0,,0,73,73,171,1,
,,,,,,,,,,,,,,,,,,5ec875255c6a2700081554ac,2020-12-01_16h19.25.477,lexical_decision_task_MP_exp2,2020.2.8,Win32,60,z,1,0.751635,,,,,,,,0.751635,1,,,,,,461,NW,UN,33,absult,JUSTRE,z,,,,,,0.02592594,-0.449074088,0,0,0,,0,74,74,400,1,
,,,,,,,,,,,,,,,,,,5ec875255c6a2700081554ac,2020-12-01_16h19.25.477,lexical_decision_task_MP_exp2,2020.2.8,Win32,60,z,1,0.60543,,,,,,,,0.60543,1,,,,,,265,NW,UN,16,varmit,DISTAR,z,,,,,,0.02592594,-0.449074088,0,0,0,,0,75,75,444,1,
,,,,,,,,,,,,,,,,,,5ec875255c6a2700081554ac,2020-12-01_16h19.25.477,lexical_decision_task_MP_exp2,2020.2.8,Win32,60,m,1,1.46809,,,,,,,,1.46809,1,,,,,,42,WORD,UN,16,tongue,CHAPEL,m,,,,,,0.02592594,-0.449074088,0,0,0,,0,76,76,221,1,
,,,,,,,,,,,,,,,,,,5ec875255c6a2700081554ac,2020-12-01_16h19.25.477,lexical_decision_task_MP_exp2,2020.2.8,Win32,60,z,1,0.91675,,,,,,,,0.91675,1,,,,,,288,NW,UN,16,starby,YACEUP,z,,,,,,0.02592594,-0.449074088,0,0,0,,0,77,77,467,1,
,,,,,,,,,,,,,,,,,,5ec875255c6a2700081554ac,2020-12-01_16h19.25.477,lexical_decision_task_MP_exp2,2020.2.8,Win32,60,z,1,0.96927,,,,,,,,0.96927,1,,,,,,247,NW,UN,16,strole,BLARGE,z,,,,,,0.02592594,-0.449074088,0,0,0,,0,78,78,426,1,
,,,,,,,,,,,,,,,,,,5ec875255c6a2700081554ac,2020-12-01_16h19.25.477,lexical_decision_task_MP_exp2,2020.2.8,Win32,60,m,1,0.66832,,,,,,,,0.66832,1,,,,,,16,WORD,UN,16,charge,FAUCET,m,,,,,,0.02592594,-0.449074088,0,0,0,,0,79,79,195,1,
,,,,,,,,,,,,,,,,,,5ec875255c6a2700081554ac,2020-12-01_16h19.25.477,lexical_decision_task_MP_exp2,2020.2.8,Win32,60,z,1,1.33495,,,,,,,,1.33495,1,,,,,,353,NW,"ID",33,clurey,CLUREY,z,,,,,,0.02592594,-0.449074088,0,0,0,,0,80,80,292,1,
,,,,,,,,,,,,,,,,,,5ec875255c6a2700081554ac,2020-12-01_16h19.25.477,lexical_decision_task_MP_exp2,2020.2.8,Win32,60,z,1,0.93518,,,,,,,,0.93518,1,,,,,,386,NW,"ID",16,ancust,ANCUST,z,,,,,,0.02592594,-0.449074088,0,0,0,,0,81,81,325,1,
,,,,,,,,,,,,,,,,,,5ec875255c6a2700081554ac,2020-12-01_16h19.25.477,lexical_decision_task_MP_exp2,2020.2.8,Win32,60,m,1,0.874605,,,,,,,,0.874605,1,,,,,,201,WORD,UN,33,factor,ADMIRE,m,,,,,,0.02592594,-0.449074088,0,0,0,,0,82,82,140,1,
,,,,,,,,,,,,,,,,,,5ec875255c6a2700081554ac,2020-12-01_16h19.25.477,lexical_decision_task_MP_exp2,2020.2.8,Win32,60,z,1,0.775385,,,,,,,,0.775385,1,,,,,,382,NW,"ID",16,sarley,SARLEY,z,,,,,,0.02592594,-0.449074088,0,0,0,,0,83,83,321,1,
,,,,,,,,,,,,,,,,,,5ec875255c6a2700081554ac,2020-12-01_16h19.25.477,lexical_decision_task_MP_exp2,2020.2.8,Win32,60,m,0,1.151795,,,,,,,,1.151795,0,,,,,,369,NW,"ID",16,wronch,WRONCH,z,,,,,,0.02592594,-0.449074088,0,0,0,,0,84,84,308,1,
,,,,,,,,,,,,,,,,,,5ec875255c6a2700081554ac,2020-12-01_16h19.25.477,lexical_decision_task_MP_exp2,2020.2.8,Win32,60,m,1,0.58535,,,,,,,,0.58535,1,,,,,,208,WORD,UN,33,search,HOCKEY,m,,,,,,0.02592594,-0.449074088,0,0,0,,0,85,85,147,1,
,,,,,,,,,,,,,,,,,,5ec875255c6a2700081554ac,2020-12-01_16h19.25.477,lexical_decision_task_MP_exp2,2020.2.8,Win32,60,z,1,0.85828,,,,,,,,0.85828,1,,,,,,241,NW,UN,16,unwert,SMENCO,z,,,,,,0.02592594,-0.449074088,0,0,0,,0,86,86,420,1,
,,,,,,,,,,,,,,,,,,5ec875255c6a2700081554ac,2020-12-01_16h19.25.477,lexical_decision_task_MP_exp2,2020.2.8,Win32,60,z,1,0.90217,,,,,,,,0.90217,1,,,,,,463,NW,UN,33,chaite,KISPEL,z,,,,,,0.02592594,-0.449074088,0,0,0,,0,87,87,402,1,
,,,,,,,,,,,,,,,,,,5ec875255c6a2700081554ac,2020-12-01_16h19.25.477,lexical_decision_task_MP_exp2,2020.2.8,Win32,60,z,1,1.6733,,,,,,,,1.6733,1,,,,,,416,NW,"ID",16,pathel,PATHEL,z,,,,,,0.02592594,-0.449074088,0,0,0,,0,88,88,355,1,
,,,,,,,,,,,,,,,,,,5ec875255c6a2700081554ac,2020-12-01_16h19.25.477,lexical_decision_task_MP_exp2,2020.2.8,Win32,60,z,1,0.9379,,,,,,,,0.9379,1,,,,,,445,NW,UN,33,runamo,MINKEL,z,,,,,,0.02592594,-0.449074088,0,0,0,,0,89,89,384,1,
,,,,,,,,,,,,,,,,,,5ec875255c6a2700081554ac,2020-12-01_16h19.25.477,lexical_decision_task_MP_exp2,2020.2.8,Win32,60,m,1,1.010115,,,,,,,,1.010115,1,,,,,,206,WORD,UN,33,wreath,TAILOR,m,,,,,,0.02592594,-0.449074088,0,0,0,,0,90,90,145,1,
,,,,,,,,,,,,,,,,,,5ec875255c6a2700081554ac,2020-12-01_16h19.25.477,lexical_decision_task_MP_exp2,2020.2.8,Win32,60,m,1,0.805655,,,,,,,,0.805655,1,,,,,,14,WORD,UN,16,orange,ALMOST,m,,,,,,0.02592594,-0.449074088,0,0,0,,0,91,91,193,1,
,,,,,,,,,,,,,,,,,,5ec875255c6a2700081554ac,2020-12-01_16h19.25.477,lexical_decision_task_MP_exp2,2020.2.8,Win32,60,z,0,1.18807,,,,,,,,1.18807,0,,,,,,2,WORD,UN,16,knight,BRIDGE,m,,,,,,0.02592594,-0.449074088,0,0,0,,0,92,92,181,1,
,,,,,,,,,,,,,,,,,,5ec875255c6a2700081554ac,2020-12-01_16h19.25.477,lexical_decision_task_MP_exp2,2020.2.8,Win32,60,z,1,1.151415,,,,,,,,1.151415,1,,,,,,372,NW,"ID",16,ramily,RAMILY,z,,,,,,0.02592594,-0.449074088,0,0,0,,0,93,93,311,1,
,,,,,,,,,,,,,,,,,,5ec875255c6a2700081554ac,2020-12-01_16h19.25.477,lexical_decision_task_MP_exp2,2020.2.8,Win32,60,z,1,1.30443,,,,,,,,1.30443,1,,,,,,309,NW,"ID",33,amiloy,AMILOY,z,,,,,,0.02592594,-0.449074088,0,0,0,,0,94,94,248,1,
,,,,,,,,,,,,,,,,,,5ec875255c6a2700081554ac,2020-12-01_16h19.25.477,lexical_decision_task_MP_exp2,2020.2.8,Win32,60,z,1,0.444055,,,,,,,,0.444055,1,,,,,,317,NW,"ID",33,worbal,WORBAL,z,,,,,,0.02592594,-0.449074088,0,0,0,,0,95,95,256,1,
,,,,,,,,,,,,,,,,,,5ec875255c6a2700081554ac,2020-12-01_16h19.25.477,lexical_decision_task_MP_exp2,2020.2.8,Win32,60,m,1,0.70999,,,,,,,,0.70999,1,,,,,,54,WORD,UN,16,stroke,RAMBLE,m,,,,,,0.02592594,-0.449074088,0,0,0,,0,96,96,233,1,
,,,,,,,,,,,,,,,,,,5ec875255c6a2700081554ac,2020-12-01_16h19.25.477,lexical_decision_task_MP_exp2,2020.2.8,Win32,60,m,1,0.80194,,,,,,,,0.80194,1,,,,,,62,WORD,"ID",33,region,REGION,m,,,,,,0.02592594,-0.449074088,0,0,0,,0,97,97,1,1,
,,,,,,,,,,,,,,,,,,5ec875255c6a2700081554ac,2020-12-01_16h19.25.477,lexical_decision_task_MP_exp2,2020.2.8,Win32,60,z,1,0.735575,,,,,,,,0.735575,1,,,,,,293,NW,UN,16,inhort,SWANCE,z,,,,,,0.02592594,-0.449074088,0,0,0,,0,98,98,472,1,
,,,,,,,,,,,,,,,,,,5ec875255c6a2700081554ac,2020-12-01_16h19.25.477,lexical_decision_task_MP_exp2,2020.2.8,Win32,60,m,1,1.173655,,,,,,,,1.173655,1,,,,,,189,WORD,UN,33,backup,CENSOR,m,,,,,,0.02592594,-0.449074088,0,0,0,,0,99,99,128,1,
,,,,,,,,,,,,,,,,,,5ec875255c6a2700081554ac,2020-12-01_16h19.25.477,lexical_decision_task_MP_exp2,2020.2.8,Win32,60,z,1,0.71819,,,,,,,,0.71819,1,,,,,,370,NW,"ID",16,sleact,SLEACT,z,,,,,,0.02592594,-0.449074088,0,0,0,,0,100,100,309,1,
,,,,,,,,,,,,,,,,,,5ec875255c6a2700081554ac,2020-12-01_16h19.25.477,lexical_decision_task_MP_exp2,2020.2.8,Win32,60,z,1,0.58741,,,,,,,,0.58741,1,,,,,,388,NW,"ID",16,cragin,CRAGIN,z,,,,,,0.02592594,-0.449074088,0,0,0,,0,101,101,327,1,
,,,,,,,,,,,,,,,,,,5ec875255c6a2700081554ac,2020-12-01_16h19.25.477,lexical_decision_task_MP_exp2,2020.2.8,Win32,60,z,1,0.844665,,,,,,,,0.844665,1,,,,,,403,NW,"ID",16,bruats,BRUATS,z,,,,,,0.02592594,-0.449074088,0,0,0,,0,102,102,342,1,
,,,,,,,,,,,,,,,,,,5ec875255c6a2700081554ac,2020-12-01_16h19.25.477,lexical_decision_task_MP_exp2,2020.2.8,Win32,60,z,1,0.635165,,,,,,,,0.635165,1,,,,,,320,NW,"ID",33,jockal,JOCKAL,z,,,,,,0.02592594,-0.449074088,0,0,0,,0,103,103,259,1,
,,,,,,,,,,,,,,,,,,5ec875255c6a2700081554ac,2020-12-01_16h19.25.477,lexical_decision_task_MP_exp2,2020.2.8,Win32,60,z,1,0.635735,,,,,,,,0.635735,1,,,,,,348,NW,"ID",33,dumple,DUMPLE,z,,,,,,0.02592594,-0.449074088,0,0,0,,0,104,104,287,1,
,,,,,,,,,,,,,,,,,,5ec875255c6a2700081554ac,2020-12-01_16h19.25.477,lexical_decision_task_MP_exp2,2020.2.8,Win32,60,m,1,0.500205,,,,,,,,0.500205,1,,,,,,26,WORD,UN,16,butler,SPRINT,m,,,,,,0.02592594,-0.449074088,0,0,0,,0,105,105,205,1,
,,,,,,,,,,,,,,,,,,5ec875255c6a2700081554ac,2020-12-01_16h19.25.477,lexical_decision_task_MP_exp2,2020.2.8,Win32,60,z,1,0.551785,,,,,,,,0.551785,1,,,,,,450,NW,UN,33,cainky,PHRECT,z,,,,,,0.02592594,-0.449074088,0,0,0,,0,106,106,389,1,
,,,,,,,,,,,,,,,,,,5ec875255c6a2700081554ac,2020-12-01_16h19.25.477,lexical_decision_task_MP_exp2,2020.2.8,Win32,60,m,1,0.552575,,,,,,,,0.552575,1,,,,,,47,WORD,UN,16,walnut,INCOME,m,,,,,,0.02592594,-0.449074088,0,0,0,,0,107,107,226,1,
,,,,,,,,,,,,,,,,,,5ec875255c6a2700081554ac,2020-12-01_16h19.25.477,lexical_decision_task_MP_exp2,2020.2.8,Win32,60,z,1,0.65243,,,,,,,,0.65243,1,,,,,,446,NW,UN,33,gircue,RUNAMO,z,,,,,,0.02592594,-0.449074088,0,0,0,,0,108,108,385,1,
,,,,,,,,,,,,,,,,,,5ec875255c6a2700081554ac,2020-12-01_16h19.25.477,lexical_decision_task_MP_exp2,2020.2.8,Win32,60,z,1,0.6112,,,,,,,,0.6112,1,,,,,,393,NW,"ID",16,ganous,GANOUS,z,,,,,,0.02592594,-0.449074088,0,0,0,,0,109,109,332,1,
,,,,,,,,,,,,,,,,,,5ec875255c6a2700081554ac,2020-12-01_16h19.25.477,lexical_decision_task_MP_exp2,2020.2.8,Win32,60,z,1,0.507675,,,,,,,,0.507675,1,,,,,,286,NW,UN,16,nymbel,RELDON,z,,,,,,0.02592594,-0.449074088,0,0,0,,0,110,110,465,1,
,,,,,,,,,,,,,,,,,,5ec875255c6a2700081554ac,2020-12-01_16h19.25.477,lexical_decision_task_MP_exp2,2020.2.8,Win32,60,m,1,0.48558,,,,,,,,0.48558,1,,,,,,78,WORD,"ID",33,column,COLUMN,m,,,,,,0.02592594,-0.449074088,0,0,0,,0,111,111,17,1,
,,,,,,,,,,,,,,,,,,5ec875255c6a2700081554ac,2020-12-01_16h19.25.477,lexical_decision_task_MP_exp2,2020.2.8,Win32,60,z,1,0.4906,,,,,,,,0.4906,1,,,,,,476,NW,UN,33,photie,JOSTED,z,,,,,,0.02592594,-0.449074088,0,0,0,,0,112,112,415,1,
,,,,,,,,,,,,,,,,,,5ec875255c6a2700081554ac,2020-12-01_16h19.25.477,lexical_decision_task_MP_exp2,2020.2.8,Win32,60,m,1,0.49324,,,,,,,,0.49324,1,,,,,,1,WORD,UN,16,ethnic,FRIGHT,m,,,,,,0.02592594,-0.449074088,0,0,0,,0,113,113,180,1,
,,,,,,,,,,,,,,,,,,5ec875255c6a2700081554ac,2020-12-01_16h19.25.477,lexical_decision_task_MP_exp2,2020.2.8,Win32,60,z,1,0.533215,,,,,,,,0.533215,1,,,,,,389,NW,"ID",16,witmer,WITMER,z,,,,,,0.02592594,-0.449074088,0,0,0,,0,114,114,328,1,
,,,,,,,,,,,,,,,,,,5ec875255c6a2700081554ac,2020-12-01_16h19.25.477,lexical_decision_task_MP_exp2,2020.2.8,Win32,60,z,1,0.601765,,,,,,,,0.601765,1,,,,,,342,NW,"ID",33,randow,RANDOW,z,,,,,,0.02592594,-0.449074088,0,0,0,,0,115,115,281,1,
,,,,,,,,,,,,,,,,,,5ec875255c6a2700081554ac,2020-12-01_16h19.25.477,lexical_decision_task_MP_exp2,2020.2.8,Win32,60,z,1,0.61909,,,,,,,,0.61909,1,,,,,,250,NW,UN,16,lupict,MILTED,z,,,,,,0.02592594,-0.449074088,0,0,0,,0,116,116,429,1,
,,,,,,,,,,,,,,,,,,5ec875255c6a2700081554ac,2020-12-01_16h19.25.477,lexical_decision_task_MP_exp2,2020.2.8,Win32,60,m,1,0.519835,,,,,,,,0.519835,1,,,,,,152,WORD,"ID",16,rocket,ROCKET,m,,,,,,0.02592594,-0.449074088,0,0,0,,0,117,117,91,1,
,,,,,,,,,,,,,,,,,,5ec875255c6a2700081554ac,2020-12-01_16h19.25.477,lexical_decision_task_MP_exp2,2020.2.8,Win32,60,z,1,0.538985,,,,,,,,0.538985,1,,,,,,412,NW,"ID",16,jiluer,JILUER,z,,,,,,0.02592594,-0.449074088,0,0,0,,0,118,118,351,1,
,,,,,,,,,,,,,,,,,,5ec875255c6a2700081554ac,2020-12-01_16h19.25.477,lexical_decision_task_MP_exp2,2020.2.8,Win32,60,z,1,0.55257,,,,,,,,0.55257,1,,,,,,256,NW,UN,16,veniod,INLORS,z,,,,,,0.02592594,-0.449074088,0,0,0,,0,119,119,435,1,
,,,,,,,,,,,,,,,,,,5ec875255c6a2700081554ac,2020-12-01_16h19.25.477,lexical_decision_task_MP_exp2,2020.2.8,Win32,60,z,1,0.54382,,,,,,,,0.54382,1,,,,,,472,NW,UN,33,gorbie,CIGNEY,z,,,,,,0.02592594,-0.449074088,0,0,0,space,0,120,120,411,1,35.235925
,,,,,,,,,,,,,,,,,,5ec875255c6a2700081554ac,2020-12-01_16h19.25.477,lexical_decision_task_MP_exp2,2020.2.8,Win32,60,m,1,0.784925,,,,,,,,0.784925,1,,,,,,72,WORD,"ID",33,bright,BRIGHT,m,,,,,,0.02592594,-0.449074088,0,0,0,,0,121,121,11,1,
,,,,,,,,,,,,,,,,,,5ec875255c6a2700081554ac,2020-12-01_16h19.25.477,lexical_decision_task_MP_exp2,2020.2.8,Win32,60,z,1,1.101935,,,,,,,,1.101935,1,,,,,,442,NW,UN,33,dorsex,ABOUNE,z,,,,,,0.02592594,-0.449074088,0,0,0,,0,122,122,381,1,
,,,,,,,,,,,,,,,,,,5ec875255c6a2700081554ac,2020-12-01_16h19.25.477,lexical_decision_task_MP_exp2,2020.2.8,Win32,60,z,0,1.03524,,,,,,,,1.03524,0,,,,,,114,WORD,"ID",33,placid,PLACID,m,,,,,,0.02592594,-0.449074088,0,0,0,,0,123,123,53,1,
,,,,,,,,,,,,,,,,,,5ec875255c6a2700081554ac,2020-12-01_16h19.25.477,lexical_decision_task_MP_exp2,2020.2.8,Win32,60,m,1,0.51823,,,,,,,,0.51823,1,,,,,,83,WORD,"ID",33,result,RESULT,m,,,,,,0.02592594,-0.449074088,0,0,0,,0,124,124,22,1,
,,,,,,,,,,,,,,,,,,5ec875255c6a2700081554ac,2020-12-01_16h19.25.477,lexical_decision_task_MP_exp2,2020.2.8,Win32,60,m,1,0.56841,,,,,,,,0.56841,1,,,,,,226,WORD,UN,33,flower,CASINO,m,,,,,,0.02592594,-0.449074088,0,0,0,,0,125,125,165,1,
,,,,,,,,,,,,,,,,,,5ec875255c6a2700081554ac,2020-12-01_16h19.25.477,lexical_decision_task_MP_exp2,2020.2.8,Win32,60,z,1,0.518435,,,,,,,,0.518435,1,,,,,,400,NW,"ID",16,wearox,WEAROX,z,,,,,,0.02592594,-0.449074088,0,0,0,,0,126,126,339,1,
,,,,,,,,,,,,,,,,,,5ec875255c6a2700081554ac,2020-12-01_16h19.25.477,lexical_decision_task_MP_exp2,2020.2.8,Win32,60,z,1,0.63515,,,,,,,,0.63515,1,,,,,,364,NW,"ID",16,impote,IMPOTE,z,,,,,,0.02592594,-0.449074088,0,0,0,,0,127,127,303,1,
,,,,,,,,,,,,,,,,,,5ec875255c6a2700081554ac,2020-12-01_16h19.25.477,lexical_decision_task_MP_exp2,2020.2.8,Win32,60,z,1,0.50159,,,,,,,,0.50159,1,,,,,,367,NW,"ID",16,slique,SLIQUE,z,,,,,,0.02592594,-0.449074088,0,0,0,,0,128,128,306,1,
,,,,,,,,,,,,,,,,,,5ec875255c6a2700081554ac,2020-12-01_16h19.25.477,lexical_decision_task_MP_exp2,2020.2.8,Win32,60,z,1,0.443305,,,,,,,,0.443305,1,,,,,,280,NW,UN,16,melaty,CURBOL,z,,,,,,0.02592594,-0.449074088,0,0,0,,0,129,129,459,1,
,,,,,,,,,,,,,,,,,,5ec875255c6a2700081554ac,2020-12-01_16h19.25.477,lexical_decision_task_MP_exp2,2020.2.8,Win32,60,m,1,0.840695,,,,,,,,0.840695,1,,,,,,17,WORD,UN,16,humble,CHARGE,m,,,,,,0.02592594,-0.449074088,0,0,0,,0,130,130,196,1,
,,,,,,,,,,,,,,,,,,5ec875255c6a2700081554ac,2020-12-01_16h19.25.477,lexical_decision_task_MP_exp2,2020.2.8,Win32,60,m,1,0.62427,,,,,,,,0.62427,1,,,,,,101,WORD,"ID",33,wrench,WRENCH,m,,,,,,0.02592594,-0.449074088,0,0,0,,0,131,131,40,1,
,,,,,,,,,,,,,,,,,,5ec875255c6a2700081554ac,2020-12-01_16h19.25.477,lexical_decision_task_MP_exp2,2020.2.8,Win32,60,m,1,0.708435,,,,,,,,0.708435,1,,,,,,121,WORD,"ID",16,thrive,THRIVE,m,,,,,,0.02592594,-0.449074088,0,0,0,,0,132,132,60,1,
,,,,,,,,,,,,,,,,,,5ec875255c6a2700081554ac,2020-12-01_16h19.25.477,lexical_decision_task_MP_exp2,2020.2.8,Win32,60,z,1,0.524465,,,,,,,,0.524465,1,,,,,,285,NW,UN,16,reldon,PRUDGE,z,,,,,,0.02592594,-0.449074088,0,0,0,,0,133,133,464,1,
,,,,,,,,,,,,,,,,,,5ec875255c6a2700081554ac,2020-12-01_16h19.25.477,lexical_decision_task_MP_exp2,2020.2.8,Win32,60,z,1,0.55167,,,,,,,,0.55167,1,,,,,,459,NW,UN,33,mingar,BAFENT,z,,,,,,0.02592594,-0.449074088,0,0,0,,0,134,134,398,1,
,,,,,,,,,,,,,,,,,,5ec875255c6a2700081554ac,2020-12-01_16h19.25.477,lexical_decision_task_MP_exp2,2020.2.8,Win32,60,m,1,0.6187,,,,,,,,0.6187,1,,,,,,75,WORD,"ID",33,trophy,TROPHY,m,,,,,,0.02592594,-0.449074088,0,0,0,,0,135,135,14,1,
,,,,,,,,,,,,,,,,,,5ec875255c6a2700081554ac,2020-12-01_16h19.25.477,lexical_decision_task_MP_exp2,2020.2.8,Win32,60,z,1,0.591525,,,,,,,,0.591525,1,,,,,,358,NW,"ID",33,fleack,FLEACK,z,,,,,,0.02592594,-0.449074088,0,0,0,,0,136,136,297,1,
,,,,,,,,,,,,,,,,,,5ec875255c6a2700081554ac,2020-12-01_16h19.25.477,lexical_decision_task_MP_exp2,2020.2.8,Win32,60,z,1,0.635255,,,,,,,,0.635255,1,,,,,,316,NW,"ID",33,scregm,SCREGM,z,,,,,,0.02592594,-0.449074088,0,0,0,,0,137,137,255,1,
,,,,,,,,,,,,,,,,,,5ec875255c6a2700081554ac,2020-12-01_16h19.25.477,lexical_decision_task_MP_exp2,2020.2.8,Win32,60,z,1,0.742835,,,,,,,,0.742835,1,,,,,,439,NW,UN,33,saride,LIMPOR,z,,,,,,0.02592594,-0.449074088,0,0,0,,0,138,138,378,1,
,,,,,,,,,,,,,,,,,,5ec875255c6a2700081554ac,2020-12-01_16h19.25.477,lexical_decision_task_MP_exp2,2020.2.8,Win32,60,m,1,0.72098,,,,,,,,0.72098,1,,,,,,192,WORD,UN,33,object,PLAGUE,m,,,,,,0.02592594,-0.449074088,0,0,0,,0,139,139,131,1,
,,,,,,,,,,,,,,,,,,5ec875255c6a2700081554ac,2020-12-01_16h19.25.477,lexical_decision_task_MP_exp2,2020.2.8,Win32,60,m,1,0.73979,,,,,,,,0.73979,1,,,,,,145,WORD,"ID",16,parish,PARISH,m,,,,,,0.02592594,-0.449074088,0,0,0,,0,140,140,84,1,
,,,,,,,,,,,,,,,,,,5ec875255c6a2700081554ac,2020-12-01_16h19.25.477,lexical_decision_task_MP_exp2,2020.2.8,Win32,60,z,0,0.65223,,,,,,,,0.65223,0,,,,,,45,WORD,UN,16,single,CLERGY,m,,,,,,0.02592594,-0.449074088,0,0,0,,0,141,141,224,1,
,,,,,,,,,,,,,,,,,,5ec875255c6a2700081554ac,2020-12-01_16h19.25.477,lexical_decision_task_MP_exp2,2020.2.8,Win32,60,m,0,0.4857,,,,,,,,0.4857,0,,,,,,248,NW,UN,16,batrol,STROLE,z,,,,,,0.02592594,-0.449074088,0,0,0,,0,142,142,427,1,
,,,,,,,,,,,,,,,,,,5ec875255c6a2700081554ac,2020-12-01_16h19.25.477,lexical_decision_task_MP_exp2,2020.2.8,Win32,60,m,1,0.47455,,,,,,,,0.47455,1,,,,,,130,WORD,"ID",16,stupid,STUPID,m,,,,,,0.02592594,-0.449074088,0,0,0,,0,143,143,69,1,
,,,,,,,,,,,,,,,,,,5ec875255c6a2700081554ac,2020-12-01_16h19.25.477,lexical_decision_task_MP_exp2,2020.2.8,Win32,60,m,1,0.57869,,,,,,,,0.57869,1,,,,,,212,WORD,UN,33,squeal,VERIFY,m,,,,,,0.02592594,-0.449074088,0,0,0,,0,144,144,151,1,
,,,,,,,,,,,,,,,,,,5ec875255c6a2700081554ac,2020-12-01_16h19.25.477,lexical_decision_task_MP_exp2,2020.2.8,Win32,60,m,1,0.59493,,,,,,,,0.59493,1,,,,,,15,WORD,UN,16,faucet,AMOUNT,m,,,,,,0.02592594,-0.449074088,0,0,0,,0,145,145,194,1,
,,,,,,,,,,,,,,,,,,5ec875255c6a2700081554ac,2020-12-01_16h19.25.477,lexical_decision_task_MP_exp2,2020.2.8,Win32,60,z,1,0.7159,,,,,,,,0.7159,1,,,,,,458,NW,UN,33,hocite,BARCET,z,,,,,,0.02592594,-0.449074088,0,0,0,,0,146,146,397,1,
,,,,,,,,,,,,,,,,,,5ec875255c6a2700081554ac,2020-12-01_16h19.25.477,lexical_decision_task_MP_exp2,2020.2.8,Win32,60,z,1,0.552395,,,,,,,,0.552395,1,,,,,,308,NW,"ID",33,psetch,PSETCH,z,,,,,,0.02592594,-0.449074088,0,0,0,,0,147,147,247,1,
,,,,,,,,,,,,,,,,,,5ec875255c6a2700081554ac,2020-12-01_16h19.25.477,lexical_decision_task_MP_exp2,2020.2.8,Win32,60,m,1,0.585585,,,,,,,,0.585585,1,,,,,,159,WORD,"ID",16,detail,DETAIL,m,,,,,,0.02592594,-0.449074088,0,0,0,,0,148,148,98,1,
,,,,,,,,,,,,,,,,,,5ec875255c6a2700081554ac,2020-12-01_16h19.25.477,lexical_decision_task_MP_exp2,2020.2.8,Win32,60,z,1,0.559835,,,,,,,,0.559835,1,,,,,,371,NW,"ID",16,geiloy,GEILOY,z,,,,,,0.02592594,-0.449074088,0,0,0,,0,149,149,310,1,
,,,,,,,,,,,,,,,,,,5ec875255c6a2700081554ac,2020-12-01_16h19.25.477,lexical_decision_task_MP_exp2,2020.2.8,Win32,60,z,1,0.886045,,,,,,,,0.886045,1,,,,,,333,NW,"ID",33,catrie,CATRIE,z,,,,,,0.02592594,-0.449074088,0,0,0,,0,150,150,272,1,
,,,,,,,,,,,,,,,,,,5ec875255c6a2700081554ac,2020-12-01_16h19.25.477,lexical_decision_task_MP_exp2,2020.2.8,Win32,60,z,0,0.835435,,,,,,,,0.835435,0,,,,,,194,WORD,UN,33,resign,ABSENT,m,,,,,,0.02592594,-0.449074088,0,0,0,,0,151,151,133,1,
,,,,,,,,,,,,,,,,,,5ec875255c6a2700081554ac,2020-12-01_16h19.25.477,lexical_decision_task_MP_exp2,2020.2.8,Win32,60,z,1,0.73685,,,,,,,,0.73685,1,,,,,,411,NW,"ID",16,orchin,ORCHIN,z,,,,,,0.02592594,-0.449074088,0,0,0,,0,152,152,350,1,
,,,,,,,,,,,,,,,,,,5ec875255c6a2700081554ac,2020-12-01_16h19.25.477,lexical_decision_task_MP_exp2,2020.2.8,Win32,60,m,1,0.535075,,,,,,,,0.535075,1,,,,,,44,WORD,UN,16,clergy,DANGER,m,,,,,,0.02592594,-0.449074088,0,0,0,,0,153,153,223,1,
,,,,,,,,,,,,,,,,,,5ec875255c6a2700081554ac,2020-12-01_16h19.25.477,lexical_decision_task_MP_exp2,2020.2.8,Win32,60,m,1,0.492805,,,,,,,,0.492805,1,,,,,,219,WORD,UN,33,voyage,BUCKET,m,,,,,,0.02592594,-0.449074088,0,0,0,,0,154,154,158,1,
,,,,,,,,,,,,,,,,,,5ec875255c6a2700081554ac,2020-12-01_16h19.25.477,lexical_decision_task_MP_exp2,2020.2.8,Win32,60,z,1,0.60176,,,,,,,,0.60176,1,,,,,,431,NW,UN,33,lunker,CHRUMS,z,,,,,,0.02592594,-0.449074088,0,0,0,,0,155,155,370,1,
,,,,,,,,,,,,,,,,,,5ec875255c6a2700081554ac,2020-12-01_16h19.25.477,lexical_decision_task_MP_exp2,2020.2.8,Win32,60,z,1,0.718375,,,,,,,,0.718375,1,,,,,,469,NW,UN,33,crudio,PADIFS,z,,,,,,0.02592594,-0.449074088,0,0,0,,0,156,156,408,1,
,,,,,,,,,,,,,,,,,,5ec875255c6a2700081554ac,2020-12-01_16h19.25.477,lexical_decision_task_MP_exp2,2020.2.8,Win32,60,z,1,0.63667,,,,,,,,0.63667,1,,,,,,274,NW,UN,16,sleirt,FUMBLO,z,,,,,,0.02592594,-0.449074088,0,0,0,,0,157,157,453,1,
,,,,,,,,,,,,,,,,,,5ec875255c6a2700081554ac,2020-12-01_16h19.25.477,lexical_decision_task_MP_exp2,2020.2.8,Win32,60,z,1,0.618485,,,,,,,,0.618485,1,,,,,,474,NW,UN,33,acrise,HABLIN,z,,,,,,0.02592594,-0.449074088,0,0,0,,0,158,158,413,1,
,,,,,,,,,,,,,,,,,,5ec875255c6a2700081554ac,2020-12-01_16h19.25.477,lexical_decision_task_MP_exp2,2020.2.8,Win32,60,m,1,0.511285,,,,,,,,0.511285,1,,,,,,162,WORD,"ID",16,candle,CANDLE,m,,,,,,0.02592594,-0.449074088,0,0,0,,0,159,159,101,1,
,,,,,,,,,,,,,,,,,,5ec875255c6a2700081554ac,2020-12-01_16h19.25.477,lexical_decision_task_MP_exp2,2020.2.8,Win32,60,z,1,0.59127,,,,,,,,0.59127,1,,,,,,355,NW,"ID",33,zingly,ZINGLY,z,,,,,,0.02592594,-0.449074088,0,0,0,,0,160,160,294,1,
,,,,,,,,,,,,,,,,,,5ec875255c6a2700081554ac,2020-12-01_16h19.25.477,lexical_decision_task_MP_exp2,2020.2.8,Win32,60,m,0,0.535965,,,,,,,,0.535965,0,,,,,,313,NW,"ID",33,paurse,PAURSE,z,,,,,,0.02592594,-0.449074088,0,0,0,,0,161,161,252,1,
,,,,,,,,,,,,,,,,,,5ec875255c6a2700081554ac,2020-12-01_16h19.25.477,lexical_decision_task_MP_exp2,2020.2.8,Win32,60,m,1,0.55928,,,,,,,,0.55928,1,,,,,,225,WORD,UN,33,casino,VULGAR,m,,,,,,0.02592594,-0.449074088,0,0,0,,0,162,162,164,1,
,,,,,,,,,,,,,,,,,,5ec875255c6a2700081554ac,2020-12-01_16h19.25.477,lexical_decision_task_MP_exp2,2020.2.8,Win32,60,m,1,0.50889,,,,,,,,0.50889,1,,,,,,205,WORD,UN,33,tailor,LOUNGE,m,,,,,,0.02592594,-0.449074088,0,0,0,,0,163,163,144,1,
,,,,,,,,,,,,,,,,,,5ec875255c6a2700081554ac,2020-12-01_16h19.25.477,lexical_decision_task_MP_exp2,2020.2.8,Win32,60,m,1,0.50035,,,,,,,,0.50035,1,,,,,,211,WORD,UN,33,verify,INFECT,m,,,,,,0.02592594,-0.449074088,0,0,0,,0,164,164,150,1,
,,,,,,,,,,,,,,,,,,5ec875255c6a2700081554ac,2020-12-01_16h19.25.477,lexical_decision_task_MP_exp2,2020.2.8,Win32,60,m,1,0.41955,,,,,,,,0.41955,1,,,,,,134,WORD,"ID",16,staple,STAPLE,m,,,,,,0.02592594,-0.449074088,0,0,0,,0,165,165,73,1,
,,,,,,,,,,,,,,,,,,5ec875255c6a2700081554ac,2020-12-01_16h19.25.477,lexical_decision_task_MP_exp2,2020.2.8,Win32,60,z,1,0.63923,,,,,,,,0.63923,1,,,,,,381,NW,"ID",16,huniek,HUNIEK,z,,,,,,0.02592594,-0.449074088,0,0,0,,0,166,166,320,1,
,,,,,,,,,,,,,,,,,,5ec875255c6a2700081554ac,2020-12-01_16h19.25.477,lexical_decision_task_MP_exp2,2020.2.8,Win32,60,z,0,0.453605,,,,,,,,0.453605,0,,,,,,222,WORD,UN,33,export,HINDER,m,,,,,,0.02592594,-0.449074088,0,0,0,,0,167,167,161,1,
,,,,,,,,,,,,,,,,,,5ec875255c6a2700081554ac,2020-12-01_16h19.25.477,lexical_decision_task_MP_exp2,2020.2.8,Win32,60,z,1,0.70846,,,,,,,,0.70846,1,,,,,,397,NW,"ID",16,camble,CAMBLE,z,,,,,,0.02592594,-0.449074088,0,0,0,,0,168,168,336,1,
,,,,,,,,,,,,,,,,,,5ec875255c6a2700081554ac,2020-12-01_16h19.25.477,lexical_decision_task_MP_exp2,2020.2.8,Win32,60,z,1,0.64183,,,,,,,,0.64183,1,,,,,,281,NW,UN,16,porlex,MELATY,z,,,,,,0.02592594,-0.449074088,0,0,0,,0,169,169,460,1,
,,,,,,,,,,,,,,,,,,5ec875255c6a2700081554ac,2020-12-01_16h19.25.477,lexical_decision_task_MP_exp2,2020.2.8,Win32,60,z,1,0.53719,,,,,,,,0.53719,1,,,,,,350,NW,"ID",33,nagurs,NAGURS,z,,,,,,0.02592594,-0.449074088,0,0,0,,0,170,170,289,1,
,,,,,,,,,,,,,,,,,,5ec875255c6a2700081554ac,2020-12-01_16h19.25.477,lexical_decision_task_MP_exp2,2020.2.8,Win32,60,z,1,0.685535,,,,,,,,0.685535,1,,,,,,349,NW,"ID",33,asylen,ASYLEN,z,,,,,,0.02592594,-0.449074088,0,0,0,,0,171,171,288,1,
,,,,,,,,,,,,,,,,,,5ec875255c6a2700081554ac,2020-12-01_16h19.25.477,lexical_decision_task_MP_exp2,2020.2.8,Win32,60,z,1,0.570515,,,,,,,,0.570515,1,,,,,,408,NW,"ID",16,hurnia,HURNIA,z,,,,,,0.02592594,-0.449074088,0,0,0,,0,172,172,347,1,
,,,,,,,,,,,,,,,,,,5ec875255c6a2700081554ac,2020-12-01_16h19.25.477,lexical_decision_task_MP_exp2,2020.2.8,Win32,60,m,1,0.885255,,,,,,,,0.885255,1,,,,,,30,WORD,UN,16,weapon,ORIENT,m,,,,,,0.02592594,-0.449074088,0,0,0,,0,173,173,209,1,
,,,,,,,,,,,,,,,,,,5ec875255c6a2700081554ac,2020-12-01_16h19.25.477,lexical_decision_task_MP_exp2,2020.2.8,Win32,60,z,1,0.88592,,,,,,,,0.88592,1,,,,,,307,NW,"ID",33,kirafe,KIRAFE,z,,,,,,0.02592594,-0.449074088,0,0,0,,0,174,174,246,1,
,,,,,,,,,,,,,,,,,,5ec875255c6a2700081554ac,2020-12-01_16h19.25.477,lexical_decision_task_MP_exp2,2020.2.8,Win32,60,m,1,0.50106,,,,,,,,0.50106,1,,,,,,106,WORD,"ID",33,ransom,RANSOM,m,,,,,,0.02592594,-0.449074088,0,0,0,,0,175,175,45,1,
,,,,,,,,,,,,,,,,,,5ec875255c6a2700081554ac,2020-12-01_16h19.25.477,lexical_decision_task_MP_exp2,2020.2.8,Win32,60,m,1,0.533855,,,,,,,,0.533855,1,,,,,,58,WORD,UN,16,splint,FOSTER,m,,,,,,0.02592594,-0.449074088,0,0,0,,0,176,176,237,1,
,,,,,,,,,,,,,,,,,,5ec875255c6a2700081554ac,2020-12-01_16h19.25.477,lexical_decision_task_MP_exp2,2020.2.8,Win32,60,z,1,0.69733,,,,,,,,0.69733,1,,,,,,278,NW,UN,16,celond,UNIGHS,z,,,,,,0.02592594,-0.449074088,0,0,0,,0,177,177,457,1,
,,,,,,,,,,,,,,,,,,5ec875255c6a2700081554ac,2020-12-01_16h19.25.477,lexical_decision_task_MP_exp2,2020.2.8,Win32,60,z,1,0.69702,,,,,,,,0.69702,1,,,,,,428,NW,UN,33,funtle,TANDLY,z,,,,,,0.02592594,-0.449074088,0,0,0,,0,178,178,367,1,
,,,,,,,,,,,,,,,,,,5ec875255c6a2700081554ac,2020-12-01_16h19.25.477,lexical_decision_task_MP_exp2,2020.2.8,Win32,60,z,1,0.92581,,,,,,,,0.92581,1,,,,,,262,NW,UN,16,dolica,QUILEW,z,,,,,,0.02592594,-0.449074088,0,0,0,,0,179,179,441,1,
,,,,,,,,,,,,,,,,,,5ec875255c6a2700081554ac,2020-12-01_16h19.25.477,lexical_decision_task_MP_exp2,2020.2.8,Win32,60,m,1,0.55111,,,,,,,,0.55111,1,,,,,,187,WORD,UN,33,social,COURSE,m,,,,,,0.02592594,-0.449074088,0,0,0,,0,180,180,126,1,
,,,,,,,,,,,,,,,,,,5ec875255c6a2700081554ac,2020-12-01_16h19.25.477,lexical_decision_task_MP_exp2,2020.2.8,Win32,60,m,1,0.56333,,,,,,,,0.56333,1,,,,,,113,WORD,"ID",33,chorus,CHORUS,m,,,,,,0.02592594,-0.449074088,0,0,0,,0,181,181,52,1,
,,,,,,,,,,,,,,,,,,5ec875255c6a2700081554ac,2020-12-01_16h19.25.477,lexical_decision_task_MP_exp2,2020.2.8,Win32,60,m,1,0.45784,,,,,,,,0.45784,1,,,,,,96,WORD,"ID",33,ignore,IGNORE,m,,,,,,0.02592594,-0.449074088,0,0,0,,0,182,182,35,1,
,,,,,,,,,,,,,,,,,,5ec875255c6a2700081554ac,2020-12-01_16h19.25.477,lexical_decision_task_MP_exp2,2020.2.8,Win32,60,m,1,0.4704,,,,,,,,0.4704,1,,,,,,236,WORD,UN,33,grumpy,PIRATE,m,,,,,,0.02592594,-0.449074088,0,0,0,,0,183,183,175,1,
,,,,,,,,,,,,,,,,,,5ec875255c6a2700081554ac,2020-12-01_16h19.25.477,lexical_decision_task_MP_exp2,2020.2.8,Win32,60,z,1,0.69999,,,,,,,,0.69999,1,,,,,,270,NW,UN,16,aubrid,WRIMSY,z,,,,,,0.02592594,-0.449074088,0,0,0,,0,184,184,449,1,
,,,,,,,,,,,,,,,,,,5ec875255c6a2700081554ac,2020-12-01_16h19.25.477,lexical_decision_task_MP_exp2,2020.2.8,Win32,60,m,1,0.39715,,,,,,,,0.39715,1,,,,,,94,WORD,"ID",33,travel,TRAVEL,m,,,,,,0.02592594,-0.449074088,0,0,0,,0,185,185,33,1,
,,,,,,,,,,,,,,,,,,5ec875255c6a2700081554ac,2020-12-01_16h19.25.477,lexical_decision_task_MP_exp2,2020.2.8,Win32,60,m,1,0.545295,,,,,,,,0.545295,1,,,,,,167,WORD,"ID",16,design,DESIGN,m,,,,,,0.02592594,-0.449074088,0,0,0,,0,186,186,106,1,
,,,,,,,,,,,,,,,,,,5ec875255c6a2700081554ac,2020-12-01_16h19.25.477,lexical_decision_task_MP_exp2,2020.2.8,Win32,60,m,1,0.43223,,,,,,,,0.43223,1,,,,,,185,WORD,UN,33,portal,BOTHER,m,,,,,,0.02592594,-0.449074088,0,0,0,,0,187,187,124,1,
,,,,,,,,,,,,,,,,,,5ec875255c6a2700081554ac,2020-12-01_16h19.25.477,lexical_decision_task_MP_exp2,2020.2.8,Win32,60,m,1,0.386865,,,,,,,,0.386865,1,,,,,,57,WORD,UN,16,danger,CHANGE,m,,,,,,0.02592594,-0.449074088,0,0,0,,0,188,188,236,1,
,,,,,,,,,,,,,,,,,,5ec875255c6a2700081554ac,2020-12-01_16h19.25.477,lexical_decision_task_MP_exp2,2020.2.8,Win32,60,z,1,0.72319,,,,,,,,0.72319,1,,,,,,430,NW,UN,33,chrums,CAROEY,z,,,,,,0.02592594,-0.449074088,0,0,0,,0,189,189,369,1,
,,,,,,,,,,,,,,,,,,5ec875255c6a2700081554ac,2020-12-01_16h19.25.477,lexical_decision_task_MP_exp2,2020.2.8,Win32,60,m,1,0.55495,,,,,,,,0.55495,1,,,,,,198,WORD,UN,33,invoke,WICKED,m,,,,,,0.02592594,-0.449074088,0,0,0,,0,190,190,137,1,
,,,,,,,,,,,,,,,,,,5ec875255c6a2700081554ac,2020-12-01_16h19.25.477,lexical_decision_task_MP_exp2,2020.2.8,Win32,60,m,1,0.500935,,,,,,,,0.500935,1,,,,,,126,WORD,"ID",16,enough,ENOUGH,m,,,,,,0.02592594,-0.449074088,0,0,0,,0,191,191,65,1,
,,,,,,,,,,,,,,,,,,5ec875255c6a2700081554ac,2020-12-01_16h19.25.477,lexical_decision_task_MP_exp2,2020.2.8,Win32,60,z,1,0.637765,,,,,,,,0.637765,1,,,,,,346,NW,"ID",33,saudic,SAUDIC,z,,,,,,0.02592594,-0.449074088,0,0,0,,0,192,192,285,1,
,,,,,,,,,,,,,,,,,,5ec875255c6a2700081554ac,2020-12-01_16h19.25.477,lexical_decision_task_MP_exp2,2020.2.8,Win32,60,z,1,0.654915,,,,,,,,0.654915,1,,,,,,330,NW,"ID",33,kensom,KENSOM,z,,,,,,0.02592594,-0.449074088,0,0,0,,0,193,193,269,1,
,,,,,,,,,,,,,,,,,,5ec875255c6a2700081554ac,2020-12-01_16h19.25.477,lexical_decision_task_MP_exp2,2020.2.8,Win32,60,m,1,0.40446,,,,,,,,0.40446,1,,,,,,202,WORD,UN,33,phrase,FACTOR,m,,,,,,0.02592594,-0.449074088,0,0,0,,0,194,194,141,1,
,,,,,,,,,,,,,,,,,,5ec875255c6a2700081554ac,2020-12-01_16h19.25.477,lexical_decision_task_MP_exp2,2020.2.8,Win32,60,z,1,0.554685,,,,,,,,0.554685,1,,,,,,328,NW,"ID",33,broake,BROAKE,z,,,,,,0.02592594,-0.449074088,0,0,0,,0,195,195,267,1,
,,,,,,,,,,,,,,,,,,5ec875255c6a2700081554ac,2020-12-01_16h19.25.477,lexical_decision_task_MP_exp2,2020.2.8,Win32,60,m,1,0.63856,,,,,,,,0.63856,1,,,,,,97,WORD,"ID",33,client,CLIENT,m,,,,,,0.02592594,-0.449074088,0,0,0,,0,196,196,36,1,
,,,,,,,,,,,,,,,,,,5ec875255c6a2700081554ac,2020-12-01_16h19.25.477,lexical_decision_task_MP_exp2,2020.2.8,Win32,60,m,1,0.56708,,,,,,,,0.56708,1,,,,,,18,WORD,UN,16,patron,HUMBLE,m,,,,,,0.02592594,-0.449074088,0,0,0,,0,197,197,197,1,
,,,,,,,,,,,,,,,,,,5ec875255c6a2700081554ac,2020-12-01_16h19.25.477,lexical_decision_task_MP_exp2,2020.2.8,Win32,60,m,1,0.418455,,,,,,,,0.418455,1,,,,,,157,WORD,"ID",16,dragon,DRAGON,m,,,,,,0.02592594,-0.449074088,0,0,0,,0,198,198,96,1,
,,,,,,,,,,,,,,,,,,5ec875255c6a2700081554ac,2020-12-01_16h19.25.477,lexical_decision_task_MP_exp2,2020.2.8,Win32,60,m,1,0.567375,,,,,,,,0.567375,1,,,,,,23,WORD,UN,16,praise,WEALTH,m,,,,,,0.02592594,-0.449074088,0,0,0,,0,199,199,202,1,
,,,,,,,,,,,,,,,,,,5ec875255c6a2700081554ac,2020-12-01_16h19.25.477,lexical_decision_task_MP_exp2,2020.2.8,Win32,60,z,1,0.58449,,,,,,,,0.58449,1,,,,,,466,NW,UN,33,robuly,HOCITE,z,,,,,,0.02592594,-0.449074088,0,0,0,,0,200,200,405,1,
,,,,,,,,,,,,,,,,,,5ec875255c6a2700081554ac,2020-12-01_16h19.25.477,lexical_decision_task_MP_exp2,2020.2.8,Win32,60,z,1,0.651075,,,,,,,,0.651075,1,,,,,,477,NW,UN,33,lobush,PHOTIE,z,,,,,,0.02592594,-0.449074088,0,0,0,,0,201,201,416,1,
,,,,,,,,,,,,,,,,,,5ec875255c6a2700081554ac,2020-12-01_16h19.25.477,lexical_decision_task_MP_exp2,2020.2.8,Win32,60,z,1,0.563935,,,,,,,,0.563935,1,,,,,,434,NW,UN,33,impurb,PITROM,z,,,,,,0.02592594,-0.449074088,0,0,0,,0,202,202,373,1,
,,,,,,,,,,,,,,,,,,5ec875255c6a2700081554ac,2020-12-01_16h19.25.477,lexical_decision_task_MP_exp2,2020.2.8,Win32,60,m,1,0.55402,,,,,,,,0.55402,1,,,,,,76,WORD,"ID",33,exotic,EXOTIC,m,,,,,,0.02592594,-0.449074088,0,0,0,,0,203,203,15,1,
,,,,,,,,,,,,,,,,,,5ec875255c6a2700081554ac,2020-12-01_16h19.25.477,lexical_decision_task_MP_exp2,2020.2.8,Win32,60,m,1,0.516325,,,,,,,,0.516325,1,,,,,,180,WORD,"ID",16,silent,SILENT,m,,,,,,0.02592594,-0.449074088,0,0,0,,0,204,204,119,1,
,,,,,,,,,,,,,,,,,,5ec875255c6a2700081554ac,2020-12-01_16h19.25.477,lexical_decision_task_MP_exp2,2020.2.8,Win32,60,m,1,0.60416,,,,,,,,0.60416,1,,,,,,112,WORD,"ID",33,breath,BREATH,m,,,,,,0.02592594,-0.449074088,0,0,0,,0,205,205,51,1,
,,,,,,,,,,,,,,,,,,5ec875255c6a2700081554ac,2020-12-01_16h19.25.477,lexical_decision_task_MP_exp2,2020.2.8,Win32,60,z,0,0.59937,,,,,,,,0.59937,0,,,,,,138,WORD,"ID",16,melody,MELODY,m,,,,,,0.02592594,-0.449074088,0,0,0,,0,206,206,77,1,
,,,,,,,,,,,,,,,,,,5ec875255c6a2700081554ac,2020-12-01_16h19.25.477,lexical_decision_task_MP_exp2,2020.2.8,Win32,60,m,1,0.40716,,,,,,,,0.40716,1,,,,,,66,WORD,"ID",33,gospel,GOSPEL,m,,,,,,0.02592594,-0.449074088,0,0,0,,0,207,207,5,1,
,,,,,,,,,,,,,,,,,,5ec875255c6a2700081554ac,2020-12-01_16h19.25.477,lexical_decision_task_MP_exp2,2020.2.8,Win32,60,z,1,0.616255,,,,,,,,0.616255,1,,,,,,354,NW,"ID",33,virlex,VIRLEX,z,,,,,,0.02592594,-0.449074088,0,0,0,,0,208,208,293,1,
,,,,,,,,,,,,,,,,,,5ec875255c6a2700081554ac,2020-12-01_16h19.25.477,lexical_decision_task_MP_exp2,2020.2.8,Win32,60,m,1,0.487085,,,,,,,,0.487085,1,,,,,,19,WORD,UN,16,breast,PATRON,m,,,,,,0.02592594,-0.449074088,0,0,0,,0,209,209,198,1,
,,,,,,,,,,,,,,,,,,5ec875255c6a2700081554ac,2020-12-01_16h19.25.477,lexical_decision_task_MP_exp2,2020.2.8,Win32,60,z,1,0.650475,,,,,,,,0.650475,1,,,,,,357,NW,"ID",33,derain,DERAIN,z,,,,,,0.02592594,-0.449074088,0,0,0,,0,210,210,296,1,
,,,,,,,,,,,,,,,,,,5ec875255c6a2700081554ac,2020-12-01_16h19.25.477,lexical_decision_task_MP_exp2,2020.2.8,Win32,60,m,1,0.43568,,,,,,,,0.43568,1,,,,,,200,WORD,UN,33,admire,BEACON,m,,,,,,0.02592594,-0.449074088,0,0,0,,0,211,211,139,1,
,,,,,,,,,,,,,,,,,,5ec875255c6a2700081554ac,2020-12-01_16h19.25.477,lexical_decision_task_MP_exp2,2020.2.8,Win32,60,m,0,0.48487,,,,,,,,0.48487,0,,,,,,291,NW,UN,16,ablint,PRETCH,z,,,,,,0.02592594,-0.449074088,0,0,0,,0,212,212,470,1,
,,,,,,,,,,,,,,,,,,5ec875255c6a2700081554ac,2020-12-01_16h19.25.477,lexical_decision_task_MP_exp2,2020.2.8,Win32,60,m,0,0.532145,,,,,,,,0.532145,0,,,,,,398,NW,"ID",16,blunde,BLUNDE,z,,,,,,0.02592594,-0.449074088,0,0,0,,0,213,213,337,1,
,,,,,,,,,,,,,,,,,,5ec875255c6a2700081554ac,2020-12-01_16h19.25.477,lexical_decision_task_MP_exp2,2020.2.8,Win32,60,m,1,0.489625,,,,,,,,0.489625,1,,,,,,88,WORD,"ID",33,hunger,HUNGER,m,,,,,,0.02592594,-0.449074088,0,0,0,,0,214,214,27,1,
,,,,,,,,,,,,,,,,,,5ec875255c6a2700081554ac,2020-12-01_16h19.25.477,lexical_decision_task_MP_exp2,2020.2.8,Win32,60,z,1,0.555485,,,,,,,,0.555485,1,,,,,,312,NW,"ID",33,nerawl,NERAWL,z,,,,,,0.02592594,-0.449074088,0,0,0,,0,215,215,251,1,
,,,,,,,,,,,,,,,,,,5ec875255c6a2700081554ac,2020-12-01_16h19.25.477,lexical_decision_task_MP_exp2,2020.2.8,Win32,60,m,1,0.48616,,,,,,,,0.48616,1,,,,,,137,WORD,"ID",16,finger,FINGER,m,,,,,,0.02592594,-0.449074088,0,0,0,,0,216,216,76,1,
,,,,,,,,,,,,,,,,,,5ec875255c6a2700081554ac,2020-12-01_16h19.25.477,lexical_decision_task_MP_exp2,2020.2.8,Win32,60,z,1,0.74714,,,,,,,,0.74714,1,,,,,,424,NW,UN,33,frudge,PRAILE,z,,,,,,0.02592594,-0.449074088,0,0,0,,0,217,217,363,1,
,,,,,,,,,,,,,,,,,,5ec875255c6a2700081554ac,2020-12-01_16h19.25.477,lexical_decision_task_MP_exp2,2020.2.8,Win32,60,m,1,0.516525,,,,,,,,0.516525,1,,,,,,104,WORD,"ID",33,studio,STUDIO,m,,,,,,0.02592594,-0.449074088,0,0,0,,0,218,218,43,1,
,,,,,,,,,,,,,,,,,,5ec875255c6a2700081554ac,2020-12-01_16h19.25.477,lexical_decision_task_MP_exp2,2020.2.8,Win32,60,m,1,0.485965,,,,,,,,0.485965,1,,,,,,109,WORD,"ID",33,wonder,WONDER,m,,,,,,0.02592594,-0.449074088,0,0,0,,0,219,219,48,1,
,,,,,,,,,,,,,,,,,,5ec875255c6a2700081554ac,2020-12-01_16h19.25.477,lexical_decision_task_MP_exp2,2020.2.8,Win32,60,m,1,0.613985,,,,,,,,0.613985,1,,,,,,55,WORD,UN,16,ambush,STROKE,m,,,,,,0.02592594,-0.449074088,0,0,0,,0,220,220,234,1,
,,,,,,,,,,,,,,,,,,5ec875255c6a2700081554ac,2020-12-01_16h19.25.477,lexical_decision_task_MP_exp2,2020.2.8,Win32,60,m,1,0.535815,,,,,,,,0.535815,1,,,,,,38,WORD,UN,16,insect,POWDER,m,,,,,,0.02592594,-0.449074088,0,0,0,,0,221,221,217,1,
,,,,,,,,,,,,,,,,,,5ec875255c6a2700081554ac,2020-12-01_16h19.25.477,lexical_decision_task_MP_exp2,2020.2.8,Win32,60,m,1,0.556055,,,,,,,,0.556055,1,,,,,,56,WORD,UN,16,change,AMBUSH,m,,,,,,0.02592594,-0.449074088,0,0,0,,0,222,222,235,1,
,,,,,,,,,,,,,,,,,,5ec875255c6a2700081554ac,2020-12-01_16h19.25.477,lexical_decision_task_MP_exp2,2020.2.8,Win32,60,z,1,0.736535,,,,,,,,0.736535,1,,,,,,335,NW,"ID",33,desion,DESION,z,,,,,,0.02592594,-0.449074088,0,0,0,,0,223,223,274,1,
,,,,,,,,,,,,,,,,,,5ec875255c6a2700081554ac,2020-12-01_16h19.25.477,lexical_decision_task_MP_exp2,2020.2.8,Win32,60,m,1,0.482655,,,,,,,,0.482655,1,,,,,,48,WORD,UN,16,survey,WALNUT,m,,,,,,0.02592594,-0.449074088,0,0,0,,0,224,224,227,1,
,,,,,,,,,,,,,,,,,,5ec875255c6a2700081554ac,2020-12-01_16h19.25.477,lexical_decision_task_MP_exp2,2020.2.8,Win32,60,z,1,0.608595,,,,,,,,0.608595,1,,,,,,292,NW,UN,16,swance,ABLINT,z,,,,,,0.02592594,-0.449074088,0,0,0,,0,225,225,471,1,
,,,,,,,,,,,,,,,,,,5ec875255c6a2700081554ac,2020-12-01_16h19.25.477,lexical_decision_task_MP_exp2,2020.2.8,Win32,60,z,1,0.58113,,,,,,,,0.58113,1,,,,,,421,NW,UN,33,alcoud,KNISMA,z,,,,,,0.02592594,-0.449074088,0,0,0,,0,226,226,360,1,
,,,,,,,,,,,,,,,,,,5ec875255c6a2700081554ac,2020-12-01_16h19.25.477,lexical_decision_task_MP_exp2,2020.2.8,Win32,60,m,0,0.514195,,,,,,,,0.514195,0,,,,,,297,NW,UN,16,piergy,FERTIC,z,,,,,,0.02592594,-0.449074088,0,0,0,,0,227,227,476,1,
,,,,,,,,,,,,,,,,,,5ec875255c6a2700081554ac,2020-12-01_16h19.25.477,lexical_decision_task_MP_exp2,2020.2.8,Win32,60,z,1,0.7191,,,,,,,,0.7191,1,,,,,,374,NW,"ID",16,sliant,SLIANT,z,,,,,,0.02592594,-0.449074088,0,0,0,,0,228,228,313,1,
,,,,,,,,,,,,,,,,,,5ec875255c6a2700081554ac,2020-12-01_16h19.25.477,lexical_decision_task_MP_exp2,2020.2.8,Win32,60,z,1,0.682825,,,,,,,,0.682825,1,,,,,,252,NW,UN,16,resait,STAPOD,z,,,,,,0.02592594,-0.449074088,0,0,0,,0,229,229,431,1,
,,,,,,,,,,,,,,,,,,5ec875255c6a2700081554ac,2020-12-01_16h19.25.477,lexical_decision_task_MP_exp2,2020.2.8,Win32,60,z,0,0.5722,,,,,,,,0.5722,0,,,,,,176,WORD,"ID",16,strife,STRIFE,m,,,,,,0.02592594,-0.449074088,0,0,0,,0,230,230,115,1,
,,,,,,,,,,,,,,,,,,5ec875255c6a2700081554ac,2020-12-01_16h19.25.477,lexical_decision_task_MP_exp2,2020.2.8,Win32,60,m,1,0.440395,,,,,,,,0.440395,1,,,,,,118,WORD,"ID",33,flight,FLIGHT,m,,,,,,0.02592594,-0.449074088,0,0,0,,0,231,231,57,1,
,,,,,,,,,,,,,,,,,,5ec875255c6a2700081554ac,2020-12-01_16h19.25.477,lexical_decision_task_MP_exp2,2020.2.8,Win32,60,m,1,0.481,,,,,,,,0.481,1,,,,,,169,WORD,"ID",16,genius,GENIUS,m,,,,,,0.02592594,-0.449074088,0,0,0,,0,232,232,108,1,
,,,,,,,,,,,,,,,,,,5ec875255c6a2700081554ac,2020-12-01_16h19.25.477,lexical_decision_task_MP_exp2,2020.2.8,Win32,60,z,0,0.45502,,,,,,,,0.45502,0,,,,,,214,WORD,UN,33,phobia,INTAKE,m,,,,,,0.02592594,-0.449074088,0,0,0,,0,233,233,153,1,
,,,,,,,,,,,,,,,,,,5ec875255c6a2700081554ac,2020-12-01_16h19.25.477,lexical_decision_task_MP_exp2,2020.2.8,Win32,60,m,1,0.4144,,,,,,,,0.4144,1,,,,,,63,WORD,"ID",33,launch,LAUNCH,m,,,,,,0.02592594,-0.449074088,0,0,0,,0,234,234,2,1,
,,,,,,,,,,,,,,,,,,5ec875255c6a2700081554ac,2020-12-01_16h19.25.477,lexical_decision_task_MP_exp2,2020.2.8,Win32,60,z,1,0.61594,,,,,,,,0.61594,1,,,,,,387,NW,"ID",16,gronce,GRONCE,z,,,,,,0.02592594,-0.449074088,0,0,0,,0,235,235,326,1,
,,,,,,,,,,,,,,,,,,5ec875255c6a2700081554ac,2020-12-01_16h19.25.477,lexical_decision_task_MP_exp2,2020.2.8,Win32,60,z,1,0.79763,,,,,,,,0.79763,1,,,,,,344,NW,"ID",33,scrily,SCRILY,z,,,,,,0.02592594,-0.449074088,0,0,0,,0,236,236,283,1,
,,,,,,,,,,,,,,,,,,5ec875255c6a2700081554ac,2020-12-01_16h19.25.477,lexical_decision_task_MP_exp2,2020.2.8,Win32,60,m,0,0.598735,,,,,,,,0.598735,0,,,,,,279,NW,UN,16,curbol,CELOND,z,,,,,,0.02592594,-0.449074088,0,0,0,,0,237,237,458,1,
,,,,,,,,,,,,,,,,,,5ec875255c6a2700081554ac,2020-12-01_16h19.25.477,lexical_decision_task_MP_exp2,2020.2.8,Win32,60,m,1,0.530325,,,,,,,,0.530325,1,,,,,,99,WORD,"ID",33,fluent,FLUENT,m,,,,,,0.02592594,-0.449074088,0,0,0,,0,238,238,38,1,
,,,,,,,,,,,,,,,,,,5ec875255c6a2700081554ac,2020-12-01_16h19.25.477,lexical_decision_task_MP_exp2,2020.2.8,Win32,60,z,1,0.87693,,,,,,,,0.87693,1,,,,,,337,NW,"ID",33,rejols,REJOLS,z,,,,,,0.02592594,-0.449074088,0,0,0,,0,239,239,276,1,
,,,,,,,,,,,,,,,,,,5ec875255c6a2700081554ac,2020-12-01_16h19.25.477,lexical_decision_task_MP_exp2,2020.2.8,Win32,60,z,1,0.72065,,,,,,,,0.72065,1,,,,,,454,NW,UN,33,tondle,SCOUGE,z,,,,,,0.02592594,-0.449074088,0,0,0,,0,240,240,393,1,
,,,,,,,,,,,,,,,,,,5ec875255c6a2700081554ac,2020-12-01_16h19.25.477,lexical_decision_task_MP_exp2,2020.2.8,Win32,60,z,1,0.815105,,,,,,,,0.815105,1,,,,,,287,NW,UN,16,yaceup,NYMBEL,z,,,,,,0.02592594,-0.449074088,0,0,0,space,0,241,241,466,1,1.06563
,,,,,,,,,,,,,,,,,,5ec875255c6a2700081554ac,2020-12-01_16h19.25.477,lexical_decision_task_MP_exp2,2020.2.8,Win32,60,m,1,0.6674,,,,,,,,0.6674,1,,,,,,154,WORD,"ID",16,author,AUTHOR,m,,,,,,0.02592594,-0.449074088,0,0,0,,0,242,242,93,1,
,,,,,,,,,,,,,,,,,,5ec875255c6a2700081554ac,2020-12-01_16h19.25.477,lexical_decision_task_MP_exp2,2020.2.8,Win32,60,z,1,0.60113,,,,,,,,0.60113,1,,,,,,467,NW,UN,33,wictor,GORBIE,z,,,,,,0.02592594,-0.449074088,0,0,0,,0,243,243,406,1,
,,,,,,,,,,,,,,,,,,5ec875255c6a2700081554ac,2020-12-01_16h19.25.477,lexical_decision_task_MP_exp2,2020.2.8,Win32,60,m,1,0.611985,,,,,,,,0.611985,1,,,,,,35,WORD,UN,16,vanish,SOCKET,m,,,,,,0.02592594,-0.449074088,0,0,0,,0,244,244,214,1,
,,,,,,,,,,,,,,,,,,5ec875255c6a2700081554ac,2020-12-01_16h19.25.477,lexical_decision_task_MP_exp2,2020.2.8,Win32,60,z,1,0.649765,,,,,,,,0.649765,1,,,,,,272,NW,UN,16,sortel,DAMILT,z,,,,,,0.02592594,-0.449074088,0,0,0,,0,245,245,451,1,
,,,,,,,,,,,,,,,,,,5ec875255c6a2700081554ac,2020-12-01_16h19.25.477,lexical_decision_task_MP_exp2,2020.2.8,Win32,60,m,1,0.37516,,,,,,,,0.37516,1,,,,,,21,WORD,UN,16,jockey,SIMPLE,m,,,,,,0.02592594,-0.449074088,0,0,0,,0,246,246,200,1,
,,,,,,,,,,,,,,,,,,5ec875255c6a2700081554ac,2020-12-01_16h19.25.477,lexical_decision_task_MP_exp2,2020.2.8,Win32,60,m,1,0.534905,,,,,,,,0.534905,1,,,,,,79,WORD,"ID",33,theory,THEORY,m,,,,,,0.02592594,-0.449074088,0,0,0,,0,247,247,18,1,
,,,,,,,,,,,,,,,,,,5ec875255c6a2700081554ac,2020-12-01_16h19.25.477,lexical_decision_task_MP_exp2,2020.2.8,Win32,60,m,1,0.547705,,,,,,,,0.547705,1,,,,,,34,WORD,UN,16,socket,JUNGLE,m,,,,,,0.02592594,-0.449074088,0,0,0,,0,248,248,213,1,
,,,,,,,,,,,,,,,,,,5ec875255c6a2700081554ac,2020-12-01_16h19.25.477,lexical_decision_task_MP_exp2,2020.2.8,Win32,60,z,1,0.55817,,,,,,,,0.55817,1,,,,,,399,NW,"ID",16,fouret,FOURET,z,,,,,,0.02592594,-0.449074088,0,0,0,,0,249,249,338,1,
,,,,,,,,,,,,,,,,,,5ec875255c6a2700081554ac,2020-12-01_16h19.25.477,lexical_decision_task_MP_exp2,2020.2.8,Win32,60,m,1,0.43983,,,,,,,,0.43983,1,,,,,,91,WORD,"ID",33,expand,EXPAND,m,,,,,,0.02592594,-0.449074088,0,0,0,,0,250,250,30,1,
,,,,,,,,,,,,,,,,,,5ec875255c6a2700081554ac,2020-12-01_16h19.25.477,lexical_decision_task_MP_exp2,2020.2.8,Win32,60,m,1,0.604185,,,,,,,,0.604185,1,,,,,,73,WORD,"ID",33,source,SOURCE,m,,,,,,0.02592594,-0.449074088,0,0,0,,0,251,251,12,1,
,,,,,,,,,,,,,,,,,,5ec875255c6a2700081554ac,2020-12-01_16h19.25.477,lexical_decision_task_MP_exp2,2020.2.8,Win32,60,m,1,0.46763,,,,,,,,0.46763,1,,,,,,108,WORD,"ID",33,reckon,RECKON,m,,,,,,0.02592594,-0.449074088,0,0,0,,0,252,252,47,1,
,,,,,,,,,,,,,,,,,,5ec875255c6a2700081554ac,2020-12-01_16h19.25.477,lexical_decision_task_MP_exp2,2020.2.8,Win32,60,m,1,0.41938,,,,,,,,0.41938,1,,,,,,10,WORD,UN,16,cruise,ETHNIC,m,,,,,,0.02592594,-0.449074088,0,0,0,,0,253,253,189,1,
,,,,,,,,,,,,,,,,,,5ec875255c6a2700081554ac,2020-12-01_16h19.25.477,lexical_decision_task_MP_exp2,2020.2.8,Win32,60,m,1,0.56436,,,,,,,,0.56436,1,,,,,,127,WORD,"ID",16,castle,CASTLE,m,,,,,,0.02592594,-0.449074088,0,0,0,,0,254,254,66,1,
,,,,,,,,,,,,,,,,,,5ec875255c6a2700081554ac,2020-12-01_16h19.25.477,lexical_decision_task_MP_exp2,2020.2.8,Win32,60,m,1,0.68144,,,,,,,,0.68144,1,,,,,,182,WORD,UN,33,absent,WINTER,m,,,,,,0.02592594,-0.449074088,0,0,0,,0,255,255,121,1,
,,,,,,,,,,,,,,,,,,5ec875255c6a2700081554ac,2020-12-01_16h19.25.477,lexical_decision_task_MP_exp2,2020.2.8,Win32,60,m,1,0.66621,,,,,,,,0.66621,1,,,,,,67,WORD,"ID",33,policy,POLICY,m,,,,,,0.02592594,-0.449074088,0,0,0,,0,256,256,6,1,
,,,,,,,,,,,,,,,,,,5ec875255c6a2700081554ac,2020-12-01_16h19.25.477,lexical_decision_task_MP_exp2,2020.2.8,Win32,60,z,1,0.600875,,,,,,,,0.600875,1,,,,,,301,NW,"ID",33,fainch,FAINCH,z,,,,,,0.02592594,-0.449074088,0,0,0,,0,257,257,240,1,
,,,,,,,,,,,,,,,,,,5ec875255c6a2700081554ac,2020-12-01_16h19.25.477,lexical_decision_task_MP_exp2,2020.2.8,Win32,60,m,1,0.49849,,,,,,,,0.49849,1,,,,,,207,WORD,UN,33,hockey,WREATH,m,,,,,,0.02592594,-0.449074088,0,0,0,,0,258,258,146,1,
,,,,,,,,,,,,,,,,,,5ec875255c6a2700081554ac,2020-12-01_16h19.25.477,lexical_decision_task_MP_exp2,2020.2.8,Win32,60,m,1,0.533975,,,,,,,,0.533975,1,,,,,,230,WORD,UN,33,mother,FRINGE,m,,,,,,0.02592594,-0.449074088,0,0,0,,0,259,259,169,1,
,,,,,,,,,,,,,,,,,,5ec875255c6a2700081554ac,2020-12-01_16h19.25.477,lexical_decision_task_MP_exp2,2020.2.8,Win32,60,z,1,0.63455,,,,,,,,0.63455,1,,,,,,359,NW,"ID",33,fonver,FONVER,z,,,,,,0.02592594,-0.449074088,0,0,0,,0,260,260,298,1,
,,,,,,,,,,,,,,,,,,5ec875255c6a2700081554ac,2020-12-01_16h19.25.477,lexical_decision_task_MP_exp2,2020.2.8,Win32,60,z,1,0.583245,,,,,,,,0.583245,1,,,,,,435,NW,UN,33,frutan,IMPURB,z,,,,,,0.02592594,-0.449074088,0,0,0,,0,261,261,374,1,
,,,,,,,,,,,,,,,,,,5ec875255c6a2700081554ac,2020-12-01_16h19.25.477,lexical_decision_task_MP_exp2,2020.2.8,Win32,60,m,1,0.56806,,,,,,,,0.56806,1,,,,,,133,WORD,"ID",16,chrome,CHROME,m,,,,,,0.02592594,-0.449074088,0,0,0,,0,262,262,72,1,
,,,,,,,,,,,,,,,,,,5ec875255c6a2700081554ac,2020-12-01_16h19.25.477,lexical_decision_task_MP_exp2,2020.2.8,Win32,60,z,1,0.7141,,,,,,,,0.7141,1,,,,,,244,NW,UN,16,anougs,EATRIC,z,,,,,,0.02592594,-0.449074088,0,0,0,,0,263,263,423,1,
,,,,,,,,,,,,,,,,,,5ec875255c6a2700081554ac,2020-12-01_16h19.25.477,lexical_decision_task_MP_exp2,2020.2.8,Win32,60,m,1,0.6563,,,,,,,,0.6563,1,,,,,,227,WORD,UN,33,master,SELDOM,m,,,,,,0.02592594,-0.449074088,0,0,0,,0,264,264,166,1,
,,,,,,,,,,,,,,,,,,5ec875255c6a2700081554ac,2020-12-01_16h19.25.477,lexical_decision_task_MP_exp2,2020.2.8,Win32,60,z,1,0.667735,,,,,,,,0.667735,1,,,,,,432,NW,UN,33,drance,LUNKER,z,,,,,,0.02592594,-0.449074088,0,0,0,,0,265,265,371,1,
,,,,,,,,,,,,,,,,,,5ec875255c6a2700081554ac,2020-12-01_16h19.25.477,lexical_decision_task_MP_exp2,2020.2.8,Win32,60,z,1,0.549955,,,,,,,,0.549955,1,,,,,,302,NW,"ID",33,miluer,MILUER,z,,,,,,0.02592594,-0.449074088,0,0,0,,0,266,266,241,1,
,,,,,,,,,,,,,,,,,,5ec875255c6a2700081554ac,2020-12-01_16h19.25.477,lexical_decision_task_MP_exp2,2020.2.8,Win32,60,m,1,0.46407,,,,,,,,0.46407,1,,,,,,197,WORD,UN,33,wicked,STREAM,m,,,,,,0.02592594,-0.449074088,0,0,0,,0,267,267,136,1,
,,,,,,,,,,,,,,,,,,5ec875255c6a2700081554ac,2020-12-01_16h19.25.477,lexical_decision_task_MP_exp2,2020.2.8,Win32,60,z,1,0.61826,,,,,,,,0.61826,1,,,,,,347,NW,"ID",33,kerift,KERIFT,z,,,,,,0.02592594,-0.449074088,0,0,0,,0,268,268,286,1,
,,,,,,,,,,,,,,,,,,5ec875255c6a2700081554ac,2020-12-01_16h19.25.477,lexical_decision_task_MP_exp2,2020.2.8,Win32,60,m,1,0.47657,,,,,,,,0.47657,1,,,,,,150,WORD,"ID",16,random,RANDOM,m,,,,,,0.02592594,-0.449074088,0,0,0,,0,269,269,89,1,
,,,,,,,,,,,,,,,,,,5ec875255c6a2700081554ac,2020-12-01_16h19.25.477,lexical_decision_task_MP_exp2,2020.2.8,Win32,60,z,1,0.59032,,,,,,,,0.59032,1,,,,,,266,NW,UN,16,pasink,VARMIT,z,,,,,,0.02592594,-0.449074088,0,0,0,,0,270,270,445,1,
,,,,,,,,,,,,,,,,,,5ec875255c6a2700081554ac,2020-12-01_16h19.25.477,lexical_decision_task_MP_exp2,2020.2.8,Win32,60,m,1,0.520685,,,,,,,,0.520685,1,,,,,,61,WORD,"ID",33,ponder,PONDER,m,,,,,,0.02592594,-0.449074088,0,0,0,,0,271,271,0,1,
,,,,,,,,,,,,,,,,,,5ec875255c6a2700081554ac,2020-12-01_16h19.25.477,lexical_decision_task_MP_exp2,2020.2.8,Win32,60,z,1,0.563905,,,,,,,,0.563905,1,,,,,,324,NW,"ID",33,steikh,STEIKH,z,,,,,,0.02592594,-0.449074088,0,0,0,,0,272,272,263,1,
,,,,,,,,,,,,,,,,,,5ec875255c6a2700081554ac,2020-12-01_16h19.25.477,lexical_decision_task_MP_exp2,2020.2.8,Win32,60,z,1,0.746015,,,,,,,,0.746015,1,,,,,,427,NW,UN,33,tandly,SCHIND,z,,,,,,0.02592594,-0.449074088,0,0,0,,0,273,273,366,1,
,,,,,,,,,,,,,,,,,,5ec875255c6a2700081554ac,2020-12-01_16h19.25.477,lexical_decision_task_MP_exp2,2020.2.8,Win32,60,z,1,0.7139,,,,,,,,0.7139,1,,,,,,282,NW,UN,16,veralf,PORLEX,z,,,,,,0.02592594,-0.449074088,0,0,0,,0,274,274,461,1,
,,,,,,,,,,,,,,,,,,5ec875255c6a2700081554ac,2020-12-01_16h19.25.477,lexical_decision_task_MP_exp2,2020.2.8,Win32,60,m,1,0.82565,,,,,,,,0.82565,1,,,,,,122,WORD,"ID",16,linger,LINGER,m,,,,,,0.02592594,-0.449074088,0,0,0,,0,275,275,61,1,
,,,,,,,,,,,,,,,,,,5ec875255c6a2700081554ac,2020-12-01_16h19.25.477,lexical_decision_task_MP_exp2,2020.2.8,Win32,60,m,1,0.607955,,,,,,,,0.607955,1,,,,,,50,WORD,UN,16,hungry,SNATCH,m,,,,,,0.02592594,-0.449074088,0,0,0,,0,276,276,229,1,
,,,,,,,,,,,,,,,,,,5ec875255c6a2700081554ac,2020-12-01_16h19.25.477,lexical_decision_task_MP_exp2,2020.2.8,Win32,60,z,1,0.634685,,,,,,,,0.634685,1,,,,,,473,NW,UN,33,hablin,CRIBLE,z,,,,,,0.02592594,-0.449074088,0,0,0,,0,277,277,412,1,
,,,,,,,,,,,,,,,,,,5ec875255c6a2700081554ac,2020-12-01_16h19.25.477,lexical_decision_task_MP_exp2,2020.2.8,Win32,60,z,1,0.697195,,,,,,,,0.697195,1,,,,,,260,NW,UN,16,stunch,UNJECT,z,,,,,,0.02592594,-0.449074088,0,0,0,,0,278,278,439,1,
,,,,,,,,,,,,,,,,,,5ec875255c6a2700081554ac,2020-12-01_16h19.25.477,lexical_decision_task_MP_exp2,2020.2.8,Win32,60,z,0,0.53422,,,,,,,,0.53422,0,,,,,,170,WORD,"ID",16,pounce,POUNCE,m,,,,,,0.02592594,-0.449074088,0,0,0,,0,279,279,109,1,
,,,,,,,,,,,,,,,,,,5ec875255c6a2700081554ac,2020-12-01_16h19.25.477,lexical_decision_task_MP_exp2,2020.2.8,Win32,60,z,1,0.582455,,,,,,,,0.582455,1,,,,,,332,NW,"ID",33,vangue,VANGUE,z,,,,,,0.02592594,-0.449074088,0,0,0,,0,280,280,271,1,
,,,,,,,,,,,,,,,,,,5ec875255c6a2700081554ac,2020-12-01_16h19.25.477,lexical_decision_task_MP_exp2,2020.2.8,Win32,60,z,1,0.43667,,,,,,,,0.43667,1,,,,,,440,NW,UN,33,rastoe,SARIDE,z,,,,,,0.02592594,-0.449074088,0,0,0,,0,281,281,379,1,
,,,,,,,,,,,,,,,,,,5ec875255c6a2700081554ac,2020-12-01_16h19.25.477,lexical_decision_task_MP_exp2,2020.2.8,Win32,60,m,1,0.530775,,,,,,,,0.530775,1,,,,,,174,WORD,"ID",16,turkey,TURKEY,m,,,,,,0.02592594,-0.449074088,0,0,0,,0,282,282,113,1,
,,,,,,,,,,,,,,,,,,5ec875255c6a2700081554ac,2020-12-01_16h19.25.477,lexical_decision_task_MP_exp2,2020.2.8,Win32,60,z,1,0.6194,,,,,,,,0.6194,1,,,,,,251,NW,UN,16,stapod,LUPICT,z,,,,,,0.02592594,-0.449074088,0,0,0,,0,283,283,430,1,
,,,,,,,,,,,,,,,,,,5ec875255c6a2700081554ac,2020-12-01_16h19.25.477,lexical_decision_task_MP_exp2,2020.2.8,Win32,60,m,1,0.55268,,,,,,,,0.55268,1,,,,,,31,WORD,UN,16,buckle,WEAPON,m,,,,,,0.02592594,-0.449074088,0,0,0,,0,284,284,210,1,
,,,,,,,,,,,,,,,,,,5ec875255c6a2700081554ac,2020-12-01_16h19.25.477,lexical_decision_task_MP_exp2,2020.2.8,Win32,60,m,1,0.630625,,,,,,,,0.630625,1,,,,,,25,WORD,UN,16,sprint,DOMAIN,m,,,,,,0.02592594,-0.449074088,0,0,0,,0,285,285,204,1,
,,,,,,,,,,,,,,,,,,5ec875255c6a2700081554ac,2020-12-01_16h19.25.477,lexical_decision_task_MP_exp2,2020.2.8,Win32,60,z,1,0.63477,,,,,,,,0.63477,1,,,,,,468,NW,UN,33,padifs,WICTOR,z,,,,,,0.02592594,-0.449074088,0,0,0,,0,286,286,407,1,
,,,,,,,,,,,,,,,,,,5ec875255c6a2700081554ac,2020-12-01_16h19.25.477,lexical_decision_task_MP_exp2,2020.2.8,Win32,60,m,1,0.557875,,,,,,,,0.557875,1,,,,,,190,WORD,UN,33,stable,BACKUP,m,,,,,,0.02592594,-0.449074088,0,0,0,,0,287,287,129,1,
,,,,,,,,,,,,,,,,,,5ec875255c6a2700081554ac,2020-12-01_16h19.25.477,lexical_decision_task_MP_exp2,2020.2.8,Win32,60,m,1,0.52309,,,,,,,,0.52309,1,,,,,,239,WORD,UN,33,forest,LUMBER,m,,,,,,0.02592594,-0.449074088,0,0,0,,0,288,288,178,1,
,,,,,,,,,,,,,,,,,,5ec875255c6a2700081554ac,2020-12-01_16h19.25.477,lexical_decision_task_MP_exp2,2020.2.8,Win32,60,m,1,0.423385,,,,,,,,0.423385,1,,,,,,209,WORD,UN,33,monkey,SEARCH,m,,,,,,0.02592594,-0.449074088,0,0,0,,0,289,289,148,1,
,,,,,,,,,,,,,,,,,,5ec875255c6a2700081554ac,2020-12-01_16h19.25.477,lexical_decision_task_MP_exp2,2020.2.8,Win32,60,m,1,0.450875,,,,,,,,0.450875,1,,,,,,193,WORD,UN,33,mildew,OBJECT,m,,,,,,0.02592594,-0.449074088,0,0,0,,0,290,290,132,1,
,,,,,,,,,,,,,,,,,,5ec875255c6a2700081554ac,2020-12-01_16h19.25.477,lexical_decision_task_MP_exp2,2020.2.8,Win32,60,m,1,0.401675,,,,,,,,0.401675,1,,,,,,148,WORD,"ID",16,custom,CUSTOM,m,,,,,,0.02592594,-0.449074088,0,0,0,,0,291,291,87,1,
,,,,,,,,,,,,,,,,,,5ec875255c6a2700081554ac,2020-12-01_16h19.25.477,lexical_decision_task_MP_exp2,2020.2.8,Win32,60,m,1,0.268525,,,,,,,,0.268525,1,,,,,,221,WORD,UN,33,hinder,MASCOT,m,,,,,,0.02592594,-0.449074088,0,0,0,,0,292,292,160,1,
,,,,,,,,,,,,,,,,,,5ec875255c6a2700081554ac,2020-12-01_16h19.25.477,lexical_decision_task_MP_exp2,2020.2.8,Win32,60,z,1,0.533815,,,,,,,,0.533815,1,,,,,,419,NW,"ID",16,slount,SLOUNT,z,,,,,,0.02592594,-0.449074088,0,0,0,,0,293,293,358,1,
,,,,,,,,,,,,,,,,,,5ec875255c6a2700081554ac,2020-12-01_16h19.25.477,lexical_decision_task_MP_exp2,2020.2.8,Win32,60,z,1,0.64023,,,,,,,,0.64023,1,,,,,,380,NW,"ID",16,cavory,CAVORY,z,,,,,,0.02592594,-0.449074088,0,0,0,,0,294,294,319,1,
,,,,,,,,,,,,,,,,,,5ec875255c6a2700081554ac,2020-12-01_16h19.25.477,lexical_decision_task_MP_exp2,2020.2.8,Win32,60,m,1,0.5522,,,,,,,,0.5522,1,,,,,,120,WORD,"ID",33,strain,STRAIN,m,,,,,,0.02592594,-0.449074088,0,0,0,,0,295,295,59,1,
,,,,,,,,,,,,,,,,,,5ec875255c6a2700081554ac,2020-12-01_16h19.25.477,lexical_decision_task_MP_exp2,2020.2.8,Win32,60,m,1,0.593575,,,,,,,,0.593575,1,,,,,,220,WORD,UN,33,mascot,VOYAGE,m,,,,,,0.02592594,-0.449074088,0,0,0,,0,296,296,159,1,
,,,,,,,,,,,,,,,,,,5ec875255c6a2700081554ac,2020-12-01_16h19.25.477,lexical_decision_task_MP_exp2,2020.2.8,Win32,60,m,1,0.599755,,,,,,,,0.599755,1,,,,,,69,WORD,"ID",33,plenty,PLENTY,m,,,,,,0.02592594,-0.449074088,0,0,0,,0,297,297,8,1,
,,,,,,,,,,,,,,,,,,5ec875255c6a2700081554ac,2020-12-01_16h19.25.477,lexical_decision_task_MP_exp2,2020.2.8,Win32,60,m,1,0.4991,,,,,,,,0.4991,1,,,,,,43,WORD,UN,16,foster,TONGUE,m,,,,,,0.02592594,-0.449074088,0,0,0,,0,298,298,222,1,
,,,,,,,,,,,,,,,,,,5ec875255c6a2700081554ac,2020-12-01_16h19.25.477,lexical_decision_task_MP_exp2,2020.2.8,Win32,60,z,1,0.54734,,,,,,,,0.54734,1,,,,,,255,NW,UN,16,inlors,APIGHT,z,,,,,,0.02592594,-0.449074088,0,0,0,,0,299,299,434,1,
,,,,,,,,,,,,,,,,,,5ec875255c6a2700081554ac,2020-12-01_16h19.25.477,lexical_decision_task_MP_exp2,2020.2.8,Win32,60,m,1,0.43987,,,,,,,,0.43987,1,,,,,,186,WORD,UN,33,course,PORTAL,m,,,,,,0.02592594,-0.449074088,0,0,0,,0,300,300,125,1,
,,,,,,,,,,,,,,,,,,5ec875255c6a2700081554ac,2020-12-01_16h19.25.477,lexical_decision_task_MP_exp2,2020.2.8,Win32,60,z,1,0.56616,,,,,,,,0.56616,1,,,,,,395,NW,"ID",16,colury,COLURY,z,,,,,,0.02592594,-0.449074088,0,0,0,,0,301,301,334,1,
,,,,,,,,,,,,,,,,,,5ec875255c6a2700081554ac,2020-12-01_16h19.25.477,lexical_decision_task_MP_exp2,2020.2.8,Win32,60,m,0,0.38584,,,,,,,,0.38584,0,,,,,,295,NW,UN,16,beinch,GLEATH,z,,,,,,0.02592594,-0.449074088,0,0,0,,0,302,302,474,1,
,,,,,,,,,,,,,,,,,,5ec875255c6a2700081554ac,2020-12-01_16h19.25.477,lexical_decision_task_MP_exp2,2020.2.8,Win32,60,m,1,0.534895,,,,,,,,0.534895,1,,,,,,117,WORD,"ID",33,branch,BRANCH,m,,,,,,0.02592594,-0.449074088,0,0,0,,0,303,303,56,1,
,,,,,,,,,,,,,,,,,,5ec875255c6a2700081554ac,2020-12-01_16h19.25.477,lexical_decision_task_MP_exp2,2020.2.8,Win32,60,z,1,0.53523,,,,,,,,0.53523,1,,,,,,283,NW,UN,16,shaple,VERALF,z,,,,,,0.02592594,-0.449074088,0,0,0,,0,304,304,462,1,
,,,,,,,,,,,,,,,,,,5ec875255c6a2700081554ac,2020-12-01_16h19.25.477,lexical_decision_task_MP_exp2,2020.2.8,Win32,60,m,1,0.6083,,,,,,,,0.6083,1,,,,,,233,WORD,UN,33,clumsy,NATURE,m,,,,,,0.02592594,-0.449074088,0,0,0,,0,305,305,172,1,
,,,,,,,,,,,,,,,,,,5ec875255c6a2700081554ac,2020-12-01_16h19.25.477,lexical_decision_task_MP_exp2,2020.2.8,Win32,60,z,1,0.51817,,,,,,,,0.51817,1,,,,,,426,NW,UN,33,schind,URIVEL,z,,,,,,0.02592594,-0.449074088,0,0,0,,0,306,306,365,1,
,,,,,,,,,,,,,,,,,,5ec875255c6a2700081554ac,2020-12-01_16h19.25.477,lexical_decision_task_MP_exp2,2020.2.8,Win32,60,z,1,0.69746,,,,,,,,0.69746,1,,,,,,352,NW,"ID",33,tringe,TRINGE,z,,,,,,0.02592594,-0.449074088,0,0,0,,0,307,307,291,1,
,,,,,,,,,,,,,,,,,,5ec875255c6a2700081554ac,2020-12-01_16h19.25.477,lexical_decision_task_MP_exp2,2020.2.8,Win32,60,z,1,0.569825,,,,,,,,0.569825,1,,,,,,418,NW,"ID",16,suidle,SUIDLE,z,,,,,,0.02592594,-0.449074088,0,0,0,,0,308,308,357,1,
,,,,,,,,,,,,,,,,,,5ec875255c6a2700081554ac,2020-12-01_16h19.25.477,lexical_decision_task_MP_exp2,2020.2.8,Win32,60,z,1,0.56724,,,,,,,,0.56724,1,,,,,,296,NW,UN,16,fertic,BEINCH,z,,,,,,0.02592594,-0.449074088,0,0,0,,0,309,309,475,1,
,,,,,,,,,,,,,,,,,,5ec875255c6a2700081554ac,2020-12-01_16h19.25.477,lexical_decision_task_MP_exp2,2020.2.8,Win32,60,z,1,0.520805,,,,,,,,0.520805,1,,,,,,263,NW,UN,16,vackel,DOLICA,z,,,,,,0.02592594,-0.449074088,0,0,0,,0,310,310,442,1,
,,,,,,,,,,,,,,,,,,5ec875255c6a2700081554ac,2020-12-01_16h19.25.477,lexical_decision_task_MP_exp2,2020.2.8,Win32,60,z,1,0.506515,,,,,,,,0.506515,1,,,,,,261,NW,UN,16,quilew,STUNCH,z,,,,,,0.02592594,-0.449074088,0,0,0,,0,311,311,440,1,
,,,,,,,,,,,,,,,,,,5ec875255c6a2700081554ac,2020-12-01_16h19.25.477,lexical_decision_task_MP_exp2,2020.2.8,Win32,60,m,1,0.54763,,,,,,,,0.54763,1,,,,,,12,WORD,UN,16,strive,ORANGE,m,,,,,,0.02592594,-0.449074088,0,0,0,,0,312,312,191,1,
,,,,,,,,,,,,,,,,,,5ec875255c6a2700081554ac,2020-12-01_16h19.25.477,lexical_decision_task_MP_exp2,2020.2.8,Win32,60,z,1,0.499175,,,,,,,,0.499175,1,,,,,,290,NW,UN,16,pretch,SPLINO,z,,,,,,0.02592594,-0.449074088,0,0,0,,0,313,313,469,1,
,,,,,,,,,,,,,,,,,,5ec875255c6a2700081554ac,2020-12-01_16h19.25.477,lexical_decision_task_MP_exp2,2020.2.8,Win32,60,m,1,0.438255,,,,,,,,0.438255,1,,,,,,100,WORD,"ID",33,carbon,CARBON,m,,,,,,0.02592594,-0.449074088,0,0,0,,0,314,314,39,1,
,,,,,,,,,,,,,,,,,,5ec875255c6a2700081554ac,2020-12-01_16h19.25.477,lexical_decision_task_MP_exp2,2020.2.8,Win32,60,z,1,0.63005,,,,,,,,0.63005,1,,,,,,383,NW,"ID",16,aungre,AUNGRE,z,,,,,,0.02592594,-0.449074088,0,0,0,,0,315,315,322,1,
,,,,,,,,,,,,,,,,,,5ec875255c6a2700081554ac,2020-12-01_16h19.25.477,lexical_decision_task_MP_exp2,2020.2.8,Win32,60,z,1,0.217245,,,,,,,,0.217245,1,,,,,,273,NW,UN,16,fumblo,SORTEL,z,,,,,,0.02592594,-0.449074088,0,0,0,,0,316,316,452,1,
,,,,,,,,,,,,,,,,,,5ec875255c6a2700081554ac,2020-12-01_16h19.25.477,lexical_decision_task_MP_exp2,2020.2.8,Win32,60,z,1,0.48446,,,,,,,,0.48446,1,,,,,,318,NW,"ID",33,reagly,REAGLY,z,,,,,,0.02592594,-0.449074088,0,0,0,,0,317,317,257,1,
,,,,,,,,,,,,,,,,,,5ec875255c6a2700081554ac,2020-12-01_16h19.25.477,lexical_decision_task_MP_exp2,2020.2.8,Win32,60,z,1,0.35274,,,,,,,,0.35274,1,,,,,,417,NW,"ID",16,earoud,EAROUD,z,,,,,,0.02592594,-0.449074088,0,0,0,,0,318,318,356,1,
,,,,,,,,,,,,,,,,,,5ec875255c6a2700081554ac,2020-12-01_16h19.25.477,lexical_decision_task_MP_exp2,2020.2.8,Win32,60,z,0,0.385165,,,,,,,,0.385165,0,,,,,,224,WORD,UN,33,vulgar,PERIOD,m,,,,,,0.02592594,-0.449074088,0,0,0,,0,319,319,163,1,
,,,,,,,,,,,,,,,,,,5ec875255c6a2700081554ac,2020-12-01_16h19.25.477,lexical_decision_task_MP_exp2,2020.2.8,Win32,60,m,0,0.5139,,,,,,,,0.5139,0,,,,,,339,NW,"ID",33,fachow,FACHOW,z,,,,,,0.02592594,-0.449074088,0,0,0,,0,320,320,278,1,
,,,,,,,,,,,,,,,,,,5ec875255c6a2700081554ac,2020-12-01_16h19.25.477,lexical_decision_task_MP_exp2,2020.2.8,Win32,60,z,1,0.53991,,,,,,,,0.53991,1,,,,,,407,NW,"ID",16,suiver,SUIVER,z,,,,,,0.02592594,-0.449074088,0,0,0,,0,321,321,346,1,
,,,,,,,,,,,,,,,,,,5ec875255c6a2700081554ac,2020-12-01_16h19.25.477,lexical_decision_task_MP_exp2,2020.2.8,Win32,60,m,1,0.584215,,,,,,,,0.584215,1,,,,,,240,WORD,UN,33,seldom,FOREST,m,,,,,,0.02592594,-0.449074088,0,0,0,,0,322,322,179,1,
,,,,,,,,,,,,,,,,,,5ec875255c6a2700081554ac,2020-12-01_16h19.25.477,lexical_decision_task_MP_exp2,2020.2.8,Win32,60,z,1,0.55116,,,,,,,,0.55116,1,,,,,,384,NW,"ID",16,guesco,GUESCO,z,,,,,,0.02592594,-0.449074088,0,0,0,,0,323,323,323,1,
,,,,,,,,,,,,,,,,,,5ec875255c6a2700081554ac,2020-12-01_16h19.25.477,lexical_decision_task_MP_exp2,2020.2.8,Win32,60,m,1,0.498575,,,,,,,,0.498575,1,,,,,,65,WORD,"ID",33,symbol,SYMBOL,m,,,,,,0.02592594,-0.449074088,0,0,0,,0,324,324,4,1,
,,,,,,,,,,,,,,,,,,5ec875255c6a2700081554ac,2020-12-01_16h19.25.477,lexical_decision_task_MP_exp2,2020.2.8,Win32,60,m,1,0.4855,,,,,,,,0.4855,1,,,,,,229,WORD,UN,33,fringe,MOTHER,m,,,,,,0.02592594,-0.449074088,0,0,0,,0,325,325,168,1,
,,,,,,,,,,,,,,,,,,5ec875255c6a2700081554ac,2020-12-01_16h19.25.477,lexical_decision_task_MP_exp2,2020.2.8,Win32,60,z,1,0.50836,,,,,,,,0.50836,1,,,,,,269,NW,UN,16,wrimsy,ORCHET,z,,,,,,0.02592594,-0.449074088,0,0,0,,0,326,326,448,1,
,,,,,,,,,,,,,,,,,,5ec875255c6a2700081554ac,2020-12-01_16h19.25.477,lexical_decision_task_MP_exp2,2020.2.8,Win32,60,z,1,0.49829,,,,,,,,0.49829,1,,,,,,336,NW,"ID",33,ghodus,GHODUS,z,,,,,,0.02592594,-0.449074088,0,0,0,,0,327,327,275,1,
,,,,,,,,,,,,,,,,,,5ec875255c6a2700081554ac,2020-12-01_16h19.25.477,lexical_decision_task_MP_exp2,2020.2.8,Win32,60,z,1,0.41771,,,,,,,,0.41771,1,,,,,,254,NW,UN,16,apight,VAROSH,z,,,,,,0.02592594,-0.449074088,0,0,0,,0,328,328,433,1,
,,,,,,,,,,,,,,,,,,5ec875255c6a2700081554ac,2020-12-01_16h19.25.477,lexical_decision_task_MP_exp2,2020.2.8,Win32,60,z,0,0.331535,,,,,,,,0.331535,0,,,,,,102,WORD,"ID",33,direct,DIRECT,m,,,,,,0.02592594,-0.449074088,0,0,0,,0,329,329,41,1,
,,,,,,,,,,,,,,,,,,5ec875255c6a2700081554ac,2020-12-01_16h19.25.477,lexical_decision_task_MP_exp2,2020.2.8,Win32,60,m,1,0.507425,,,,,,,,0.507425,1,,,,,,181,WORD,UN,33,winter,GLANCE,m,,,,,,0.02592594,-0.449074088,0,0,0,,0,330,330,120,1,
,,,,,,,,,,,,,,,,,,5ec875255c6a2700081554ac,2020-12-01_16h19.25.477,lexical_decision_task_MP_exp2,2020.2.8,Win32,60,z,1,0.634455,,,,,,,,0.634455,1,,,,,,373,NW,"ID",16,bigent,BIGENT,z,,,,,,0.02592594,-0.449074088,0,0,0,,0,331,331,312,1,
,,,,,,,,,,,,,,,,,,5ec875255c6a2700081554ac,2020-12-01_16h19.25.477,lexical_decision_task_MP_exp2,2020.2.8,Win32,60,m,0,0.511795,,,,,,,,0.511795,0,,,,,,341,NW,"ID",33,myrtie,MYRTIE,z,,,,,,0.02592594,-0.449074088,0,0,0,,0,332,332,280,1,
,,,,,,,,,,,,,,,,,,5ec875255c6a2700081554ac,2020-12-01_16h19.25.477,lexical_decision_task_MP_exp2,2020.2.8,Win32,60,z,1,0.55007,,,,,,,,0.55007,1,,,,,,267,NW,UN,16,packes,PASINK,z,,,,,,0.02592594,-0.449074088,0,0,0,,0,333,333,446,1,
,,,,,,,,,,,,,,,,,,5ec875255c6a2700081554ac,2020-12-01_16h19.25.477,lexical_decision_task_MP_exp2,2020.2.8,Win32,60,m,1,0.50232,,,,,,,,0.50232,1,,,,,,195,WORD,UN,33,credit,RESIGN,m,,,,,,0.02592594,-0.449074088,0,0,0,,0,334,334,134,1,
,,,,,,,,,,,,,,,,,,5ec875255c6a2700081554ac,2020-12-01_16h19.25.477,lexical_decision_task_MP_exp2,2020.2.8,Win32,60,z,1,0.580415,,,,,,,,0.580415,1,,,,,,315,NW,"ID",33,laston,LASTON,z,,,,,,0.02592594,-0.449074088,0,0,0,,0,335,335,254,1,
,,,,,,,,,,,,,,,,,,5ec875255c6a2700081554ac,2020-12-01_16h19.25.477,lexical_decision_task_MP_exp2,2020.2.8,Win32,60,z,1,0.966605,,,,,,,,0.966605,1,,,,,,402,NW,"ID",16,syntic,SYNTIC,z,,,,,,0.02592594,-0.449074088,0,0,0,,0,336,336,341,1,
,,,,,,,,,,,,,,,,,,5ec875255c6a2700081554ac,2020-12-01_16h19.25.477,lexical_decision_task_MP_exp2,2020.2.8,Win32,60,z,1,0.55489,,,,,,,,0.55489,1,,,,,,311,NW,"ID",33,sproly,SPROLY,z,,,,,,0.02592594,-0.449074088,0,0,0,,0,337,337,250,1,
,,,,,,,,,,,,,,,,,,5ec875255c6a2700081554ac,2020-12-01_16h19.25.477,lexical_decision_task_MP_exp2,2020.2.8,Win32,60,z,1,0.28051,,,,,,,,0.28051,1,,,,,,451,NW,UN,33,surden,CAINKY,z,,,,,,0.02592594,-0.449074088,0,0,0,,0,338,338,390,1,
,,,,,,,,,,,,,,,,,,5ec875255c6a2700081554ac,2020-12-01_16h19.25.477,lexical_decision_task_MP_exp2,2020.2.8,Win32,60,z,1,0.42719,,,,,,,,0.42719,1,,,,,,413,NW,"ID",16,equats,EQUATS,z,,,,,,0.02592594,-0.449074088,0,0,0,,0,339,339,352,1,
,,,,,,,,,,,,,,,,,,5ec875255c6a2700081554ac,2020-12-01_16h19.25.477,lexical_decision_task_MP_exp2,2020.2.8,Win32,60,z,0,0.234995,,,,,,,,0.234995,0,,,,,,98,WORD,"ID",33,belong,BELONG,m,,,,,,0.02592594,-0.449074088,0,0,0,,0,340,340,37,1,
,,,,,,,,,,,,,,,,,,5ec875255c6a2700081554ac,2020-12-01_16h19.25.477,lexical_decision_task_MP_exp2,2020.2.8,Win32,60,m,1,0.45066,,,,,,,,0.45066,1,,,,,,37,WORD,UN,16,powder,INSULT,m,,,,,,0.02592594,-0.449074088,0,0,0,,0,341,341,216,1,
,,,,,,,,,,,,,,,,,,5ec875255c6a2700081554ac,2020-12-01_16h19.25.477,lexical_decision_task_MP_exp2,2020.2.8,Win32,60,z,1,0.54062,,,,,,,,0.54062,1,,,,,,361,NW,"ID",16,pauche,PAUCHE,z,,,,,,0.02592594,-0.449074088,0,0,0,,0,342,342,300,1,
,,,,,,,,,,,,,,,,,,5ec875255c6a2700081554ac,2020-12-01_16h19.25.477,lexical_decision_task_MP_exp2,2020.2.8,Win32,60,m,1,0.53637,,,,,,,,0.53637,1,,,,,,84,WORD,"ID",33,mortal,MORTAL,m,,,,,,0.02592594,-0.449074088,0,0,0,,0,343,343,23,1,
,,,,,,,,,,,,,,,,,,5ec875255c6a2700081554ac,2020-12-01_16h19.25.477,lexical_decision_task_MP_exp2,2020.2.8,Win32,60,m,1,0.444,,,,,,,,0.444,1,,,,,,129,WORD,"ID",16,marvel,MARVEL,m,,,,,,0.02592594,-0.449074088,0,0,0,,0,344,344,68,1,
,,,,,,,,,,,,,,,,,,5ec875255c6a2700081554ac,2020-12-01_16h19.25.477,lexical_decision_task_MP_exp2,2020.2.8,Win32,60,z,1,0.56661,,,,,,,,0.56661,1,,,,,,319,NW,"ID",33,zomber,ZOMBER,z,,,,,,0.02592594,-0.449074088,0,0,0,,0,345,345,258,1,
,,,,,,,,,,,,,,,,,,5ec875255c6a2700081554ac,2020-12-01_16h19.25.477,lexical_decision_task_MP_exp2,2020.2.8,Win32,60,z,1,0.5848,,,,,,,,0.5848,1,,,,,,438,NW,UN,33,limpor,BAITCH,z,,,,,,0.02592594,-0.449074088,0,0,0,,0,346,346,377,1,
,,,,,,,,,,,,,,,,,,5ec875255c6a2700081554ac,2020-12-01_16h19.25.477,lexical_decision_task_MP_exp2,2020.2.8,Win32,60,m,1,0.590305,,,,,,,,0.590305,1,,,,,,218,WORD,UN,33,bucket,SHRINK,m,,,,,,0.02592594,-0.449074088,0,0,0,,0,347,347,157,1,
,,,,,,,,,,,,,,,,,,5ec875255c6a2700081554ac,2020-12-01_16h19.25.477,lexical_decision_task_MP_exp2,2020.2.8,Win32,60,z,1,0.633555,,,,,,,,0.633555,1,,,,,,422,NW,UN,33,streld,ALCOUD,z,,,,,,0.02592594,-0.449074088,0,0,0,,0,348,348,361,1,
,,,,,,,,,,,,,,,,,,5ec875255c6a2700081554ac,2020-12-01_16h19.25.477,lexical_decision_task_MP_exp2,2020.2.8,Win32,60,m,1,0.517735,,,,,,,,0.517735,1,,,,,,20,WORD,UN,16,simple,BREAST,m,,,,,,0.02592594,-0.449074088,0,0,0,,0,349,349,199,1,
,,,,,,,,,,,,,,,,,,5ec875255c6a2700081554ac,2020-12-01_16h19.25.477,lexical_decision_task_MP_exp2,2020.2.8,Win32,60,z,1,0.679825,,,,,,,,0.679825,1,,,,,,368,NW,"ID",16,hornal,HORNAL,z,,,,,,0.02592594,-0.449074088,0,0,0,,0,350,350,307,1,
,,,,,,,,,,,,,,,,,,5ec875255c6a2700081554ac,2020-12-01_16h19.25.477,lexical_decision_task_MP_exp2,2020.2.8,Win32,60,m,1,0.733285,,,,,,,,0.733285,1,,,,,,199,WORD,UN,33,plague,INVOKE,m,,,,,,0.02592594,-0.449074088,0,0,0,,0,351,351,138,1,
,,,,,,,,,,,,,,,,,,5ec875255c6a2700081554ac,2020-12-01_16h19.25.477,lexical_decision_task_MP_exp2,2020.2.8,Win32,60,m,1,0.464665,,,,,,,,0.464665,1,,,,,,4,WORD,UN,16,plunge,TRENCH,m,,,,,,0.02592594,-0.449074088,0,0,0,,0,352,352,183,1,
,,,,,,,,,,,,,,,,,,5ec875255c6a2700081554ac,2020-12-01_16h19.25.477,lexical_decision_task_MP_exp2,2020.2.8,Win32,60,m,1,0.48318,,,,,,,,0.48318,1,,,,,,7,WORD,UN,16,abrupt,ANCHOR,m,,,,,,0.02592594,-0.449074088,0,0,0,,0,353,353,186,1,
,,,,,,,,,,,,,,,,,,5ec875255c6a2700081554ac,2020-12-01_16h19.25.477,lexical_decision_task_MP_exp2,2020.2.8,Win32,60,m,1,0.517465,,,,,,,,0.517465,1,,,,,,89,WORD,"ID",33,permit,PERMIT,m,,,,,,0.02592594,-0.449074088,0,0,0,,0,354,354,28,1,
,,,,,,,,,,,,,,,,,,5ec875255c6a2700081554ac,2020-12-01_16h19.25.477,lexical_decision_task_MP_exp2,2020.2.8,Win32,60,z,1,0.69707,,,,,,,,0.69707,1,,,,,,410,NW,"ID",16,tunory,TUNORY,z,,,,,,0.02592594,-0.449074088,0,0,0,,0,355,355,349,1,
,,,,,,,,,,,,,,,,,,5ec875255c6a2700081554ac,2020-12-01_16h19.25.477,lexical_decision_task_MP_exp2,2020.2.8,Win32,60,z,1,0.50048,,,,,,,,0.50048,1,,,,,,480,NW,UN,33,knisma,ROBULY,z,,,,,,0.02592594,-0.449074088,0,0,0,,0,356,356,419,1,
,,,,,,,,,,,,,,,,,,5ec875255c6a2700081554ac,2020-12-01_16h19.25.477,lexical_decision_task_MP_exp2,2020.2.8,Win32,60,z,1,0.520415,,,,,,,,0.520415,1,,,,,,343,NW,"ID",33,aimosy,AIMOSY,z,,,,,,0.02037044,-0.437962977,0,0,0,,0,357,357,282,1,
,,,,,,,,,,,,,,,,,,5ec875255c6a2700081554ac,2020-12-01_16h19.25.477,lexical_decision_task_MP_exp2,2020.2.8,Win32,60,z,0,0.3464,,,,,,,,0.3464,0,,,,,,22,WORD,UN,16,wealth,JOCKEY,m,,,,,,0.02037044,-0.437962977,0,0,0,,0,358,358,201,1,
,,,,,,,,,,,,,,,,,,5ec875255c6a2700081554ac,2020-12-01_16h19.25.477,lexical_decision_task_MP_exp2,2020.2.8,Win32,60,m,1,0.68343,,,,,,,,0.68343,1,,,,,,135,WORD,"ID",16,import,IMPORT,m,,,,,,0.02037044,-0.437962977,0,0,0,,0,359,359,74,1,
,,,,,,,,,,,,,,,,,,5ec875255c6a2700081554ac,2020-12-01_16h19.25.477,lexical_decision_task_MP_exp2,2020.2.8,Win32,60,z,1,1.00162,,,,,,,,1.00162,1,,,,,,299,NW,UN,16,yarion,STURCH,z,,,,,,0.02037044,-0.437962977,0,0,0,,0,360,360,478,1,
,,,,,,,,,,,,,,,,,,5ec875255c6a2700081554ac,2020-12-01_16h19.25.477,lexical_decision_task_MP_exp2,2020.2.8,Win32,60,m,1,0.46804,,,,,,,,0.46804,1,,,,,,173,WORD,"ID",16,shower,SHOWER,m,,,,,,0.02037044,-0.437962977,0,0,0,,0,361,361,112,1,
,,,,,,,,,,,,,,,,,,5ec875255c6a2700081554ac,2020-12-01_16h19.25.477,lexical_decision_task_MP_exp2,2020.2.8,Win32,60,m,1,0.751575,,,,,,,,0.751575,1,,,,,,217,WORD,UN,33,shrink,LIQUOR,m,,,,,,0.02037044,-0.437962977,0,0,0,space,0,362,362,156,1,1.62523
,,,,,,,,,,,,,,,,,,5ec875255c6a2700081554ac,2020-12-01_16h19.25.477,lexical_decision_task_MP_exp2,2020.2.8,Win32,60,m,1,0.53256,,,,,,,,0.53256,1,,,,,,53,WORD,UN,16,ramble,POLICE,m,,,,,,0.02037044,-0.437962977,0,0,0,,0,363,363,232,1,
,,,,,,,,,,,,,,,,,,5ec875255c6a2700081554ac,2020-12-01_16h19.25.477,lexical_decision_task_MP_exp2,2020.2.8,Win32,60,z,1,0.50089,,,,,,,,0.50089,1,,,,,,415,NW,"ID",16,higsta,HIGSTA,z,,,,,,0.02037044,-0.437962977,0,0,0,,0,364,364,354,1,
,,,,,,,,,,,,,,,,,,5ec875255c6a2700081554ac,2020-12-01_16h19.25.477,lexical_decision_task_MP_exp2,2020.2.8,Win32,60,z,1,1.196335,,,,,,,,1.196335,1,,,,,,362,NW,"ID",16,tireau,TIREAU,z,,,,,,0.02037044,-0.437962977,0,0,0,,0,365,365,301,1,
,,,,,,,,,,,,,,,,,,5ec875255c6a2700081554ac,2020-12-01_16h19.25.477,lexical_decision_task_MP_exp2,2020.2.8,Win32,60,z,1,1.383955,,,,,,,,1.383955,1,,,,,,441,NW,UN,33,aboune,RASTOE,z,,,,,,0.02037044,-0.437962977,0,0,0,,0,366,366,380,1,
,,,,,,,,,,,,,,,,,,5ec875255c6a2700081554ac,2020-12-01_16h19.25.477,lexical_decision_task_MP_exp2,2020.2.8,Win32,60,m,1,0.652815,,,,,,,,0.652815,1,,,,,,85,WORD,"ID",33,sprawl,SPRAWL,m,,,,,,0.02037044,-0.437962977,0,0,0,,0,367,367,24,1,
,,,,,,,,,,,,,,,,,,5ec875255c6a2700081554ac,2020-12-01_16h19.25.477,lexical_decision_task_MP_exp2,2020.2.8,Win32,60,z,1,0.435945,,,,,,,,0.435945,1,,,,,,444,NW,UN,33,minkel,JAUNCE,z,,,,,,0.02037044,-0.437962977,0,0,0,,0,368,368,383,1,
,,,,,,,,,,,,,,,,,,5ec875255c6a2700081554ac,2020-12-01_16h19.25.477,lexical_decision_task_MP_exp2,2020.2.8,Win32,60,z,1,0.546155,,,,,,,,0.546155,1,,,,,,351,NW,"ID",33,tiesch,TIESCH,z,,,,,,0.02037044,-0.437962977,0,0,0,,0,369,369,290,1,
,,,,,,,,,,,,,,,,,,5ec875255c6a2700081554ac,2020-12-01_16h19.25.477,lexical_decision_task_MP_exp2,2020.2.8,Win32,60,m,0,0.984625,,,,,,,,0.984625,0,,,,,,429,NW,UN,33,caroey,FUNTLE,z,,,,,,0.02037044,-0.437962977,0,0,0,,0,370,370,368,1,
,,,,,,,,,,,,,,,,,,5ec875255c6a2700081554ac,2020-12-01_16h19.25.477,lexical_decision_task_MP_exp2,2020.2.8,Win32,60,m,1,0.568035,,,,,,,,0.568035,1,,,,,,178,WORD,"ID",16,inform,INFORM,m,,,,,,0.02037044,-0.437962977,0,0,0,,0,371,371,117,1,
,,,,,,,,,,,,,,,,,,5ec875255c6a2700081554ac,2020-12-01_16h19.25.477,lexical_decision_task_MP_exp2,2020.2.8,Win32,60,m,1,0.51486,,,,,,,,0.51486,1,,,,,,49,WORD,UN,16,snatch,SURVEY,m,,,,,,0.02037044,-0.437962977,0,0,0,,0,372,372,228,1,
,,,,,,,,,,,,,,,,,,5ec875255c6a2700081554ac,2020-12-01_16h19.25.477,lexical_decision_task_MP_exp2,2020.2.8,Win32,60,z,1,0.498545,,,,,,,,0.498545,1,,,,,,275,NW,UN,16,yarmon,SLEIRT,z,,,,,,0.02037044,-0.437962977,0,0,0,,0,373,373,454,1,
,,,,,,,,,,,,,,,,,,5ec875255c6a2700081554ac,2020-12-01_16h19.25.477,lexical_decision_task_MP_exp2,2020.2.8,Win32,60,m,1,0.483035,,,,,,,,0.483035,1,,,,,,8,WORD,UN,16,hustle,ABRUPT,m,,,,,,0.02037044,-0.437962977,0,0,0,,0,374,374,187,1,
,,,,,,,,,,,,,,,,,,5ec875255c6a2700081554ac,2020-12-01_16h19.25.477,lexical_decision_task_MP_exp2,2020.2.8,Win32,60,z,1,0.48051,,,,,,,,0.48051,1,,,,,,338,NW,"ID",33,wreash,WREASH,z,,,,,,0.02037044,-0.437962977,0,0,0,,0,375,375,277,1,
,,,,,,,,,,,,,,,,,,5ec875255c6a2700081554ac,2020-12-01_16h19.25.477,lexical_decision_task_MP_exp2,2020.2.8,Win32,60,m,1,0.50347,,,,,,,,0.50347,1,,,,,,33,WORD,UN,16,jungle,BUTLER,m,,,,,,0.02037044,-0.437962977,0,0,0,,0,376,376,212,1,
,,,,,,,,,,,,,,,,,,5ec875255c6a2700081554ac,2020-12-01_16h19.25.477,lexical_decision_task_MP_exp2,2020.2.8,Win32,60,z,1,0.46971,,,,,,,,0.46971,1,,,,,,294,NW,UN,16,gleath,INHORT,z,,,,,,0.02037044,-0.437962977,0,0,0,,0,377,377,473,1,
,,,,,,,,,,,,,,,,,,5ec875255c6a2700081554ac,2020-12-01_16h19.25.477,lexical_decision_task_MP_exp2,2020.2.8,Win32,60,z,0,0.566615,,,,,,,,0.566615,0,,,,,,234,WORD,UN,33,poster,CLUMSY,m,,,,,,0.02037044,-0.437962977,0,0,0,,0,378,378,173,1,
,,,,,,,,,,,,,,,,,,5ec875255c6a2700081554ac,2020-12-01_16h19.25.477,lexical_decision_task_MP_exp2,2020.2.8,Win32,60,z,1,0.56634,,,,,,,,0.56634,1,,,,,,391,NW,"ID",16,theldy,THELDY,z,,,,,,0.02037044,-0.437962977,0,0,0,,0,379,379,330,1,
,,,,,,,,,,,,,,,,,,5ec875255c6a2700081554ac,2020-12-01_16h19.25.477,lexical_decision_task_MP_exp2,2020.2.8,Win32,60,z,1,0.515655,,,,,,,,0.515655,1,,,,,,448,NW,UN,33,brunge,SADENT,z,,,,,,0.02037044,-0.437962977,0,0,0,,0,380,380,387,1,
,,,,,,,,,,,,,,,,,,5ec875255c6a2700081554ac,2020-12-01_16h19.25.477,lexical_decision_task_MP_exp2,2020.2.8,Win32,60,m,1,0.51449,,,,,,,,0.51449,1,,,,,,103,WORD,"ID",33,bounce,BOUNCE,m,,,,,,0.02037044,-0.437962977,0,0,0,,0,381,381,42,1,
,,,,,,,,,,,,,,,,,,5ec875255c6a2700081554ac,2020-12-01_16h19.25.477,lexical_decision_task_MP_exp2,2020.2.8,Win32,60,m,1,1.614815,,,,,,,,1.614815,1,,,,,,52,WORD,UN,16,police,IMPOSE,m,,,,,,0.02037044,-0.437962977,0,0,0,,0,382,382,231,1,
,,,,,,,,,,,,,,,,,,5ec875255c6a2700081554ac,2020-12-01_16h19.25.477,lexical_decision_task_MP_exp2,2020.2.8,Win32,60,z,1,0.442015,,,,,,,,0.442015,1,,,,,,321,NW,"ID",33,miator,MIATOR,z,,,,,,0.02037044,-0.437962977,0,0,0,,0,383,383,260,1,
,,,,,,,,,,,,,,,,,,5ec875255c6a2700081554ac,2020-12-01_16h19.25.477,lexical_decision_task_MP_exp2,2020.2.8,Win32,60,m,1,0.68403,,,,,,,,0.68403,1,,,,,,183,WORD,UN,33,sleazy,MILDEW,m,,,,,,0.02037044,-0.437962977,0,0,0,,0,384,384,122,1,
,,,,,,,,,,,,,,,,,,5ec875255c6a2700081554ac,2020-12-01_16h19.25.477,lexical_decision_task_MP_exp2,2020.2.8,Win32,60,z,1,0.59884,,,,,,,,0.59884,1,,,,,,401,NW,"ID",16,mustil,MUSTIL,z,,,,,,0.02037044,-0.437962977,0,0,0,,0,385,385,340,1,
,,,,,,,,,,,,,,,,,,5ec875255c6a2700081554ac,2020-12-01_16h19.25.477,lexical_decision_task_MP_exp2,2020.2.8,Win32,60,m,1,0.41586,,,,,,,,0.41586,1,,,,,,70,WORD,"ID",33,square,SQUARE,m,,,,,,0.02037044,-0.437962977,0,0,0,,0,386,386,9,1,
,,,,,,,,,,,,,,,,,,5ec875255c6a2700081554ac,2020-12-01_16h19.25.477,lexical_decision_task_MP_exp2,2020.2.8,Win32,60,z,1,0.68114,,,,,,,,0.68114,1,,,,,,264,NW,UN,16,distar,VACKEL,z,,,,,,0.02037044,-0.437962977,0,0,0,,0,387,387,443,1,
,,,,,,,,,,,,,,,,,,5ec875255c6a2700081554ac,2020-12-01_16h19.25.477,lexical_decision_task_MP_exp2,2020.2.8,Win32,60,m,0,0.474215,,,,,,,,0.474215,0,,,,,,314,NW,"ID",33,sprine,SPRINE,z,,,,,,0.02037044,-0.437962977,0,0,0,,0,388,388,253,1,
,,,,,,,,,,,,,,,,,,5ec875255c6a2700081554ac,2020-12-01_16h19.25.477,lexical_decision_task_MP_exp2,2020.2.8,Win32,60,m,1,0.84223,,,,,,,,0.84223,1,,,,,,146,WORD,"ID",16,couple,COUPLE,m,,,,,,0.02037044,-0.437962977,0,0,0,,0,389,389,85,1,
,,,,,,,,,,,,,,,,,,5ec875255c6a2700081554ac,2020-12-01_16h19.25.477,lexical_decision_task_MP_exp2,2020.2.8,Win32,60,m,1,0.673895,,,,,,,,0.673895,1,,,,,,196,WORD,UN,33,stream,CREDIT,m,,,,,,0.02037044,-0.437962977,0,0,0,,0,390,390,135,1,
,,,,,,,,,,,,,,,,,,5ec875255c6a2700081554ac,2020-12-01_16h19.25.477,lexical_decision_task_MP_exp2,2020.2.8,Win32,60,m,1,0.82071,,,,,,,,0.82071,1,,,,,,175,WORD,"ID",16,fabric,FABRIC,m,,,,,,0.02037044,-0.437962977,0,0,0,,0,391,391,114,1,
,,,,,,,,,,,,,,,,,,5ec875255c6a2700081554ac,2020-12-01_16h19.25.477,lexical_decision_task_MP_exp2,2020.2.8,Win32,60,z,1,1.41478,,,,,,,,1.41478,1,,,,,,460,NW,UN,33,justre,MINGAR,z,,,,,,0.02037044,-0.437962977,0,0,0,,0,392,392,399,1,
,,,,,,,,,,,,,,,,,,5ec875255c6a2700081554ac,2020-12-01_16h19.25.477,lexical_decision_task_MP_exp2,2020.2.8,Win32,60,m,0,0.571175,,,,,,,,0.571175,0,,,,,,437,NW,UN,33,baitch,SNAPEL,z,,,,,,0.02037044,-0.437962977,0,0,0,,0,393,393,376,1,
,,,,,,,,,,,,,,,,,,5ec875255c6a2700081554ac,2020-12-01_16h19.25.477,lexical_decision_task_MP_exp2,2020.2.8,Win32,60,z,1,0.430915,,,,,,,,0.430915,1,,,,,,443,NW,UN,33,jaunce,DORSEX,z,,,,,,0.02037044,-0.437962977,0,0,0,,0,394,394,382,1,
,,,,,,,,,,,,,,,,,,5ec875255c6a2700081554ac,2020-12-01_16h19.25.477,lexical_decision_task_MP_exp2,2020.2.8,Win32,60,z,1,0.375965,,,,,,,,0.375965,1,,,,,,363,NW,"ID",16,breali,BREALI,z,,,,,,0.02037044,-0.437962977,0,0,0,,0,395,395,302,1,
,,,,,,,,,,,,,,,,,,5ec875255c6a2700081554ac,2020-12-01_16h19.25.477,lexical_decision_task_MP_exp2,2020.2.8,Win32,60,m,1,0.649305,,,,,,,,0.649305,1,,,,,,215,WORD,UN,33,lumber,PHOBIA,m,,,,,,0.02500007,-0.441666737,0,0,0,,0,396,396,154,1,
