counterbalancing_condition,instr_done_keyboard.keys,instr_done_keyboard.rt,instr_done_touch.x,instr_done_touch.y,instr_done_touch.leftButton,instr_done_touch.midButton,instr_done_touch.rightButton,instruction_pages.thisRepN,instruction_pages.thisTrialN,instruction_pages.thisN,instruction_pages.thisIndex,instruction_pages.ran,pageN,phase,instruct_text,has_image,instruct_image,participant,date,expName,psychopyVersion,OS,frameRate,response.keys,response.corr,response.rt,touch_resp.x,touch_resp.y,touch_resp.leftButton,touch_resp.midButton,touch_resp.rightButton,touch_resp.time,touch_resp.clicked_name,rt,corr,practice_trials.thisRepN,practice_trials.thisTrialN,practice_trials.thisN,practice_trials.thisIndex,practice_trials.ran,TrialID,StimulusType,Condition,PrimeDuration,Prime,Target,corrAns,end_of_practice_trials_pages.thisRepN,end_of_practice_trials_pages.thisTrialN,end_of_practice_trials_pages.thisN,end_of_practice_trials_pages.thisIndex,end_of_practice_trials_pages.ran,break_done_touch.x,break_done_touch.y,break_done_touch.leftButton,break_done_touch.midButton,break_done_touch.rightButton,break_done_keyboard.keys,experiment_trials.thisRepN,experiment_trials.thisTrialN,experiment_trials.thisN,experiment_trials.thisIndex,experiment_trials.ran,break_done_keyboard.rt
1,space,12.498,0.341145833,-0.122395833,0,0,0,0,0,0,0,1,1,instructions,"INSTRUCTIONS
At the start of each trial, look at the hash marks (######) in the center of the screen. After a moment, a string of letters will appear. Your task is to indicate if the letter string forms a word or not (i.e., if it is a nonword). For example, AUTHOR is a word while AUTHON is a nonword.

Press the space bar or touch the button below to continue.",0,,5ee379c2c1832e050bac5c14,2020-11-27_15h09.13.302,lexical_decision_task_MP_exp2,2020.2.5,Win32,60,,,,,,,,,,,,,,,,,,,,,,,,,,,,,,,,,,,,,,,,,
,space,9.671,0.328125,-0.108072917,0,0,0,0,1,1,1,1,2,instructions,"If your device has a keyboard, press the 'Z' key for nonwords and the 'M' key for words.





Press the space bar or touch the button below to continue.",1,keyboard-example.gif,5ee379c2c1832e050bac5c14,2020-11-27_15h09.13.302,lexical_decision_task_MP_exp2,2020.2.5,Win32,60,,,,,,,,,,,,,,,,,,,,,,,,,,,,,,,,,,,,,,,,,
,space,4.001,0.328125,-0.108072917,0,0,0,0,2,2,2,1,3,instructions,"If you are using a touchscreen only device, use the buttons on the screen. Do not use the mouse.





Press the space bar or touch the button below to continue.",1,touchscreen-example.gif,5ee379c2c1832e050bac5c14,2020-11-27_15h09.13.302,lexical_decision_task_MP_exp2,2020.2.5,Win32,60,,,,,,,,,,,,,,,,,,,,,,,,,,,,,,,,,,,,,,,,,
,space,9.988,0.328125,-0.108072917,0,0,0,0,3,3,3,1,4,instructions,"It is very important that you respond as quickly and accurately as possible, as each letter string will only be on the screen for two seconds. If you do not respond within this time, the message 'Too slow!' will be displayed and the experiment will progress to the next letter string. The first 20 trials will be practice trials and you will receive feedback on your answers. 

Press the space bar or touch the button below to start the practice trials.",0,,5ee379c2c1832e050bac5c14,2020-11-27_15h09.13.302,lexical_decision_task_MP_exp2,2020.2.5,Win32,60,,,,,,,,,,,,,,,,,,,,,,,,,,,,,,,,,,,,,,,,,
,,,,,,,,,,,,,,,,,,5ee379c2c1832e050bac5c14,2020-11-27_15h09.13.302,lexical_decision_task_MP_exp2,2020.2.5,Win32,60,z,1,0.935,,,,,,,,0.935,1,0,0,0,9,1,1010,NW,"ID",33,fariny,FARINY,z,,,,,,,,,,,,,,,,,
,,,,,,,,,,,,,,,,,,5ee379c2c1832e050bac5c14,2020-11-27_15h09.13.302,lexical_decision_task_MP_exp2,2020.2.5,Win32,60,m,1,0.634,,,,,,,,0.634,1,0,1,1,7,1,1008,WORD,UN,16,hurdle,VOLUME,m,,,,,,,,,,,,,,,,,
,,,,,,,,,,,,,,,,,,5ee379c2c1832e050bac5c14,2020-11-27_15h09.13.302,lexical_decision_task_MP_exp2,2020.2.5,Win32,60,m,1,0.657,,,,,,,,0.657,1,0,2,2,4,1,1005,WORD,UN,33,abound,SQUEAK,m,,,,,,,,,,,,,,,,,
,,,,,,,,,,,,,,,,,,5ee379c2c1832e050bac5c14,2020-11-27_15h09.13.302,lexical_decision_task_MP_exp2,2020.2.5,Win32,60,z,1,0.739,,,,,,,,0.739,1,0,3,3,10,1,1011,NW,"ID",16,inlade,INLADE,z,,,,,,,,,,,,,,,,,
,,,,,,,,,,,,,,,,,,5ee379c2c1832e050bac5c14,2020-11-27_15h09.13.302,lexical_decision_task_MP_exp2,2020.2.5,Win32,60,m,0,0.767,,,,,,,,0.767,0,0,4,4,15,1,1016,NW,UN,16,mushed,WHAISE,z,,,,,,,,,,,,,,,,,
,,,,,,,,,,,,,,,,,,5ee379c2c1832e050bac5c14,2020-11-27_15h09.13.302,lexical_decision_task_MP_exp2,2020.2.5,Win32,60,z,1,0.866,,,,,,,,0.866,1,0,5,5,14,1,1015,NW,UN,16,miaber,THRALE,z,,,,,,,,,,,,,,,,,
,,,,,,,,,,,,,,,,,,5ee379c2c1832e050bac5c14,2020-11-27_15h09.13.302,lexical_decision_task_MP_exp2,2020.2.5,Win32,60,m,1,0.668,,,,,,,,0.668,1,0,6,6,1,1,1002,WORD,"ID",33,adjust,ADJUST,m,,,,,,,,,,,,,,,,,
,,,,,,,,,,,,,,,,,,5ee379c2c1832e050bac5c14,2020-11-27_15h09.13.302,lexical_decision_task_MP_exp2,2020.2.5,Win32,60,z,1,0.868,,,,,,,,0.868,1,0,7,7,11,1,1012,NW,"ID",16,rashet,RASHET,z,,,,,,,,,,,,,,,,,
,,,,,,,,,,,,,,,,,,5ee379c2c1832e050bac5c14,2020-11-27_15h09.13.302,lexical_decision_task_MP_exp2,2020.2.5,Win32,60,z,1,0.718,,,,,,,,0.718,1,0,8,8,8,1,1009,NW,"ID",33,aslert,ASLERT,z,,,,,,,,,,,,,,,,,
,,,,,,,,,,,,,,,,,,5ee379c2c1832e050bac5c14,2020-11-27_15h09.13.302,lexical_decision_task_MP_exp2,2020.2.5,Win32,60,z,1,0.685,,,,,,,,0.685,1,0,9,9,12,1,1013,NW,UN,33,adveil,SPRINY,z,,,,,,,,,,,,,,,,,
,,,,,,,,,,,,,,,,,,5ee379c2c1832e050bac5c14,2020-11-27_15h09.13.302,lexical_decision_task_MP_exp2,2020.2.5,Win32,60,m,1,0.719,,,,,,,,0.719,1,0,10,10,0,1,1001,WORD,"ID",33,utopia,UTOPIA,m,,,,,,,,,,,,,,,,,
,,,,,,,,,,,,,,,,,,5ee379c2c1832e050bac5c14,2020-11-27_15h09.13.302,lexical_decision_task_MP_exp2,2020.2.5,Win32,60,z,1,0.75,,,,,,,,0.75,1,0,11,11,13,1,1014,NW,UN,33,winfer,ROUPET,z,,,,,,,,,,,,,,,,,
,,,,,,,,,,,,,,,,,,5ee379c2c1832e050bac5c14,2020-11-27_15h09.13.302,lexical_decision_task_MP_exp2,2020.2.5,Win32,60,m,1,0.569,,,,,,,,0.569,1,0,12,12,5,1,1006,WORD,UN,33,frenzy,OBTAIN,m,,,,,,,,,,,,,,,,,
,,,,,,,,,,,,,,,,,,5ee379c2c1832e050bac5c14,2020-11-27_15h09.13.302,lexical_decision_task_MP_exp2,2020.2.5,Win32,60,m,1,0.603,,,,,,,,0.603,1,0,13,13,2,1,1003,WORD,"ID",16,almond,ALMOND,m,,,,,,,,,,,,,,,,,
,,,,,,,,,,,,,,,,,,5ee379c2c1832e050bac5c14,2020-11-27_15h09.13.302,lexical_decision_task_MP_exp2,2020.2.5,Win32,60,m,1,0.969,,,,,,,,0.969,1,0,14,14,6,1,1007,WORD,UN,16,tropic,ZOMBIE,m,,,,,,,,,,,,,,,,,
,,,,,,,,,,,,,,,,,,5ee379c2c1832e050bac5c14,2020-11-27_15h09.13.302,lexical_decision_task_MP_exp2,2020.2.5,Win32,60,m,1,0.536,,,,,,,,0.536,1,0,15,15,3,1,1004,WORD,"ID",16,matrix,MATRIX,m,,,,,,,,,,,,,,,,,
,space,54.27,0.313802083,-0.00390625,0,0,0,,,,,,1,end_of_practice,"You have completed the practice trials. During the experimental trials, you will not receive feedback, but it is very important that you respond as quickly and accurately as possible. 
Before you begin, please ensure that you are in a comfortable and quiet location and will not be disturbed for about 15 minutes, as we cannot use your data if you do not complete all the trials. 
There will be opportunities to take breaks at regular intervals during the experiment. When you are ready to start the experimental trials, please press space or touch the button below.",,,5ee379c2c1832e050bac5c14,2020-11-27_15h09.13.302,lexical_decision_task_MP_exp2,2020.2.5,Win32,60,,,,,,,,,,,,,,,,,,,,,,,,,0,0,0,0,1,,,,,,,,,,,,
,,,,,,,,,,,,,,,,,,5ee379c2c1832e050bac5c14,2020-11-27_15h09.13.302,lexical_decision_task_MP_exp2,2020.2.5,Win32,60,m,1,0.584,,,,,,,,0.584,1,,,,,,51,WORD,"ID",33,hungry,HUNGRY,m,,,,,,0.313802083,-0.00390625,0,0,0,,0,0,0,50,1,
,,,,,,,,,,,,,,,,,,5ee379c2c1832e050bac5c14,2020-11-27_15h09.13.302,lexical_decision_task_MP_exp2,2020.2.5,Win32,60,m,1,0.551,,,,,,,,0.551,1,,,,,,178,WORD,UN,33,mildew,INFORM,m,,,,,,0.313802083,-0.00390625,0,0,0,,0,1,1,177,1,
,,,,,,,,,,,,,,,,,,5ee379c2c1832e050bac5c14,2020-11-27_15h09.13.302,lexical_decision_task_MP_exp2,2020.2.5,Win32,60,m,1,0.591,,,,,,,,0.591,1,,,,,,20,WORD,"ID",33,breast,BREAST,m,,,,,,0.313802083,-0.00390625,0,0,0,,0,2,2,19,1,
,,,,,,,,,,,,,,,,,,5ee379c2c1832e050bac5c14,2020-11-27_15h09.13.302,lexical_decision_task_MP_exp2,2020.2.5,Win32,60,z,1,0.671,,,,,,,,0.671,1,,,,,,330,NW,"ID",16,kensom,KENSOM,z,,,,,,0.313802083,-0.00390625,0,0,0,,0,3,3,329,1,
,,,,,,,,,,,,,,,,,,5ee379c2c1832e050bac5c14,2020-11-27_15h09.13.302,lexical_decision_task_MP_exp2,2020.2.5,Win32,60,z,1,0.622,,,,,,,,0.622,1,,,,,,267,NW,"ID",33,pasink,PASINK,z,,,,,,0.313802083,-0.00390625,0,0,0,,0,4,4,266,1,
,,,,,,,,,,,,,,,,,,5ee379c2c1832e050bac5c14,2020-11-27_15h09.13.302,lexical_decision_task_MP_exp2,2020.2.5,Win32,60,m,1,0.525,,,,,,,,0.525,1,,,,,,182,WORD,UN,16,basket,WINTER,m,,,,,,0.313802083,-0.00390625,0,0,0,,0,5,5,181,1,
,,,,,,,,,,,,,,,,,,5ee379c2c1832e050bac5c14,2020-11-27_15h09.13.302,lexical_decision_task_MP_exp2,2020.2.5,Win32,60,m,1,0.534,,,,,,,,0.534,1,,,,,,81,WORD,"ID",16,friend,FRIEND,m,,,,,,0.313802083,-0.00390625,0,0,0,,0,6,6,80,1,
,,,,,,,,,,,,,,,,,,5ee379c2c1832e050bac5c14,2020-11-27_15h09.13.302,lexical_decision_task_MP_exp2,2020.2.5,Win32,60,m,1,0.518,,,,,,,,0.518,1,,,,,,74,WORD,"ID",16,plaque,PLAQUE,m,,,,,,0.313802083,-0.00390625,0,0,0,,0,7,7,73,1,
,,,,,,,,,,,,,,,,,,5ee379c2c1832e050bac5c14,2020-11-27_15h09.13.302,lexical_decision_task_MP_exp2,2020.2.5,Win32,60,m,1,0.502,,,,,,,,0.502,1,,,,,,168,WORD,UN,33,genius,ANSWER,m,,,,,,0.313802083,-0.00390625,0,0,0,,0,8,8,167,1,
,,,,,,,,,,,,,,,,,,5ee379c2c1832e050bac5c14,2020-11-27_15h09.13.302,lexical_decision_task_MP_exp2,2020.2.5,Win32,60,z,1,0.616,,,,,,,,0.616,1,,,,,,244,NW,"ID",33,eatric,EATRIC,z,,,,,,0.313802083,-0.00390625,0,0,0,,0,9,9,243,1,
,,,,,,,,,,,,,,,,,,5ee379c2c1832e050bac5c14,2020-11-27_15h09.13.302,lexical_decision_task_MP_exp2,2020.2.5,Win32,60,z,1,0.583,,,,,,,,0.583,1,,,,,,295,NW,"ID",33,gleath,GLEATH,z,,,,,,0.313802083,-0.00390625,0,0,0,,0,10,10,294,1,
,,,,,,,,,,,,,,,,,,5ee379c2c1832e050bac5c14,2020-11-27_15h09.13.302,lexical_decision_task_MP_exp2,2020.2.5,Win32,60,z,1,0.589,,,,,,,,0.589,1,,,,,,471,NW,UN,16,cigney,NOBEST,z,,,,,,0.313802083,-0.00390625,0,0,0,,0,11,11,470,1,
,,,,,,,,,,,,,,,,,,5ee379c2c1832e050bac5c14,2020-11-27_15h09.13.302,lexical_decision_task_MP_exp2,2020.2.5,Win32,60,z,1,0.588,,,,,,,,0.588,1,,,,,,416,NW,UN,33,earoud,PATHEL,z,,,,,,0.313802083,-0.00390625,0,0,0,,0,12,12,415,1,
,,,,,,,,,,,,,,,,,,5ee379c2c1832e050bac5c14,2020-11-27_15h09.13.302,lexical_decision_task_MP_exp2,2020.2.5,Win32,60,z,1,0.687,,,,,,,,0.687,1,,,,,,428,NW,UN,16,chrums,TANDLY,z,,,,,,0.313802083,-0.00390625,0,0,0,,0,13,13,427,1,
,,,,,,,,,,,,,,,,,,5ee379c2c1832e050bac5c14,2020-11-27_15h09.13.302,lexical_decision_task_MP_exp2,2020.2.5,Win32,60,z,1,0.568,,,,,,,,0.568,1,,,,,,351,NW,"ID",16,tiesch,TIESCH,z,,,,,,0.313802083,-0.00390625,0,0,0,,0,14,14,350,1,
,,,,,,,,,,,,,,,,,,5ee379c2c1832e050bac5c14,2020-11-27_15h09.13.302,lexical_decision_task_MP_exp2,2020.2.5,Win32,60,z,1,0.654,,,,,,,,0.654,1,,,,,,315,NW,"ID",16,laston,LASTON,z,,,,,,0.313802083,-0.00390625,0,0,0,,0,15,15,314,1,
,,,,,,,,,,,,,,,,,,5ee379c2c1832e050bac5c14,2020-11-27_15h09.13.302,lexical_decision_task_MP_exp2,2020.2.5,Win32,60,z,1,0.608,,,,,,,,0.608,1,,,,,,366,NW,UN,33,slique,TOSHEL,z,,,,,,0.313802083,-0.00390625,0,0,0,,0,16,16,365,1,
,,,,,,,,,,,,,,,,,,5ee379c2c1832e050bac5c14,2020-11-27_15h09.13.302,lexical_decision_task_MP_exp2,2020.2.5,Win32,60,z,1,0.686,,,,,,,,0.686,1,,,,,,299,NW,"ID",33,sturch,STURCH,z,,,,,,0.313802083,-0.00390625,0,0,0,,0,17,17,298,1,
,,,,,,,,,,,,,,,,,,5ee379c2c1832e050bac5c14,2020-11-27_15h09.13.302,lexical_decision_task_MP_exp2,2020.2.5,Win32,60,z,1,0.552,,,,,,,,0.552,1,,,,,,262,NW,"ID",33,quilew,QUILEW,z,,,,,,0.313802083,-0.00390625,0,0,0,,0,18,18,261,1,
,,,,,,,,,,,,,,,,,,5ee379c2c1832e050bac5c14,2020-11-27_15h09.13.302,lexical_decision_task_MP_exp2,2020.2.5,Win32,60,m,1,0.57,,,,,,,,0.57,1,,,,,,65,WORD,"ID",16,symbol,SYMBOL,m,,,,,,0.313802083,-0.00390625,0,0,0,,0,19,19,64,1,
,,,,,,,,,,,,,,,,,,5ee379c2c1832e050bac5c14,2020-11-27_15h09.13.302,lexical_decision_task_MP_exp2,2020.2.5,Win32,60,z,1,0.563,,,,,,,,0.563,1,,,,,,422,NW,UN,16,streld,ALCOUD,z,,,,,,0.313802083,-0.00390625,0,0,0,,0,20,20,421,1,
,,,,,,,,,,,,,,,,,,5ee379c2c1832e050bac5c14,2020-11-27_15h09.13.302,lexical_decision_task_MP_exp2,2020.2.5,Win32,60,z,1,0.57,,,,,,,,0.57,1,,,,,,450,NW,UN,16,rastoe,PHRECT,z,,,,,,0.313802083,-0.00390625,0,0,0,,0,21,21,449,1,
,,,,,,,,,,,,,,,,,,5ee379c2c1832e050bac5c14,2020-11-27_15h09.13.302,lexical_decision_task_MP_exp2,2020.2.5,Win32,60,m,1,0.703,,,,,,,,0.703,1,,,,,,117,WORD,"ID",16,branch,BRANCH,m,,,,,,0.313802083,-0.00390625,0,0,0,,0,22,22,116,1,
,,,,,,,,,,,,,,,,,,5ee379c2c1832e050bac5c14,2020-11-27_15h09.13.302,lexical_decision_task_MP_exp2,2020.2.5,Win32,60,m,1,0.725,,,,,,,,0.725,1,,,,,,10,WORD,"ID",33,ethnic,ETHNIC,m,,,,,,0.313802083,-0.00390625,0,0,0,,0,23,23,9,1,
,,,,,,,,,,,,,,,,,,5ee379c2c1832e050bac5c14,2020-11-27_15h09.13.302,lexical_decision_task_MP_exp2,2020.2.5,Win32,60,z,1,0.589,,,,,,,,0.589,1,,,,,,358,NW,"ID",16,fleack,FLEACK,z,,,,,,0.313802083,-0.00390625,0,0,0,,0,24,24,357,1,
,,,,,,,,,,,,,,,,,,5ee379c2c1832e050bac5c14,2020-11-27_15h09.13.302,lexical_decision_task_MP_exp2,2020.2.5,Win32,60,m,1,0.584,,,,,,,,0.584,1,,,,,,7,WORD,"ID",33,anchor,ANCHOR,m,,,,,,0.313802083,-0.00390625,0,0,0,,0,25,25,6,1,
,,,,,,,,,,,,,,,,,,5ee379c2c1832e050bac5c14,2020-11-27_15h09.13.302,lexical_decision_task_MP_exp2,2020.2.5,Win32,60,z,1,0.605,,,,,,,,0.605,1,,,,,,326,NW,"ID",16,iguade,IGUADE,z,,,,,,0.313802083,-0.00390625,0,0,0,,0,26,26,325,1,
,,,,,,,,,,,,,,,,,,5ee379c2c1832e050bac5c14,2020-11-27_15h09.13.302,lexical_decision_task_MP_exp2,2020.2.5,Win32,60,m,1,0.587,,,,,,,,0.587,1,,,,,,2,WORD,"ID",33,bridge,BRIDGE,m,,,,,,0.313802083,-0.00390625,0,0,0,,0,27,27,1,1,
,,,,,,,,,,,,,,,,,,5ee379c2c1832e050bac5c14,2020-11-27_15h09.13.302,lexical_decision_task_MP_exp2,2020.2.5,Win32,60,m,1,0.566,,,,,,,,0.566,1,,,,,,159,WORD,UN,33,violet,DETAIL,m,,,,,,0.313802083,-0.00390625,0,0,0,,0,28,28,158,1,
,,,,,,,,,,,,,,,,,,5ee379c2c1832e050bac5c14,2020-11-27_15h09.13.302,lexical_decision_task_MP_exp2,2020.2.5,Win32,60,m,1,0.476,,,,,,,,0.476,1,,,,,,94,WORD,"ID",16,travel,TRAVEL,m,,,,,,0.313802083,-0.00390625,0,0,0,,0,29,29,93,1,
,,,,,,,,,,,,,,,,,,5ee379c2c1832e050bac5c14,2020-11-27_15h09.13.302,lexical_decision_task_MP_exp2,2020.2.5,Win32,60,z,1,0.556,,,,,,,,0.556,1,,,,,,444,NW,UN,16,minkel,JAUNCE,z,,,,,,0.313802083,-0.00390625,0,0,0,,0,30,30,443,1,
,,,,,,,,,,,,,,,,,,5ee379c2c1832e050bac5c14,2020-11-27_15h09.13.302,lexical_decision_task_MP_exp2,2020.2.5,Win32,60,m,1,0.784,,,,,,,,0.784,1,,,,,,9,WORD,"ID",33,hustle,HUSTLE,m,,,,,,0.313802083,-0.00390625,0,0,0,,0,31,31,8,1,
,,,,,,,,,,,,,,,,,,5ee379c2c1832e050bac5c14,2020-11-27_15h09.13.302,lexical_decision_task_MP_exp2,2020.2.5,Win32,60,z,1,0.608,,,,,,,,0.608,1,,,,,,390,NW,UN,33,theldy,HATRUS,z,,,,,,0.313802083,-0.00390625,0,0,0,,0,32,32,389,1,
,,,,,,,,,,,,,,,,,,5ee379c2c1832e050bac5c14,2020-11-27_15h09.13.302,lexical_decision_task_MP_exp2,2020.2.5,Win32,60,z,1,0.658,,,,,,,,0.658,1,,,,,,350,NW,"ID",16,nagurs,NAGURS,z,,,,,,0.313802083,-0.00390625,0,0,0,,0,33,33,349,1,
,,,,,,,,,,,,,,,,,,5ee379c2c1832e050bac5c14,2020-11-27_15h09.13.302,lexical_decision_task_MP_exp2,2020.2.5,Win32,60,z,1,0.735,,,,,,,,0.735,1,,,,,,253,NW,"ID",33,resait,RESAIT,z,,,,,,0.313802083,-0.00390625,0,0,0,,0,34,34,252,1,
,,,,,,,,,,,,,,,,,,5ee379c2c1832e050bac5c14,2020-11-27_15h09.13.302,lexical_decision_task_MP_exp2,2020.2.5,Win32,60,m,1,0.786,,,,,,,,0.786,1,,,,,,131,WORD,UN,33,strong,QUENCH,m,,,,,,0.313802083,-0.00390625,0,0,0,,0,35,35,130,1,
,,,,,,,,,,,,,,,,,,5ee379c2c1832e050bac5c14,2020-11-27_15h09.13.302,lexical_decision_task_MP_exp2,2020.2.5,Win32,60,z,1,0.568,,,,,,,,0.568,1,,,,,,313,NW,"ID",16,paurse,PAURSE,z,,,,,,0.313802083,-0.00390625,0,0,0,,0,36,36,312,1,
,,,,,,,,,,,,,,,,,,5ee379c2c1832e050bac5c14,2020-11-27_15h09.13.302,lexical_decision_task_MP_exp2,2020.2.5,Win32,60,z,1,0.75,,,,,,,,0.75,1,,,,,,266,NW,"ID",33,varmit,VARMIT,z,,,,,,0.313802083,-0.00390625,0,0,0,,0,37,37,265,1,
,,,,,,,,,,,,,,,,,,5ee379c2c1832e050bac5c14,2020-11-27_15h09.13.302,lexical_decision_task_MP_exp2,2020.2.5,Win32,60,z,1,0.701,,,,,,,,0.701,1,,,,,,462,NW,UN,16,kispel,ABSULT,z,,,,,,0.313802083,-0.00390625,0,0,0,,0,38,38,461,1,
,,,,,,,,,,,,,,,,,,5ee379c2c1832e050bac5c14,2020-11-27_15h09.13.302,lexical_decision_task_MP_exp2,2020.2.5,Win32,60,m,1,0.574,,,,,,,,0.574,1,,,,,,180,WORD,UN,33,thrive,SILENT,m,,,,,,0.313802083,-0.00390625,0,0,0,,0,39,39,179,1,
,,,,,,,,,,,,,,,,,,5ee379c2c1832e050bac5c14,2020-11-27_15h09.13.302,lexical_decision_task_MP_exp2,2020.2.5,Win32,60,z,1,0.57,,,,,,,,0.57,1,,,,,,426,NW,UN,16,frudge,URIVEL,z,,,,,,0.313802083,-0.00390625,0,0,0,,0,40,40,425,1,
,,,,,,,,,,,,,,,,,,5ee379c2c1832e050bac5c14,2020-11-27_15h09.13.302,lexical_decision_task_MP_exp2,2020.2.5,Win32,60,m,1,0.586,,,,,,,,0.586,1,,,,,,210,WORD,UN,16,infect,MONKEY,m,,,,,,0.313802083,-0.00390625,0,0,0,,0,41,41,209,1,
,,,,,,,,,,,,,,,,,,5ee379c2c1832e050bac5c14,2020-11-27_15h09.13.302,lexical_decision_task_MP_exp2,2020.2.5,Win32,60,z,1,1.076,,,,,,,,1.076,1,,,,,,248,NW,"ID",33,strole,STROLE,z,,,,,,0.313802083,-0.00390625,0,0,0,,0,42,42,247,1,
,,,,,,,,,,,,,,,,,,5ee379c2c1832e050bac5c14,2020-11-27_15h09.13.302,lexical_decision_task_MP_exp2,2020.2.5,Win32,60,z,1,0.739,,,,,,,,0.739,1,,,,,,396,NW,UN,33,camble,FLENGY,z,,,,,,0.313802083,-0.00390625,0,0,0,,0,43,43,395,1,
,,,,,,,,,,,,,,,,,,5ee379c2c1832e050bac5c14,2020-11-27_15h09.13.302,lexical_decision_task_MP_exp2,2020.2.5,Win32,60,m,1,0.819,,,,,,,,0.819,1,,,,,,128,WORD,UN,33,marvel,SENIOR,m,,,,,,0.313802083,-0.00390625,0,0,0,,0,44,44,127,1,
,,,,,,,,,,,,,,,,,,5ee379c2c1832e050bac5c14,2020-11-27_15h09.13.302,lexical_decision_task_MP_exp2,2020.2.5,Win32,60,z,1,0.81,,,,,,,,0.81,1,,,,,,391,NW,UN,33,rouncy,THELDY,z,,,,,,0.313802083,-0.00390625,0,0,0,,0,45,45,390,1,
,,,,,,,,,,,,,,,,,,5ee379c2c1832e050bac5c14,2020-11-27_15h09.13.302,lexical_decision_task_MP_exp2,2020.2.5,Win32,60,z,1,0.6,,,,,,,,0.6,1,,,,,,371,NW,UN,33,ramily,GEILOY,z,,,,,,0.313802083,-0.00390625,0,0,0,,0,46,46,370,1,
,,,,,,,,,,,,,,,,,,5ee379c2c1832e050bac5c14,2020-11-27_15h09.13.302,lexical_decision_task_MP_exp2,2020.2.5,Win32,60,z,1,0.553,,,,,,,,0.553,1,,,,,,413,NW,UN,33,serbol,EQUATS,z,,,,,,0.313802083,-0.00390625,0,0,0,,0,47,47,412,1,
,,,,,,,,,,,,,,,,,,5ee379c2c1832e050bac5c14,2020-11-27_15h09.13.302,lexical_decision_task_MP_exp2,2020.2.5,Win32,60,m,1,0.605,,,,,,,,0.605,1,,,,,,58,WORD,"ID",33,foster,FOSTER,m,,,,,,0.313802083,-0.00390625,0,0,0,,0,48,48,57,1,
,,,,,,,,,,,,,,,,,,5ee379c2c1832e050bac5c14,2020-11-27_15h09.13.302,lexical_decision_task_MP_exp2,2020.2.5,Win32,60,m,1,0.802,,,,,,,,0.802,1,,,,,,239,WORD,UN,16,forest,LUMBER,m,,,,,,0.313802083,-0.00390625,0,0,0,,0,49,49,238,1,
,,,,,,,,,,,,,,,,,,5ee379c2c1832e050bac5c14,2020-11-27_15h09.13.302,lexical_decision_task_MP_exp2,2020.2.5,Win32,60,m,1,0.886,,,,,,,,0.886,1,,,,,,44,WORD,"ID",33,danger,DANGER,m,,,,,,0.313802083,-0.00390625,0,0,0,,0,50,50,43,1,
,,,,,,,,,,,,,,,,,,5ee379c2c1832e050bac5c14,2020-11-27_15h09.13.302,lexical_decision_task_MP_exp2,2020.2.5,Win32,60,m,1,0.785,,,,,,,,0.785,1,,,,,,141,WORD,UN,33,spruce,ORPHAN,m,,,,,,0.313802083,-0.00390625,0,0,0,,0,51,51,140,1,
,,,,,,,,,,,,,,,,,,5ee379c2c1832e050bac5c14,2020-11-27_15h09.13.302,lexical_decision_task_MP_exp2,2020.2.5,Win32,60,m,1,0.704,,,,,,,,0.704,1,,,,,,193,WORD,UN,16,plague,OBJECT,m,,,,,,0.313802083,-0.00390625,0,0,0,,0,52,52,192,1,
,,,,,,,,,,,,,,,,,,5ee379c2c1832e050bac5c14,2020-11-27_15h09.13.302,lexical_decision_task_MP_exp2,2020.2.5,Win32,60,m,1,1.138,,,,,,,,1.138,1,,,,,,181,WORD,UN,16,winter,GLANCE,m,,,,,,0.313802083,-0.00390625,0,0,0,,0,53,53,180,1,
,,,,,,,,,,,,,,,,,,5ee379c2c1832e050bac5c14,2020-11-27_15h09.13.302,lexical_decision_task_MP_exp2,2020.2.5,Win32,60,m,1,1.153,,,,,,,,1.153,1,,,,,,62,WORD,"ID",16,region,REGION,m,,,,,,0.313802083,-0.00390625,0,0,0,,0,54,54,61,1,
,,,,,,,,,,,,,,,,,,5ee379c2c1832e050bac5c14,2020-11-27_15h09.13.302,lexical_decision_task_MP_exp2,2020.2.5,Win32,60,m,1,0.755,,,,,,,,0.755,1,,,,,,120,WORD,"ID",16,strain,STRAIN,m,,,,,,0.313802083,-0.00390625,0,0,0,,0,55,55,119,1,
,,,,,,,,,,,,,,,,,,5ee379c2c1832e050bac5c14,2020-11-27_15h09.13.302,lexical_decision_task_MP_exp2,2020.2.5,Win32,60,m,1,0.67,,,,,,,,0.67,1,,,,,,70,WORD,"ID",16,square,SQUARE,m,,,,,,0.313802083,-0.00390625,0,0,0,,0,56,56,69,1,
,,,,,,,,,,,,,,,,,,5ee379c2c1832e050bac5c14,2020-11-27_15h09.13.302,lexical_decision_task_MP_exp2,2020.2.5,Win32,60,z,1,0.67,,,,,,,,0.67,1,,,,,,335,NW,"ID",16,desion,DESION,z,,,,,,0.313802083,-0.00390625,0,0,0,,0,57,57,334,1,
,,,,,,,,,,,,,,,,,,5ee379c2c1832e050bac5c14,2020-11-27_15h09.13.302,lexical_decision_task_MP_exp2,2020.2.5,Win32,60,z,1,0.586,,,,,,,,0.586,1,,,,,,408,NW,UN,33,flumni,HURNIA,z,,,,,,0.313802083,-0.00390625,0,0,0,,0,58,58,407,1,
,,,,,,,,,,,,,,,,,,5ee379c2c1832e050bac5c14,2020-11-27_15h09.13.302,lexical_decision_task_MP_exp2,2020.2.5,Win32,60,m,1,0.74,,,,,,,,0.74,1,,,,,,226,WORD,UN,16,flower,CASINO,m,,,,,,0.313802083,-0.00390625,0,0,0,,0,59,59,225,1,
,,,,,,,,,,,,,,,,,,5ee379c2c1832e050bac5c14,2020-11-27_15h09.13.302,lexical_decision_task_MP_exp2,2020.2.5,Win32,60,m,1,0.674,,,,,,,,0.674,1,,,,,,75,WORD,"ID",16,trophy,TROPHY,m,,,,,,0.313802083,-0.00390625,0,0,0,,0,60,60,74,1,
,,,,,,,,,,,,,,,,,,5ee379c2c1832e050bac5c14,2020-11-27_15h09.13.302,lexical_decision_task_MP_exp2,2020.2.5,Win32,60,z,1,0.63,,,,,,,,0.63,1,,,,,,301,NW,"ID",16,fainch,FAINCH,z,,,,,,0.313802083,-0.00390625,0,0,0,,0,61,61,300,1,
,,,,,,,,,,,,,,,,,,5ee379c2c1832e050bac5c14,2020-11-27_15h09.13.302,lexical_decision_task_MP_exp2,2020.2.5,Win32,60,z,1,0.555,,,,,,,,0.555,1,,,,,,370,NW,UN,33,geiloy,SLEACT,z,,,,,,0.313802083,-0.00390625,0,0,0,,0,62,62,369,1,
,,,,,,,,,,,,,,,,,,5ee379c2c1832e050bac5c14,2020-11-27_15h09.13.302,lexical_decision_task_MP_exp2,2020.2.5,Win32,60,m,1,0.583,,,,,,,,0.583,1,,,,,,218,WORD,UN,16,bucket,SHRINK,m,,,,,,0.313802083,-0.00390625,0,0,0,,0,63,63,217,1,
,,,,,,,,,,,,,,,,,,5ee379c2c1832e050bac5c14,2020-11-27_15h09.13.302,lexical_decision_task_MP_exp2,2020.2.5,Win32,60,m,1,0.752,,,,,,,,0.752,1,,,,,,209,WORD,UN,16,monkey,SEARCH,m,,,,,,0.313802083,-0.00390625,0,0,0,,0,64,64,208,1,
,,,,,,,,,,,,,,,,,,5ee379c2c1832e050bac5c14,2020-11-27_15h09.13.302,lexical_decision_task_MP_exp2,2020.2.5,Win32,60,m,1,0.575,,,,,,,,0.575,1,,,,,,172,WORD,UN,33,shower,PATROL,m,,,,,,0.313802083,-0.00390625,0,0,0,,0,65,65,171,1,
,,,,,,,,,,,,,,,,,,5ee379c2c1832e050bac5c14,2020-11-27_15h09.13.302,lexical_decision_task_MP_exp2,2020.2.5,Win32,60,m,1,0.601,,,,,,,,0.601,1,,,,,,39,WORD,"ID",33,insect,INSECT,m,,,,,,0.313802083,-0.00390625,0,0,0,,0,66,66,38,1,
,,,,,,,,,,,,,,,,,,5ee379c2c1832e050bac5c14,2020-11-27_15h09.13.302,lexical_decision_task_MP_exp2,2020.2.5,Win32,60,m,1,0.637,,,,,,,,0.637,1,,,,,,85,WORD,"ID",16,sprawl,SPRAWL,m,,,,,,0.313802083,-0.00390625,0,0,0,,0,67,67,84,1,
,,,,,,,,,,,,,,,,,,5ee379c2c1832e050bac5c14,2020-11-27_15h09.13.302,lexical_decision_task_MP_exp2,2020.2.5,Win32,60,m,1,0.635,,,,,,,,0.635,1,,,,,,230,WORD,UN,16,export,FRINGE,m,,,,,,0.313802083,-0.00390625,0,0,0,,0,68,68,229,1,
,,,,,,,,,,,,,,,,,,5ee379c2c1832e050bac5c14,2020-11-27_15h09.13.302,lexical_decision_task_MP_exp2,2020.2.5,Win32,60,z,1,0.652,,,,,,,,0.652,1,,,,,,414,NW,UN,33,higsta,SERBOL,z,,,,,,0.313802083,-0.00390625,0,0,0,,0,69,69,413,1,
,,,,,,,,,,,,,,,,,,5ee379c2c1832e050bac5c14,2020-11-27_15h09.13.302,lexical_decision_task_MP_exp2,2020.2.5,Win32,60,m,1,0.691,,,,,,,,0.691,1,,,,,,104,WORD,"ID",16,studio,STUDIO,m,,,,,,0.313802083,-0.00390625,0,0,0,,0,70,70,103,1,
,,,,,,,,,,,,,,,,,,5ee379c2c1832e050bac5c14,2020-11-27_15h09.13.302,lexical_decision_task_MP_exp2,2020.2.5,Win32,60,z,1,0.665,,,,,,,,0.665,1,,,,,,352,NW,"ID",16,tringe,TRINGE,z,,,,,,0.313802083,-0.00390625,0,0,0,,0,71,71,351,1,
,,,,,,,,,,,,,,,,,,5ee379c2c1832e050bac5c14,2020-11-27_15h09.13.302,lexical_decision_task_MP_exp2,2020.2.5,Win32,60,z,1,0.627,,,,,,,,0.627,1,,,,,,474,NW,UN,16,gorbie,HABLIN,z,,,,,,0.313802083,-0.00390625,0,0,0,,0,72,72,473,1,
,,,,,,,,,,,,,,,,,,5ee379c2c1832e050bac5c14,2020-11-27_15h09.13.302,lexical_decision_task_MP_exp2,2020.2.5,Win32,60,z,1,0.741,,,,,,,,0.741,1,,,,,,382,NW,UN,33,aungre,SARLEY,z,,,,,,0.313802083,-0.00390625,0,0,0,,0,73,73,381,1,
,,,,,,,,,,,,,,,,,,5ee379c2c1832e050bac5c14,2020-11-27_15h09.13.302,lexical_decision_task_MP_exp2,2020.2.5,Win32,60,m,1,0.719,,,,,,,,0.719,1,,,,,,23,WORD,"ID",33,wealth,WEALTH,m,,,,,,0.313802083,-0.00390625,0,0,0,,0,74,74,22,1,
,,,,,,,,,,,,,,,,,,5ee379c2c1832e050bac5c14,2020-11-27_15h09.13.302,lexical_decision_task_MP_exp2,2020.2.5,Win32,60,m,1,0.57,,,,,,,,0.57,1,,,,,,12,WORD,"ID",33,orange,ORANGE,m,,,,,,0.313802083,-0.00390625,0,0,0,,0,75,75,11,1,
,,,,,,,,,,,,,,,,,,5ee379c2c1832e050bac5c14,2020-11-27_15h09.13.302,lexical_decision_task_MP_exp2,2020.2.5,Win32,60,m,1,0.525,,,,,,,,0.525,1,,,,,,229,WORD,UN,16,fringe,MOTHER,m,,,,,,0.313802083,-0.00390625,0,0,0,,0,76,76,228,1,
,,,,,,,,,,,,,,,,,,5ee379c2c1832e050bac5c14,2020-11-27_15h09.13.302,lexical_decision_task_MP_exp2,2020.2.5,Win32,60,m,1,0.752,,,,,,,,0.752,1,,,,,,171,WORD,UN,33,patrol,DEPART,m,,,,,,0.313802083,-0.00390625,0,0,0,,0,77,77,170,1,
,,,,,,,,,,,,,,,,,,5ee379c2c1832e050bac5c14,2020-11-27_15h09.13.302,lexical_decision_task_MP_exp2,2020.2.5,Win32,60,z,1,0.675,,,,,,,,0.675,1,,,,,,312,NW,"ID",16,nerawl,NERAWL,z,,,,,,0.313802083,-0.00390625,0,0,0,,0,78,78,311,1,
,,,,,,,,,,,,,,,,,,5ee379c2c1832e050bac5c14,2020-11-27_15h09.13.302,lexical_decision_task_MP_exp2,2020.2.5,Win32,60,z,1,0.676,,,,,,,,0.676,1,,,,,,344,NW,"ID",16,scrily,SCRILY,z,,,,,,0.313802083,-0.00390625,0,0,0,,0,79,79,343,1,
,,,,,,,,,,,,,,,,,,5ee379c2c1832e050bac5c14,2020-11-27_15h09.13.302,lexical_decision_task_MP_exp2,2020.2.5,Win32,60,m,1,0.859,,,,,,,,0.859,1,,,,,,169,WORD,UN,33,pounce,GENIUS,m,,,,,,0.313802083,-0.00390625,0,0,0,,0,80,80,168,1,
,,,,,,,,,,,,,,,,,,5ee379c2c1832e050bac5c14,2020-11-27_15h09.13.302,lexical_decision_task_MP_exp2,2020.2.5,Win32,60,z,1,0.658,,,,,,,,0.658,1,,,,,,363,NW,UN,33,impote,BREALI,z,,,,,,0.313802083,-0.00390625,0,0,0,,0,81,81,362,1,
,,,,,,,,,,,,,,,,,,5ee379c2c1832e050bac5c14,2020-11-27_15h09.13.302,lexical_decision_task_MP_exp2,2020.2.5,Win32,60,m,1,0.657,,,,,,,,0.657,1,,,,,,134,WORD,UN,33,import,STAPLE,m,,,,,,0.313802083,-0.00390625,0,0,0,,0,82,82,133,1,
,,,,,,,,,,,,,,,,,,5ee379c2c1832e050bac5c14,2020-11-27_15h09.13.302,lexical_decision_task_MP_exp2,2020.2.5,Win32,60,z,1,0.604,,,,,,,,0.604,1,,,,,,325,NW,"ID",16,thruse,THRUSE,z,,,,,,0.313802083,-0.00390625,0,0,0,,0,83,83,324,1,
,,,,,,,,,,,,,,,,,,5ee379c2c1832e050bac5c14,2020-11-27_15h09.13.302,lexical_decision_task_MP_exp2,2020.2.5,Win32,60,z,1,0.624,,,,,,,,0.624,1,,,,,,427,NW,UN,16,tandly,SCHIND,z,,,,,,0.313802083,-0.00390625,0,0,0,,0,84,84,426,1,
,,,,,,,,,,,,,,,,,,5ee379c2c1832e050bac5c14,2020-11-27_15h09.13.302,lexical_decision_task_MP_exp2,2020.2.5,Win32,60,z,1,0.598,,,,,,,,0.598,1,,,,,,322,NW,"ID",16,slanch,SLANCH,z,,,,,,0.313802083,-0.00390625,0,0,0,,0,85,85,321,1,
,,,,,,,,,,,,,,,,,,5ee379c2c1832e050bac5c14,2020-11-27_15h09.13.302,lexical_decision_task_MP_exp2,2020.2.5,Win32,60,z,1,0.721,,,,,,,,0.721,1,,,,,,439,NW,UN,16,saride,LIMPOR,z,,,,,,0.313802083,-0.00390625,0,0,0,,0,86,86,438,1,
,,,,,,,,,,,,,,,,,,5ee379c2c1832e050bac5c14,2020-11-27_15h09.13.302,lexical_decision_task_MP_exp2,2020.2.5,Win32,60,m,1,0.818,,,,,,,,0.818,1,,,,,,222,WORD,UN,16,casino,HINDER,m,,,,,,0.313802083,-0.00390625,0,0,0,,0,87,87,221,1,
,,,,,,,,,,,,,,,,,,5ee379c2c1832e050bac5c14,2020-11-27_15h09.13.302,lexical_decision_task_MP_exp2,2020.2.5,Win32,60,z,1,0.702,,,,,,,,0.702,1,,,,,,261,NW,"ID",33,stunch,STUNCH,z,,,,,,0.313802083,-0.00390625,0,0,0,,0,88,88,260,1,
,,,,,,,,,,,,,,,,,,5ee379c2c1832e050bac5c14,2020-11-27_15h09.13.302,lexical_decision_task_MP_exp2,2020.2.5,Win32,60,z,1,0.619,,,,,,,,0.619,1,,,,,,456,NW,UN,16,wanigh,BROGET,z,,,,,,0.313802083,-0.00390625,0,0,0,,0,89,89,455,1,
,,,,,,,,,,,,,,,,,,5ee379c2c1832e050bac5c14,2020-11-27_15h09.13.302,lexical_decision_task_MP_exp2,2020.2.5,Win32,60,m,1,0.607,,,,,,,,0.607,1,,,,,,88,WORD,"ID",16,hunger,HUNGER,m,,,,,,0.313802083,-0.00390625,0,0,0,,0,90,90,87,1,
,,,,,,,,,,,,,,,,,,5ee379c2c1832e050bac5c14,2020-11-27_15h09.13.302,lexical_decision_task_MP_exp2,2020.2.5,Win32,60,m,1,0.6,,,,,,,,0.6,1,,,,,,175,WORD,UN,33,strife,FABRIC,m,,,,,,0.313802083,-0.00390625,0,0,0,,0,91,91,174,1,
,,,,,,,,,,,,,,,,,,5ee379c2c1832e050bac5c14,2020-11-27_15h09.13.302,lexical_decision_task_MP_exp2,2020.2.5,Win32,60,m,1,0.576,,,,,,,,0.576,1,,,,,,30,WORD,"ID",33,orient,ORIENT,m,,,,,,0.313802083,-0.00390625,0,0,0,,0,92,92,29,1,
,,,,,,,,,,,,,,,,,,5ee379c2c1832e050bac5c14,2020-11-27_15h09.13.302,lexical_decision_task_MP_exp2,2020.2.5,Win32,60,m,1,0.526,,,,,,,,0.526,1,,,,,,129,WORD,UN,33,stupid,MARVEL,m,,,,,,0.313802083,-0.00390625,0,0,0,,0,93,93,128,1,
,,,,,,,,,,,,,,,,,,5ee379c2c1832e050bac5c14,2020-11-27_15h09.13.302,lexical_decision_task_MP_exp2,2020.2.5,Win32,60,m,1,0.525,,,,,,,,0.525,1,,,,,,109,WORD,"ID",16,wonder,WONDER,m,,,,,,0.313802083,-0.00390625,0,0,0,,0,94,94,108,1,
,,,,,,,,,,,,,,,,,,5ee379c2c1832e050bac5c14,2020-11-27_15h09.13.302,lexical_decision_task_MP_exp2,2020.2.5,Win32,60,m,1,0.598,,,,,,,,0.598,1,,,,,,66,WORD,"ID",16,gospel,GOSPEL,m,,,,,,0.313802083,-0.00390625,0,0,0,,0,95,95,65,1,
,,,,,,,,,,,,,,,,,,5ee379c2c1832e050bac5c14,2020-11-27_15h09.13.302,lexical_decision_task_MP_exp2,2020.2.5,Win32,60,z,1,0.618,,,,,,,,0.618,1,,,,,,433,NW,UN,16,pitrom,DRANCE,z,,,,,,0.313802083,-0.00390625,0,0,0,,0,96,96,432,1,
,,,,,,,,,,,,,,,,,,5ee379c2c1832e050bac5c14,2020-11-27_15h09.13.302,lexical_decision_task_MP_exp2,2020.2.5,Win32,60,z,1,0.557,,,,,,,,0.557,1,,,,,,321,NW,"ID",16,miator,MIATOR,z,,,,,,0.313802083,-0.00390625,0,0,0,,0,97,97,320,1,
,,,,,,,,,,,,,,,,,,5ee379c2c1832e050bac5c14,2020-11-27_15h09.13.302,lexical_decision_task_MP_exp2,2020.2.5,Win32,60,m,1,0.824,,,,,,,,0.824,1,,,,,,189,WORD,UN,16,backup,CENSOR,m,,,,,,0.313802083,-0.00390625,0,0,0,,0,98,98,188,1,
,,,,,,,,,,,,,,,,,,5ee379c2c1832e050bac5c14,2020-11-27_15h09.13.302,lexical_decision_task_MP_exp2,2020.2.5,Win32,60,z,1,0.619,,,,,,,,0.619,1,,,,,,406,NW,UN,33,suiver,NOUPLY,z,,,,,,0.313802083,-0.00390625,0,0,0,,0,99,99,405,1,
,,,,,,,,,,,,,,,,,,5ee379c2c1832e050bac5c14,2020-11-27_15h09.13.302,lexical_decision_task_MP_exp2,2020.2.5,Win32,60,z,1,0.719,,,,,,,,0.719,1,,,,,,405,NW,UN,33,nouply,FLUMNI,z,,,,,,0.313802083,-0.00390625,0,0,0,,0,100,100,404,1,
,,,,,,,,,,,,,,,,,,5ee379c2c1832e050bac5c14,2020-11-27_15h09.13.302,lexical_decision_task_MP_exp2,2020.2.5,Win32,60,z,1,0.634,,,,,,,,0.634,1,,,,,,251,NW,"ID",33,lupict,LUPICT,z,,,,,,0.313802083,-0.00390625,0,0,0,,0,101,101,250,1,
,,,,,,,,,,,,,,,,,,5ee379c2c1832e050bac5c14,2020-11-27_15h09.13.302,lexical_decision_task_MP_exp2,2020.2.5,Win32,60,m,1,0.844,,,,,,,,0.844,1,,,,,,32,WORD,"ID",33,buckle,BUCKLE,m,,,,,,0.313802083,-0.00390625,0,0,0,,0,102,102,31,1,
,,,,,,,,,,,,,,,,,,5ee379c2c1832e050bac5c14,2020-11-27_15h09.13.302,lexical_decision_task_MP_exp2,2020.2.5,Win32,60,m,1,0.652,,,,,,,,0.652,1,,,,,,207,WORD,UN,16,hockey,WREATH,m,,,,,,0.313802083,-0.00390625,0,0,0,,0,103,103,206,1,
,,,,,,,,,,,,,,,,,,5ee379c2c1832e050bac5c14,2020-11-27_15h09.13.302,lexical_decision_task_MP_exp2,2020.2.5,Win32,60,m,1,0.553,,,,,,,,0.553,1,,,,,,3,WORD,"ID",33,knight,KNIGHT,m,,,,,,0.313802083,-0.00390625,0,0,0,,0,104,104,2,1,
,,,,,,,,,,,,,,,,,,5ee379c2c1832e050bac5c14,2020-11-27_15h09.13.302,lexical_decision_task_MP_exp2,2020.2.5,Win32,60,m,1,0.578,,,,,,,,0.578,1,,,,,,148,WORD,UN,33,invade,CUSTOM,m,,,,,,0.313802083,-0.00390625,0,0,0,,0,105,105,147,1,
,,,,,,,,,,,,,,,,,,5ee379c2c1832e050bac5c14,2020-11-27_15h09.13.302,lexical_decision_task_MP_exp2,2020.2.5,Win32,60,z,1,0.583,,,,,,,,0.583,1,,,,,,247,NW,"ID",33,blarge,BLARGE,z,,,,,,0.313802083,-0.00390625,0,0,0,,0,106,106,246,1,
,,,,,,,,,,,,,,,,,,5ee379c2c1832e050bac5c14,2020-11-27_15h09.13.302,lexical_decision_task_MP_exp2,2020.2.5,Win32,60,z,1,0.603,,,,,,,,0.603,1,,,,,,264,NW,"ID",33,vackel,VACKEL,z,,,,,,0.313802083,-0.00390625,0,0,0,,0,107,107,263,1,
,,,,,,,,,,,,,,,,,,5ee379c2c1832e050bac5c14,2020-11-27_15h09.13.302,lexical_decision_task_MP_exp2,2020.2.5,Win32,60,m,1,0.685,,,,,,,,0.685,1,,,,,,156,WORD,UN,33,pastor,CRADLE,m,,,,,,0.313802083,-0.00390625,0,0,0,,0,108,108,155,1,
,,,,,,,,,,,,,,,,,,5ee379c2c1832e050bac5c14,2020-11-27_15h09.13.302,lexical_decision_task_MP_exp2,2020.2.5,Win32,60,z,1,1.126,,,,,,,,1.126,1,,,,,,355,NW,"ID",16,zingly,ZINGLY,z,,,,,,0.313802083,-0.00390625,0,0,0,,0,109,109,354,1,
,,,,,,,,,,,,,,,,,,5ee379c2c1832e050bac5c14,2020-11-27_15h09.13.302,lexical_decision_task_MP_exp2,2020.2.5,Win32,60,z,1,0.625,,,,,,,,0.625,1,,,,,,297,NW,"ID",33,fertic,FERTIC,z,,,,,,0.313802083,-0.00390625,0,0,0,,0,110,110,296,1,
,,,,,,,,,,,,,,,,,,5ee379c2c1832e050bac5c14,2020-11-27_15h09.13.302,lexical_decision_task_MP_exp2,2020.2.5,Win32,60,z,1,0.686,,,,,,,,0.686,1,,,,,,306,NW,"ID",16,sounge,SOUNGE,z,,,,,,0.313802083,-0.00390625,0,0,0,,0,111,111,305,1,
,,,,,,,,,,,,,,,,,,5ee379c2c1832e050bac5c14,2020-11-27_15h09.13.302,lexical_decision_task_MP_exp2,2020.2.5,Win32,60,m,1,0.672,,,,,,,,0.672,1,,,,,,197,WORD,UN,16,wicked,STREAM,m,,,,,,0.313802083,-0.00390625,0,0,0,,0,112,112,196,1,
,,,,,,,,,,,,,,,,,,5ee379c2c1832e050bac5c14,2020-11-27_15h09.13.302,lexical_decision_task_MP_exp2,2020.2.5,Win32,60,z,1,0.56,,,,,,,,0.56,1,,,,,,327,NW,"ID",16,plenac,PLENAC,z,,,,,,0.313802083,-0.00390625,0,0,0,,0,113,113,326,1,
,,,,,,,,,,,,,,,,,,5ee379c2c1832e050bac5c14,2020-11-27_15h09.13.302,lexical_decision_task_MP_exp2,2020.2.5,Win32,60,z,1,0.658,,,,,,,,0.658,1,,,,,,271,NW,"ID",33,aubrid,AUBRID,z,,,,,,0.313802083,-0.00390625,0,0,0,,0,114,114,270,1,
,,,,,,,,,,,,,,,,,,5ee379c2c1832e050bac5c14,2020-11-27_15h09.13.302,lexical_decision_task_MP_exp2,2020.2.5,Win32,60,m,1,0.67,,,,,,,,0.67,1,,,,,,54,WORD,"ID",33,ramble,RAMBLE,m,,,,,,0.313802083,-0.00390625,0,0,0,,0,115,115,53,1,
,,,,,,,,,,,,,,,,,,5ee379c2c1832e050bac5c14,2020-11-27_15h09.13.302,lexical_decision_task_MP_exp2,2020.2.5,Win32,60,m,1,0.6,,,,,,,,0.6,1,,,,,,140,WORD,UN,33,reason,PRINCE,m,,,,,,0.313802083,-0.00390625,0,0,0,,0,116,116,139,1,
,,,,,,,,,,,,,,,,,,5ee379c2c1832e050bac5c14,2020-11-27_15h09.13.302,lexical_decision_task_MP_exp2,2020.2.5,Win32,60,z,1,0.619,,,,,,,,0.619,1,,,,,,409,NW,UN,33,tunory,ELOPIA,z,,,,,,0.313802083,-0.00390625,0,0,0,,0,117,117,408,1,
,,,,,,,,,,,,,,,,,,5ee379c2c1832e050bac5c14,2020-11-27_15h09.13.302,lexical_decision_task_MP_exp2,2020.2.5,Win32,60,m,0,0.616,,,,,,,,0.616,0,,,,,,345,NW,"ID",16,absend,ABSEND,z,,,,,,0.313802083,-0.00390625,0,0,0,,0,118,118,344,1,
,,,,,,,,,,,,,,,,,,5ee379c2c1832e050bac5c14,2020-11-27_15h09.13.302,lexical_decision_task_MP_exp2,2020.2.5,Win32,60,m,1,0.598,,,,,,,,0.598,1,,,,,,106,WORD,"ID",16,ransom,RANSOM,m,,,,,,0.313802083,-0.00390625,0,0,0,,0,119,119,105,1,
,,,,,,,,,,,,,,,,,,5ee379c2c1832e050bac5c14,2020-11-27_15h09.13.302,lexical_decision_task_MP_exp2,2020.2.5,Win32,60,z,1,0.671,,,,,,,,0.671,1,,,,,,400,NW,UN,33,mustil,WEAROX,z,,,,,,0.313802083,-0.00390625,0,0,0,space,0,120,120,399,1,17.289
,,,,,,,,,,,,,,,,,,5ee379c2c1832e050bac5c14,2020-11-27_15h09.13.302,lexical_decision_task_MP_exp2,2020.2.5,Win32,60,z,1,0.556,,,,,,,,0.556,1,,,,,,347,NW,"ID",16,kerift,KERIFT,z,,,,,,0.313802083,-0.00390625,0,0,0,,0,121,121,346,1,
,,,,,,,,,,,,,,,,,,5ee379c2c1832e050bac5c14,2020-11-27_15h09.13.302,lexical_decision_task_MP_exp2,2020.2.5,Win32,60,m,1,0.667,,,,,,,,0.667,1,,,,,,35,WORD,"ID",33,socket,SOCKET,m,,,,,,0.313802083,-0.00390625,0,0,0,,0,122,122,34,1,
,,,,,,,,,,,,,,,,,,5ee379c2c1832e050bac5c14,2020-11-27_15h09.13.302,lexical_decision_task_MP_exp2,2020.2.5,Win32,60,z,1,0.585,,,,,,,,0.585,1,,,,,,410,NW,UN,33,orchin,TUNORY,z,,,,,,0.313802083,-0.00390625,0,0,0,,0,123,123,409,1,
,,,,,,,,,,,,,,,,,,5ee379c2c1832e050bac5c14,2020-11-27_15h09.13.302,lexical_decision_task_MP_exp2,2020.2.5,Win32,60,z,1,0.615,,,,,,,,0.615,1,,,,,,478,NW,UN,16,lobush,ACRISE,z,,,,,,0.313802083,-0.00390625,0,0,0,,0,124,124,477,1,
,,,,,,,,,,,,,,,,,,5ee379c2c1832e050bac5c14,2020-11-27_15h09.13.302,lexical_decision_task_MP_exp2,2020.2.5,Win32,60,z,1,0.684,,,,,,,,0.684,1,,,,,,435,NW,UN,16,frutan,IMPURB,z,,,,,,0.313802083,-0.00390625,0,0,0,,0,125,125,434,1,
,,,,,,,,,,,,,,,,,,5ee379c2c1832e050bac5c14,2020-11-27_15h09.13.302,lexical_decision_task_MP_exp2,2020.2.5,Win32,60,z,0,0.835,,,,,,,,0.835,0,,,,,,208,WORD,UN,16,search,HOCKEY,m,,,,,,0.313802083,-0.00390625,0,0,0,,0,126,126,207,1,
,,,,,,,,,,,,,,,,,,5ee379c2c1832e050bac5c14,2020-11-27_15h09.13.302,lexical_decision_task_MP_exp2,2020.2.5,Win32,60,z,0,0.609,,,,,,,,0.609,0,,,,,,139,WORD,UN,33,prince,DEBRIS,m,,,,,,0.313802083,-0.00390625,0,0,0,,0,127,127,138,1,
,,,,,,,,,,,,,,,,,,5ee379c2c1832e050bac5c14,2020-11-27_15h09.13.302,lexical_decision_task_MP_exp2,2020.2.5,Win32,60,z,1,0.563,,,,,,,,0.563,1,,,,,,343,NW,"ID",16,aimosy,AIMOSY,z,,,,,,0.313802083,-0.00390625,0,0,0,,0,128,128,342,1,
,,,,,,,,,,,,,,,,,,5ee379c2c1832e050bac5c14,2020-11-27_15h09.13.302,lexical_decision_task_MP_exp2,2020.2.5,Win32,60,z,1,0.609,,,,,,,,0.609,1,,,,,,388,NW,UN,33,witmer,CRAGIN,z,,,,,,0.313802083,-0.00390625,0,0,0,,0,129,129,387,1,
,,,,,,,,,,,,,,,,,,5ee379c2c1832e050bac5c14,2020-11-27_15h09.13.302,lexical_decision_task_MP_exp2,2020.2.5,Win32,60,z,1,0.591,,,,,,,,0.591,1,,,,,,320,NW,"ID",16,jockal,JOCKAL,z,,,,,,0.313802083,-0.00390625,0,0,0,,0,130,130,319,1,
,,,,,,,,,,,,,,,,,,5ee379c2c1832e050bac5c14,2020-11-27_15h09.13.302,lexical_decision_task_MP_exp2,2020.2.5,Win32,60,z,1,0.623,,,,,,,,0.623,1,,,,,,318,NW,"ID",16,reagly,REAGLY,z,,,,,,0.313802083,-0.00390625,0,0,0,,0,131,131,317,1,
,,,,,,,,,,,,,,,,,,5ee379c2c1832e050bac5c14,2020-11-27_15h09.13.302,lexical_decision_task_MP_exp2,2020.2.5,Win32,60,m,1,0.522,,,,,,,,0.522,1,,,,,,29,WORD,"ID",33,sketch,SKETCH,m,,,,,,0.313802083,-0.00390625,0,0,0,,0,132,132,28,1,
,,,,,,,,,,,,,,,,,,5ee379c2c1832e050bac5c14,2020-11-27_15h09.13.302,lexical_decision_task_MP_exp2,2020.2.5,Win32,60,z,1,0.556,,,,,,,,0.556,1,,,,,,339,NW,"ID",16,fachow,FACHOW,z,,,,,,0.313802083,-0.00390625,0,0,0,,0,133,133,338,1,
,,,,,,,,,,,,,,,,,,5ee379c2c1832e050bac5c14,2020-11-27_15h09.13.302,lexical_decision_task_MP_exp2,2020.2.5,Win32,60,m,1,0.583,,,,,,,,0.583,1,,,,,,201,WORD,UN,16,factor,ADMIRE,m,,,,,,0.313802083,-0.00390625,0,0,0,,0,134,134,200,1,
,,,,,,,,,,,,,,,,,,5ee379c2c1832e050bac5c14,2020-11-27_15h09.13.302,lexical_decision_task_MP_exp2,2020.2.5,Win32,60,m,1,0.62,,,,,,,,0.62,1,,,,,,91,WORD,"ID",16,expand,EXPAND,m,,,,,,0.313802083,-0.00390625,0,0,0,,0,135,135,90,1,
,,,,,,,,,,,,,,,,,,5ee379c2c1832e050bac5c14,2020-11-27_15h09.13.302,lexical_decision_task_MP_exp2,2020.2.5,Win32,60,m,1,0.675,,,,,,,,0.675,1,,,,,,4,WORD,"ID",33,trench,TRENCH,m,,,,,,0.313802083,-0.00390625,0,0,0,,0,136,136,3,1,
,,,,,,,,,,,,,,,,,,5ee379c2c1832e050bac5c14,2020-11-27_15h09.13.302,lexical_decision_task_MP_exp2,2020.2.5,Win32,60,m,1,0.593,,,,,,,,0.593,1,,,,,,28,WORD,"ID",33,comedy,COMEDY,m,,,,,,0.313802083,-0.00390625,0,0,0,,0,137,137,27,1,
,,,,,,,,,,,,,,,,,,5ee379c2c1832e050bac5c14,2020-11-27_15h09.13.302,lexical_decision_task_MP_exp2,2020.2.5,Win32,60,m,1,0.554,,,,,,,,0.554,1,,,,,,21,WORD,"ID",33,simple,SIMPLE,m,,,,,,0.313802083,-0.00390625,0,0,0,,0,138,138,20,1,
,,,,,,,,,,,,,,,,,,5ee379c2c1832e050bac5c14,2020-11-27_15h09.13.302,lexical_decision_task_MP_exp2,2020.2.5,Win32,60,m,1,0.714,,,,,,,,0.714,1,,,,,,107,WORD,"ID",16,slogan,SLOGAN,m,,,,,,0.313802083,-0.00390625,0,0,0,,0,139,139,106,1,
,,,,,,,,,,,,,,,,,,5ee379c2c1832e050bac5c14,2020-11-27_15h09.13.302,lexical_decision_task_MP_exp2,2020.2.5,Win32,60,z,0,0.737,,,,,,,,0.737,0,,,,,,124,WORD,UN,33,nickel,BLOUSE,m,,,,,,0.313802083,-0.00390625,0,0,0,,0,140,140,123,1,
,,,,,,,,,,,,,,,,,,5ee379c2c1832e050bac5c14,2020-11-27_15h09.13.302,lexical_decision_task_MP_exp2,2020.2.5,Win32,60,m,1,0.586,,,,,,,,0.586,1,,,,,,47,WORD,"ID",33,income,INCOME,m,,,,,,0.313802083,-0.00390625,0,0,0,,0,141,141,46,1,
,,,,,,,,,,,,,,,,,,5ee379c2c1832e050bac5c14,2020-11-27_15h09.13.302,lexical_decision_task_MP_exp2,2020.2.5,Win32,60,z,1,0.7,,,,,,,,0.7,1,,,,,,305,NW,"ID",16,forgle,FORGLE,z,,,,,,0.313802083,-0.00390625,0,0,0,,0,142,142,304,1,
,,,,,,,,,,,,,,,,,,5ee379c2c1832e050bac5c14,2020-11-27_15h09.13.302,lexical_decision_task_MP_exp2,2020.2.5,Win32,60,m,1,1.014,,,,,,,,1.014,1,,,,,,105,WORD,"ID",16,number,NUMBER,m,,,,,,0.313802083,-0.00390625,0,0,0,,0,143,143,104,1,
,,,,,,,,,,,,,,,,,,5ee379c2c1832e050bac5c14,2020-11-27_15h09.13.302,lexical_decision_task_MP_exp2,2020.2.5,Win32,60,z,1,1.023,,,,,,,,1.023,1,,,,,,402,NW,UN,33,bruats,SYNTIC,z,,,,,,0.313802083,-0.00390625,0,0,0,,0,144,144,401,1,
,,,,,,,,,,,,,,,,,,5ee379c2c1832e050bac5c14,2020-11-27_15h09.13.302,lexical_decision_task_MP_exp2,2020.2.5,Win32,60,m,1,0.771,,,,,,,,0.771,1,,,,,,138,WORD,UN,33,staple,MELODY,m,,,,,,0.313802083,-0.00390625,0,0,0,,0,145,145,137,1,
,,,,,,,,,,,,,,,,,,5ee379c2c1832e050bac5c14,2020-11-27_15h09.13.302,lexical_decision_task_MP_exp2,2020.2.5,Win32,60,z,1,0.632,,,,,,,,0.632,1,,,,,,298,NW,"ID",33,piergy,PIERGY,z,,,,,,0.313802083,-0.00390625,0,0,0,,0,146,146,297,1,
,,,,,,,,,,,,,,,,,,5ee379c2c1832e050bac5c14,2020-11-27_15h09.13.302,lexical_decision_task_MP_exp2,2020.2.5,Win32,60,z,1,0.739,,,,,,,,0.739,1,,,,,,452,NW,UN,16,bolvis,SURDEN,z,,,,,,0.313802083,-0.00390625,0,0,0,,0,147,147,451,1,
,,,,,,,,,,,,,,,,,,5ee379c2c1832e050bac5c14,2020-11-27_15h09.13.302,lexical_decision_task_MP_exp2,2020.2.5,Win32,60,m,1,0.624,,,,,,,,0.624,1,,,,,,164,WORD,UN,33,invest,MARKET,m,,,,,,0.313802083,-0.00390625,0,0,0,,0,148,148,163,1,
,,,,,,,,,,,,,,,,,,5ee379c2c1832e050bac5c14,2020-11-27_15h09.13.302,lexical_decision_task_MP_exp2,2020.2.5,Win32,60,z,1,0.602,,,,,,,,0.602,1,,,,,,464,NW,UN,16,whivex,CHAITE,z,,,,,,0.313802083,-0.00390625,0,0,0,,0,149,149,463,1,
,,,,,,,,,,,,,,,,,,5ee379c2c1832e050bac5c14,2020-11-27_15h09.13.302,lexical_decision_task_MP_exp2,2020.2.5,Win32,60,z,1,0.802,,,,,,,,0.802,1,,,,,,477,NW,UN,16,acrise,PHOTIE,z,,,,,,0.313802083,-0.00390625,0,0,0,,0,150,150,476,1,
,,,,,,,,,,,,,,,,,,5ee379c2c1832e050bac5c14,2020-11-27_15h09.13.302,lexical_decision_task_MP_exp2,2020.2.5,Win32,60,m,1,0.557,,,,,,,,0.557,1,,,,,,22,WORD,"ID",33,jockey,JOCKEY,m,,,,,,0.313802083,-0.00390625,0,0,0,,0,151,151,21,1,
,,,,,,,,,,,,,,,,,,5ee379c2c1832e050bac5c14,2020-11-27_15h09.13.302,lexical_decision_task_MP_exp2,2020.2.5,Win32,60,m,1,0.572,,,,,,,,0.572,1,,,,,,157,WORD,UN,33,island,DRAGON,m,,,,,,0.313802083,-0.00390625,0,0,0,,0,152,152,156,1,
,,,,,,,,,,,,,,,,,,5ee379c2c1832e050bac5c14,2020-11-27_15h09.13.302,lexical_decision_task_MP_exp2,2020.2.5,Win32,60,m,1,0.603,,,,,,,,0.603,1,,,,,,49,WORD,"ID",33,survey,SURVEY,m,,,,,,0.313802083,-0.00390625,0,0,0,,0,153,153,48,1,
,,,,,,,,,,,,,,,,,,5ee379c2c1832e050bac5c14,2020-11-27_15h09.13.302,lexical_decision_task_MP_exp2,2020.2.5,Win32,60,z,1,0.542,,,,,,,,0.542,1,,,,,,442,NW,UN,16,dorsex,ABOUNE,z,,,,,,0.313802083,-0.00390625,0,0,0,,0,154,154,441,1,
,,,,,,,,,,,,,,,,,,5ee379c2c1832e050bac5c14,2020-11-27_15h09.13.302,lexical_decision_task_MP_exp2,2020.2.5,Win32,60,m,1,0.505,,,,,,,,0.505,1,,,,,,57,WORD,"ID",33,change,CHANGE,m,,,,,,0.313802083,-0.00390625,0,0,0,,0,155,155,56,1,
,,,,,,,,,,,,,,,,,,5ee379c2c1832e050bac5c14,2020-11-27_15h09.13.302,lexical_decision_task_MP_exp2,2020.2.5,Win32,60,z,1,0.655,,,,,,,,0.655,1,,,,,,329,NW,"ID",16,yarike,YARIKE,z,,,,,,0.313802083,-0.00390625,0,0,0,,0,156,156,328,1,
,,,,,,,,,,,,,,,,,,5ee379c2c1832e050bac5c14,2020-11-27_15h09.13.302,lexical_decision_task_MP_exp2,2020.2.5,Win32,60,z,1,0.537,,,,,,,,0.537,1,,,,,,243,NW,"ID",33,musied,MUSIED,z,,,,,,0.313802083,-0.00390625,0,0,0,,0,157,157,242,1,
,,,,,,,,,,,,,,,,,,5ee379c2c1832e050bac5c14,2020-11-27_15h09.13.302,lexical_decision_task_MP_exp2,2020.2.5,Win32,60,z,1,0.651,,,,,,,,0.651,1,,,,,,395,NW,UN,33,flengy,COLURY,z,,,,,,0.313802083,-0.00390625,0,0,0,,0,158,158,394,1,
,,,,,,,,,,,,,,,,,,5ee379c2c1832e050bac5c14,2020-11-27_15h09.13.302,lexical_decision_task_MP_exp2,2020.2.5,Win32,60,z,1,0.626,,,,,,,,0.626,1,,,,,,289,NW,"ID",33,starby,STARBY,z,,,,,,0.313802083,-0.00390625,0,0,0,,0,159,159,288,1,
,,,,,,,,,,,,,,,,,,5ee379c2c1832e050bac5c14,2020-11-27_15h09.13.302,lexical_decision_task_MP_exp2,2020.2.5,Win32,60,z,1,0.617,,,,,,,,0.617,1,,,,,,458,NW,UN,16,chaite,BARCET,z,,,,,,0.313802083,-0.00390625,0,0,0,,0,160,160,457,1,
,,,,,,,,,,,,,,,,,,5ee379c2c1832e050bac5c14,2020-11-27_15h09.13.302,lexical_decision_task_MP_exp2,2020.2.5,Win32,60,m,1,0.603,,,,,,,,0.603,1,,,,,,56,WORD,"ID",33,ambush,AMBUSH,m,,,,,,0.313802083,-0.00390625,0,0,0,,0,161,161,55,1,
,,,,,,,,,,,,,,,,,,5ee379c2c1832e050bac5c14,2020-11-27_15h09.13.302,lexical_decision_task_MP_exp2,2020.2.5,Win32,60,z,0,0.585,,,,,,,,0.585,0,,,,,,225,WORD,UN,16,kidney,VULGAR,m,,,,,,0.313802083,-0.00390625,0,0,0,,0,162,162,224,1,
,,,,,,,,,,,,,,,,,,5ee379c2c1832e050bac5c14,2020-11-27_15h09.13.302,lexical_decision_task_MP_exp2,2020.2.5,Win32,60,m,1,0.953,,,,,,,,0.953,1,,,,,,108,WORD,"ID",16,reckon,RECKON,m,,,,,,0.313802083,-0.00390625,0,0,0,,0,163,163,107,1,
,,,,,,,,,,,,,,,,,,5ee379c2c1832e050bac5c14,2020-11-27_15h09.13.302,lexical_decision_task_MP_exp2,2020.2.5,Win32,60,m,1,0.593,,,,,,,,0.593,1,,,,,,233,WORD,UN,16,clumsy,NATURE,m,,,,,,0.313802083,-0.00390625,0,0,0,,0,164,164,232,1,
,,,,,,,,,,,,,,,,,,5ee379c2c1832e050bac5c14,2020-11-27_15h09.13.302,lexical_decision_task_MP_exp2,2020.2.5,Win32,60,z,1,0.57,,,,,,,,0.57,1,,,,,,368,NW,UN,33,wronch,HORNAL,z,,,,,,0.313802083,-0.00390625,0,0,0,,0,165,165,367,1,
,,,,,,,,,,,,,,,,,,5ee379c2c1832e050bac5c14,2020-11-27_15h09.13.302,lexical_decision_task_MP_exp2,2020.2.5,Win32,60,z,1,0.552,,,,,,,,0.552,1,,,,,,394,NW,UN,33,colury,SPAQUX,z,,,,,,0.313802083,-0.00390625,0,0,0,,0,166,166,393,1,
,,,,,,,,,,,,,,,,,,5ee379c2c1832e050bac5c14,2020-11-27_15h09.13.302,lexical_decision_task_MP_exp2,2020.2.5,Win32,60,z,1,0.656,,,,,,,,0.656,1,,,,,,275,NW,"ID",33,sleirt,SLEIRT,z,,,,,,0.313802083,-0.00390625,0,0,0,,0,167,167,274,1,
,,,,,,,,,,,,,,,,,,5ee379c2c1832e050bac5c14,2020-11-27_15h09.13.302,lexical_decision_task_MP_exp2,2020.2.5,Win32,60,z,1,0.903,,,,,,,,0.903,1,,,,,,285,NW,"ID",33,prudge,PRUDGE,z,,,,,,0.313802083,-0.00390625,0,0,0,,0,168,168,284,1,
,,,,,,,,,,,,,,,,,,5ee379c2c1832e050bac5c14,2020-11-27_15h09.13.302,lexical_decision_task_MP_exp2,2020.2.5,Win32,60,z,1,0.667,,,,,,,,0.667,1,,,,,,404,NW,UN,33,syntic,CLUIRM,z,,,,,,0.313802083,-0.00390625,0,0,0,,0,169,169,403,1,
,,,,,,,,,,,,,,,,,,5ee379c2c1832e050bac5c14,2020-11-27_15h09.13.302,lexical_decision_task_MP_exp2,2020.2.5,Win32,60,m,1,0.582,,,,,,,,0.582,1,,,,,,116,WORD,"ID",16,tumble,TUMBLE,m,,,,,,0.313802083,-0.00390625,0,0,0,,0,170,170,115,1,
,,,,,,,,,,,,,,,,,,5ee379c2c1832e050bac5c14,2020-11-27_15h09.13.302,lexical_decision_task_MP_exp2,2020.2.5,Win32,60,z,1,0.666,,,,,,,,0.666,1,,,,,,398,NW,UN,33,fouret,BLUNDE,z,,,,,,0.313802083,-0.00390625,0,0,0,,0,171,171,397,1,
,,,,,,,,,,,,,,,,,,5ee379c2c1832e050bac5c14,2020-11-27_15h09.13.302,lexical_decision_task_MP_exp2,2020.2.5,Win32,60,m,1,0.606,,,,,,,,0.606,1,,,,,,143,WORD,UN,33,sponge,REASON,m,,,,,,0.313802083,-0.00390625,0,0,0,,0,172,172,142,1,
,,,,,,,,,,,,,,,,,,5ee379c2c1832e050bac5c14,2020-11-27_15h09.13.302,lexical_decision_task_MP_exp2,2020.2.5,Win32,60,z,1,0.602,,,,,,,,0.602,1,,,,,,376,NW,UN,33,sliant,IGUARE,z,,,,,,0.313802083,-0.00390625,0,0,0,,0,173,173,375,1,
,,,,,,,,,,,,,,,,,,5ee379c2c1832e050bac5c14,2020-11-27_15h09.13.302,lexical_decision_task_MP_exp2,2020.2.5,Win32,60,z,1,0.577,,,,,,,,0.577,1,,,,,,333,NW,"ID",16,catrie,CATRIE,z,,,,,,0.313802083,-0.00390625,0,0,0,,0,174,174,332,1,
,,,,,,,,,,,,,,,,,,5ee379c2c1832e050bac5c14,2020-11-27_15h09.13.302,lexical_decision_task_MP_exp2,2020.2.5,Win32,60,z,1,0.585,,,,,,,,0.585,1,,,,,,308,NW,"ID",16,psetch,PSETCH,z,,,,,,0.313802083,-0.00390625,0,0,0,,0,175,175,307,1,
,,,,,,,,,,,,,,,,,,5ee379c2c1832e050bac5c14,2020-11-27_15h09.13.302,lexical_decision_task_MP_exp2,2020.2.5,Win32,60,z,0,0.583,,,,,,,,0.583,0,,,,,,122,WORD,UN,33,strike,LINGER,m,,,,,,0.313802083,-0.00390625,0,0,0,,0,176,176,121,1,
,,,,,,,,,,,,,,,,,,5ee379c2c1832e050bac5c14,2020-11-27_15h09.13.302,lexical_decision_task_MP_exp2,2020.2.5,Win32,60,m,1,0.603,,,,,,,,0.603,1,,,,,,67,WORD,"ID",16,policy,POLICY,m,,,,,,0.313802083,-0.00390625,0,0,0,,0,177,177,66,1,
,,,,,,,,,,,,,,,,,,5ee379c2c1832e050bac5c14,2020-11-27_15h09.13.302,lexical_decision_task_MP_exp2,2020.2.5,Win32,60,z,1,0.609,,,,,,,,0.609,1,,,,,,407,NW,UN,33,hurnia,SUIVER,z,,,,,,0.313802083,-0.00390625,0,0,0,,0,178,178,406,1,
,,,,,,,,,,,,,,,,,,5ee379c2c1832e050bac5c14,2020-11-27_15h09.13.302,lexical_decision_task_MP_exp2,2020.2.5,Win32,60,m,1,0.497,,,,,,,,0.497,1,,,,,,173,WORD,UN,33,turkey,SHOWER,m,,,,,,0.313802083,-0.00390625,0,0,0,,0,179,179,172,1,
,,,,,,,,,,,,,,,,,,5ee379c2c1832e050bac5c14,2020-11-27_15h09.13.302,lexical_decision_task_MP_exp2,2020.2.5,Win32,60,m,1,0.543,,,,,,,,0.543,1,,,,,,1,WORD,"ID",33,fright,FRIGHT,m,,,,,,0.313802083,-0.00390625,0,0,0,,0,180,180,0,1,
,,,,,,,,,,,,,,,,,,5ee379c2c1832e050bac5c14,2020-11-27_15h09.13.302,lexical_decision_task_MP_exp2,2020.2.5,Win32,60,z,1,0.872,,,,,,,,0.872,1,,,,,,342,NW,"ID",16,randow,RANDOW,z,,,,,,0.313802083,-0.00390625,0,0,0,,0,181,181,341,1,
,,,,,,,,,,,,,,,,,,5ee379c2c1832e050bac5c14,2020-11-27_15h09.13.302,lexical_decision_task_MP_exp2,2020.2.5,Win32,60,m,1,0.774,,,,,,,,0.774,1,,,,,,212,WORD,UN,16,squeal,VERIFY,m,,,,,,0.313802083,-0.00390625,0,0,0,,0,182,182,211,1,
,,,,,,,,,,,,,,,,,,5ee379c2c1832e050bac5c14,2020-11-27_15h09.13.302,lexical_decision_task_MP_exp2,2020.2.5,Win32,60,m,1,0.902,,,,,,,,0.902,1,,,,,,227,WORD,UN,16,master,SELDOM,m,,,,,,0.313802083,-0.00390625,0,0,0,,0,183,183,226,1,
,,,,,,,,,,,,,,,,,,5ee379c2c1832e050bac5c14,2020-11-27_15h09.13.302,lexical_decision_task_MP_exp2,2020.2.5,Win32,60,z,1,0.735,,,,,,,,0.735,1,,,,,,241,NW,"ID",33,smenco,SMENCO,z,,,,,,0.313802083,-0.00390625,0,0,0,,0,184,184,240,1,
,,,,,,,,,,,,,,,,,,5ee379c2c1832e050bac5c14,2020-11-27_15h09.13.302,lexical_decision_task_MP_exp2,2020.2.5,Win32,60,z,1,1.586,,,,,,,,1.586,1,,,,,,314,NW,"ID",16,sprine,SPRINE,z,,,,,,0.313802083,-0.00390625,0,0,0,,0,185,185,313,1,
,,,,,,,,,,,,,,,,,,5ee379c2c1832e050bac5c14,2020-11-27_15h09.13.302,lexical_decision_task_MP_exp2,2020.2.5,Win32,60,m,1,1.436,,,,,,,,1.436,1,,,,,,234,WORD,UN,16,lumber,CLUMSY,m,,,,,,0.313802083,-0.00390625,0,0,0,,0,186,186,233,1,
,,,,,,,,,,,,,,,,,,5ee379c2c1832e050bac5c14,2020-11-27_15h09.13.302,lexical_decision_task_MP_exp2,2020.2.5,Win32,60,m,1,0.788,,,,,,,,0.788,1,,,,,,14,WORD,"ID",33,almost,ALMOST,m,,,,,,0.313802083,-0.00390625,0,0,0,,0,187,187,13,1,
,,,,,,,,,,,,,,,,,,5ee379c2c1832e050bac5c14,2020-11-27_15h09.13.302,lexical_decision_task_MP_exp2,2020.2.5,Win32,60,,0,,,,,,,,,0.788,-1,,,,,,348,NW,"ID",16,dumple,DUMPLE,z,,,,,,0.313802083,-0.00390625,0,0,0,,0,188,188,347,1,
,,,,,,,,,,,,,,,,,,5ee379c2c1832e050bac5c14,2020-11-27_15h09.13.302,lexical_decision_task_MP_exp2,2020.2.5,Win32,60,z,1,0.686,,,,,,,,0.686,1,,,,,,430,NW,UN,16,funtle,CAROEY,z,,,,,,0.313802083,-0.00390625,0,0,0,,0,189,189,429,1,
,,,,,,,,,,,,,,,,,,5ee379c2c1832e050bac5c14,2020-11-27_15h09.13.302,lexical_decision_task_MP_exp2,2020.2.5,Win32,60,z,1,0.818,,,,,,,,0.818,1,,,,,,288,NW,"ID",33,yaceup,YACEUP,z,,,,,,0.313802083,-0.00390625,0,0,0,,0,190,190,287,1,
,,,,,,,,,,,,,,,,,,5ee379c2c1832e050bac5c14,2020-11-27_15h09.13.302,lexical_decision_task_MP_exp2,2020.2.5,Win32,60,z,1,0.921,,,,,,,,0.921,1,,,,,,258,NW,"ID",33,poluth,POLUTH,z,,,,,,0.313802083,-0.00390625,0,0,0,,0,191,191,257,1,
,,,,,,,,,,,,,,,,,,5ee379c2c1832e050bac5c14,2020-11-27_15h09.13.302,lexical_decision_task_MP_exp2,2020.2.5,Win32,60,m,1,0.867,,,,,,,,0.867,1,,,,,,151,WORD,UN,33,rocket,MYSTIC,m,,,,,,0.313802083,-0.00390625,0,0,0,,0,192,192,150,1,
,,,,,,,,,,,,,,,,,,5ee379c2c1832e050bac5c14,2020-11-27_15h09.13.302,lexical_decision_task_MP_exp2,2020.2.5,Win32,60,m,1,0.787,,,,,,,,0.787,1,,,,,,95,WORD,"ID",16,thread,THREAD,m,,,,,,0.313802083,-0.00390625,0,0,0,,0,193,193,94,1,
,,,,,,,,,,,,,,,,,,5ee379c2c1832e050bac5c14,2020-11-27_15h09.13.302,lexical_decision_task_MP_exp2,2020.2.5,Win32,60,z,0,0.684,,,,,,,,0.684,0,,,,,,183,WORD,UN,16,sleazy,MILDEW,m,,,,,,0.313802083,-0.00390625,0,0,0,,0,194,194,182,1,
,,,,,,,,,,,,,,,,,,5ee379c2c1832e050bac5c14,2020-11-27_15h09.13.302,lexical_decision_task_MP_exp2,2020.2.5,Win32,60,z,1,0.844,,,,,,,,0.844,1,,,,,,331,NW,"ID",16,gilfew,GILFEW,z,,,,,,0.313802083,-0.00390625,0,0,0,,0,195,195,330,1,
,,,,,,,,,,,,,,,,,,5ee379c2c1832e050bac5c14,2020-11-27_15h09.13.302,lexical_decision_task_MP_exp2,2020.2.5,Win32,60,z,1,0.734,,,,,,,,0.734,1,,,,,,379,NW,UN,33,cavory,AUTING,z,,,,,,0.313802083,-0.00390625,0,0,0,,0,196,196,378,1,
,,,,,,,,,,,,,,,,,,5ee379c2c1832e050bac5c14,2020-11-27_15h09.13.302,lexical_decision_task_MP_exp2,2020.2.5,Win32,60,m,1,0.668,,,,,,,,0.668,1,,,,,,19,WORD,"ID",33,patron,PATRON,m,,,,,,0.313802083,-0.00390625,0,0,0,,0,197,197,18,1,
,,,,,,,,,,,,,,,,,,5ee379c2c1832e050bac5c14,2020-11-27_15h09.13.302,lexical_decision_task_MP_exp2,2020.2.5,Win32,60,z,1,0.518,,,,,,,,0.518,1,,,,,,375,NW,UN,33,iguare,YORQUE,z,,,,,,0.313802083,-0.00390625,0,0,0,,0,198,198,374,1,
,,,,,,,,,,,,,,,,,,5ee379c2c1832e050bac5c14,2020-11-27_15h09.13.302,lexical_decision_task_MP_exp2,2020.2.5,Win32,60,m,1,0.803,,,,,,,,0.803,1,,,,,,211,WORD,UN,16,verify,INFECT,m,,,,,,0.313802083,-0.00390625,0,0,0,,0,199,199,210,1,
,,,,,,,,,,,,,,,,,,5ee379c2c1832e050bac5c14,2020-11-27_15h09.13.302,lexical_decision_task_MP_exp2,2020.2.5,Win32,60,m,1,0.738,,,,,,,,0.738,1,,,,,,161,WORD,UN,33,candle,PASTOR,m,,,,,,0.313802083,-0.00390625,0,0,0,,0,200,200,160,1,
,,,,,,,,,,,,,,,,,,5ee379c2c1832e050bac5c14,2020-11-27_15h09.13.302,lexical_decision_task_MP_exp2,2020.2.5,Win32,60,z,1,0.655,,,,,,,,0.655,1,,,,,,361,NW,UN,33,tireau,PAUCHE,z,,,,,,0.313802083,-0.00390625,0,0,0,,0,201,201,360,1,
,,,,,,,,,,,,,,,,,,5ee379c2c1832e050bac5c14,2020-11-27_15h09.13.302,lexical_decision_task_MP_exp2,2020.2.5,Win32,60,z,1,0.634,,,,,,,,0.634,1,,,,,,263,NW,"ID",33,dolica,DOLICA,z,,,,,,0.313802083,-0.00390625,0,0,0,,0,202,202,262,1,
,,,,,,,,,,,,,,,,,,5ee379c2c1832e050bac5c14,2020-11-27_15h09.13.302,lexical_decision_task_MP_exp2,2020.2.5,Win32,60,z,1,0.669,,,,,,,,0.669,1,,,,,,277,NW,"ID",33,petain,PETAIN,z,,,,,,0.313802083,-0.00390625,0,0,0,,0,203,203,276,1,
,,,,,,,,,,,,,,,,,,5ee379c2c1832e050bac5c14,2020-11-27_15h09.13.302,lexical_decision_task_MP_exp2,2020.2.5,Win32,60,z,1,0.534,,,,,,,,0.534,1,,,,,,272,NW,"ID",33,damilt,DAMILT,z,,,,,,0.313802083,-0.00390625,0,0,0,,0,204,204,271,1,
,,,,,,,,,,,,,,,,,,5ee379c2c1832e050bac5c14,2020-11-27_15h09.13.302,lexical_decision_task_MP_exp2,2020.2.5,Win32,60,z,1,0.743,,,,,,,,0.743,1,,,,,,242,NW,"ID",33,unwert,UNWERT,z,,,,,,0.313802083,-0.00390625,0,0,0,,0,205,205,241,1,
,,,,,,,,,,,,,,,,,,5ee379c2c1832e050bac5c14,2020-11-27_15h09.13.302,lexical_decision_task_MP_exp2,2020.2.5,Win32,60,m,1,0.887,,,,,,,,0.887,1,,,,,,50,WORD,"ID",33,snatch,SNATCH,m,,,,,,0.313802083,-0.00390625,0,0,0,,0,206,206,49,1,
,,,,,,,,,,,,,,,,,,5ee379c2c1832e050bac5c14,2020-11-27_15h09.13.302,lexical_decision_task_MP_exp2,2020.2.5,Win32,60,m,1,0.836,,,,,,,,0.836,1,,,,,,163,WORD,UN,33,market,STRING,m,,,,,,0.313802083,-0.00390625,0,0,0,,0,207,207,162,1,
,,,,,,,,,,,,,,,,,,5ee379c2c1832e050bac5c14,2020-11-27_15h09.13.302,lexical_decision_task_MP_exp2,2020.2.5,Win32,60,z,1,0.683,,,,,,,,0.683,1,,,,,,447,NW,UN,16,sadent,GIRCUE,z,,,,,,0.313802083,-0.00390625,0,0,0,,0,208,208,446,1,
,,,,,,,,,,,,,,,,,,5ee379c2c1832e050bac5c14,2020-11-27_15h09.13.302,lexical_decision_task_MP_exp2,2020.2.5,Win32,60,m,1,0.759,,,,,,,,0.759,1,,,,,,55,WORD,"ID",33,stroke,STROKE,m,,,,,,0.313802083,-0.00390625,0,0,0,,0,209,209,54,1,
,,,,,,,,,,,,,,,,,,5ee379c2c1832e050bac5c14,2020-11-27_15h09.13.302,lexical_decision_task_MP_exp2,2020.2.5,Win32,60,m,1,0.586,,,,,,,,0.586,1,,,,,,213,WORD,UN,16,intake,SQUEAL,m,,,,,,0.313802083,-0.00390625,0,0,0,,0,210,210,212,1,
,,,,,,,,,,,,,,,,,,5ee379c2c1832e050bac5c14,2020-11-27_15h09.13.302,lexical_decision_task_MP_exp2,2020.2.5,Win32,60,m,1,0.769,,,,,,,,0.769,1,,,,,,86,WORD,"ID",16,rodent,RODENT,m,,,,,,0.313802083,-0.00390625,0,0,0,,0,211,211,85,1,
,,,,,,,,,,,,,,,,,,5ee379c2c1832e050bac5c14,2020-11-27_15h09.13.302,lexical_decision_task_MP_exp2,2020.2.5,Win32,60,m,1,0.589,,,,,,,,0.589,1,,,,,,206,WORD,UN,16,wreath,TAILOR,m,,,,,,0.313802083,-0.00390625,0,0,0,,0,212,212,205,1,
,,,,,,,,,,,,,,,,,,5ee379c2c1832e050bac5c14,2020-11-27_15h09.13.302,lexical_decision_task_MP_exp2,2020.2.5,Win32,60,z,1,0.907,,,,,,,,0.907,1,,,,,,453,NW,UN,16,scouge,BOLVIS,z,,,,,,0.313802083,-0.00390625,0,0,0,,0,213,213,452,1,
,,,,,,,,,,,,,,,,,,5ee379c2c1832e050bac5c14,2020-11-27_15h09.13.302,lexical_decision_task_MP_exp2,2020.2.5,Win32,60,m,1,0.99,,,,,,,,0.99,1,,,,,,52,WORD,"ID",33,impose,IMPOSE,m,,,,,,0.313802083,-0.00390625,0,0,0,,0,214,214,51,1,
,,,,,,,,,,,,,,,,,,5ee379c2c1832e050bac5c14,2020-11-27_15h09.13.302,lexical_decision_task_MP_exp2,2020.2.5,Win32,60,z,1,1.344,,,,,,,,1.344,1,,,,,,303,NW,"ID",16,fiream,FIREAM,z,,,,,,0.313802083,-0.00390625,0,0,0,,0,215,215,302,1,
,,,,,,,,,,,,,,,,,,5ee379c2c1832e050bac5c14,2020-11-27_15h09.13.302,lexical_decision_task_MP_exp2,2020.2.5,Win32,60,m,1,0.641,,,,,,,,0.641,1,,,,,,179,WORD,UN,33,silent,BASKET,m,,,,,,0.313802083,-0.00390625,0,0,0,,0,216,216,178,1,
,,,,,,,,,,,,,,,,,,5ee379c2c1832e050bac5c14,2020-11-27_15h09.13.302,lexical_decision_task_MP_exp2,2020.2.5,Win32,60,z,1,0.677,,,,,,,,0.677,1,,,,,,362,NW,UN,33,breali,TIREAU,z,,,,,,0.313802083,-0.00390625,0,0,0,,0,217,217,361,1,
,,,,,,,,,,,,,,,,,,5ee379c2c1832e050bac5c14,2020-11-27_15h09.13.302,lexical_decision_task_MP_exp2,2020.2.5,Win32,60,m,1,0.609,,,,,,,,0.609,1,,,,,,15,WORD,"ID",33,amount,AMOUNT,m,,,,,,0.313802083,-0.00390625,0,0,0,,0,218,218,14,1,
,,,,,,,,,,,,,,,,,,5ee379c2c1832e050bac5c14,2020-11-27_15h09.13.302,lexical_decision_task_MP_exp2,2020.2.5,Win32,60,m,1,0.767,,,,,,,,0.767,1,,,,,,82,WORD,"ID",16,stigma,STIGMA,m,,,,,,0.313802083,-0.00390625,0,0,0,,0,219,219,81,1,
,,,,,,,,,,,,,,,,,,5ee379c2c1832e050bac5c14,2020-11-27_15h09.13.302,lexical_decision_task_MP_exp2,2020.2.5,Win32,60,m,1,1.104,,,,,,,,1.104,1,,,,,,63,WORD,"ID",16,launch,LAUNCH,m,,,,,,0.313802083,-0.00390625,0,0,0,,0,220,220,62,1,
,,,,,,,,,,,,,,,,,,5ee379c2c1832e050bac5c14,2020-11-27_15h09.13.302,lexical_decision_task_MP_exp2,2020.2.5,Win32,60,m,1,0.553,,,,,,,,0.553,1,,,,,,37,WORD,"ID",33,insult,INSULT,m,,,,,,0.313802083,-0.00390625,0,0,0,,0,221,221,36,1,
,,,,,,,,,,,,,,,,,,5ee379c2c1832e050bac5c14,2020-11-27_15h09.13.302,lexical_decision_task_MP_exp2,2020.2.5,Win32,60,m,1,0.586,,,,,,,,0.586,1,,,,,,5,WORD,"ID",33,plunge,PLUNGE,m,,,,,,0.313802083,-0.00390625,0,0,0,,0,222,222,4,1,
,,,,,,,,,,,,,,,,,,5ee379c2c1832e050bac5c14,2020-11-27_15h09.13.302,lexical_decision_task_MP_exp2,2020.2.5,Win32,60,m,1,0.51,,,,,,,,0.51,1,,,,,,238,WORD,UN,16,grumpy,FLOWER,m,,,,,,0.313802083,-0.00390625,0,0,0,,0,223,223,237,1,
,,,,,,,,,,,,,,,,,,5ee379c2c1832e050bac5c14,2020-11-27_15h09.13.302,lexical_decision_task_MP_exp2,2020.2.5,Win32,60,z,1,0.601,,,,,,,,0.601,1,,,,,,245,NW,"ID",33,anougs,ANOUGS,z,,,,,,0.313802083,-0.00390625,0,0,0,,0,224,224,244,1,
,,,,,,,,,,,,,,,,,,5ee379c2c1832e050bac5c14,2020-11-27_15h09.13.302,lexical_decision_task_MP_exp2,2020.2.5,Win32,60,z,1,0.717,,,,,,,,0.717,1,,,,,,480,NW,UN,16,knisma,ROBULY,z,,,,,,0.313802083,-0.00390625,0,0,0,,0,225,225,479,1,
,,,,,,,,,,,,,,,,,,5ee379c2c1832e050bac5c14,2020-11-27_15h09.13.302,lexical_decision_task_MP_exp2,2020.2.5,Win32,60,m,1,0.635,,,,,,,,0.635,1,,,,,,147,WORD,UN,33,custom,GARLIC,m,,,,,,0.313802083,-0.00390625,0,0,0,,0,226,226,146,1,
,,,,,,,,,,,,,,,,,,5ee379c2c1832e050bac5c14,2020-11-27_15h09.13.302,lexical_decision_task_MP_exp2,2020.2.5,Win32,60,m,1,0.669,,,,,,,,0.669,1,,,,,,184,WORD,UN,16,bother,SLEAZY,m,,,,,,0.313802083,-0.00390625,0,0,0,,0,227,227,183,1,
,,,,,,,,,,,,,,,,,,5ee379c2c1832e050bac5c14,2020-11-27_15h09.13.302,lexical_decision_task_MP_exp2,2020.2.5,Win32,60,z,1,0.703,,,,,,,,0.703,1,,,,,,387,NW,UN,33,cragin,GRONCE,z,,,,,,0.313802083,-0.00390625,0,0,0,,0,228,228,386,1,
,,,,,,,,,,,,,,,,,,5ee379c2c1832e050bac5c14,2020-11-27_15h09.13.302,lexical_decision_task_MP_exp2,2020.2.5,Win32,60,m,1,0.727,,,,,,,,0.727,1,,,,,,48,WORD,"ID",33,walnut,WALNUT,m,,,,,,0.313802083,-0.00390625,0,0,0,,0,229,229,47,1,
,,,,,,,,,,,,,,,,,,5ee379c2c1832e050bac5c14,2020-11-27_15h09.13.302,lexical_decision_task_MP_exp2,2020.2.5,Win32,60,z,1,0.684,,,,,,,,0.684,1,,,,,,440,NW,UN,16,cainky,SARIDE,z,,,,,,0.313802083,-0.00390625,0,0,0,,0,230,230,439,1,
,,,,,,,,,,,,,,,,,,5ee379c2c1832e050bac5c14,2020-11-27_15h09.13.302,lexical_decision_task_MP_exp2,2020.2.5,Win32,60,m,1,0.902,,,,,,,,0.902,1,,,,,,144,WORD,UN,33,parish,SPONGE,m,,,,,,0.313802083,-0.00390625,0,0,0,,0,231,231,143,1,
,,,,,,,,,,,,,,,,,,5ee379c2c1832e050bac5c14,2020-11-27_15h09.13.302,lexical_decision_task_MP_exp2,2020.2.5,Win32,60,z,1,0.569,,,,,,,,0.569,1,,,,,,420,NW,UN,33,pauche,GUSHOP,z,,,,,,0.313802083,-0.00390625,0,0,0,,0,232,232,419,1,
,,,,,,,,,,,,,,,,,,5ee379c2c1832e050bac5c14,2020-11-27_15h09.13.302,lexical_decision_task_MP_exp2,2020.2.5,Win32,60,m,1,0.559,,,,,,,,0.559,1,,,,,,69,WORD,"ID",16,plenty,PLENTY,m,,,,,,0.313802083,-0.00390625,0,0,0,,0,233,233,68,1,
,,,,,,,,,,,,,,,,,,5ee379c2c1832e050bac5c14,2020-11-27_15h09.13.302,lexical_decision_task_MP_exp2,2020.2.5,Win32,60,z,1,0.621,,,,,,,,0.621,1,,,,,,307,NW,"ID",16,kirafe,KIRAFE,z,,,,,,0.313802083,-0.00390625,0,0,0,,0,234,234,306,1,
,,,,,,,,,,,,,,,,,,5ee379c2c1832e050bac5c14,2020-11-27_15h09.13.302,lexical_decision_task_MP_exp2,2020.2.5,Win32,60,m,1,0.602,,,,,,,,0.602,1,,,,,,228,WORD,UN,16,inject,MASTER,m,,,,,,0.313802083,-0.00390625,0,0,0,,0,235,235,227,1,
,,,,,,,,,,,,,,,,,,5ee379c2c1832e050bac5c14,2020-11-27_15h09.13.302,lexical_decision_task_MP_exp2,2020.2.5,Win32,60,z,1,0.585,,,,,,,,0.585,1,,,,,,286,NW,"ID",33,reldon,RELDON,z,,,,,,0.313802083,-0.00390625,0,0,0,,0,236,236,285,1,
,,,,,,,,,,,,,,,,,,5ee379c2c1832e050bac5c14,2020-11-27_15h09.13.302,lexical_decision_task_MP_exp2,2020.2.5,Win32,60,m,1,0.818,,,,,,,,0.818,1,,,,,,42,WORD,"ID",33,chapel,CHAPEL,m,,,,,,0.313802083,-0.00390625,0,0,0,,0,237,237,41,1,
,,,,,,,,,,,,,,,,,,5ee379c2c1832e050bac5c14,2020-11-27_15h09.13.302,lexical_decision_task_MP_exp2,2020.2.5,Win32,60,m,1,0.602,,,,,,,,0.602,1,,,,,,73,WORD,"ID",16,source,SOURCE,m,,,,,,0.313802083,-0.00390625,0,0,0,,0,238,238,72,1,
,,,,,,,,,,,,,,,,,,5ee379c2c1832e050bac5c14,2020-11-27_15h09.13.302,lexical_decision_task_MP_exp2,2020.2.5,Win32,60,z,1,0.687,,,,,,,,0.687,1,,,,,,369,NW,UN,33,sleact,WRONCH,z,,,,,,0.313802083,-0.00390625,0,0,0,,0,239,239,368,1,
,,,,,,,,,,,,,,,,,,5ee379c2c1832e050bac5c14,2020-11-27_15h09.13.302,lexical_decision_task_MP_exp2,2020.2.5,Win32,60,m,1,0.567,,,,,,,,0.567,1,,,,,,17,WORD,"ID",33,charge,CHARGE,m,,,,,,0.313802083,-0.00390625,0,0,0,,0,240,240,16,1,
,,,,,,,,,,,,,,,,,,5ee379c2c1832e050bac5c14,2020-11-27_15h09.13.302,lexical_decision_task_MP_exp2,2020.2.5,Win32,60,z,1,0.585,,,,,,,,0.585,1,,,,,,334,NW,"ID",16,watmeg,WATMEG,z,,,,,,0.313802083,-0.00390625,0,0,0,space,0,241,241,333,1,1.508
,,,,,,,,,,,,,,,,,,5ee379c2c1832e050bac5c14,2020-11-27_15h09.13.302,lexical_decision_task_MP_exp2,2020.2.5,Win32,60,m,1,0.836,,,,,,,,0.836,1,,,,,,154,WORD,UN,33,lizard,AUTHOR,m,,,,,,0.313802083,-0.00390625,0,0,0,,0,242,242,153,1,
,,,,,,,,,,,,,,,,,,5ee379c2c1832e050bac5c14,2020-11-27_15h09.13.302,lexical_decision_task_MP_exp2,2020.2.5,Win32,60,z,1,0.534,,,,,,,,0.534,1,,,,,,349,NW,"ID",16,asylen,ASYLEN,z,,,,,,0.313802083,-0.00390625,0,0,0,,0,243,243,348,1,
,,,,,,,,,,,,,,,,,,5ee379c2c1832e050bac5c14,2020-11-27_15h09.13.302,lexical_decision_task_MP_exp2,2020.2.5,Win32,60,z,1,0.605,,,,,,,,0.605,1,,,,,,290,NW,"ID",33,splino,SPLINO,z,,,,,,0.313802083,-0.00390625,0,0,0,,0,244,244,289,1,
,,,,,,,,,,,,,,,,,,5ee379c2c1832e050bac5c14,2020-11-27_15h09.13.302,lexical_decision_task_MP_exp2,2020.2.5,Win32,60,z,1,0.62,,,,,,,,0.62,1,,,,,,463,NW,UN,16,bafent,KISPEL,z,,,,,,0.313802083,-0.00390625,0,0,0,,0,245,245,462,1,
,,,,,,,,,,,,,,,,,,5ee379c2c1832e050bac5c14,2020-11-27_15h09.13.302,lexical_decision_task_MP_exp2,2020.2.5,Win32,60,z,1,0.718,,,,,,,,0.718,1,,,,,,360,NW,"ID",16,desory,DESORY,z,,,,,,0.313802083,-0.00390625,0,0,0,,0,246,246,359,1,
,,,,,,,,,,,,,,,,,,5ee379c2c1832e050bac5c14,2020-11-27_15h09.13.302,lexical_decision_task_MP_exp2,2020.2.5,Win32,60,z,1,0.625,,,,,,,,0.625,1,,,,,,317,NW,"ID",16,worbal,WORBAL,z,,,,,,0.313802083,-0.00390625,0,0,0,,0,247,247,316,1,
,,,,,,,,,,,,,,,,,,5ee379c2c1832e050bac5c14,2020-11-27_15h09.13.302,lexical_decision_task_MP_exp2,2020.2.5,Win32,60,z,1,0.668,,,,,,,,0.668,1,,,,,,476,NW,UN,16,photie,JOSTED,z,,,,,,0.313802083,-0.00390625,0,0,0,,0,248,248,475,1,
,,,,,,,,,,,,,,,,,,5ee379c2c1832e050bac5c14,2020-11-27_15h09.13.302,lexical_decision_task_MP_exp2,2020.2.5,Win32,60,m,1,0.52,,,,,,,,0.52,1,,,,,,25,WORD,"ID",33,domain,DOMAIN,m,,,,,,0.313802083,-0.00390625,0,0,0,,0,249,249,24,1,
,,,,,,,,,,,,,,,,,,5ee379c2c1832e050bac5c14,2020-11-27_15h09.13.302,lexical_decision_task_MP_exp2,2020.2.5,Win32,60,m,1,0.555,,,,,,,,0.555,1,,,,,,103,WORD,"ID",16,bounce,BOUNCE,m,,,,,,0.313802083,-0.00390625,0,0,0,,0,250,250,102,1,
,,,,,,,,,,,,,,,,,,5ee379c2c1832e050bac5c14,2020-11-27_15h09.13.302,lexical_decision_task_MP_exp2,2020.2.5,Win32,60,m,1,0.62,,,,,,,,0.62,1,,,,,,160,WORD,UN,33,dragon,VIOLET,m,,,,,,0.313802083,-0.00390625,0,0,0,,0,251,251,159,1,
,,,,,,,,,,,,,,,,,,5ee379c2c1832e050bac5c14,2020-11-27_15h09.13.302,lexical_decision_task_MP_exp2,2020.2.5,Win32,60,z,1,0.534,,,,,,,,0.534,1,,,,,,475,NW,UN,16,robuly,PEBRIC,z,,,,,,0.313802083,-0.00390625,0,0,0,,0,252,252,474,1,
,,,,,,,,,,,,,,,,,,5ee379c2c1832e050bac5c14,2020-11-27_15h09.13.302,lexical_decision_task_MP_exp2,2020.2.5,Win32,60,z,1,0.652,,,,,,,,0.652,1,,,,,,455,NW,UN,16,broget,TONDLE,z,,,,,,0.313802083,-0.00390625,0,0,0,,0,253,253,454,1,
,,,,,,,,,,,,,,,,,,5ee379c2c1832e050bac5c14,2020-11-27_15h09.13.302,lexical_decision_task_MP_exp2,2020.2.5,Win32,60,z,1,0.773,,,,,,,,0.773,1,,,,,,380,NW,UN,33,huniek,CAVORY,z,,,,,,0.313802083,-0.00390625,0,0,0,,0,254,254,379,1,
,,,,,,,,,,,,,,,,,,5ee379c2c1832e050bac5c14,2020-11-27_15h09.13.302,lexical_decision_task_MP_exp2,2020.2.5,Win32,60,m,1,0.726,,,,,,,,0.726,1,,,,,,33,WORD,"ID",33,butler,BUTLER,m,,,,,,0.313802083,-0.00390625,0,0,0,,0,255,255,32,1,
,,,,,,,,,,,,,,,,,,5ee379c2c1832e050bac5c14,2020-11-27_15h09.13.302,lexical_decision_task_MP_exp2,2020.2.5,Win32,60,m,1,0.788,,,,,,,,0.788,1,,,,,,142,WORD,UN,33,orphan,SPRUCE,m,,,,,,0.313802083,-0.00390625,0,0,0,,0,256,256,141,1,
,,,,,,,,,,,,,,,,,,5ee379c2c1832e050bac5c14,2020-11-27_15h09.13.302,lexical_decision_task_MP_exp2,2020.2.5,Win32,60,m,1,0.536,,,,,,,,0.536,1,,,,,,221,WORD,UN,16,hinder,MASCOT,m,,,,,,0.313802083,-0.00390625,0,0,0,,0,257,257,220,1,
,,,,,,,,,,,,,,,,,,5ee379c2c1832e050bac5c14,2020-11-27_15h09.13.302,lexical_decision_task_MP_exp2,2020.2.5,Win32,60,z,1,0.585,,,,,,,,0.585,1,,,,,,252,NW,"ID",33,stapod,STAPOD,z,,,,,,0.313802083,-0.00390625,0,0,0,,0,258,258,251,1,
,,,,,,,,,,,,,,,,,,5ee379c2c1832e050bac5c14,2020-11-27_15h09.13.302,lexical_decision_task_MP_exp2,2020.2.5,Win32,60,z,1,0.7,,,,,,,,0.7,1,,,,,,249,NW,"ID",33,batrol,BATROL,z,,,,,,0.313802083,-0.00390625,0,0,0,,0,259,259,248,1,
,,,,,,,,,,,,,,,,,,5ee379c2c1832e050bac5c14,2020-11-27_15h09.13.302,lexical_decision_task_MP_exp2,2020.2.5,Win32,60,m,1,0.565,,,,,,,,0.565,1,,,,,,205,WORD,UN,16,tailor,LOUNGE,m,,,,,,0.313802083,-0.00390625,0,0,0,,0,260,260,204,1,
,,,,,,,,,,,,,,,,,,5ee379c2c1832e050bac5c14,2020-11-27_15h09.13.302,lexical_decision_task_MP_exp2,2020.2.5,Win32,60,z,1,0.552,,,,,,,,0.552,1,,,,,,310,NW,"ID",16,daniet,DANIET,z,,,,,,0.313802083,-0.00390625,0,0,0,,0,261,261,309,1,
,,,,,,,,,,,,,,,,,,5ee379c2c1832e050bac5c14,2020-11-27_15h09.13.302,lexical_decision_task_MP_exp2,2020.2.5,Win32,60,z,1,0.804,,,,,,,,0.804,1,,,,,,332,NW,"ID",16,vangue,VANGUE,z,,,,,,0.313802083,-0.00390625,0,0,0,,0,262,262,331,1,
,,,,,,,,,,,,,,,,,,5ee379c2c1832e050bac5c14,2020-11-27_15h09.13.302,lexical_decision_task_MP_exp2,2020.2.5,Win32,60,z,1,0.584,,,,,,,,0.584,1,,,,,,421,NW,UN,16,alcoud,KNISMA,z,,,,,,0.313802083,-0.00390625,0,0,0,,0,263,263,420,1,
,,,,,,,,,,,,,,,,,,5ee379c2c1832e050bac5c14,2020-11-27_15h09.13.302,lexical_decision_task_MP_exp2,2020.2.5,Win32,60,m,1,0.534,,,,,,,,0.534,1,,,,,,133,WORD,UN,33,debris,CHROME,m,,,,,,0.313802083,-0.00390625,0,0,0,,0,264,264,132,1,
,,,,,,,,,,,,,,,,,,5ee379c2c1832e050bac5c14,2020-11-27_15h09.13.302,lexical_decision_task_MP_exp2,2020.2.5,Win32,60,m,1,0.589,,,,,,,,0.589,1,,,,,,137,WORD,UN,33,melody,FINGER,m,,,,,,0.313802083,-0.00390625,0,0,0,,0,265,265,136,1,
,,,,,,,,,,,,,,,,,,5ee379c2c1832e050bac5c14,2020-11-27_15h09.13.302,lexical_decision_task_MP_exp2,2020.2.5,Win32,60,m,1,0.574,,,,,,,,0.574,1,,,,,,231,WORD,UN,16,mother,EXPORT,m,,,,,,0.313802083,-0.00390625,0,0,0,,0,266,266,230,1,
,,,,,,,,,,,,,,,,,,5ee379c2c1832e050bac5c14,2020-11-27_15h09.13.302,lexical_decision_task_MP_exp2,2020.2.5,Win32,60,m,1,0.535,,,,,,,,0.535,1,,,,,,190,WORD,UN,16,stable,BACKUP,m,,,,,,0.313802083,-0.00390625,0,0,0,,0,267,267,189,1,
,,,,,,,,,,,,,,,,,,5ee379c2c1832e050bac5c14,2020-11-27_15h09.13.302,lexical_decision_task_MP_exp2,2020.2.5,Win32,60,m,1,0.55,,,,,,,,0.55,1,,,,,,191,WORD,UN,16,absent,STABLE,m,,,,,,0.313802083,-0.00390625,0,0,0,,0,268,268,190,1,
,,,,,,,,,,,,,,,,,,5ee379c2c1832e050bac5c14,2020-11-27_15h09.13.302,lexical_decision_task_MP_exp2,2020.2.5,Win32,60,z,1,0.627,,,,,,,,0.627,1,,,,,,468,NW,UN,16,padifs,WICTOR,z,,,,,,0.313802083,-0.00390625,0,0,0,,0,269,269,467,1,
,,,,,,,,,,,,,,,,,,5ee379c2c1832e050bac5c14,2020-11-27_15h09.13.302,lexical_decision_task_MP_exp2,2020.2.5,Win32,60,z,1,0.588,,,,,,,,0.588,1,,,,,,431,NW,UN,16,lunker,CHRUMS,z,,,,,,0.313802083,-0.00390625,0,0,0,,0,270,270,430,1,
,,,,,,,,,,,,,,,,,,5ee379c2c1832e050bac5c14,2020-11-27_15h09.13.302,lexical_decision_task_MP_exp2,2020.2.5,Win32,60,z,1,1.15,,,,,,,,1.15,1,,,,,,250,NW,"ID",33,milted,MILTED,z,,,,,,0.313802083,-0.00390625,0,0,0,,0,271,271,249,1,
,,,,,,,,,,,,,,,,,,5ee379c2c1832e050bac5c14,2020-11-27_15h09.13.302,lexical_decision_task_MP_exp2,2020.2.5,Win32,60,z,1,0.57,,,,,,,,0.57,1,,,,,,412,NW,UN,33,equats,JILUER,z,,,,,,0.313802083,-0.00390625,0,0,0,,0,272,272,411,1,
,,,,,,,,,,,,,,,,,,5ee379c2c1832e050bac5c14,2020-11-27_15h09.13.302,lexical_decision_task_MP_exp2,2020.2.5,Win32,60,z,1,0.521,,,,,,,,0.521,1,,,,,,270,NW,"ID",33,wrimsy,WRIMSY,z,,,,,,0.313802083,-0.00390625,0,0,0,,0,273,273,269,1,
,,,,,,,,,,,,,,,,,,5ee379c2c1832e050bac5c14,2020-11-27_15h09.13.302,lexical_decision_task_MP_exp2,2020.2.5,Win32,60,m,1,0.591,,,,,,,,0.591,1,,,,,,68,WORD,"ID",16,fumble,FUMBLE,m,,,,,,0.313802083,-0.00390625,0,0,0,,0,274,274,67,1,
,,,,,,,,,,,,,,,,,,5ee379c2c1832e050bac5c14,2020-11-27_15h09.13.302,lexical_decision_task_MP_exp2,2020.2.5,Win32,60,z,1,0.654,,,,,,,,0.654,1,,,,,,257,NW,"ID",33,veniod,VENIOD,z,,,,,,0.313802083,-0.00390625,0,0,0,,0,275,275,256,1,
,,,,,,,,,,,,,,,,,,5ee379c2c1832e050bac5c14,2020-11-27_15h09.13.302,lexical_decision_task_MP_exp2,2020.2.5,Win32,60,m,1,0.657,,,,,,,,0.657,1,,,,,,84,WORD,"ID",16,mortal,MORTAL,m,,,,,,0.313802083,-0.00390625,0,0,0,,0,276,276,83,1,
,,,,,,,,,,,,,,,,,,5ee379c2c1832e050bac5c14,2020-11-27_15h09.13.302,lexical_decision_task_MP_exp2,2020.2.5,Win32,60,z,1,0.72,,,,,,,,0.72,1,,,,,,377,NW,UN,33,shrile,INJORE,z,,,,,,0.313802083,-0.00390625,0,0,0,,0,277,277,376,1,
,,,,,,,,,,,,,,,,,,5ee379c2c1832e050bac5c14,2020-11-27_15h09.13.302,lexical_decision_task_MP_exp2,2020.2.5,Win32,60,m,1,0.772,,,,,,,,0.772,1,,,,,,101,WORD,"ID",16,wrench,WRENCH,m,,,,,,0.313802083,-0.00390625,0,0,0,,0,278,278,100,1,
,,,,,,,,,,,,,,,,,,5ee379c2c1832e050bac5c14,2020-11-27_15h09.13.302,lexical_decision_task_MP_exp2,2020.2.5,Win32,60,z,1,0.54,,,,,,,,0.54,1,,,,,,389,NW,UN,33,hatrus,WITMER,z,,,,,,0.313802083,-0.00390625,0,0,0,,0,279,279,388,1,
,,,,,,,,,,,,,,,,,,5ee379c2c1832e050bac5c14,2020-11-27_15h09.13.302,lexical_decision_task_MP_exp2,2020.2.5,Win32,60,m,1,0.603,,,,,,,,0.603,1,,,,,,26,WORD,"ID",33,sprint,SPRINT,m,,,,,,0.313802083,-0.00390625,0,0,0,,0,280,280,25,1,
,,,,,,,,,,,,,,,,,,5ee379c2c1832e050bac5c14,2020-11-27_15h09.13.302,lexical_decision_task_MP_exp2,2020.2.5,Win32,60,z,1,0.565,,,,,,,,0.565,1,,,,,,300,NW,"ID",33,yarion,YARION,z,,,,,,0.313802083,-0.00390625,0,0,0,,0,281,281,299,1,
,,,,,,,,,,,,,,,,,,5ee379c2c1832e050bac5c14,2020-11-27_15h09.13.302,lexical_decision_task_MP_exp2,2020.2.5,Win32,60,m,1,0.767,,,,,,,,0.767,1,,,,,,145,WORD,UN,33,couple,PARISH,m,,,,,,0.313802083,-0.00390625,0,0,0,,0,282,282,144,1,
,,,,,,,,,,,,,,,,,,5ee379c2c1832e050bac5c14,2020-11-27_15h09.13.302,lexical_decision_task_MP_exp2,2020.2.5,Win32,60,z,1,0.652,,,,,,,,0.652,1,,,,,,403,NW,UN,33,cluirm,BRUATS,z,,,,,,0.313802083,-0.00390625,0,0,0,,0,283,283,402,1,
,,,,,,,,,,,,,,,,,,5ee379c2c1832e050bac5c14,2020-11-27_15h09.13.302,lexical_decision_task_MP_exp2,2020.2.5,Win32,60,m,1,0.54,,,,,,,,0.54,1,,,,,,41,WORD,"ID",33,spring,SPRING,m,,,,,,0.313802083,-0.00390625,0,0,0,,0,284,284,40,1,
,,,,,,,,,,,,,,,,,,5ee379c2c1832e050bac5c14,2020-11-27_15h09.13.302,lexical_decision_task_MP_exp2,2020.2.5,Win32,60,m,1,0.709,,,,,,,,0.709,1,,,,,,79,WORD,"ID",16,theory,THEORY,m,,,,,,0.313802083,-0.00390625,0,0,0,,0,285,285,78,1,
,,,,,,,,,,,,,,,,,,5ee379c2c1832e050bac5c14,2020-11-27_15h09.13.302,lexical_decision_task_MP_exp2,2020.2.5,Win32,60,m,1,0.601,,,,,,,,0.601,1,,,,,,130,WORD,UN,33,quench,STUPID,m,,,,,,0.313802083,-0.00390625,0,0,0,,0,286,286,129,1,
,,,,,,,,,,,,,,,,,,5ee379c2c1832e050bac5c14,2020-11-27_15h09.13.302,lexical_decision_task_MP_exp2,2020.2.5,Win32,60,m,1,0.635,,,,,,,,0.635,1,,,,,,185,WORD,UN,16,portal,BOTHER,m,,,,,,0.313802083,-0.00390625,0,0,0,,0,287,287,184,1,
,,,,,,,,,,,,,,,,,,5ee379c2c1832e050bac5c14,2020-11-27_15h09.13.302,lexical_decision_task_MP_exp2,2020.2.5,Win32,60,z,1,0.603,,,,,,,,0.603,1,,,,,,446,NW,UN,16,gircue,RUNAMO,z,,,,,,0.313802083,-0.00390625,0,0,0,,0,288,288,445,1,
,,,,,,,,,,,,,,,,,,5ee379c2c1832e050bac5c14,2020-11-27_15h09.13.302,lexical_decision_task_MP_exp2,2020.2.5,Win32,60,z,1,0.634,,,,,,,,0.634,1,,,,,,424,NW,UN,16,urivel,PRAILE,z,,,,,,0.313802083,-0.00390625,0,0,0,,0,289,289,423,1,
,,,,,,,,,,,,,,,,,,5ee379c2c1832e050bac5c14,2020-11-27_15h09.13.302,lexical_decision_task_MP_exp2,2020.2.5,Win32,60,z,1,0.552,,,,,,,,0.552,1,,,,,,399,NW,UN,33,wearox,FOURET,z,,,,,,0.313802083,-0.00390625,0,0,0,,0,290,290,398,1,
,,,,,,,,,,,,,,,,,,5ee379c2c1832e050bac5c14,2020-11-27_15h09.13.302,lexical_decision_task_MP_exp2,2020.2.5,Win32,60,m,1,0.56,,,,,,,,0.56,1,,,,,,53,WORD,"ID",33,police,POLICE,m,,,,,,0.313802083,-0.00390625,0,0,0,,0,291,291,52,1,
,,,,,,,,,,,,,,,,,,5ee379c2c1832e050bac5c14,2020-11-27_15h09.13.302,lexical_decision_task_MP_exp2,2020.2.5,Win32,60,z,0,0.607,,,,,,,,0.607,0,,,,,,110,WORD,"ID",16,polite,POLITE,m,,,,,,0.313802083,-0.00390625,0,0,0,,0,292,292,109,1,
,,,,,,,,,,,,,,,,,,5ee379c2c1832e050bac5c14,2020-11-27_15h09.13.302,lexical_decision_task_MP_exp2,2020.2.5,Win32,60,m,1,0.602,,,,,,,,0.602,1,,,,,,132,WORD,UN,33,bleach,STRONG,m,,,,,,0.313802083,-0.00390625,0,0,0,,0,293,293,131,1,
,,,,,,,,,,,,,,,,,,5ee379c2c1832e050bac5c14,2020-11-27_15h09.13.302,lexical_decision_task_MP_exp2,2020.2.5,Win32,60,z,1,0.531,,,,,,,,0.531,1,,,,,,451,NW,UN,16,surden,CAINKY,z,,,,,,0.313802083,-0.00390625,0,0,0,,0,294,294,450,1,
,,,,,,,,,,,,,,,,,,5ee379c2c1832e050bac5c14,2020-11-27_15h09.13.302,lexical_decision_task_MP_exp2,2020.2.5,Win32,60,m,1,0.455,,,,,,,,0.455,1,,,,,,80,WORD,"ID",16,family,FAMILY,m,,,,,,0.313802083,-0.00390625,0,0,0,,0,295,295,79,1,
,,,,,,,,,,,,,,,,,,5ee379c2c1832e050bac5c14,2020-11-27_15h09.13.302,lexical_decision_task_MP_exp2,2020.2.5,Win32,60,m,1,0.569,,,,,,,,0.569,1,,,,,,237,WORD,UN,16,seldom,POSTER,m,,,,,,0.313802083,-0.00390625,0,0,0,,0,296,296,236,1,
,,,,,,,,,,,,,,,,,,5ee379c2c1832e050bac5c14,2020-11-27_15h09.13.302,lexical_decision_task_MP_exp2,2020.2.5,Win32,60,z,1,0.668,,,,,,,,0.668,1,,,,,,397,NW,UN,33,blunde,CAMBLE,z,,,,,,0.313802083,-0.00390625,0,0,0,,0,297,297,396,1,
,,,,,,,,,,,,,,,,,,5ee379c2c1832e050bac5c14,2020-11-27_15h09.13.302,lexical_decision_task_MP_exp2,2020.2.5,Win32,60,z,1,0.66,,,,,,,,0.66,1,,,,,,461,NW,UN,16,absult,JUSTRE,z,,,,,,0.313802083,-0.00390625,0,0,0,,0,298,298,460,1,
,,,,,,,,,,,,,,,,,,5ee379c2c1832e050bac5c14,2020-11-27_15h09.13.302,lexical_decision_task_MP_exp2,2020.2.5,Win32,60,m,1,0.672,,,,,,,,0.672,1,,,,,,199,WORD,UN,16,beacon,INVOKE,m,,,,,,0.313802083,-0.00390625,0,0,0,,0,299,299,198,1,
,,,,,,,,,,,,,,,,,,5ee379c2c1832e050bac5c14,2020-11-27_15h09.13.302,lexical_decision_task_MP_exp2,2020.2.5,Win32,60,z,1,0.552,,,,,,,,0.552,1,,,,,,411,NW,UN,33,jiluer,ORCHIN,z,,,,,,0.313802083,-0.00390625,0,0,0,,0,300,300,410,1,
,,,,,,,,,,,,,,,,,,5ee379c2c1832e050bac5c14,2020-11-27_15h09.13.302,lexical_decision_task_MP_exp2,2020.2.5,Win32,60,m,1,0.531,,,,,,,,0.531,1,,,,,,93,WORD,"ID",16,public,PUBLIC,m,,,,,,0.313802083,-0.00390625,0,0,0,,0,301,301,92,1,
,,,,,,,,,,,,,,,,,,5ee379c2c1832e050bac5c14,2020-11-27_15h09.13.302,lexical_decision_task_MP_exp2,2020.2.5,Win32,60,z,1,0.553,,,,,,,,0.553,1,,,,,,449,NW,UN,16,phrect,BRUNGE,z,,,,,,0.313802083,-0.00390625,0,0,0,,0,302,302,448,1,
,,,,,,,,,,,,,,,,,,5ee379c2c1832e050bac5c14,2020-11-27_15h09.13.302,lexical_decision_task_MP_exp2,2020.2.5,Win32,60,m,1,0.666,,,,,,,,0.666,1,,,,,,187,WORD,UN,16,social,COURSE,m,,,,,,0.313802083,-0.00390625,0,0,0,,0,303,303,186,1,
,,,,,,,,,,,,,,,,,,5ee379c2c1832e050bac5c14,2020-11-27_15h09.13.302,lexical_decision_task_MP_exp2,2020.2.5,Win32,60,m,1,0.618,,,,,,,,0.618,1,,,,,,224,WORD,UN,16,vulgar,PERIOD,m,,,,,,0.313802083,-0.00390625,0,0,0,,0,304,304,223,1,
,,,,,,,,,,,,,,,,,,5ee379c2c1832e050bac5c14,2020-11-27_15h09.13.302,lexical_decision_task_MP_exp2,2020.2.5,Win32,60,m,1,0.604,,,,,,,,0.604,1,,,,,,195,WORD,UN,16,credit,RESIGN,m,,,,,,0.313802083,-0.00390625,0,0,0,,0,305,305,194,1,
,,,,,,,,,,,,,,,,,,5ee379c2c1832e050bac5c14,2020-11-27_15h09.13.302,lexical_decision_task_MP_exp2,2020.2.5,Win32,60,m,1,0.618,,,,,,,,0.618,1,,,,,,60,WORD,"ID",33,pencil,PENCIL,m,,,,,,0.313802083,-0.00390625,0,0,0,,0,306,306,59,1,
,,,,,,,,,,,,,,,,,,5ee379c2c1832e050bac5c14,2020-11-27_15h09.13.302,lexical_decision_task_MP_exp2,2020.2.5,Win32,60,m,1,0.725,,,,,,,,0.725,1,,,,,,99,WORD,"ID",16,fluent,FLUENT,m,,,,,,0.313802083,-0.00390625,0,0,0,,0,307,307,98,1,
,,,,,,,,,,,,,,,,,,5ee379c2c1832e050bac5c14,2020-11-27_15h09.13.302,lexical_decision_task_MP_exp2,2020.2.5,Win32,60,z,0,0.753,,,,,,,,0.753,0,,,,,,111,WORD,"ID",16,induce,INDUCE,m,,,,,,0.313802083,-0.00390625,0,0,0,,0,308,308,110,1,
,,,,,,,,,,,,,,,,,,5ee379c2c1832e050bac5c14,2020-11-27_15h09.13.302,lexical_decision_task_MP_exp2,2020.2.5,Win32,60,m,1,0.768,,,,,,,,0.768,1,,,,,,45,WORD,"ID",33,clergy,CLERGY,m,,,,,,0.313802083,-0.00390625,0,0,0,,0,309,309,44,1,
,,,,,,,,,,,,,,,,,,5ee379c2c1832e050bac5c14,2020-11-27_15h09.13.302,lexical_decision_task_MP_exp2,2020.2.5,Win32,60,m,1,0.551,,,,,,,,0.551,1,,,,,,97,WORD,"ID",16,client,CLIENT,m,,,,,,0.313802083,-0.00390625,0,0,0,,0,310,310,96,1,
,,,,,,,,,,,,,,,,,,5ee379c2c1832e050bac5c14,2020-11-27_15h09.13.302,lexical_decision_task_MP_exp2,2020.2.5,Win32,60,m,1,0.707,,,,,,,,0.707,1,,,,,,115,WORD,"ID",16,guitar,GUITAR,m,,,,,,0.313802083,-0.00390625,0,0,0,,0,311,311,114,1,
,,,,,,,,,,,,,,,,,,5ee379c2c1832e050bac5c14,2020-11-27_15h09.13.302,lexical_decision_task_MP_exp2,2020.2.5,Win32,60,z,1,0.569,,,,,,,,0.569,1,,,,,,466,NW,UN,16,pebric,HOCITE,z,,,,,,0.313802083,-0.00390625,0,0,0,,0,312,312,465,1,
,,,,,,,,,,,,,,,,,,5ee379c2c1832e050bac5c14,2020-11-27_15h09.13.302,lexical_decision_task_MP_exp2,2020.2.5,Win32,60,z,1,0.704,,,,,,,,0.704,1,,,,,,373,NW,UN,33,injore,BIGENT,z,,,,,,0.313802083,-0.00390625,0,0,0,,0,313,313,372,1,
,,,,,,,,,,,,,,,,,,5ee379c2c1832e050bac5c14,2020-11-27_15h09.13.302,lexical_decision_task_MP_exp2,2020.2.5,Win32,60,m,1,0.534,,,,,,,,0.534,1,,,,,,98,WORD,"ID",16,belong,BELONG,m,,,,,,0.313802083,-0.00390625,0,0,0,,0,314,314,97,1,
,,,,,,,,,,,,,,,,,,5ee379c2c1832e050bac5c14,2020-11-27_15h09.13.302,lexical_decision_task_MP_exp2,2020.2.5,Win32,60,z,1,0.587,,,,,,,,0.587,1,,,,,,372,NW,UN,33,bigent,RAMILY,z,,,,,,0.313802083,-0.00390625,0,0,0,,0,315,315,371,1,
,,,,,,,,,,,,,,,,,,5ee379c2c1832e050bac5c14,2020-11-27_15h09.13.302,lexical_decision_task_MP_exp2,2020.2.5,Win32,60,z,1,0.658,,,,,,,,0.658,1,,,,,,367,NW,UN,33,hornal,SLIQUE,z,,,,,,0.313802083,-0.00390625,0,0,0,,0,316,316,366,1,
,,,,,,,,,,,,,,,,,,5ee379c2c1832e050bac5c14,2020-11-27_15h09.13.302,lexical_decision_task_MP_exp2,2020.2.5,Win32,60,z,1,0.632,,,,,,,,0.632,1,,,,,,324,NW,"ID",16,steikh,STEIKH,z,,,,,,0.313802083,-0.00390625,0,0,0,,0,317,317,323,1,
,,,,,,,,,,,,,,,,,,5ee379c2c1832e050bac5c14,2020-11-27_15h09.13.302,lexical_decision_task_MP_exp2,2020.2.5,Win32,60,z,1,0.506,,,,,,,,0.506,1,,,,,,293,NW,"ID",33,swance,SWANCE,z,,,,,,0.313802083,-0.00390625,0,0,0,,0,318,318,292,1,
,,,,,,,,,,,,,,,,,,5ee379c2c1832e050bac5c14,2020-11-27_15h09.13.302,lexical_decision_task_MP_exp2,2020.2.5,Win32,60,z,1,0.601,,,,,,,,0.601,1,,,,,,432,NW,UN,16,drance,LUNKER,z,,,,,,0.313802083,-0.00390625,0,0,0,,0,319,319,431,1,
,,,,,,,,,,,,,,,,,,5ee379c2c1832e050bac5c14,2020-11-27_15h09.13.302,lexical_decision_task_MP_exp2,2020.2.5,Win32,60,m,1,0.587,,,,,,,,0.587,1,,,,,,136,WORD,UN,33,finger,BLEACH,m,,,,,,0.313802083,-0.00390625,0,0,0,,0,320,320,135,1,
,,,,,,,,,,,,,,,,,,5ee379c2c1832e050bac5c14,2020-11-27_15h09.13.302,lexical_decision_task_MP_exp2,2020.2.5,Win32,60,m,1,0.568,,,,,,,,0.568,1,,,,,,188,WORD,UN,16,censor,SOCIAL,m,,,,,,0.313802083,-0.00390625,0,0,0,,0,321,321,187,1,
,,,,,,,,,,,,,,,,,,5ee379c2c1832e050bac5c14,2020-11-27_15h09.13.302,lexical_decision_task_MP_exp2,2020.2.5,Win32,60,m,1,0.588,,,,,,,,0.588,1,,,,,,8,WORD,"ID",33,abrupt,ABRUPT,m,,,,,,0.313802083,-0.00390625,0,0,0,,0,322,322,7,1,
,,,,,,,,,,,,,,,,,,5ee379c2c1832e050bac5c14,2020-11-27_15h09.13.302,lexical_decision_task_MP_exp2,2020.2.5,Win32,60,m,1,0.501,,,,,,,,0.501,1,,,,,,123,WORD,UN,33,enough,STRIKE,m,,,,,,0.313802083,-0.00390625,0,0,0,,0,323,323,122,1,
,,,,,,,,,,,,,,,,,,5ee379c2c1832e050bac5c14,2020-11-27_15h09.13.302,lexical_decision_task_MP_exp2,2020.2.5,Win32,60,z,1,0.592,,,,,,,,0.592,1,,,,,,254,NW,"ID",33,varosh,VAROSH,z,,,,,,0.313802083,-0.00390625,0,0,0,,0,324,324,253,1,
,,,,,,,,,,,,,,,,,,5ee379c2c1832e050bac5c14,2020-11-27_15h09.13.302,lexical_decision_task_MP_exp2,2020.2.5,Win32,60,m,1,0.539,,,,,,,,0.539,1,,,,,,34,WORD,"ID",33,jungle,JUNGLE,m,,,,,,0.313802083,-0.00390625,0,0,0,,0,325,325,33,1,
,,,,,,,,,,,,,,,,,,5ee379c2c1832e050bac5c14,2020-11-27_15h09.13.302,lexical_decision_task_MP_exp2,2020.2.5,Win32,60,z,1,0.55,,,,,,,,0.55,1,,,,,,438,NW,UN,16,limpor,BAITCH,z,,,,,,0.313802083,-0.00390625,0,0,0,,0,326,326,437,1,
,,,,,,,,,,,,,,,,,,5ee379c2c1832e050bac5c14,2020-11-27_15h09.13.302,lexical_decision_task_MP_exp2,2020.2.5,Win32,60,m,1,0.625,,,,,,,,0.625,1,,,,,,87,WORD,"ID",16,filter,FILTER,m,,,,,,0.313802083,-0.00390625,0,0,0,,0,327,327,86,1,
,,,,,,,,,,,,,,,,,,5ee379c2c1832e050bac5c14,2020-11-27_15h09.13.302,lexical_decision_task_MP_exp2,2020.2.5,Win32,60,z,1,0.569,,,,,,,,0.569,1,,,,,,276,NW,"ID",33,yarmon,YARMON,z,,,,,,0.313802083,-0.00390625,0,0,0,,0,328,328,275,1,
,,,,,,,,,,,,,,,,,,5ee379c2c1832e050bac5c14,2020-11-27_15h09.13.302,lexical_decision_task_MP_exp2,2020.2.5,Win32,60,m,1,0.661,,,,,,,,0.661,1,,,,,,215,WORD,UN,16,behalf,PHOBIA,m,,,,,,0.313802083,-0.00390625,0,0,0,,0,329,329,214,1,
,,,,,,,,,,,,,,,,,,5ee379c2c1832e050bac5c14,2020-11-27_15h09.13.302,lexical_decision_task_MP_exp2,2020.2.5,Win32,60,z,1,0.517,,,,,,,,0.517,1,,,,,,346,NW,"ID",16,saudic,SAUDIC,z,,,,,,0.313802083,-0.00390625,0,0,0,,0,330,330,345,1,
,,,,,,,,,,,,,,,,,,5ee379c2c1832e050bac5c14,2020-11-27_15h09.13.302,lexical_decision_task_MP_exp2,2020.2.5,Win32,60,z,1,0.592,,,,,,,,0.592,1,,,,,,337,NW,"ID",16,rejols,REJOLS,z,,,,,,0.313802083,-0.00390625,0,0,0,,0,331,331,336,1,
,,,,,,,,,,,,,,,,,,5ee379c2c1832e050bac5c14,2020-11-27_15h09.13.302,lexical_decision_task_MP_exp2,2020.2.5,Win32,60,m,1,0.775,,,,,,,,0.775,1,,,,,,77,WORD,"ID",16,racket,RACKET,m,,,,,,0.313802083,-0.00390625,0,0,0,,0,332,332,76,1,
,,,,,,,,,,,,,,,,,,5ee379c2c1832e050bac5c14,2020-11-27_15h09.13.302,lexical_decision_task_MP_exp2,2020.2.5,Win32,60,z,1,0.636,,,,,,,,0.636,1,,,,,,283,NW,"ID",33,veralf,VERALF,z,,,,,,0.313802083,-0.00390625,0,0,0,,0,333,333,282,1,
,,,,,,,,,,,,,,,,,,5ee379c2c1832e050bac5c14,2020-11-27_15h09.13.302,lexical_decision_task_MP_exp2,2020.2.5,Win32,60,z,1,0.592,,,,,,,,0.592,1,,,,,,259,NW,"ID",33,soudal,SOUDAL,z,,,,,,0.313802083,-0.00390625,0,0,0,,0,334,334,258,1,
,,,,,,,,,,,,,,,,,,5ee379c2c1832e050bac5c14,2020-11-27_15h09.13.302,lexical_decision_task_MP_exp2,2020.2.5,Win32,60,m,1,0.643,,,,,,,,0.643,1,,,,,,96,WORD,"ID",16,ignore,IGNORE,m,,,,,,0.313802083,-0.00390625,0,0,0,,0,335,335,95,1,
,,,,,,,,,,,,,,,,,,5ee379c2c1832e050bac5c14,2020-11-27_15h09.13.302,lexical_decision_task_MP_exp2,2020.2.5,Win32,60,z,1,0.62,,,,,,,,0.62,1,,,,,,287,NW,"ID",33,nymbel,NYMBEL,z,,,,,,0.313802083,-0.00390625,0,0,0,,0,336,336,286,1,
,,,,,,,,,,,,,,,,,,5ee379c2c1832e050bac5c14,2020-11-27_15h09.13.302,lexical_decision_task_MP_exp2,2020.2.5,Win32,60,m,1,0.589,,,,,,,,0.589,1,,,,,,174,WORD,UN,33,fabric,TURKEY,m,,,,,,0.313802083,-0.00390625,0,0,0,,0,337,337,173,1,
,,,,,,,,,,,,,,,,,,5ee379c2c1832e050bac5c14,2020-11-27_15h09.13.302,lexical_decision_task_MP_exp2,2020.2.5,Win32,60,m,1,0.603,,,,,,,,0.603,1,,,,,,83,WORD,"ID",16,result,RESULT,m,,,,,,0.313802083,-0.00390625,0,0,0,,0,338,338,82,1,
,,,,,,,,,,,,,,,,,,5ee379c2c1832e050bac5c14,2020-11-27_15h09.13.302,lexical_decision_task_MP_exp2,2020.2.5,Win32,60,z,1,0.523,,,,,,,,0.523,1,,,,,,415,NW,UN,33,pathel,HIGSTA,z,,,,,,0.313802083,-0.00390625,0,0,0,,0,339,339,414,1,
,,,,,,,,,,,,,,,,,,5ee379c2c1832e050bac5c14,2020-11-27_15h09.13.302,lexical_decision_task_MP_exp2,2020.2.5,Win32,60,z,1,0.635,,,,,,,,0.635,1,,,,,,459,NW,UN,16,mingar,BAFENT,z,,,,,,0.313802083,-0.00390625,0,0,0,,0,340,340,458,1,
,,,,,,,,,,,,,,,,,,5ee379c2c1832e050bac5c14,2020-11-27_15h09.13.302,lexical_decision_task_MP_exp2,2020.2.5,Win32,60,m,1,0.608,,,,,,,,0.608,1,,,,,,59,WORD,"ID",33,splint,SPLINT,m,,,,,,0.313802083,-0.00390625,0,0,0,,0,341,341,58,1,
,,,,,,,,,,,,,,,,,,5ee379c2c1832e050bac5c14,2020-11-27_15h09.13.302,lexical_decision_task_MP_exp2,2020.2.5,Win32,60,z,1,0.619,,,,,,,,0.619,1,,,,,,386,NW,UN,33,gronce,ANCUST,z,,,,,,0.313802083,-0.00390625,0,0,0,,0,342,342,385,1,
,,,,,,,,,,,,,,,,,,5ee379c2c1832e050bac5c14,2020-11-27_15h09.13.302,lexical_decision_task_MP_exp2,2020.2.5,Win32,60,z,1,0.619,,,,,,,,0.619,1,,,,,,457,NW,UN,16,barcet,WANIGH,z,,,,,,0.313802083,-0.00390625,0,0,0,,0,343,343,456,1,
,,,,,,,,,,,,,,,,,,5ee379c2c1832e050bac5c14,2020-11-27_15h09.13.302,lexical_decision_task_MP_exp2,2020.2.5,Win32,60,m,1,0.641,,,,,,,,0.641,1,,,,,,46,WORD,"ID",33,single,SINGLE,m,,,,,,0.313802083,-0.00390625,0,0,0,,0,344,344,45,1,
,,,,,,,,,,,,,,,,,,5ee379c2c1832e050bac5c14,2020-11-27_15h09.13.302,lexical_decision_task_MP_exp2,2020.2.5,Win32,60,m,1,0.548,,,,,,,,0.548,1,,,,,,194,WORD,UN,16,resign,ABSENT,m,,,,,,0.313802083,-0.00390625,0,0,0,,0,345,345,193,1,
,,,,,,,,,,,,,,,,,,5ee379c2c1832e050bac5c14,2020-11-27_15h09.13.302,lexical_decision_task_MP_exp2,2020.2.5,Win32,60,z,1,0.889,,,,,,,,0.889,1,,,,,,437,NW,UN,16,baitch,SNAPEL,z,,,,,,0.313802083,-0.00390625,0,0,0,,0,346,346,436,1,
,,,,,,,,,,,,,,,,,,5ee379c2c1832e050bac5c14,2020-11-27_15h09.13.302,lexical_decision_task_MP_exp2,2020.2.5,Win32,60,z,1,0.676,,,,,,,,0.676,1,,,,,,470,NW,UN,16,nobest,CRUDIO,z,,,,,,0.313802083,-0.00390625,0,0,0,,0,347,347,469,1,
,,,,,,,,,,,,,,,,,,5ee379c2c1832e050bac5c14,2020-11-27_15h09.13.302,lexical_decision_task_MP_exp2,2020.2.5,Win32,60,z,1,0.669,,,,,,,,0.669,1,,,,,,274,NW,"ID",33,fumblo,FUMBLO,z,,,,,,0.313802083,-0.00390625,0,0,0,,0,348,348,273,1,
,,,,,,,,,,,,,,,,,,5ee379c2c1832e050bac5c14,2020-11-27_15h09.13.302,lexical_decision_task_MP_exp2,2020.2.5,Win32,60,z,1,0.707,,,,,,,,0.707,1,,,,,,469,NW,UN,16,crudio,PADIFS,z,,,,,,0.313802083,-0.00390625,0,0,0,,0,349,349,468,1,
,,,,,,,,,,,,,,,,,,5ee379c2c1832e050bac5c14,2020-11-27_15h09.13.302,lexical_decision_task_MP_exp2,2020.2.5,Win32,60,m,0,0.904,,,,,,,,0.904,0,,,,,,364,NW,UN,33,guairt,IMPOTE,z,,,,,,0.313802083,-0.00390625,0,0,0,,0,350,350,363,1,
,,,,,,,,,,,,,,,,,,5ee379c2c1832e050bac5c14,2020-11-27_15h09.13.302,lexical_decision_task_MP_exp2,2020.2.5,Win32,60,m,1,0.705,,,,,,,,0.705,1,,,,,,167,WORD,UN,33,answer,DESIGN,m,,,,,,0.313802083,-0.00390625,0,0,0,,0,351,351,166,1,
,,,,,,,,,,,,,,,,,,5ee379c2c1832e050bac5c14,2020-11-27_15h09.13.302,lexical_decision_task_MP_exp2,2020.2.5,Win32,60,m,0,0.818,,,,,,,,0.818,0,,,,,,425,NW,UN,16,schind,FRUDGE,z,,,,,,0.313802083,-0.00390625,0,0,0,,0,352,352,424,1,
,,,,,,,,,,,,,,,,,,5ee379c2c1832e050bac5c14,2020-11-27_15h09.13.302,lexical_decision_task_MP_exp2,2020.2.5,Win32,60,m,1,0.655,,,,,,,,0.655,1,,,,,,102,WORD,"ID",16,direct,DIRECT,m,,,,,,0.313802083,-0.00390625,0,0,0,,0,353,353,101,1,
,,,,,,,,,,,,,,,,,,5ee379c2c1832e050bac5c14,2020-11-27_15h09.13.302,lexical_decision_task_MP_exp2,2020.2.5,Win32,60,z,1,0.627,,,,,,,,0.627,1,,,,,,304,NW,"ID",16,cludie,CLUDIE,z,,,,,,0.313802083,-0.00390625,0,0,0,,0,354,354,303,1,
,,,,,,,,,,,,,,,,,,5ee379c2c1832e050bac5c14,2020-11-27_15h09.13.302,lexical_decision_task_MP_exp2,2020.2.5,Win32,60,m,1,0.908,,,,,,,,0.908,1,,,,,,24,WORD,"ID",33,praise,PRAISE,m,,,,,,0.313802083,-0.00390625,0,0,0,,0,355,355,23,1,
,,,,,,,,,,,,,,,,,,5ee379c2c1832e050bac5c14,2020-11-27_15h09.13.302,lexical_decision_task_MP_exp2,2020.2.5,Win32,60,z,1,0.606,,,,,,,,0.606,1,,,,,,423,NW,UN,16,praile,STRELD,z,,,,,,0.313802083,-0.00390625,0,0,0,,0,356,356,422,1,
,,,,,,,,,,,,,,,,,,5ee379c2c1832e050bac5c14,2020-11-27_15h09.13.302,lexical_decision_task_MP_exp2,2020.2.5,Win32,60,z,1,0.634,,,,,,,,0.634,1,,,,,,279,NW,"ID",33,celond,CELOND,z,,,,,,0.313802083,-0.00390625,0,0,0,,0,357,357,278,1,
,,,,,,,,,,,,,,,,,,5ee379c2c1832e050bac5c14,2020-11-27_15h09.13.302,lexical_decision_task_MP_exp2,2020.2.5,Win32,60,z,1,0.869,,,,,,,,0.869,1,,,,,,384,NW,UN,33,veigma,GUESCO,z,,,,,,0.313802083,-0.00390625,0,0,0,,0,358,358,383,1,
,,,,,,,,,,,,,,,,,,5ee379c2c1832e050bac5c14,2020-11-27_15h09.13.302,lexical_decision_task_MP_exp2,2020.2.5,Win32,60,z,1,0.953,,,,,,,,0.953,1,,,,,,291,NW,"ID",33,pretch,PRETCH,z,,,,,,0.313802083,-0.00390625,0,0,0,,0,359,359,290,1,
,,,,,,,,,,,,,,,,,,5ee379c2c1832e050bac5c14,2020-11-27_15h09.13.302,lexical_decision_task_MP_exp2,2020.2.5,Win32,60,m,1,1.069,,,,,,,,1.069,1,,,,,,38,WORD,"ID",33,powder,POWDER,m,,,,,,0.313802083,-0.00390625,0,0,0,,0,360,360,37,1,
,,,,,,,,,,,,,,,,,,5ee379c2c1832e050bac5c14,2020-11-27_15h09.13.302,lexical_decision_task_MP_exp2,2020.2.5,Win32,60,z,0,1.003,,,,,,,,1.003,0,,,,,,170,WORD,UN,33,depart,POUNCE,m,,,,,,0.313802083,-0.00390625,0,0,0,,0,361,361,169,1,
,,,,,,,,,,,,,,,,,,5ee379c2c1832e050bac5c14,2020-11-27_15h09.13.302,lexical_decision_task_MP_exp2,2020.2.5,Win32,60,z,1,0.685,,,,,,,,0.685,1,,,,,,273,NW,"ID",33,sortel,SORTEL,z,,,,,,0.313802083,-0.00390625,0,0,0,space,0,362,362,272,1,48.475
,,,,,,,,,,,,,,,,,,5ee379c2c1832e050bac5c14,2020-11-27_15h09.13.302,lexical_decision_task_MP_exp2,2020.2.5,Win32,60,m,1,0.601,,,,,,,,0.601,1,,,,,,92,WORD,"ID",16,strand,STRAND,m,,,,,,0.313802083,-0.00390625,0,0,0,,0,363,363,91,1,
,,,,,,,,,,,,,,,,,,5ee379c2c1832e050bac5c14,2020-11-27_15h09.13.302,lexical_decision_task_MP_exp2,2020.2.5,Win32,60,z,0,0.668,,,,,,,,0.668,0,,,,,,176,WORD,UN,33,advent,STRIFE,m,,,,,,0.313802083,-0.00390625,0,0,0,,0,364,364,175,1,
,,,,,,,,,,,,,,,,,,5ee379c2c1832e050bac5c14,2020-11-27_15h09.13.302,lexical_decision_task_MP_exp2,2020.2.5,Win32,60,z,1,0.741,,,,,,,,0.741,1,,,,,,268,NW,"ID",33,packes,PACKES,z,,,,,,0.313802083,-0.00390625,0,0,0,,0,365,365,267,1,
,,,,,,,,,,,,,,,,,,5ee379c2c1832e050bac5c14,2020-11-27_15h09.13.302,lexical_decision_task_MP_exp2,2020.2.5,Win32,60,z,1,0.582,,,,,,,,0.582,1,,,,,,443,NW,UN,16,jaunce,DORSEX,z,,,,,,0.313802083,-0.00390625,0,0,0,,0,366,366,442,1,
,,,,,,,,,,,,,,,,,,5ee379c2c1832e050bac5c14,2020-11-27_15h09.13.302,lexical_decision_task_MP_exp2,2020.2.5,Win32,60,z,1,0.642,,,,,,,,0.642,1,,,,,,328,NW,"ID",16,broake,BROAKE,z,,,,,,0.313802083,-0.00390625,0,0,0,,0,367,367,327,1,
,,,,,,,,,,,,,,,,,,5ee379c2c1832e050bac5c14,2020-11-27_15h09.13.302,lexical_decision_task_MP_exp2,2020.2.5,Win32,60,z,1,0.786,,,,,,,,0.786,1,,,,,,429,NW,UN,16,caroey,FUNTLE,z,,,,,,0.313802083,-0.00390625,0,0,0,,0,368,368,428,1,
,,,,,,,,,,,,,,,,,,5ee379c2c1832e050bac5c14,2020-11-27_15h09.13.302,lexical_decision_task_MP_exp2,2020.2.5,Win32,60,z,1,0.623,,,,,,,,0.623,1,,,,,,278,NW,"ID",33,unighs,UNIGHS,z,,,,,,0.313802083,-0.00390625,0,0,0,,0,369,369,277,1,
,,,,,,,,,,,,,,,,,,5ee379c2c1832e050bac5c14,2020-11-27_15h09.13.302,lexical_decision_task_MP_exp2,2020.2.5,Win32,60,m,1,0.684,,,,,,,,0.684,1,,,,,,219,WORD,UN,16,voyage,BUCKET,m,,,,,,0.313802083,-0.00390625,0,0,0,,0,370,370,218,1,
,,,,,,,,,,,,,,,,,,5ee379c2c1832e050bac5c14,2020-11-27_15h09.13.302,lexical_decision_task_MP_exp2,2020.2.5,Win32,60,m,1,0.635,,,,,,,,0.635,1,,,,,,153,WORD,UN,33,author,BEHOLD,m,,,,,,0.313802083,-0.00390625,0,0,0,,0,371,371,152,1,
,,,,,,,,,,,,,,,,,,5ee379c2c1832e050bac5c14,2020-11-27_15h09.13.302,lexical_decision_task_MP_exp2,2020.2.5,Win32,60,z,1,0.607,,,,,,,,0.607,1,,,,,,357,NW,"ID",16,derain,DERAIN,z,,,,,,0.313802083,-0.00390625,0,0,0,,0,372,372,356,1,
,,,,,,,,,,,,,,,,,,5ee379c2c1832e050bac5c14,2020-11-27_15h09.13.302,lexical_decision_task_MP_exp2,2020.2.5,Win32,60,m,1,0.522,,,,,,,,0.522,1,,,,,,43,WORD,"ID",33,tongue,TONGUE,m,,,,,,0.313802083,-0.00390625,0,0,0,,0,373,373,42,1,
,,,,,,,,,,,,,,,,,,5ee379c2c1832e050bac5c14,2020-11-27_15h09.13.302,lexical_decision_task_MP_exp2,2020.2.5,Win32,60,z,1,0.668,,,,,,,,0.668,1,,,,,,417,NW,UN,33,suidle,EAROUD,z,,,,,,0.313802083,-0.00390625,0,0,0,,0,374,374,416,1,
,,,,,,,,,,,,,,,,,,5ee379c2c1832e050bac5c14,2020-11-27_15h09.13.302,lexical_decision_task_MP_exp2,2020.2.5,Win32,60,m,1,0.888,,,,,,,,0.888,1,,,,,,78,WORD,"ID",16,column,COLUMN,m,,,,,,0.313802083,-0.00390625,0,0,0,,0,375,375,77,1,
,,,,,,,,,,,,,,,,,,5ee379c2c1832e050bac5c14,2020-11-27_15h09.13.302,lexical_decision_task_MP_exp2,2020.2.5,Win32,60,m,1,0.609,,,,,,,,0.609,1,,,,,,127,WORD,UN,33,senior,CASTLE,m,,,,,,0.313802083,-0.00390625,0,0,0,,0,376,376,126,1,
,,,,,,,,,,,,,,,,,,5ee379c2c1832e050bac5c14,2020-11-27_15h09.13.302,lexical_decision_task_MP_exp2,2020.2.5,Win32,60,m,1,0.617,,,,,,,,0.617,1,,,,,,118,WORD,"ID",16,flight,FLIGHT,m,,,,,,0.313802083,-0.00390625,0,0,0,,0,377,377,117,1,
,,,,,,,,,,,,,,,,,,5ee379c2c1832e050bac5c14,2020-11-27_15h09.13.302,lexical_decision_task_MP_exp2,2020.2.5,Win32,60,z,0,0.584,,,,,,,,0.584,0,,,,,,166,WORD,UN,33,design,STARCH,m,,,,,,0.313802083,-0.00390625,0,0,0,,0,378,378,165,1,
,,,,,,,,,,,,,,,,,,5ee379c2c1832e050bac5c14,2020-11-27_15h09.13.302,lexical_decision_task_MP_exp2,2020.2.5,Win32,60,m,1,0.623,,,,,,,,0.623,1,,,,,,240,WORD,UN,16,glance,FOREST,m,,,,,,0.313802083,-0.00390625,0,0,0,,0,379,379,239,1,
,,,,,,,,,,,,,,,,,,5ee379c2c1832e050bac5c14,2020-11-27_15h09.13.302,lexical_decision_task_MP_exp2,2020.2.5,Win32,60,z,1,0.602,,,,,,,,0.602,1,,,,,,302,NW,"ID",16,miluer,MILUER,z,,,,,,0.313802083,-0.00390625,0,0,0,,0,380,380,301,1,
,,,,,,,,,,,,,,,,,,5ee379c2c1832e050bac5c14,2020-11-27_15h09.13.302,lexical_decision_task_MP_exp2,2020.2.5,Win32,60,z,1,0.618,,,,,,,,0.618,1,,,,,,473,NW,UN,16,hablin,CRIBLE,z,,,,,,0.313802083,-0.00390625,0,0,0,,0,381,381,472,1,
,,,,,,,,,,,,,,,,,,5ee379c2c1832e050bac5c14,2020-11-27_15h09.13.302,lexical_decision_task_MP_exp2,2020.2.5,Win32,60,z,1,0.678,,,,,,,,0.678,1,,,,,,392,NW,UN,33,ganous,ROUNCY,z,,,,,,0.313802083,-0.00390625,0,0,0,,0,382,382,391,1,
,,,,,,,,,,,,,,,,,,5ee379c2c1832e050bac5c14,2020-11-27_15h09.13.302,lexical_decision_task_MP_exp2,2020.2.5,Win32,60,z,1,0.821,,,,,,,,0.821,1,,,,,,365,NW,UN,33,toshel,GUAIRT,z,,,,,,0.313802083,-0.00390625,0,0,0,,0,383,383,364,1,
,,,,,,,,,,,,,,,,,,5ee379c2c1832e050bac5c14,2020-11-27_15h09.13.302,lexical_decision_task_MP_exp2,2020.2.5,Win32,60,z,1,0.638,,,,,,,,0.638,1,,,,,,381,NW,UN,33,sarley,HUNIEK,z,,,,,,0.313802083,-0.00390625,0,0,0,,0,384,384,380,1,
,,,,,,,,,,,,,,,,,,5ee379c2c1832e050bac5c14,2020-11-27_15h09.13.302,lexical_decision_task_MP_exp2,2020.2.5,Win32,60,m,1,0.704,,,,,,,,0.704,1,,,,,,64,WORD,"ID",16,throne,THRONE,m,,,,,,0.313802083,-0.00390625,0,0,0,,0,385,385,63,1,
,,,,,,,,,,,,,,,,,,5ee379c2c1832e050bac5c14,2020-11-27_15h09.13.302,lexical_decision_task_MP_exp2,2020.2.5,Win32,60,z,1,0.605,,,,,,,,0.605,1,,,,,,280,NW,"ID",33,curbol,CURBOL,z,,,,,,0.313802083,-0.00390625,0,0,0,,0,386,386,279,1,
,,,,,,,,,,,,,,,,,,5ee379c2c1832e050bac5c14,2020-11-27_15h09.13.302,lexical_decision_task_MP_exp2,2020.2.5,Win32,60,z,1,0.94,,,,,,,,0.94,1,,,,,,445,NW,UN,16,runamo,MINKEL,z,,,,,,0.313802083,-0.00390625,0,0,0,,0,387,387,444,1,
,,,,,,,,,,,,,,,,,,5ee379c2c1832e050bac5c14,2020-11-27_15h09.13.302,lexical_decision_task_MP_exp2,2020.2.5,Win32,60,z,1,0.785,,,,,,,,0.785,1,,,,,,401,NW,UN,33,elopia,MUSTIL,z,,,,,,0.313802083,-0.00390625,0,0,0,,0,388,388,400,1,
,,,,,,,,,,,,,,,,,,5ee379c2c1832e050bac5c14,2020-11-27_15h09.13.302,lexical_decision_task_MP_exp2,2020.2.5,Win32,60,m,1,0.622,,,,,,,,0.622,1,,,,,,112,WORD,"ID",16,breath,BREATH,m,,,,,,0.313802083,-0.00390625,0,0,0,,0,389,389,111,1,
,,,,,,,,,,,,,,,,,,5ee379c2c1832e050bac5c14,2020-11-27_15h09.13.302,lexical_decision_task_MP_exp2,2020.2.5,Win32,60,m,1,0.702,,,,,,,,0.702,1,,,,,,217,WORD,UN,16,shrink,LIQUOR,m,,,,,,0.313802083,-0.00390625,0,0,0,,0,390,390,216,1,
,,,,,,,,,,,,,,,,,,5ee379c2c1832e050bac5c14,2020-11-27_15h09.13.302,lexical_decision_task_MP_exp2,2020.2.5,Win32,60,z,1,0.644,,,,,,,,0.644,1,,,,,,265,NW,"ID",33,distar,DISTAR,z,,,,,,0.313802083,-0.00390625,0,0,0,,0,391,391,264,1,
,,,,,,,,,,,,,,,,,,5ee379c2c1832e050bac5c14,2020-11-27_15h09.13.302,lexical_decision_task_MP_exp2,2020.2.5,Win32,60,m,1,0.652,,,,,,,,0.652,1,,,,,,165,WORD,UN,33,starch,INVEST,m,,,,,,0.313802083,-0.00390625,0,0,0,,0,392,392,164,1,
,,,,,,,,,,,,,,,,,,5ee379c2c1832e050bac5c14,2020-11-27_15h09.13.302,lexical_decision_task_MP_exp2,2020.2.5,Win32,60,z,1,0.618,,,,,,,,0.618,1,,,,,,246,NW,"ID",33,piaton,PIATON,z,,,,,,0.313802083,-0.00390625,0,0,0,,0,393,393,245,1,
,,,,,,,,,,,,,,,,,,5ee379c2c1832e050bac5c14,2020-11-27_15h09.13.302,lexical_decision_task_MP_exp2,2020.2.5,Win32,60,z,1,0.703,,,,,,,,0.703,1,,,,,,479,NW,UN,16,josted,LOBUSH,z,,,,,,0.313802083,-0.00390625,0,0,0,,0,394,394,478,1,
,,,,,,,,,,,,,,,,,,5ee379c2c1832e050bac5c14,2020-11-27_15h09.13.302,lexical_decision_task_MP_exp2,2020.2.5,Win32,60,m,1,0.618,,,,,,,,0.618,1,,,,,,150,WORD,UN,33,mystic,RANDOM,m,,,,,,0.313802083,-0.00390625,0,0,0,,0,395,395,149,1,
,,,,,,,,,,,,,,,,,,5ee379c2c1832e050bac5c14,2020-11-27_15h09.13.302,lexical_decision_task_MP_exp2,2020.2.5,Win32,60,z,0,0.782,,,,,,,,0.782,0,,,,,,114,WORD,"ID",16,placid,PLACID,m,,,,,,0.313802083,-0.00390625,0,0,0,,0,396,396,113,1,
,,,,,,,,,,,,,,,,,,5ee379c2c1832e050bac5c14,2020-11-27_15h09.13.302,lexical_decision_task_MP_exp2,2020.2.5,Win32,60,m,1,0.724,,,,,,,,0.724,1,,,,,,100,WORD,"ID",16,carbon,CARBON,m,,,,,,0.313802083,-0.00390625,0,0,0,,0,397,397,99,1,
,,,,,,,,,,,,,,,,,,5ee379c2c1832e050bac5c14,2020-11-27_15h09.13.302,lexical_decision_task_MP_exp2,2020.2.5,Win32,60,m,1,0.601,,,,,,,,0.601,1,,,,,,177,WORD,UN,33,inform,ADVENT,m,,,,,,0.313802083,-0.00390625,0,0,0,,0,398,398,176,1,
,,,,,,,,,,,,,,,,,,5ee379c2c1832e050bac5c14,2020-11-27_15h09.13.302,lexical_decision_task_MP_exp2,2020.2.5,Win32,60,z,1,0.688,,,,,,,,0.688,1,,,,,,441,NW,UN,16,aboune,RASTOE,z,,,,,,0.313802083,-0.00390625,0,0,0,,0,399,399,440,1,
,,,,,,,,,,,,,,,,,,5ee379c2c1832e050bac5c14,2020-11-27_15h09.13.302,lexical_decision_task_MP_exp2,2020.2.5,Win32,60,z,1,0.695,,,,,,,,0.695,1,,,,,,374,NW,UN,33,yorque,SLIANT,z,,,,,,0.313802083,-0.00390625,0,0,0,,0,400,400,373,1,
,,,,,,,,,,,,,,,,,,5ee379c2c1832e050bac5c14,2020-11-27_15h09.13.302,lexical_decision_task_MP_exp2,2020.2.5,Win32,60,z,1,0.693,,,,,,,,0.693,1,,,,,,311,NW,"ID",16,sproly,SPROLY,z,,,,,,0.313802083,-0.00390625,0,0,0,,0,401,401,310,1,
,,,,,,,,,,,,,,,,,,5ee379c2c1832e050bac5c14,2020-11-27_15h09.13.302,lexical_decision_task_MP_exp2,2020.2.5,Win32,60,z,1,0.701,,,,,,,,0.701,1,,,,,,316,NW,"ID",16,scregm,SCREGM,z,,,,,,0.313802083,-0.00390625,0,0,0,,0,402,402,315,1,
,,,,,,,,,,,,,,,,,,5ee379c2c1832e050bac5c14,2020-11-27_15h09.13.302,lexical_decision_task_MP_exp2,2020.2.5,Win32,60,m,1,0.593,,,,,,,,0.593,1,,,,,,121,WORD,UN,33,linger,THRIVE,m,,,,,,0.313802083,-0.00390625,0,0,0,,0,403,403,120,1,
,,,,,,,,,,,,,,,,,,5ee379c2c1832e050bac5c14,2020-11-27_15h09.13.302,lexical_decision_task_MP_exp2,2020.2.5,Win32,60,m,1,0.838,,,,,,,,0.838,1,,,,,,146,WORD,UN,33,garlic,COUPLE,m,,,,,,0.313802083,-0.00390625,0,0,0,,0,404,404,145,1,
,,,,,,,,,,,,,,,,,,5ee379c2c1832e050bac5c14,2020-11-27_15h09.13.302,lexical_decision_task_MP_exp2,2020.2.5,Win32,60,z,1,0.601,,,,,,,,0.601,1,,,,,,465,NW,UN,16,hocite,WHIVEX,z,,,,,,0.313802083,-0.00390625,0,0,0,,0,405,405,464,1,
