counterbalancing_condition,instr_done_keyboard.keys,instr_done_keyboard.rt,instr_done_touch.x,instr_done_touch.y,instr_done_touch.leftButton,instr_done_touch.midButton,instr_done_touch.rightButton,instruction_pages.thisRepN,instruction_pages.thisTrialN,instruction_pages.thisN,instruction_pages.thisIndex,instruction_pages.ran,pageN,phase,instruct_text,has_image,instruct_image,participant,date,expName,psychopyVersion,OS,frameRate,instr_done_touch.clicked_name,response.keys,response.corr,response.rt,touch_resp.x,touch_resp.y,touch_resp.leftButton,touch_resp.midButton,touch_resp.rightButton,touch_resp.time,touch_resp.clicked_name,rt,corr,practice_trials.thisRepN,practice_trials.thisTrialN,practice_trials.thisN,practice_trials.thisIndex,practice_trials.ran,TrialID,StimulusType,Condition,PrimeDuration,Prime,Target,corrAns,end_of_practice_trials_pages.thisRepN,end_of_practice_trials_pages.thisTrialN,end_of_practice_trials_pages.thisN,end_of_practice_trials_pages.thisIndex,end_of_practice_trials_pages.ran,break_done_touch.x,break_done_touch.y,break_done_touch.leftButton,break_done_touch.midButton,break_done_touch.rightButton,break_done_keyboard.keys,experiment_trials.thisRepN,experiment_trials.thisTrialN,experiment_trials.thisN,experiment_trials.thisIndex,experiment_trials.ran,break_done_keyboard.rt
1,space,17.84127,0.017361111,-0.390277778,0,0,0,0,0,0,0,1,1,instructions,"INSTRUCTIONS
At the start of each trial, look at the hash marks (######) in the center of the screen. After a moment, a string of letters will appear. Your task is to indicate if the letter string forms a word or not (i.e., if it is a nonword). For example, AUTHOR is a word while AUTHON is a nonword.

Press the space bar or touch the button below to continue.",0,,5eeb6916424ca42d92eac0f9,2020-11-27_11h31.19.750,lexical_decision_task_MP_exp2,2020.2.5,Win32,60,,,,,,,,,,,,,,,,,,,,,,,,,,,,,,,,,,,,,,,,,,
,,,0.01875,-0.40625,1,0,0,0,1,1,1,1,2,instructions,"If your device has a keyboard, press the 'Z' key for nonwords and the 'M' key for words.





Press the space bar or touch the button below to continue.",1,keyboard-example.gif,5eeb6916424ca42d92eac0f9,2020-11-27_11h31.19.750,lexical_decision_task_MP_exp2,2020.2.5,Win32,60,instr_done_button,,,,,,,,,,,,,,,,,,,,,,,,,,,,,,,,,,,,,,,,,
,,,0.008333333,-0.402083333,1,0,0,0,2,2,2,1,3,instructions,"If you are using a touchscreen only device, use the buttons on the screen. Do not use the mouse.





Press the space bar or touch the button below to continue.",1,touchscreen-example.gif,5eeb6916424ca42d92eac0f9,2020-11-27_11h31.19.750,lexical_decision_task_MP_exp2,2020.2.5,Win32,60,instr_done_button,,,,,,,,,,,,,,,,,,,,,,,,,,,,,,,,,,,,,,,,,
,space,15.24677,0.014583333,-0.260416667,0,0,0,0,3,3,3,1,4,instructions,"It is very important that you respond as quickly and accurately as possible, as each letter string will only be on the screen for two seconds. If you do not respond within this time, the message 'Too slow!' will be displayed and the experiment will progress to the next letter string. The first 20 trials will be practice trials and you will receive feedback on your answers. 

Press the space bar or touch the button below to start the practice trials.",0,,5eeb6916424ca42d92eac0f9,2020-11-27_11h31.19.750,lexical_decision_task_MP_exp2,2020.2.5,Win32,60,,,,,,,,,,,,,,,,,,,,,,,,,,,,,,,,,,,,,,,,,,
,,,,,,,,,,,,,,,,,,5eeb6916424ca42d92eac0f9,2020-11-27_11h31.19.750,lexical_decision_task_MP_exp2,2020.2.5,Win32,60,,z,1,1.532455,,,,,,,,1.532455,1,0,0,0,8,1,1009,NW,"ID",33,aslert,ASLERT,z,,,,,,,,,,,,,,,,,
,,,,,,,,,,,,,,,,,,5eeb6916424ca42d92eac0f9,2020-11-27_11h31.19.750,lexical_decision_task_MP_exp2,2020.2.5,Win32,60,,m,1,0.86042,,,,,,,,0.86042,1,0,1,1,6,1,1007,WORD,UN,16,tropic,ZOMBIE,m,,,,,,,,,,,,,,,,,
,,,,,,,,,,,,,,,,,,5eeb6916424ca42d92eac0f9,2020-11-27_11h31.19.750,lexical_decision_task_MP_exp2,2020.2.5,Win32,60,,m,1,0.640135,,,,,,,,0.640135,1,0,2,2,2,1,1003,WORD,"ID",16,almond,ALMOND,m,,,,,,,,,,,,,,,,,
,,,,,,,,,,,,,,,,,,5eeb6916424ca42d92eac0f9,2020-11-27_11h31.19.750,lexical_decision_task_MP_exp2,2020.2.5,Win32,60,,z,1,1.061815,,,,,,,,1.061815,1,0,3,3,10,1,1011,NW,"ID",16,inlade,INLADE,z,,,,,,,,,,,,,,,,,
,,,,,,,,,,,,,,,,,,5eeb6916424ca42d92eac0f9,2020-11-27_11h31.19.750,lexical_decision_task_MP_exp2,2020.2.5,Win32,60,,z,1,1.05238,,,,,,,,1.05238,1,0,4,4,9,1,1010,NW,"ID",33,fariny,FARINY,z,,,,,,,,,,,,,,,,,
,,,,,,,,,,,,,,,,,,5eeb6916424ca42d92eac0f9,2020-11-27_11h31.19.750,lexical_decision_task_MP_exp2,2020.2.5,Win32,60,,m,1,0.61558,,,,,,,,0.61558,1,0,5,5,4,1,1005,WORD,UN,33,abound,SQUEAK,m,,,,,,,,,,,,,,,,,
,,,,,,,,,,,,,,,,,,5eeb6916424ca42d92eac0f9,2020-11-27_11h31.19.750,lexical_decision_task_MP_exp2,2020.2.5,Win32,60,,z,1,1.08737,,,,,,,,1.08737,1,0,6,6,14,1,1015,NW,UN,16,miaber,THRALE,z,,,,,,,,,,,,,,,,,
,,,,,,,,,,,,,,,,,,5eeb6916424ca42d92eac0f9,2020-11-27_11h31.19.750,lexical_decision_task_MP_exp2,2020.2.5,Win32,60,,z,1,0.754425,,,,,,,,0.754425,1,0,7,7,11,1,1012,NW,"ID",16,rashet,RASHET,z,,,,,,,,,,,,,,,,,
,,,,,,,,,,,,,,,,,,5eeb6916424ca42d92eac0f9,2020-11-27_11h31.19.750,lexical_decision_task_MP_exp2,2020.2.5,Win32,60,,z,1,0.832175,,,,,,,,0.832175,1,0,8,8,13,1,1014,NW,UN,33,winfer,ROUPET,z,,,,,,,,,,,,,,,,,
,,,,,,,,,,,,,,,,,,5eeb6916424ca42d92eac0f9,2020-11-27_11h31.19.750,lexical_decision_task_MP_exp2,2020.2.5,Win32,60,,m,1,1.06611,,,,,,,,1.06611,1,0,9,9,7,1,1008,WORD,UN,16,hurdle,VOLUME,m,,,,,,,,,,,,,,,,,
,,,,,,,,,,,,,,,,,,5eeb6916424ca42d92eac0f9,2020-11-27_11h31.19.750,lexical_decision_task_MP_exp2,2020.2.5,Win32,60,,m,1,0.722995,,,,,,,,0.722995,1,0,10,10,3,1,1004,WORD,"ID",16,matrix,MATRIX,m,,,,,,,,,,,,,,,,,
,,,,,,,,,,,,,,,,,,5eeb6916424ca42d92eac0f9,2020-11-27_11h31.19.750,lexical_decision_task_MP_exp2,2020.2.5,Win32,60,,z,1,1.25106,,,,,,,,1.25106,1,0,11,11,15,1,1016,NW,UN,16,mushed,WHAISE,z,,,,,,,,,,,,,,,,,
,,,,,,,,,,,,,,,,,,5eeb6916424ca42d92eac0f9,2020-11-27_11h31.19.750,lexical_decision_task_MP_exp2,2020.2.5,Win32,60,,z,1,0.994195,,,,,,,,0.994195,1,0,12,12,12,1,1013,NW,UN,33,adveil,SPRINY,z,,,,,,,,,,,,,,,,,
,,,,,,,,,,,,,,,,,,5eeb6916424ca42d92eac0f9,2020-11-27_11h31.19.750,lexical_decision_task_MP_exp2,2020.2.5,Win32,60,,m,1,0.79,,,,,,,,0.79,1,0,13,13,0,1,1001,WORD,"ID",33,utopia,UTOPIA,m,,,,,,,,,,,,,,,,,
,,,,,,,,,,,,,,,,,,5eeb6916424ca42d92eac0f9,2020-11-27_11h31.19.750,lexical_decision_task_MP_exp2,2020.2.5,Win32,60,,m,1,0.611745,,,,,,,,0.611745,1,0,14,14,1,1,1002,WORD,"ID",33,adjust,ADJUST,m,,,,,,,,,,,,,,,,,
,,,,,,,,,,,,,,,,,,5eeb6916424ca42d92eac0f9,2020-11-27_11h31.19.750,lexical_decision_task_MP_exp2,2020.2.5,Win32,60,,m,1,0.616235,,,,,,,,0.616235,1,0,15,15,5,1,1006,WORD,UN,33,frenzy,OBTAIN,m,,,,,,,,,,,,,,,,,
,space,21.273705,-0.115277778,-0.254861111,0,0,0,,,,,,1,end_of_practice,"You have completed the practice trials. During the experimental trials, you will not receive feedback, but it is very important that you respond as quickly and accurately as possible. 
Before you begin, please ensure that you are in a comfortable and quiet location and will not be disturbed for about 15 minutes, as we cannot use your data if you do not complete all the trials. 
There will be opportunities to take breaks at regular intervals during the experiment. When you are ready to start the experimental trials, please press space or touch the button below.",,,5eeb6916424ca42d92eac0f9,2020-11-27_11h31.19.750,lexical_decision_task_MP_exp2,2020.2.5,Win32,60,,,,,,,,,,,,,,,,,,,,,,,,,,0,0,0,0,1,,,,,,,,,,,,
,,,,,,,,,,,,,,,,,,5eeb6916424ca42d92eac0f9,2020-11-27_11h31.19.750,lexical_decision_task_MP_exp2,2020.2.5,Win32,60,,m,1,0.671785,,,,,,,,0.671785,1,,,,,,66,WORD,"ID",16,gospel,GOSPEL,m,,,,,,-0.115277778,-0.254861111,0,0,0,,0,0,0,65,1,
,,,,,,,,,,,,,,,,,,5eeb6916424ca42d92eac0f9,2020-11-27_11h31.19.750,lexical_decision_task_MP_exp2,2020.2.5,Win32,60,,m,1,0.55491,,,,,,,,0.55491,1,,,,,,215,WORD,UN,16,behalf,PHOBIA,m,,,,,,-0.115277778,-0.254861111,0,0,0,,0,1,1,214,1,
,,,,,,,,,,,,,,,,,,5eeb6916424ca42d92eac0f9,2020-11-27_11h31.19.750,lexical_decision_task_MP_exp2,2020.2.5,Win32,60,,z,1,1.01908,,,,,,,,1.01908,1,,,,,,426,NW,UN,16,frudge,URIVEL,z,,,,,,-0.115277778,-0.254861111,0,0,0,,0,2,2,425,1,
,,,,,,,,,,,,,,,,,,5eeb6916424ca42d92eac0f9,2020-11-27_11h31.19.750,lexical_decision_task_MP_exp2,2020.2.5,Win32,60,,m,1,0.68141,,,,,,,,0.68141,1,,,,,,223,WORD,UN,16,period,KIDNEY,m,,,,,,-0.115277778,-0.254861111,0,0,0,,0,3,3,222,1,
,,,,,,,,,,,,,,,,,,5eeb6916424ca42d92eac0f9,2020-11-27_11h31.19.750,lexical_decision_task_MP_exp2,2020.2.5,Win32,60,,z,1,0.739485,,,,,,,,0.739485,1,,,,,,262,NW,"ID",33,quilew,QUILEW,z,,,,,,-0.115277778,-0.254861111,0,0,0,,0,4,4,261,1,
,,,,,,,,,,,,,,,,,,5eeb6916424ca42d92eac0f9,2020-11-27_11h31.19.750,lexical_decision_task_MP_exp2,2020.2.5,Win32,60,,z,1,0.838595,,,,,,,,0.838595,1,,,,,,413,NW,UN,33,serbol,EQUATS,z,,,,,,-0.115277778,-0.254861111,0,0,0,,0,5,5,412,1,
,,,,,,,,,,,,,,,,,,5eeb6916424ca42d92eac0f9,2020-11-27_11h31.19.750,lexical_decision_task_MP_exp2,2020.2.5,Win32,60,,z,1,0.66385,,,,,,,,0.66385,1,,,,,,331,NW,"ID",16,gilfew,GILFEW,z,,,,,,-0.115277778,-0.254861111,0,0,0,,0,6,6,330,1,
,,,,,,,,,,,,,,,,,,5eeb6916424ca42d92eac0f9,2020-11-27_11h31.19.750,lexical_decision_task_MP_exp2,2020.2.5,Win32,60,,m,1,0.62687,,,,,,,,0.62687,1,,,,,,89,WORD,"ID",16,permit,PERMIT,m,,,,,,-0.115277778,-0.254861111,0,0,0,,0,7,7,88,1,
,,,,,,,,,,,,,,,,,,5eeb6916424ca42d92eac0f9,2020-11-27_11h31.19.750,lexical_decision_task_MP_exp2,2020.2.5,Win32,60,,m,1,0.609055,,,,,,,,0.609055,1,,,,,,147,WORD,UN,33,custom,GARLIC,m,,,,,,-0.115277778,-0.254861111,0,0,0,,0,8,8,146,1,
,,,,,,,,,,,,,,,,,,5eeb6916424ca42d92eac0f9,2020-11-27_11h31.19.750,lexical_decision_task_MP_exp2,2020.2.5,Win32,60,,z,1,0.855025,,,,,,,,0.855025,1,,,,,,381,NW,UN,33,sarley,HUNIEK,z,,,,,,-0.115277778,-0.254861111,0,0,0,,0,9,9,380,1,
,,,,,,,,,,,,,,,,,,5eeb6916424ca42d92eac0f9,2020-11-27_11h31.19.750,lexical_decision_task_MP_exp2,2020.2.5,Win32,60,,m,1,0.76541,,,,,,,,0.76541,1,,,,,,55,WORD,"ID",33,stroke,STROKE,m,,,,,,-0.115277778,-0.254861111,0,0,0,,0,10,10,54,1,
,,,,,,,,,,,,,,,,,,5eeb6916424ca42d92eac0f9,2020-11-27_11h31.19.750,lexical_decision_task_MP_exp2,2020.2.5,Win32,60,,z,1,0.714535,,,,,,,,0.714535,1,,,,,,406,NW,UN,33,suiver,NOUPLY,z,,,,,,-0.115277778,-0.254861111,0,0,0,,0,11,11,405,1,
,,,,,,,,,,,,,,,,,,5eeb6916424ca42d92eac0f9,2020-11-27_11h31.19.750,lexical_decision_task_MP_exp2,2020.2.5,Win32,60,,z,1,0.715835,,,,,,,,0.715835,1,,,,,,459,NW,UN,16,mingar,BAFENT,z,,,,,,-0.115277778,-0.254861111,0,0,0,,0,12,12,458,1,
,,,,,,,,,,,,,,,,,,5eeb6916424ca42d92eac0f9,2020-11-27_11h31.19.750,lexical_decision_task_MP_exp2,2020.2.5,Win32,60,,m,1,0.69558,,,,,,,,0.69558,1,,,,,,68,WORD,"ID",16,fumble,FUMBLE,m,,,,,,-0.115277778,-0.254861111,0,0,0,,0,13,13,67,1,
,,,,,,,,,,,,,,,,,,5eeb6916424ca42d92eac0f9,2020-11-27_11h31.19.750,lexical_decision_task_MP_exp2,2020.2.5,Win32,60,,m,1,0.654215,,,,,,,,0.654215,1,,,,,,49,WORD,"ID",33,survey,SURVEY,m,,,,,,-0.115277778,-0.254861111,0,0,0,,0,14,14,48,1,
,,,,,,,,,,,,,,,,,,5eeb6916424ca42d92eac0f9,2020-11-27_11h31.19.750,lexical_decision_task_MP_exp2,2020.2.5,Win32,60,,z,1,0.75422,,,,,,,,0.75422,1,,,,,,409,NW,UN,33,tunory,ELOPIA,z,,,,,,-0.115277778,-0.254861111,0,0,0,,0,15,15,408,1,
,,,,,,,,,,,,,,,,,,5eeb6916424ca42d92eac0f9,2020-11-27_11h31.19.750,lexical_decision_task_MP_exp2,2020.2.5,Win32,60,,m,1,0.981325,,,,,,,,0.981325,1,,,,,,122,WORD,UN,33,strike,LINGER,m,,,,,,-0.115277778,-0.254861111,0,0,0,,0,16,16,121,1,
,,,,,,,,,,,,,,,,,,5eeb6916424ca42d92eac0f9,2020-11-27_11h31.19.750,lexical_decision_task_MP_exp2,2020.2.5,Win32,60,,m,0,0.95054,,,,,,,,0.95054,0,,,,,,375,NW,UN,33,iguare,YORQUE,z,,,,,,-0.115277778,-0.254861111,0,0,0,,0,17,17,374,1,
,,,,,,,,,,,,,,,,,,5eeb6916424ca42d92eac0f9,2020-11-27_11h31.19.750,lexical_decision_task_MP_exp2,2020.2.5,Win32,60,,z,1,0.87173,,,,,,,,0.87173,1,,,,,,452,NW,UN,16,bolvis,SURDEN,z,,,,,,-0.115277778,-0.254861111,0,0,0,,0,18,18,451,1,
,,,,,,,,,,,,,,,,,,5eeb6916424ca42d92eac0f9,2020-11-27_11h31.19.750,lexical_decision_task_MP_exp2,2020.2.5,Win32,60,,m,1,0.66442,,,,,,,,0.66442,1,,,,,,9,WORD,"ID",33,hustle,HUSTLE,m,,,,,,-0.115277778,-0.254861111,0,0,0,,0,19,19,8,1,
,,,,,,,,,,,,,,,,,,5eeb6916424ca42d92eac0f9,2020-11-27_11h31.19.750,lexical_decision_task_MP_exp2,2020.2.5,Win32,60,,m,0,1.320455,,,,,,,,1.320455,0,,,,,,314,NW,"ID",16,sprine,SPRINE,z,,,,,,-0.115277778,-0.254861111,0,0,0,,0,20,20,313,1,
,,,,,,,,,,,,,,,,,,5eeb6916424ca42d92eac0f9,2020-11-27_11h31.19.750,lexical_decision_task_MP_exp2,2020.2.5,Win32,60,,m,1,0.96537,,,,,,,,0.96537,1,,,,,,219,WORD,UN,16,voyage,BUCKET,m,,,,,,-0.115277778,-0.254861111,0,0,0,,0,21,21,218,1,
,,,,,,,,,,,,,,,,,,5eeb6916424ca42d92eac0f9,2020-11-27_11h31.19.750,lexical_decision_task_MP_exp2,2020.2.5,Win32,60,,z,1,0.91573,,,,,,,,0.91573,1,,,,,,267,NW,"ID",33,pasink,PASINK,z,,,,,,-0.115277778,-0.254861111,0,0,0,,0,22,22,266,1,
,,,,,,,,,,,,,,,,,,5eeb6916424ca42d92eac0f9,2020-11-27_11h31.19.750,lexical_decision_task_MP_exp2,2020.2.5,Win32,60,,m,1,0.616705,,,,,,,,0.616705,1,,,,,,112,WORD,"ID",16,breath,BREATH,m,,,,,,-0.115277778,-0.254861111,0,0,0,,0,23,23,111,1,
,,,,,,,,,,,,,,,,,,5eeb6916424ca42d92eac0f9,2020-11-27_11h31.19.750,lexical_decision_task_MP_exp2,2020.2.5,Win32,60,,m,1,0.62366,,,,,,,,0.62366,1,,,,,,136,WORD,UN,33,finger,BLEACH,m,,,,,,-0.115277778,-0.254861111,0,0,0,,0,24,24,135,1,
,,,,,,,,,,,,,,,,,,5eeb6916424ca42d92eac0f9,2020-11-27_11h31.19.750,lexical_decision_task_MP_exp2,2020.2.5,Win32,60,,m,0,0.66704,,,,,,,,0.66704,0,,,,,,437,NW,UN,16,baitch,SNAPEL,z,,,,,,-0.115277778,-0.254861111,0,0,0,,0,25,25,436,1,
,,,,,,,,,,,,,,,,,,5eeb6916424ca42d92eac0f9,2020-11-27_11h31.19.750,lexical_decision_task_MP_exp2,2020.2.5,Win32,60,,m,0,1.410175,,,,,,,,1.410175,0,,,,,,325,NW,"ID",16,thruse,THRUSE,z,,,,,,-0.115277778,-0.254861111,0,0,0,,0,26,26,324,1,
,,,,,,,,,,,,,,,,,,5eeb6916424ca42d92eac0f9,2020-11-27_11h31.19.750,lexical_decision_task_MP_exp2,2020.2.5,Win32,60,,z,1,1.338535,,,,,,,,1.338535,1,,,,,,444,NW,UN,16,minkel,JAUNCE,z,,,,,,-0.115277778,-0.254861111,0,0,0,,0,27,27,443,1,
,,,,,,,,,,,,,,,,,,5eeb6916424ca42d92eac0f9,2020-11-27_11h31.19.750,lexical_decision_task_MP_exp2,2020.2.5,Win32,60,,m,1,0.63632,,,,,,,,0.63632,1,,,,,,35,WORD,"ID",33,socket,SOCKET,m,,,,,,-0.115277778,-0.254861111,0,0,0,,0,28,28,34,1,
,,,,,,,,,,,,,,,,,,5eeb6916424ca42d92eac0f9,2020-11-27_11h31.19.750,lexical_decision_task_MP_exp2,2020.2.5,Win32,60,,m,1,0.54348,,,,,,,,0.54348,1,,,,,,3,WORD,"ID",33,knight,KNIGHT,m,,,,,,-0.115277778,-0.254861111,0,0,0,,0,29,29,2,1,
,,,,,,,,,,,,,,,,,,5eeb6916424ca42d92eac0f9,2020-11-27_11h31.19.750,lexical_decision_task_MP_exp2,2020.2.5,Win32,60,,m,1,0.725815,,,,,,,,0.725815,1,,,,,,59,WORD,"ID",33,splint,SPLINT,m,,,,,,-0.115277778,-0.254861111,0,0,0,,0,30,30,58,1,
,,,,,,,,,,,,,,,,,,5eeb6916424ca42d92eac0f9,2020-11-27_11h31.19.750,lexical_decision_task_MP_exp2,2020.2.5,Win32,60,,z,1,0.827395,,,,,,,,0.827395,1,,,,,,355,NW,"ID",16,zingly,ZINGLY,z,,,,,,-0.115277778,-0.254861111,0,0,0,,0,31,31,354,1,
,,,,,,,,,,,,,,,,,,5eeb6916424ca42d92eac0f9,2020-11-27_11h31.19.750,lexical_decision_task_MP_exp2,2020.2.5,Win32,60,,z,1,0.923725,,,,,,,,0.923725,1,,,,,,465,NW,UN,16,hocite,WHIVEX,z,,,,,,-0.115277778,-0.254861111,0,0,0,,0,32,32,464,1,
,,,,,,,,,,,,,,,,,,5eeb6916424ca42d92eac0f9,2020-11-27_11h31.19.750,lexical_decision_task_MP_exp2,2020.2.5,Win32,60,,m,1,0.600515,,,,,,,,0.600515,1,,,,,,239,WORD,UN,16,forest,LUMBER,m,,,,,,-0.115277778,-0.254861111,0,0,0,,0,33,33,238,1,
,,,,,,,,,,,,,,,,,,5eeb6916424ca42d92eac0f9,2020-11-27_11h31.19.750,lexical_decision_task_MP_exp2,2020.2.5,Win32,60,,z,1,0.647355,,,,,,,,0.647355,1,,,,,,282,NW,"ID",33,porlex,PORLEX,z,,,,,,-0.115277778,-0.254861111,0,0,0,,0,34,34,281,1,
,,,,,,,,,,,,,,,,,,5eeb6916424ca42d92eac0f9,2020-11-27_11h31.19.750,lexical_decision_task_MP_exp2,2020.2.5,Win32,60,,m,1,0.642845,,,,,,,,0.642845,1,,,,,,227,WORD,UN,16,master,SELDOM,m,,,,,,-0.115277778,-0.254861111,0,0,0,,0,35,35,226,1,
,,,,,,,,,,,,,,,,,,5eeb6916424ca42d92eac0f9,2020-11-27_11h31.19.750,lexical_decision_task_MP_exp2,2020.2.5,Win32,60,,m,1,0.87032,,,,,,,,0.87032,1,,,,,,165,WORD,UN,33,starch,INVEST,m,,,,,,-0.115277778,-0.254861111,0,0,0,,0,36,36,164,1,
,,,,,,,,,,,,,,,,,,5eeb6916424ca42d92eac0f9,2020-11-27_11h31.19.750,lexical_decision_task_MP_exp2,2020.2.5,Win32,60,,z,1,0.657805,,,,,,,,0.657805,1,,,,,,479,NW,UN,16,josted,LOBUSH,z,,,,,,-0.115277778,-0.254861111,0,0,0,,0,37,37,478,1,
,,,,,,,,,,,,,,,,,,5eeb6916424ca42d92eac0f9,2020-11-27_11h31.19.750,lexical_decision_task_MP_exp2,2020.2.5,Win32,60,,m,1,0.61373,,,,,,,,0.61373,1,,,,,,110,WORD,"ID",16,polite,POLITE,m,,,,,,-0.115277778,-0.254861111,0,0,0,,0,38,38,109,1,
,,,,,,,,,,,,,,,,,,5eeb6916424ca42d92eac0f9,2020-11-27_11h31.19.750,lexical_decision_task_MP_exp2,2020.2.5,Win32,60,,m,1,0.577875,,,,,,,,0.577875,1,,,,,,205,WORD,UN,16,tailor,LOUNGE,m,,,,,,-0.115277778,-0.254861111,0,0,0,,0,39,39,204,1,
,,,,,,,,,,,,,,,,,,5eeb6916424ca42d92eac0f9,2020-11-27_11h31.19.750,lexical_decision_task_MP_exp2,2020.2.5,Win32,60,,m,1,0.66404,,,,,,,,0.66404,1,,,,,,36,WORD,"ID",33,vanish,VANISH,m,,,,,,-0.115277778,-0.254861111,0,0,0,,0,40,40,35,1,
,,,,,,,,,,,,,,,,,,5eeb6916424ca42d92eac0f9,2020-11-27_11h31.19.750,lexical_decision_task_MP_exp2,2020.2.5,Win32,60,,m,1,0.492025,,,,,,,,0.492025,1,,,,,,65,WORD,"ID",16,symbol,SYMBOL,m,,,,,,-0.115277778,-0.254861111,0,0,0,,0,41,41,64,1,
,,,,,,,,,,,,,,,,,,5eeb6916424ca42d92eac0f9,2020-11-27_11h31.19.750,lexical_decision_task_MP_exp2,2020.2.5,Win32,60,,m,0,0.493085,,,,,,,,0.493085,0,,,,,,248,NW,"ID",33,strole,STROLE,z,,,,,,-0.115277778,-0.254861111,0,0,0,,0,42,42,247,1,
,,,,,,,,,,,,,,,,,,5eeb6916424ca42d92eac0f9,2020-11-27_11h31.19.750,lexical_decision_task_MP_exp2,2020.2.5,Win32,60,,z,1,0.75261,,,,,,,,0.75261,1,,,,,,423,NW,UN,16,praile,STRELD,z,,,,,,-0.115277778,-0.254861111,0,0,0,,0,43,43,422,1,
,,,,,,,,,,,,,,,,,,5eeb6916424ca42d92eac0f9,2020-11-27_11h31.19.750,lexical_decision_task_MP_exp2,2020.2.5,Win32,60,,m,1,1.02678,,,,,,,,1.02678,1,,,,,,20,WORD,"ID",33,breast,BREAST,m,,,,,,-0.115277778,-0.254861111,0,0,0,,0,44,44,19,1,
,,,,,,,,,,,,,,,,,,5eeb6916424ca42d92eac0f9,2020-11-27_11h31.19.750,lexical_decision_task_MP_exp2,2020.2.5,Win32,60,,m,1,0.680955,,,,,,,,0.680955,1,,,,,,225,WORD,UN,16,kidney,VULGAR,m,,,,,,-0.115277778,-0.254861111,0,0,0,,0,45,45,224,1,
,,,,,,,,,,,,,,,,,,5eeb6916424ca42d92eac0f9,2020-11-27_11h31.19.750,lexical_decision_task_MP_exp2,2020.2.5,Win32,60,,z,1,0.811655,,,,,,,,0.811655,1,,,,,,347,NW,"ID",16,kerift,KERIFT,z,,,,,,-0.115277778,-0.254861111,0,0,0,,0,46,46,346,1,
,,,,,,,,,,,,,,,,,,5eeb6916424ca42d92eac0f9,2020-11-27_11h31.19.750,lexical_decision_task_MP_exp2,2020.2.5,Win32,60,,z,1,0.925415,,,,,,,,0.925415,1,,,,,,286,NW,"ID",33,reldon,RELDON,z,,,,,,-0.115277778,-0.254861111,0,0,0,,0,47,47,285,1,
,,,,,,,,,,,,,,,,,,5eeb6916424ca42d92eac0f9,2020-11-27_11h31.19.750,lexical_decision_task_MP_exp2,2020.2.5,Win32,60,,z,1,0.75913,,,,,,,,0.75913,1,,,,,,335,NW,"ID",16,desion,DESION,z,,,,,,-0.115277778,-0.254861111,0,0,0,,0,48,48,334,1,
,,,,,,,,,,,,,,,,,,5eeb6916424ca42d92eac0f9,2020-11-27_11h31.19.750,lexical_decision_task_MP_exp2,2020.2.5,Win32,60,,m,1,0.774005,,,,,,,,0.774005,1,,,,,,82,WORD,"ID",16,stigma,STIGMA,m,,,,,,-0.115277778,-0.254861111,0,0,0,,0,49,49,81,1,
,,,,,,,,,,,,,,,,,,5eeb6916424ca42d92eac0f9,2020-11-27_11h31.19.750,lexical_decision_task_MP_exp2,2020.2.5,Win32,60,,m,1,0.823565,,,,,,,,0.823565,1,,,,,,166,WORD,UN,33,design,STARCH,m,,,,,,-0.115277778,-0.254861111,0,0,0,,0,50,50,165,1,
,,,,,,,,,,,,,,,,,,5eeb6916424ca42d92eac0f9,2020-11-27_11h31.19.750,lexical_decision_task_MP_exp2,2020.2.5,Win32,60,,z,1,1.09156,,,,,,,,1.09156,1,,,,,,410,NW,UN,33,orchin,TUNORY,z,,,,,,-0.115277778,-0.254861111,0,0,0,,0,51,51,409,1,
,,,,,,,,,,,,,,,,,,5eeb6916424ca42d92eac0f9,2020-11-27_11h31.19.750,lexical_decision_task_MP_exp2,2020.2.5,Win32,60,,m,1,0.660185,,,,,,,,0.660185,1,,,,,,7,WORD,"ID",33,anchor,ANCHOR,m,,,,,,-0.115277778,-0.254861111,0,0,0,,0,52,52,6,1,
,,,,,,,,,,,,,,,,,,5eeb6916424ca42d92eac0f9,2020-11-27_11h31.19.750,lexical_decision_task_MP_exp2,2020.2.5,Win32,60,,z,1,0.674035,,,,,,,,0.674035,1,,,,,,263,NW,"ID",33,dolica,DOLICA,z,,,,,,-0.115277778,-0.254861111,0,0,0,,0,53,53,262,1,
,,,,,,,,,,,,,,,,,,5eeb6916424ca42d92eac0f9,2020-11-27_11h31.19.750,lexical_decision_task_MP_exp2,2020.2.5,Win32,60,,m,1,0.624225,,,,,,,,0.624225,1,,,,,,27,WORD,"ID",33,scream,SCREAM,m,,,,,,-0.115277778,-0.254861111,0,0,0,,0,54,54,26,1,
,,,,,,,,,,,,,,,,,,5eeb6916424ca42d92eac0f9,2020-11-27_11h31.19.750,lexical_decision_task_MP_exp2,2020.2.5,Win32,60,,m,1,0.71954,,,,,,,,0.71954,1,,,,,,150,WORD,UN,33,mystic,RANDOM,m,,,,,,-0.115277778,-0.254861111,0,0,0,,0,55,55,149,1,
,,,,,,,,,,,,,,,,,,5eeb6916424ca42d92eac0f9,2020-11-27_11h31.19.750,lexical_decision_task_MP_exp2,2020.2.5,Win32,60,,m,1,0.62361,,,,,,,,0.62361,1,,,,,,238,WORD,UN,16,grumpy,FLOWER,m,,,,,,-0.115277778,-0.254861111,0,0,0,,0,56,56,237,1,
,,,,,,,,,,,,,,,,,,5eeb6916424ca42d92eac0f9,2020-11-27_11h31.19.750,lexical_decision_task_MP_exp2,2020.2.5,Win32,60,,m,0,0.66873,,,,,,,,0.66873,0,,,,,,434,NW,UN,16,impurb,PITROM,z,,,,,,-0.115277778,-0.254861111,0,0,0,,0,57,57,433,1,
,,,,,,,,,,,,,,,,,,5eeb6916424ca42d92eac0f9,2020-11-27_11h31.19.750,lexical_decision_task_MP_exp2,2020.2.5,Win32,60,,m,1,0.51209,,,,,,,,0.51209,1,,,,,,169,WORD,UN,33,pounce,GENIUS,m,,,,,,-0.115277778,-0.254861111,0,0,0,,0,58,58,168,1,
,,,,,,,,,,,,,,,,,,5eeb6916424ca42d92eac0f9,2020-11-27_11h31.19.750,lexical_decision_task_MP_exp2,2020.2.5,Win32,60,,z,1,0.661145,,,,,,,,0.661145,1,,,,,,475,NW,UN,16,robuly,PEBRIC,z,,,,,,-0.115277778,-0.254861111,0,0,0,,0,59,59,474,1,
,,,,,,,,,,,,,,,,,,5eeb6916424ca42d92eac0f9,2020-11-27_11h31.19.750,lexical_decision_task_MP_exp2,2020.2.5,Win32,60,,m,1,0.716625,,,,,,,,0.716625,1,,,,,,155,WORD,UN,33,cradle,LIZARD,m,,,,,,-0.115277778,-0.254861111,0,0,0,,0,60,60,154,1,
,,,,,,,,,,,,,,,,,,5eeb6916424ca42d92eac0f9,2020-11-27_11h31.19.750,lexical_decision_task_MP_exp2,2020.2.5,Win32,60,,m,1,0.590265,,,,,,,,0.590265,1,,,,,,229,WORD,UN,16,fringe,MOTHER,m,,,,,,-0.115277778,-0.254861111,0,0,0,,0,61,61,228,1,
,,,,,,,,,,,,,,,,,,5eeb6916424ca42d92eac0f9,2020-11-27_11h31.19.750,lexical_decision_task_MP_exp2,2020.2.5,Win32,60,,m,1,0.63616,,,,,,,,0.63616,1,,,,,,149,WORD,UN,33,random,INVADE,m,,,,,,-0.115277778,-0.254861111,0,0,0,,0,62,62,148,1,
,,,,,,,,,,,,,,,,,,5eeb6916424ca42d92eac0f9,2020-11-27_11h31.19.750,lexical_decision_task_MP_exp2,2020.2.5,Win32,60,,z,1,0.61582,,,,,,,,0.61582,1,,,,,,366,NW,UN,33,slique,TOSHEL,z,,,,,,-0.115277778,-0.254861111,0,0,0,,0,63,63,365,1,
,,,,,,,,,,,,,,,,,,5eeb6916424ca42d92eac0f9,2020-11-27_11h31.19.750,lexical_decision_task_MP_exp2,2020.2.5,Win32,60,,m,1,0.82039,,,,,,,,0.82039,1,,,,,,95,WORD,"ID",16,thread,THREAD,m,,,,,,-0.115277778,-0.254861111,0,0,0,,0,64,64,94,1,
,,,,,,,,,,,,,,,,,,5eeb6916424ca42d92eac0f9,2020-11-27_11h31.19.750,lexical_decision_task_MP_exp2,2020.2.5,Win32,60,,z,1,0.795115,,,,,,,,0.795115,1,,,,,,342,NW,"ID",16,randow,RANDOW,z,,,,,,-0.115277778,-0.254861111,0,0,0,,0,65,65,341,1,
,,,,,,,,,,,,,,,,,,5eeb6916424ca42d92eac0f9,2020-11-27_11h31.19.750,lexical_decision_task_MP_exp2,2020.2.5,Win32,60,,z,1,0.59151,,,,,,,,0.59151,1,,,,,,271,NW,"ID",33,aubrid,AUBRID,z,,,,,,-0.115277778,-0.254861111,0,0,0,,0,66,66,270,1,
,,,,,,,,,,,,,,,,,,5eeb6916424ca42d92eac0f9,2020-11-27_11h31.19.750,lexical_decision_task_MP_exp2,2020.2.5,Win32,60,,m,1,0.64781,,,,,,,,0.64781,1,,,,,,232,WORD,UN,16,nature,INJECT,m,,,,,,-0.115277778,-0.254861111,0,0,0,,0,67,67,231,1,
,,,,,,,,,,,,,,,,,,5eeb6916424ca42d92eac0f9,2020-11-27_11h31.19.750,lexical_decision_task_MP_exp2,2020.2.5,Win32,60,,z,1,0.586295,,,,,,,,0.586295,1,,,,,,299,NW,"ID",33,sturch,STURCH,z,,,,,,-0.115277778,-0.254861111,0,0,0,,0,68,68,298,1,
,,,,,,,,,,,,,,,,,,5eeb6916424ca42d92eac0f9,2020-11-27_11h31.19.750,lexical_decision_task_MP_exp2,2020.2.5,Win32,60,,z,1,0.633425,,,,,,,,0.633425,1,,,,,,429,NW,UN,16,caroey,FUNTLE,z,,,,,,-0.115277778,-0.254861111,0,0,0,,0,69,69,428,1,
,,,,,,,,,,,,,,,,,,5eeb6916424ca42d92eac0f9,2020-11-27_11h31.19.750,lexical_decision_task_MP_exp2,2020.2.5,Win32,60,,z,1,0.59942,,,,,,,,0.59942,1,,,,,,256,NW,"ID",33,inlors,INLORS,z,,,,,,-0.115277778,-0.254861111,0,0,0,,0,70,70,255,1,
,,,,,,,,,,,,,,,,,,5eeb6916424ca42d92eac0f9,2020-11-27_11h31.19.750,lexical_decision_task_MP_exp2,2020.2.5,Win32,60,,m,1,0.63144,,,,,,,,0.63144,1,,,,,,103,WORD,"ID",16,bounce,BOUNCE,m,,,,,,-0.115277778,-0.254861111,0,0,0,,0,71,71,102,1,
,,,,,,,,,,,,,,,,,,5eeb6916424ca42d92eac0f9,2020-11-27_11h31.19.750,lexical_decision_task_MP_exp2,2020.2.5,Win32,60,,z,1,0.554385,,,,,,,,0.554385,1,,,,,,373,NW,UN,33,injore,BIGENT,z,,,,,,-0.115277778,-0.254861111,0,0,0,,0,72,72,372,1,
,,,,,,,,,,,,,,,,,,5eeb6916424ca42d92eac0f9,2020-11-27_11h31.19.750,lexical_decision_task_MP_exp2,2020.2.5,Win32,60,,z,1,0.90227,,,,,,,,0.90227,1,,,,,,328,NW,"ID",16,broake,BROAKE,z,,,,,,-0.115277778,-0.254861111,0,0,0,,0,73,73,327,1,
,,,,,,,,,,,,,,,,,,5eeb6916424ca42d92eac0f9,2020-11-27_11h31.19.750,lexical_decision_task_MP_exp2,2020.2.5,Win32,60,,m,1,0.870095,,,,,,,,0.870095,1,,,,,,207,WORD,UN,16,hockey,WREATH,m,,,,,,-0.115277778,-0.254861111,0,0,0,,0,74,74,206,1,
,,,,,,,,,,,,,,,,,,5eeb6916424ca42d92eac0f9,2020-11-27_11h31.19.750,lexical_decision_task_MP_exp2,2020.2.5,Win32,60,,m,1,0.600905,,,,,,,,0.600905,1,,,,,,220,WORD,UN,16,mascot,VOYAGE,m,,,,,,-0.115277778,-0.254861111,0,0,0,,0,75,75,219,1,
,,,,,,,,,,,,,,,,,,5eeb6916424ca42d92eac0f9,2020-11-27_11h31.19.750,lexical_decision_task_MP_exp2,2020.2.5,Win32,60,,m,1,0.723055,,,,,,,,0.723055,1,,,,,,88,WORD,"ID",16,hunger,HUNGER,m,,,,,,-0.115277778,-0.254861111,0,0,0,,0,76,76,87,1,
,,,,,,,,,,,,,,,,,,5eeb6916424ca42d92eac0f9,2020-11-27_11h31.19.750,lexical_decision_task_MP_exp2,2020.2.5,Win32,60,,z,1,0.865045,,,,,,,,0.865045,1,,,,,,276,NW,"ID",33,yarmon,YARMON,z,,,,,,-0.115277778,-0.254861111,0,0,0,,0,77,77,275,1,
,,,,,,,,,,,,,,,,,,5eeb6916424ca42d92eac0f9,2020-11-27_11h31.19.750,lexical_decision_task_MP_exp2,2020.2.5,Win32,60,,m,1,1.090095,,,,,,,,1.090095,1,,,,,,161,WORD,UN,33,candle,PASTOR,m,,,,,,-0.115277778,-0.254861111,0,0,0,,0,78,78,160,1,
,,,,,,,,,,,,,,,,,,5eeb6916424ca42d92eac0f9,2020-11-27_11h31.19.750,lexical_decision_task_MP_exp2,2020.2.5,Win32,60,,z,1,0.710755,,,,,,,,0.710755,1,,,,,,408,NW,UN,33,flumni,HURNIA,z,,,,,,-0.115277778,-0.254861111,0,0,0,,0,79,79,407,1,
,,,,,,,,,,,,,,,,,,5eeb6916424ca42d92eac0f9,2020-11-27_11h31.19.750,lexical_decision_task_MP_exp2,2020.2.5,Win32,60,,z,1,1.210865,,,,,,,,1.210865,1,,,,,,322,NW,"ID",16,slanch,SLANCH,z,,,,,,-0.115277778,-0.254861111,0,0,0,,0,80,80,321,1,
,,,,,,,,,,,,,,,,,,5eeb6916424ca42d92eac0f9,2020-11-27_11h31.19.750,lexical_decision_task_MP_exp2,2020.2.5,Win32,60,,z,1,1.807465,,,,,,,,1.807465,1,,,,,,461,NW,UN,16,absult,JUSTRE,z,,,,,,-0.115277778,-0.254861111,0,0,0,,0,81,81,460,1,
,,,,,,,,,,,,,,,,,,5eeb6916424ca42d92eac0f9,2020-11-27_11h31.19.750,lexical_decision_task_MP_exp2,2020.2.5,Win32,60,,m,1,0.600105,,,,,,,,0.600105,1,,,,,,187,WORD,UN,16,social,COURSE,m,,,,,,-0.115277778,-0.254861111,0,0,0,,0,82,82,186,1,
,,,,,,,,,,,,,,,,,,5eeb6916424ca42d92eac0f9,2020-11-27_11h31.19.750,lexical_decision_task_MP_exp2,2020.2.5,Win32,60,,m,1,1.10565,,,,,,,,1.10565,1,,,,,,42,WORD,"ID",33,chapel,CHAPEL,m,,,,,,-0.115277778,-0.254861111,0,0,0,,0,83,83,41,1,
,,,,,,,,,,,,,,,,,,5eeb6916424ca42d92eac0f9,2020-11-27_11h31.19.750,lexical_decision_task_MP_exp2,2020.2.5,Win32,60,,m,1,0.995955,,,,,,,,0.995955,1,,,,,,209,WORD,UN,16,monkey,SEARCH,m,,,,,,-0.115277778,-0.254861111,0,0,0,,0,84,84,208,1,
,,,,,,,,,,,,,,,,,,5eeb6916424ca42d92eac0f9,2020-11-27_11h31.19.750,lexical_decision_task_MP_exp2,2020.2.5,Win32,60,,z,1,0.833845,,,,,,,,0.833845,1,,,,,,264,NW,"ID",33,vackel,VACKEL,z,,,,,,-0.115277778,-0.254861111,0,0,0,,0,85,85,263,1,
,,,,,,,,,,,,,,,,,,5eeb6916424ca42d92eac0f9,2020-11-27_11h31.19.750,lexical_decision_task_MP_exp2,2020.2.5,Win32,60,,z,1,0.747795,,,,,,,,0.747795,1,,,,,,301,NW,"ID",16,fainch,FAINCH,z,,,,,,-0.115277778,-0.254861111,0,0,0,,0,86,86,300,1,
,,,,,,,,,,,,,,,,,,5eeb6916424ca42d92eac0f9,2020-11-27_11h31.19.750,lexical_decision_task_MP_exp2,2020.2.5,Win32,60,,m,1,0.545515,,,,,,,,0.545515,1,,,,,,38,WORD,"ID",33,powder,POWDER,m,,,,,,-0.115277778,-0.254861111,0,0,0,,0,87,87,37,1,
,,,,,,,,,,,,,,,,,,5eeb6916424ca42d92eac0f9,2020-11-27_11h31.19.750,lexical_decision_task_MP_exp2,2020.2.5,Win32,60,,m,1,0.52397,,,,,,,,0.52397,1,,,,,,81,WORD,"ID",16,friend,FRIEND,m,,,,,,-0.115277778,-0.254861111,0,0,0,,0,88,88,80,1,
,,,,,,,,,,,,,,,,,,5eeb6916424ca42d92eac0f9,2020-11-27_11h31.19.750,lexical_decision_task_MP_exp2,2020.2.5,Win32,60,,z,1,0.68206,,,,,,,,0.68206,1,,,,,,302,NW,"ID",16,miluer,MILUER,z,,,,,,-0.115277778,-0.254861111,0,0,0,,0,89,89,301,1,
,,,,,,,,,,,,,,,,,,5eeb6916424ca42d92eac0f9,2020-11-27_11h31.19.750,lexical_decision_task_MP_exp2,2020.2.5,Win32,60,,m,1,0.96524,,,,,,,,0.96524,1,,,,,,212,WORD,UN,16,squeal,VERIFY,m,,,,,,-0.115277778,-0.254861111,0,0,0,,0,90,90,211,1,
,,,,,,,,,,,,,,,,,,5eeb6916424ca42d92eac0f9,2020-11-27_11h31.19.750,lexical_decision_task_MP_exp2,2020.2.5,Win32,60,,z,1,0.84585,,,,,,,,0.84585,1,,,,,,417,NW,UN,33,suidle,EAROUD,z,,,,,,-0.115277778,-0.254861111,0,0,0,,0,91,91,416,1,
,,,,,,,,,,,,,,,,,,5eeb6916424ca42d92eac0f9,2020-11-27_11h31.19.750,lexical_decision_task_MP_exp2,2020.2.5,Win32,60,,m,1,0.47005,,,,,,,,0.47005,1,,,,,,130,WORD,UN,33,quench,STUPID,m,,,,,,-0.115277778,-0.254861111,0,0,0,,0,92,92,129,1,
,,,,,,,,,,,,,,,,,,5eeb6916424ca42d92eac0f9,2020-11-27_11h31.19.750,lexical_decision_task_MP_exp2,2020.2.5,Win32,60,,z,1,0.659565,,,,,,,,0.659565,1,,,,,,361,NW,UN,33,tireau,PAUCHE,z,,,,,,-0.115277778,-0.254861111,0,0,0,,0,93,93,360,1,
,,,,,,,,,,,,,,,,,,5eeb6916424ca42d92eac0f9,2020-11-27_11h31.19.750,lexical_decision_task_MP_exp2,2020.2.5,Win32,60,,z,1,0.73197,,,,,,,,0.73197,1,,,,,,288,NW,"ID",33,yaceup,YACEUP,z,,,,,,-0.115277778,-0.254861111,0,0,0,,0,94,94,287,1,
,,,,,,,,,,,,,,,,,,5eeb6916424ca42d92eac0f9,2020-11-27_11h31.19.750,lexical_decision_task_MP_exp2,2020.2.5,Win32,60,,m,1,0.69194,,,,,,,,0.69194,1,,,,,,94,WORD,"ID",16,travel,TRAVEL,m,,,,,,-0.115277778,-0.254861111,0,0,0,,0,95,95,93,1,
,,,,,,,,,,,,,,,,,,5eeb6916424ca42d92eac0f9,2020-11-27_11h31.19.750,lexical_decision_task_MP_exp2,2020.2.5,Win32,60,,m,1,1.061115,,,,,,,,1.061115,1,,,,,,141,WORD,UN,33,spruce,ORPHAN,m,,,,,,-0.115277778,-0.254861111,0,0,0,,0,96,96,140,1,
,,,,,,,,,,,,,,,,,,5eeb6916424ca42d92eac0f9,2020-11-27_11h31.19.750,lexical_decision_task_MP_exp2,2020.2.5,Win32,60,,m,1,0.700925,,,,,,,,0.700925,1,,,,,,143,WORD,UN,33,sponge,REASON,m,,,,,,-0.115277778,-0.254861111,0,0,0,,0,97,97,142,1,
,,,,,,,,,,,,,,,,,,5eeb6916424ca42d92eac0f9,2020-11-27_11h31.19.750,lexical_decision_task_MP_exp2,2020.2.5,Win32,60,,z,1,0.621745,,,,,,,,0.621745,1,,,,,,259,NW,"ID",33,soudal,SOUDAL,z,,,,,,-0.115277778,-0.254861111,0,0,0,,0,98,98,258,1,
,,,,,,,,,,,,,,,,,,5eeb6916424ca42d92eac0f9,2020-11-27_11h31.19.750,lexical_decision_task_MP_exp2,2020.2.5,Win32,60,,z,1,0.67033,,,,,,,,0.67033,1,,,,,,354,NW,"ID",16,virlex,VIRLEX,z,,,,,,-0.115277778,-0.254861111,0,0,0,,0,99,99,353,1,
,,,,,,,,,,,,,,,,,,5eeb6916424ca42d92eac0f9,2020-11-27_11h31.19.750,lexical_decision_task_MP_exp2,2020.2.5,Win32,60,,z,1,0.638015,,,,,,,,0.638015,1,,,,,,247,NW,"ID",33,blarge,BLARGE,z,,,,,,-0.115277778,-0.254861111,0,0,0,,0,100,100,246,1,
,,,,,,,,,,,,,,,,,,5eeb6916424ca42d92eac0f9,2020-11-27_11h31.19.750,lexical_decision_task_MP_exp2,2020.2.5,Win32,60,,m,1,0.62209,,,,,,,,0.62209,1,,,,,,142,WORD,UN,33,orphan,SPRUCE,m,,,,,,-0.115277778,-0.254861111,0,0,0,,0,101,101,141,1,
,,,,,,,,,,,,,,,,,,5eeb6916424ca42d92eac0f9,2020-11-27_11h31.19.750,lexical_decision_task_MP_exp2,2020.2.5,Win32,60,,m,1,0.77765,,,,,,,,0.77765,1,,,,,,1,WORD,"ID",33,fright,FRIGHT,m,,,,,,-0.115277778,-0.254861111,0,0,0,,0,102,102,0,1,
,,,,,,,,,,,,,,,,,,5eeb6916424ca42d92eac0f9,2020-11-27_11h31.19.750,lexical_decision_task_MP_exp2,2020.2.5,Win32,60,,m,1,0.762235,,,,,,,,0.762235,1,,,,,,162,WORD,UN,33,string,CANDLE,m,,,,,,-0.115277778,-0.254861111,0,0,0,,0,103,103,161,1,
,,,,,,,,,,,,,,,,,,5eeb6916424ca42d92eac0f9,2020-11-27_11h31.19.750,lexical_decision_task_MP_exp2,2020.2.5,Win32,60,,m,1,0.95253,,,,,,,,0.95253,1,,,,,,26,WORD,"ID",33,sprint,SPRINT,m,,,,,,-0.115277778,-0.254861111,0,0,0,,0,104,104,25,1,
,,,,,,,,,,,,,,,,,,5eeb6916424ca42d92eac0f9,2020-11-27_11h31.19.750,lexical_decision_task_MP_exp2,2020.2.5,Win32,60,,z,1,0.840415,,,,,,,,0.840415,1,,,,,,432,NW,UN,16,drance,LUNKER,z,,,,,,-0.115277778,-0.254861111,0,0,0,,0,105,105,431,1,
,,,,,,,,,,,,,,,,,,5eeb6916424ca42d92eac0f9,2020-11-27_11h31.19.750,lexical_decision_task_MP_exp2,2020.2.5,Win32,60,,m,1,0.73619,,,,,,,,0.73619,1,,,,,,146,WORD,UN,33,garlic,COUPLE,m,,,,,,-0.115277778,-0.254861111,0,0,0,,0,106,106,145,1,
,,,,,,,,,,,,,,,,,,5eeb6916424ca42d92eac0f9,2020-11-27_11h31.19.750,lexical_decision_task_MP_exp2,2020.2.5,Win32,60,,z,1,0.873,,,,,,,,0.873,1,,,,,,421,NW,UN,16,alcoud,KNISMA,z,,,,,,-0.115277778,-0.254861111,0,0,0,,0,107,107,420,1,
,,,,,,,,,,,,,,,,,,5eeb6916424ca42d92eac0f9,2020-11-27_11h31.19.750,lexical_decision_task_MP_exp2,2020.2.5,Win32,60,,z,1,0.748525,,,,,,,,0.748525,1,,,,,,292,NW,"ID",33,ablint,ABLINT,z,,,,,,-0.115277778,-0.254861111,0,0,0,,0,108,108,291,1,
,,,,,,,,,,,,,,,,,,5eeb6916424ca42d92eac0f9,2020-11-27_11h31.19.750,lexical_decision_task_MP_exp2,2020.2.5,Win32,60,,m,1,0.696565,,,,,,,,0.696565,1,,,,,,48,WORD,"ID",33,walnut,WALNUT,m,,,,,,-0.115277778,-0.254861111,0,0,0,,0,109,109,47,1,
,,,,,,,,,,,,,,,,,,5eeb6916424ca42d92eac0f9,2020-11-27_11h31.19.750,lexical_decision_task_MP_exp2,2020.2.5,Win32,60,,z,1,0.69241,,,,,,,,0.69241,1,,,,,,447,NW,UN,16,sadent,GIRCUE,z,,,,,,-0.115277778,-0.254861111,0,0,0,,0,110,110,446,1,
,,,,,,,,,,,,,,,,,,5eeb6916424ca42d92eac0f9,2020-11-27_11h31.19.750,lexical_decision_task_MP_exp2,2020.2.5,Win32,60,,m,1,0.686895,,,,,,,,0.686895,1,,,,,,197,WORD,UN,16,wicked,STREAM,m,,,,,,-0.115277778,-0.254861111,0,0,0,,0,111,111,196,1,
,,,,,,,,,,,,,,,,,,5eeb6916424ca42d92eac0f9,2020-11-27_11h31.19.750,lexical_decision_task_MP_exp2,2020.2.5,Win32,60,,m,1,0.57032,,,,,,,,0.57032,1,,,,,,152,WORD,UN,33,behold,ROCKET,m,,,,,,-0.115277778,-0.254861111,0,0,0,,0,112,112,151,1,
,,,,,,,,,,,,,,,,,,5eeb6916424ca42d92eac0f9,2020-11-27_11h31.19.750,lexical_decision_task_MP_exp2,2020.2.5,Win32,60,,z,1,0.8527,,,,,,,,0.8527,1,,,,,,285,NW,"ID",33,prudge,PRUDGE,z,,,,,,-0.115277778,-0.254861111,0,0,0,,0,113,113,284,1,
,,,,,,,,,,,,,,,,,,5eeb6916424ca42d92eac0f9,2020-11-27_11h31.19.750,lexical_decision_task_MP_exp2,2020.2.5,Win32,60,,z,1,0.57548,,,,,,,,0.57548,1,,,,,,266,NW,"ID",33,varmit,VARMIT,z,,,,,,-0.115277778,-0.254861111,0,0,0,,0,114,114,265,1,
,,,,,,,,,,,,,,,,,,5eeb6916424ca42d92eac0f9,2020-11-27_11h31.19.750,lexical_decision_task_MP_exp2,2020.2.5,Win32,60,,z,1,0.57612,,,,,,,,0.57612,1,,,,,,449,NW,UN,16,phrect,BRUNGE,z,,,,,,-0.115277778,-0.254861111,0,0,0,,0,115,115,448,1,
,,,,,,,,,,,,,,,,,,5eeb6916424ca42d92eac0f9,2020-11-27_11h31.19.750,lexical_decision_task_MP_exp2,2020.2.5,Win32,60,,z,0,0.53438,,,,,,,,0.53438,0,,,,,,63,WORD,"ID",16,launch,LAUNCH,m,,,,,,-0.115277778,-0.254861111,0,0,0,,0,116,116,62,1,
,,,,,,,,,,,,,,,,,,5eeb6916424ca42d92eac0f9,2020-11-27_11h31.19.750,lexical_decision_task_MP_exp2,2020.2.5,Win32,60,,z,1,0.846935,,,,,,,,0.846935,1,,,,,,445,NW,UN,16,runamo,MINKEL,z,,,,,,-0.115277778,-0.254861111,0,0,0,,0,117,117,444,1,
,,,,,,,,,,,,,,,,,,5eeb6916424ca42d92eac0f9,2020-11-27_11h31.19.750,lexical_decision_task_MP_exp2,2020.2.5,Win32,60,,m,1,0.63937,,,,,,,,0.63937,1,,,,,,101,WORD,"ID",16,wrench,WRENCH,m,,,,,,-0.115277778,-0.254861111,0,0,0,,0,118,118,100,1,
,,,,,,,,,,,,,,,,,,5eeb6916424ca42d92eac0f9,2020-11-27_11h31.19.750,lexical_decision_task_MP_exp2,2020.2.5,Win32,60,,m,1,0.54075,,,,,,,,0.54075,1,,,,,,21,WORD,"ID",33,simple,SIMPLE,m,,,,,,-0.115277778,-0.254861111,0,0,0,,0,119,119,20,1,
,,,,,,,,,,,,,,,,,,5eeb6916424ca42d92eac0f9,2020-11-27_11h31.19.750,lexical_decision_task_MP_exp2,2020.2.5,Win32,60,,,0,,,,,,,,,0.54075,-1,,,,,,268,NW,"ID",33,packes,PACKES,z,,,,,,0.122222222,-0.102083333,0,0,0,space,0,120,120,267,1,58.54443
,,,,,,,,,,,,,,,,,,5eeb6916424ca42d92eac0f9,2020-11-27_11h31.19.750,lexical_decision_task_MP_exp2,2020.2.5,Win32,60,,m,1,1.171095,,,,,,,,1.171095,1,,,,,,185,WORD,UN,16,portal,BOTHER,m,,,,,,0.122222222,-0.102083333,0,0,0,,0,121,121,184,1,
,,,,,,,,,,,,,,,,,,5eeb6916424ca42d92eac0f9,2020-11-27_11h31.19.750,lexical_decision_task_MP_exp2,2020.2.5,Win32,60,,m,1,0.484065,,,,,,,,0.484065,1,,,,,,198,WORD,UN,16,invoke,WICKED,m,,,,,,0.122222222,-0.102083333,0,0,0,,0,122,122,197,1,
,,,,,,,,,,,,,,,,,,5eeb6916424ca42d92eac0f9,2020-11-27_11h31.19.750,lexical_decision_task_MP_exp2,2020.2.5,Win32,60,,z,1,1.429035,,,,,,,,1.429035,1,,,,,,365,NW,UN,33,toshel,GUAIRT,z,,,,,,0.122222222,-0.102083333,0,0,0,,0,123,123,364,1,
,,,,,,,,,,,,,,,,,,5eeb6916424ca42d92eac0f9,2020-11-27_11h31.19.750,lexical_decision_task_MP_exp2,2020.2.5,Win32,60,,z,1,0.706135,,,,,,,,0.706135,1,,,,,,403,NW,UN,33,cluirm,BRUATS,z,,,,,,0.122222222,-0.102083333,0,0,0,,0,124,124,402,1,
,,,,,,,,,,,,,,,,,,5eeb6916424ca42d92eac0f9,2020-11-27_11h31.19.750,lexical_decision_task_MP_exp2,2020.2.5,Win32,60,,m,1,0.919935,,,,,,,,0.919935,1,,,,,,217,WORD,UN,16,shrink,LIQUOR,m,,,,,,0.122222222,-0.102083333,0,0,0,,0,125,125,216,1,
,,,,,,,,,,,,,,,,,,5eeb6916424ca42d92eac0f9,2020-11-27_11h31.19.750,lexical_decision_task_MP_exp2,2020.2.5,Win32,60,,m,1,0.520125,,,,,,,,0.520125,1,,,,,,37,WORD,"ID",33,insult,INSULT,m,,,,,,0.122222222,-0.102083333,0,0,0,,0,126,126,36,1,
,,,,,,,,,,,,,,,,,,5eeb6916424ca42d92eac0f9,2020-11-27_11h31.19.750,lexical_decision_task_MP_exp2,2020.2.5,Win32,60,,m,1,0.54036,,,,,,,,0.54036,1,,,,,,237,WORD,UN,16,seldom,POSTER,m,,,,,,0.122222222,-0.102083333,0,0,0,,0,127,127,236,1,
,,,,,,,,,,,,,,,,,,5eeb6916424ca42d92eac0f9,2020-11-27_11h31.19.750,lexical_decision_task_MP_exp2,2020.2.5,Win32,60,,z,1,0.51363,,,,,,,,0.51363,1,,,,,,362,NW,UN,33,breali,TIREAU,z,,,,,,0.122222222,-0.102083333,0,0,0,,0,128,128,361,1,
,,,,,,,,,,,,,,,,,,5eeb6916424ca42d92eac0f9,2020-11-27_11h31.19.750,lexical_decision_task_MP_exp2,2020.2.5,Win32,60,,z,1,0.566255,,,,,,,,0.566255,1,,,,,,350,NW,"ID",16,nagurs,NAGURS,z,,,,,,0.122222222,-0.102083333,0,0,0,,0,129,129,349,1,
,,,,,,,,,,,,,,,,,,5eeb6916424ca42d92eac0f9,2020-11-27_11h31.19.750,lexical_decision_task_MP_exp2,2020.2.5,Win32,60,,z,1,0.73619,,,,,,,,0.73619,1,,,,,,377,NW,UN,33,shrile,INJORE,z,,,,,,0.122222222,-0.102083333,0,0,0,,0,130,130,376,1,
,,,,,,,,,,,,,,,,,,5eeb6916424ca42d92eac0f9,2020-11-27_11h31.19.750,lexical_decision_task_MP_exp2,2020.2.5,Win32,60,,z,1,0.589065,,,,,,,,0.589065,1,,,,,,419,NW,UN,33,gushop,SLOUNT,z,,,,,,0.122222222,-0.102083333,0,0,0,,0,131,131,418,1,
,,,,,,,,,,,,,,,,,,5eeb6916424ca42d92eac0f9,2020-11-27_11h31.19.750,lexical_decision_task_MP_exp2,2020.2.5,Win32,60,,z,1,0.517325,,,,,,,,0.517325,1,,,,,,450,NW,UN,16,rastoe,PHRECT,z,,,,,,0.122222222,-0.102083333,0,0,0,,0,132,132,449,1,
,,,,,,,,,,,,,,,,,,5eeb6916424ca42d92eac0f9,2020-11-27_11h31.19.750,lexical_decision_task_MP_exp2,2020.2.5,Win32,60,,m,1,0.594985,,,,,,,,0.594985,1,,,,,,70,WORD,"ID",16,square,SQUARE,m,,,,,,0.122222222,-0.102083333,0,0,0,,0,133,133,69,1,
,,,,,,,,,,,,,,,,,,5eeb6916424ca42d92eac0f9,2020-11-27_11h31.19.750,lexical_decision_task_MP_exp2,2020.2.5,Win32,60,,m,1,0.71272,,,,,,,,0.71272,1,,,,,,40,WORD,"ID",33,convey,CONVEY,m,,,,,,0.122222222,-0.102083333,0,0,0,,0,134,134,39,1,
,,,,,,,,,,,,,,,,,,5eeb6916424ca42d92eac0f9,2020-11-27_11h31.19.750,lexical_decision_task_MP_exp2,2020.2.5,Win32,60,,m,1,0.74309,,,,,,,,0.74309,1,,,,,,140,WORD,UN,33,reason,PRINCE,m,,,,,,0.122222222,-0.102083333,0,0,0,,0,135,135,139,1,
,,,,,,,,,,,,,,,,,,5eeb6916424ca42d92eac0f9,2020-11-27_11h31.19.750,lexical_decision_task_MP_exp2,2020.2.5,Win32,60,,m,1,0.637985,,,,,,,,0.637985,1,,,,,,92,WORD,"ID",16,strand,STRAND,m,,,,,,0.122222222,-0.102083333,0,0,0,,0,136,136,91,1,
,,,,,,,,,,,,,,,,,,5eeb6916424ca42d92eac0f9,2020-11-27_11h31.19.750,lexical_decision_task_MP_exp2,2020.2.5,Win32,60,,m,0,0.497815,,,,,,,,0.497815,0,,,,,,345,NW,"ID",16,absend,ABSEND,z,,,,,,0.122222222,-0.102083333,0,0,0,,0,137,137,344,1,
,,,,,,,,,,,,,,,,,,5eeb6916424ca42d92eac0f9,2020-11-27_11h31.19.750,lexical_decision_task_MP_exp2,2020.2.5,Win32,60,,m,1,0.47259,,,,,,,,0.47259,1,,,,,,208,WORD,UN,16,search,HOCKEY,m,,,,,,0.122222222,-0.102083333,0,0,0,,0,138,138,207,1,
,,,,,,,,,,,,,,,,,,5eeb6916424ca42d92eac0f9,2020-11-27_11h31.19.750,lexical_decision_task_MP_exp2,2020.2.5,Win32,60,,m,1,0.44148,,,,,,,,0.44148,1,,,,,,226,WORD,UN,16,flower,CASINO,m,,,,,,0.122222222,-0.102083333,0,0,0,,0,139,139,225,1,
,,,,,,,,,,,,,,,,,,5eeb6916424ca42d92eac0f9,2020-11-27_11h31.19.750,lexical_decision_task_MP_exp2,2020.2.5,Win32,60,,m,1,0.57751,,,,,,,,0.57751,1,,,,,,117,WORD,"ID",16,branch,BRANCH,m,,,,,,0.122222222,-0.102083333,0,0,0,,0,140,140,116,1,
,,,,,,,,,,,,,,,,,,5eeb6916424ca42d92eac0f9,2020-11-27_11h31.19.750,lexical_decision_task_MP_exp2,2020.2.5,Win32,60,,z,0,0.528545,,,,,,,,0.528545,0,,,,,,167,WORD,UN,33,answer,DESIGN,m,,,,,,0.122222222,-0.102083333,0,0,0,,0,141,141,166,1,
,,,,,,,,,,,,,,,,,,5eeb6916424ca42d92eac0f9,2020-11-27_11h31.19.750,lexical_decision_task_MP_exp2,2020.2.5,Win32,60,,z,1,0.718375,,,,,,,,0.718375,1,,,,,,252,NW,"ID",33,stapod,STAPOD,z,,,,,,0.122222222,-0.102083333,0,0,0,,0,142,142,251,1,
,,,,,,,,,,,,,,,,,,5eeb6916424ca42d92eac0f9,2020-11-27_11h31.19.750,lexical_decision_task_MP_exp2,2020.2.5,Win32,60,,m,1,0.686765,,,,,,,,0.686765,1,,,,,,121,WORD,UN,33,linger,THRIVE,m,,,,,,0.122222222,-0.102083333,0,0,0,,0,143,143,120,1,
,,,,,,,,,,,,,,,,,,5eeb6916424ca42d92eac0f9,2020-11-27_11h31.19.750,lexical_decision_task_MP_exp2,2020.2.5,Win32,60,,z,1,1.20082,,,,,,,,1.20082,1,,,,,,402,NW,UN,33,bruats,SYNTIC,z,,,,,,0.122222222,-0.102083333,0,0,0,,0,144,144,401,1,
,,,,,,,,,,,,,,,,,,5eeb6916424ca42d92eac0f9,2020-11-27_11h31.19.750,lexical_decision_task_MP_exp2,2020.2.5,Win32,60,,m,1,0.627255,,,,,,,,0.627255,1,,,,,,5,WORD,"ID",33,plunge,PLUNGE,m,,,,,,0.122222222,-0.102083333,0,0,0,,0,145,145,4,1,
,,,,,,,,,,,,,,,,,,5eeb6916424ca42d92eac0f9,2020-11-27_11h31.19.750,lexical_decision_task_MP_exp2,2020.2.5,Win32,60,,m,1,0.53938,,,,,,,,0.53938,1,,,,,,235,WORD,UN,16,pirate,GRUMPY,m,,,,,,0.122222222,-0.102083333,0,0,0,,0,146,146,234,1,
,,,,,,,,,,,,,,,,,,5eeb6916424ca42d92eac0f9,2020-11-27_11h31.19.750,lexical_decision_task_MP_exp2,2020.2.5,Win32,60,,z,1,0.508115,,,,,,,,0.508115,1,,,,,,393,NW,UN,33,spaqux,GANOUS,z,,,,,,0.122222222,-0.102083333,0,0,0,,0,147,147,392,1,
,,,,,,,,,,,,,,,,,,5eeb6916424ca42d92eac0f9,2020-11-27_11h31.19.750,lexical_decision_task_MP_exp2,2020.2.5,Win32,60,,m,1,0.64718,,,,,,,,0.64718,1,,,,,,90,WORD,"ID",16,relish,RELISH,m,,,,,,0.122222222,-0.102083333,0,0,0,,0,148,148,89,1,
,,,,,,,,,,,,,,,,,,5eeb6916424ca42d92eac0f9,2020-11-27_11h31.19.750,lexical_decision_task_MP_exp2,2020.2.5,Win32,60,,z,1,0.701175,,,,,,,,0.701175,1,,,,,,400,NW,UN,33,mustil,WEAROX,z,,,,,,0.122222222,-0.102083333,0,0,0,,0,149,149,399,1,
,,,,,,,,,,,,,,,,,,5eeb6916424ca42d92eac0f9,2020-11-27_11h31.19.750,lexical_decision_task_MP_exp2,2020.2.5,Win32,60,,z,1,0.863755,,,,,,,,0.863755,1,,,,,,253,NW,"ID",33,resait,RESAIT,z,,,,,,0.122222222,-0.102083333,0,0,0,,0,150,150,252,1,
,,,,,,,,,,,,,,,,,,5eeb6916424ca42d92eac0f9,2020-11-27_11h31.19.750,lexical_decision_task_MP_exp2,2020.2.5,Win32,60,,z,1,0.81513,,,,,,,,0.81513,1,,,,,,243,NW,"ID",33,musied,MUSIED,z,,,,,,0.122222222,-0.102083333,0,0,0,,0,151,151,242,1,
,,,,,,,,,,,,,,,,,,5eeb6916424ca42d92eac0f9,2020-11-27_11h31.19.750,lexical_decision_task_MP_exp2,2020.2.5,Win32,60,,z,1,0.941195,,,,,,,,0.941195,1,,,,,,343,NW,"ID",16,aimosy,AIMOSY,z,,,,,,0.122222222,-0.102083333,0,0,0,,0,152,152,342,1,
,,,,,,,,,,,,,,,,,,5eeb6916424ca42d92eac0f9,2020-11-27_11h31.19.750,lexical_decision_task_MP_exp2,2020.2.5,Win32,60,,m,1,0.54997,,,,,,,,0.54997,1,,,,,,186,WORD,UN,16,course,PORTAL,m,,,,,,0.122222222,-0.102083333,0,0,0,,0,153,153,185,1,
,,,,,,,,,,,,,,,,,,5eeb6916424ca42d92eac0f9,2020-11-27_11h31.19.750,lexical_decision_task_MP_exp2,2020.2.5,Win32,60,,z,1,0.649775,,,,,,,,0.649775,1,,,,,,317,NW,"ID",16,worbal,WORBAL,z,,,,,,0.122222222,-0.102083333,0,0,0,,0,154,154,316,1,
,,,,,,,,,,,,,,,,,,5eeb6916424ca42d92eac0f9,2020-11-27_11h31.19.750,lexical_decision_task_MP_exp2,2020.2.5,Win32,60,,z,1,0.677455,,,,,,,,0.677455,1,,,,,,428,NW,UN,16,chrums,TANDLY,z,,,,,,0.122222222,-0.102083333,0,0,0,,0,155,155,427,1,
,,,,,,,,,,,,,,,,,,5eeb6916424ca42d92eac0f9,2020-11-27_11h31.19.750,lexical_decision_task_MP_exp2,2020.2.5,Win32,60,,m,1,0.513095,,,,,,,,0.513095,1,,,,,,230,WORD,UN,16,export,FRINGE,m,,,,,,0.122222222,-0.102083333,0,0,0,,0,156,156,229,1,
,,,,,,,,,,,,,,,,,,5eeb6916424ca42d92eac0f9,2020-11-27_11h31.19.750,lexical_decision_task_MP_exp2,2020.2.5,Win32,60,,z,1,0.75749,,,,,,,,0.75749,1,,,,,,360,NW,"ID",16,desory,DESORY,z,,,,,,0.122222222,-0.102083333,0,0,0,,0,157,157,359,1,
,,,,,,,,,,,,,,,,,,5eeb6916424ca42d92eac0f9,2020-11-27_11h31.19.750,lexical_decision_task_MP_exp2,2020.2.5,Win32,60,,z,1,1.086265,,,,,,,,1.086265,1,,,,,,306,NW,"ID",16,sounge,SOUNGE,z,,,,,,0.122222222,-0.102083333,0,0,0,,0,158,158,305,1,
,,,,,,,,,,,,,,,,,,5eeb6916424ca42d92eac0f9,2020-11-27_11h31.19.750,lexical_decision_task_MP_exp2,2020.2.5,Win32,60,,m,1,0.63704,,,,,,,,0.63704,1,,,,,,56,WORD,"ID",33,ambush,AMBUSH,m,,,,,,0.122222222,-0.102083333,0,0,0,,0,159,159,55,1,
,,,,,,,,,,,,,,,,,,5eeb6916424ca42d92eac0f9,2020-11-27_11h31.19.750,lexical_decision_task_MP_exp2,2020.2.5,Win32,60,,z,1,0.686435,,,,,,,,0.686435,1,,,,,,260,NW,"ID",33,unject,UNJECT,z,,,,,,0.122222222,-0.102083333,0,0,0,,0,160,160,259,1,
,,,,,,,,,,,,,,,,,,5eeb6916424ca42d92eac0f9,2020-11-27_11h31.19.750,lexical_decision_task_MP_exp2,2020.2.5,Win32,60,,m,1,0.564515,,,,,,,,0.564515,1,,,,,,211,WORD,UN,16,verify,INFECT,m,,,,,,0.122222222,-0.102083333,0,0,0,,0,161,161,210,1,
,,,,,,,,,,,,,,,,,,5eeb6916424ca42d92eac0f9,2020-11-27_11h31.19.750,lexical_decision_task_MP_exp2,2020.2.5,Win32,60,,m,1,0.619565,,,,,,,,0.619565,1,,,,,,69,WORD,"ID",16,plenty,PLENTY,m,,,,,,0.122222222,-0.102083333,0,0,0,,0,162,162,68,1,
,,,,,,,,,,,,,,,,,,5eeb6916424ca42d92eac0f9,2020-11-27_11h31.19.750,lexical_decision_task_MP_exp2,2020.2.5,Win32,60,,z,1,0.636535,,,,,,,,0.636535,1,,,,,,383,NW,UN,33,guesco,AUNGRE,z,,,,,,0.122222222,-0.102083333,0,0,0,,0,163,163,382,1,
,,,,,,,,,,,,,,,,,,5eeb6916424ca42d92eac0f9,2020-11-27_11h31.19.750,lexical_decision_task_MP_exp2,2020.2.5,Win32,60,,m,1,0.565425,,,,,,,,0.565425,1,,,,,,87,WORD,"ID",16,filter,FILTER,m,,,,,,0.122222222,-0.102083333,0,0,0,,0,164,164,86,1,
,,,,,,,,,,,,,,,,,,5eeb6916424ca42d92eac0f9,2020-11-27_11h31.19.750,lexical_decision_task_MP_exp2,2020.2.5,Win32,60,,z,1,0.63653,,,,,,,,0.63653,1,,,,,,261,NW,"ID",33,stunch,STUNCH,z,,,,,,0.122222222,-0.102083333,0,0,0,,0,165,165,260,1,
,,,,,,,,,,,,,,,,,,5eeb6916424ca42d92eac0f9,2020-11-27_11h31.19.750,lexical_decision_task_MP_exp2,2020.2.5,Win32,60,,z,1,0.639245,,,,,,,,0.639245,1,,,,,,430,NW,UN,16,funtle,CAROEY,z,,,,,,0.122222222,-0.102083333,0,0,0,,0,166,166,429,1,
,,,,,,,,,,,,,,,,,,5eeb6916424ca42d92eac0f9,2020-11-27_11h31.19.750,lexical_decision_task_MP_exp2,2020.2.5,Win32,60,,z,1,0.62006,,,,,,,,0.62006,1,,,,,,467,NW,UN,16,wictor,GORBIE,z,,,,,,0.122222222,-0.102083333,0,0,0,,0,167,167,466,1,
,,,,,,,,,,,,,,,,,,5eeb6916424ca42d92eac0f9,2020-11-27_11h31.19.750,lexical_decision_task_MP_exp2,2020.2.5,Win32,60,,z,1,0.680045,,,,,,,,0.680045,1,,,,,,466,NW,UN,16,pebric,HOCITE,z,,,,,,0.122222222,-0.102083333,0,0,0,,0,168,168,465,1,
,,,,,,,,,,,,,,,,,,5eeb6916424ca42d92eac0f9,2020-11-27_11h31.19.750,lexical_decision_task_MP_exp2,2020.2.5,Win32,60,,m,1,0.657655,,,,,,,,0.657655,1,,,,,,176,WORD,UN,33,advent,STRIFE,m,,,,,,0.122222222,-0.102083333,0,0,0,,0,169,169,175,1,
,,,,,,,,,,,,,,,,,,5eeb6916424ca42d92eac0f9,2020-11-27_11h31.19.750,lexical_decision_task_MP_exp2,2020.2.5,Win32,60,,z,1,0.844125,,,,,,,,0.844125,1,,,,,,333,NW,"ID",16,catrie,CATRIE,z,,,,,,0.122222222,-0.102083333,0,0,0,,0,170,170,332,1,
,,,,,,,,,,,,,,,,,,5eeb6916424ca42d92eac0f9,2020-11-27_11h31.19.750,lexical_decision_task_MP_exp2,2020.2.5,Win32,60,,z,1,0.78804,,,,,,,,0.78804,1,,,,,,388,NW,UN,33,witmer,CRAGIN,z,,,,,,0.122222222,-0.102083333,0,0,0,,0,171,171,387,1,
,,,,,,,,,,,,,,,,,,5eeb6916424ca42d92eac0f9,2020-11-27_11h31.19.750,lexical_decision_task_MP_exp2,2020.2.5,Win32,60,,m,1,0.581565,,,,,,,,0.581565,1,,,,,,85,WORD,"ID",16,sprawl,SPRAWL,m,,,,,,0.122222222,-0.102083333,0,0,0,,0,172,172,84,1,
,,,,,,,,,,,,,,,,,,5eeb6916424ca42d92eac0f9,2020-11-27_11h31.19.750,lexical_decision_task_MP_exp2,2020.2.5,Win32,60,,m,1,0.70491,,,,,,,,0.70491,1,,,,,,41,WORD,"ID",33,spring,SPRING,m,,,,,,0.122222222,-0.102083333,0,0,0,,0,173,173,40,1,
,,,,,,,,,,,,,,,,,,5eeb6916424ca42d92eac0f9,2020-11-27_11h31.19.750,lexical_decision_task_MP_exp2,2020.2.5,Win32,60,,z,1,0.80826,,,,,,,,0.80826,1,,,,,,472,NW,UN,16,crible,CIGNEY,z,,,,,,0.122222222,-0.102083333,0,0,0,,0,174,174,471,1,
,,,,,,,,,,,,,,,,,,5eeb6916424ca42d92eac0f9,2020-11-27_11h31.19.750,lexical_decision_task_MP_exp2,2020.2.5,Win32,60,,z,1,0.65446,,,,,,,,0.65446,1,,,,,,359,NW,"ID",16,fonver,FONVER,z,,,,,,0.122222222,-0.102083333,0,0,0,,0,175,175,358,1,
,,,,,,,,,,,,,,,,,,5eeb6916424ca42d92eac0f9,2020-11-27_11h31.19.750,lexical_decision_task_MP_exp2,2020.2.5,Win32,60,,z,1,1.3719,,,,,,,,1.3719,1,,,,,,269,NW,"ID",33,orchet,ORCHET,z,,,,,,0.122222222,-0.102083333,0,0,0,,0,176,176,268,1,
,,,,,,,,,,,,,,,,,,5eeb6916424ca42d92eac0f9,2020-11-27_11h31.19.750,lexical_decision_task_MP_exp2,2020.2.5,Win32,60,,z,1,0.651145,,,,,,,,0.651145,1,,,,,,334,NW,"ID",16,watmeg,WATMEG,z,,,,,,0.122222222,-0.102083333,0,0,0,,0,177,177,333,1,
,,,,,,,,,,,,,,,,,,5eeb6916424ca42d92eac0f9,2020-11-27_11h31.19.750,lexical_decision_task_MP_exp2,2020.2.5,Win32,60,,z,1,0.622775,,,,,,,,0.622775,1,,,,,,326,NW,"ID",16,iguade,IGUADE,z,,,,,,0.122222222,-0.102083333,0,0,0,,0,178,178,325,1,
,,,,,,,,,,,,,,,,,,5eeb6916424ca42d92eac0f9,2020-11-27_11h31.19.750,lexical_decision_task_MP_exp2,2020.2.5,Win32,60,,z,1,0.571185,,,,,,,,0.571185,1,,,,,,275,NW,"ID",33,sleirt,SLEIRT,z,,,,,,0.122222222,-0.102083333,0,0,0,,0,179,179,274,1,
,,,,,,,,,,,,,,,,,,5eeb6916424ca42d92eac0f9,2020-11-27_11h31.19.750,lexical_decision_task_MP_exp2,2020.2.5,Win32,60,,z,1,0.49566,,,,,,,,0.49566,1,,,,,,273,NW,"ID",33,sortel,SORTEL,z,,,,,,0.122222222,-0.102083333,0,0,0,,0,180,180,272,1,
,,,,,,,,,,,,,,,,,,5eeb6916424ca42d92eac0f9,2020-11-27_11h31.19.750,lexical_decision_task_MP_exp2,2020.2.5,Win32,60,,m,1,0.649495,,,,,,,,0.649495,1,,,,,,175,WORD,UN,33,strife,FABRIC,m,,,,,,0.122222222,-0.102083333,0,0,0,,0,181,181,174,1,
,,,,,,,,,,,,,,,,,,5eeb6916424ca42d92eac0f9,2020-11-27_11h31.19.750,lexical_decision_task_MP_exp2,2020.2.5,Win32,60,,z,1,0.71337,,,,,,,,0.71337,1,,,,,,422,NW,UN,16,streld,ALCOUD,z,,,,,,0.122222222,-0.102083333,0,0,0,,0,182,182,421,1,
,,,,,,,,,,,,,,,,,,5eeb6916424ca42d92eac0f9,2020-11-27_11h31.19.750,lexical_decision_task_MP_exp2,2020.2.5,Win32,60,,m,1,0.71378,,,,,,,,0.71378,1,,,,,,221,WORD,UN,16,hinder,MASCOT,m,,,,,,0.122222222,-0.102083333,0,0,0,,0,183,183,220,1,
,,,,,,,,,,,,,,,,,,5eeb6916424ca42d92eac0f9,2020-11-27_11h31.19.750,lexical_decision_task_MP_exp2,2020.2.5,Win32,60,,m,1,0.796115,,,,,,,,0.796115,1,,,,,,160,WORD,UN,33,dragon,VIOLET,m,,,,,,0.122222222,-0.102083333,0,0,0,,0,184,184,159,1,
,,,,,,,,,,,,,,,,,,5eeb6916424ca42d92eac0f9,2020-11-27_11h31.19.750,lexical_decision_task_MP_exp2,2020.2.5,Win32,60,,z,1,0.952685,,,,,,,,0.952685,1,,,,,,296,NW,"ID",33,beinch,BEINCH,z,,,,,,0.122222222,-0.102083333,0,0,0,,0,185,185,295,1,
,,,,,,,,,,,,,,,,,,5eeb6916424ca42d92eac0f9,2020-11-27_11h31.19.750,lexical_decision_task_MP_exp2,2020.2.5,Win32,60,,m,1,0.724955,,,,,,,,0.724955,1,,,,,,172,WORD,UN,33,shower,PATROL,m,,,,,,0.122222222,-0.102083333,0,0,0,,0,186,186,171,1,
,,,,,,,,,,,,,,,,,,5eeb6916424ca42d92eac0f9,2020-11-27_11h31.19.750,lexical_decision_task_MP_exp2,2020.2.5,Win32,60,,m,1,0.573615,,,,,,,,0.573615,1,,,,,,52,WORD,"ID",33,impose,IMPOSE,m,,,,,,0.122222222,-0.102083333,0,0,0,,0,187,187,51,1,
,,,,,,,,,,,,,,,,,,5eeb6916424ca42d92eac0f9,2020-11-27_11h31.19.750,lexical_decision_task_MP_exp2,2020.2.5,Win32,60,,z,1,1.216635,,,,,,,,1.216635,1,,,,,,431,NW,UN,16,lunker,CHRUMS,z,,,,,,0.122222222,-0.102083333,0,0,0,,0,188,188,430,1,
,,,,,,,,,,,,,,,,,,5eeb6916424ca42d92eac0f9,2020-11-27_11h31.19.750,lexical_decision_task_MP_exp2,2020.2.5,Win32,60,,m,1,0.689725,,,,,,,,0.689725,1,,,,,,126,WORD,UN,33,castle,ENOUGH,m,,,,,,0.122222222,-0.102083333,0,0,0,,0,189,189,125,1,
,,,,,,,,,,,,,,,,,,5eeb6916424ca42d92eac0f9,2020-11-27_11h31.19.750,lexical_decision_task_MP_exp2,2020.2.5,Win32,60,,z,1,0.76345,,,,,,,,0.76345,1,,,,,,407,NW,UN,33,hurnia,SUIVER,z,,,,,,0.122222222,-0.102083333,0,0,0,,0,190,190,406,1,
,,,,,,,,,,,,,,,,,,5eeb6916424ca42d92eac0f9,2020-11-27_11h31.19.750,lexical_decision_task_MP_exp2,2020.2.5,Win32,60,,z,1,0.88509,,,,,,,,0.88509,1,,,,,,353,NW,"ID",16,clurey,CLUREY,z,,,,,,0.122222222,-0.102083333,0,0,0,,0,191,191,352,1,
,,,,,,,,,,,,,,,,,,5eeb6916424ca42d92eac0f9,2020-11-27_11h31.19.750,lexical_decision_task_MP_exp2,2020.2.5,Win32,60,,z,1,0.738285,,,,,,,,0.738285,1,,,,,,280,NW,"ID",33,curbol,CURBOL,z,,,,,,0.122222222,-0.102083333,0,0,0,,0,192,192,279,1,
,,,,,,,,,,,,,,,,,,5eeb6916424ca42d92eac0f9,2020-11-27_11h31.19.750,lexical_decision_task_MP_exp2,2020.2.5,Win32,60,,m,1,0.5529,,,,,,,,0.5529,1,,,,,,44,WORD,"ID",33,danger,DANGER,m,,,,,,0.122222222,-0.102083333,0,0,0,,0,193,193,43,1,
,,,,,,,,,,,,,,,,,,5eeb6916424ca42d92eac0f9,2020-11-27_11h31.19.750,lexical_decision_task_MP_exp2,2020.2.5,Win32,60,,m,1,0.951365,,,,,,,,0.951365,1,,,,,,106,WORD,"ID",16,ransom,RANSOM,m,,,,,,0.122222222,-0.102083333,0,0,0,,0,194,194,105,1,
,,,,,,,,,,,,,,,,,,5eeb6916424ca42d92eac0f9,2020-11-27_11h31.19.750,lexical_decision_task_MP_exp2,2020.2.5,Win32,60,,m,1,0.57108,,,,,,,,0.57108,1,,,,,,57,WORD,"ID",33,change,CHANGE,m,,,,,,0.122222222,-0.102083333,0,0,0,,0,195,195,56,1,
,,,,,,,,,,,,,,,,,,5eeb6916424ca42d92eac0f9,2020-11-27_11h31.19.750,lexical_decision_task_MP_exp2,2020.2.5,Win32,60,,m,1,0.600665,,,,,,,,0.600665,1,,,,,,213,WORD,UN,16,intake,SQUEAL,m,,,,,,0.122222222,-0.102083333,0,0,0,,0,196,196,212,1,
,,,,,,,,,,,,,,,,,,5eeb6916424ca42d92eac0f9,2020-11-27_11h31.19.750,lexical_decision_task_MP_exp2,2020.2.5,Win32,60,,z,1,0.546905,,,,,,,,0.546905,1,,,,,,463,NW,UN,16,bafent,KISPEL,z,,,,,,0.122222222,-0.102083333,0,0,0,,0,197,197,462,1,
,,,,,,,,,,,,,,,,,,5eeb6916424ca42d92eac0f9,2020-11-27_11h31.19.750,lexical_decision_task_MP_exp2,2020.2.5,Win32,60,,m,1,0.51688,,,,,,,,0.51688,1,,,,,,115,WORD,"ID",16,guitar,GUITAR,m,,,,,,0.122222222,-0.102083333,0,0,0,,0,198,198,114,1,
,,,,,,,,,,,,,,,,,,5eeb6916424ca42d92eac0f9,2020-11-27_11h31.19.750,lexical_decision_task_MP_exp2,2020.2.5,Win32,60,,z,1,0.61282,,,,,,,,0.61282,1,,,,,,470,NW,UN,16,nobest,CRUDIO,z,,,,,,0.122222222,-0.102083333,0,0,0,,0,199,199,469,1,
,,,,,,,,,,,,,,,,,,5eeb6916424ca42d92eac0f9,2020-11-27_11h31.19.750,lexical_decision_task_MP_exp2,2020.2.5,Win32,60,,m,1,0.71834,,,,,,,,0.71834,1,,,,,,145,WORD,UN,33,couple,PARISH,m,,,,,,0.122222222,-0.102083333,0,0,0,,0,200,200,144,1,
,,,,,,,,,,,,,,,,,,5eeb6916424ca42d92eac0f9,2020-11-27_11h31.19.750,lexical_decision_task_MP_exp2,2020.2.5,Win32,60,,z,1,0.644585,,,,,,,,0.644585,1,,,,,,372,NW,UN,33,bigent,RAMILY,z,,,,,,0.122222222,-0.102083333,0,0,0,,0,201,201,371,1,
,,,,,,,,,,,,,,,,,,5eeb6916424ca42d92eac0f9,2020-11-27_11h31.19.750,lexical_decision_task_MP_exp2,2020.2.5,Win32,60,,z,1,0.776065,,,,,,,,0.776065,1,,,,,,305,NW,"ID",16,forgle,FORGLE,z,,,,,,0.122222222,-0.102083333,0,0,0,,0,202,202,304,1,
,,,,,,,,,,,,,,,,,,5eeb6916424ca42d92eac0f9,2020-11-27_11h31.19.750,lexical_decision_task_MP_exp2,2020.2.5,Win32,60,,m,1,0.806575,,,,,,,,0.806575,1,,,,,,181,WORD,UN,16,winter,GLANCE,m,,,,,,0.122222222,-0.102083333,0,0,0,,0,203,203,180,1,
,,,,,,,,,,,,,,,,,,5eeb6916424ca42d92eac0f9,2020-11-27_11h31.19.750,lexical_decision_task_MP_exp2,2020.2.5,Win32,60,,z,1,0.908575,,,,,,,,0.908575,1,,,,,,255,NW,"ID",33,apight,APIGHT,z,,,,,,0.122222222,-0.102083333,0,0,0,,0,204,204,254,1,
,,,,,,,,,,,,,,,,,,5eeb6916424ca42d92eac0f9,2020-11-27_11h31.19.750,lexical_decision_task_MP_exp2,2020.2.5,Win32,60,,z,1,0.794175,,,,,,,,0.794175,1,,,,,,397,NW,UN,33,blunde,CAMBLE,z,,,,,,0.122222222,-0.102083333,0,0,0,,0,205,205,396,1,
,,,,,,,,,,,,,,,,,,5eeb6916424ca42d92eac0f9,2020-11-27_11h31.19.750,lexical_decision_task_MP_exp2,2020.2.5,Win32,60,,z,1,0.737575,,,,,,,,0.737575,1,,,,,,382,NW,UN,33,aungre,SARLEY,z,,,,,,0.122222222,-0.102083333,0,0,0,,0,206,206,381,1,
,,,,,,,,,,,,,,,,,,5eeb6916424ca42d92eac0f9,2020-11-27_11h31.19.750,lexical_decision_task_MP_exp2,2020.2.5,Win32,60,,z,1,0.64879,,,,,,,,0.64879,1,,,,,,265,NW,"ID",33,distar,DISTAR,z,,,,,,0.122222222,-0.102083333,0,0,0,,0,207,207,264,1,
,,,,,,,,,,,,,,,,,,5eeb6916424ca42d92eac0f9,2020-11-27_11h31.19.750,lexical_decision_task_MP_exp2,2020.2.5,Win32,60,,m,1,0.645485,,,,,,,,0.645485,1,,,,,,135,WORD,UN,33,chrome,IMPORT,m,,,,,,0.122222222,-0.102083333,0,0,0,,0,208,208,134,1,
,,,,,,,,,,,,,,,,,,5eeb6916424ca42d92eac0f9,2020-11-27_11h31.19.750,lexical_decision_task_MP_exp2,2020.2.5,Win32,60,,m,1,0.7156,,,,,,,,0.7156,1,,,,,,54,WORD,"ID",33,ramble,RAMBLE,m,,,,,,0.122222222,-0.102083333,0,0,0,,0,209,209,53,1,
,,,,,,,,,,,,,,,,,,5eeb6916424ca42d92eac0f9,2020-11-27_11h31.19.750,lexical_decision_task_MP_exp2,2020.2.5,Win32,60,,z,1,0.74403,,,,,,,,0.74403,1,,,,,,278,NW,"ID",33,unighs,UNIGHS,z,,,,,,0.122222222,-0.102083333,0,0,0,,0,210,210,277,1,
,,,,,,,,,,,,,,,,,,5eeb6916424ca42d92eac0f9,2020-11-27_11h31.19.750,lexical_decision_task_MP_exp2,2020.2.5,Win32,60,,m,1,0.59049,,,,,,,,0.59049,1,,,,,,156,WORD,UN,33,pastor,CRADLE,m,,,,,,0.122222222,-0.102083333,0,0,0,,0,211,211,155,1,
,,,,,,,,,,,,,,,,,,5eeb6916424ca42d92eac0f9,2020-11-27_11h31.19.750,lexical_decision_task_MP_exp2,2020.2.5,Win32,60,,m,0,0.674865,,,,,,,,0.674865,0,,,,,,411,NW,UN,33,jiluer,ORCHIN,z,,,,,,0.122222222,-0.102083333,0,0,0,,0,212,212,410,1,
,,,,,,,,,,,,,,,,,,5eeb6916424ca42d92eac0f9,2020-11-27_11h31.19.750,lexical_decision_task_MP_exp2,2020.2.5,Win32,60,,z,1,0.96373,,,,,,,,0.96373,1,,,,,,356,NW,"ID",16,othnis,OTHNIS,z,,,,,,0.122222222,-0.102083333,0,0,0,,0,213,213,355,1,
,,,,,,,,,,,,,,,,,,5eeb6916424ca42d92eac0f9,2020-11-27_11h31.19.750,lexical_decision_task_MP_exp2,2020.2.5,Win32,60,,z,1,0.721115,,,,,,,,0.721115,1,,,,,,346,NW,"ID",16,saudic,SAUDIC,z,,,,,,0.122222222,-0.102083333,0,0,0,,0,214,214,345,1,
,,,,,,,,,,,,,,,,,,5eeb6916424ca42d92eac0f9,2020-11-27_11h31.19.750,lexical_decision_task_MP_exp2,2020.2.5,Win32,60,,z,1,0.593125,,,,,,,,0.593125,1,,,,,,439,NW,UN,16,saride,LIMPOR,z,,,,,,0.122222222,-0.102083333,0,0,0,,0,215,215,438,1,
,,,,,,,,,,,,,,,,,,5eeb6916424ca42d92eac0f9,2020-11-27_11h31.19.750,lexical_decision_task_MP_exp2,2020.2.5,Win32,60,,m,1,0.631635,,,,,,,,0.631635,1,,,,,,8,WORD,"ID",33,abrupt,ABRUPT,m,,,,,,0.122222222,-0.102083333,0,0,0,,0,216,216,7,1,
,,,,,,,,,,,,,,,,,,5eeb6916424ca42d92eac0f9,2020-11-27_11h31.19.750,lexical_decision_task_MP_exp2,2020.2.5,Win32,60,,z,1,0.726615,,,,,,,,0.726615,1,,,,,,304,NW,"ID",16,cludie,CLUDIE,z,,,,,,0.122222222,-0.102083333,0,0,0,,0,217,217,303,1,
,,,,,,,,,,,,,,,,,,5eeb6916424ca42d92eac0f9,2020-11-27_11h31.19.750,lexical_decision_task_MP_exp2,2020.2.5,Win32,60,,,0,,,,,,,,,0.726615,-1,,,,,,348,NW,"ID",16,dumple,DUMPLE,z,,,,,,0.122222222,-0.102083333,0,0,0,,0,218,218,347,1,
,,,,,,,,,,,,,,,,,,5eeb6916424ca42d92eac0f9,2020-11-27_11h31.19.750,lexical_decision_task_MP_exp2,2020.2.5,Win32,60,,z,1,0.994115,,,,,,,,0.994115,1,,,,,,420,NW,UN,33,pauche,GUSHOP,z,,,,,,0.122222222,-0.102083333,0,0,0,,0,219,219,419,1,
,,,,,,,,,,,,,,,,,,5eeb6916424ca42d92eac0f9,2020-11-27_11h31.19.750,lexical_decision_task_MP_exp2,2020.2.5,Win32,60,,z,1,0.7075,,,,,,,,0.7075,1,,,,,,281,NW,"ID",33,melaty,MELATY,z,,,,,,0.122222222,-0.102083333,0,0,0,,0,220,220,280,1,
,,,,,,,,,,,,,,,,,,5eeb6916424ca42d92eac0f9,2020-11-27_11h31.19.750,lexical_decision_task_MP_exp2,2020.2.5,Win32,60,,z,1,0.61738,,,,,,,,0.61738,1,,,,,,401,NW,UN,33,elopia,MUSTIL,z,,,,,,0.122222222,-0.102083333,0,0,0,,0,221,221,400,1,
,,,,,,,,,,,,,,,,,,5eeb6916424ca42d92eac0f9,2020-11-27_11h31.19.750,lexical_decision_task_MP_exp2,2020.2.5,Win32,60,,z,0,1.799925,,,,,,,,1.799925,0,,,,,,107,WORD,"ID",16,slogan,SLOGAN,m,,,,,,0.122222222,-0.102083333,0,0,0,,0,222,222,106,1,
,,,,,,,,,,,,,,,,,,5eeb6916424ca42d92eac0f9,2020-11-27_11h31.19.750,lexical_decision_task_MP_exp2,2020.2.5,Win32,60,,z,1,0.680135,,,,,,,,0.680135,1,,,,,,438,NW,UN,16,limpor,BAITCH,z,,,,,,0.122222222,-0.102083333,0,0,0,,0,223,223,437,1,
,,,,,,,,,,,,,,,,,,5eeb6916424ca42d92eac0f9,2020-11-27_11h31.19.750,lexical_decision_task_MP_exp2,2020.2.5,Win32,60,,m,1,0.580405,,,,,,,,0.580405,1,,,,,,240,WORD,UN,16,glance,FOREST,m,,,,,,0.122222222,-0.102083333,0,0,0,,0,224,224,239,1,
,,,,,,,,,,,,,,,,,,5eeb6916424ca42d92eac0f9,2020-11-27_11h31.19.750,lexical_decision_task_MP_exp2,2020.2.5,Win32,60,,m,1,0.572595,,,,,,,,0.572595,1,,,,,,104,WORD,"ID",16,studio,STUDIO,m,,,,,,0.122222222,-0.102083333,0,0,0,,0,225,225,103,1,
,,,,,,,,,,,,,,,,,,5eeb6916424ca42d92eac0f9,2020-11-27_11h31.19.750,lexical_decision_task_MP_exp2,2020.2.5,Win32,60,,z,1,0.6576,,,,,,,,0.6576,1,,,,,,250,NW,"ID",33,milted,MILTED,z,,,,,,0.122222222,-0.102083333,0,0,0,,0,226,226,249,1,
,,,,,,,,,,,,,,,,,,5eeb6916424ca42d92eac0f9,2020-11-27_11h31.19.750,lexical_decision_task_MP_exp2,2020.2.5,Win32,60,,m,1,0.73932,,,,,,,,0.73932,1,,,,,,61,WORD,"ID",16,ponder,PONDER,m,,,,,,0.122222222,-0.102083333,0,0,0,,0,227,227,60,1,
,,,,,,,,,,,,,,,,,,5eeb6916424ca42d92eac0f9,2020-11-27_11h31.19.750,lexical_decision_task_MP_exp2,2020.2.5,Win32,60,,m,1,0.47126,,,,,,,,0.47126,1,,,,,,73,WORD,"ID",16,source,SOURCE,m,,,,,,0.122222222,-0.102083333,0,0,0,,0,228,228,72,1,
,,,,,,,,,,,,,,,,,,5eeb6916424ca42d92eac0f9,2020-11-27_11h31.19.750,lexical_decision_task_MP_exp2,2020.2.5,Win32,60,,z,1,0.54472,,,,,,,,0.54472,1,,,,,,351,NW,"ID",16,tiesch,TIESCH,z,,,,,,0.122222222,-0.102083333,0,0,0,,0,229,229,350,1,
,,,,,,,,,,,,,,,,,,5eeb6916424ca42d92eac0f9,2020-11-27_11h31.19.750,lexical_decision_task_MP_exp2,2020.2.5,Win32,60,,m,1,0.58106,,,,,,,,0.58106,1,,,,,,28,WORD,"ID",33,comedy,COMEDY,m,,,,,,0.122222222,-0.102083333,0,0,0,,0,230,230,27,1,
,,,,,,,,,,,,,,,,,,5eeb6916424ca42d92eac0f9,2020-11-27_11h31.19.750,lexical_decision_task_MP_exp2,2020.2.5,Win32,60,,m,1,0.630105,,,,,,,,0.630105,1,,,,,,17,WORD,"ID",33,charge,CHARGE,m,,,,,,0.122222222,-0.102083333,0,0,0,,0,231,231,16,1,
,,,,,,,,,,,,,,,,,,5eeb6916424ca42d92eac0f9,2020-11-27_11h31.19.750,lexical_decision_task_MP_exp2,2020.2.5,Win32,60,,m,0,0.470715,,,,,,,,0.470715,0,,,,,,369,NW,UN,33,sleact,WRONCH,z,,,,,,0.122222222,-0.102083333,0,0,0,,0,232,232,368,1,
,,,,,,,,,,,,,,,,,,5eeb6916424ca42d92eac0f9,2020-11-27_11h31.19.750,lexical_decision_task_MP_exp2,2020.2.5,Win32,60,,m,1,0.57982,,,,,,,,0.57982,1,,,,,,113,WORD,"ID",16,chorus,CHORUS,m,,,,,,0.122222222,-0.102083333,0,0,0,,0,233,233,112,1,
,,,,,,,,,,,,,,,,,,5eeb6916424ca42d92eac0f9,2020-11-27_11h31.19.750,lexical_decision_task_MP_exp2,2020.2.5,Win32,60,,m,1,0.554345,,,,,,,,0.554345,1,,,,,,128,WORD,UN,33,marvel,SENIOR,m,,,,,,0.122222222,-0.102083333,0,0,0,,0,234,234,127,1,
,,,,,,,,,,,,,,,,,,5eeb6916424ca42d92eac0f9,2020-11-27_11h31.19.750,lexical_decision_task_MP_exp2,2020.2.5,Win32,60,,z,1,0.742415,,,,,,,,0.742415,1,,,,,,352,NW,"ID",16,tringe,TRINGE,z,,,,,,0.122222222,-0.102083333,0,0,0,,0,235,235,351,1,
,,,,,,,,,,,,,,,,,,5eeb6916424ca42d92eac0f9,2020-11-27_11h31.19.750,lexical_decision_task_MP_exp2,2020.2.5,Win32,60,,m,1,0.65099,,,,,,,,0.65099,1,,,,,,123,WORD,UN,33,enough,STRIKE,m,,,,,,0.122222222,-0.102083333,0,0,0,,0,236,236,122,1,
,,,,,,,,,,,,,,,,,,5eeb6916424ca42d92eac0f9,2020-11-27_11h31.19.750,lexical_decision_task_MP_exp2,2020.2.5,Win32,60,,m,1,0.47589,,,,,,,,0.47589,1,,,,,,132,WORD,UN,33,bleach,STRONG,m,,,,,,0.122222222,-0.102083333,0,0,0,,0,237,237,131,1,
,,,,,,,,,,,,,,,,,,5eeb6916424ca42d92eac0f9,2020-11-27_11h31.19.750,lexical_decision_task_MP_exp2,2020.2.5,Win32,60,,z,1,0.586155,,,,,,,,0.586155,1,,,,,,329,NW,"ID",16,yarike,YARIKE,z,,,,,,0.122222222,-0.102083333,0,0,0,,0,238,238,328,1,
,,,,,,,,,,,,,,,,,,5eeb6916424ca42d92eac0f9,2020-11-27_11h31.19.750,lexical_decision_task_MP_exp2,2020.2.5,Win32,60,,m,1,0.72031,,,,,,,,0.72031,1,,,,,,195,WORD,UN,16,credit,RESIGN,m,,,,,,0.122222222,-0.102083333,0,0,0,,0,239,239,194,1,
,,,,,,,,,,,,,,,,,,5eeb6916424ca42d92eac0f9,2020-11-27_11h31.19.750,lexical_decision_task_MP_exp2,2020.2.5,Win32,60,,m,1,0.515,,,,,,,,0.515,1,,,,,,91,WORD,"ID",16,expand,EXPAND,m,,,,,,0.122222222,-0.102083333,0,0,0,,0,240,240,90,1,
,,,,,,,,,,,,,,,,,,5eeb6916424ca42d92eac0f9,2020-11-27_11h31.19.750,lexical_decision_task_MP_exp2,2020.2.5,Win32,60,,z,1,0.60515,,,,,,,,0.60515,1,,,,,,435,NW,UN,16,frutan,IMPURB,z,,,,,,0.888194444,-0.383333333,0,0,0,space,0,241,241,434,1,61.29159
,,,,,,,,,,,,,,,,,,5eeb6916424ca42d92eac0f9,2020-11-27_11h31.19.750,lexical_decision_task_MP_exp2,2020.2.5,Win32,60,,m,1,0.65413,,,,,,,,0.65413,1,,,,,,199,WORD,UN,16,beacon,INVOKE,m,,,,,,0.888194444,-0.383333333,0,0,0,,0,242,242,198,1,
,,,,,,,,,,,,,,,,,,5eeb6916424ca42d92eac0f9,2020-11-27_11h31.19.750,lexical_decision_task_MP_exp2,2020.2.5,Win32,60,,m,1,0.39396,,,,,,,,0.39396,1,,,,,,15,WORD,"ID",33,amount,AMOUNT,m,,,,,,0.888194444,-0.383333333,0,0,0,,0,243,243,14,1,
,,,,,,,,,,,,,,,,,,5eeb6916424ca42d92eac0f9,2020-11-27_11h31.19.750,lexical_decision_task_MP_exp2,2020.2.5,Win32,60,,m,1,0.41462,,,,,,,,0.41462,1,,,,,,83,WORD,"ID",16,result,RESULT,m,,,,,,0.888194444,-0.383333333,0,0,0,,0,244,244,82,1,
,,,,,,,,,,,,,,,,,,5eeb6916424ca42d92eac0f9,2020-11-27_11h31.19.750,lexical_decision_task_MP_exp2,2020.2.5,Win32,60,,z,1,0.60684,,,,,,,,0.60684,1,,,,,,468,NW,UN,16,padifs,WICTOR,z,,,,,,0.888194444,-0.383333333,0,0,0,,0,245,245,467,1,
,,,,,,,,,,,,,,,,,,5eeb6916424ca42d92eac0f9,2020-11-27_11h31.19.750,lexical_decision_task_MP_exp2,2020.2.5,Win32,60,,z,1,1.014615,,,,,,,,1.014615,1,,,,,,291,NW,"ID",33,pretch,PRETCH,z,,,,,,0.888194444,-0.383333333,0,0,0,,0,246,246,290,1,
,,,,,,,,,,,,,,,,,,5eeb6916424ca42d92eac0f9,2020-11-27_11h31.19.750,lexical_decision_task_MP_exp2,2020.2.5,Win32,60,,m,1,0.704415,,,,,,,,0.704415,1,,,,,,86,WORD,"ID",16,rodent,RODENT,m,,,,,,0.888194444,-0.383333333,0,0,0,,0,247,247,85,1,
,,,,,,,,,,,,,,,,,,5eeb6916424ca42d92eac0f9,2020-11-27_11h31.19.750,lexical_decision_task_MP_exp2,2020.2.5,Win32,60,,z,1,0.76903,,,,,,,,0.76903,1,,,,,,440,NW,UN,16,cainky,SARIDE,z,,,,,,0.888194444,-0.383333333,0,0,0,,0,248,248,439,1,
,,,,,,,,,,,,,,,,,,5eeb6916424ca42d92eac0f9,2020-11-27_11h31.19.750,lexical_decision_task_MP_exp2,2020.2.5,Win32,60,,z,1,0.652365,,,,,,,,0.652365,1,,,,,,457,NW,UN,16,barcet,WANIGH,z,,,,,,0.888194444,-0.383333333,0,0,0,,0,249,249,456,1,
,,,,,,,,,,,,,,,,,,5eeb6916424ca42d92eac0f9,2020-11-27_11h31.19.750,lexical_decision_task_MP_exp2,2020.2.5,Win32,60,,m,1,0.78011,,,,,,,,0.78011,1,,,,,,45,WORD,"ID",33,clergy,CLERGY,m,,,,,,0.888194444,-0.383333333,0,0,0,,0,250,250,44,1,
,,,,,,,,,,,,,,,,,,5eeb6916424ca42d92eac0f9,2020-11-27_11h31.19.750,lexical_decision_task_MP_exp2,2020.2.5,Win32,60,,m,1,0.47821,,,,,,,,0.47821,1,,,,,,174,WORD,UN,33,fabric,TURKEY,m,,,,,,0.888194444,-0.383333333,0,0,0,,0,251,251,173,1,
,,,,,,,,,,,,,,,,,,5eeb6916424ca42d92eac0f9,2020-11-27_11h31.19.750,lexical_decision_task_MP_exp2,2020.2.5,Win32,60,,m,1,0.47424,,,,,,,,0.47424,1,,,,,,24,WORD,"ID",33,praise,PRAISE,m,,,,,,0.888194444,-0.383333333,0,0,0,,0,252,252,23,1,
,,,,,,,,,,,,,,,,,,5eeb6916424ca42d92eac0f9,2020-11-27_11h31.19.750,lexical_decision_task_MP_exp2,2020.2.5,Win32,60,,z,1,0.561925,,,,,,,,0.561925,1,,,,,,405,NW,UN,33,nouply,FLUMNI,z,,,,,,0.888194444,-0.383333333,0,0,0,,0,253,253,404,1,
,,,,,,,,,,,,,,,,,,5eeb6916424ca42d92eac0f9,2020-11-27_11h31.19.750,lexical_decision_task_MP_exp2,2020.2.5,Win32,60,,z,1,0.51762,,,,,,,,0.51762,1,,,,,,384,NW,UN,33,veigma,GUESCO,z,,,,,,0.888194444,-0.383333333,0,0,0,,0,254,254,383,1,
,,,,,,,,,,,,,,,,,,5eeb6916424ca42d92eac0f9,2020-11-27_11h31.19.750,lexical_decision_task_MP_exp2,2020.2.5,Win32,60,,z,1,0.548765,,,,,,,,0.548765,1,,,,,,414,NW,UN,33,higsta,SERBOL,z,,,,,,0.888194444,-0.383333333,0,0,0,,0,255,255,413,1,
,,,,,,,,,,,,,,,,,,5eeb6916424ca42d92eac0f9,2020-11-27_11h31.19.750,lexical_decision_task_MP_exp2,2020.2.5,Win32,60,,m,1,0.606455,,,,,,,,0.606455,1,,,,,,189,WORD,UN,16,backup,CENSOR,m,,,,,,0.888194444,-0.383333333,0,0,0,,0,256,256,188,1,
,,,,,,,,,,,,,,,,,,5eeb6916424ca42d92eac0f9,2020-11-27_11h31.19.750,lexical_decision_task_MP_exp2,2020.2.5,Win32,60,,m,1,0.5076,,,,,,,,0.5076,1,,,,,,12,WORD,"ID",33,orange,ORANGE,m,,,,,,0.888194444,-0.383333333,0,0,0,,0,257,257,11,1,
,,,,,,,,,,,,,,,,,,5eeb6916424ca42d92eac0f9,2020-11-27_11h31.19.750,lexical_decision_task_MP_exp2,2020.2.5,Win32,60,,z,1,0.677105,,,,,,,,0.677105,1,,,,,,474,NW,UN,16,gorbie,HABLIN,z,,,,,,0.888194444,-0.383333333,0,0,0,,0,258,258,473,1,
,,,,,,,,,,,,,,,,,,5eeb6916424ca42d92eac0f9,2020-11-27_11h31.19.750,lexical_decision_task_MP_exp2,2020.2.5,Win32,60,,z,1,0.730785,,,,,,,,0.730785,1,,,,,,464,NW,UN,16,whivex,CHAITE,z,,,,,,0.888194444,-0.383333333,0,0,0,,0,259,259,463,1,
,,,,,,,,,,,,,,,,,,5eeb6916424ca42d92eac0f9,2020-11-27_11h31.19.750,lexical_decision_task_MP_exp2,2020.2.5,Win32,60,,z,1,0.76305,,,,,,,,0.76305,1,,,,,,316,NW,"ID",16,scregm,SCREGM,z,,,,,,0.888194444,-0.383333333,0,0,0,,0,260,260,315,1,
,,,,,,,,,,,,,,,,,,5eeb6916424ca42d92eac0f9,2020-11-27_11h31.19.750,lexical_decision_task_MP_exp2,2020.2.5,Win32,60,,m,1,0.574585,,,,,,,,0.574585,1,,,,,,203,WORD,UN,16,burden,PHRASE,m,,,,,,0.888194444,-0.383333333,0,0,0,,0,261,261,202,1,
,,,,,,,,,,,,,,,,,,5eeb6916424ca42d92eac0f9,2020-11-27_11h31.19.750,lexical_decision_task_MP_exp2,2020.2.5,Win32,60,,z,1,0.69254,,,,,,,,0.69254,1,,,,,,453,NW,UN,16,scouge,BOLVIS,z,,,,,,0.888194444,-0.383333333,0,0,0,,0,262,262,452,1,
,,,,,,,,,,,,,,,,,,5eeb6916424ca42d92eac0f9,2020-11-27_11h31.19.750,lexical_decision_task_MP_exp2,2020.2.5,Win32,60,,z,1,0.84826,,,,,,,,0.84826,1,,,,,,364,NW,UN,33,guairt,IMPOTE,z,,,,,,0.888194444,-0.383333333,0,0,0,,0,263,263,363,1,
,,,,,,,,,,,,,,,,,,5eeb6916424ca42d92eac0f9,2020-11-27_11h31.19.750,lexical_decision_task_MP_exp2,2020.2.5,Win32,60,,m,1,0.522855,,,,,,,,0.522855,1,,,,,,137,WORD,UN,33,melody,FINGER,m,,,,,,0.888194444,-0.383333333,0,0,0,,0,264,264,136,1,
,,,,,,,,,,,,,,,,,,5eeb6916424ca42d92eac0f9,2020-11-27_11h31.19.750,lexical_decision_task_MP_exp2,2020.2.5,Win32,60,,z,1,0.65448,,,,,,,,0.65448,1,,,,,,454,NW,UN,16,tondle,SCOUGE,z,,,,,,0.888194444,-0.383333333,0,0,0,,0,265,265,453,1,
,,,,,,,,,,,,,,,,,,5eeb6916424ca42d92eac0f9,2020-11-27_11h31.19.750,lexical_decision_task_MP_exp2,2020.2.5,Win32,60,,m,1,0.90591,,,,,,,,0.90591,1,,,,,,218,WORD,UN,16,bucket,SHRINK,m,,,,,,0.888194444,-0.383333333,0,0,0,,0,266,266,217,1,
,,,,,,,,,,,,,,,,,,5eeb6916424ca42d92eac0f9,2020-11-27_11h31.19.750,lexical_decision_task_MP_exp2,2020.2.5,Win32,60,,m,1,0.56975,,,,,,,,0.56975,1,,,,,,179,WORD,UN,33,silent,BASKET,m,,,,,,0.888194444,-0.383333333,0,0,0,,0,267,267,178,1,
,,,,,,,,,,,,,,,,,,5eeb6916424ca42d92eac0f9,2020-11-27_11h31.19.750,lexical_decision_task_MP_exp2,2020.2.5,Win32,60,,z,0,0.54014,,,,,,,,0.54014,0,,,,,,19,WORD,"ID",33,patron,PATRON,m,,,,,,0.888194444,-0.383333333,0,0,0,,0,268,268,18,1,
,,,,,,,,,,,,,,,,,,5eeb6916424ca42d92eac0f9,2020-11-27_11h31.19.750,lexical_decision_task_MP_exp2,2020.2.5,Win32,60,,z,1,0.748955,,,,,,,,0.748955,1,,,,,,294,NW,"ID",33,inhort,INHORT,z,,,,,,0.888194444,-0.383333333,0,0,0,,0,269,269,293,1,
,,,,,,,,,,,,,,,,,,5eeb6916424ca42d92eac0f9,2020-11-27_11h31.19.750,lexical_decision_task_MP_exp2,2020.2.5,Win32,60,,z,1,0.703285,,,,,,,,0.703285,1,,,,,,415,NW,UN,33,pathel,HIGSTA,z,,,,,,0.888194444,-0.383333333,0,0,0,,0,270,270,414,1,
,,,,,,,,,,,,,,,,,,5eeb6916424ca42d92eac0f9,2020-11-27_11h31.19.750,lexical_decision_task_MP_exp2,2020.2.5,Win32,60,,m,1,0.60252,,,,,,,,0.60252,1,,,,,,30,WORD,"ID",33,orient,ORIENT,m,,,,,,0.888194444,-0.383333333,0,0,0,,0,271,271,29,1,
,,,,,,,,,,,,,,,,,,5eeb6916424ca42d92eac0f9,2020-11-27_11h31.19.750,lexical_decision_task_MP_exp2,2020.2.5,Win32,60,,z,1,0.695055,,,,,,,,0.695055,1,,,,,,320,NW,"ID",16,jockal,JOCKAL,z,,,,,,0.888194444,-0.383333333,0,0,0,,0,272,272,319,1,
,,,,,,,,,,,,,,,,,,5eeb6916424ca42d92eac0f9,2020-11-27_11h31.19.750,lexical_decision_task_MP_exp2,2020.2.5,Win32,60,,z,1,0.709825,,,,,,,,0.709825,1,,,,,,330,NW,"ID",16,kensom,KENSOM,z,,,,,,0.888194444,-0.383333333,0,0,0,,0,273,273,329,1,
,,,,,,,,,,,,,,,,,,5eeb6916424ca42d92eac0f9,2020-11-27_11h31.19.750,lexical_decision_task_MP_exp2,2020.2.5,Win32,60,,m,1,0.56935,,,,,,,,0.56935,1,,,,,,71,WORD,"ID",16,garden,GARDEN,m,,,,,,0.888194444,-0.383333333,0,0,0,,0,274,274,70,1,
,,,,,,,,,,,,,,,,,,5eeb6916424ca42d92eac0f9,2020-11-27_11h31.19.750,lexical_decision_task_MP_exp2,2020.2.5,Win32,60,,m,1,0.533825,,,,,,,,0.533825,1,,,,,,234,WORD,UN,16,lumber,CLUMSY,m,,,,,,0.888194444,-0.383333333,0,0,0,,0,275,275,233,1,
,,,,,,,,,,,,,,,,,,5eeb6916424ca42d92eac0f9,2020-11-27_11h31.19.750,lexical_decision_task_MP_exp2,2020.2.5,Win32,60,,m,1,0.711065,,,,,,,,0.711065,1,,,,,,74,WORD,"ID",16,plaque,PLAQUE,m,,,,,,0.888194444,-0.383333333,0,0,0,,0,276,276,73,1,
,,,,,,,,,,,,,,,,,,5eeb6916424ca42d92eac0f9,2020-11-27_11h31.19.750,lexical_decision_task_MP_exp2,2020.2.5,Win32,60,,z,1,0.666505,,,,,,,,0.666505,1,,,,,,357,NW,"ID",16,derain,DERAIN,z,,,,,,0.888194444,-0.383333333,0,0,0,,0,277,277,356,1,
,,,,,,,,,,,,,,,,,,5eeb6916424ca42d92eac0f9,2020-11-27_11h31.19.750,lexical_decision_task_MP_exp2,2020.2.5,Win32,60,,z,1,0.80969,,,,,,,,0.80969,1,,,,,,416,NW,UN,33,earoud,PATHEL,z,,,,,,0.888194444,-0.383333333,0,0,0,,0,278,278,415,1,
,,,,,,,,,,,,,,,,,,5eeb6916424ca42d92eac0f9,2020-11-27_11h31.19.750,lexical_decision_task_MP_exp2,2020.2.5,Win32,60,,z,1,0.693235,,,,,,,,0.693235,1,,,,,,376,NW,UN,33,sliant,IGUARE,z,,,,,,0.888194444,-0.383333333,0,0,0,,0,279,279,375,1,
,,,,,,,,,,,,,,,,,,5eeb6916424ca42d92eac0f9,2020-11-27_11h31.19.750,lexical_decision_task_MP_exp2,2020.2.5,Win32,60,,m,1,0.57836,,,,,,,,0.57836,1,,,,,,60,WORD,"ID",33,pencil,PENCIL,m,,,,,,0.888194444,-0.383333333,0,0,0,,0,280,280,59,1,
,,,,,,,,,,,,,,,,,,5eeb6916424ca42d92eac0f9,2020-11-27_11h31.19.750,lexical_decision_task_MP_exp2,2020.2.5,Win32,60,,z,1,0.83297,,,,,,,,0.83297,1,,,,,,332,NW,"ID",16,vangue,VANGUE,z,,,,,,0.888194444,-0.383333333,0,0,0,,0,281,281,331,1,
,,,,,,,,,,,,,,,,,,5eeb6916424ca42d92eac0f9,2020-11-27_11h31.19.750,lexical_decision_task_MP_exp2,2020.2.5,Win32,60,,m,1,0.566075,,,,,,,,0.566075,1,,,,,,233,WORD,UN,16,clumsy,NATURE,m,,,,,,0.888194444,-0.383333333,0,0,0,,0,282,282,232,1,
,,,,,,,,,,,,,,,,,,5eeb6916424ca42d92eac0f9,2020-11-27_11h31.19.750,lexical_decision_task_MP_exp2,2020.2.5,Win32,60,,m,0,0.555285,,,,,,,,0.555285,0,,,,,,303,NW,"ID",16,fiream,FIREAM,z,,,,,,0.888194444,-0.383333333,0,0,0,,0,283,283,302,1,
,,,,,,,,,,,,,,,,,,5eeb6916424ca42d92eac0f9,2020-11-27_11h31.19.750,lexical_decision_task_MP_exp2,2020.2.5,Win32,60,,m,1,0.55431,,,,,,,,0.55431,1,,,,,,51,WORD,"ID",33,hungry,HUNGRY,m,,,,,,0.888194444,-0.383333333,0,0,0,,0,284,284,50,1,
,,,,,,,,,,,,,,,,,,5eeb6916424ca42d92eac0f9,2020-11-27_11h31.19.750,lexical_decision_task_MP_exp2,2020.2.5,Win32,60,,z,1,0.65608,,,,,,,,0.65608,1,,,,,,339,NW,"ID",16,fachow,FACHOW,z,,,,,,0.888194444,-0.383333333,0,0,0,,0,285,285,338,1,
,,,,,,,,,,,,,,,,,,5eeb6916424ca42d92eac0f9,2020-11-27_11h31.19.750,lexical_decision_task_MP_exp2,2020.2.5,Win32,60,,m,1,0.533295,,,,,,,,0.533295,1,,,,,,2,WORD,"ID",33,bridge,BRIDGE,m,,,,,,0.888194444,-0.383333333,0,0,0,,0,286,286,1,1,
,,,,,,,,,,,,,,,,,,5eeb6916424ca42d92eac0f9,2020-11-27_11h31.19.750,lexical_decision_task_MP_exp2,2020.2.5,Win32,60,,z,0,0.839615,,,,,,,,0.839615,0,,,,,,114,WORD,"ID",16,placid,PLACID,m,,,,,,0.888194444,-0.383333333,0,0,0,,0,287,287,113,1,
,,,,,,,,,,,,,,,,,,5eeb6916424ca42d92eac0f9,2020-11-27_11h31.19.750,lexical_decision_task_MP_exp2,2020.2.5,Win32,60,,m,1,0.559465,,,,,,,,0.559465,1,,,,,,154,WORD,UN,33,lizard,AUTHOR,m,,,,,,0.888194444,-0.383333333,0,0,0,,0,288,288,153,1,
,,,,,,,,,,,,,,,,,,5eeb6916424ca42d92eac0f9,2020-11-27_11h31.19.750,lexical_decision_task_MP_exp2,2020.2.5,Win32,60,,m,1,0.536105,,,,,,,,0.536105,1,,,,,,192,WORD,UN,16,object,PLAGUE,m,,,,,,0.888194444,-0.383333333,0,0,0,,0,289,289,191,1,
,,,,,,,,,,,,,,,,,,5eeb6916424ca42d92eac0f9,2020-11-27_11h31.19.750,lexical_decision_task_MP_exp2,2020.2.5,Win32,60,,z,1,0.83695,,,,,,,,0.83695,1,,,,,,246,NW,"ID",33,piaton,PIATON,z,,,,,,0.888194444,-0.383333333,0,0,0,,0,290,290,245,1,
,,,,,,,,,,,,,,,,,,5eeb6916424ca42d92eac0f9,2020-11-27_11h31.19.750,lexical_decision_task_MP_exp2,2020.2.5,Win32,60,,z,1,0.71499,,,,,,,,0.71499,1,,,,,,478,NW,UN,16,lobush,ACRISE,z,,,,,,0.888194444,-0.383333333,0,0,0,,0,291,291,477,1,
,,,,,,,,,,,,,,,,,,5eeb6916424ca42d92eac0f9,2020-11-27_11h31.19.750,lexical_decision_task_MP_exp2,2020.2.5,Win32,60,,m,1,0.554985,,,,,,,,0.554985,1,,,,,,164,WORD,UN,33,invest,MARKET,m,,,,,,0.888194444,-0.383333333,0,0,0,,0,292,292,163,1,
,,,,,,,,,,,,,,,,,,5eeb6916424ca42d92eac0f9,2020-11-27_11h31.19.750,lexical_decision_task_MP_exp2,2020.2.5,Win32,60,,z,1,0.60394,,,,,,,,0.60394,1,,,,,,311,NW,"ID",16,sproly,SPROLY,z,,,,,,0.888194444,-0.383333333,0,0,0,,0,293,293,310,1,
,,,,,,,,,,,,,,,,,,5eeb6916424ca42d92eac0f9,2020-11-27_11h31.19.750,lexical_decision_task_MP_exp2,2020.2.5,Win32,60,,m,1,0.522525,,,,,,,,0.522525,1,,,,,,120,WORD,"ID",16,strain,STRAIN,m,,,,,,0.888194444,-0.383333333,0,0,0,,0,294,294,119,1,
,,,,,,,,,,,,,,,,,,5eeb6916424ca42d92eac0f9,2020-11-27_11h31.19.750,lexical_decision_task_MP_exp2,2020.2.5,Win32,60,,z,1,0.61156,,,,,,,,0.61156,1,,,,,,293,NW,"ID",33,swance,SWANCE,z,,,,,,0.888194444,-0.383333333,0,0,0,,0,295,295,292,1,
,,,,,,,,,,,,,,,,,,5eeb6916424ca42d92eac0f9,2020-11-27_11h31.19.750,lexical_decision_task_MP_exp2,2020.2.5,Win32,60,,z,1,0.90284,,,,,,,,0.90284,1,,,,,,244,NW,"ID",33,eatric,EATRIC,z,,,,,,0.888194444,-0.383333333,0,0,0,,0,296,296,243,1,
,,,,,,,,,,,,,,,,,,5eeb6916424ca42d92eac0f9,2020-11-27_11h31.19.750,lexical_decision_task_MP_exp2,2020.2.5,Win32,60,,m,1,0.769715,,,,,,,,0.769715,1,,,,,,222,WORD,UN,16,casino,HINDER,m,,,,,,0.888194444,-0.383333333,0,0,0,,0,297,297,221,1,
,,,,,,,,,,,,,,,,,,5eeb6916424ca42d92eac0f9,2020-11-27_11h31.19.750,lexical_decision_task_MP_exp2,2020.2.5,Win32,60,,m,1,0.50908,,,,,,,,0.50908,1,,,,,,228,WORD,UN,16,inject,MASTER,m,,,,,,0.888194444,-0.383333333,0,0,0,,0,298,298,227,1,
,,,,,,,,,,,,,,,,,,5eeb6916424ca42d92eac0f9,2020-11-27_11h31.19.750,lexical_decision_task_MP_exp2,2020.2.5,Win32,60,,m,1,0.57659,,,,,,,,0.57659,1,,,,,,84,WORD,"ID",16,mortal,MORTAL,m,,,,,,0.888194444,-0.383333333,0,0,0,,0,299,299,83,1,
,,,,,,,,,,,,,,,,,,5eeb6916424ca42d92eac0f9,2020-11-27_11h31.19.750,lexical_decision_task_MP_exp2,2020.2.5,Win32,60,,z,1,0.658195,,,,,,,,0.658195,1,,,,,,371,NW,UN,33,ramily,GEILOY,z,,,,,,0.888194444,-0.383333333,0,0,0,,0,300,300,370,1,
,,,,,,,,,,,,,,,,,,5eeb6916424ca42d92eac0f9,2020-11-27_11h31.19.750,lexical_decision_task_MP_exp2,2020.2.5,Win32,60,,z,1,0.65171,,,,,,,,0.65171,1,,,,,,446,NW,UN,16,gircue,RUNAMO,z,,,,,,0.888194444,-0.383333333,0,0,0,,0,301,301,445,1,
,,,,,,,,,,,,,,,,,,5eeb6916424ca42d92eac0f9,2020-11-27_11h31.19.750,lexical_decision_task_MP_exp2,2020.2.5,Win32,60,,z,1,0.946145,,,,,,,,0.946145,1,,,,,,370,NW,UN,33,geiloy,SLEACT,z,,,,,,0.888194444,-0.383333333,0,0,0,,0,302,302,369,1,
,,,,,,,,,,,,,,,,,,5eeb6916424ca42d92eac0f9,2020-11-27_11h31.19.750,lexical_decision_task_MP_exp2,2020.2.5,Win32,60,,z,1,0.64847,,,,,,,,0.64847,1,,,,,,249,NW,"ID",33,batrol,BATROL,z,,,,,,0.888194444,-0.383333333,0,0,0,,0,303,303,248,1,
,,,,,,,,,,,,,,,,,,5eeb6916424ca42d92eac0f9,2020-11-27_11h31.19.750,lexical_decision_task_MP_exp2,2020.2.5,Win32,60,,m,1,0.669605,,,,,,,,0.669605,1,,,,,,180,WORD,UN,33,thrive,SILENT,m,,,,,,0.888194444,-0.383333333,0,0,0,,0,304,304,179,1,
,,,,,,,,,,,,,,,,,,5eeb6916424ca42d92eac0f9,2020-11-27_11h31.19.750,lexical_decision_task_MP_exp2,2020.2.5,Win32,60,,m,1,0.57988,,,,,,,,0.57988,1,,,,,,64,WORD,"ID",16,throne,THRONE,m,,,,,,0.888194444,-0.383333333,0,0,0,,0,305,305,63,1,
,,,,,,,,,,,,,,,,,,5eeb6916424ca42d92eac0f9,2020-11-27_11h31.19.750,lexical_decision_task_MP_exp2,2020.2.5,Win32,60,,m,1,0.62388,,,,,,,,0.62388,1,,,,,,194,WORD,UN,16,resign,ABSENT,m,,,,,,0.888194444,-0.383333333,0,0,0,,0,306,306,193,1,
,,,,,,,,,,,,,,,,,,5eeb6916424ca42d92eac0f9,2020-11-27_11h31.19.750,lexical_decision_task_MP_exp2,2020.2.5,Win32,60,,z,1,0.771545,,,,,,,,0.771545,1,,,,,,433,NW,UN,16,pitrom,DRANCE,z,,,,,,0.888194444,-0.383333333,0,0,0,,0,307,307,432,1,
,,,,,,,,,,,,,,,,,,5eeb6916424ca42d92eac0f9,2020-11-27_11h31.19.750,lexical_decision_task_MP_exp2,2020.2.5,Win32,60,,m,1,0.589865,,,,,,,,0.589865,1,,,,,,102,WORD,"ID",16,direct,DIRECT,m,,,,,,0.888194444,-0.383333333,0,0,0,,0,308,308,101,1,
,,,,,,,,,,,,,,,,,,5eeb6916424ca42d92eac0f9,2020-11-27_11h31.19.750,lexical_decision_task_MP_exp2,2020.2.5,Win32,60,,z,1,0.66411,,,,,,,,0.66411,1,,,,,,321,NW,"ID",16,miator,MIATOR,z,,,,,,0.888194444,-0.383333333,0,0,0,,0,309,309,320,1,
,,,,,,,,,,,,,,,,,,5eeb6916424ca42d92eac0f9,2020-11-27_11h31.19.750,lexical_decision_task_MP_exp2,2020.2.5,Win32,60,,m,1,0.462415,,,,,,,,0.462415,1,,,,,,200,WORD,UN,16,admire,BEACON,m,,,,,,0.888194444,-0.383333333,0,0,0,,0,310,310,199,1,
,,,,,,,,,,,,,,,,,,5eeb6916424ca42d92eac0f9,2020-11-27_11h31.19.750,lexical_decision_task_MP_exp2,2020.2.5,Win32,60,,m,1,0.440145,,,,,,,,0.440145,1,,,,,,210,WORD,UN,16,infect,MONKEY,m,,,,,,0.888194444,-0.383333333,0,0,0,,0,311,311,209,1,
,,,,,,,,,,,,,,,,,,5eeb6916424ca42d92eac0f9,2020-11-27_11h31.19.750,lexical_decision_task_MP_exp2,2020.2.5,Win32,60,,m,1,0.51104,,,,,,,,0.51104,1,,,,,,224,WORD,UN,16,vulgar,PERIOD,m,,,,,,0.888194444,-0.383333333,0,0,0,,0,312,312,223,1,
,,,,,,,,,,,,,,,,,,5eeb6916424ca42d92eac0f9,2020-11-27_11h31.19.750,lexical_decision_task_MP_exp2,2020.2.5,Win32,60,,m,0,0.492495,,,,,,,,0.492495,0,,,,,,379,NW,UN,33,cavory,AUTING,z,,,,,,0.888194444,-0.383333333,0,0,0,,0,313,313,378,1,
,,,,,,,,,,,,,,,,,,5eeb6916424ca42d92eac0f9,2020-11-27_11h31.19.750,lexical_decision_task_MP_exp2,2020.2.5,Win32,60,,z,1,0.707475,,,,,,,,0.707475,1,,,,,,297,NW,"ID",33,fertic,FERTIC,z,,,,,,0.888194444,-0.383333333,0,0,0,,0,314,314,296,1,
,,,,,,,,,,,,,,,,,,5eeb6916424ca42d92eac0f9,2020-11-27_11h31.19.750,lexical_decision_task_MP_exp2,2020.2.5,Win32,60,,m,0,0.679445,,,,,,,,0.679445,0,,,,,,462,NW,UN,16,kispel,ABSULT,z,,,,,,0.888194444,-0.383333333,0,0,0,,0,315,315,461,1,
,,,,,,,,,,,,,,,,,,5eeb6916424ca42d92eac0f9,2020-11-27_11h31.19.750,lexical_decision_task_MP_exp2,2020.2.5,Win32,60,,z,1,0.81709,,,,,,,,0.81709,1,,,,,,284,NW,"ID",33,shaple,SHAPLE,z,,,,,,0.888194444,-0.383333333,0,0,0,,0,316,316,283,1,
,,,,,,,,,,,,,,,,,,5eeb6916424ca42d92eac0f9,2020-11-27_11h31.19.750,lexical_decision_task_MP_exp2,2020.2.5,Win32,60,,z,1,0.6404,,,,,,,,0.6404,1,,,,,,272,NW,"ID",33,damilt,DAMILT,z,,,,,,0.888194444,-0.383333333,0,0,0,,0,317,317,271,1,
,,,,,,,,,,,,,,,,,,5eeb6916424ca42d92eac0f9,2020-11-27_11h31.19.750,lexical_decision_task_MP_exp2,2020.2.5,Win32,60,,m,1,0.637405,,,,,,,,0.637405,1,,,,,,116,WORD,"ID",16,tumble,TUMBLE,m,,,,,,0.888194444,-0.383333333,0,0,0,,0,318,318,115,1,
,,,,,,,,,,,,,,,,,,5eeb6916424ca42d92eac0f9,2020-11-27_11h31.19.750,lexical_decision_task_MP_exp2,2020.2.5,Win32,60,,m,1,0.614895,,,,,,,,0.614895,1,,,,,,11,WORD,"ID",33,cruise,CRUISE,m,,,,,,0.888194444,-0.383333333,0,0,0,,0,319,319,10,1,
,,,,,,,,,,,,,,,,,,5eeb6916424ca42d92eac0f9,2020-11-27_11h31.19.750,lexical_decision_task_MP_exp2,2020.2.5,Win32,60,,m,1,0.610565,,,,,,,,0.610565,1,,,,,,43,WORD,"ID",33,tongue,TONGUE,m,,,,,,0.888194444,-0.383333333,0,0,0,,0,320,320,42,1,
,,,,,,,,,,,,,,,,,,5eeb6916424ca42d92eac0f9,2020-11-27_11h31.19.750,lexical_decision_task_MP_exp2,2020.2.5,Win32,60,,m,1,0.544415,,,,,,,,0.544415,1,,,,,,119,WORD,"ID",16,spider,SPIDER,m,,,,,,0.888194444,-0.383333333,0,0,0,,0,321,321,118,1,
,,,,,,,,,,,,,,,,,,5eeb6916424ca42d92eac0f9,2020-11-27_11h31.19.750,lexical_decision_task_MP_exp2,2020.2.5,Win32,60,,z,1,0.61358,,,,,,,,0.61358,1,,,,,,390,NW,UN,33,theldy,HATRUS,z,,,,,,0.888194444,-0.383333333,0,0,0,,0,322,322,389,1,
,,,,,,,,,,,,,,,,,,5eeb6916424ca42d92eac0f9,2020-11-27_11h31.19.750,lexical_decision_task_MP_exp2,2020.2.5,Win32,60,,m,1,0.5673,,,,,,,,0.5673,1,,,,,,6,WORD,"ID",33,bundle,BUNDLE,m,,,,,,0.888194444,-0.383333333,0,0,0,,0,323,323,5,1,
,,,,,,,,,,,,,,,,,,5eeb6916424ca42d92eac0f9,2020-11-27_11h31.19.750,lexical_decision_task_MP_exp2,2020.2.5,Win32,60,,m,1,0.845165,,,,,,,,0.845165,1,,,,,,177,WORD,UN,33,inform,ADVENT,m,,,,,,0.888194444,-0.383333333,0,0,0,,0,324,324,176,1,
,,,,,,,,,,,,,,,,,,5eeb6916424ca42d92eac0f9,2020-11-27_11h31.19.750,lexical_decision_task_MP_exp2,2020.2.5,Win32,60,,m,1,0.59288,,,,,,,,0.59288,1,,,,,,138,WORD,UN,33,staple,MELODY,m,,,,,,0.888194444,-0.383333333,0,0,0,,0,325,325,137,1,
,,,,,,,,,,,,,,,,,,5eeb6916424ca42d92eac0f9,2020-11-27_11h31.19.750,lexical_decision_task_MP_exp2,2020.2.5,Win32,60,,z,1,0.608355,,,,,,,,0.608355,1,,,,,,290,NW,"ID",33,splino,SPLINO,z,,,,,,0.888194444,-0.383333333,0,0,0,,0,326,326,289,1,
,,,,,,,,,,,,,,,,,,5eeb6916424ca42d92eac0f9,2020-11-27_11h31.19.750,lexical_decision_task_MP_exp2,2020.2.5,Win32,60,,z,1,1.388165,,,,,,,,1.388165,1,,,,,,341,NW,"ID",16,myrtie,MYRTIE,z,,,,,,0.888194444,-0.383333333,0,0,0,,0,327,327,340,1,
,,,,,,,,,,,,,,,,,,5eeb6916424ca42d92eac0f9,2020-11-27_11h31.19.750,lexical_decision_task_MP_exp2,2020.2.5,Win32,60,,m,0,1.047225,,,,,,,,1.047225,0,,,,,,287,NW,"ID",33,nymbel,NYMBEL,z,,,,,,0.888194444,-0.383333333,0,0,0,,0,328,328,286,1,
,,,,,,,,,,,,,,,,,,5eeb6916424ca42d92eac0f9,2020-11-27_11h31.19.750,lexical_decision_task_MP_exp2,2020.2.5,Win32,60,,z,1,0.870095,,,,,,,,0.870095,1,,,,,,251,NW,"ID",33,lupict,LUPICT,z,,,,,,0.888194444,-0.383333333,0,0,0,,0,329,329,250,1,
,,,,,,,,,,,,,,,,,,5eeb6916424ca42d92eac0f9,2020-11-27_11h31.19.750,lexical_decision_task_MP_exp2,2020.2.5,Win32,60,,z,1,0.668145,,,,,,,,0.668145,1,,,,,,387,NW,UN,33,cragin,GRONCE,z,,,,,,0.888194444,-0.383333333,0,0,0,,0,330,330,386,1,
,,,,,,,,,,,,,,,,,,5eeb6916424ca42d92eac0f9,2020-11-27_11h31.19.750,lexical_decision_task_MP_exp2,2020.2.5,Win32,60,,m,0,1.13359,,,,,,,,1.13359,0,,,,,,358,NW,"ID",16,fleack,FLEACK,z,,,,,,0.888194444,-0.383333333,0,0,0,,0,331,331,357,1,
,,,,,,,,,,,,,,,,,,5eeb6916424ca42d92eac0f9,2020-11-27_11h31.19.750,lexical_decision_task_MP_exp2,2020.2.5,Win32,60,,m,1,0.967305,,,,,,,,0.967305,1,,,,,,206,WORD,UN,16,wreath,TAILOR,m,,,,,,0.888194444,-0.383333333,0,0,0,,0,332,332,205,1,
,,,,,,,,,,,,,,,,,,5eeb6916424ca42d92eac0f9,2020-11-27_11h31.19.750,lexical_decision_task_MP_exp2,2020.2.5,Win32,60,,m,1,0.477845,,,,,,,,0.477845,1,,,,,,46,WORD,"ID",33,single,SINGLE,m,,,,,,0.888194444,-0.383333333,0,0,0,,0,333,333,45,1,
,,,,,,,,,,,,,,,,,,5eeb6916424ca42d92eac0f9,2020-11-27_11h31.19.750,lexical_decision_task_MP_exp2,2020.2.5,Win32,60,,m,0,0.77673,,,,,,,,0.77673,0,,,,,,424,NW,UN,16,urivel,PRAILE,z,,,,,,0.888194444,-0.383333333,0,0,0,,0,334,334,423,1,
,,,,,,,,,,,,,,,,,,5eeb6916424ca42d92eac0f9,2020-11-27_11h31.19.750,lexical_decision_task_MP_exp2,2020.2.5,Win32,60,,m,1,0.530895,,,,,,,,0.530895,1,,,,,,157,WORD,UN,33,island,DRAGON,m,,,,,,0.888194444,-0.383333333,0,0,0,,0,335,335,156,1,
,,,,,,,,,,,,,,,,,,5eeb6916424ca42d92eac0f9,2020-11-27_11h31.19.750,lexical_decision_task_MP_exp2,2020.2.5,Win32,60,,z,1,0.712625,,,,,,,,0.712625,1,,,,,,241,NW,"ID",33,smenco,SMENCO,z,,,,,,0.888194444,-0.383333333,0,0,0,,0,336,336,240,1,
,,,,,,,,,,,,,,,,,,5eeb6916424ca42d92eac0f9,2020-11-27_11h31.19.750,lexical_decision_task_MP_exp2,2020.2.5,Win32,60,,m,1,0.75909,,,,,,,,0.75909,1,,,,,,47,WORD,"ID",33,income,INCOME,m,,,,,,0.888194444,-0.383333333,0,0,0,,0,337,337,46,1,
,,,,,,,,,,,,,,,,,,5eeb6916424ca42d92eac0f9,2020-11-27_11h31.19.750,lexical_decision_task_MP_exp2,2020.2.5,Win32,60,,z,1,0.658635,,,,,,,,0.658635,1,,,,,,389,NW,UN,33,hatrus,WITMER,z,,,,,,0.888194444,-0.383333333,0,0,0,,0,338,338,388,1,
,,,,,,,,,,,,,,,,,,5eeb6916424ca42d92eac0f9,2020-11-27_11h31.19.750,lexical_decision_task_MP_exp2,2020.2.5,Win32,60,,z,1,0.612285,,,,,,,,0.612285,1,,,,,,404,NW,UN,33,syntic,CLUIRM,z,,,,,,0.888194444,-0.383333333,0,0,0,,0,339,339,403,1,
,,,,,,,,,,,,,,,,,,5eeb6916424ca42d92eac0f9,2020-11-27_11h31.19.750,lexical_decision_task_MP_exp2,2020.2.5,Win32,60,,m,1,0.63523,,,,,,,,0.63523,1,,,,,,23,WORD,"ID",33,wealth,WEALTH,m,,,,,,0.888194444,-0.383333333,0,0,0,,0,340,340,22,1,
,,,,,,,,,,,,,,,,,,5eeb6916424ca42d92eac0f9,2020-11-27_11h31.19.750,lexical_decision_task_MP_exp2,2020.2.5,Win32,60,,m,1,0.489475,,,,,,,,0.489475,1,,,,,,80,WORD,"ID",16,family,FAMILY,m,,,,,,0.888194444,-0.383333333,0,0,0,,0,341,341,79,1,
,,,,,,,,,,,,,,,,,,5eeb6916424ca42d92eac0f9,2020-11-27_11h31.19.750,lexical_decision_task_MP_exp2,2020.2.5,Win32,60,,z,1,0.707555,,,,,,,,0.707555,1,,,,,,391,NW,UN,33,rouncy,THELDY,z,,,,,,0.888194444,-0.383333333,0,0,0,,0,342,342,390,1,
,,,,,,,,,,,,,,,,,,5eeb6916424ca42d92eac0f9,2020-11-27_11h31.19.750,lexical_decision_task_MP_exp2,2020.2.5,Win32,60,,m,1,0.51446,,,,,,,,0.51446,1,,,,,,76,WORD,"ID",16,exotic,EXOTIC,m,,,,,,0.888194444,-0.383333333,0,0,0,,0,343,343,75,1,
,,,,,,,,,,,,,,,,,,5eeb6916424ca42d92eac0f9,2020-11-27_11h31.19.750,lexical_decision_task_MP_exp2,2020.2.5,Win32,60,,z,1,0.60805,,,,,,,,0.60805,1,,,,,,307,NW,"ID",16,kirafe,KIRAFE,z,,,,,,0.888194444,-0.383333333,0,0,0,,0,344,344,306,1,
,,,,,,,,,,,,,,,,,,5eeb6916424ca42d92eac0f9,2020-11-27_11h31.19.750,lexical_decision_task_MP_exp2,2020.2.5,Win32,60,,m,1,0.57119,,,,,,,,0.57119,1,,,,,,173,WORD,UN,33,turkey,SHOWER,m,,,,,,0.888194444,-0.383333333,0,0,0,,0,345,345,172,1,
,,,,,,,,,,,,,,,,,,5eeb6916424ca42d92eac0f9,2020-11-27_11h31.19.750,lexical_decision_task_MP_exp2,2020.2.5,Win32,60,,z,1,0.899515,,,,,,,,0.899515,1,,,,,,392,NW,UN,33,ganous,ROUNCY,z,,,,,,0.888194444,-0.383333333,0,0,0,,0,346,346,391,1,
,,,,,,,,,,,,,,,,,,5eeb6916424ca42d92eac0f9,2020-11-27_11h31.19.750,lexical_decision_task_MP_exp2,2020.2.5,Win32,60,,z,0,0.62056,,,,,,,,0.62056,0,,,,,,16,WORD,"ID",33,faucet,FAUCET,m,,,,,,0.888194444,-0.383333333,0,0,0,,0,347,347,15,1,
,,,,,,,,,,,,,,,,,,5eeb6916424ca42d92eac0f9,2020-11-27_11h31.19.750,lexical_decision_task_MP_exp2,2020.2.5,Win32,60,,m,1,0.501875,,,,,,,,0.501875,1,,,,,,170,WORD,UN,33,depart,POUNCE,m,,,,,,0.888194444,-0.383333333,0,0,0,,0,348,348,169,1,
,,,,,,,,,,,,,,,,,,5eeb6916424ca42d92eac0f9,2020-11-27_11h31.19.750,lexical_decision_task_MP_exp2,2020.2.5,Win32,60,,m,1,0.657515,,,,,,,,0.657515,1,,,,,,151,WORD,UN,33,rocket,MYSTIC,m,,,,,,0.888194444,-0.383333333,0,0,0,,0,349,349,150,1,
,,,,,,,,,,,,,,,,,,5eeb6916424ca42d92eac0f9,2020-11-27_11h31.19.750,lexical_decision_task_MP_exp2,2020.2.5,Win32,60,,z,1,0.85945,,,,,,,,0.85945,1,,,,,,367,NW,UN,33,hornal,SLIQUE,z,,,,,,0.888194444,-0.383333333,0,0,0,,0,350,350,366,1,
,,,,,,,,,,,,,,,,,,5eeb6916424ca42d92eac0f9,2020-11-27_11h31.19.750,lexical_decision_task_MP_exp2,2020.2.5,Win32,60,,z,1,0.72952,,,,,,,,0.72952,1,,,,,,368,NW,UN,33,wronch,HORNAL,z,,,,,,0.888194444,-0.383333333,0,0,0,,0,351,351,367,1,
,,,,,,,,,,,,,,,,,,5eeb6916424ca42d92eac0f9,2020-11-27_11h31.19.750,lexical_decision_task_MP_exp2,2020.2.5,Win32,60,,z,1,0.69284,,,,,,,,0.69284,1,,,,,,396,NW,UN,33,camble,FLENGY,z,,,,,,0.888194444,-0.383333333,0,0,0,,0,352,352,395,1,
,,,,,,,,,,,,,,,,,,5eeb6916424ca42d92eac0f9,2020-11-27_11h31.19.750,lexical_decision_task_MP_exp2,2020.2.5,Win32,60,,z,1,0.722585,,,,,,,,0.722585,1,,,,,,318,NW,"ID",16,reagly,REAGLY,z,,,,,,0.888194444,-0.383333333,0,0,0,,0,353,353,317,1,
,,,,,,,,,,,,,,,,,,5eeb6916424ca42d92eac0f9,2020-11-27_11h31.19.750,lexical_decision_task_MP_exp2,2020.2.5,Win32,60,,z,1,0.51975,,,,,,,,0.51975,1,,,,,,242,NW,"ID",33,unwert,UNWERT,z,,,,,,0.888194444,-0.383333333,0,0,0,,0,354,354,241,1,
,,,,,,,,,,,,,,,,,,5eeb6916424ca42d92eac0f9,2020-11-27_11h31.19.750,lexical_decision_task_MP_exp2,2020.2.5,Win32,60,,m,0,0.71892,,,,,,,,0.71892,0,,,,,,418,NW,UN,33,slount,SUIDLE,z,,,,,,0.888194444,-0.383333333,0,0,0,,0,355,355,417,1,
,,,,,,,,,,,,,,,,,,5eeb6916424ca42d92eac0f9,2020-11-27_11h31.19.750,lexical_decision_task_MP_exp2,2020.2.5,Win32,60,,z,1,0.91445,,,,,,,,0.91445,1,,,,,,340,NW,"ID",16,fiatch,FIATCH,z,,,,,,0.888194444,-0.383333333,0,0,0,,0,356,356,339,1,
,,,,,,,,,,,,,,,,,,5eeb6916424ca42d92eac0f9,2020-11-27_11h31.19.750,lexical_decision_task_MP_exp2,2020.2.5,Win32,60,,m,1,0.5087,,,,,,,,0.5087,1,,,,,,25,WORD,"ID",33,domain,DOMAIN,m,,,,,,0.888194444,-0.383333333,0,0,0,,0,357,357,24,1,
,,,,,,,,,,,,,,,,,,5eeb6916424ca42d92eac0f9,2020-11-27_11h31.19.750,lexical_decision_task_MP_exp2,2020.2.5,Win32,60,,z,1,0.99979,,,,,,,,0.99979,1,,,,,,395,NW,UN,33,flengy,COLURY,z,,,,,,0.888194444,-0.383333333,0,0,0,,0,358,358,394,1,
,,,,,,,,,,,,,,,,,,5eeb6916424ca42d92eac0f9,2020-11-27_11h31.19.750,lexical_decision_task_MP_exp2,2020.2.5,Win32,60,,z,1,0.744615,,,,,,,,0.744615,1,,,,,,458,NW,UN,16,chaite,BARCET,z,,,,,,0.888194444,-0.383333333,0,0,0,,0,359,359,457,1,
,,,,,,,,,,,,,,,,,,5eeb6916424ca42d92eac0f9,2020-11-27_11h31.19.750,lexical_decision_task_MP_exp2,2020.2.5,Win32,60,,z,1,0.65022,,,,,,,,0.65022,1,,,,,,374,NW,UN,33,yorque,SLIANT,z,,,,,,0.888194444,-0.383333333,0,0,0,,0,360,360,373,1,
,,,,,,,,,,,,,,,,,,5eeb6916424ca42d92eac0f9,2020-11-27_11h31.19.750,lexical_decision_task_MP_exp2,2020.2.5,Win32,60,,z,1,0.876745,,,,,,,,0.876745,1,,,,,,313,NW,"ID",16,paurse,PAURSE,z,,,,,,0.888194444,-0.383333333,0,0,0,,0,361,361,312,1,
,,,,,,,,,,,,,,,,,,5eeb6916424ca42d92eac0f9,2020-11-27_11h31.19.750,lexical_decision_task_MP_exp2,2020.2.5,Win32,60,,m,1,1.170975,,,,,,,,1.170975,1,,,,,,22,WORD,"ID",33,jockey,JOCKEY,m,,,,,,0.018055556,-0.382638889,0,0,0,space,0,362,362,21,1,21.405685
,,,,,,,,,,,,,,,,,,5eeb6916424ca42d92eac0f9,2020-11-27_11h31.19.750,lexical_decision_task_MP_exp2,2020.2.5,Win32,60,,z,1,0.957435,,,,,,,,0.957435,1,,,,,,386,NW,UN,33,gronce,ANCUST,z,,,,,,0.018055556,-0.382638889,0,0,0,,0,363,363,385,1,
,,,,,,,,,,,,,,,,,,5eeb6916424ca42d92eac0f9,2020-11-27_11h31.19.750,lexical_decision_task_MP_exp2,2020.2.5,Win32,60,,z,1,0.66105,,,,,,,,0.66105,1,,,,,,309,NW,"ID",16,amiloy,AMILOY,z,,,,,,0.018055556,-0.382638889,0,0,0,,0,364,364,308,1,
,,,,,,,,,,,,,,,,,,5eeb6916424ca42d92eac0f9,2020-11-27_11h31.19.750,lexical_decision_task_MP_exp2,2020.2.5,Win32,60,,z,1,0.68286,,,,,,,,0.68286,1,,,,,,337,NW,"ID",16,rejols,REJOLS,z,,,,,,0.018055556,-0.382638889,0,0,0,,0,365,365,336,1,
,,,,,,,,,,,,,,,,,,5eeb6916424ca42d92eac0f9,2020-11-27_11h31.19.750,lexical_decision_task_MP_exp2,2020.2.5,Win32,60,,z,1,0.525685,,,,,,,,0.525685,1,,,,,,460,NW,UN,16,justre,MINGAR,z,,,,,,0.018055556,-0.382638889,0,0,0,,0,366,366,459,1,
,,,,,,,,,,,,,,,,,,5eeb6916424ca42d92eac0f9,2020-11-27_11h31.19.750,lexical_decision_task_MP_exp2,2020.2.5,Win32,60,,z,1,0.51426,,,,,,,,0.51426,1,,,,,,310,NW,"ID",16,daniet,DANIET,z,,,,,,0.018055556,-0.382638889,0,0,0,,0,367,367,309,1,
,,,,,,,,,,,,,,,,,,5eeb6916424ca42d92eac0f9,2020-11-27_11h31.19.750,lexical_decision_task_MP_exp2,2020.2.5,Win32,60,,m,1,0.64972,,,,,,,,0.64972,1,,,,,,182,WORD,UN,16,basket,WINTER,m,,,,,,0.018055556,-0.382638889,0,0,0,,0,368,368,181,1,
,,,,,,,,,,,,,,,,,,5eeb6916424ca42d92eac0f9,2020-11-27_11h31.19.750,lexical_decision_task_MP_exp2,2020.2.5,Win32,60,,z,1,0.611075,,,,,,,,0.611075,1,,,,,,442,NW,UN,16,dorsex,ABOUNE,z,,,,,,0.018055556,-0.382638889,0,0,0,,0,369,369,441,1,
,,,,,,,,,,,,,,,,,,5eeb6916424ca42d92eac0f9,2020-11-27_11h31.19.750,lexical_decision_task_MP_exp2,2020.2.5,Win32,60,,z,1,0.501685,,,,,,,,0.501685,1,,,,,,469,NW,UN,16,crudio,PADIFS,z,,,,,,0.018055556,-0.382638889,0,0,0,,0,370,370,468,1,
,,,,,,,,,,,,,,,,,,5eeb6916424ca42d92eac0f9,2020-11-27_11h31.19.750,lexical_decision_task_MP_exp2,2020.2.5,Win32,60,,m,1,0.622405,,,,,,,,0.622405,1,,,,,,53,WORD,"ID",33,police,POLICE,m,,,,,,0.018055556,-0.382638889,0,0,0,,0,371,371,52,1,
,,,,,,,,,,,,,,,,,,5eeb6916424ca42d92eac0f9,2020-11-27_11h31.19.750,lexical_decision_task_MP_exp2,2020.2.5,Win32,60,,z,1,0.576295,,,,,,,,0.576295,1,,,,,,289,NW,"ID",33,starby,STARBY,z,,,,,,0.018055556,-0.382638889,0,0,0,,0,372,372,288,1,
,,,,,,,,,,,,,,,,,,5eeb6916424ca42d92eac0f9,2020-11-27_11h31.19.750,lexical_decision_task_MP_exp2,2020.2.5,Win32,60,,z,1,0.90666,,,,,,,,0.90666,1,,,,,,441,NW,UN,16,aboune,RASTOE,z,,,,,,0.018055556,-0.382638889,0,0,0,,0,373,373,440,1,
,,,,,,,,,,,,,,,,,,5eeb6916424ca42d92eac0f9,2020-11-27_11h31.19.750,lexical_decision_task_MP_exp2,2020.2.5,Win32,60,,m,1,0.61382,,,,,,,,0.61382,1,,,,,,129,WORD,UN,33,stupid,MARVEL,m,,,,,,0.018055556,-0.382638889,0,0,0,,0,374,374,128,1,
,,,,,,,,,,,,,,,,,,5eeb6916424ca42d92eac0f9,2020-11-27_11h31.19.750,lexical_decision_task_MP_exp2,2020.2.5,Win32,60,,m,1,0.610405,,,,,,,,0.610405,1,,,,,,191,WORD,UN,16,absent,STABLE,m,,,,,,0.018055556,-0.382638889,0,0,0,,0,375,375,190,1,
,,,,,,,,,,,,,,,,,,5eeb6916424ca42d92eac0f9,2020-11-27_11h31.19.750,lexical_decision_task_MP_exp2,2020.2.5,Win32,60,,m,1,0.753915,,,,,,,,0.753915,1,,,,,,139,WORD,UN,33,prince,DEBRIS,m,,,,,,0.018055556,-0.382638889,0,0,0,,0,376,376,138,1,
,,,,,,,,,,,,,,,,,,5eeb6916424ca42d92eac0f9,2020-11-27_11h31.19.750,lexical_decision_task_MP_exp2,2020.2.5,Win32,60,,m,1,0.61534,,,,,,,,0.61534,1,,,,,,79,WORD,"ID",16,theory,THEORY,m,,,,,,0.018055556,-0.382638889,0,0,0,,0,377,377,78,1,
,,,,,,,,,,,,,,,,,,5eeb6916424ca42d92eac0f9,2020-11-27_11h31.19.750,lexical_decision_task_MP_exp2,2020.2.5,Win32,60,,m,1,0.62387,,,,,,,,0.62387,1,,,,,,202,WORD,UN,16,phrase,FACTOR,m,,,,,,0.018055556,-0.382638889,0,0,0,,0,378,378,201,1,
,,,,,,,,,,,,,,,,,,5eeb6916424ca42d92eac0f9,2020-11-27_11h31.19.750,lexical_decision_task_MP_exp2,2020.2.5,Win32,60,,m,1,0.587665,,,,,,,,0.587665,1,,,,,,201,WORD,UN,16,factor,ADMIRE,m,,,,,,0.018055556,-0.382638889,0,0,0,,0,379,379,200,1,
,,,,,,,,,,,,,,,,,,5eeb6916424ca42d92eac0f9,2020-11-27_11h31.19.750,lexical_decision_task_MP_exp2,2020.2.5,Win32,60,,m,1,0.45513,,,,,,,,0.45513,1,,,,,,78,WORD,"ID",16,column,COLUMN,m,,,,,,0.018055556,-0.382638889,0,0,0,,0,380,380,77,1,
,,,,,,,,,,,,,,,,,,5eeb6916424ca42d92eac0f9,2020-11-27_11h31.19.750,lexical_decision_task_MP_exp2,2020.2.5,Win32,60,,m,1,0.89797,,,,,,,,0.89797,1,,,,,,77,WORD,"ID",16,racket,RACKET,m,,,,,,0.018055556,-0.382638889,0,0,0,,0,381,381,76,1,
,,,,,,,,,,,,,,,,,,5eeb6916424ca42d92eac0f9,2020-11-27_11h31.19.750,lexical_decision_task_MP_exp2,2020.2.5,Win32,60,,z,1,0.77912,,,,,,,,0.77912,1,,,,,,295,NW,"ID",33,gleath,GLEATH,z,,,,,,0.018055556,-0.382638889,0,0,0,,0,382,382,294,1,
,,,,,,,,,,,,,,,,,,5eeb6916424ca42d92eac0f9,2020-11-27_11h31.19.750,lexical_decision_task_MP_exp2,2020.2.5,Win32,60,,m,1,0.61768,,,,,,,,0.61768,1,,,,,,58,WORD,"ID",33,foster,FOSTER,m,,,,,,0.018055556,-0.382638889,0,0,0,,0,383,383,57,1,
,,,,,,,,,,,,,,,,,,5eeb6916424ca42d92eac0f9,2020-11-27_11h31.19.750,lexical_decision_task_MP_exp2,2020.2.5,Win32,60,,z,1,0.84441,,,,,,,,0.84441,1,,,,,,427,NW,UN,16,tandly,SCHIND,z,,,,,,0.018055556,-0.382638889,0,0,0,,0,384,384,426,1,
,,,,,,,,,,,,,,,,,,5eeb6916424ca42d92eac0f9,2020-11-27_11h31.19.750,lexical_decision_task_MP_exp2,2020.2.5,Win32,60,,m,1,0.523165,,,,,,,,0.523165,1,,,,,,148,WORD,UN,33,invade,CUSTOM,m,,,,,,0.018055556,-0.382638889,0,0,0,,0,385,385,147,1,
,,,,,,,,,,,,,,,,,,5eeb6916424ca42d92eac0f9,2020-11-27_11h31.19.750,lexical_decision_task_MP_exp2,2020.2.5,Win32,60,,z,1,0.663825,,,,,,,,0.663825,1,,,,,,270,NW,"ID",33,wrimsy,WRIMSY,z,,,,,,0.018055556,-0.382638889,0,0,0,,0,386,386,269,1,
,,,,,,,,,,,,,,,,,,5eeb6916424ca42d92eac0f9,2020-11-27_11h31.19.750,lexical_decision_task_MP_exp2,2020.2.5,Win32,60,,z,1,0.66365,,,,,,,,0.66365,1,,,,,,324,NW,"ID",16,steikh,STEIKH,z,,,,,,0.018055556,-0.382638889,0,0,0,,0,387,387,323,1,
,,,,,,,,,,,,,,,,,,5eeb6916424ca42d92eac0f9,2020-11-27_11h31.19.750,lexical_decision_task_MP_exp2,2020.2.5,Win32,60,,m,1,0.77801,,,,,,,,0.77801,1,,,,,,10,WORD,"ID",33,ethnic,ETHNIC,m,,,,,,0.018055556,-0.382638889,0,0,0,,0,388,388,9,1,
,,,,,,,,,,,,,,,,,,5eeb6916424ca42d92eac0f9,2020-11-27_11h31.19.750,lexical_decision_task_MP_exp2,2020.2.5,Win32,60,,m,1,0.54303,,,,,,,,0.54303,1,,,,,,31,WORD,"ID",33,weapon,WEAPON,m,,,,,,0.018055556,-0.382638889,0,0,0,,0,389,389,30,1,
,,,,,,,,,,,,,,,,,,5eeb6916424ca42d92eac0f9,2020-11-27_11h31.19.750,lexical_decision_task_MP_exp2,2020.2.5,Win32,60,,m,1,0.517775,,,,,,,,0.517775,1,,,,,,96,WORD,"ID",16,ignore,IGNORE,m,,,,,,0.018055556,-0.382638889,0,0,0,,0,390,390,95,1,
,,,,,,,,,,,,,,,,,,5eeb6916424ca42d92eac0f9,2020-11-27_11h31.19.750,lexical_decision_task_MP_exp2,2020.2.5,Win32,60,,m,1,0.521135,,,,,,,,0.521135,1,,,,,,193,WORD,UN,16,plague,OBJECT,m,,,,,,0.018055556,-0.382638889,0,0,0,,0,391,391,192,1,
,,,,,,,,,,,,,,,,,,5eeb6916424ca42d92eac0f9,2020-11-27_11h31.19.750,lexical_decision_task_MP_exp2,2020.2.5,Win32,60,,m,1,0.549885,,,,,,,,0.549885,1,,,,,,178,WORD,UN,33,mildew,INFORM,m,,,,,,0.018055556,-0.382638889,0,0,0,,0,392,392,177,1,
