counterbalancing_condition,instr_done_keyboard.keys,instr_done_touch.x,instr_done_touch.y,instr_done_touch.leftButton,instr_done_touch.midButton,instr_done_touch.rightButton,instr_done_touch.clicked_name,instruction_pages.thisRepN,instruction_pages.thisTrialN,instruction_pages.thisN,instruction_pages.thisIndex,instruction_pages.ran,pageN,phase,instruct_text,has_image,instruct_image,participant,date,expName,psychopyVersion,OS,frameRate,response.keys,response.corr,touch_resp.x,touch_resp.y,touch_resp.leftButton,touch_resp.midButton,touch_resp.rightButton,touch_resp.time,touch_resp.clicked_name,rt,corr,practice_trials.thisRepN,practice_trials.thisTrialN,practice_trials.thisN,practice_trials.thisIndex,practice_trials.ran,TrialID,StimulusType,Condition,PrimeDuration,Prime,Target,corrAns,end_of_practice_trials_pages.thisRepN,end_of_practice_trials_pages.thisTrialN,end_of_practice_trials_pages.thisN,end_of_practice_trials_pages.thisIndex,end_of_practice_trials_pages.ran,break_done_touch.x,break_done_touch.y,break_done_touch.leftButton,break_done_touch.midButton,break_done_touch.rightButton,break_done_keyboard.keys,experiment_trials.thisRepN,experiment_trials.thisTrialN,experiment_trials.thisN,experiment_trials.thisIndex,experiment_trials.ran,break_done_touch.clicked_name
0,,-0.144250146,-0.39176561,1,0,0,instr_done_button,0,0,0,0,1,1,instructions,"INSTRUCTIONS
At the start of each trial, look at the hash marks (######) in the center of the screen. After a moment, a string of letters will appear. Your task is to indicate if the letter string forms a word or not (i.e., if it is a nonword). For example, AUTHOR is a word while AUTHON is a nonword.

Press the space bar or touch the button below to continue.",0,,5ef34cc943115906d6aa397f,2020-11-26_15h59.50.472,lexical_decision_task_MP_exp2,2020.2.5,Linux armv8l,60,,,,,,,,,,,,,,,,,,,,,,,,,,,,,,,,,,,,,,,,
,,-0.120976787,-0.368492158,1,0,0,instr_done_button,0,1,1,1,1,2,instructions,"If your device has a keyboard, press the 'Z' key for nonwords and the 'M' key for words.





Press the space bar or touch the button below to continue.",1,keyboard-example.gif,5ef34cc943115906d6aa397f,2020-11-26_15h59.50.472,lexical_decision_task_MP_exp2,2020.2.5,Linux armv8l,60,,,,,,,,,,,,,,,,,,,,,,,,,,,,,,,,,,,,,,,,
,,-0.126795181,-0.415870013,1,0,0,instr_done_button,0,2,2,2,1,3,instructions,"If you are using a touchscreen only device, use the buttons on the screen. Do not use the mouse.





Press the space bar or touch the button below to continue.",1,touchscreen-example.gif,5ef34cc943115906d6aa397f,2020-11-26_15h59.50.472,lexical_decision_task_MP_exp2,2020.2.5,Linux armv8l,60,,,,,,,,,,,,,,,,,,,,,,,,,,,,,,,,,,,,,,,,
,,-0.102690592,-0.376804025,1,0,0,instr_done_button,0,3,3,3,1,4,instructions,"It is very important that you respond as quickly and accurately as possible, as each letter string will only be on the screen for two seconds. If you do not respond within this time, the message 'Too slow!' will be displayed and the experiment will progress to the next letter string. The first 20 trials will be practice trials and you will receive feedback on your answers. 

Press the space bar or touch the button below to start the practice trials.",0,,5ef34cc943115906d6aa397f,2020-11-26_15h59.50.472,lexical_decision_task_MP_exp2,2020.2.5,Linux armv8l,60,,,,,,,,,,,,,,,,,,,,,,,,,,,,,,,,,,,,,,,,
,,,,,,,,,,,,,,,,,,5ef34cc943115906d6aa397f,2020-11-26_15h59.50.472,lexical_decision_task_MP_exp2,2020.2.5,Linux armv8l,60,,0,-0.311319593,-0.522262511,1,0,0,0.5707,button_right,0.5707,1,0,0,0,0,1,1001,WORD,"ID",33,utopia,UTOPIA,m,,,,,,,,,,,,,,,,,
,,,,,,,,,,,,,,,,,,5ef34cc943115906d6aa397f,2020-11-26_15h59.50.472,lexical_decision_task_MP_exp2,2020.2.5,Linux armv8l,60,,0,0.365270062,-0.3236079,1,0,0,0.7653,button_right,0.7653,1,0,1,1,3,1,1004,WORD,"ID",16,matrix,MATRIX,m,,,,,,,,,,,,,,,,,
,,,,,,,,,,,,,,,,,,5ef34cc943115906d6aa397f,2020-11-26_15h59.50.472,lexical_decision_task_MP_exp2,2020.2.5,Linux armv8l,60,,0,-0.343736049,-0.316127108,1,0,0,0.7326,button_left,0.7326,1,0,2,2,13,1,1014,NW,UN,33,winfer,ROUPET,z,,,,,,,,,,,,,,,,,
,,,,,,,,,,,,,,,,,,5ef34cc943115906d6aa397f,2020-11-26_15h59.50.472,lexical_decision_task_MP_exp2,2020.2.5,Linux armv8l,60,,0,-0.332930569,-0.295347377,1,0,0,1.2834,button_left,1.2834,1,0,3,3,8,1,1009,NW,"ID",33,aslert,ASLERT,z,,,,,,,,,,,,,,,,,
,,,,,,,,,,,,,,,,,,5ef34cc943115906d6aa397f,2020-11-26_15h59.50.472,lexical_decision_task_MP_exp2,2020.2.5,Linux armv8l,60,,0,-0.334592952,-0.27124285,1,0,0,1.0075,button_left,1.0075,1,0,4,4,12,1,1013,NW,UN,33,adveil,SPRINY,z,,,,,,,,,,,,,,,,,
,,,,,,,,,,,,,,,,,,5ef34cc943115906d6aa397f,2020-11-26_15h59.50.472,lexical_decision_task_MP_exp2,2020.2.5,Linux armv8l,60,,0,0.345321468,-0.326101498,1,0,0,0.9749,button_right,0.9749,1,0,5,5,7,1,1008,WORD,UN,16,hurdle,VOLUME,m,,,,,,,,,,,,,,,,,
,,,,,,,,,,,,,,,,,,5ef34cc943115906d6aa397f,2020-11-26_15h59.50.472,lexical_decision_task_MP_exp2,2020.2.5,Linux armv8l,60,,0,-0.341242483,-0.321945377,1,0,0,0.8853,button_left,0.8853,1,0,6,6,11,1,1012,NW,"ID",16,rashet,RASHET,z,,,,,,,,,,,,,,,,,
,,,,,,,,,,,,,,,,,,5ef34cc943115906d6aa397f,2020-11-26_15h59.50.472,lexical_decision_task_MP_exp2,2020.2.5,Linux armv8l,60,,0,0.34365907,-0.280385917,1,0,0,0.9947,button_right,0.9947,1,0,7,7,1,1,1002,WORD,"ID",33,adjust,ADJUST,m,,,,,,,,,,,,,,,,,
,,,,,,,,,,,,,,,,,,5ef34cc943115906d6aa397f,2020-11-26_15h59.50.472,lexical_decision_task_MP_exp2,2020.2.5,Linux armv8l,60,,0,-0.327112237,-0.326101498,1,0,0,0.7685,button_left,0.7685,1,0,8,8,14,1,1015,NW,UN,16,miaber,THRALE,z,,,,,,,,,,,,,,,,,
,,,,,,,,,,,,,,,,,,5ef34cc943115906d6aa397f,2020-11-26_15h59.50.472,lexical_decision_task_MP_exp2,2020.2.5,Linux armv8l,60,,0,0.341165473,-0.306984041,1,0,0,0.7089,button_right,0.7089,1,0,9,9,4,1,1005,WORD,UN,33,abound,SQUEAK,m,,,,,,,,,,,,,,,,,
,,,,,,,,,,,,,,,,,,5ef34cc943115906d6aa397f,2020-11-26_15h59.50.472,lexical_decision_task_MP_exp2,2020.2.5,Linux armv8l,60,,0,0.337009539,-0.272074049,1,0,0,0.7686,button_right,0.7686,1,0,10,10,2,1,1003,WORD,"ID",16,almond,ALMOND,m,,,,,,,,,,,,,,,,,
,,,,,,,,,,,,,,,,,,5ef34cc943115906d6aa397f,2020-11-26_15h59.50.472,lexical_decision_task_MP_exp2,2020.2.5,Linux armv8l,60,,0,-0.340411299,-0.335244564,1,0,0,0.787,button_left,0.787,1,0,11,11,15,1,1016,NW,UN,16,mushed,WHAISE,z,,,,,,,,,,,,,,,,,
,,,,,,,,,,,,,,,,,,5ef34cc943115906d6aa397f,2020-11-26_15h59.50.472,lexical_decision_task_MP_exp2,2020.2.5,Linux armv8l,60,,0,0.353633336,-0.266255655,1,0,0,0.7079,button_right,0.7079,1,0,12,12,6,1,1007,WORD,UN,16,tropic,ZOMBIE,m,,,,,,,,,,,,,,,,,
,,,,,,,,,,,,,,,,,,5ef34cc943115906d6aa397f,2020-11-26_15h59.50.472,lexical_decision_task_MP_exp2,2020.2.5,Linux armv8l,60,,0,-0.334592952,-0.297840975,1,0,0,0.8726,button_left,0.8726,1,0,13,13,10,1,1011,NW,"ID",16,inlade,INLADE,z,,,,,,,,,,,,,,,,,
,,,,,,,,,,,,,,,,,,5ef34cc943115906d6aa397f,2020-11-26_15h59.50.472,lexical_decision_task_MP_exp2,2020.2.5,Linux armv8l,60,,0,-0.327112237,-0.332750967,1,0,0,1.0509,button_left,1.0509,1,0,14,14,9,1,1010,NW,"ID",33,fariny,FARINY,z,,,,,,,,,,,,,,,,,
,,,,,,,,,,,,,,,,,,5ef34cc943115906d6aa397f,2020-11-26_15h59.50.472,lexical_decision_task_MP_exp2,2020.2.5,Linux armv8l,60,,0,0.333684742,-0.390103212,1,0,0,0.6647,button_right,0.6647,1,0,15,15,5,1,1006,WORD,UN,33,frenzy,OBTAIN,m,,,,,,,,,,,,,,,,,
,,-0.123470384,-0.432493996,1,0,0,instr_done_button,,,,,,1,end_of_practice,"You have completed the practice trials. During the experimental trials, you will not receive feedback, but it is very important that you respond as quickly and accurately as possible. 
Before you begin, please ensure that you are in a comfortable and quiet location and will not be disturbed for about 15 minutes, as we cannot use your data if you do not complete all the trials. 
There will be opportunities to take breaks at regular intervals during the experiment. When you are ready to start the experimental trials, please press space or touch the button below.",,,5ef34cc943115906d6aa397f,2020-11-26_15h59.50.472,lexical_decision_task_MP_exp2,2020.2.5,Linux armv8l,60,,,,,,,,,,,,,,,,,,,,,,,,0,0,0,0,1,,,,,,,,,,,,
,,,,,,,,,,,,,,,,,,5ef34cc943115906d6aa397f,2020-11-26_15h59.50.472,lexical_decision_task_MP_exp2,2020.2.5,Linux armv8l,60,,0,0.3511398,-0.326101498,1,0,0,0.7844,button_right,0.7844,1,,,,,,82,WORD,UN,33,result,STIGMA,m,,,,,,0.3511398,-0.326101498,1,0,0,,0,0,0,141,1,
,,,,,,,,,,,,,,,,,,5ef34cc943115906d6aa397f,2020-11-26_15h59.50.472,lexical_decision_task_MP_exp2,2020.2.5,Linux armv8l,60,,0,-0.322956288,-0.325270299,1,0,0,0.6852,button_left,0.6852,1,,,,,,383,NW,UN,16,guesco,AUNGRE,z,,,,,,-0.322956288,-0.325270299,1,0,0,,0,1,1,442,1,
,,,,,,,,,,,,,,,,,,5ef34cc943115906d6aa397f,2020-11-26_15h59.50.472,lexical_decision_task_MP_exp2,2020.2.5,Linux armv8l,60,,0,0.328697609,-0.341894033,1,0,0,0.7094,button_right,0.7094,1,,,,,,99,WORD,UN,33,carbon,FLUENT,m,,,,,,0.328697609,-0.341894033,1,0,0,,0,2,2,158,1,
,,,,,,,,,,,,,,,,,,5ef34cc943115906d6aa397f,2020-11-26_15h59.50.472,lexical_decision_task_MP_exp2,2020.2.5,Linux armv8l,60,,0,0.329528809,-0.270411651,1,0,0,0.6612,button_right,0.6612,1,,,,,,208,WORD,"ID",33,hockey,HOCKEY,m,,,,,,0.329528809,-0.270411651,1,0,0,,0,3,3,27,1,
,,,,,,,,,,,,,,,,,,5ef34cc943115906d6aa397f,2020-11-26_15h59.50.472,lexical_decision_task_MP_exp2,2020.2.5,Linux armv8l,60,,0,-0.325449823,-0.3236079,1,0,0,0.7514,button_left,0.7514,1,,,,,,344,NW,UN,33,absend,SCRILY,z,,,,,,-0.325449823,-0.3236079,1,0,0,,0,4,4,403,1,
,,,,,,,,,,,,,,,,,,5ef34cc943115906d6aa397f,2020-11-26_15h59.50.472,lexical_decision_task_MP_exp2,2020.2.5,Linux armv8l,60,,0,0.324541676,-0.36018029,1,0,0,1.1641,button_right,1.1641,1,,,,,,224,WORD,"ID",33,period,PERIOD,m,,,,,,0.324541676,-0.36018029,1,0,0,,0,5,5,43,1,
,,,,,,,,,,,,,,,,,,5ef34cc943115906d6aa397f,2020-11-26_15h59.50.472,lexical_decision_task_MP_exp2,2020.2.5,Linux armv8l,60,,0,-0.334592952,-0.324439099,1,0,0,0.7326,button_left,0.7326,1,,,,,,302,NW,UN,33,fiream,MILUER,z,,,,,,-0.334592952,-0.324439099,1,0,0,,0,6,6,361,1,
,,,,,,,,,,,,,,,,,,5ef34cc943115906d6aa397f,2020-11-26_15h59.50.472,lexical_decision_task_MP_exp2,2020.2.5,Linux armv8l,60,,0,0.297112352,-0.348543502,1,0,0,0.5878,button_right,0.5878,1,,,,,,22,WORD,"ID",16,jockey,JOCKEY,m,,,,,,0.297112352,-0.348543502,1,0,0,,0,7,7,81,1,
,,,,,,,,,,,,,,,,,,5ef34cc943115906d6aa397f,2020-11-26_15h59.50.472,lexical_decision_task_MP_exp2,2020.2.5,Linux armv8l,60,,0,0.297943551,-0.327763896,1,0,0,0.676,button_right,0.676,1,,,,,,7,WORD,"ID",16,anchor,ANCHOR,m,,,,,,0.297943551,-0.327763896,1,0,0,,0,8,8,66,1,
,,,,,,,,,,,,,,,,,,5ef34cc943115906d6aa397f,2020-11-26_15h59.50.472,lexical_decision_task_MP_exp2,2020.2.5,Linux armv8l,60,,0,0.325372813,-0.246306999,1,0,0,0.5292,button_right,0.5292,1,,,,,,51,WORD,"ID",16,hungry,HUNGRY,m,,,,,,0.325372813,-0.246306999,1,0,0,,0,9,9,110,1,
,,,,,,,,,,,,,,,,,,5ef34cc943115906d6aa397f,2020-11-26_15h59.50.472,lexical_decision_task_MP_exp2,2020.2.5,Linux armv8l,60,,0,-0.337917717,-0.290360182,1,0,0,0.6176,button_left,0.6176,1,,,,,,263,NW,"ID",16,dolica,DOLICA,z,,,,,,-0.337917717,-0.290360182,1,0,0,,0,10,10,322,1,
,,,,,,,,,,,,,,,,,,5ef34cc943115906d6aa397f,2020-11-26_15h59.50.472,lexical_decision_task_MP_exp2,2020.2.5,Linux armv8l,60,,0,0.305424344,-0.353530697,1,0,0,0.6397,button_right,0.6397,1,,,,,,58,WORD,"ID",16,foster,FOSTER,m,,,,,,0.305424344,-0.353530697,1,0,0,,0,11,11,117,1,
,,,,,,,,,,,,,,,,,,5ef34cc943115906d6aa397f,2020-11-26_15h59.50.472,lexical_decision_task_MP_exp2,2020.2.5,Linux armv8l,60,,0,0.297943551,-0.34521883,1,0,0,0.6222,button_right,0.6222,1,,,,,,204,WORD,"ID",33,burden,BURDEN,m,,,,,,0.297943551,-0.34521883,1,0,0,,0,12,12,23,1,
,,,,,,,,,,,,,,,,,,5ef34cc943115906d6aa397f,2020-11-26_15h59.50.472,lexical_decision_task_MP_exp2,2020.2.5,Linux armv8l,60,,0,-0.34290485,-0.326932697,1,0,0,0.7808,button_left,0.7808,1,,,,,,242,NW,"ID",16,unwert,UNWERT,z,,,,,,-0.34290485,-0.326932697,1,0,0,,0,13,13,301,1,
,,,,,,,,,,,,,,,,,,5ef34cc943115906d6aa397f,2020-11-26_15h59.50.472,lexical_decision_task_MP_exp2,2020.2.5,Linux armv8l,60,,0,0.313736211,-0.342725232,1,0,0,0.6515,button_right,0.6515,1,,,,,,168,WORD,UN,16,genius,ANSWER,m,,,,,,0.313736211,-0.342725232,1,0,0,,0,14,14,227,1,
,,,,,,,,,,,,,,,,,,5ef34cc943115906d6aa397f,2020-11-26_15h59.50.472,lexical_decision_task_MP_exp2,2020.2.5,Linux armv8l,60,,0,0.303761883,-0.336906962,1,0,0,0.6864,button_right,0.6864,1,,,,,,216,WORD,"ID",33,behalf,BEHALF,m,,,,,,0.303761883,-0.336906962,1,0,0,,0,15,15,35,1,
,,,,,,,,,,,,,,,,,,5ef34cc943115906d6aa397f,2020-11-26_15h59.50.472,lexical_decision_task_MP_exp2,2020.2.5,Linux armv8l,60,,0,-0.337086534,-0.318620705,1,0,0,0.7736,button_left,0.7736,1,,,,,,277,NW,"ID",16,petain,PETAIN,z,,,,,,-0.337086534,-0.318620705,1,0,0,,0,16,16,336,1,
,,,,,,,,,,,,,,,,,,5ef34cc943115906d6aa397f,2020-11-26_15h59.50.472,lexical_decision_task_MP_exp2,2020.2.5,Linux armv8l,60,,0,-0.32877462,-0.328595095,1,0,0,0.9165,button_left,0.9165,1,,,,,,390,NW,UN,16,theldy,HATRUS,z,,,,,,-0.32877462,-0.328595095,1,0,0,,0,17,17,449,1,
,,,,,,,,,,,,,,,,,,5ef34cc943115906d6aa397f,2020-11-26_15h59.50.472,lexical_decision_task_MP_exp2,2020.2.5,Linux armv8l,60,,0,0.320385742,-0.361842689,1,0,0,0.563,button_right,0.563,1,,,,,,169,WORD,UN,16,pounce,GENIUS,m,,,,,,0.320385742,-0.361842689,1,0,0,,0,18,18,228,1,
,,,,,,,,,,,,,,,,,,5ef34cc943115906d6aa397f,2020-11-26_15h59.50.472,lexical_decision_task_MP_exp2,2020.2.5,Linux armv8l,60,,0,0.295450016,-0.343556431,1,0,0,0.5732,button_right,0.5732,1,,,,,,167,WORD,UN,16,answer,DESIGN,m,,,,,,0.295450016,-0.343556431,1,0,0,,0,19,19,226,1,
,,,,,,,,,,,,,,,,,,5ef34cc943115906d6aa397f,2020-11-26_15h59.50.472,lexical_decision_task_MP_exp2,2020.2.5,Linux armv8l,60,,0,-0.326281038,-0.3236079,1,0,0,0.6182,button_left,0.6182,1,,,,,,249,NW,"ID",16,batrol,BATROL,z,,,,,,-0.326281038,-0.3236079,1,0,0,,0,20,20,308,1,
,,,,,,,,,,,,,,,,,,5ef34cc943115906d6aa397f,2020-11-26_15h59.50.472,lexical_decision_task_MP_exp2,2020.2.5,Linux armv8l,60,,0,0.297112352,-0.321945377,1,0,0,0.6905,button_right,0.6905,1,,,,,,161,WORD,UN,16,candle,PASTOR,m,,,,,,0.297112352,-0.321945377,1,0,0,,0,21,21,220,1,
,,,,,,,,,,,,,,,,,,5ef34cc943115906d6aa397f,2020-11-26_15h59.50.472,lexical_decision_task_MP_exp2,2020.2.5,Linux armv8l,60,,0,0.277994958,-0.326932697,1,0,0,0.7088,button_right,0.7088,1,,,,,,182,WORD,"ID",33,winter,WINTER,m,,,,,,0.277994958,-0.326932697,1,0,0,,0,22,22,1,1,
,,,,,,,,,,,,,,,,,,5ef34cc943115906d6aa397f,2020-11-26_15h59.50.472,lexical_decision_task_MP_exp2,2020.2.5,Linux armv8l,60,,0,0.304593082,-0.333582166,1,0,0,0.7596,button_right,0.7596,1,,,,,,171,WORD,UN,16,patrol,DEPART,m,,,,,,0.304593082,-0.333582166,1,0,0,,0,23,23,230,1,
,,,,,,,,,,,,,,,,,,5ef34cc943115906d6aa397f,2020-11-26_15h59.50.472,lexical_decision_task_MP_exp2,2020.2.5,Linux armv8l,60,,0,0.307917817,-0.326101498,1,0,0,0.6519,button_right,0.6519,1,,,,,,122,WORD,UN,16,strike,LINGER,m,,,,,,0.307917817,-0.326101498,1,0,0,,0,24,24,181,1,
,,,,,,,,,,,,,,,,,,5ef34cc943115906d6aa397f,2020-11-26_15h59.50.472,lexical_decision_task_MP_exp2,2020.2.5,Linux armv8l,60,,0,0.312905012,-0.31280256,1,0,0,1.0416,button_right,1.0416,0,,,,,,303,NW,UN,33,cludie,FIREAM,z,,,,,,0.312905012,-0.31280256,1,0,0,,0,25,25,362,1,
,,,,,,,,,,,,,,,,,,5ef34cc943115906d6aa397f,2020-11-26_15h59.50.472,lexical_decision_task_MP_exp2,2020.2.5,Linux armv8l,60,,0,0.325372813,-0.38179122,1,0,0,1.2844,button_right,1.2844,1,,,,,,139,WORD,UN,16,prince,DEBRIS,m,,,,,,0.325372813,-0.38179122,1,0,0,,0,26,26,198,1,
,,,,,,,,,,,,,,,,,,5ef34cc943115906d6aa397f,2020-11-26_15h59.50.472,lexical_decision_task_MP_exp2,2020.2.5,Linux armv8l,60,,0,-0.337917717,-0.335244564,1,0,0,0.7622,button_left,0.7622,1,,,,,,345,NW,UN,33,saudic,ABSEND,z,,,,,,-0.337917717,-0.335244564,1,0,0,,0,27,27,404,1,
,,,,,,,,,,,,,,,,,,5ef34cc943115906d6aa397f,2020-11-26_15h59.50.472,lexical_decision_task_MP_exp2,2020.2.5,Linux armv8l,60,,0,-0.318800307,-0.321114178,1,0,0,0.6759,button_left,0.6759,1,,,,,,474,NW,"ID",33,hablin,HABLIN,z,,,,,,-0.318800307,-0.321114178,1,0,0,,0,28,28,293,1,
,,,,,,,,,,,,,,,,,,5ef34cc943115906d6aa397f,2020-11-26_15h59.50.472,lexical_decision_task_MP_exp2,2020.2.5,Linux armv8l,60,,0,0.308749016,-0.34937495,1,0,0,0.7407,button_right,0.7407,1,,,,,,11,WORD,"ID",16,cruise,CRUISE,m,,,,,,0.308749016,-0.34937495,1,0,0,,0,29,29,70,1,
,,,,,,,,,,,,,,,,,,5ef34cc943115906d6aa397f,2020-11-26_15h59.50.472,lexical_decision_task_MP_exp2,2020.2.5,Linux armv8l,60,,0,-0.330436987,-0.324439099,1,0,0,0.7224,button_left,0.7224,1,,,,,,364,NW,UN,16,guairt,IMPOTE,z,,,,,,-0.330436987,-0.324439099,1,0,0,,0,30,30,423,1,
,,,,,,,,,,,,,,,,,,5ef34cc943115906d6aa397f,2020-11-26_15h59.50.472,lexical_decision_task_MP_exp2,2020.2.5,Linux armv8l,60,,0,0.298774813,-0.348543502,1,0,0,0.5546,button_right,0.5546,1,,,,,,14,WORD,"ID",16,almost,ALMOST,m,,,,,,0.298774813,-0.348543502,1,0,0,,0,31,31,73,1,
,,,,,,,,,,,,,,,,,,5ef34cc943115906d6aa397f,2020-11-26_15h59.50.472,lexical_decision_task_MP_exp2,2020.2.5,Linux armv8l,60,,0,0.293787618,-0.346881228,1,0,0,0.5964,button_right,0.5964,1,,,,,,15,WORD,"ID",16,amount,AMOUNT,m,,,,,,0.293787618,-0.346881228,1,0,0,,0,32,32,74,1,
,,,,,,,,,,,,,,,,,,5ef34cc943115906d6aa397f,2020-11-26_15h59.50.472,lexical_decision_task_MP_exp2,2020.2.5,Linux armv8l,60,,0,-0.342073666,-0.328595095,1,0,0,0.6173,button_left,0.6173,1,,,,,,329,NW,UN,33,kensom,YARIKE,z,,,,,,-0.342073666,-0.328595095,1,0,0,,0,33,33,388,1,
,,,,,,,,,,,,,,,,,,5ef34cc943115906d6aa397f,2020-11-26_15h59.50.472,lexical_decision_task_MP_exp2,2020.2.5,Linux armv8l,60,,0,-0.323787471,-0.305321767,1,0,0,0.7416,button_left,0.7416,1,,,,,,403,NW,UN,16,cluirm,BRUATS,z,,,,,,-0.323787471,-0.305321767,1,0,0,,0,34,34,462,1,
,,,,,,,,,,,,,,,,,,5ef34cc943115906d6aa397f,2020-11-26_15h59.50.472,lexical_decision_task_MP_exp2,2020.2.5,Linux armv8l,60,,0,-0.340411299,-0.282879514,1,0,0,0.7848,button_left,0.7848,1,,,,,,471,NW,"ID",33,nobest,NOBEST,z,,,,,,-0.340411299,-0.282879514,1,0,0,,0,35,35,290,1,
,,,,,,,,,,,,,,,,,,5ef34cc943115906d6aa397f,2020-11-26_15h59.50.472,lexical_decision_task_MP_exp2,2020.2.5,Linux armv8l,60,,0,0.292956418,-0.414207614,1,0,0,0.6639,button_right,0.6639,1,,,,,,143,WORD,UN,16,sponge,REASON,m,,,,,,0.297943551,-0.326932697,1,0,0,,0,36,36,202,1,
,,,,,,,,,,,,,,,,,,5ef34cc943115906d6aa397f,2020-11-26_15h59.50.472,lexical_decision_task_MP_exp2,2020.2.5,Linux armv8l,60,,0,0.292125157,-0.31280256,1,0,0,0.8094,button_right,0.8094,1,,,,,,155,WORD,UN,16,cradle,LIZARD,m,,,,,,0.292125157,-0.31280256,1,0,0,,0,37,37,214,1,
,,,,,,,,,,,,,,,,,,5ef34cc943115906d6aa397f,2020-11-26_15h59.50.472,lexical_decision_task_MP_exp2,2020.2.5,Linux armv8l,60,,0,-0.323787471,-0.318620705,1,0,0,0.8641,button_left,0.8641,1,,,,,,460,NW,"ID",33,mingar,MINGAR,z,,,,,,-0.323787471,-0.318620705,1,0,0,,0,38,38,279,1,
,,,,,,,,,,,,,,,,,,5ef34cc943115906d6aa397f,2020-11-26_15h59.50.472,lexical_decision_task_MP_exp2,2020.2.5,Linux armv8l,60,,0,-0.325449823,-0.322776576,1,0,0,0.7502,button_left,0.7502,1,,,,,,438,NW,"ID",33,baitch,BAITCH,z,,,,,,-0.325449823,-0.322776576,1,0,0,,0,39,39,257,1,
,,,,,,,,,,,,,,,,,,5ef34cc943115906d6aa397f,2020-11-26_15h59.50.472,lexical_decision_task_MP_exp2,2020.2.5,Linux armv8l,60,,0,0.296281153,-0.354361896,1,0,0,0.6459,button_right,0.6459,1,,,,,,76,WORD,UN,33,racket,EXOTIC,m,,,,,,0.296281153,-0.354361896,1,0,0,,0,40,40,135,1,
,,,,,,,,,,,,,,,,,,5ef34cc943115906d6aa397f,2020-11-26_15h59.50.472,lexical_decision_task_MP_exp2,2020.2.5,Linux armv8l,60,,0,-0.329605788,-0.328595095,1,0,0,0.6078,button_left,0.6078,1,,,,,,300,NW,"ID",16,yarion,YARION,z,,,,,,-0.329605788,-0.328595095,1,0,0,,0,41,41,359,1,
,,,,,,,,,,,,,,,,,,5ef34cc943115906d6aa397f,2020-11-26_15h59.50.472,lexical_decision_task_MP_exp2,2020.2.5,Linux armv8l,60,,0,-0.330436987,-0.331088568,1,0,0,1.0748,button_left,1.0748,1,,,,,,289,NW,"ID",16,starby,STARBY,z,,,,,,-0.330436987,-0.331088568,1,0,0,,0,42,42,348,1,
,,,,,,,,,,,,,,,,,,5ef34cc943115906d6aa397f,2020-11-26_15h59.50.472,lexical_decision_task_MP_exp2,2020.2.5,Linux armv8l,60,,0,-0.334592952,-0.326932697,1,0,0,0.6066,button_left,0.6066,1,,,,,,428,NW,"ID",33,tandly,TANDLY,z,,,,,,-0.334592952,-0.326932697,1,0,0,,0,43,43,247,1,
,,,,,,,,,,,,,,,,,,5ef34cc943115906d6aa397f,2020-11-26_15h59.50.472,lexical_decision_task_MP_exp2,2020.2.5,Linux armv8l,60,,0,-0.337917717,-0.321114178,1,0,0,0.5877,button_left,0.5877,1,,,,,,479,NW,"ID",33,lobush,LOBUSH,z,,,,,,-0.337917717,-0.321114178,1,0,0,,0,44,44,298,1,
,,,,,,,,,,,,,,,,,,5ef34cc943115906d6aa397f,2020-11-26_15h59.50.472,lexical_decision_task_MP_exp2,2020.2.5,Linux armv8l,60,,0,-0.337917717,-0.3236079,1,0,0,0.6433,button_left,0.6433,1,,,,,,449,NW,"ID",33,brunge,BRUNGE,z,,,,,,-0.337917717,-0.3236079,1,0,0,,0,45,45,268,1,
,,,,,,,,,,,,,,,,,,5ef34cc943115906d6aa397f,2020-11-26_15h59.50.472,lexical_decision_task_MP_exp2,2020.2.5,Linux armv8l,60,,0,0.326204074,-0.280385917,1,0,0,0.5347,button_right,0.5347,1,,,,,,196,WORD,"ID",33,credit,CREDIT,m,,,,,,0.326204074,-0.280385917,1,0,0,,0,46,46,15,1,
,,,,,,,,,,,,,,,,,,5ef34cc943115906d6aa397f,2020-11-26_15h59.50.472,lexical_decision_task_MP_exp2,2020.2.5,Linux armv8l,60,,0,0.310411414,-0.252956593,1,0,0,0.5185,button_right,0.5185,1,,,,,,12,WORD,"ID",16,orange,ORANGE,m,,,,,,0.310411414,-0.252956593,1,0,0,,0,47,47,71,1,
,,,,,,,,,,,,,,,,,,5ef34cc943115906d6aa397f,2020-11-26_15h59.50.472,lexical_decision_task_MP_exp2,2020.2.5,Linux armv8l,60,,0,-0.340411299,-0.311140037,1,0,0,0.6534,button_left,0.6534,1,,,,,,457,NW,"ID",33,wanigh,WANIGH,z,,,,,,-0.340411299,-0.311140037,1,0,0,,0,48,48,276,1,
,,,,,,,,,,,,,,,,,,5ef34cc943115906d6aa397f,2020-11-26_15h59.50.472,lexical_decision_task_MP_exp2,2020.2.5,Linux armv8l,60,,0,-0.337086534,-0.30864644,1,0,0,0.774,button_left,0.774,1,,,,,,409,NW,UN,16,tunory,ELOPIA,z,,,,,,-0.337086534,-0.30864644,1,0,0,,0,49,49,468,1,
,,,,,,,,,,,,,,,,,,5ef34cc943115906d6aa397f,2020-11-26_15h59.50.472,lexical_decision_task_MP_exp2,2020.2.5,Linux armv8l,60,,0,0.297112352,-0.353530697,1,0,0,0.4983,button_right,0.4983,1,,,,,,44,WORD,"ID",16,danger,DANGER,m,,,,,,0.297112352,-0.353530697,1,0,0,,0,50,50,103,1,
,,,,,,,,,,,,,,,,,,5ef34cc943115906d6aa397f,2020-11-26_15h59.50.472,lexical_decision_task_MP_exp2,2020.2.5,Linux armv8l,60,,0,-0.345398447,-0.3236079,1,0,0,0.907,button_left,0.907,1,,,,,,320,NW,UN,33,miator,JOCKAL,z,,,,,,-0.345398447,-0.3236079,1,0,0,,0,51,51,379,1,
,,,,,,,,,,,,,,,,,,5ef34cc943115906d6aa397f,2020-11-26_15h59.50.472,lexical_decision_task_MP_exp2,2020.2.5,Linux armv8l,60,,0,-0.345398447,-0.324439099,1,0,0,0.585,button_left,0.585,1,,,,,,454,NW,"ID",33,scouge,SCOUGE,z,,,,,,-0.345398447,-0.324439099,1,0,0,,0,52,52,273,1,
,,,,,,,,,,,,,,,,,,5ef34cc943115906d6aa397f,2020-11-26_15h59.50.472,lexical_decision_task_MP_exp2,2020.2.5,Linux armv8l,60,,0,-0.357035111,-0.324439099,1,0,0,0.6623,button_left,0.6623,1,,,,,,419,NW,UN,16,gushop,SLOUNT,z,,,,,,-0.357035111,-0.324439099,1,0,0,,0,53,53,478,1,
,,,,,,,,,,,,,,,,,,5ef34cc943115906d6aa397f,2020-11-26_15h59.50.472,lexical_decision_task_MP_exp2,2020.2.5,Linux armv8l,60,,0,-0.343736049,-0.321114178,1,0,0,0.6387,button_left,0.6387,1,,,,,,420,NW,UN,16,pauche,GUSHOP,z,,,,,,-0.343736049,-0.321114178,1,0,0,,0,54,54,479,1,
,,,,,,,,,,,,,,,,,,5ef34cc943115906d6aa397f,2020-11-26_15h59.50.472,lexical_decision_task_MP_exp2,2020.2.5,Linux armv8l,60,,0,0.317892145,-0.328595095,1,0,0,0.5769,button_right,0.5769,1,,,,,,38,WORD,"ID",16,powder,POWDER,m,,,,,,0.317892145,-0.328595095,1,0,0,,0,55,55,97,1,
,,,,,,,,,,,,,,,,,,5ef34cc943115906d6aa397f,2020-11-26_15h59.50.472,lexical_decision_task_MP_exp2,2020.2.5,Linux armv8l,60,,0,0.29960595,-0.295347377,1,0,0,0.5311,button_right,0.5311,1,,,,,,47,WORD,"ID",16,income,INCOME,m,,,,,,0.29960595,-0.295347377,1,0,0,,0,56,56,106,1,
,,,,,,,,,,,,,,,,,,5ef34cc943115906d6aa397f,2020-11-26_15h59.50.472,lexical_decision_task_MP_exp2,2020.2.5,Linux armv8l,60,,0,-0.348723197,-0.310308838,1,0,0,0.5868,button_left,0.5868,1,,,,,,330,NW,UN,33,gilfew,KENSOM,z,,,,,,-0.348723197,-0.310308838,1,0,0,,0,57,57,389,1,
,,,,,,,,,,,,,,,,,,5ef34cc943115906d6aa397f,2020-11-26_15h59.50.472,lexical_decision_task_MP_exp2,2020.2.5,Linux armv8l,60,,0,-0.35038558,-0.3236079,1,0,0,0.6743,button_left,0.6743,1,,,,,,271,NW,"ID",16,aubrid,AUBRID,z,,,,,,-0.35038558,-0.3236079,1,0,0,,0,58,58,330,1,
,,,,,,,,,,,,,,,,,,5ef34cc943115906d6aa397f,2020-11-26_15h59.50.472,lexical_decision_task_MP_exp2,2020.2.5,Linux armv8l,60,,0,0.313736211,-0.346881228,1,0,0,0.5524,button_right,0.5524,1,,,,,,105,WORD,UN,33,ransom,NUMBER,m,,,,,,0.313736211,-0.346881228,1,0,0,,0,59,59,164,1,
,,,,,,,,,,,,,,,,,,5ef34cc943115906d6aa397f,2020-11-26_15h59.50.472,lexical_decision_task_MP_exp2,2020.2.5,Linux armv8l,60,,0,-0.35038558,-0.321114178,1,0,0,0.5825,button_left,0.5825,1,,,,,,385,NW,UN,16,ancust,VEIGMA,z,,,,,,-0.35038558,-0.321114178,1,0,0,,0,60,60,444,1,
,,,,,,,,,,,,,,,,,,5ef34cc943115906d6aa397f,2020-11-26_15h59.50.472,lexical_decision_task_MP_exp2,2020.2.5,Linux armv8l,60,,0,-0.341242483,-0.306152842,1,0,0,0.6085,button_left,0.6085,1,,,,,,381,NW,UN,16,sarley,HUNIEK,z,,,,,,-0.341242483,-0.306152842,1,0,0,,0,61,61,440,1,
,,,,,,,,,,,,,,,,,,5ef34cc943115906d6aa397f,2020-11-26_15h59.50.472,lexical_decision_task_MP_exp2,2020.2.5,Linux armv8l,60,,0,-0.35038558,-0.301165771,1,0,0,0.5648,button_left,0.5648,1,,,,,,349,NW,UN,33,nagurs,ASYLEN,z,,,,,,-0.35038558,-0.301165771,1,0,0,,0,62,62,408,1,
,,,,,,,,,,,,,,,,,,5ef34cc943115906d6aa397f,2020-11-26_15h59.50.472,lexical_decision_task_MP_exp2,2020.2.5,Linux armv8l,60,,0,-0.347060799,-0.31363351,1,0,0,0.8308,button_left,0.8308,1,,,,,,283,NW,"ID",16,veralf,VERALF,z,,,,,,-0.347060799,-0.31363351,1,0,0,,0,63,63,342,1,
,,,,,,,,,,,,,,,,,,5ef34cc943115906d6aa397f,2020-11-26_15h59.50.472,lexical_decision_task_MP_exp2,2020.2.5,Linux armv8l,60,,0,0.322879277,-0.299503373,1,0,0,0.811,button_right,0.811,1,,,,,,92,WORD,UN,33,public,STRAND,m,,,,,,0.322879277,-0.299503373,1,0,0,,0,64,64,151,1,
,,,,,,,,,,,,,,,,,,5ef34cc943115906d6aa397f,2020-11-26_15h59.50.472,lexical_decision_task_MP_exp2,2020.2.5,Linux armv8l,60,,0,0.309580277,-0.344387631,1,0,0,0.6958,button_right,0.6958,1,,,,,,103,WORD,UN,33,studio,BOUNCE,m,,,,,,0.309580277,-0.344387631,1,0,0,,0,65,65,162,1,
,,,,,,,,,,,,,,,,,,5ef34cc943115906d6aa397f,2020-11-26_15h59.50.472,lexical_decision_task_MP_exp2,2020.2.5,Linux armv8l,60,,0,-0.348723197,-0.311140037,1,0,0,0.6883,button_left,0.6883,1,,,,,,380,NW,UN,16,huniek,CAVORY,z,,,,,,-0.348723197,-0.311140037,1,0,0,,0,66,66,439,1,
,,,,,,,,,,,,,,,,,,5ef34cc943115906d6aa397f,2020-11-26_15h59.50.472,lexical_decision_task_MP_exp2,2020.2.5,Linux armv8l,60,,0,-0.344567248,-0.31280256,1,0,0,0.884,button_left,0.884,1,,,,,,301,NW,UN,33,miluer,FAINCH,z,,,,,,-0.344567248,-0.31280256,1,0,0,,0,67,67,360,1,
,,,,,,,,,,,,,,,,,,5ef34cc943115906d6aa397f,2020-11-26_15h59.50.472,lexical_decision_task_MP_exp2,2020.2.5,Linux armv8l,60,,0,-0.325449823,-0.297009776,1,0,0,0.5854,button_left,0.5854,1,,,,,,367,NW,UN,16,hornal,SLIQUE,z,,,,,,-0.325449823,-0.297009776,1,0,0,,0,68,68,426,1,
,,,,,,,,,,,,,,,,,,5ef34cc943115906d6aa397f,2020-11-26_15h59.50.472,lexical_decision_task_MP_exp2,2020.2.5,Linux armv8l,60,,0,0.308749016,-0.356024294,1,0,0,0.5189,button_right,0.5189,1,,,,,,219,WORD,"ID",33,bucket,BUCKET,m,,,,,,0.308749016,-0.356024294,1,0,0,,0,69,69,38,1,
,,,,,,,,,,,,,,,,,,5ef34cc943115906d6aa397f,2020-11-26_15h59.50.472,lexical_decision_task_MP_exp2,2020.2.5,Linux armv8l,60,,0,-0.337917717,-0.30781524,1,0,0,0.5771,button_left,0.5771,1,,,,,,259,NW,"ID",16,soudal,SOUDAL,z,,,,,,-0.337917717,-0.30781524,1,0,0,,0,70,70,318,1,
,,,,,,,,,,,,,,,,,,5ef34cc943115906d6aa397f,2020-11-26_15h59.50.472,lexical_decision_task_MP_exp2,2020.2.5,Linux armv8l,60,,0,0.300437086,-0.334413365,1,0,0,0.576,button_right,0.576,1,,,,,,34,WORD,"ID",16,jungle,JUNGLE,m,,,,,,0.300437086,-0.334413365,1,0,0,,0,71,71,93,1,
,,,,,,,,,,,,,,,,,,5ef34cc943115906d6aa397f,2020-11-26_15h59.50.472,lexical_decision_task_MP_exp2,2020.2.5,Linux armv8l,60,,0,0.297943551,-0.282879514,1,0,0,0.6785,button_right,0.6785,1,,,,,,69,WORD,UN,33,square,PLENTY,m,,,,,,0.297943551,-0.282879514,1,0,0,,0,72,72,128,1,
,,,,,,,,,,,,,,,,,,5ef34cc943115906d6aa397f,2020-11-26_15h59.50.472,lexical_decision_task_MP_exp2,2020.2.5,Linux armv8l,60,,0,0.297943551,-0.336906962,1,0,0,0.596,button_right,0.596,1,,,,,,160,WORD,UN,16,pastor,VIOLET,m,,,,,,0.297943551,-0.336906962,1,0,0,,0,73,73,219,1,
,,,,,,,,,,,,,,,,,,5ef34cc943115906d6aa397f,2020-11-26_15h59.50.472,lexical_decision_task_MP_exp2,2020.2.5,Linux armv8l,60,,0,-0.340411299,-0.316127108,1,0,0,0.5628,button_left,0.5628,1,,,,,,414,NW,UN,16,higsta,SERBOL,z,,,,,,-0.340411299,-0.316127108,1,0,0,,0,74,74,473,1,
,,,,,,,,,,,,,,,,,,5ef34cc943115906d6aa397f,2020-11-26_15h59.50.472,lexical_decision_task_MP_exp2,2020.2.5,Linux armv8l,60,,0,-0.339580115,-0.3236079,1,0,0,0.6416,button_left,0.6416,0,,,,,,128,WORD,UN,16,marvel,SENIOR,m,,,,,,-0.339580115,-0.3236079,1,0,0,,0,75,75,187,1,
,,,,,,,,,,,,,,,,,,5ef34cc943115906d6aa397f,2020-11-26_15h59.50.472,lexical_decision_task_MP_exp2,2020.2.5,Linux armv8l,60,,0,0.302930684,-0.367661083,1,0,0,0.7442,button_right,0.7442,1,,,,,,67,WORD,UN,33,fumble,POLICY,m,,,,,,0.302930684,-0.367661083,1,0,0,,0,76,76,126,1,
,,,,,,,,,,,,,,,,,,5ef34cc943115906d6aa397f,2020-11-26_15h59.50.472,lexical_decision_task_MP_exp2,2020.2.5,Linux armv8l,60,,0,-0.343736049,-0.304490444,1,0,0,0.7074,button_left,0.7074,1,,,,,,453,NW,"ID",33,bolvis,BOLVIS,z,,,,,,-0.343736049,-0.304490444,1,0,0,,0,77,77,272,1,
,,,,,,,,,,,,,,,,,,5ef34cc943115906d6aa397f,2020-11-26_15h59.50.472,lexical_decision_task_MP_exp2,2020.2.5,Linux armv8l,60,,0,-0.339580115,-0.306984041,1,0,0,0.6199,button_left,0.6199,1,,,,,,256,NW,"ID",16,inlors,INLORS,z,,,,,,-0.339580115,-0.306984041,1,0,0,,0,78,78,315,1,
,,,,,,,,,,,,,,,,,,5ef34cc943115906d6aa397f,2020-11-26_15h59.50.472,lexical_decision_task_MP_exp2,2020.2.5,Linux armv8l,60,,0,-0.332930569,-0.321945377,1,0,0,0.7776,button_left,0.7776,1,,,,,,338,NW,UN,33,fachow,WREASH,z,,,,,,-0.332930569,-0.321945377,1,0,0,,0,79,79,397,1,
,,,,,,,,,,,,,,,,,,5ef34cc943115906d6aa397f,2020-11-26_15h59.50.472,lexical_decision_task_MP_exp2,2020.2.5,Linux armv8l,60,,0,0.296281153,-0.367661083,1,0,0,0.7976,button_right,0.7976,1,,,,,,165,WORD,UN,16,starch,INVEST,m,,,,,,0.296281153,-0.367661083,1,0,0,,0,80,80,224,1,
,,,,,,,,,,,,,,,,,,5ef34cc943115906d6aa397f,2020-11-26_15h59.50.472,lexical_decision_task_MP_exp2,2020.2.5,Linux armv8l,60,,0,0.304593082,-0.281217116,1,0,0,0.5195,button_right,0.5195,1,,,,,,77,WORD,UN,33,column,RACKET,m,,,,,,0.304593082,-0.281217116,1,0,0,,0,81,81,136,1,
,,,,,,,,,,,,,,,,,,5ef34cc943115906d6aa397f,2020-11-26_15h59.50.472,lexical_decision_task_MP_exp2,2020.2.5,Linux armv8l,60,,0,-0.347892014,-0.3236079,1,0,0,0.6421,button_left,0.6421,1,,,,,,400,NW,UN,16,mustil,WEAROX,z,,,,,,-0.347892014,-0.3236079,1,0,0,,0,82,82,459,1,
,,,,,,,,,,,,,,,,,,5ef34cc943115906d6aa397f,2020-11-26_15h59.50.472,lexical_decision_task_MP_exp2,2020.2.5,Linux armv8l,60,,0,-0.325449823,-0.293684979,1,0,0,0.5871,button_left,0.5871,1,,,,,,370,NW,UN,16,geiloy,SLEACT,z,,,,,,-0.325449823,-0.293684979,1,0,0,,0,83,83,429,1,
,,,,,,,,,,,,,,,,,,5ef34cc943115906d6aa397f,2020-11-26_15h59.50.472,lexical_decision_task_MP_exp2,2020.2.5,Linux armv8l,60,,0,0.301268286,-0.336906962,1,0,0,0.5987,button_right,0.5987,1,,,,,,104,WORD,UN,33,number,STUDIO,m,,,,,,0.301268286,-0.336906962,1,0,0,,0,84,84,163,1,
,,,,,,,,,,,,,,,,,,5ef34cc943115906d6aa397f,2020-11-26_15h59.50.472,lexical_decision_task_MP_exp2,2020.2.5,Linux armv8l,60,,0,-0.333761752,-0.311971112,1,0,0,0.5094,button_left,0.5094,1,,,,,,264,NW,"ID",16,vackel,VACKEL,z,,,,,,-0.333761752,-0.311971112,1,0,0,,0,85,85,323,1,
,,,,,,,,,,,,,,,,,,5ef34cc943115906d6aa397f,2020-11-26_15h59.50.472,lexical_decision_task_MP_exp2,2020.2.5,Linux armv8l,60,,0,-0.339580115,-0.321114178,1,0,0,0.6871,button_left,0.6871,1,,,,,,261,NW,"ID",16,stunch,STUNCH,z,,,,,,-0.339580115,-0.321114178,1,0,0,,0,86,86,320,1,
,,,,,,,,,,,,,,,,,,5ef34cc943115906d6aa397f,2020-11-26_15h59.50.472,lexical_decision_task_MP_exp2,2020.2.5,Linux armv8l,60,,0,0.297943551,-0.346050153,1,0,0,0.5961,button_right,0.5961,1,,,,,,98,WORD,UN,33,fluent,BELONG,m,,,,,,0.297943551,-0.346050153,1,0,0,,0,87,87,157,1,
,,,,,,,,,,,,,,,,,,5ef34cc943115906d6aa397f,2020-11-26_15h59.50.472,lexical_decision_task_MP_exp2,2020.2.5,Linux armv8l,60,,0,0.297943551,-0.335244564,1,0,0,0.8178,button_right,0.8178,1,,,,,,131,WORD,UN,16,strong,QUENCH,m,,,,,,0.297943551,-0.335244564,1,0,0,,0,88,88,190,1,
,,,,,,,,,,,,,,,,,,5ef34cc943115906d6aa397f,2020-11-26_15h59.50.472,lexical_decision_task_MP_exp2,2020.2.5,Linux armv8l,60,,0,-0.351216779,-0.31363351,1,0,0,0.5741,button_left,0.5741,1,,,,,,412,NW,UN,16,equats,JILUER,z,,,,,,-0.351216779,-0.31363351,1,0,0,,0,89,89,471,1,
,,,,,,,,,,,,,,,,,,5ef34cc943115906d6aa397f,2020-11-26_15h59.50.472,lexical_decision_task_MP_exp2,2020.2.5,Linux armv8l,60,,0,-0.347060799,-0.31280256,1,0,0,0.5652,button_left,0.5652,1,,,,,,416,NW,UN,16,earoud,PATHEL,z,,,,,,-0.347060799,-0.31280256,1,0,0,,0,90,90,475,1,
,,,,,,,,,,,,,,,,,,5ef34cc943115906d6aa397f,2020-11-26_15h59.50.472,lexical_decision_task_MP_exp2,2020.2.5,Linux armv8l,60,,0,-0.348723197,-0.31363351,1,0,0,0.5637,button_left,0.5637,1,,,,,,404,NW,UN,16,flumni,CLUIRM,z,,,,,,-0.348723197,-0.31363351,1,0,0,,0,91,91,463,1,
,,,,,,,,,,,,,,,,,,5ef34cc943115906d6aa397f,2020-11-26_15h59.50.472,lexical_decision_task_MP_exp2,2020.2.5,Linux armv8l,60,,0,-0.351216779,-0.3236079,1,0,0,0.6296,button_left,0.6296,1,,,,,,328,NW,UN,33,yarike,BROAKE,z,,,,,,-0.351216779,-0.3236079,1,0,0,,0,92,92,387,1,
,,,,,,,,,,,,,,,,,,5ef34cc943115906d6aa397f,2020-11-26_15h59.50.472,lexical_decision_task_MP_exp2,2020.2.5,Linux armv8l,60,,0,-0.356203912,-0.31363351,1,0,0,0.5954,button_left,0.5954,0,,,,,,191,WORD,"ID",33,stable,STABLE,m,,,,,,-0.356203912,-0.31363351,1,0,0,,0,93,93,10,1,
,,,,,,,,,,,,,,,,,,5ef34cc943115906d6aa397f,2020-11-26_15h59.50.472,lexical_decision_task_MP_exp2,2020.2.5,Linux armv8l,60,,0,-0.353710346,-0.31280256,1,0,0,0.7071,button_left,0.7071,1,,,,,,322,NW,UN,33,rosail,SLANCH,z,,,,,,-0.353710346,-0.31280256,1,0,0,,0,94,94,381,1,
,,,,,,,,,,,,,,,,,,5ef34cc943115906d6aa397f,2020-11-26_15h59.50.472,lexical_decision_task_MP_exp2,2020.2.5,Linux armv8l,60,,0,-0.356203912,-0.316127108,1,0,0,0.7839,button_left,0.7839,1,,,,,,432,NW,"ID",33,lunker,LUNKER,z,,,,,,-0.356203912,-0.316127108,1,0,0,,0,95,95,251,1,
,,,,,,,,,,,,,,,,,,5ef34cc943115906d6aa397f,2020-11-26_15h59.50.472,lexical_decision_task_MP_exp2,2020.2.5,Linux armv8l,60,,0,-0.351216779,-0.301165771,1,0,0,0.556,button_left,0.556,1,,,,,,298,NW,"ID",16,piergy,PIERGY,z,,,,,,-0.351216779,-0.301165771,1,0,0,,0,96,96,357,1,
,,,,,,,,,,,,,,,,,,5ef34cc943115906d6aa397f,2020-11-26_15h59.50.472,lexical_decision_task_MP_exp2,2020.2.5,Linux armv8l,60,,0,-0.35038558,-0.311140037,1,0,0,0.6089,button_left,0.6089,1,,,,,,247,NW,"ID",16,blarge,BLARGE,z,,,,,,-0.35038558,-0.311140037,1,0,0,,0,97,97,306,1,
,,,,,,,,,,,,,,,,,,5ef34cc943115906d6aa397f,2020-11-26_15h59.50.472,lexical_decision_task_MP_exp2,2020.2.5,Linux armv8l,60,,0,0.322048078,-0.332750967,1,0,0,0.5682,button_right,0.5682,1,,,,,,20,WORD,"ID",16,breast,BREAST,m,,,,,,0.322048078,-0.332750967,1,0,0,,0,98,98,79,1,
,,,,,,,,,,,,,,,,,,5ef34cc943115906d6aa397f,2020-11-26_15h59.50.472,lexical_decision_task_MP_exp2,2020.2.5,Linux armv8l,60,,0,0.298774813,-0.372648153,1,0,0,0.5294,button_right,0.5294,1,,,,,,71,WORD,UN,33,bright,GARDEN,m,,,,,,0.298774813,-0.372648153,1,0,0,,0,99,99,130,1,
,,,,,,,,,,,,,,,,,,5ef34cc943115906d6aa397f,2020-11-26_15h59.50.472,lexical_decision_task_MP_exp2,2020.2.5,Linux armv8l,60,,0,0.302930684,-0.332750967,1,0,0,0.6302,button_right,0.6302,1,,,,,,214,WORD,"ID",33,intake,INTAKE,m,,,,,,0.302930684,-0.332750967,1,0,0,,0,100,100,33,1,
,,,,,,,,,,,,,,,,,,5ef34cc943115906d6aa397f,2020-11-26_15h59.50.472,lexical_decision_task_MP_exp2,2020.2.5,Linux armv8l,60,,0,0.297943551,-0.335244564,1,0,0,0.5404,button_right,0.5404,1,,,,,,200,WORD,"ID",33,beacon,BEACON,m,,,,,,0.297943551,-0.335244564,1,0,0,,0,101,101,19,1,
,,,,,,,,,,,,,,,,,,5ef34cc943115906d6aa397f,2020-11-26_15h59.50.472,lexical_decision_task_MP_exp2,2020.2.5,Linux armv8l,60,,0,0.297943551,-0.357686817,1,0,0,0.5435,button_right,0.5435,1,,,,,,26,WORD,"ID",16,sprint,SPRINT,m,,,,,,0.297943551,-0.357686817,1,0,0,,0,102,102,85,1,
,,,,,,,,,,,,,,,,,,5ef34cc943115906d6aa397f,2020-11-26_15h59.50.472,lexical_decision_task_MP_exp2,2020.2.5,Linux armv8l,60,,0,-0.351216779,-0.321945377,1,0,0,0.7506,button_left,0.7506,1,,,,,,294,NW,"ID",16,inhort,INHORT,z,,,,,,-0.351216779,-0.321945377,1,0,0,,0,103,103,353,1,
,,,,,,,,,,,,,,,,,,5ef34cc943115906d6aa397f,2020-11-26_15h59.50.472,lexical_decision_task_MP_exp2,2020.2.5,Linux armv8l,60,,0,-0.356203912,-0.295347377,1,0,0,0.6534,button_left,0.6534,0,,,,,,90,WORD,UN,33,expand,RELISH,m,,,,,,-0.356203912,-0.295347377,1,0,0,,0,104,104,149,1,
,,,,,,,,,,,,,,,,,,5ef34cc943115906d6aa397f,2020-11-26_15h59.50.472,lexical_decision_task_MP_exp2,2020.2.5,Linux armv8l,60,,0,-0.353710346,-0.311971112,1,0,0,0.7524,button_left,0.7524,1,,,,,,257,NW,"ID",16,veniod,VENIOD,z,,,,,,-0.353710346,-0.311971112,1,0,0,,0,105,105,316,1,
,,,,,,,,,,,,,,,,,,5ef34cc943115906d6aa397f,2020-11-26_15h59.50.472,lexical_decision_task_MP_exp2,2020.2.5,Linux armv8l,60,,0,-0.352879162,-0.314464709,1,0,0,0.6395,button_left,0.6395,1,,,,,,279,NW,"ID",16,celond,CELOND,z,,,,,,-0.352879162,-0.314464709,1,0,0,,0,106,106,338,1,
,,,,,,,,,,,,,,,,,,5ef34cc943115906d6aa397f,2020-11-26_15h59.50.472,lexical_decision_task_MP_exp2,2020.2.5,Linux armv8l,60,,0,0.303761883,-0.361842689,1,0,0,0.6516,button_right,0.6516,1,,,,,,78,WORD,UN,33,theory,COLUMN,m,,,,,,0.303761883,-0.361842689,1,0,0,,0,107,107,137,1,
,,,,,,,,,,,,,,,,,,5ef34cc943115906d6aa397f,2020-11-26_15h59.50.472,lexical_decision_task_MP_exp2,2020.2.5,Linux armv8l,60,,0,-0.35038558,-0.322776576,1,0,0,0.6286,button_left,0.6286,1,,,,,,469,NW,"ID",33,padifs,PADIFS,z,,,,,,-0.35038558,-0.322776576,1,0,0,,0,108,108,288,1,
,,,,,,,,,,,,,,,,,,5ef34cc943115906d6aa397f,2020-11-26_15h59.50.472,lexical_decision_task_MP_exp2,2020.2.5,Linux armv8l,60,,0,-0.346229631,-0.293684979,1,0,0,0.6291,button_left,0.6291,1,,,,,,393,NW,UN,16,spaqux,GANOUS,z,,,,,,-0.346229631,-0.293684979,1,0,0,,0,109,109,452,1,
,,,,,,,,,,,,,,,,,,5ef34cc943115906d6aa397f,2020-11-26_15h59.50.472,lexical_decision_task_MP_exp2,2020.2.5,Linux armv8l,60,,0,-0.354541545,-0.305321767,1,0,0,1.0533,button_left,1.0533,1,,,,,,314,NW,UN,33,laston,SPRINE,z,,,,,,-0.354541545,-0.305321767,1,0,0,,0,110,110,373,1,
,,,,,,,,,,,,,,,,,,5ef34cc943115906d6aa397f,2020-11-26_15h59.50.472,lexical_decision_task_MP_exp2,2020.2.5,Linux armv8l,60,,0,0.307086618,-0.346050153,1,0,0,0.6532,button_right,0.6532,1,,,,,,211,WORD,"ID",33,infect,INFECT,m,,,,,,0.307086618,-0.346050153,1,0,0,,0,111,111,30,1,
,,,,,,,,,,,,,,,,,,5ef34cc943115906d6aa397f,2020-11-26_15h59.50.472,lexical_decision_task_MP_exp2,2020.2.5,Linux armv8l,60,,0,-0.345398447,-0.305321767,1,0,0,0.6326,button_left,0.6326,1,,,,,,241,NW,"ID",16,smenco,SMENCO,z,,,,,,-0.345398447,-0.305321767,1,0,0,,0,112,112,300,1,
,,,,,,,,,,,,,,,,,,5ef34cc943115906d6aa397f,2020-11-26_15h59.50.472,lexical_decision_task_MP_exp2,2020.2.5,Linux armv8l,60,,0,-0.342073666,-0.322776576,1,0,0,0.6623,button_left,0.6623,1,,,,,,437,NW,"ID",33,snapel,SNAPEL,z,,,,,,-0.342073666,-0.322776576,1,0,0,,0,113,113,256,1,
,,,,,,,,,,,,,,,,,,5ef34cc943115906d6aa397f,2020-11-26_15h59.50.472,lexical_decision_task_MP_exp2,2020.2.5,Linux armv8l,60,,0,0.297943551,-0.365167485,1,0,0,0.567,button_right,0.567,1,,,,,,86,WORD,UN,33,filter,RODENT,m,,,,,,0.297943551,-0.365167485,1,0,0,,0,114,114,145,1,
,,,,,,,,,,,,,,,,,,5ef34cc943115906d6aa397f,2020-11-26_15h59.50.472,lexical_decision_task_MP_exp2,2020.2.5,Linux armv8l,60,,0,0.294618817,-0.331919767,1,0,0,0.5414,button_right,0.5414,1,,,,,,193,WORD,"ID",33,object,OBJECT,m,,,,,,0.294618817,-0.331919767,1,0,0,,0,115,115,12,1,
,,,,,,,,,,,,,,,,,,5ef34cc943115906d6aa397f,2020-11-26_15h59.50.472,lexical_decision_task_MP_exp2,2020.2.5,Linux armv8l,60,,0,0.298774813,-0.331088568,1,0,0,0.5232,button_right,0.5232,1,,,,,,3,WORD,"ID",16,knight,KNIGHT,m,,,,,,0.298774813,-0.331088568,1,0,0,,0,116,116,62,1,
,,,,,,,,,,,,,,,,,,5ef34cc943115906d6aa397f,2020-11-26_15h59.50.472,lexical_decision_task_MP_exp2,2020.2.5,Linux armv8l,60,,0,-0.347060799,-0.303659244,1,0,0,0.5854,button_left,0.5854,1,,,,,,350,NW,UN,33,tiesch,NAGURS,z,,,,,,-0.347060799,-0.303659244,1,0,0,,0,117,117,409,1,
,,,,,,,,,,,,,,,,,,5ef34cc943115906d6aa397f,2020-11-26_15h59.50.472,lexical_decision_task_MP_exp2,2020.2.5,Linux armv8l,60,,0,-0.330436987,-0.324439099,1,0,0,0.6294,button_left,0.6294,1,,,,,,413,NW,UN,16,serbol,EQUATS,z,,,,,,-0.330436987,-0.324439099,1,0,0,,0,118,118,472,1,
,,,,,,,,,,,,,,,,,,5ef34cc943115906d6aa397f,2020-11-26_15h59.50.472,lexical_decision_task_MP_exp2,2020.2.5,Linux armv8l,60,,0,-0.349554397,-0.30781524,1,0,0,1.1625,button_left,1.1625,1,,,,,,411,NW,UN,16,jiluer,ORCHIN,z,,,,,,-0.349554397,-0.30781524,1,0,0,,0,119,119,470,1,
,,,,,,,,,,,,,,,,,,5ef34cc943115906d6aa397f,2020-11-26_15h59.50.472,lexical_decision_task_MP_exp2,2020.2.5,Linux armv8l,60,,0,0.298774813,-0.352699498,1,0,0,0.4742,button_right,0.4742,1,,,,,,119,WORD,UN,33,strain,SPIDER,m,,,,,,0.078509023,-0.402571075,1,0,0,,0,120,120,178,1,break_done_button
,,,,,,,,,,,,,,,,,,5ef34cc943115906d6aa397f,2020-11-26_15h59.50.472,lexical_decision_task_MP_exp2,2020.2.5,Linux armv8l,60,,0,0.341165473,-0.23965753,1,0,0,1.4499,button_right,1.4499,0,,,,,,408,NW,UN,16,elopia,HURNIA,z,,,,,,0.341165473,-0.23965753,1,0,0,,0,121,121,467,1,
,,,,,,,,,,,,,,,,,,5ef34cc943115906d6aa397f,2020-11-26_15h59.50.472,lexical_decision_task_MP_exp2,2020.2.5,Linux armv8l,60,,0,-0.331268202,-0.298672174,1,0,0,0.6656,button_left,0.6656,1,,,,,,391,NW,UN,16,rouncy,THELDY,z,,,,,,-0.331268202,-0.298672174,1,0,0,,0,122,122,450,1,
,,,,,,,,,,,,,,,,,,5ef34cc943115906d6aa397f,2020-11-26_15h59.50.472,lexical_decision_task_MP_exp2,2020.2.5,Linux armv8l,60,,0,0.3511398,-0.311971112,1,0,0,0.6885,button_right,0.6885,1,,,,,,106,WORD,UN,33,slogan,RANSOM,m,,,,,,0.3511398,-0.311971112,1,0,0,,0,123,123,165,1,
,,,,,,,,,,,,,,,,,,5ef34cc943115906d6aa397f,2020-11-26_15h59.50.472,lexical_decision_task_MP_exp2,2020.2.5,Linux armv8l,60,,0,0.328697609,-0.34521883,1,0,0,0.5732,button_right,0.5732,1,,,,,,239,WORD,"ID",33,lumber,LUMBER,m,,,,,,0.328697609,-0.34521883,1,0,0,,0,124,124,58,1,
,,,,,,,,,,,,,,,,,,5ef34cc943115906d6aa397f,2020-11-26_15h59.50.472,lexical_decision_task_MP_exp2,2020.2.5,Linux armv8l,60,,0,-0.311319593,-0.30864644,1,0,0,0.5548,button_left,0.5548,1,,,,,,336,NW,UN,33,rejols,GHODUS,z,,,,,,-0.311319593,-0.30864644,1,0,0,,0,125,125,395,1,
,,,,,,,,,,,,,,,,,,5ef34cc943115906d6aa397f,2020-11-26_15h59.50.472,lexical_decision_task_MP_exp2,2020.2.5,Linux armv8l,60,,0,-0.322125073,-0.302828045,1,0,0,0.4878,button_left,0.4878,0,,,,,,113,WORD,UN,33,placid,CHORUS,m,,,,,,-0.322125073,-0.302828045,1,0,0,,0,126,126,172,1,
,,,,,,,,,,,,,,,,,,5ef34cc943115906d6aa397f,2020-11-26_15h59.50.472,lexical_decision_task_MP_exp2,2020.2.5,Linux armv8l,60,,0,0.345321468,-0.285373112,1,0,0,0.5439,button_right,0.5439,1,,,,,,62,WORD,UN,33,launch,REGION,m,,,,,,0.345321468,-0.285373112,1,0,0,,0,127,127,121,1,
,,,,,,,,,,,,,,,,,,5ef34cc943115906d6aa397f,2020-11-26_15h59.50.472,lexical_decision_task_MP_exp2,2020.2.5,Linux armv8l,60,,0,-0.323787471,-0.279554717,1,0,0,0.5858,button_left,0.5858,1,,,,,,273,NW,"ID",16,sortel,SORTEL,z,,,,,,-0.323787471,-0.279554717,1,0,0,,0,128,128,332,1,
,,,,,,,,,,,,,,,,,,5ef34cc943115906d6aa397f,2020-11-26_15h59.50.472,lexical_decision_task_MP_exp2,2020.2.5,Linux armv8l,60,,0,-0.322125073,-0.336906962,1,0,0,0.624,button_left,0.624,1,,,,,,405,NW,UN,16,nouply,FLUMNI,z,,,,,,-0.322125073,-0.336906962,1,0,0,,0,129,129,464,1,
,,,,,,,,,,,,,,,,,,5ef34cc943115906d6aa397f,2020-11-26_15h59.50.472,lexical_decision_task_MP_exp2,2020.2.5,Linux armv8l,60,,0,-0.32046269,-0.3236079,1,0,0,0.5549,button_left,0.5549,0,,,,,,16,WORD,"ID",16,faucet,FAUCET,m,,,,,,-0.32046269,-0.3236079,1,0,0,,0,130,130,75,1,
,,,,,,,,,,,,,,,,,,5ef34cc943115906d6aa397f,2020-11-26_15h59.50.472,lexical_decision_task_MP_exp2,2020.2.5,Linux armv8l,60,,0,-0.301345296,-0.301165771,1,0,0,0.6318,button_left,0.6318,1,,,,,,369,NW,UN,16,sleact,WRONCH,z,,,,,,-0.301345296,-0.301165771,1,0,0,,0,131,131,428,1,
,,,,,,,,,,,,,,,,,,5ef34cc943115906d6aa397f,2020-11-26_15h59.50.472,lexical_decision_task_MP_exp2,2020.2.5,Linux armv8l,60,,0,-0.301345296,-0.267918053,1,0,0,0.5297,button_left,0.5297,1,,,,,,353,NW,UN,33,virlex,CLUREY,z,,,,,,-0.301345296,-0.267918053,1,0,0,,0,132,132,412,1,
,,,,,,,,,,,,,,,,,,5ef34cc943115906d6aa397f,2020-11-26_15h59.50.472,lexical_decision_task_MP_exp2,2020.2.5,Linux armv8l,60,,0,-0.298020546,-0.284541912,1,0,0,0.5078,button_left,0.5078,1,,,,,,317,NW,UN,33,reagly,WORBAL,z,,,,,,-0.298020546,-0.284541912,1,0,0,,0,133,133,376,1,
,,,,,,,,,,,,,,,,,,5ef34cc943115906d6aa397f,2020-11-26_15h59.50.472,lexical_decision_task_MP_exp2,2020.2.5,Linux armv8l,60,,0,-0.305501261,-0.283710713,1,0,0,0.6959,button_left,0.6959,1,,,,,,310,NW,UN,33,sproly,DANIET,z,,,,,,-0.305501261,-0.283710713,1,0,0,,0,134,134,369,1,
,,,,,,,,,,,,,,,,,,5ef34cc943115906d6aa397f,2020-11-26_15h59.50.472,lexical_decision_task_MP_exp2,2020.2.5,Linux armv8l,60,,0,0.342827871,-0.305321767,1,0,0,0.6992,button_right,0.6992,1,,,,,,87,WORD,UN,33,sprawl,FILTER,m,,,,,,0.342827871,-0.305321767,1,0,0,,0,135,135,146,1,
,,,,,,,,,,,,,,,,,,5ef34cc943115906d6aa397f,2020-11-26_15h59.50.472,lexical_decision_task_MP_exp2,2020.2.5,Linux armv8l,60,,0,-0.332930569,-0.275398722,1,0,0,0.7531,button_left,0.7531,1,,,,,,268,NW,"ID",16,packes,PACKES,z,,,,,,-0.332930569,-0.275398722,1,0,0,,0,136,136,327,1,
,,,,,,,,,,,,,,,,,,5ef34cc943115906d6aa397f,2020-11-26_15h59.50.472,lexical_decision_task_MP_exp2,2020.2.5,Linux armv8l,60,,0,0.350308664,-0.301165771,1,0,0,0.6232,button_right,0.6232,1,,,,,,33,WORD,"ID",16,butler,BUTLER,m,,,,,,0.350308664,-0.301165771,1,0,0,,0,137,137,92,1,
,,,,,,,,,,,,,,,,,,5ef34cc943115906d6aa397f,2020-11-26_15h59.50.472,lexical_decision_task_MP_exp2,2020.2.5,Linux armv8l,60,,0,0.34365907,-0.318620705,1,0,0,0.698,button_right,0.698,1,,,,,,237,WORD,"ID",33,poster,POSTER,m,,,,,,0.34365907,-0.318620705,1,0,0,,0,138,138,56,1,
,,,,,,,,,,,,,,,,,,5ef34cc943115906d6aa397f,2020-11-26_15h59.50.472,lexical_decision_task_MP_exp2,2020.2.5,Linux armv8l,60,,0,0.330360008,-0.321945377,1,0,0,0.6752,button_right,0.6752,1,,,,,,24,WORD,"ID",16,praise,PRAISE,m,,,,,,0.330360008,-0.321945377,1,0,0,,0,139,139,83,1,
,,,,,,,,,,,,,,,,,,5ef34cc943115906d6aa397f,2020-11-26_15h59.50.472,lexical_decision_task_MP_exp2,2020.2.5,Linux armv8l,60,,0,-0.301345296,-0.316127108,1,0,0,0.7297,button_left,0.7297,1,,,,,,272,NW,"ID",16,damilt,DAMILT,z,,,,,,-0.301345296,-0.316127108,1,0,0,,0,140,140,331,1,
,,,,,,,,,,,,,,,,,,5ef34cc943115906d6aa397f,2020-11-26_15h59.50.472,lexical_decision_task_MP_exp2,2020.2.5,Linux armv8l,60,,0,-0.300514112,-0.297009776,1,0,0,0.5979,button_left,0.5979,1,,,,,,448,NW,"ID",33,sadent,SADENT,z,,,,,,-0.300514112,-0.297009776,1,0,0,,0,141,141,267,1,
,,,,,,,,,,,,,,,,,,5ef34cc943115906d6aa397f,2020-11-26_15h59.50.472,lexical_decision_task_MP_exp2,2020.2.5,Linux armv8l,60,,0,-0.319631491,-0.335244564,1,0,0,0.9304,button_left,0.9304,1,,,,,,304,NW,UN,33,forgle,CLUDIE,z,,,,,,-0.319631491,-0.335244564,1,0,0,,0,142,142,363,1,
,,,,,,,,,,,,,,,,,,5ef34cc943115906d6aa397f,2020-11-26_15h59.50.472,lexical_decision_task_MP_exp2,2020.2.5,Linux armv8l,60,,0,-0.303838878,-0.280385917,1,0,0,0.568,button_left,0.568,1,,,,,,253,NW,"ID",16,resait,RESAIT,z,,,,,,-0.303838878,-0.280385917,1,0,0,,0,143,143,312,1,
,,,,,,,,,,,,,,,,,,5ef34cc943115906d6aa397f,2020-11-26_15h59.50.472,lexical_decision_task_MP_exp2,2020.2.5,Linux armv8l,60,,0,-0.297189347,-0.293684979,1,0,0,0.4855,button_left,0.4855,1,,,,,,276,NW,"ID",16,yarmon,YARMON,z,,,,,,-0.297189347,-0.293684979,1,0,0,,0,144,144,335,1,
,,,,,,,,,,,,,,,,,,5ef34cc943115906d6aa397f,2020-11-26_15h59.50.472,lexical_decision_task_MP_exp2,2020.2.5,Linux armv8l,60,,0,0.348646203,-0.320283228,1,0,0,0.652,button_right,0.652,1,,,,,,101,WORD,UN,33,direct,WRENCH,m,,,,,,0.348646203,-0.320283228,1,0,0,,0,145,145,160,1,
,,,,,,,,,,,,,,,,,,5ef34cc943115906d6aa397f,2020-11-26_15h59.50.472,lexical_decision_task_MP_exp2,2020.2.5,Linux armv8l,60,,0,-0.317969139,-0.301997095,1,0,0,0.609,button_left,0.609,1,,,,,,297,NW,"ID",16,fertic,FERTIC,z,,,,,,-0.317969139,-0.301997095,1,0,0,,0,146,146,356,1,
,,,,,,,,,,,,,,,,,,5ef34cc943115906d6aa397f,2020-11-26_15h59.50.472,lexical_decision_task_MP_exp2,2020.2.5,Linux armv8l,60,,0,0.287138086,-0.302828045,1,0,0,0.7767,button_right,0.7767,1,,,,,,156,WORD,UN,16,depart,CRADLE,m,,,,,,0.287138086,-0.302828045,1,0,0,,0,147,147,215,1,
,,,,,,,,,,,,,,,,,,5ef34cc943115906d6aa397f,2020-11-26_15h59.50.472,lexical_decision_task_MP_exp2,2020.2.5,Linux armv8l,60,,0,0.337009539,-0.266255655,1,0,0,0.5869,button_right,0.5869,1,,,,,,148,WORD,UN,16,invade,CUSTOM,m,,,,,,0.337009539,-0.266255655,1,0,0,,0,148,148,207,1,
,,,,,,,,,,,,,,,,,,5ef34cc943115906d6aa397f,2020-11-26_15h59.50.472,lexical_decision_task_MP_exp2,2020.2.5,Linux armv8l,60,,0,-0.302176479,-0.289528983,1,0,0,0.5787,button_left,0.5787,1,,,,,,282,NW,"ID",16,porlex,PORLEX,z,,,,,,-0.302176479,-0.289528983,1,0,0,,0,149,149,341,1,
,,,,,,,,,,,,,,,,,,5ef34cc943115906d6aa397f,2020-11-26_15h59.50.472,lexical_decision_task_MP_exp2,2020.2.5,Linux armv8l,60,,0,0.333684742,-0.321114178,1,0,0,0.5518,button_right,0.5518,1,,,,,,153,WORD,UN,16,author,BEHOLD,m,,,,,,0.333684742,-0.321114178,1,0,0,,0,150,150,212,1,
,,,,,,,,,,,,,,,,,,5ef34cc943115906d6aa397f,2020-11-26_15h59.50.472,lexical_decision_task_MP_exp2,2020.2.5,Linux armv8l,60,,0,-0.30633246,-0.301165771,1,0,0,0.5437,button_left,0.5437,1,,,,,,466,NW,"ID",33,hocite,HOCITE,z,,,,,,-0.30633246,-0.301165771,1,0,0,,0,151,151,285,1,
,,,,,,,,,,,,,,,,,,5ef34cc943115906d6aa397f,2020-11-26_15h59.50.472,lexical_decision_task_MP_exp2,2020.2.5,Linux armv8l,60,,0,0.3511398,-0.316127108,1,0,0,0.9172,button_right,0.9172,1,,,,,,124,WORD,UN,16,nickel,BLOUSE,m,,,,,,0.3511398,-0.316127108,1,0,0,,0,152,152,183,1,
,,,,,,,,,,,,,,,,,,5ef34cc943115906d6aa397f,2020-11-26_15h59.50.472,lexical_decision_task_MP_exp2,2020.2.5,Linux armv8l,60,,0,-0.343736049,-0.316958307,1,0,0,0.7201,button_left,0.7201,1,,,,,,296,NW,"ID",16,beinch,BEINCH,z,,,,,,-0.343736049,-0.316958307,1,0,0,,0,153,153,355,1,
,,,,,,,,,,,,,,,,,,5ef34cc943115906d6aa397f,2020-11-26_15h59.50.472,lexical_decision_task_MP_exp2,2020.2.5,Linux armv8l,60,,0,-0.298851729,-0.329426294,1,0,0,0.9509,button_left,0.9509,1,,,,,,461,NW,"ID",33,justre,JUSTRE,z,,,,,,-0.298851729,-0.329426294,1,0,0,,0,154,154,280,1,
,,,,,,,,,,,,,,,,,,5ef34cc943115906d6aa397f,2020-11-26_15h59.50.472,lexical_decision_task_MP_exp2,2020.2.5,Linux armv8l,60,,0,0.339503136,-0.302828045,1,0,0,0.6629,button_right,0.6629,1,,,,,,188,WORD,"ID",33,social,SOCIAL,m,,,,,,0.339503136,-0.302828045,1,0,0,,0,155,155,7,1,
,,,,,,,,,,,,,,,,,,5ef34cc943115906d6aa397f,2020-11-26_15h59.50.472,lexical_decision_task_MP_exp2,2020.2.5,Linux armv8l,60,,0,0.322879277,-0.301165771,1,0,0,0.6188,button_right,0.6188,1,,,,,,121,WORD,UN,16,linger,THRIVE,m,,,,,,0.322879277,-0.301165771,1,0,0,,0,156,156,180,1,
,,,,,,,,,,,,,,,,,,5ef34cc943115906d6aa397f,2020-11-26_15h59.50.472,lexical_decision_task_MP_exp2,2020.2.5,Linux armv8l,60,,0,-0.299682929,-0.316127108,1,0,0,0.6643,button_left,0.6643,1,,,,,,431,NW,"ID",33,chrums,CHRUMS,z,,,,,,-0.299682929,-0.316127108,1,0,0,,0,157,157,250,1,
,,,,,,,,,,,,,,,,,,5ef34cc943115906d6aa397f,2020-11-26_15h59.50.472,lexical_decision_task_MP_exp2,2020.2.5,Linux armv8l,60,,0,0.332853605,-0.301165771,1,0,0,0.6505,button_right,0.6505,1,,,,,,126,WORD,UN,16,castle,ENOUGH,m,,,,,,0.332853605,-0.301165771,1,0,0,,0,158,158,185,1,
,,,,,,,,,,,,,,,,,,5ef34cc943115906d6aa397f,2020-11-26_15h59.50.472,lexical_decision_task_MP_exp2,2020.2.5,Linux armv8l,60,,0,0.319554481,-0.314464709,1,0,0,0.5967,button_right,0.5967,1,,,,,,75,WORD,UN,33,exotic,TROPHY,m,,,,,,0.319554481,-0.314464709,1,0,0,,0,159,159,134,1,
,,,,,,,,,,,,,,,,,,5ef34cc943115906d6aa397f,2020-11-26_15h59.50.472,lexical_decision_task_MP_exp2,2020.2.5,Linux armv8l,60,,0,0.325372813,-0.303659244,1,0,0,0.6093,button_right,0.6093,1,,,,,,234,WORD,"ID",33,clumsy,CLUMSY,m,,,,,,0.325372813,-0.303659244,1,0,0,,0,160,160,53,1,
,,,,,,,,,,,,,,,,,,5ef34cc943115906d6aa397f,2020-11-26_15h59.50.472,lexical_decision_task_MP_exp2,2020.2.5,Linux armv8l,60,,0,0.318723344,-0.316127108,1,0,0,0.5319,button_right,0.5319,1,,,,,,115,WORD,UN,33,tumble,GUITAR,m,,,,,,0.318723344,-0.316127108,1,0,0,,0,161,161,174,1,
,,,,,,,,,,,,,,,,,,5ef34cc943115906d6aa397f,2020-11-26_15h59.50.472,lexical_decision_task_MP_exp2,2020.2.5,Linux armv8l,60,,0,-0.310488393,-0.31280256,1,0,0,0.5774,button_left,0.5774,1,,,,,,440,NW,"ID",33,saride,SARIDE,z,,,,,,-0.310488393,-0.31280256,1,0,0,,0,162,162,259,1,
,,,,,,,,,,,,,,,,,,5ef34cc943115906d6aa397f,2020-11-26_15h59.50.472,lexical_decision_task_MP_exp2,2020.2.5,Linux armv8l,60,,0,-0.314644374,-0.314464709,1,0,0,0.7857,button_left,0.7857,1,,,,,,260,NW,"ID",16,unject,UNJECT,z,,,,,,-0.314644374,-0.314464709,1,0,0,,0,163,163,319,1,
,,,,,,,,,,,,,,,,,,5ef34cc943115906d6aa397f,2020-11-26_15h59.50.472,lexical_decision_task_MP_exp2,2020.2.5,Linux armv8l,60,,0,-0.297189347,-0.326101498,1,0,0,0.6854,button_left,0.6854,1,,,,,,357,NW,UN,33,fleack,DERAIN,z,,,,,,-0.297189347,-0.326101498,1,0,0,,0,164,164,416,1,
,,,,,,,,,,,,,,,,,,5ef34cc943115906d6aa397f,2020-11-26_15h59.50.472,lexical_decision_task_MP_exp2,2020.2.5,Linux armv8l,60,,0,0.323710539,-0.321945377,1,0,0,1.0624,button_right,1.0624,1,,,,,,227,WORD,"ID",33,seldom,SELDOM,m,,,,,,0.323710539,-0.321945377,1,0,0,,0,165,165,46,1,
,,,,,,,,,,,,,,,,,,5ef34cc943115906d6aa397f,2020-11-26_15h59.50.472,lexical_decision_task_MP_exp2,2020.2.5,Linux armv8l,60,,0,0.323710539,-0.316958307,1,0,0,0.6314,button_right,0.6314,1,,,,,,46,WORD,"ID",16,single,SINGLE,m,,,,,,0.323710539,-0.316958307,1,0,0,,0,166,166,105,1,
,,,,,,,,,,,,,,,,,,5ef34cc943115906d6aa397f,2020-11-26_15h59.50.472,lexical_decision_task_MP_exp2,2020.2.5,Linux armv8l,60,,0,-0.272253605,-0.329426294,1,0,0,1.5492,button_left,1.5492,1,,,,,,476,NW,"ID",33,josted,JOSTED,z,,,,,,-0.272253605,-0.329426294,1,0,0,,0,167,167,295,1,
,,,,,,,,,,,,,,,,,,5ef34cc943115906d6aa397f,2020-11-26_15h59.50.472,lexical_decision_task_MP_exp2,2020.2.5,Linux armv8l,60,,0,-0.266435273,-0.316958307,1,0,0,0.8857,button_left,0.8857,1,,,,,,362,NW,UN,16,breali,TIREAU,z,,,,,,-0.266435273,-0.316958307,1,0,0,,0,168,168,421,1,
,,,,,,,,,,,,,,,,,,5ef34cc943115906d6aa397f,2020-11-26_15h59.50.472,lexical_decision_task_MP_exp2,2020.2.5,Linux armv8l,60,,0,-0.260616941,-0.300334572,1,0,0,1.2196,button_left,1.2196,1,,,,,,365,NW,UN,16,toshel,GUAIRT,z,,,,,,-0.260616941,-0.300334572,1,0,0,,0,169,169,424,1,
,,,,,,,,,,,,,,,,,,5ef34cc943115906d6aa397f,2020-11-26_15h59.50.472,lexical_decision_task_MP_exp2,2020.2.5,Linux armv8l,60,,0,-0.290539831,-0.277892319,1,0,0,0.5092,button_left,0.5092,1,,,,,,340,NW,UN,33,myrtie,FIATCH,z,,,,,,-0.290539831,-0.277892319,1,0,0,,0,170,170,399,1,
,,,,,,,,,,,,,,,,,,5ef34cc943115906d6aa397f,2020-11-26_15h59.50.472,lexical_decision_task_MP_exp2,2020.2.5,Linux armv8l,60,,0,-0.300514112,-0.282879514,1,0,0,0.4414,button_left,0.4414,0,,,,,,5,WORD,"ID",16,plunge,PLUNGE,m,,,,,,-0.300514112,-0.282879514,1,0,0,,0,171,171,64,1,
,,,,,,,,,,,,,,,,,,5ef34cc943115906d6aa397f,2020-11-26_15h59.50.472,lexical_decision_task_MP_exp2,2020.2.5,Linux armv8l,60,,0,-0.308826026,-0.304490444,1,0,0,0.5073,button_left,0.5073,1,,,,,,339,NW,UN,33,fiatch,FACHOW,z,,,,,,-0.308826026,-0.304490444,1,0,0,,0,172,172,398,1,
,,,,,,,,,,,,,,,,,,5ef34cc943115906d6aa397f,2020-11-26_15h59.50.472,lexical_decision_task_MP_exp2,2020.2.5,Linux armv8l,60,,0,-0.295526964,-0.297840975,1,0,0,0.5191,button_left,0.5191,1,,,,,,278,NW,"ID",16,unighs,UNIGHS,z,,,,,,-0.295526964,-0.297840975,1,0,0,,0,173,173,337,1,
,,,,,,,,,,,,,,,,,,5ef34cc943115906d6aa397f,2020-11-26_15h59.50.472,lexical_decision_task_MP_exp2,2020.2.5,Linux armv8l,60,,0,-0.315475557,-0.318620705,1,0,0,0.5299,button_left,0.5299,1,,,,,,275,NW,"ID",16,sleirt,SLEIRT,z,,,,,,-0.315475557,-0.318620705,1,0,0,,0,174,174,334,1,
,,,,,,,,,,,,,,,,,,5ef34cc943115906d6aa397f,2020-11-26_15h59.50.472,lexical_decision_task_MP_exp2,2020.2.5,Linux armv8l,60,,0,0.332853605,-0.291191381,1,0,0,0.5079,button_right,0.5079,1,,,,,,177,WORD,UN,16,inform,ADVENT,m,,,,,,0.332853605,-0.291191381,1,0,0,,0,175,175,236,1,
,,,,,,,,,,,,,,,,,,5ef34cc943115906d6aa397f,2020-11-26_15h59.50.472,lexical_decision_task_MP_exp2,2020.2.5,Linux armv8l,60,,0,-0.311319593,-0.297009776,1,0,0,0.541,button_left,0.541,1,,,,,,331,NW,UN,33,vangue,GILFEW,z,,,,,,-0.311319593,-0.297009776,1,0,0,,0,176,176,390,1,
,,,,,,,,,,,,,,,,,,5ef34cc943115906d6aa397f,2020-11-26_15h59.50.472,lexical_decision_task_MP_exp2,2020.2.5,Linux armv8l,60,,0,-0.308826026,-0.289528983,1,0,0,0.4959,button_left,0.4959,1,,,,,,347,NW,UN,33,dumple,KERIFT,z,,,,,,-0.308826026,-0.289528983,1,0,0,,0,177,177,406,1,
,,,,,,,,,,,,,,,,,,5ef34cc943115906d6aa397f,2020-11-26_15h59.50.472,lexical_decision_task_MP_exp2,2020.2.5,Linux armv8l,60,,0,0.34365907,-0.316127108,1,0,0,0.5986,button_right,0.5986,1,,,,,,134,WORD,UN,16,import,STAPLE,m,,,,,,0.34365907,-0.316127108,1,0,0,,0,178,178,193,1,
,,,,,,,,,,,,,,,,,,5ef34cc943115906d6aa397f,2020-11-26_15h59.50.472,lexical_decision_task_MP_exp2,2020.2.5,Linux armv8l,60,,0,-0.332930569,-0.272905249,1,0,0,0.651,button_left,0.651,1,,,,,,286,NW,"ID",16,reldon,RELDON,z,,,,,,-0.332930569,-0.272905249,1,0,0,,0,179,179,345,1,
,,,,,,,,,,,,,,,,,,5ef34cc943115906d6aa397f,2020-11-26_15h59.50.472,lexical_decision_task_MP_exp2,2020.2.5,Linux armv8l,60,,0,-0.317969139,-0.280385917,1,0,0,0.6075,button_left,0.6075,1,,,,,,376,NW,UN,16,veigma,IGUARE,z,,,,,,-0.317969139,-0.280385917,1,0,0,,0,180,180,435,1,
,,,,,,,,,,,,,,,,,,5ef34cc943115906d6aa397f,2020-11-26_15h59.50.472,lexical_decision_task_MP_exp2,2020.2.5,Linux armv8l,60,,0,-0.304670061,-0.288697784,1,0,0,0.4959,button_left,0.4959,1,,,,,,326,NW,UN,33,plenac,IGUADE,z,,,,,,-0.304670061,-0.288697784,1,0,0,,0,181,181,385,1,
,,,,,,,,,,,,,,,,,,5ef34cc943115906d6aa397f,2020-11-26_15h59.50.472,lexical_decision_task_MP_exp2,2020.2.5,Linux armv8l,60,,0,-0.31713794,-0.281217116,1,0,0,0.7294,button_left,0.7294,1,,,,,,441,NW,"ID",33,rastoe,RASTOE,z,,,,,,-0.31713794,-0.281217116,1,0,0,,0,182,182,260,1,
,,,,,,,,,,,,,,,,,,5ef34cc943115906d6aa397f,2020-11-26_15h59.50.472,lexical_decision_task_MP_exp2,2020.2.5,Linux armv8l,60,,0,-0.29469578,-0.289528983,1,0,0,0.4983,button_left,0.4983,1,,,,,,288,NW,"ID",16,yaceup,YACEUP,z,,,,,,-0.29469578,-0.289528983,1,0,0,,0,183,183,347,1,
,,,,,,,,,,,,,,,,,,5ef34cc943115906d6aa397f,2020-11-26_15h59.50.472,lexical_decision_task_MP_exp2,2020.2.5,Linux armv8l,60,,0,-0.314644374,-0.277892319,1,0,0,0.5403,button_left,0.5403,1,,,,,,378,NW,UN,16,auting,SHRILE,z,,,,,,-0.314644374,-0.277892319,1,0,0,,0,184,184,437,1,
,,,,,,,,,,,,,,,,,,5ef34cc943115906d6aa397f,2020-11-26_15h59.50.472,lexical_decision_task_MP_exp2,2020.2.5,Linux armv8l,60,,0,-0.319631491,-0.298672174,1,0,0,0.7671,button_left,0.7671,1,,,,,,291,NW,"ID",16,pretch,PRETCH,z,,,,,,-0.319631491,-0.298672174,1,0,0,,0,185,185,350,1,
,,,,,,,,,,,,,,,,,,5ef34cc943115906d6aa397f,2020-11-26_15h59.50.472,lexical_decision_task_MP_exp2,2020.2.5,Linux armv8l,60,,0,-0.30965721,-0.321945377,1,0,0,0.8209,button_left,0.8209,1,,,,,,387,NW,UN,16,cragin,GRONCE,z,,,,,,-0.30965721,-0.321945377,1,0,0,,0,186,186,446,1,
,,,,,,,,,,,,,,,,,,5ef34cc943115906d6aa397f,2020-11-26_15h59.50.472,lexical_decision_task_MP_exp2,2020.2.5,Linux armv8l,60,,0,-0.311319593,-0.283710713,1,0,0,0.5964,button_left,0.5964,1,,,,,,361,NW,UN,16,tireau,PAUCHE,z,,,,,,-0.311319593,-0.283710713,1,0,0,,0,187,187,420,1,
,,,,,,,,,,,,,,,,,,5ef34cc943115906d6aa397f,2020-11-26_15h59.50.472,lexical_decision_task_MP_exp2,2020.2.5,Linux armv8l,60,,0,-0.339580115,-0.261268709,1,0,0,0.7077,button_left,0.7077,1,,,,,,480,NW,"ID",33,robuly,ROBULY,z,,,,,,-0.339580115,-0.261268709,1,0,0,,0,188,188,299,1,
,,,,,,,,,,,,,,,,,,5ef34cc943115906d6aa397f,2020-11-26_15h59.50.472,lexical_decision_task_MP_exp2,2020.2.5,Linux armv8l,60,,0,-0.304670061,-0.319451904,1,0,0,0.5758,button_left,0.5758,0,,,,,,66,WORD,UN,33,policy,GOSPEL,m,,,,,,-0.304670061,-0.319451904,1,0,0,,0,189,189,125,1,
,,,,,,,,,,,,,,,,,,5ef34cc943115906d6aa397f,2020-11-26_15h59.50.472,lexical_decision_task_MP_exp2,2020.2.5,Linux armv8l,60,,0,0.338671937,-0.292022581,1,0,0,0.5308,button_right,0.5308,0,,,,,,319,NW,UN,33,jockal,ZOMBER,z,,,,,,0.338671937,-0.292022581,1,0,0,,0,190,190,378,1,
,,,,,,,,,,,,,,,,,,5ef34cc943115906d6aa397f,2020-11-26_15h59.50.472,lexical_decision_task_MP_exp2,2020.2.5,Linux armv8l,60,,0,0.328697609,-0.294516303,1,0,0,0.6065,button_right,0.6065,1,,,,,,226,WORD,"ID",33,casino,CASINO,m,,,,,,0.328697609,-0.294516303,1,0,0,,0,191,191,45,1,
,,,,,,,,,,,,,,,,,,5ef34cc943115906d6aa397f,2020-11-26_15h59.50.472,lexical_decision_task_MP_exp2,2020.2.5,Linux armv8l,60,,0,0.322879277,-0.321945377,1,0,0,0.8287,button_right,0.8287,1,,,,,,9,WORD,"ID",16,hustle,HUSTLE,m,,,,,,0.322879277,-0.321945377,1,0,0,,0,192,192,68,1,
,,,,,,,,,,,,,,,,,,5ef34cc943115906d6aa397f,2020-11-26_15h59.50.472,lexical_decision_task_MP_exp2,2020.2.5,Linux armv8l,60,,0,0.34365907,-0.310308838,1,0,0,0.6072,button_right,0.6072,1,,,,,,209,WORD,"ID",33,search,SEARCH,m,,,,,,0.34365907,-0.310308838,1,0,0,,0,193,193,28,1,
,,,,,,,,,,,,,,,,,,5ef34cc943115906d6aa397f,2020-11-26_15h59.50.472,lexical_decision_task_MP_exp2,2020.2.5,Linux armv8l,60,,0,0.331191207,-0.301165771,1,0,0,0.5075,button_right,0.5075,1,,,,,,232,WORD,"ID",33,inject,INJECT,m,,,,,,0.331191207,-0.301165771,1,0,0,,0,194,194,51,1,
,,,,,,,,,,,,,,,,,,5ef34cc943115906d6aa397f,2020-11-26_15h59.50.472,lexical_decision_task_MP_exp2,2020.2.5,Linux armv8l,60,,0,0.332853605,-0.332750967,1,0,0,0.4887,button_right,0.4887,1,,,,,,132,WORD,UN,16,orphan,STRONG,m,,,,,,0.332853605,-0.332750967,1,0,0,,0,195,195,191,1,
,,,,,,,,,,,,,,,,,,5ef34cc943115906d6aa397f,2020-11-26_15h59.50.472,lexical_decision_task_MP_exp2,2020.2.5,Linux armv8l,60,,0,0.332853605,-0.324439099,1,0,0,0.4607,button_right,0.4607,1,,,,,,123,WORD,UN,16,blouse,STRIKE,m,,,,,,0.332853605,-0.324439099,1,0,0,,0,196,196,182,1,
,,,,,,,,,,,,,,,,,,5ef34cc943115906d6aa397f,2020-11-26_15h59.50.472,lexical_decision_task_MP_exp2,2020.2.5,Linux armv8l,60,,0,0.360282929,-0.314464709,1,0,0,0.7891,button_right,0.7891,1,,,,,,212,WORD,"ID",33,verify,VERIFY,m,,,,,,0.360282929,-0.314464709,1,0,0,,0,197,197,31,1,
,,,,,,,,,,,,,,,,,,5ef34cc943115906d6aa397f,2020-11-26_15h59.50.472,lexical_decision_task_MP_exp2,2020.2.5,Linux armv8l,60,,0,0.345321468,-0.316127108,1,0,0,0.441,button_right,0.441,0,,,,,,248,NW,"ID",16,strole,STROLE,z,,,,,,0.345321468,-0.316127108,1,0,0,,0,198,198,307,1,
,,,,,,,,,,,,,,,,,,5ef34cc943115906d6aa397f,2020-11-26_15h59.50.472,lexical_decision_task_MP_exp2,2020.2.5,Linux armv8l,60,,0,-0.303007679,-0.311971112,1,0,0,1.5615,button_left,1.5615,1,,,,,,255,NW,"ID",16,apight,APIGHT,z,,,,,,-0.303007679,-0.311971112,1,0,0,,0,199,199,314,1,
,,,,,,,,,,,,,,,,,,5ef34cc943115906d6aa397f,2020-11-26_15h59.50.472,lexical_decision_task_MP_exp2,2020.2.5,Linux armv8l,60,,0,0.351970937,-0.309477639,1,0,0,0.7513,button_right,0.7513,1,,,,,,35,WORD,"ID",16,socket,SOCKET,m,,,,,,0.351970937,-0.309477639,1,0,0,,0,200,200,94,1,
,,,,,,,,,,,,,,,,,,5ef34cc943115906d6aa397f,2020-11-26_15h59.50.472,lexical_decision_task_MP_exp2,2020.2.5,Linux armv8l,60,,0,0.330360008,-0.305321767,1,0,0,1.4037,button_right,1.4037,1,,,,,,85,WORD,UN,33,rodent,SPRAWL,m,,,,,,0.330360008,-0.305321767,1,0,0,,0,201,201,144,1,
,,,,,,,,,,,,,,,,,,5ef34cc943115906d6aa397f,2020-11-26_15h59.50.472,lexical_decision_task_MP_exp2,2020.2.5,Linux armv8l,60,,0,-0.329605788,-0.309477639,1,0,0,0.563,button_left,0.563,1,,,,,,270,NW,"ID",16,wrimsy,WRIMSY,z,,,,,,-0.329605788,-0.309477639,1,0,0,,0,202,202,329,1,
,,,,,,,,,,,,,,,,,,5ef34cc943115906d6aa397f,2020-11-26_15h59.50.472,lexical_decision_task_MP_exp2,2020.2.5,Linux armv8l,60,,0,0.348646203,-0.310308838,1,0,0,0.6948,button_right,0.6948,1,,,,,,222,WORD,"ID",33,hinder,HINDER,m,,,,,,0.348646203,-0.310308838,1,0,0,,0,203,203,41,1,
,,,,,,,,,,,,,,,,,,5ef34cc943115906d6aa397f,2020-11-26_15h59.50.472,lexical_decision_task_MP_exp2,2020.2.5,Linux armv8l,60,,0,-0.323787471,-0.333582166,1,0,0,0.6439,button_left,0.6439,1,,,,,,388,NW,UN,16,witmer,CRAGIN,z,,,,,,-0.323787471,-0.333582166,1,0,0,,0,204,204,447,1,
,,,,,,,,,,,,,,,,,,5ef34cc943115906d6aa397f,2020-11-26_15h59.50.472,lexical_decision_task_MP_exp2,2020.2.5,Linux armv8l,60,,0,-0.335424151,-0.30781524,1,0,0,0.7057,button_left,0.7057,1,,,,,,313,NW,UN,33,sprine,PAURSE,z,,,,,,-0.335424151,-0.30781524,1,0,0,,0,205,205,372,1,
,,,,,,,,,,,,,,,,,,5ef34cc943115906d6aa397f,2020-11-26_15h59.50.472,lexical_decision_task_MP_exp2,2020.2.5,Linux armv8l,60,,0,-0.336255334,-0.295347377,1,0,0,0.8312,button_left,0.8312,1,,,,,,368,NW,UN,16,wronch,HORNAL,z,,,,,,-0.336255334,-0.295347377,1,0,0,,0,206,206,427,1,
,,,,,,,,,,,,,,,,,,5ef34cc943115906d6aa397f,2020-11-26_15h59.50.472,lexical_decision_task_MP_exp2,2020.2.5,Linux armv8l,60,,0,0.351970937,-0.309477639,1,0,0,0.6619,button_right,0.6619,1,,,,,,202,WORD,"ID",33,factor,FACTOR,m,,,,,,0.351970937,-0.309477639,1,0,0,,0,207,207,21,1,
,,,,,,,,,,,,,,,,,,5ef34cc943115906d6aa397f,2020-11-26_15h59.50.472,lexical_decision_task_MP_exp2,2020.2.5,Linux armv8l,60,,0,-0.332930569,-0.303659244,1,0,0,1.3329,button_left,1.3329,0,,,,,,199,WORD,"ID",33,invoke,INVOKE,m,,,,,,-0.332930569,-0.303659244,1,0,0,,0,208,208,18,1,
,,,,,,,,,,,,,,,,,,5ef34cc943115906d6aa397f,2020-11-26_15h59.50.472,lexical_decision_task_MP_exp2,2020.2.5,Linux armv8l,60,,0,0.347815004,-0.321945377,1,0,0,1.1662,button_right,1.1662,1,,,,,,238,WORD,"ID",33,flower,FLOWER,m,,,,,,0.347815004,-0.321945377,1,0,0,,0,209,209,57,1,
,,,,,,,,,,,,,,,,,,5ef34cc943115906d6aa397f,2020-11-26_15h59.50.472,lexical_decision_task_MP_exp2,2020.2.5,Linux armv8l,60,,0,0.34365907,-0.31280256,1,0,0,0.6755,button_right,0.6755,1,,,,,,79,WORD,UN,33,family,THEORY,m,,,,,,0.34365907,-0.31280256,1,0,0,,0,210,210,138,1,
,,,,,,,,,,,,,,,,,,5ef34cc943115906d6aa397f,2020-11-26_15h59.50.472,lexical_decision_task_MP_exp2,2020.2.5,Linux armv8l,60,,0,-0.32046269,-0.31280256,1,0,0,0.7957,button_left,0.7957,1,,,,,,305,NW,UN,33,sounge,FORGLE,z,,,,,,-0.32046269,-0.31280256,1,0,0,,0,211,211,364,1,
,,,,,,,,,,,,,,,,,,5ef34cc943115906d6aa397f,2020-11-26_15h59.50.472,lexical_decision_task_MP_exp2,2020.2.5,Linux armv8l,60,,0,-0.312150776,-0.304490444,1,0,0,0.6191,button_left,0.6191,1,,,,,,363,NW,UN,16,impote,BREALI,z,,,,,,-0.312150776,-0.304490444,1,0,0,,0,212,212,422,1,
,,,,,,,,,,,,,,,,,,5ef34cc943115906d6aa397f,2020-11-26_15h59.50.472,lexical_decision_task_MP_exp2,2020.2.5,Linux armv8l,60,,0,-0.327112237,-0.309477639,1,0,0,0.5972,button_left,0.5972,1,,,,,,281,NW,"ID",16,melaty,MELATY,z,,,,,,-0.327112237,-0.309477639,1,0,0,,0,213,213,340,1,
,,,,,,,,,,,,,,,,,,5ef34cc943115906d6aa397f,2020-11-26_15h59.50.472,lexical_decision_task_MP_exp2,2020.2.5,Linux armv8l,60,,0,0.350308664,-0.309477639,1,0,0,0.6437,button_right,0.6437,1,,,,,,205,WORD,"ID",33,lounge,LOUNGE,m,,,,,,0.350308664,-0.309477639,1,0,0,,0,214,214,24,1,
,,,,,,,,,,,,,,,,,,5ef34cc943115906d6aa397f,2020-11-26_15h59.50.472,lexical_decision_task_MP_exp2,2020.2.5,Linux armv8l,60,,0,-0.317969139,-0.304490444,1,0,0,0.6842,button_left,0.6842,1,,,,,,267,NW,"ID",16,pasink,PASINK,z,,,,,,-0.317969139,-0.304490444,1,0,0,,0,215,215,326,1,
,,,,,,,,,,,,,,,,,,5ef34cc943115906d6aa397f,2020-11-26_15h59.50.472,lexical_decision_task_MP_exp2,2020.2.5,Linux armv8l,60,,0,0.350308664,-0.325270299,1,0,0,0.9508,button_right,0.9508,1,,,,,,184,WORD,"ID",33,sleazy,SLEAZY,m,,,,,,0.350308664,-0.325270299,1,0,0,,0,216,216,3,1,
,,,,,,,,,,,,,,,,,,5ef34cc943115906d6aa397f,2020-11-26_15h59.50.472,lexical_decision_task_MP_exp2,2020.2.5,Linux armv8l,60,,0,0.340334273,-0.321945377,1,0,0,1.3053,button_right,1.3053,1,,,,,,185,WORD,"ID",33,bother,BOTHER,m,,,,,,0.340334273,-0.321945377,1,0,0,,0,217,217,4,1,
,,,,,,,,,,,,,,,,,,5ef34cc943115906d6aa397f,2020-11-26_15h59.50.472,lexical_decision_task_MP_exp2,2020.2.5,Linux armv8l,60,,0,-0.343736049,-0.330257494,1,0,0,0.6847,button_left,0.6847,1,,,,,,280,NW,"ID",16,curbol,CURBOL,z,,,,,,-0.343736049,-0.330257494,1,0,0,,0,218,218,339,1,
,,,,,,,,,,,,,,,,,,5ef34cc943115906d6aa397f,2020-11-26_15h59.50.472,lexical_decision_task_MP_exp2,2020.2.5,Linux armv8l,60,,0,0.338671937,-0.330257494,1,0,0,0.5624,button_right,0.5624,1,,,,,,27,WORD,"ID",16,scream,SCREAM,m,,,,,,0.338671937,-0.330257494,1,0,0,,0,219,219,86,1,
,,,,,,,,,,,,,,,,,,5ef34cc943115906d6aa397f,2020-11-26_15h59.50.472,lexical_decision_task_MP_exp2,2020.2.5,Linux armv8l,60,,0,0.331191207,-0.321114178,1,0,0,0.6211,button_right,0.6211,1,,,,,,170,WORD,UN,16,dragon,POUNCE,m,,,,,,0.331191207,-0.321114178,1,0,0,,0,220,220,229,1,
,,,,,,,,,,,,,,,,,,5ef34cc943115906d6aa397f,2020-11-26_15h59.50.472,lexical_decision_task_MP_exp2,2020.2.5,Linux armv8l,60,,0,-0.327112237,-0.314464709,1,0,0,0.5852,button_left,0.5852,1,,,,,,459,NW,"ID",33,bafent,BAFENT,z,,,,,,-0.327112237,-0.314464709,1,0,0,,0,221,221,278,1,
,,,,,,,,,,,,,,,,,,5ef34cc943115906d6aa397f,2020-11-26_15h59.50.472,lexical_decision_task_MP_exp2,2020.2.5,Linux armv8l,60,,0,-0.325449823,-0.321945377,1,0,0,0.5883,button_left,0.5883,1,,,,,,254,NW,"ID",16,varosh,VAROSH,z,,,,,,-0.325449823,-0.321945377,1,0,0,,0,222,222,313,1,
,,,,,,,,,,,,,,,,,,5ef34cc943115906d6aa397f,2020-11-26_15h59.50.472,lexical_decision_task_MP_exp2,2020.2.5,Linux armv8l,60,,0,0.341996734,-0.31363351,1,0,0,0.5628,button_right,0.5628,1,,,,,,37,WORD,"ID",16,insult,INSULT,m,,,,,,0.341996734,-0.31363351,1,0,0,,0,223,223,96,1,
,,,,,,,,,,,,,,,,,,5ef34cc943115906d6aa397f,2020-11-26_15h59.50.472,lexical_decision_task_MP_exp2,2020.2.5,Linux armv8l,60,,0,0.340334273,-0.320283228,1,0,0,0.7958,button_right,0.7958,1,,,,,,49,WORD,"ID",16,survey,SURVEY,m,,,,,,0.340334273,-0.320283228,1,0,0,,0,224,224,108,1,
,,,,,,,,,,,,,,,,,,5ef34cc943115906d6aa397f,2020-11-26_15h59.50.472,lexical_decision_task_MP_exp2,2020.2.5,Linux armv8l,60,,0,0.317061008,-0.342725232,1,0,0,0.4742,button_right,0.4742,1,,,,,,109,WORD,UN,33,polite,WONDER,m,,,,,,0.317061008,-0.342725232,1,0,0,,0,225,225,168,1,
,,,,,,,,,,,,,,,,,,5ef34cc943115906d6aa397f,2020-11-26_15h59.50.472,lexical_decision_task_MP_exp2,2020.2.5,Linux armv8l,60,,0,-0.337917717,-0.310308838,1,0,0,0.5771,button_left,0.5771,1,,,,,,423,NW,"ID",33,streld,STRELD,z,,,,,,-0.337917717,-0.310308838,1,0,0,,0,226,226,242,1,
,,,,,,,,,,,,,,,,,,5ef34cc943115906d6aa397f,2020-11-26_15h59.50.472,lexical_decision_task_MP_exp2,2020.2.5,Linux armv8l,60,,0,0.346152668,-0.320283228,1,0,0,0.5986,button_right,0.5986,0,,,,,,252,NW,"ID",16,stapod,STAPOD,z,,,,,,0.346152668,-0.320283228,1,0,0,,0,227,227,311,1,
,,,,,,,,,,,,,,,,,,5ef34cc943115906d6aa397f,2020-11-26_15h59.50.472,lexical_decision_task_MP_exp2,2020.2.5,Linux armv8l,60,,0,0.339503136,-0.321945377,1,0,0,0.6214,button_right,0.6214,1,,,,,,55,WORD,"ID",16,stroke,STROKE,m,,,,,,0.339503136,-0.321945377,1,0,0,,0,228,228,114,1,
,,,,,,,,,,,,,,,,,,5ef34cc943115906d6aa397f,2020-11-26_15h59.50.472,lexical_decision_task_MP_exp2,2020.2.5,Linux armv8l,60,,0,0.33617834,-0.3236079,1,0,0,0.5089,button_right,0.5089,1,,,,,,223,WORD,"ID",33,kidney,KIDNEY,m,,,,,,0.33617834,-0.3236079,1,0,0,,0,229,229,42,1,
,,,,,,,,,,,,,,,,,,5ef34cc943115906d6aa397f,2020-11-26_15h59.50.472,lexical_decision_task_MP_exp2,2020.2.5,Linux armv8l,60,,0,0.347815004,-0.31363351,1,0,0,0.53,button_right,0.53,1,,,,,,136,WORD,UN,16,finger,BLEACH,m,,,,,,0.347815004,-0.31363351,1,0,0,,0,230,230,195,1,
,,,,,,,,,,,,,,,,,,5ef34cc943115906d6aa397f,2020-11-26_15h59.50.472,lexical_decision_task_MP_exp2,2020.2.5,Linux armv8l,60,,0,0.348646203,-0.329426294,1,0,0,0.4908,button_right,0.4908,1,,,,,,192,WORD,"ID",33,plague,PLAGUE,m,,,,,,0.348646203,-0.329426294,1,0,0,,0,231,231,11,1,
,,,,,,,,,,,,,,,,,,5ef34cc943115906d6aa397f,2020-11-26_15h59.50.472,lexical_decision_task_MP_exp2,2020.2.5,Linux armv8l,60,,0,0.342827871,-0.328595095,1,0,0,0.5186,button_right,0.5186,1,,,,,,220,WORD,"ID",33,voyage,VOYAGE,m,,,,,,0.342827871,-0.328595095,1,0,0,,0,232,232,39,1,
,,,,,,,,,,,,,,,,,,5ef34cc943115906d6aa397f,2020-11-26_15h59.50.472,lexical_decision_task_MP_exp2,2020.2.5,Linux armv8l,60,,0,-0.335424151,-0.300334572,1,0,0,0.631,button_left,0.631,1,,,,,,421,NW,"ID",33,knisma,KNISMA,z,,,,,,-0.335424151,-0.300334572,1,0,0,,0,233,233,240,1,
,,,,,,,,,,,,,,,,,,5ef34cc943115906d6aa397f,2020-11-26_15h59.50.472,lexical_decision_task_MP_exp2,2020.2.5,Linux armv8l,60,,0,-0.339580115,-0.30781524,1,0,0,0.6078,button_left,0.6078,1,,,,,,333,NW,UN,33,watmeg,CATRIE,z,,,,,,-0.339580115,-0.30781524,1,0,0,,0,234,234,392,1,
,,,,,,,,,,,,,,,,,,5ef34cc943115906d6aa397f,2020-11-26_15h59.50.472,lexical_decision_task_MP_exp2,2020.2.5,Linux armv8l,60,,0,-0.342073666,-0.322776576,1,0,0,0.5405,button_left,0.5405,0,,,,,,176,WORD,UN,16,advent,STRIFE,m,,,,,,-0.342073666,-0.322776576,1,0,0,,0,235,235,235,1,
,,,,,,,,,,,,,,,,,,5ef34cc943115906d6aa397f,2020-11-26_15h59.50.472,lexical_decision_task_MP_exp2,2020.2.5,Linux armv8l,60,,0,-0.329605788,-0.329426294,1,0,0,0.5753,button_left,0.5753,1,,,,,,292,NW,"ID",16,ablint,ABLINT,z,,,,,,-0.329605788,-0.329426294,1,0,0,,0,236,236,351,1,
,,,,,,,,,,,,,,,,,,5ef34cc943115906d6aa397f,2020-11-26_15h59.50.472,lexical_decision_task_MP_exp2,2020.2.5,Linux armv8l,60,,0,0.335347203,-0.333582166,1,0,0,0.5105,button_right,0.5105,1,,,,,,157,WORD,UN,16,island,DRAGON,m,,,,,,0.335347203,-0.333582166,1,0,0,,0,237,237,216,1,
,,,,,,,,,,,,,,,,,,5ef34cc943115906d6aa397f,2020-11-26_15h59.50.472,lexical_decision_task_MP_exp2,2020.2.5,Linux armv8l,60,,0,-0.335424151,-0.321114178,1,0,0,0.6875,button_left,0.6875,1,,,,,,455,NW,"ID",33,tondle,TONDLE,z,,,,,,-0.335424151,-0.321114178,1,0,0,,0,238,238,274,1,
,,,,,,,,,,,,,,,,,,5ef34cc943115906d6aa397f,2020-11-26_15h59.50.472,lexical_decision_task_MP_exp2,2020.2.5,Linux armv8l,60,,0,-0.32877462,-0.329426294,1,0,0,0.5744,button_left,0.5744,1,,,,,,472,NW,"ID",33,cigney,CIGNEY,z,,,,,,-0.32877462,-0.329426294,1,0,0,,0,239,239,291,1,
,,,,,,,,,,,,,,,,,,5ef34cc943115906d6aa397f,2020-11-26_15h59.50.472,lexical_decision_task_MP_exp2,2020.2.5,Linux armv8l,60,,0,-0.311319593,-0.336906962,1,0,0,0.6092,button_left,0.6092,1,,,,,,274,NW,"ID",16,fumblo,FUMBLO,z,,,,,,-0.311319593,-0.336906962,1,0,0,,0,240,240,333,1,
,,,,,,,,,,,,,,,,,,5ef34cc943115906d6aa397f,2020-11-26_15h59.50.472,lexical_decision_task_MP_exp2,2020.2.5,Linux armv8l,60,,0,-0.312981975,-0.336906962,1,0,0,0.5911,button_left,0.5911,1,,,,,,332,NW,UN,33,catrie,VANGUE,z,,,,,,-0.056143905,-0.378466423,1,0,0,,0,241,241,391,1,break_done_button
,,,,,,,,,,,,,,,,,,5ef34cc943115906d6aa397f,2020-11-26_15h59.50.472,lexical_decision_task_MP_exp2,2020.2.5,Linux armv8l,60,,0,-0.313813175,-0.290360182,1,0,0,0.5738,button_left,0.5738,1,,,,,,355,NW,UN,33,othnis,ZINGLY,z,,,,,,-0.313813175,-0.290360182,1,0,0,,0,242,242,414,1,
,,,,,,,,,,,,,,,,,,5ef34cc943115906d6aa397f,2020-11-26_15h59.50.472,lexical_decision_task_MP_exp2,2020.2.5,Linux armv8l,60,,0,-0.286383866,-0.286204311,1,0,0,0.5411,button_left,0.5411,1,,,,,,418,NW,UN,16,slount,SUIDLE,z,,,,,,-0.286383866,-0.286204311,1,0,0,,0,243,243,477,1,
,,,,,,,,,,,,,,,,,,5ef34cc943115906d6aa397f,2020-11-26_15h59.50.472,lexical_decision_task_MP_exp2,2020.2.5,Linux armv8l,60,,0,0.330360008,-0.279554717,1,0,0,0.6763,button_right,0.6763,1,,,,,,96,WORD,UN,33,client,IGNORE,m,,,,,,0.330360008,-0.279554717,1,0,0,,0,244,244,155,1,
,,,,,,,,,,,,,,,,,,5ef34cc943115906d6aa397f,2020-11-26_15h59.50.472,lexical_decision_task_MP_exp2,2020.2.5,Linux armv8l,60,,0,0.332022468,-0.294516303,1,0,0,0.6747,button_right,0.6747,1,,,,,,4,WORD,"ID",16,trench,TRENCH,m,,,,,,0.332022468,-0.294516303,1,0,0,,0,245,245,63,1,
,,,,,,,,,,,,,,,,,,5ef34cc943115906d6aa397f,2020-11-26_15h59.50.472,lexical_decision_task_MP_exp2,2020.2.5,Linux armv8l,60,,0,0.345321468,-0.281217116,1,0,0,0.6746,button_right,0.6746,1,,,,,,145,WORD,UN,16,couple,PARISH,m,,,,,,0.345321468,-0.281217116,1,0,0,,0,246,246,204,1,
,,,,,,,,,,,,,,,,,,5ef34cc943115906d6aa397f,2020-11-26_15h59.50.472,lexical_decision_task_MP_exp2,2020.2.5,Linux armv8l,60,,0,-0.299682929,-0.269580452,1,0,0,0.6857,button_left,0.6857,1,,,,,,358,NW,UN,33,fonver,FLEACK,z,,,,,,-0.299682929,-0.269580452,1,0,0,,0,247,247,417,1,
,,,,,,,,,,,,,,,,,,5ef34cc943115906d6aa397f,2020-11-26_15h59.50.472,lexical_decision_task_MP_exp2,2020.2.5,Linux armv8l,60,,0,0.34365907,-0.287866709,1,0,0,0.574,button_right,0.574,1,,,,,,53,WORD,"ID",16,police,POLICE,m,,,,,,0.34365907,-0.287866709,1,0,0,,0,248,248,112,1,
,,,,,,,,,,,,,,,,,,5ef34cc943115906d6aa397f,2020-11-26_15h59.50.472,lexical_decision_task_MP_exp2,2020.2.5,Linux armv8l,60,,0,-0.323787471,-0.282879514,1,0,0,0.598,button_left,0.598,1,,,,,,398,NW,UN,16,fouret,BLUNDE,z,,,,,,-0.323787471,-0.282879514,1,0,0,,0,249,249,457,1,
,,,,,,,,,,,,,,,,,,5ef34cc943115906d6aa397f,2020-11-26_15h59.50.472,lexical_decision_task_MP_exp2,2020.2.5,Linux armv8l,60,,0,0.332853605,-0.302828045,1,0,0,0.6539,button_right,0.6539,1,,,,,,118,WORD,UN,33,spider,FLIGHT,m,,,,,,0.332853605,-0.302828045,1,0,0,,0,250,250,177,1,
,,,,,,,,,,,,,,,,,,5ef34cc943115906d6aa397f,2020-11-26_15h59.50.472,lexical_decision_task_MP_exp2,2020.2.5,Linux armv8l,60,,0,0.33617834,-0.31280256,1,0,0,0.531,button_right,0.531,1,,,,,,88,WORD,UN,33,permit,HUNGER,m,,,,,,0.33617834,-0.31280256,1,0,0,,0,251,251,147,1,
,,,,,,,,,,,,,,,,,,5ef34cc943115906d6aa397f,2020-11-26_15h59.50.472,lexical_decision_task_MP_exp2,2020.2.5,Linux armv8l,60,,0,0.33617834,-0.302828045,1,0,0,0.6761,button_right,0.6761,1,,,,,,116,WORD,UN,33,branch,TUMBLE,m,,,,,,0.33617834,-0.302828045,1,0,0,,0,252,252,175,1,
,,,,,,,,,,,,,,,,,,5ef34cc943115906d6aa397f,2020-11-26_15h59.50.472,lexical_decision_task_MP_exp2,2020.2.5,Linux armv8l,60,,0,-0.307994843,-0.273736448,1,0,0,0.6772,button_left,0.6772,1,,,,,,265,NW,"ID",16,distar,DISTAR,z,,,,,,-0.307994843,-0.273736448,1,0,0,,0,253,253,324,1,
,,,,,,,,,,,,,,,,,,5ef34cc943115906d6aa397f,2020-11-26_15h59.50.472,lexical_decision_task_MP_exp2,2020.2.5,Linux armv8l,60,,0,-0.308826026,-0.267086854,1,0,0,0.5522,button_left,0.5522,0,,,,,,29,WORD,"ID",16,sketch,SKETCH,m,,,,,,-0.308826026,-0.267086854,1,0,0,,0,254,254,88,1,
,,,,,,,,,,,,,,,,,,5ef34cc943115906d6aa397f,2020-11-26_15h59.50.472,lexical_decision_task_MP_exp2,2020.2.5,Linux armv8l,60,,0,0.337840676,-0.311140037,1,0,0,0.6303,button_right,0.6303,1,,,,,,32,WORD,"ID",16,buckle,BUCKLE,m,,,,,,0.337840676,-0.311140037,1,0,0,,0,255,255,91,1,
,,,,,,,,,,,,,,,,,,5ef34cc943115906d6aa397f,2020-11-26_15h59.50.472,lexical_decision_task_MP_exp2,2020.2.5,Linux armv8l,60,,0,0.320385742,-0.290360182,1,0,0,0.5111,button_right,0.5111,1,,,,,,138,WORD,UN,16,debris,MELODY,m,,,,,,0.320385742,-0.290360182,1,0,0,,0,256,256,197,1,
,,,,,,,,,,,,,,,,,,5ef34cc943115906d6aa397f,2020-11-26_15h59.50.472,lexical_decision_task_MP_exp2,2020.2.5,Linux armv8l,60,,0,0.309580277,-0.330257494,1,0,0,0.4677,button_right,0.4677,1,,,,,,230,WORD,"ID",33,fringe,FRINGE,m,,,,,,0.309580277,-0.330257494,1,0,0,,0,257,257,49,1,
,,,,,,,,,,,,,,,,,,5ef34cc943115906d6aa397f,2020-11-26_15h59.50.472,lexical_decision_task_MP_exp2,2020.2.5,Linux armv8l,60,,0,-0.332099385,-0.241319929,1,0,0,0.8196,button_left,0.8196,1,,,,,,295,NW,"ID",16,gleath,GLEATH,z,,,,,,-0.332099385,-0.241319929,1,0,0,,0,258,258,354,1,
,,,,,,,,,,,,,,,,,,5ef34cc943115906d6aa397f,2020-11-26_15h59.50.472,lexical_decision_task_MP_exp2,2020.2.5,Linux armv8l,60,,0,-0.323787471,-0.249631921,1,0,0,0.7884,button_left,0.7884,1,,,,,,348,NW,UN,33,asylen,DUMPLE,z,,,,,,-0.323787471,-0.249631921,1,0,0,,0,259,259,407,1,
,,,,,,,,,,,,,,,,,,5ef34cc943115906d6aa397f,2020-11-26_15h59.50.472,lexical_decision_task_MP_exp2,2020.2.5,Linux armv8l,60,,0,-0.308826026,-0.282048315,1,0,0,0.6754,button_left,0.6754,1,,,,,,312,NW,UN,33,paurse,NERAWL,z,,,,,,-0.308826026,-0.282048315,1,0,0,,0,260,260,371,1,
,,,,,,,,,,,,,,,,,,5ef34cc943115906d6aa397f,2020-11-26_15h59.50.472,lexical_decision_task_MP_exp2,2020.2.5,Linux armv8l,60,,0,0.309580277,-0.298672174,1,0,0,0.544,button_right,0.544,1,,,,,,206,WORD,"ID",33,tailor,TAILOR,m,,,,,,0.309580277,-0.298672174,1,0,0,,0,261,261,25,1,
,,,,,,,,,,,,,,,,,,5ef34cc943115906d6aa397f,2020-11-26_15h59.50.472,lexical_decision_task_MP_exp2,2020.2.5,Linux armv8l,60,,0,-0.322956288,-0.282048315,1,0,0,0.5979,button_left,0.5979,1,,,,,,262,NW,"ID",16,quilew,QUILEW,z,,,,,,-0.322956288,-0.282048315,1,0,0,,0,262,262,321,1,
,,,,,,,,,,,,,,,,,,5ef34cc943115906d6aa397f,2020-11-26_15h59.50.472,lexical_decision_task_MP_exp2,2020.2.5,Linux armv8l,60,,0,-0.310488393,-0.282048315,1,0,0,0.4991,button_left,0.4991,1,,,,,,245,NW,"ID",16,anougs,ANOUGS,z,,,,,,-0.310488393,-0.282048315,1,0,0,,0,263,263,304,1,
,,,,,,,,,,,,,,,,,,5ef34cc943115906d6aa397f,2020-11-26_15h59.50.472,lexical_decision_task_MP_exp2,2020.2.5,Linux armv8l,60,,0,-0.316306741,-0.292022581,1,0,0,0.5747,button_left,0.5747,1,,,,,,401,NW,UN,16,syntic,MUSTIL,z,,,,,,-0.316306741,-0.292022581,1,0,0,,0,264,264,460,1,
,,,,,,,,,,,,,,,,,,5ef34cc943115906d6aa397f,2020-11-26_15h59.50.472,lexical_decision_task_MP_exp2,2020.2.5,Linux armv8l,60,,0,0.317892145,-0.316958307,1,0,0,0.4641,button_right,0.4641,1,,,,,,130,WORD,UN,16,quench,STUPID,m,,,,,,0.317892145,-0.316958307,1,0,0,,0,265,265,189,1,
,,,,,,,,,,,,,,,,,,5ef34cc943115906d6aa397f,2020-11-26_15h59.50.472,lexical_decision_task_MP_exp2,2020.2.5,Linux armv8l,60,,0,-0.303007679,-0.228020867,1,0,0,0.7974,button_left,0.7974,1,,,,,,250,NW,"ID",16,milted,MILTED,z,,,,,,-0.303007679,-0.228020867,1,0,0,,0,266,266,309,1,
,,,,,,,,,,,,,,,,,,5ef34cc943115906d6aa397f,2020-11-26_15h59.50.472,lexical_decision_task_MP_exp2,2020.2.5,Linux armv8l,60,,0,-0.316306741,-0.275398722,1,0,0,0.598,button_left,0.598,1,,,,,,306,NW,UN,33,kirafe,SOUNGE,z,,,,,,-0.316306741,-0.275398722,1,0,0,,0,267,267,365,1,
,,,,,,,,,,,,,,,,,,5ef34cc943115906d6aa397f,2020-11-26_15h59.50.472,lexical_decision_task_MP_exp2,2020.2.5,Linux armv8l,60,,0,-0.30633246,-0.251294194,1,0,0,0.5203,button_left,0.5203,0,,,,,,8,WORD,"ID",16,abrupt,ABRUPT,m,,,,,,-0.30633246,-0.251294194,1,0,0,,0,268,268,67,1,
,,,,,,,,,,,,,,,,,,5ef34cc943115906d6aa397f,2020-11-26_15h59.50.472,lexical_decision_task_MP_exp2,2020.2.5,Linux armv8l,60,,0,0.312073813,-0.30864644,1,0,0,1.0742,button_right,1.0742,1,,,,,,120,WORD,UN,33,ponder,STRAIN,m,,,,,,0.312073813,-0.30864644,1,0,0,,0,269,269,179,1,
,,,,,,,,,,,,,,,,,,5ef34cc943115906d6aa397f,2020-11-26_15h59.50.472,lexical_decision_task_MP_exp2,2020.2.5,Linux armv8l,60,,0,0.319554481,-0.317789506,1,0,0,0.4856,button_right,0.4856,1,,,,,,135,WORD,UN,16,bleach,IMPORT,m,,,,,,0.319554481,-0.317789506,1,0,0,,0,270,270,194,1,
,,,,,,,,,,,,,,,,,,5ef34cc943115906d6aa397f,2020-11-26_15h59.50.472,lexical_decision_task_MP_exp2,2020.2.5,Linux armv8l,60,,0,-0.319631491,-0.273736448,1,0,0,0.5755,button_left,0.5755,1,,,,,,341,NW,UN,33,randow,MYRTIE,z,,,,,,-0.319631491,-0.273736448,1,0,0,,0,271,271,400,1,
,,,,,,,,,,,,,,,,,,5ef34cc943115906d6aa397f,2020-11-26_15h59.50.472,lexical_decision_task_MP_exp2,2020.2.5,Linux armv8l,60,,0,0.313736211,-0.318620705,1,0,0,0.7295,button_right,0.7295,1,,,,,,42,WORD,"ID",16,chapel,CHAPEL,m,,,,,,0.313736211,-0.318620705,1,0,0,,0,272,272,101,1,
,,,,,,,,,,,,,,,,,,5ef34cc943115906d6aa397f,2020-11-26_15h59.50.472,lexical_decision_task_MP_exp2,2020.2.5,Linux armv8l,60,,0,0.313736211,-0.321945377,1,0,0,0.5303,button_right,0.5303,1,,,,,,100,WORD,UN,33,wrench,CARBON,m,,,,,,0.313736211,-0.321945377,1,0,0,,0,273,273,159,1,
,,,,,,,,,,,,,,,,,,5ef34cc943115906d6aa397f,2020-11-26_15h59.50.472,lexical_decision_task_MP_exp2,2020.2.5,Linux armv8l,60,,0,-0.319631491,-0.286204311,1,0,0,0.7186,button_left,0.7186,1,,,,,,360,NW,UN,33,fainch,DESORY,z,,,,,,-0.319631491,-0.286204311,1,0,0,,0,274,274,419,1,
,,,,,,,,,,,,,,,,,,5ef34cc943115906d6aa397f,2020-11-26_15h59.50.472,lexical_decision_task_MP_exp2,2020.2.5,Linux armv8l,60,,0,-0.300514112,-0.281217116,1,0,0,0.6074,button_left,0.6074,1,,,,,,450,NW,"ID",33,phrect,PHRECT,z,,,,,,-0.300514112,-0.281217116,1,0,0,,0,275,275,269,1,
,,,,,,,,,,,,,,,,,,5ef34cc943115906d6aa397f,2020-11-26_15h59.50.472,lexical_decision_task_MP_exp2,2020.2.5,Linux armv8l,60,,0,-0.298851729,-0.295347377,1,0,0,0.5521,button_left,0.5521,1,,,,,,266,NW,"ID",16,varmit,VARMIT,z,,,,,,-0.298851729,-0.295347377,1,0,0,,0,276,276,325,1,
,,,,,,,,,,,,,,,,,,5ef34cc943115906d6aa397f,2020-11-26_15h59.50.472,lexical_decision_task_MP_exp2,2020.2.5,Linux armv8l,60,,0,0.312073813,-0.311140037,1,0,0,0.8325,button_right,0.8325,1,,,,,,194,WORD,"ID",33,absent,ABSENT,m,,,,,,0.312073813,-0.311140037,1,0,0,,0,277,277,13,1,
,,,,,,,,,,,,,,,,,,5ef34cc943115906d6aa397f,2020-11-26_15h59.50.472,lexical_decision_task_MP_exp2,2020.2.5,Linux armv8l,60,,0,-0.30633246,-0.266255655,1,0,0,1.3643,button_left,1.3643,1,,,,,,397,NW,UN,16,blunde,CAMBLE,z,,,,,,-0.30633246,-0.266255655,1,0,0,,0,278,278,456,1,
,,,,,,,,,,,,,,,,,,5ef34cc943115906d6aa397f,2020-11-26_15h59.50.472,lexical_decision_task_MP_exp2,2020.2.5,Linux armv8l,60,,0,-0.299682929,-0.283710713,1,0,0,0.5749,button_left,0.5749,1,,,,,,379,NW,UN,16,cavory,AUTING,z,,,,,,-0.299682929,-0.283710713,1,0,0,,0,279,279,438,1,
,,,,,,,,,,,,,,,,,,5ef34cc943115906d6aa397f,2020-11-26_15h59.50.472,lexical_decision_task_MP_exp2,2020.2.5,Linux armv8l,60,,0,-0.266435273,-0.25628139,1,0,0,0.4626,button_left,0.4626,1,,,,,,443,NW,"ID",33,dorsex,DORSEX,z,,,,,,-0.266435273,-0.25628139,1,0,0,,0,280,280,262,1,
,,,,,,,,,,,,,,,,,,5ef34cc943115906d6aa397f,2020-11-26_15h59.50.472,lexical_decision_task_MP_exp2,2020.2.5,Linux armv8l,60,,0,-0.283890284,-0.262930858,1,0,0,0.6639,button_left,0.6639,1,,,,,,425,NW,"ID",33,frudge,FRUDGE,z,,,,,,-0.283890284,-0.262930858,1,0,0,,0,281,281,244,1,
,,,,,,,,,,,,,,,,,,5ef34cc943115906d6aa397f,2020-11-26_15h59.50.472,lexical_decision_task_MP_exp2,2020.2.5,Linux armv8l,60,,0,-0.301345296,-0.268749377,1,0,0,0.4303,button_left,0.4303,1,,,,,,334,NW,UN,33,desion,WATMEG,z,,,,,,-0.301345296,-0.268749377,1,0,0,,0,282,282,393,1,
,,,,,,,,,,,,,,,,,,5ef34cc943115906d6aa397f,2020-11-26_15h59.50.472,lexical_decision_task_MP_exp2,2020.2.5,Linux armv8l,60,,0,-0.304670061,-0.321114178,1,0,0,0.4228,button_left,0.4228,0,,,,,,221,WORD,"ID",33,mascot,MASCOT,m,,,,,,-0.304670061,-0.321114178,1,0,0,,0,283,283,40,1,
,,,,,,,,,,,,,,,,,,5ef34cc943115906d6aa397f,2020-11-26_15h59.50.472,lexical_decision_task_MP_exp2,2020.2.5,Linux armv8l,60,,0,-0.317969139,-0.299503373,1,0,0,0.5763,button_left,0.5763,1,,,,,,442,NW,"ID",33,aboune,ABOUNE,z,,,,,,-0.317969139,-0.299503373,1,0,0,,0,284,284,261,1,
,,,,,,,,,,,,,,,,,,5ef34cc943115906d6aa397f,2020-11-26_15h59.50.472,lexical_decision_task_MP_exp2,2020.2.5,Linux armv8l,60,,0,-0.318800307,-0.281217116,1,0,0,0.9404,button_left,0.9404,1,,,,,,392,NW,UN,16,ganous,ROUNCY,z,,,,,,-0.318800307,-0.281217116,1,0,0,,0,285,285,451,1,
,,,,,,,,,,,,,,,,,,5ef34cc943115906d6aa397f,2020-11-26_15h59.50.472,lexical_decision_task_MP_exp2,2020.2.5,Linux armv8l,60,,0,-0.293864581,-0.31280256,1,0,0,0.5659,button_left,0.5659,1,,,,,,395,NW,UN,16,flengy,COLURY,z,,,,,,-0.293864581,-0.31280256,1,0,0,,0,286,286,454,1,
,,,,,,,,,,,,,,,,,,5ef34cc943115906d6aa397f,2020-11-26_15h59.50.472,lexical_decision_task_MP_exp2,2020.2.5,Linux armv8l,60,,0,-0.280565519,-0.296178576,1,0,0,0.6866,button_left,0.6866,1,,,,,,293,NW,"ID",16,swance,SWANCE,z,,,,,,-0.280565519,-0.296178576,1,0,0,,0,287,287,352,1,
,,,,,,,,,,,,,,,,,,5ef34cc943115906d6aa397f,2020-11-26_15h59.50.472,lexical_decision_task_MP_exp2,2020.2.5,Linux armv8l,60,,0,0.303761883,-0.290360182,1,0,0,0.4983,button_right,0.4983,1,,,,,,146,WORD,UN,16,garlic,COUPLE,m,,,,,,0.303761883,-0.290360182,1,0,0,,0,288,288,205,1,
,,,,,,,,,,,,,,,,,,5ef34cc943115906d6aa397f,2020-11-26_15h59.50.472,lexical_decision_task_MP_exp2,2020.2.5,Linux armv8l,60,,0,0.309580277,-0.297009776,1,0,0,0.4759,button_right,0.4759,1,,,,,,80,WORD,UN,33,friend,FAMILY,m,,,,,,0.309580277,-0.297009776,1,0,0,,0,289,289,139,1,
,,,,,,,,,,,,,,,,,,5ef34cc943115906d6aa397f,2020-11-26_15h59.50.472,lexical_decision_task_MP_exp2,2020.2.5,Linux armv8l,60,,0,-0.40856897,0.077026305,1,0,0,0.0213,button_right,0.0213,1,,,,,,190,WORD,"ID",33,backup,BACKUP,m,,,,,,0.307917817,-0.29285378,1,0,0,,0,290,290,9,1,
,,,,,,,,,,,,,,,,,,5ef34cc943115906d6aa397f,2020-11-26_15h59.50.472,lexical_decision_task_MP_exp2,2020.2.5,Linux armv8l,60,,0,0.316229684,-0.294516303,1,0,0,0.498,button_right,0.498,1,,,,,,229,WORD,"ID",33,mother,MOTHER,m,,,,,,0.316229684,-0.294516303,1,0,0,,0,291,291,48,1,
,,,,,,,,,,,,,,,,,,5ef34cc943115906d6aa397f,2020-11-26_15h59.50.472,lexical_decision_task_MP_exp2,2020.2.5,Linux armv8l,60,,0,0.301268286,-0.299503373,1,0,0,0.5653,button_right,0.5653,1,,,,,,228,WORD,"ID",33,master,MASTER,m,,,,,,0.301268286,-0.299503373,1,0,0,,0,292,292,47,1,
,,,,,,,,,,,,,,,,,,5ef34cc943115906d6aa397f,2020-11-26_15h59.50.472,lexical_decision_task_MP_exp2,2020.2.5,Linux armv8l,60,,0,0.317061008,-0.297840975,1,0,0,0.5654,button_right,0.5654,1,,,,,,150,WORD,UN,16,mystic,RANDOM,m,,,,,,0.317061008,-0.297840975,1,0,0,,0,293,293,209,1,
,,,,,,,,,,,,,,,,,,5ef34cc943115906d6aa397f,2020-11-26_15h59.50.472,lexical_decision_task_MP_exp2,2020.2.5,Linux armv8l,60,,0,0.305424344,-0.306984041,1,0,0,0.6218,button_right,0.6218,1,,,,,,13,WORD,"ID",16,strive,STRIVE,m,,,,,,0.305424344,-0.306984041,1,0,0,,0,294,294,72,1,
,,,,,,,,,,,,,,,,,,5ef34cc943115906d6aa397f,2020-11-26_15h59.50.472,lexical_decision_task_MP_exp2,2020.2.5,Linux armv8l,60,,0,0.317892145,-0.302828045,1,0,0,0.5209,button_right,0.5209,1,,,,,,41,WORD,"ID",16,spring,SPRING,m,,,,,,0.317892145,-0.302828045,1,0,0,,0,295,295,100,1,
,,,,,,,,,,,,,,,,,,5ef34cc943115906d6aa397f,2020-11-26_15h59.50.472,lexical_decision_task_MP_exp2,2020.2.5,Linux armv8l,60,,0,-0.29137103,-0.330257494,1,0,0,0.6768,button_left,0.6768,1,,,,,,477,NW,"ID",33,photie,PHOTIE,z,,,,,,-0.29137103,-0.330257494,1,0,0,,0,296,296,296,1,
,,,,,,,,,,,,,,,,,,5ef34cc943115906d6aa397f,2020-11-26_15h59.50.472,lexical_decision_task_MP_exp2,2020.2.5,Linux armv8l,60,,0,-0.279734335,-0.266255655,1,0,0,0.6186,button_left,0.6186,1,,,,,,366,NW,UN,16,slique,TOSHEL,z,,,,,,-0.279734335,-0.266255655,1,0,0,,0,297,297,425,1,
,,,,,,,,,,,,,,,,,,5ef34cc943115906d6aa397f,2020-11-26_15h59.50.472,lexical_decision_task_MP_exp2,2020.2.5,Linux armv8l,60,,0,-0.29469578,-0.272074049,1,0,0,0.5868,button_left,0.5868,1,,,,,,389,NW,UN,16,hatrus,WITMER,z,,,,,,-0.29469578,-0.272074049,1,0,0,,0,298,298,448,1,
,,,,,,,,,,,,,,,,,,5ef34cc943115906d6aa397f,2020-11-26_15h59.50.472,lexical_decision_task_MP_exp2,2020.2.5,Linux armv8l,60,,0,0.308749016,-0.301997095,1,0,0,0.586,button_right,0.586,1,,,,,,65,WORD,UN,33,gospel,SYMBOL,m,,,,,,0.308749016,-0.301997095,1,0,0,,0,299,299,124,1,
,,,,,,,,,,,,,,,,,,5ef34cc943115906d6aa397f,2020-11-26_15h59.50.472,lexical_decision_task_MP_exp2,2020.2.5,Linux armv8l,60,,0,0.307086618,-0.289528983,1,0,0,0.5183,button_right,0.5183,1,,,,,,213,WORD,"ID",33,squeal,SQUEAL,m,,,,,,0.307086618,-0.289528983,1,0,0,,0,300,300,32,1,
,,,,,,,,,,,,,,,,,,5ef34cc943115906d6aa397f,2020-11-26_15h59.50.472,lexical_decision_task_MP_exp2,2020.2.5,Linux armv8l,60,,0,-0.30965721,-0.276230045,1,0,0,0.574,button_left,0.574,1,,,,,,452,NW,"ID",33,surden,SURDEN,z,,,,,,-0.30965721,-0.276230045,1,0,0,,0,301,301,271,1,
,,,,,,,,,,,,,,,,,,5ef34cc943115906d6aa397f,2020-11-26_15h59.50.472,lexical_decision_task_MP_exp2,2020.2.5,Linux armv8l,60,,0,-0.318800307,-0.272905249,1,0,0,0.4406,button_left,0.4406,0,,,,,,183,WORD,"ID",33,mildew,MILDEW,m,,,,,,-0.318800307,-0.272905249,1,0,0,,0,302,302,2,1,
,,,,,,,,,,,,,,,,,,5ef34cc943115906d6aa397f,2020-11-26_15h59.50.472,lexical_decision_task_MP_exp2,2020.2.5,Linux armv8l,60,,0,-0.316306741,-0.281217116,1,0,0,0.8408,button_left,0.8408,1,,,,,,435,NW,"ID",33,impurb,IMPURB,z,,,,,,-0.316306741,-0.281217116,1,0,0,,0,303,303,254,1,
,,,,,,,,,,,,,,,,,,5ef34cc943115906d6aa397f,2020-11-26_15h59.50.472,lexical_decision_task_MP_exp2,2020.2.5,Linux armv8l,60,,0,-0.310488393,-0.326101498,1,0,0,0.5865,button_left,0.5865,1,,,,,,335,NW,UN,33,ghodus,DESION,z,,,,,,-0.310488393,-0.326101498,1,0,0,,0,304,304,394,1,
,,,,,,,,,,,,,,,,,,5ef34cc943115906d6aa397f,2020-11-26_15h59.50.472,lexical_decision_task_MP_exp2,2020.2.5,Linux armv8l,60,,0,0.313736211,-0.297009776,1,0,0,0.5302,button_right,0.5302,1,,,,,,172,WORD,UN,16,shower,PATROL,m,,,,,,0.313736211,-0.297009776,1,0,0,,0,305,305,231,1,
,,,,,,,,,,,,,,,,,,5ef34cc943115906d6aa397f,2020-11-26_15h59.50.472,lexical_decision_task_MP_exp2,2020.2.5,Linux armv8l,60,,0,-0.311319593,-0.296178576,1,0,0,0.521,button_left,0.521,1,,,,,,327,NW,UN,33,broake,PLENAC,z,,,,,,-0.311319593,-0.296178576,1,0,0,,0,306,306,386,1,
,,,,,,,,,,,,,,,,,,5ef34cc943115906d6aa397f,2020-11-26_15h59.50.472,lexical_decision_task_MP_exp2,2020.2.5,Linux armv8l,60,,0,-0.315475557,-0.294516303,1,0,0,0.5316,button_left,0.5316,1,,,,,,463,NW,"ID",33,kispel,KISPEL,z,,,,,,-0.315475557,-0.294516303,1,0,0,,0,307,307,282,1,
,,,,,,,,,,,,,,,,,,5ef34cc943115906d6aa397f,2020-11-26_15h59.50.472,lexical_decision_task_MP_exp2,2020.2.5,Linux armv8l,60,,0,-0.32046269,-0.302828045,1,0,0,0.7534,button_left,0.7534,1,,,,,,269,NW,"ID",16,orchet,ORCHET,z,,,,,,-0.32046269,-0.302828045,1,0,0,,0,308,308,328,1,
,,,,,,,,,,,,,,,,,,5ef34cc943115906d6aa397f,2020-11-26_15h59.50.472,lexical_decision_task_MP_exp2,2020.2.5,Linux armv8l,60,,0,-0.318800307,-0.299503373,1,0,0,0.5748,button_left,0.5748,1,,,,,,356,NW,UN,33,derain,OTHNIS,z,,,,,,-0.318800307,-0.299503373,1,0,0,,0,309,309,415,1,
,,,,,,,,,,,,,,,,,,5ef34cc943115906d6aa397f,2020-11-26_15h59.50.472,lexical_decision_task_MP_exp2,2020.2.5,Linux armv8l,60,,0,-0.332099385,-0.302828045,1,0,0,0.5483,button_left,0.5483,1,,,,,,424,NW,"ID",33,praile,PRAILE,z,,,,,,-0.332099385,-0.302828045,1,0,0,,0,310,310,243,1,
,,,,,,,,,,,,,,,,,,5ef34cc943115906d6aa397f,2020-11-26_15h59.50.472,lexical_decision_task_MP_exp2,2020.2.5,Linux armv8l,60,,0,-0.312981975,-0.306152842,1,0,0,0.9514,button_left,0.9514,1,,,,,,372,NW,UN,16,bigent,RAMILY,z,,,,,,-0.312981975,-0.306152842,1,0,0,,0,311,311,431,1,
,,,,,,,,,,,,,,,,,,5ef34cc943115906d6aa397f,2020-11-26_15h59.50.472,lexical_decision_task_MP_exp2,2020.2.5,Linux armv8l,60,,0,-0.34290485,-0.294516303,1,0,0,0.6063,button_left,0.6063,1,,,,,,318,NW,UN,33,zomber,REAGLY,z,,,,,,-0.34290485,-0.294516303,1,0,0,,0,312,312,377,1,
,,,,,,,,,,,,,,,,,,5ef34cc943115906d6aa397f,2020-11-26_15h59.50.472,lexical_decision_task_MP_exp2,2020.2.5,Linux armv8l,60,,0,0.304593082,-0.297009776,1,0,0,0.7855,button_right,0.7855,1,,,,,,89,WORD,UN,33,relish,PERMIT,m,,,,,,0.304593082,-0.297009776,1,0,0,,0,313,313,148,1,
,,,,,,,,,,,,,,,,,,5ef34cc943115906d6aa397f,2020-11-26_15h59.50.472,lexical_decision_task_MP_exp2,2020.2.5,Linux armv8l,60,,0,0.307917817,-0.297009776,1,0,0,0.619,button_right,0.619,1,,,,,,57,WORD,"ID",16,change,CHANGE,m,,,,,,0.307917817,-0.297009776,1,0,0,,0,314,314,116,1,
,,,,,,,,,,,,,,,,,,5ef34cc943115906d6aa397f,2020-11-26_15h59.50.472,lexical_decision_task_MP_exp2,2020.2.5,Linux armv8l,60,,0,0.302930684,-0.301997095,1,0,0,0.5081,button_right,0.5081,1,,,,,,112,WORD,UN,33,chorus,BREATH,m,,,,,,0.302930684,-0.301997095,1,0,0,,0,315,315,171,1,
,,,,,,,,,,,,,,,,,,5ef34cc943115906d6aa397f,2020-11-26_15h59.50.472,lexical_decision_task_MP_exp2,2020.2.5,Linux armv8l,60,,0,0.297112352,-0.306984041,1,0,0,0.6197,button_right,0.6197,1,,,,,,48,WORD,"ID",16,walnut,WALNUT,m,,,,,,0.297112352,-0.306984041,1,0,0,,0,316,316,107,1,
,,,,,,,,,,,,,,,,,,5ef34cc943115906d6aa397f,2020-11-26_15h59.50.472,lexical_decision_task_MP_exp2,2020.2.5,Linux armv8l,60,,0,-0.32877462,-0.301997095,1,0,0,0.5978,button_left,0.5978,1,,,,,,243,NW,"ID",16,musied,MUSIED,z,,,,,,-0.32877462,-0.301997095,1,0,0,,0,317,317,302,1,
,,,,,,,,,,,,,,,,,,5ef34cc943115906d6aa397f,2020-11-26_15h59.50.472,lexical_decision_task_MP_exp2,2020.2.5,Linux armv8l,60,,0,0.300437086,-0.305321767,1,0,0,0.5081,button_right,0.5081,1,,,,,,43,WORD,"ID",16,tongue,TONGUE,m,,,,,,0.300437086,-0.305321767,1,0,0,,0,318,318,102,1,
,,,,,,,,,,,,,,,,,,5ef34cc943115906d6aa397f,2020-11-26_15h59.50.472,lexical_decision_task_MP_exp2,2020.2.5,Linux armv8l,60,,0,0.297943551,-0.302828045,1,0,0,0.5427,button_right,0.5427,1,,,,,,240,WORD,"ID",33,forest,FOREST,m,,,,,,0.297943551,-0.302828045,1,0,0,,0,319,319,59,1,
,,,,,,,,,,,,,,,,,,5ef34cc943115906d6aa397f,2020-11-26_15h59.50.472,lexical_decision_task_MP_exp2,2020.2.5,Linux armv8l,60,,0,0.297943551,-0.309477639,1,0,0,0.4783,button_right,0.4783,1,,,,,,63,WORD,UN,33,throne,LAUNCH,m,,,,,,0.297943551,-0.309477639,1,0,0,,0,320,320,122,1,
,,,,,,,,,,,,,,,,,,5ef34cc943115906d6aa397f,2020-11-26_15h59.50.472,lexical_decision_task_MP_exp2,2020.2.5,Linux armv8l,60,,0,0.297112352,-0.306152842,1,0,0,0.5633,button_right,0.5633,1,,,,,,39,WORD,"ID",16,insect,INSECT,m,,,,,,0.297112352,-0.306152842,1,0,0,,0,321,321,98,1,
,,,,,,,,,,,,,,,,,,5ef34cc943115906d6aa397f,2020-11-26_15h59.50.472,lexical_decision_task_MP_exp2,2020.2.5,Linux armv8l,60,,0,-0.31713794,-0.306984041,1,0,0,0.5524,button_left,0.5524,1,,,,,,470,NW,"ID",33,crudio,CRUDIO,z,,,,,,-0.31713794,-0.306984041,1,0,0,,0,322,322,289,1,
,,,,,,,,,,,,,,,,,,5ef34cc943115906d6aa397f,2020-11-26_15h59.50.472,lexical_decision_task_MP_exp2,2020.2.5,Linux armv8l,60,,0,0.292956418,-0.311140037,1,0,0,0.5238,button_right,0.5238,1,,,,,,17,WORD,"ID",16,charge,CHARGE,m,,,,,,0.292956418,-0.311140037,1,0,0,,0,323,323,76,1,
,,,,,,,,,,,,,,,,,,5ef34cc943115906d6aa397f,2020-11-26_15h59.50.472,lexical_decision_task_MP_exp2,2020.2.5,Linux armv8l,60,,0,-0.322956288,-0.303659244,1,0,0,0.5977,button_left,0.5977,1,,,,,,456,NW,"ID",33,broget,BROGET,z,,,,,,-0.322956288,-0.303659244,1,0,0,,0,324,324,275,1,
,,,,,,,,,,,,,,,,,,5ef34cc943115906d6aa397f,2020-11-26_15h59.50.472,lexical_decision_task_MP_exp2,2020.2.5,Linux armv8l,60,,0,0.292956418,-0.311971112,1,0,0,0.5403,button_right,0.5403,1,,,,,,149,WORD,UN,16,random,INVADE,m,,,,,,0.292956418,-0.311971112,1,0,0,,0,325,325,208,1,
,,,,,,,,,,,,,,,,,,5ef34cc943115906d6aa397f,2020-11-26_15h59.50.472,lexical_decision_task_MP_exp2,2020.2.5,Linux armv8l,60,,0,-0.316306741,-0.299503373,1,0,0,0.7421,button_left,0.7421,1,,,,,,436,NW,"ID",33,frutan,FRUTAN,z,,,,,,-0.316306741,-0.299503373,1,0,0,,0,326,326,255,1,
,,,,,,,,,,,,,,,,,,5ef34cc943115906d6aa397f,2020-11-26_15h59.50.472,lexical_decision_task_MP_exp2,2020.2.5,Linux armv8l,60,,0,0.297943551,-0.306984041,1,0,0,0.6738,button_right,0.6738,1,,,,,,189,WORD,"ID",33,censor,CENSOR,m,,,,,,0.297943551,-0.306984041,1,0,0,,0,327,327,8,1,
,,,,,,,,,,,,,,,,,,5ef34cc943115906d6aa397f,2020-11-26_15h59.50.472,lexical_decision_task_MP_exp2,2020.2.5,Linux armv8l,60,,0,-0.332099385,-0.286204311,1,0,0,0.7178,button_left,0.7178,1,,,,,,478,NW,"ID",33,acrise,ACRISE,z,,,,,,-0.332099385,-0.286204311,1,0,0,,0,328,328,297,1,
,,,,,,,,,,,,,,,,,,5ef34cc943115906d6aa397f,2020-11-26_15h59.50.472,lexical_decision_task_MP_exp2,2020.2.5,Linux armv8l,60,,0,-0.317969139,-0.292022581,1,0,0,0.5422,button_left,0.5422,1,,,,,,311,NW,UN,33,nerawl,SPROLY,z,,,,,,-0.317969139,-0.292022581,1,0,0,,0,329,329,370,1,
,,,,,,,,,,,,,,,,,,5ef34cc943115906d6aa397f,2020-11-26_15h59.50.472,lexical_decision_task_MP_exp2,2020.2.5,Linux armv8l,60,,0,-0.323787471,-0.303659244,1,0,0,0.9157,button_left,0.9157,1,,,,,,399,NW,UN,16,wearox,FOURET,z,,,,,,-0.323787471,-0.303659244,1,0,0,,0,330,330,458,1,
,,,,,,,,,,,,,,,,,,5ef34cc943115906d6aa397f,2020-11-26_15h59.50.472,lexical_decision_task_MP_exp2,2020.2.5,Linux armv8l,60,,0,0.291294082,-0.317789506,1,0,0,0.5982,button_right,0.5982,1,,,,,,158,WORD,UN,16,detail,ISLAND,m,,,,,,0.291294082,-0.317789506,1,0,0,,0,331,331,217,1,
,,,,,,,,,,,,,,,,,,5ef34cc943115906d6aa397f,2020-11-26_15h59.50.472,lexical_decision_task_MP_exp2,2020.2.5,Linux armv8l,60,,0,-0.315475557,-0.287866709,1,0,0,0.5546,button_left,0.5546,1,,,,,,458,NW,"ID",33,barcet,BARCET,z,,,,,,-0.315475557,-0.287866709,1,0,0,,0,332,332,277,1,
,,,,,,,,,,,,,,,,,,5ef34cc943115906d6aa397f,2020-11-26_15h59.50.472,lexical_decision_task_MP_exp2,2020.2.5,Linux armv8l,60,,0,-0.314644374,-0.292022581,1,0,0,0.9176,button_left,0.9176,1,,,,,,343,NW,UN,33,scrily,AIMOSY,z,,,,,,-0.314644374,-0.292022581,1,0,0,,0,333,333,402,1,
,,,,,,,,,,,,,,,,,,5ef34cc943115906d6aa397f,2020-11-26_15h59.50.472,lexical_decision_task_MP_exp2,2020.2.5,Linux armv8l,60,,0,-0.312150776,-0.294516303,1,0,0,0.7184,button_left,0.7184,0,,,,,,19,WORD,"ID",16,patron,PATRON,m,,,,,,-0.312150776,-0.294516303,1,0,0,,0,334,334,78,1,
