counterbalancing_condition,instr_done_keyboard.keys,instr_done_touch.x,instr_done_touch.y,instr_done_touch.leftButton,instr_done_touch.midButton,instr_done_touch.rightButton,instr_done_touch.clicked_name,instruction_pages.thisRepN,instruction_pages.thisTrialN,instruction_pages.thisN,instruction_pages.thisIndex,instruction_pages.ran,pageN,phase,instruct_text,has_image,instruct_image,participant,date,expName,psychopyVersion,OS,frameRate,response.keys,response.corr,touch_resp.x,touch_resp.y,touch_resp.leftButton,touch_resp.midButton,touch_resp.rightButton,touch_resp.time,touch_resp.clicked_name,rt,corr,practice_trials.thisRepN,practice_trials.thisTrialN,practice_trials.thisN,practice_trials.thisIndex,practice_trials.ran,TrialID,StimulusType,Condition,PrimeDuration,Prime,Target,corrAns,end_of_practice_trials_pages.thisRepN,end_of_practice_trials_pages.thisTrialN,end_of_practice_trials_pages.thisN,end_of_practice_trials_pages.thisIndex,end_of_practice_trials_pages.ran,break_done_touch.x,break_done_touch.y,break_done_touch.leftButton,break_done_touch.midButton,break_done_touch.rightButton,break_done_keyboard.keys,experiment_trials.thisRepN,experiment_trials.thisTrialN,experiment_trials.thisN,experiment_trials.thisIndex,experiment_trials.ran,break_done_touch.clicked_name
1,,0.110107422,-0.399468316,1,0,0,instr_done_button,0,0,0,0,1,1,instructions,"INSTRUCTIONS
At the start of each trial, look at the hash marks (######) in the center of the screen. After a moment, a string of letters will appear. Your task is to indicate if the letter string forms a word or not (i.e., if it is a nonword). For example, AUTHOR is a word while AUTHON is a nonword.

Press the space bar or touch the button below to continue.",0,,5ef913ee6095e369eda5b9d7,2020-11-27_15h03.16.770,lexical_decision_task_MP_exp2,2020.2.5,Linux armv8l,60,,,,,,,,,,,,,,,,,,,,,,,,,,,,,,,,,,,,,,,,
,,0.096679688,-0.410007053,1,0,0,instr_done_button,0,1,1,1,1,2,instructions,"If your device has a keyboard, press the 'Z' key for nonwords and the 'M' key for words.





Press the space bar or touch the button below to continue.",1,keyboard-example.gif,5ef913ee6095e369eda5b9d7,2020-11-27_15h03.16.770,lexical_decision_task_MP_exp2,2020.2.5,Linux armv8l,60,,,,,,,,,,,,,,,,,,,,,,,,,,,,,,,,,,,,,,,,
,,0.110595703,-0.395453559,1,0,0,instr_done_button,0,2,2,2,1,3,instructions,"If you are using a touchscreen only device, use the buttons on the screen. Do not use the mouse.





Press the space bar or touch the button below to continue.",1,touchscreen-example.gif,5ef913ee6095e369eda5b9d7,2020-11-27_15h03.16.770,lexical_decision_task_MP_exp2,2020.2.5,Linux armv8l,60,,,,,,,,,,,,,,,,,,,,,,,,,,,,,,,,,,,,,,,,
,,0.102539063,-0.377888997,1,0,0,instr_done_button,0,3,3,3,1,4,instructions,"It is very important that you respond as quickly and accurately as possible, as each letter string will only be on the screen for two seconds. If you do not respond within this time, the message 'Too slow!' will be displayed and the experiment will progress to the next letter string. The first 20 trials will be practice trials and you will receive feedback on your answers. 

Press the space bar or touch the button below to start the practice trials.",0,,5ef913ee6095e369eda5b9d7,2020-11-27_15h03.16.770,lexical_decision_task_MP_exp2,2020.2.5,Linux armv8l,60,,,,,,,,,,,,,,,,,,,,,,,,,,,,,,,,,,,,,,,,
,,,,,,,,,,,,,,,,,,5ef913ee6095e369eda5b9d7,2020-11-27_15h03.16.770,lexical_decision_task_MP_exp2,2020.2.5,Linux armv8l,60,,0,,,,,,,,,-1,0,0,0,6,1,1007,WORD,UN,16,tropic,ZOMBIE,m,,,,,,,,,,,,,,,,,
,,,,,,,,,,,,,,,,,,5ef913ee6095e369eda5b9d7,2020-11-27_15h03.16.770,lexical_decision_task_MP_exp2,2020.2.5,Linux armv8l,60,,0,0.368164063,-0.307630751,1,0,0,0.9767,button_right,0.9767,0,0,1,1,15,1,1016,NW,UN,16,mushed,WHAISE,z,,,,,,,,,,,,,,,,,
,,,,,,,,,,,,,,,,,,5ef913ee6095e369eda5b9d7,2020-11-27_15h03.16.770,lexical_decision_task_MP_exp2,2020.2.5,Linux armv8l,60,,0,0.352294922,-0.320678711,1,0,0,0.7454,button_right,0.7454,1,0,2,2,7,1,1008,WORD,UN,16,hurdle,VOLUME,m,,,,,,,,,,,,,,,,,
,,,,,,,,,,,,,,,,,,5ef913ee6095e369eda5b9d7,2020-11-27_15h03.16.770,lexical_decision_task_MP_exp2,2020.2.5,Linux armv8l,60,,0,0.3515625,-0.299099392,1,0,0,1.0159,button_right,1.0159,1,0,3,3,0,1,1001,WORD,"ID",33,utopia,UTOPIA,m,,,,,,,,,,,,,,,,,
,,,,,,,,,,,,,,,,,,5ef913ee6095e369eda5b9d7,2020-11-27_15h03.16.770,lexical_decision_task_MP_exp2,2020.2.5,Linux armv8l,60,,0,-0.258056641,-0.297092014,1,0,0,1.0643,button_left,1.0643,1,0,4,4,8,1,1009,NW,"ID",33,aslert,ASLERT,z,,,,,,,,,,,,,,,,,
,,,,,,,,,,,,,,,,,,5ef913ee6095e369eda5b9d7,2020-11-27_15h03.16.770,lexical_decision_task_MP_exp2,2020.2.5,Linux armv8l,60,,0,0.358886719,-0.312649197,1,0,0,0.7254,button_right,0.7254,1,0,5,5,2,1,1003,WORD,"ID",16,almond,ALMOND,m,,,,,,,,,,,,,,,,,
,,,,,,,,,,,,,,,,,,5ef913ee6095e369eda5b9d7,2020-11-27_15h03.16.770,lexical_decision_task_MP_exp2,2020.2.5,Linux armv8l,60,,0,-0.284423828,-0.309638129,1,0,0,0.9796,button_left,0.9796,1,0,6,6,13,1,1014,NW,UN,33,winfer,ROUPET,z,,,,,,,,,,,,,,,,,
,,,,,,,,,,,,,,,,,,5ef913ee6095e369eda5b9d7,2020-11-27_15h03.16.770,lexical_decision_task_MP_exp2,2020.2.5,Linux armv8l,60,,0,-0.292724609,-0.328708225,1,0,0,1.0624,button_left,1.0624,1,0,7,7,12,1,1013,NW,UN,33,adveil,SPRINY,z,,,,,,,,,,,,,,,,,
,,,,,,,,,,,,,,,,,,5ef913ee6095e369eda5b9d7,2020-11-27_15h03.16.770,lexical_decision_task_MP_exp2,2020.2.5,Linux armv8l,60,,0,0.359130859,-0.310139974,1,0,0,0.8472,button_right,0.8472,0,0,8,8,11,1,1012,NW,"ID",16,rashet,RASHET,z,,,,,,,,,,,,,,,,,
,,,,,,,,,,,,,,,,,,5ef913ee6095e369eda5b9d7,2020-11-27_15h03.16.770,lexical_decision_task_MP_exp2,2020.2.5,Linux armv8l,60,,0,0.390869141,-0.291069878,1,0,0,0.7997,button_right,0.7997,1,0,9,9,3,1,1004,WORD,"ID",16,matrix,MATRIX,m,,,,,,,,,,,,,,,,,
,,,,,,,,,,,,,,,,,,5ef913ee6095e369eda5b9d7,2020-11-27_15h03.16.770,lexical_decision_task_MP_exp2,2020.2.5,Linux armv8l,60,,0,0.405029297,-0.311143663,1,0,0,1.0466,button_right,1.0466,1,0,10,10,1,1,1002,WORD,"ID",33,adjust,ADJUST,m,,,,,,,,,,,,,,,,,
,,,,,,,,,,,,,,,,,,5ef913ee6095e369eda5b9d7,2020-11-27_15h03.16.770,lexical_decision_task_MP_exp2,2020.2.5,Linux armv8l,60,,0,-0.348388672,-0.338745117,1,0,0,1.05,button_left,1.05,1,0,11,11,14,1,1015,NW,UN,16,miaber,THRALE,z,,,,,,,,,,,,,,,,,
,,,,,,,,,,,,,,,,,,5ef913ee6095e369eda5b9d7,2020-11-27_15h03.16.770,lexical_decision_task_MP_exp2,2020.2.5,Linux armv8l,60,,0,0.381103516,-0.317165799,1,0,0,0.9156,button_right,0.9156,1,0,12,12,4,1,1005,WORD,UN,33,abound,SQUEAK,m,,,,,,,,,,,,,,,,,
,,,,,,,,,,,,,,,,,,5ef913ee6095e369eda5b9d7,2020-11-27_15h03.16.770,lexical_decision_task_MP_exp2,2020.2.5,Linux armv8l,60,,0,-0.367431641,-0.341756185,1,0,0,0.9982,button_left,0.9982,1,0,13,13,9,1,1010,NW,"ID",33,fariny,FARINY,z,,,,,,,,,,,,,,,,,
,,,,,,,,,,,,,,,,,,5ef913ee6095e369eda5b9d7,2020-11-27_15h03.16.770,lexical_decision_task_MP_exp2,2020.2.5,Linux armv8l,60,,0,0.364013672,-0.312649197,1,0,0,0.7636,button_right,0.7636,1,0,14,14,5,1,1006,WORD,UN,33,frenzy,OBTAIN,m,,,,,,,,,,,,,,,,,
,,,,,,,,,,,,,,,,,,5ef913ee6095e369eda5b9d7,2020-11-27_15h03.16.770,lexical_decision_task_MP_exp2,2020.2.5,Linux armv8l,60,,0,0.403564453,-0.318169488,1,0,0,0.9294,button_right,0.9294,0,0,15,15,10,1,1011,NW,"ID",16,inlade,INLADE,z,,,,,,,,,,,,,,,,,
,,0.079833984,-0.419542101,1,0,0,instr_done_button,,,,,,1,end_of_practice,"You have completed the practice trials. During the experimental trials, you will not receive feedback, but it is very important that you respond as quickly and accurately as possible. 
Before you begin, please ensure that you are in a comfortable and quiet location and will not be disturbed for about 15 minutes, as we cannot use your data if you do not complete all the trials. 
There will be opportunities to take breaks at regular intervals during the experiment. When you are ready to start the experimental trials, please press space or touch the button below.",,,5ef913ee6095e369eda5b9d7,2020-11-27_15h03.16.770,lexical_decision_task_MP_exp2,2020.2.5,Linux armv8l,60,,,,,,,,,,,,,,,,,,,,,,,,0,0,0,0,1,,,,,,,,,,,,
,,,,,,,,,,,,,,,,,,5ef913ee6095e369eda5b9d7,2020-11-27_15h03.16.770,lexical_decision_task_MP_exp2,2020.2.5,Linux armv8l,60,,0,-0.321533203,-0.311143663,1,0,0,1.3607,button_left,1.3607,1,,,,,,396,NW,UN,33,camble,FLENGY,z,,,,,,-0.321533203,-0.311143663,1,0,0,,0,0,0,395,1,
,,,,,,,,,,,,,,,,,,5ef913ee6095e369eda5b9d7,2020-11-27_15h03.16.770,lexical_decision_task_MP_exp2,2020.2.5,Linux armv8l,60,,0,0.377441406,-0.316663954,1,0,0,1.0452,button_right,1.0452,1,,,,,,100,WORD,"ID",16,carbon,CARBON,m,,,,,,0.377441406,-0.316663954,1,0,0,,0,1,1,99,1,
,,,,,,,,,,,,,,,,,,5ef913ee6095e369eda5b9d7,2020-11-27_15h03.16.770,lexical_decision_task_MP_exp2,2020.2.5,Linux armv8l,60,,0,0.382080078,-0.312147352,1,0,0,1.0334,button_right,1.0334,1,,,,,,181,WORD,UN,16,winter,GLANCE,m,,,,,,0.382080078,-0.312147352,1,0,0,,0,2,2,180,1,
,,,,,,,,,,,,,,,,,,5ef913ee6095e369eda5b9d7,2020-11-27_15h03.16.770,lexical_decision_task_MP_exp2,2020.2.5,Linux armv8l,60,,0,0.366210938,-0.325697157,1,0,0,1.065,button_right,1.065,0,,,,,,413,NW,UN,33,serbol,EQUATS,z,,,,,,0.366210938,-0.325697157,1,0,0,,0,3,3,412,1,
,,,,,,,,,,,,,,,,,,5ef913ee6095e369eda5b9d7,2020-11-27_15h03.16.770,lexical_decision_task_MP_exp2,2020.2.5,Linux armv8l,60,,0,0.356933594,-0.326199002,1,0,0,0.9501,button_right,0.9501,1,,,,,,101,WORD,"ID",16,wrench,WRENCH,m,,,,,,0.356933594,-0.326199002,1,0,0,,0,4,4,100,1,
,,,,,,,,,,,,,,,,,,5ef913ee6095e369eda5b9d7,2020-11-27_15h03.16.770,lexical_decision_task_MP_exp2,2020.2.5,Linux armv8l,60,,0,0.381347656,-0.317667643,1,0,0,0.8682,button_right,0.8682,1,,,,,,150,WORD,UN,33,mystic,RANDOM,m,,,,,,0.381347656,-0.317667643,1,0,0,,0,5,5,149,1,
,,,,,,,,,,,,,,,,,,5ef913ee6095e369eda5b9d7,2020-11-27_15h03.16.770,lexical_decision_task_MP_exp2,2020.2.5,Linux armv8l,60,,0,-0.366210938,-0.287556966,1,0,0,1.0317,button_left,1.0317,1,,,,,,453,NW,UN,16,scouge,BOLVIS,z,,,,,,-0.366210938,-0.287556966,1,0,0,,0,6,6,452,1,
,,,,,,,,,,,,,,,,,,5ef913ee6095e369eda5b9d7,2020-11-27_15h03.16.770,lexical_decision_task_MP_exp2,2020.2.5,Linux armv8l,60,,0,-0.385986328,-0.291571723,1,0,0,1.1336,button_left,1.1336,1,,,,,,468,NW,UN,16,padifs,WICTOR,z,,,,,,-0.385986328,-0.291571723,1,0,0,,0,7,7,467,1,
,,,,,,,,,,,,,,,,,,5ef913ee6095e369eda5b9d7,2020-11-27_15h03.16.770,lexical_decision_task_MP_exp2,2020.2.5,Linux armv8l,60,,0,-0.352294922,-0.326700846,1,0,0,1.0638,button_left,1.0638,1,,,,,,321,NW,"ID",16,miator,MIATOR,z,,,,,,-0.352294922,-0.326700846,1,0,0,,0,8,8,320,1,
,,,,,,,,,,,,,,,,,,5ef913ee6095e369eda5b9d7,2020-11-27_15h03.16.770,lexical_decision_task_MP_exp2,2020.2.5,Linux armv8l,60,,0,0.395019531,-0.306125217,1,0,0,0.8696,button_right,0.8696,1,,,,,,228,WORD,UN,16,inject,MASTER,m,,,,,,0.395019531,-0.306125217,1,0,0,,0,9,9,227,1,
,,,,,,,,,,,,,,,,,,5ef913ee6095e369eda5b9d7,2020-11-27_15h03.16.770,lexical_decision_task_MP_exp2,2020.2.5,Linux armv8l,60,,0,-0.333984375,-0.309638129,1,0,0,1.001,button_left,1.001,1,,,,,,467,NW,UN,16,wictor,GORBIE,z,,,,,,-0.333984375,-0.309638129,1,0,0,,0,10,10,466,1,
,,,,,,,,,,,,,,,,,,5ef913ee6095e369eda5b9d7,2020-11-27_15h03.16.770,lexical_decision_task_MP_exp2,2020.2.5,Linux armv8l,60,,0,0.391601563,-0.298095703,1,0,0,0.7976,button_right,0.7976,1,,,,,,127,WORD,UN,33,senior,CASTLE,m,,,,,,0.391601563,-0.298095703,1,0,0,,0,11,11,126,1,
,,,,,,,,,,,,,,,,,,5ef913ee6095e369eda5b9d7,2020-11-27_15h03.16.770,lexical_decision_task_MP_exp2,2020.2.5,Linux armv8l,60,,0,-0.368164063,-0.319675022,1,0,0,1.3417,button_left,1.3417,1,,,,,,268,NW,"ID",33,packes,PACKES,z,,,,,,-0.368164063,-0.319675022,1,0,0,,0,12,12,267,1,
,,,,,,,,,,,,,,,,,,5ef913ee6095e369eda5b9d7,2020-11-27_15h03.16.770,lexical_decision_task_MP_exp2,2020.2.5,Linux armv8l,60,,0,-0.357421875,-0.323689779,1,0,0,1.1132,button_left,1.1132,1,,,,,,416,NW,UN,33,earoud,PATHEL,z,,,,,,-0.357421875,-0.323689779,1,0,0,,0,13,13,415,1,
,,,,,,,,,,,,,,,,,,5ef913ee6095e369eda5b9d7,2020-11-27_15h03.16.770,lexical_decision_task_MP_exp2,2020.2.5,Linux armv8l,60,,0,0.379394531,-0.312147352,1,0,0,0.7678,button_right,0.7678,1,,,,,,64,WORD,"ID",16,throne,THRONE,m,,,,,,0.379394531,-0.312147352,1,0,0,,0,14,14,63,1,
,,,,,,,,,,,,,,,,,,5ef913ee6095e369eda5b9d7,2020-11-27_15h03.16.770,lexical_decision_task_MP_exp2,2020.2.5,Linux armv8l,60,,0,-0.372802734,-0.30211046,1,0,0,0.8971,button_left,0.8971,1,,,,,,414,NW,UN,33,higsta,SERBOL,z,,,,,,-0.372802734,-0.30211046,1,0,0,,0,15,15,413,1,
,,,,,,,,,,,,,,,,,,5ef913ee6095e369eda5b9d7,2020-11-27_15h03.16.770,lexical_decision_task_MP_exp2,2020.2.5,Linux armv8l,60,,0,0.355957031,-0.261461046,1,0,0,1.3025,button_right,1.3025,1,,,,,,151,WORD,UN,33,rocket,MYSTIC,m,,,,,,0.355957031,-0.261461046,1,0,0,,0,16,16,150,1,
,,,,,,,,,,,,,,,,,,5ef913ee6095e369eda5b9d7,2020-11-27_15h03.16.770,lexical_decision_task_MP_exp2,2020.2.5,Linux armv8l,60,,0,0.40625,-0.340250651,1,0,0,0.9309,button_right,0.9309,1,,,,,,186,WORD,UN,16,course,PORTAL,m,,,,,,0.40625,-0.340250651,1,0,0,,0,17,17,185,1,
,,,,,,,,,,,,,,,,,,5ef913ee6095e369eda5b9d7,2020-11-27_15h03.16.770,lexical_decision_task_MP_exp2,2020.2.5,Linux armv8l,60,,0,0.373535156,-0.315660265,1,0,0,0.8839,button_right,0.8839,1,,,,,,195,WORD,UN,16,credit,RESIGN,m,,,,,,0.373535156,-0.315660265,1,0,0,,0,18,18,194,1,
,,,,,,,,,,,,,,,,,,5ef913ee6095e369eda5b9d7,2020-11-27_15h03.16.770,lexical_decision_task_MP_exp2,2020.2.5,Linux armv8l,60,,0,0.364746094,-0.32820638,1,0,0,0.8246,button_right,0.8246,1,,,,,,123,WORD,UN,33,enough,STRIKE,m,,,,,,0.364746094,-0.32820638,1,0,0,,0,19,19,122,1,
,,,,,,,,,,,,,,,,,,5ef913ee6095e369eda5b9d7,2020-11-27_15h03.16.770,lexical_decision_task_MP_exp2,2020.2.5,Linux armv8l,60,,0,0.359130859,-0.304619683,1,0,0,0.8684,button_right,0.8684,1,,,,,,180,WORD,UN,33,thrive,SILENT,m,,,,,,0.359130859,-0.304619683,1,0,0,,0,20,20,179,1,
,,,,,,,,,,,,,,,,,,5ef913ee6095e369eda5b9d7,2020-11-27_15h03.16.770,lexical_decision_task_MP_exp2,2020.2.5,Linux armv8l,60,,0,-0.373046875,-0.278021918,1,0,0,0.833,button_left,0.833,1,,,,,,356,NW,"ID",16,othnis,OTHNIS,z,,,,,,-0.373046875,-0.278021918,1,0,0,,0,21,21,355,1,
,,,,,,,,,,,,,,,,,,5ef913ee6095e369eda5b9d7,2020-11-27_15h03.16.770,lexical_decision_task_MP_exp2,2020.2.5,Linux armv8l,60,,0,-0.388916016,-0.294080946,1,0,0,1.0308,button_left,1.0308,1,,,,,,263,NW,"ID",33,dolica,DOLICA,z,,,,,,-0.388916016,-0.294080946,1,0,0,,0,22,22,262,1,
,,,,,,,,,,,,,,,,,,5ef913ee6095e369eda5b9d7,2020-11-27_15h03.16.770,lexical_decision_task_MP_exp2,2020.2.5,Linux armv8l,60,,0,-0.359619141,-0.343763563,1,0,0,0.9143,button_left,0.9143,1,,,,,,337,NW,"ID",16,rejols,REJOLS,z,,,,,,-0.359619141,-0.343763563,1,0,0,,0,23,23,336,1,
,,,,,,,,,,,,,,,,,,5ef913ee6095e369eda5b9d7,2020-11-27_15h03.16.770,lexical_decision_task_MP_exp2,2020.2.5,Linux armv8l,60,,0,-0.365478516,-0.338243273,1,0,0,1.0153,button_left,1.0153,1,,,,,,316,NW,"ID",16,scregm,SCREGM,z,,,,,,-0.365478516,-0.338243273,1,0,0,,0,24,24,315,1,
,,,,,,,,,,,,,,,,,,5ef913ee6095e369eda5b9d7,2020-11-27_15h03.16.770,lexical_decision_task_MP_exp2,2020.2.5,Linux armv8l,60,,0,0.374511719,-0.324191623,1,0,0,0.8665,button_right,0.8665,1,,,,,,105,WORD,"ID",16,number,NUMBER,m,,,,,,0.374511719,-0.324191623,1,0,0,,0,25,25,104,1,
,,,,,,,,,,,,,,,,,,5ef913ee6095e369eda5b9d7,2020-11-27_15h03.16.770,lexical_decision_task_MP_exp2,2020.2.5,Linux armv8l,60,,0,0.383544922,-0.330213759,1,0,0,0.8346,button_right,0.8346,1,,,,,,72,WORD,"ID",16,bright,BRIGHT,m,,,,,,0.383544922,-0.330213759,1,0,0,,0,26,26,71,1,
,,,,,,,,,,,,,,,,,,5ef913ee6095e369eda5b9d7,2020-11-27_15h03.16.770,lexical_decision_task_MP_exp2,2020.2.5,Linux armv8l,60,,0,-0.353515625,-0.333224826,1,0,0,0.8488,button_left,0.8488,1,,,,,,406,NW,UN,33,suiver,NOUPLY,z,,,,,,-0.353515625,-0.333224826,1,0,0,,0,27,27,405,1,
,,,,,,,,,,,,,,,,,,5ef913ee6095e369eda5b9d7,2020-11-27_15h03.16.770,lexical_decision_task_MP_exp2,2020.2.5,Linux armv8l,60,,0,-0.342285156,-0.314656576,1,0,0,1.4029,button_left,1.4029,1,,,,,,400,NW,UN,33,mustil,WEAROX,z,,,,,,-0.342285156,-0.314656576,1,0,0,,0,28,28,399,1,
,,,,,,,,,,,,,,,,,,5ef913ee6095e369eda5b9d7,2020-11-27_15h03.16.770,lexical_decision_task_MP_exp2,2020.2.5,Linux armv8l,60,,0,-0.312011719,-0.305121528,1,0,0,0.9008,button_left,0.9008,1,,,,,,249,NW,"ID",33,batrol,BATROL,z,,,,,,-0.312011719,-0.305121528,1,0,0,,0,29,29,248,1,
,,,,,,,,,,,,,,,,,,5ef913ee6095e369eda5b9d7,2020-11-27_15h03.16.770,lexical_decision_task_MP_exp2,2020.2.5,Linux armv8l,60,,0,-0.283691406,-0.301106771,1,0,0,0.8434,button_left,0.8434,1,,,,,,242,NW,"ID",33,unwert,UNWERT,z,,,,,,-0.283691406,-0.301106771,1,0,0,,0,30,30,241,1,
,,,,,,,,,,,,,,,,,,5ef913ee6095e369eda5b9d7,2020-11-27_15h03.16.770,lexical_decision_task_MP_exp2,2020.2.5,Linux armv8l,60,,0,-0.288085938,-0.30863444,1,0,0,0.7177,button_left,0.7177,1,,,,,,334,NW,"ID",16,watmeg,WATMEG,z,,,,,,-0.288085938,-0.30863444,1,0,0,,0,31,31,333,1,
,,,,,,,,,,,,,,,,,,5ef913ee6095e369eda5b9d7,2020-11-27_15h03.16.770,lexical_decision_task_MP_exp2,2020.2.5,Linux armv8l,60,,0,0.390136719,-0.290568034,1,0,0,0.7622,button_right,0.7622,1,,,,,,209,WORD,UN,16,monkey,SEARCH,m,,,,,,0.390136719,-0.290568034,1,0,0,,0,32,32,208,1,
,,,,,,,,,,,,,,,,,,5ef913ee6095e369eda5b9d7,2020-11-27_15h03.16.770,lexical_decision_task_MP_exp2,2020.2.5,Linux armv8l,60,,0,0.392578125,-0.332221137,1,0,0,0.7142,button_right,0.7142,1,,,,,,46,WORD,"ID",33,single,SINGLE,m,,,,,,0.392578125,-0.332221137,1,0,0,,0,33,33,45,1,
,,,,,,,,,,,,,,,,,,5ef913ee6095e369eda5b9d7,2020-11-27_15h03.16.770,lexical_decision_task_MP_exp2,2020.2.5,Linux armv8l,60,,0,0.39453125,-0.314656576,1,0,0,0.7816,button_right,0.7816,1,,,,,,131,WORD,UN,33,strong,QUENCH,m,,,,,,0.39453125,-0.314656576,1,0,0,,0,34,34,130,1,
,,,,,,,,,,,,,,,,,,5ef913ee6095e369eda5b9d7,2020-11-27_15h03.16.770,lexical_decision_task_MP_exp2,2020.2.5,Linux armv8l,60,,0,0.397705078,-0.281032986,1,0,0,1.1167,button_right,1.1167,0,,,,,,295,NW,"ID",33,gleath,GLEATH,z,,,,,,0.397705078,-0.281032986,1,0,0,,0,35,35,294,1,
,,,,,,,,,,,,,,,,,,5ef913ee6095e369eda5b9d7,2020-11-27_15h03.16.770,lexical_decision_task_MP_exp2,2020.2.5,Linux armv8l,60,,0,0.376708984,-0.310139974,1,0,0,0.8452,button_right,0.8452,1,,,,,,97,WORD,"ID",16,client,CLIENT,m,,,,,,0.376708984,-0.310139974,1,0,0,,0,36,36,96,1,
,,,,,,,,,,,,,,,,,,5ef913ee6095e369eda5b9d7,2020-11-27_15h03.16.770,lexical_decision_task_MP_exp2,2020.2.5,Linux armv8l,60,,0,-0.334472656,-0.277520074,1,0,0,0.9331,button_left,0.9331,1,,,,,,264,NW,"ID",33,vackel,VACKEL,z,,,,,,-0.334472656,-0.277520074,1,0,0,,0,37,37,263,1,
,,,,,,,,,,,,,,,,,,5ef913ee6095e369eda5b9d7,2020-11-27_15h03.16.770,lexical_decision_task_MP_exp2,2020.2.5,Linux armv8l,60,,0,-0.323974609,-0.311143663,1,0,0,0.8658,button_left,0.8658,1,,,,,,329,NW,"ID",16,yarike,YARIKE,z,,,,,,-0.323974609,-0.311143663,1,0,0,,0,38,38,328,1,
,,,,,,,,,,,,,,,,,,5ef913ee6095e369eda5b9d7,2020-11-27_15h03.16.770,lexical_decision_task_MP_exp2,2020.2.5,Linux armv8l,60,,0,0.373535156,-0.300604926,1,0,0,0.8213,button_right,0.8213,1,,,,,,110,WORD,"ID",16,polite,POLITE,m,,,,,,0.373535156,-0.300604926,1,0,0,,0,39,39,109,1,
,,,,,,,,,,,,,,,,,,5ef913ee6095e369eda5b9d7,2020-11-27_15h03.16.770,lexical_decision_task_MP_exp2,2020.2.5,Linux armv8l,60,,0,-0.321777344,-0.304117839,1,0,0,0.9977,button_left,0.9977,1,,,,,,426,NW,UN,16,frudge,URIVEL,z,,,,,,-0.321777344,-0.304117839,1,0,0,,0,40,40,425,1,
,,,,,,,,,,,,,,,,,,5ef913ee6095e369eda5b9d7,2020-11-27_15h03.16.770,lexical_decision_task_MP_exp2,2020.2.5,Linux armv8l,60,,0,0.364990234,-0.332722982,1,0,0,0.7656,button_right,0.7656,1,,,,,,182,WORD,UN,16,basket,WINTER,m,,,,,,0.364990234,-0.332722982,1,0,0,,0,41,41,181,1,
,,,,,,,,,,,,,,,,,,5ef913ee6095e369eda5b9d7,2020-11-27_15h03.16.770,lexical_decision_task_MP_exp2,2020.2.5,Linux armv8l,60,,0,0.369873047,-0.330715603,1,0,0,1.2178,button_right,1.2178,0,,,,,,250,NW,"ID",33,milted,MILTED,z,,,,,,0.369873047,-0.330715603,1,0,0,,0,42,42,249,1,
,,,,,,,,,,,,,,,,,,5ef913ee6095e369eda5b9d7,2020-11-27_15h03.16.770,lexical_decision_task_MP_exp2,2020.2.5,Linux armv8l,60,,0,-0.330078125,-0.278523763,1,0,0,0.8016,button_left,0.8016,1,,,,,,328,NW,"ID",16,broake,BROAKE,z,,,,,,-0.330078125,-0.278523763,1,0,0,,0,43,43,327,1,
,,,,,,,,,,,,,,,,,,5ef913ee6095e369eda5b9d7,2020-11-27_15h03.16.770,lexical_decision_task_MP_exp2,2020.2.5,Linux armv8l,60,,0,-0.353271484,-0.30863444,1,0,0,0.866,button_left,0.866,1,,,,,,381,NW,UN,33,sarley,HUNIEK,z,,,,,,-0.353271484,-0.30863444,1,0,0,,0,44,44,380,1,
,,,,,,,,,,,,,,,,,,5ef913ee6095e369eda5b9d7,2020-11-27_15h03.16.770,lexical_decision_task_MP_exp2,2020.2.5,Linux armv8l,60,,0,0.37890625,-0.306627062,1,0,0,0.9006,button_right,0.9006,1,,,,,,189,WORD,UN,16,backup,CENSOR,m,,,,,,0.37890625,-0.306627062,1,0,0,,0,45,45,188,1,
,,,,,,,,,,,,,,,,,,5ef913ee6095e369eda5b9d7,2020-11-27_15h03.16.770,lexical_decision_task_MP_exp2,2020.2.5,Linux armv8l,60,,0,-0.31640625,-0.304619683,1,0,0,0.9615,button_left,0.9615,1,,,,,,350,NW,"ID",16,nagurs,NAGURS,z,,,,,,-0.31640625,-0.304619683,1,0,0,,0,46,46,349,1,
,,,,,,,,,,,,,,,,,,5ef913ee6095e369eda5b9d7,2020-11-27_15h03.16.770,lexical_decision_task_MP_exp2,2020.2.5,Linux armv8l,60,,0,-0.304931641,-0.311645508,1,0,0,1.1501,button_left,1.1501,1,,,,,,257,NW,"ID",33,veniod,VENIOD,z,,,,,,-0.304931641,-0.311645508,1,0,0,,0,47,47,256,1,
,,,,,,,,,,,,,,,,,,5ef913ee6095e369eda5b9d7,2020-11-27_15h03.16.770,lexical_decision_task_MP_exp2,2020.2.5,Linux armv8l,60,,0,-0.314697266,-0.336235894,1,0,0,0.8836,button_left,0.8836,1,,,,,,247,NW,"ID",33,blarge,BLARGE,z,,,,,,-0.314697266,-0.336235894,1,0,0,,0,48,48,246,1,
,,,,,,,,,,,,,,,,,,5ef913ee6095e369eda5b9d7,2020-11-27_15h03.16.770,lexical_decision_task_MP_exp2,2020.2.5,Linux armv8l,60,,0,0.389404297,-0.308132595,1,0,0,0.8495,button_right,0.8495,1,,,,,,160,WORD,UN,33,dragon,VIOLET,m,,,,,,0.389404297,-0.308132595,1,0,0,,0,49,49,159,1,
,,,,,,,,,,,,,,,,,,5ef913ee6095e369eda5b9d7,2020-11-27_15h03.16.770,lexical_decision_task_MP_exp2,2020.2.5,Linux armv8l,60,,0,-0.308105469,-0.298597548,1,0,0,1.2194,button_left,1.2194,1,,,,,,266,NW,"ID",33,varmit,VARMIT,z,,,,,,-0.308105469,-0.298597548,1,0,0,,0,50,50,265,1,
,,,,,,,,,,,,,,,,,,5ef913ee6095e369eda5b9d7,2020-11-27_15h03.16.770,lexical_decision_task_MP_exp2,2020.2.5,Linux armv8l,60,,0,-0.3125,-0.33473036,1,0,0,1.0654,button_left,1.0654,1,,,,,,449,NW,UN,16,phrect,BRUNGE,z,,,,,,-0.3125,-0.33473036,1,0,0,,0,51,51,448,1,
,,,,,,,,,,,,,,,,,,5ef913ee6095e369eda5b9d7,2020-11-27_15h03.16.770,lexical_decision_task_MP_exp2,2020.2.5,Linux armv8l,60,,0,0.368408203,-0.320176866,1,0,0,0.7844,button_right,0.7844,1,,,,,,89,WORD,"ID",16,permit,PERMIT,m,,,,,,0.368408203,-0.320176866,1,0,0,,0,52,52,88,1,
,,,,,,,,,,,,,,,,,,5ef913ee6095e369eda5b9d7,2020-11-27_15h03.16.770,lexical_decision_task_MP_exp2,2020.2.5,Linux armv8l,60,,0,-0.359619141,-0.332221137,1,0,0,1.1164,button_left,1.1164,1,,,,,,462,NW,UN,16,kispel,ABSULT,z,,,,,,-0.359619141,-0.332221137,1,0,0,,0,53,53,461,1,
,,,,,,,,,,,,,,,,,,5ef913ee6095e369eda5b9d7,2020-11-27_15h03.16.770,lexical_decision_task_MP_exp2,2020.2.5,Linux armv8l,60,,0,0.405517578,-0.300604926,1,0,0,0.8526,button_right,0.8526,1,,,,,,17,WORD,"ID",33,charge,CHARGE,m,,,,,,0.405517578,-0.300604926,1,0,0,,0,54,54,16,1,
,,,,,,,,,,,,,,,,,,5ef913ee6095e369eda5b9d7,2020-11-27_15h03.16.770,lexical_decision_task_MP_exp2,2020.2.5,Linux armv8l,60,,0,0.368408203,-0.281032986,1,0,0,1.1176,button_right,1.1176,1,,,,,,183,WORD,UN,16,sleazy,MILDEW,m,,,,,,0.368408203,-0.281032986,1,0,0,,0,55,55,182,1,
,,,,,,,,,,,,,,,,,,5ef913ee6095e369eda5b9d7,2020-11-27_15h03.16.770,lexical_decision_task_MP_exp2,2020.2.5,Linux armv8l,60,,0,-0.325439453,-0.334228516,1,0,0,0.9995,button_left,0.9995,1,,,,,,366,NW,UN,33,slique,TOSHEL,z,,,,,,-0.325439453,-0.334228516,1,0,0,,0,56,56,365,1,
,,,,,,,,,,,,,,,,,,5ef913ee6095e369eda5b9d7,2020-11-27_15h03.16.770,lexical_decision_task_MP_exp2,2020.2.5,Linux armv8l,60,,0,-0.310546875,-0.316663954,1,0,0,1.4166,button_left,1.4166,1,,,,,,338,NW,"ID",16,wreash,WREASH,z,,,,,,-0.310546875,-0.316663954,1,0,0,,0,57,57,337,1,
,,,,,,,,,,,,,,,,,,5ef913ee6095e369eda5b9d7,2020-11-27_15h03.16.770,lexical_decision_task_MP_exp2,2020.2.5,Linux armv8l,60,,0,0.380371094,-0.289564345,1,0,0,0.6837,button_right,0.6837,1,,,,,,21,WORD,"ID",33,simple,SIMPLE,m,,,,,,0.380371094,-0.289564345,1,0,0,,0,58,58,20,1,
,,,,,,,,,,,,,,,,,,5ef913ee6095e369eda5b9d7,2020-11-27_15h03.16.770,lexical_decision_task_MP_exp2,2020.2.5,Linux armv8l,60,,0,-0.315429688,-0.318169488,1,0,0,0.8,button_left,0.8,1,,,,,,444,NW,UN,16,minkel,JAUNCE,z,,,,,,-0.315429688,-0.318169488,1,0,0,,0,59,59,443,1,
,,,,,,,,,,,,,,,,,,5ef913ee6095e369eda5b9d7,2020-11-27_15h03.16.770,lexical_decision_task_MP_exp2,2020.2.5,Linux armv8l,60,,0,-0.321533203,-0.321180556,1,0,0,0.9342,button_left,0.9342,1,,,,,,371,NW,UN,33,ramily,GEILOY,z,,,,,,-0.321533203,-0.321180556,1,0,0,,0,60,60,370,1,
,,,,,,,,,,,,,,,,,,5ef913ee6095e369eda5b9d7,2020-11-27_15h03.16.770,lexical_decision_task_MP_exp2,2020.2.5,Linux armv8l,60,,0,0.348876953,-0.340250651,1,0,0,0.7156,button_right,0.7156,1,,,,,,217,WORD,UN,16,shrink,LIQUOR,m,,,,,,0.348876953,-0.340250651,1,0,0,,0,61,61,216,1,
,,,,,,,,,,,,,,,,,,5ef913ee6095e369eda5b9d7,2020-11-27_15h03.16.770,lexical_decision_task_MP_exp2,2020.2.5,Linux armv8l,60,,0,-0.270019531,-0.314154731,1,0,0,0.8842,button_left,0.8842,1,,,,,,479,NW,UN,16,josted,LOBUSH,z,,,,,,-0.270019531,-0.314154731,1,0,0,,0,62,62,478,1,
,,,,,,,,,,,,,,,,,,5ef913ee6095e369eda5b9d7,2020-11-27_15h03.16.770,lexical_decision_task_MP_exp2,2020.2.5,Linux armv8l,60,,0,-0.326904297,-0.30863444,1,0,0,0.9672,button_left,0.9672,1,,,,,,281,NW,"ID",33,melaty,MELATY,z,,,,,,-0.326904297,-0.30863444,1,0,0,,0,63,63,280,1,
,,,,,,,,,,,,,,,,,,5ef913ee6095e369eda5b9d7,2020-11-27_15h03.16.770,lexical_decision_task_MP_exp2,2020.2.5,Linux armv8l,60,,0,0.378662109,-0.296590169,1,0,0,0.9328,button_right,0.9328,1,,,,,,86,WORD,"ID",16,rodent,RODENT,m,,,,,,0.378662109,-0.296590169,1,0,0,,0,64,64,85,1,
,,,,,,,,,,,,,,,,,,5ef913ee6095e369eda5b9d7,2020-11-27_15h03.16.770,lexical_decision_task_MP_exp2,2020.2.5,Linux armv8l,60,,0,-0.313476563,-0.297593859,1,0,0,0.9151,button_left,0.9151,1,,,,,,270,NW,"ID",33,wrimsy,WRIMSY,z,,,,,,-0.313476563,-0.297593859,1,0,0,,0,65,65,269,1,
,,,,,,,,,,,,,,,,,,5ef913ee6095e369eda5b9d7,2020-11-27_15h03.16.770,lexical_decision_task_MP_exp2,2020.2.5,Linux armv8l,60,,0,-0.2890625,-0.306125217,1,0,0,0.9143,button_left,0.9143,1,,,,,,283,NW,"ID",33,veralf,VERALF,z,,,,,,-0.2890625,-0.306125217,1,0,0,,0,66,66,282,1,
,,,,,,,,,,,,,,,,,,5ef913ee6095e369eda5b9d7,2020-11-27_15h03.16.770,lexical_decision_task_MP_exp2,2020.2.5,Linux armv8l,60,,0,0.3515625,-0.313652886,1,0,0,0.7858,button_right,0.7858,1,,,,,,152,WORD,UN,33,behold,ROCKET,m,,,,,,0.3515625,-0.313652886,1,0,0,,0,67,67,151,1,
,,,,,,,,,,,,,,,,,,5ef913ee6095e369eda5b9d7,2020-11-27_15h03.16.770,lexical_decision_task_MP_exp2,2020.2.5,Linux armv8l,60,,0,0.364501953,-0.310139974,1,0,0,1.1007,button_right,1.1007,1,,,,,,143,WORD,UN,33,sponge,REASON,m,,,,,,0.364501953,-0.310139974,1,0,0,,0,68,68,142,1,
,,,,,,,,,,,,,,,,,,5ef913ee6095e369eda5b9d7,2020-11-27_15h03.16.770,lexical_decision_task_MP_exp2,2020.2.5,Linux armv8l,60,,0,-0.317871094,-0.2890625,1,0,0,0.9004,button_left,0.9004,1,,,,,,297,NW,"ID",33,fertic,FERTIC,z,,,,,,-0.317871094,-0.2890625,1,0,0,,0,69,69,296,1,
,,,,,,,,,,,,,,,,,,5ef913ee6095e369eda5b9d7,2020-11-27_15h03.16.770,lexical_decision_task_MP_exp2,2020.2.5,Linux armv8l,60,,0,0.366699219,-0.294080946,1,0,0,0.9837,button_right,0.9837,1,,,,,,2,WORD,"ID",33,bridge,BRIDGE,m,,,,,,0.366699219,-0.294080946,1,0,0,,0,70,70,1,1,
,,,,,,,,,,,,,,,,,,5ef913ee6095e369eda5b9d7,2020-11-27_15h03.16.770,lexical_decision_task_MP_exp2,2020.2.5,Linux armv8l,60,,0,0.371826172,-0.301106771,1,0,0,0.8177,button_right,0.8177,1,,,,,,205,WORD,UN,16,tailor,LOUNGE,m,,,,,,0.371826172,-0.301106771,1,0,0,,0,71,71,204,1,
,,,,,,,,,,,,,,,,,,5ef913ee6095e369eda5b9d7,2020-11-27_15h03.16.770,lexical_decision_task_MP_exp2,2020.2.5,Linux armv8l,60,,0,0.344482422,-0.333224826,1,0,0,0.7624,button_right,0.7624,1,,,,,,148,WORD,UN,33,invade,CUSTOM,m,,,,,,0.344482422,-0.333224826,1,0,0,,0,72,72,147,1,
,,,,,,,,,,,,,,,,,,5ef913ee6095e369eda5b9d7,2020-11-27_15h03.16.770,lexical_decision_task_MP_exp2,2020.2.5,Linux armv8l,60,,0,-0.350097656,-0.316663954,1,0,0,1.0004,button_left,1.0004,1,,,,,,431,NW,UN,16,lunker,CHRUMS,z,,,,,,-0.350097656,-0.316663954,1,0,0,,0,73,73,430,1,
,,,,,,,,,,,,,,,,,,5ef913ee6095e369eda5b9d7,2020-11-27_15h03.16.770,lexical_decision_task_MP_exp2,2020.2.5,Linux armv8l,60,,0,0.375976563,-0.330715603,1,0,0,0.7675,button_right,0.7675,1,,,,,,120,WORD,"ID",16,strain,STRAIN,m,,,,,,0.375976563,-0.330715603,1,0,0,,0,74,74,119,1,
,,,,,,,,,,,,,,,,,,5ef913ee6095e369eda5b9d7,2020-11-27_15h03.16.770,lexical_decision_task_MP_exp2,2020.2.5,Linux armv8l,60,,0,0.383056641,-0.343763563,1,0,0,1.3492,button_right,1.3492,0,,,,,,454,NW,UN,16,tondle,SCOUGE,z,,,,,,0.383056641,-0.343763563,1,0,0,,0,75,75,453,1,
,,,,,,,,,,,,,,,,,,5ef913ee6095e369eda5b9d7,2020-11-27_15h03.16.770,lexical_decision_task_MP_exp2,2020.2.5,Linux armv8l,60,,0,0.431884766,-0.274007161,1,0,0,0.9198,button_right,0.9198,1,,,,,,124,WORD,UN,33,nickel,BLOUSE,m,,,,,,0.431884766,-0.274007161,1,0,0,,0,76,76,123,1,
,,,,,,,,,,,,,,,,,,5ef913ee6095e369eda5b9d7,2020-11-27_15h03.16.770,lexical_decision_task_MP_exp2,2020.2.5,Linux armv8l,60,,0,-0.352783203,-0.327202691,1,0,0,0.8647,button_left,0.8647,1,,,,,,302,NW,"ID",16,miluer,MILUER,z,,,,,,-0.352783203,-0.327202691,1,0,0,,0,77,77,301,1,
,,,,,,,,,,,,,,,,,,5ef913ee6095e369eda5b9d7,2020-11-27_15h03.16.770,lexical_decision_task_MP_exp2,2020.2.5,Linux armv8l,60,,0,-0.29296875,-0.313151042,1,0,0,0.8494,button_left,0.8494,1,,,,,,361,NW,UN,33,tireau,PAUCHE,z,,,,,,-0.29296875,-0.313151042,1,0,0,,0,78,78,360,1,
,,,,,,,,,,,,,,,,,,5ef913ee6095e369eda5b9d7,2020-11-27_15h03.16.770,lexical_decision_task_MP_exp2,2020.2.5,Linux armv8l,60,,0,-0.304443359,-0.322686089,1,0,0,0.9002,button_left,0.9002,1,,,,,,333,NW,"ID",16,catrie,CATRIE,z,,,,,,-0.304443359,-0.322686089,1,0,0,,0,79,79,332,1,
,,,,,,,,,,,,,,,,,,5ef913ee6095e369eda5b9d7,2020-11-27_15h03.16.770,lexical_decision_task_MP_exp2,2020.2.5,Linux armv8l,60,,0,-0.288085938,-0.307128906,1,0,0,0.8019,button_left,0.8019,1,,,,,,292,NW,"ID",33,ablint,ABLINT,z,,,,,,-0.288085938,-0.307128906,1,0,0,,0,80,80,291,1,
,,,,,,,,,,,,,,,,,,5ef913ee6095e369eda5b9d7,2020-11-27_15h03.16.770,lexical_decision_task_MP_exp2,2020.2.5,Linux armv8l,60,,0,-0.31640625,-0.291571723,1,0,0,0.8329,button_left,0.8329,1,,,,,,301,NW,"ID",16,fainch,FAINCH,z,,,,,,-0.31640625,-0.291571723,1,0,0,,0,81,81,300,1,
,,,,,,,,,,,,,,,,,,5ef913ee6095e369eda5b9d7,2020-11-27_15h03.16.770,lexical_decision_task_MP_exp2,2020.2.5,Linux armv8l,60,,0,-0.297851563,-0.338243273,1,0,0,0.7985,button_left,0.7985,1,,,,,,464,NW,UN,16,whivex,CHAITE,z,,,,,,-0.297851563,-0.338243273,1,0,0,,0,82,82,463,1,
,,,,,,,,,,,,,,,,,,5ef913ee6095e369eda5b9d7,2020-11-27_15h03.16.770,lexical_decision_task_MP_exp2,2020.2.5,Linux armv8l,60,,0,-0.295166016,-0.316663954,1,0,0,0.8325,button_left,0.8325,1,,,,,,296,NW,"ID",33,beinch,BEINCH,z,,,,,,-0.295166016,-0.316663954,1,0,0,,0,83,83,295,1,
,,,,,,,,,,,,,,,,,,5ef913ee6095e369eda5b9d7,2020-11-27_15h03.16.770,lexical_decision_task_MP_exp2,2020.2.5,Linux armv8l,60,,0,-0.306396484,-0.327704536,1,0,0,0.8338,button_left,0.8338,1,,,,,,394,NW,UN,33,colury,SPAQUX,z,,,,,,-0.306396484,-0.327704536,1,0,0,,0,84,84,393,1,
,,,,,,,,,,,,,,,,,,5ef913ee6095e369eda5b9d7,2020-11-27_15h03.16.770,lexical_decision_task_MP_exp2,2020.2.5,Linux armv8l,60,,0,0.395996094,-0.316663954,1,0,0,0.8017,button_right,0.8017,1,,,,,,175,WORD,UN,33,strife,FABRIC,m,,,,,,0.395996094,-0.316663954,1,0,0,,0,85,85,174,1,
,,,,,,,,,,,,,,,,,,5ef913ee6095e369eda5b9d7,2020-11-27_15h03.16.770,lexical_decision_task_MP_exp2,2020.2.5,Linux armv8l,60,,0,0.394287109,-0.350287543,1,0,0,0.7154,button_right,0.7154,1,,,,,,112,WORD,"ID",16,breath,BREATH,m,,,,,,0.394287109,-0.350287543,1,0,0,,0,86,86,111,1,
,,,,,,,,,,,,,,,,,,5ef913ee6095e369eda5b9d7,2020-11-27_15h03.16.770,lexical_decision_task_MP_exp2,2020.2.5,Linux armv8l,60,,0,-0.333984375,-0.306627062,1,0,0,0.7819,button_left,0.7819,1,,,,,,355,NW,"ID",16,zingly,ZINGLY,z,,,,,,-0.333984375,-0.306627062,1,0,0,,0,87,87,354,1,
,,,,,,,,,,,,,,,,,,5ef913ee6095e369eda5b9d7,2020-11-27_15h03.16.770,lexical_decision_task_MP_exp2,2020.2.5,Linux armv8l,60,,0,0.410400391,-0.307630751,1,0,0,1.2168,button_right,1.2168,1,,,,,,176,WORD,UN,33,advent,STRIFE,m,,,,,,0.410400391,-0.307630751,1,0,0,,0,88,88,175,1,
,,,,,,,,,,,,,,,,,,5ef913ee6095e369eda5b9d7,2020-11-27_15h03.16.770,lexical_decision_task_MP_exp2,2020.2.5,Linux armv8l,60,,0,-0.315673828,-0.29558648,1,0,0,1.5708,button_left,1.5708,1,,,,,,253,NW,"ID",33,resait,RESAIT,z,,,,,,-0.315673828,-0.29558648,1,0,0,,0,89,89,252,1,
,,,,,,,,,,,,,,,,,,5ef913ee6095e369eda5b9d7,2020-11-27_15h03.16.770,lexical_decision_task_MP_exp2,2020.2.5,Linux armv8l,60,,0,-0.284912109,-0.297593859,1,0,0,0.8496,button_left,0.8496,1,,,,,,457,NW,UN,16,barcet,WANIGH,z,,,,,,-0.284912109,-0.297593859,1,0,0,,0,90,90,456,1,
,,,,,,,,,,,,,,,,,,5ef913ee6095e369eda5b9d7,2020-11-27_15h03.16.770,lexical_decision_task_MP_exp2,2020.2.5,Linux armv8l,60,,0,-0.270019531,-0.295084635,1,0,0,0.7665,button_left,0.7665,1,,,,,,480,NW,UN,16,knisma,ROBULY,z,,,,,,-0.270019531,-0.295084635,1,0,0,,0,91,91,479,1,
,,,,,,,,,,,,,,,,,,5ef913ee6095e369eda5b9d7,2020-11-27_15h03.16.770,lexical_decision_task_MP_exp2,2020.2.5,Linux armv8l,60,,0,-0.324707031,-0.32820638,1,0,0,0.7671,button_left,0.7671,1,,,,,,288,NW,"ID",33,yaceup,YACEUP,z,,,,,,-0.324707031,-0.32820638,1,0,0,,0,92,92,287,1,
,,,,,,,,,,,,,,,,,,5ef913ee6095e369eda5b9d7,2020-11-27_15h03.16.770,lexical_decision_task_MP_exp2,2020.2.5,Linux armv8l,60,,0,0.392578125,-0.306627062,1,0,0,0.8682,button_right,0.8682,1,,,,,,240,WORD,UN,16,glance,FOREST,m,,,,,,0.392578125,-0.306627062,1,0,0,,0,93,93,239,1,
,,,,,,,,,,,,,,,,,,5ef913ee6095e369eda5b9d7,2020-11-27_15h03.16.770,lexical_decision_task_MP_exp2,2020.2.5,Linux armv8l,60,,0,-0.364501953,-0.327202691,1,0,0,0.9007,button_left,0.9007,1,,,,,,460,NW,UN,16,justre,MINGAR,z,,,,,,-0.364501953,-0.327202691,1,0,0,,0,94,94,459,1,
,,,,,,,,,,,,,,,,,,5ef913ee6095e369eda5b9d7,2020-11-27_15h03.16.770,lexical_decision_task_MP_exp2,2020.2.5,Linux armv8l,60,,0,0.397460938,-0.306125217,1,0,0,1.37,button_right,1.37,0,,,,,,325,NW,"ID",16,thruse,THRUSE,z,,,,,,0.397460938,-0.306125217,1,0,0,,0,95,95,324,1,
,,,,,,,,,,,,,,,,,,5ef913ee6095e369eda5b9d7,2020-11-27_15h03.16.770,lexical_decision_task_MP_exp2,2020.2.5,Linux armv8l,60,,0,0.373291016,-0.331719293,1,0,0,0.7176,button_right,0.7176,1,,,,,,80,WORD,"ID",16,family,FAMILY,m,,,,,,0.373291016,-0.331719293,1,0,0,,0,96,96,79,1,
,,,,,,,,,,,,,,,,,,5ef913ee6095e369eda5b9d7,2020-11-27_15h03.16.770,lexical_decision_task_MP_exp2,2020.2.5,Linux armv8l,60,,0,-0.344238281,-0.311143663,1,0,0,0.9337,button_left,0.9337,1,,,,,,410,NW,UN,33,orchin,TUNORY,z,,,,,,-0.344238281,-0.311143663,1,0,0,,0,97,97,409,1,
,,,,,,,,,,,,,,,,,,5ef913ee6095e369eda5b9d7,2020-11-27_15h03.16.770,lexical_decision_task_MP_exp2,2020.2.5,Linux armv8l,60,,0,0.361816406,-0.305623372,1,0,0,0.7493,button_right,0.7493,1,,,,,,188,WORD,UN,16,censor,SOCIAL,m,,,,,,0.361816406,-0.305623372,1,0,0,,0,98,98,187,1,
,,,,,,,,,,,,,,,,,,5ef913ee6095e369eda5b9d7,2020-11-27_15h03.16.770,lexical_decision_task_MP_exp2,2020.2.5,Linux armv8l,60,,0,0.361572266,-0.349283854,1,0,0,1.0189,button_right,1.0189,1,,,,,,78,WORD,"ID",16,column,COLUMN,m,,,,,,0.361572266,-0.349283854,1,0,0,,0,99,99,77,1,
,,,,,,,,,,,,,,,,,,5ef913ee6095e369eda5b9d7,2020-11-27_15h03.16.770,lexical_decision_task_MP_exp2,2020.2.5,Linux armv8l,60,,0,0.343505859,-0.320678711,1,0,0,0.9028,button_right,0.9028,1,,,,,,154,WORD,UN,33,lizard,AUTHOR,m,,,,,,0.343505859,-0.320678711,1,0,0,,0,100,100,153,1,
,,,,,,,,,,,,,,,,,,5ef913ee6095e369eda5b9d7,2020-11-27_15h03.16.770,lexical_decision_task_MP_exp2,2020.2.5,Linux armv8l,60,,0,0.371337891,-0.323689779,1,0,0,0.801,button_right,0.801,1,,,,,,214,WORD,UN,16,phobia,INTAKE,m,,,,,,0.371337891,-0.323689779,1,0,0,,0,101,101,213,1,
,,,,,,,,,,,,,,,,,,5ef913ee6095e369eda5b9d7,2020-11-27_15h03.16.770,lexical_decision_task_MP_exp2,2020.2.5,Linux armv8l,60,,0,-0.319580078,-0.294080946,1,0,0,0.883,button_left,0.883,1,,,,,,332,NW,"ID",16,vangue,VANGUE,z,,,,,,-0.319580078,-0.294080946,1,0,0,,0,102,102,331,1,
,,,,,,,,,,,,,,,,,,5ef913ee6095e369eda5b9d7,2020-11-27_15h03.16.770,lexical_decision_task_MP_exp2,2020.2.5,Linux armv8l,60,,0,0.400878906,-0.246907552,1,0,0,0.8157,button_right,0.8157,1,,,,,,8,WORD,"ID",33,abrupt,ABRUPT,m,,,,,,0.400878906,-0.246907552,1,0,0,,0,103,103,7,1,
,,,,,,,,,,,,,,,,,,5ef913ee6095e369eda5b9d7,2020-11-27_15h03.16.770,lexical_decision_task_MP_exp2,2020.2.5,Linux armv8l,60,,0,0.379394531,-0.338243273,1,0,0,0.8156,button_right,0.8156,1,,,,,,190,WORD,UN,16,stable,BACKUP,m,,,,,,0.379394531,-0.338243273,1,0,0,,0,104,104,189,1,
,,,,,,,,,,,,,,,,,,5ef913ee6095e369eda5b9d7,2020-11-27_15h03.16.770,lexical_decision_task_MP_exp2,2020.2.5,Linux armv8l,60,,0,0.373535156,-0.354804145,1,0,0,0.749,button_right,0.749,1,,,,,,198,WORD,UN,16,invoke,WICKED,m,,,,,,0.373535156,-0.354804145,1,0,0,,0,105,105,197,1,
,,,,,,,,,,,,,,,,,,5ef913ee6095e369eda5b9d7,2020-11-27_15h03.16.770,lexical_decision_task_MP_exp2,2020.2.5,Linux armv8l,60,,0,0.367431641,-0.339246962,1,0,0,1.0352,button_right,1.0352,0,,,,,,452,NW,UN,16,bolvis,SURDEN,z,,,,,,0.367431641,-0.339246962,1,0,0,,0,106,106,451,1,
,,,,,,,,,,,,,,,,,,5ef913ee6095e369eda5b9d7,2020-11-27_15h03.16.770,lexical_decision_task_MP_exp2,2020.2.5,Linux armv8l,60,,0,-0.315673828,-0.325697157,1,0,0,0.8658,button_left,0.8658,1,,,,,,369,NW,UN,33,sleact,WRONCH,z,,,,,,-0.315673828,-0.325697157,1,0,0,,0,107,107,368,1,
,,,,,,,,,,,,,,,,,,5ef913ee6095e369eda5b9d7,2020-11-27_15h03.16.770,lexical_decision_task_MP_exp2,2020.2.5,Linux armv8l,60,,0,0.369140625,-0.260959201,1,0,0,0.9141,button_right,0.9141,1,,,,,,146,WORD,UN,33,garlic,COUPLE,m,,,,,,0.369140625,-0.260959201,1,0,0,,0,108,108,145,1,
,,,,,,,,,,,,,,,,,,5ef913ee6095e369eda5b9d7,2020-11-27_15h03.16.770,lexical_decision_task_MP_exp2,2020.2.5,Linux armv8l,60,,0,-0.341064453,-0.296590169,1,0,0,0.9157,button_left,0.9157,1,,,,,,318,NW,"ID",16,reagly,REAGLY,z,,,,,,-0.341064453,-0.296590169,1,0,0,,0,109,109,317,1,
,,,,,,,,,,,,,,,,,,5ef913ee6095e369eda5b9d7,2020-11-27_15h03.16.770,lexical_decision_task_MP_exp2,2020.2.5,Linux armv8l,60,,0,0.308349609,-0.280029297,1,0,0,0.8663,button_right,0.8663,1,,,,,,55,WORD,"ID",33,stroke,STROKE,m,,,,,,0.308349609,-0.280029297,1,0,0,,0,110,110,54,1,
,,,,,,,,,,,,,,,,,,5ef913ee6095e369eda5b9d7,2020-11-27_15h03.16.770,lexical_decision_task_MP_exp2,2020.2.5,Linux armv8l,60,,0,0.381835938,-0.363837348,1,0,0,0.7669,button_right,0.7669,1,,,,,,6,WORD,"ID",33,bundle,BUNDLE,m,,,,,,0.381835938,-0.363837348,1,0,0,,0,111,111,5,1,
,,,,,,,,,,,,,,,,,,5ef913ee6095e369eda5b9d7,2020-11-27_15h03.16.770,lexical_decision_task_MP_exp2,2020.2.5,Linux armv8l,60,,0,-0.275146484,-0.324693468,1,0,0,0.9162,button_left,0.9162,1,,,,,,365,NW,UN,33,toshel,GUAIRT,z,,,,,,-0.275146484,-0.324693468,1,0,0,,0,112,112,364,1,
,,,,,,,,,,,,,,,,,,5ef913ee6095e369eda5b9d7,2020-11-27_15h03.16.770,lexical_decision_task_MP_exp2,2020.2.5,Linux armv8l,60,,0,0.382324219,-0.308132595,1,0,0,0.8471,button_right,0.8471,1,,,,,,162,WORD,UN,33,string,CANDLE,m,,,,,,0.382324219,-0.308132595,1,0,0,,0,113,113,161,1,
,,,,,,,,,,,,,,,,,,5ef913ee6095e369eda5b9d7,2020-11-27_15h03.16.770,lexical_decision_task_MP_exp2,2020.2.5,Linux armv8l,60,,0,0.348632813,-0.314656576,1,0,0,1.5,button_right,1.5,1,,,,,,125,WORD,UN,33,blouse,NICKEL,m,,,,,,0.348632813,-0.314656576,1,0,0,,0,114,114,124,1,
,,,,,,,,,,,,,,,,,,5ef913ee6095e369eda5b9d7,2020-11-27_15h03.16.770,lexical_decision_task_MP_exp2,2020.2.5,Linux armv8l,60,,0,-0.313476563,-0.293077257,1,0,0,0.8773,button_left,0.8773,1,,,,,,359,NW,"ID",16,fonver,FONVER,z,,,,,,-0.313476563,-0.293077257,1,0,0,,0,115,115,358,1,
,,,,,,,,,,,,,,,,,,5ef913ee6095e369eda5b9d7,2020-11-27_15h03.16.770,lexical_decision_task_MP_exp2,2020.2.5,Linux armv8l,60,,0,-0.286865234,-0.319173177,1,0,0,1.2674,button_left,1.2674,1,,,,,,261,NW,"ID",33,stunch,STUNCH,z,,,,,,-0.286865234,-0.319173177,1,0,0,,0,116,116,260,1,
,,,,,,,,,,,,,,,,,,5ef913ee6095e369eda5b9d7,2020-11-27_15h03.16.770,lexical_decision_task_MP_exp2,2020.2.5,Linux armv8l,60,,0,0.337158203,-0.296088325,1,0,0,0.9653,button_right,0.9653,1,,,,,,184,WORD,UN,16,bother,SLEAZY,m,,,,,,0.337158203,-0.296088325,1,0,0,,0,117,117,183,1,
,,,,,,,,,,,,,,,,,,5ef913ee6095e369eda5b9d7,2020-11-27_15h03.16.770,lexical_decision_task_MP_exp2,2020.2.5,Linux armv8l,60,,0,0.372802734,-0.304619683,1,0,0,1.1037,button_right,1.1037,1,,,,,,63,WORD,"ID",16,launch,LAUNCH,m,,,,,,0.372802734,-0.304619683,1,0,0,,0,118,118,62,1,
,,,,,,,,,,,,,,,,,,5ef913ee6095e369eda5b9d7,2020-11-27_15h03.16.770,lexical_decision_task_MP_exp2,2020.2.5,Linux armv8l,60,,0,-0.328369141,-0.314656576,1,0,0,0.8517,button_left,0.8517,1,,,,,,278,NW,"ID",33,unighs,UNIGHS,z,,,,,,-0.328369141,-0.314656576,1,0,0,,0,119,119,277,1,
,,,,,,,,,,,,,,,,,,5ef913ee6095e369eda5b9d7,2020-11-27_15h03.16.770,lexical_decision_task_MP_exp2,2020.2.5,Linux armv8l,60,,0,-0.305419922,-0.308132595,1,0,0,0.9668,button_left,0.9668,1,,,,,,437,NW,UN,16,baitch,SNAPEL,z,,,,,,0.100341797,-0.395453559,1,0,0,,0,120,120,436,1,break_done_button
,,,,,,,,,,,,,,,,,,5ef913ee6095e369eda5b9d7,2020-11-27_15h03.16.770,lexical_decision_task_MP_exp2,2020.2.5,Linux armv8l,60,,0,-0.302246094,-0.285549588,1,0,0,1.4503,button_left,1.4503,1,,,,,,424,NW,UN,16,urivel,PRAILE,z,,,,,,-0.302246094,-0.285549588,1,0,0,,0,121,121,423,1,
,,,,,,,,,,,,,,,,,,5ef913ee6095e369eda5b9d7,2020-11-27_15h03.16.770,lexical_decision_task_MP_exp2,2020.2.5,Linux armv8l,60,,0,0.396240234,-0.313151042,1,0,0,0.8155,button_right,0.8155,1,,,,,,22,WORD,"ID",33,jockey,JOCKEY,m,,,,,,0.396240234,-0.313151042,1,0,0,,0,122,122,21,1,
,,,,,,,,,,,,,,,,,,5ef913ee6095e369eda5b9d7,2020-11-27_15h03.16.770,lexical_decision_task_MP_exp2,2020.2.5,Linux armv8l,60,,0,0.386474609,-0.324693468,1,0,0,0.7012,button_right,0.7012,1,,,,,,115,WORD,"ID",16,guitar,GUITAR,m,,,,,,0.386474609,-0.324693468,1,0,0,,0,123,123,114,1,
,,,,,,,,,,,,,,,,,,5ef913ee6095e369eda5b9d7,2020-11-27_15h03.16.770,lexical_decision_task_MP_exp2,2020.2.5,Linux armv8l,60,,0,-0.268798828,-0.314154731,1,0,0,1.3659,button_left,1.3659,1,,,,,,331,NW,"ID",16,gilfew,GILFEW,z,,,,,,-0.268798828,-0.314154731,1,0,0,,0,124,124,330,1,
,,,,,,,,,,,,,,,,,,5ef913ee6095e369eda5b9d7,2020-11-27_15h03.16.770,lexical_decision_task_MP_exp2,2020.2.5,Linux armv8l,60,,0,-0.301513672,-0.296590169,1,0,0,0.8661,button_left,0.8661,1,,,,,,347,NW,"ID",16,kerift,KERIFT,z,,,,,,-0.301513672,-0.296590169,1,0,0,,0,125,125,346,1,
,,,,,,,,,,,,,,,,,,5ef913ee6095e369eda5b9d7,2020-11-27_15h03.16.770,lexical_decision_task_MP_exp2,2020.2.5,Linux armv8l,60,,0,0.406738281,-0.31515842,1,0,0,0.8168,button_right,0.8168,1,,,,,,65,WORD,"ID",16,symbol,SYMBOL,m,,,,,,0.406738281,-0.31515842,1,0,0,,0,126,126,64,1,
,,,,,,,,,,,,,,,,,,5ef913ee6095e369eda5b9d7,2020-11-27_15h03.16.770,lexical_decision_task_MP_exp2,2020.2.5,Linux armv8l,60,,0,-0.308349609,-0.296088325,1,0,0,0.7838,button_left,0.7838,1,,,,,,279,NW,"ID",33,celond,CELOND,z,,,,,,-0.308349609,-0.296088325,1,0,0,,0,127,127,278,1,
,,,,,,,,,,,,,,,,,,5ef913ee6095e369eda5b9d7,2020-11-27_15h03.16.770,lexical_decision_task_MP_exp2,2020.2.5,Linux armv8l,60,,0,-0.270751953,-0.308132595,1,0,0,0.8823,button_left,0.8823,1,,,,,,397,NW,UN,33,blunde,CAMBLE,z,,,,,,-0.270751953,-0.308132595,1,0,0,,0,128,128,396,1,
,,,,,,,,,,,,,,,,,,5ef913ee6095e369eda5b9d7,2020-11-27_15h03.16.770,lexical_decision_task_MP_exp2,2020.2.5,Linux armv8l,60,,0,-0.280273438,-0.279527452,1,0,0,0.7958,button_left,0.7958,1,,,,,,368,NW,UN,33,wronch,HORNAL,z,,,,,,-0.280273438,-0.279527452,1,0,0,,0,129,129,367,1,
,,,,,,,,,,,,,,,,,,5ef913ee6095e369eda5b9d7,2020-11-27_15h03.16.770,lexical_decision_task_MP_exp2,2020.2.5,Linux armv8l,60,,0,-0.283935547,-0.293077257,1,0,0,0.6821,button_left,0.6821,1,,,,,,383,NW,UN,33,guesco,AUNGRE,z,,,,,,-0.283935547,-0.293077257,1,0,0,,0,130,130,382,1,
,,,,,,,,,,,,,,,,,,5ef913ee6095e369eda5b9d7,2020-11-27_15h03.16.770,lexical_decision_task_MP_exp2,2020.2.5,Linux armv8l,60,,0,0.350341797,-0.302612305,1,0,0,0.7846,button_right,0.7846,1,,,,,,14,WORD,"ID",33,almost,ALMOST,m,,,,,,0.350341797,-0.302612305,1,0,0,,0,131,131,13,1,
,,,,,,,,,,,,,,,,,,5ef913ee6095e369eda5b9d7,2020-11-27_15h03.16.770,lexical_decision_task_MP_exp2,2020.2.5,Linux armv8l,60,,0,-0.323242188,-0.298597548,1,0,0,0.9985,button_left,0.9985,1,,,,,,421,NW,UN,16,alcoud,KNISMA,z,,,,,,-0.323242188,-0.298597548,1,0,0,,0,132,132,420,1,
,,,,,,,,,,,,,,,,,,5ef913ee6095e369eda5b9d7,2020-11-27_15h03.16.770,lexical_decision_task_MP_exp2,2020.2.5,Linux armv8l,60,,0,0.344970703,-0.301106771,1,0,0,0.8329,button_right,0.8329,1,,,,,,211,WORD,UN,16,verify,INFECT,m,,,,,,0.344970703,-0.301106771,1,0,0,,0,133,133,210,1,
,,,,,,,,,,,,,,,,,,5ef913ee6095e369eda5b9d7,2020-11-27_15h03.16.770,lexical_decision_task_MP_exp2,2020.2.5,Linux armv8l,60,,0,0.390136719,-0.323187934,1,0,0,0.7683,button_right,0.7683,1,,,,,,193,WORD,UN,16,plague,OBJECT,m,,,,,,0.390136719,-0.323187934,1,0,0,,0,134,134,192,1,
,,,,,,,,,,,,,,,,,,5ef913ee6095e369eda5b9d7,2020-11-27_15h03.16.770,lexical_decision_task_MP_exp2,2020.2.5,Linux armv8l,60,,0,-0.300537109,-0.299601237,1,0,0,0.8356,button_left,0.8356,1,,,,,,354,NW,"ID",16,virlex,VIRLEX,z,,,,,,-0.300537109,-0.299601237,1,0,0,,0,135,135,353,1,
,,,,,,,,,,,,,,,,,,5ef913ee6095e369eda5b9d7,2020-11-27_15h03.16.770,lexical_decision_task_MP_exp2,2020.2.5,Linux armv8l,60,,0,-0.277099609,-0.308132595,1,0,0,1.0346,button_left,1.0346,1,,,,,,274,NW,"ID",33,fumblo,FUMBLO,z,,,,,,-0.277099609,-0.308132595,1,0,0,,0,136,136,273,1,
,,,,,,,,,,,,,,,,,,5ef913ee6095e369eda5b9d7,2020-11-27_15h03.16.770,lexical_decision_task_MP_exp2,2020.2.5,Linux armv8l,60,,0,0.306884766,-0.316162109,1,0,0,0.7829,button_right,0.7829,1,,,,,,174,WORD,UN,33,fabric,TURKEY,m,,,,,,0.306884766,-0.316162109,1,0,0,,0,137,137,173,1,
,,,,,,,,,,,,,,,,,,5ef913ee6095e369eda5b9d7,2020-11-27_15h03.16.770,lexical_decision_task_MP_exp2,2020.2.5,Linux armv8l,60,,0,-0.296142578,-0.301106771,1,0,0,0.8982,button_left,0.8982,1,,,,,,441,NW,UN,16,aboune,RASTOE,z,,,,,,-0.296142578,-0.301106771,1,0,0,,0,138,138,440,1,
,,,,,,,,,,,,,,,,,,5ef913ee6095e369eda5b9d7,2020-11-27_15h03.16.770,lexical_decision_task_MP_exp2,2020.2.5,Linux armv8l,60,,0,-0.298828125,-0.334228516,1,0,0,0.7634,button_left,0.7634,1,,,,,,387,NW,UN,33,cragin,GRONCE,z,,,,,,-0.298828125,-0.334228516,1,0,0,,0,139,139,386,1,
,,,,,,,,,,,,,,,,,,5ef913ee6095e369eda5b9d7,2020-11-27_15h03.16.770,lexical_decision_task_MP_exp2,2020.2.5,Linux armv8l,60,,0,-0.259033203,-0.320678711,1,0,0,0.7659,button_left,0.7659,1,,,,,,374,NW,UN,33,yorque,SLIANT,z,,,,,,-0.259033203,-0.320678711,1,0,0,,0,140,140,373,1,
,,,,,,,,,,,,,,,,,,5ef913ee6095e369eda5b9d7,2020-11-27_15h03.16.770,lexical_decision_task_MP_exp2,2020.2.5,Linux armv8l,60,,0,0.360107422,-0.287556966,1,0,0,1.0012,button_right,1.0012,1,,,,,,90,WORD,"ID",16,relish,RELISH,m,,,,,,0.360107422,-0.287556966,1,0,0,,0,141,141,89,1,
,,,,,,,,,,,,,,,,,,5ef913ee6095e369eda5b9d7,2020-11-27_15h03.16.770,lexical_decision_task_MP_exp2,2020.2.5,Linux armv8l,60,,0,0.394775391,-0.282036675,1,0,0,1.0164,button_right,1.0164,1,,,,,,170,WORD,UN,33,depart,POUNCE,m,,,,,,0.394775391,-0.282036675,1,0,0,,0,142,142,169,1,
,,,,,,,,,,,,,,,,,,5ef913ee6095e369eda5b9d7,2020-11-27_15h03.16.770,lexical_decision_task_MP_exp2,2020.2.5,Linux armv8l,60,,0,-0.299804688,-0.285549588,1,0,0,0.7995,button_left,0.7995,1,,,,,,439,NW,UN,16,saride,LIMPOR,z,,,,,,-0.299804688,-0.285549588,1,0,0,,0,143,143,438,1,
,,,,,,,,,,,,,,,,,,5ef913ee6095e369eda5b9d7,2020-11-27_15h03.16.770,lexical_decision_task_MP_exp2,2020.2.5,Linux armv8l,60,,0,-0.278808594,-0.294080946,1,0,0,0.7812,button_left,0.7812,1,,,,,,433,NW,UN,16,pitrom,DRANCE,z,,,,,,-0.278808594,-0.294080946,1,0,0,,0,144,144,432,1,
,,,,,,,,,,,,,,,,,,5ef913ee6095e369eda5b9d7,2020-11-27_15h03.16.770,lexical_decision_task_MP_exp2,2020.2.5,Linux armv8l,60,,0,0.385253906,-0.307128906,1,0,0,0.9153,button_right,0.9153,1,,,,,,94,WORD,"ID",16,travel,TRAVEL,m,,,,,,0.385253906,-0.307128906,1,0,0,,0,145,145,93,1,
,,,,,,,,,,,,,,,,,,5ef913ee6095e369eda5b9d7,2020-11-27_15h03.16.770,lexical_decision_task_MP_exp2,2020.2.5,Linux armv8l,60,,0,-0.296875,-0.305121528,1,0,0,0.7504,button_left,0.7504,1,,,,,,402,NW,UN,33,bruats,SYNTIC,z,,,,,,-0.296875,-0.305121528,1,0,0,,0,146,146,401,1,
,,,,,,,,,,,,,,,,,,5ef913ee6095e369eda5b9d7,2020-11-27_15h03.16.770,lexical_decision_task_MP_exp2,2020.2.5,Linux armv8l,60,,0,0.368652344,-0.326700846,1,0,0,1.0177,button_right,1.0177,1,,,,,,135,WORD,UN,33,chrome,IMPORT,m,,,,,,0.368652344,-0.326700846,1,0,0,,0,147,147,134,1,
,,,,,,,,,,,,,,,,,,5ef913ee6095e369eda5b9d7,2020-11-27_15h03.16.770,lexical_decision_task_MP_exp2,2020.2.5,Linux armv8l,60,,0,-0.364013672,-0.307128906,1,0,0,0.8817,button_left,0.8817,1,,,,,,401,NW,UN,33,elopia,MUSTIL,z,,,,,,-0.364013672,-0.307128906,1,0,0,,0,148,148,400,1,
,,,,,,,,,,,,,,,,,,5ef913ee6095e369eda5b9d7,2020-11-27_15h03.16.770,lexical_decision_task_MP_exp2,2020.2.5,Linux armv8l,60,,0,-0.296142578,-0.298597548,1,0,0,0.8157,button_left,0.8157,1,,,,,,438,NW,UN,16,limpor,BAITCH,z,,,,,,-0.296142578,-0.298597548,1,0,0,,0,149,149,437,1,
,,,,,,,,,,,,,,,,,,5ef913ee6095e369eda5b9d7,2020-11-27_15h03.16.770,lexical_decision_task_MP_exp2,2020.2.5,Linux armv8l,60,,0,0.438476563,-0.271999783,1,0,0,0.7639,button_right,0.7639,1,,,,,,48,WORD,"ID",33,walnut,WALNUT,m,,,,,,0.438476563,-0.271999783,1,0,0,,0,150,150,47,1,
,,,,,,,,,,,,,,,,,,5ef913ee6095e369eda5b9d7,2020-11-27_15h03.16.770,lexical_decision_task_MP_exp2,2020.2.5,Linux armv8l,60,,0,-0.34765625,-0.330213759,1,0,0,0.8544,button_left,0.8544,1,,,,,,445,NW,UN,16,runamo,MINKEL,z,,,,,,-0.34765625,-0.330213759,1,0,0,,0,151,151,444,1,
,,,,,,,,,,,,,,,,,,5ef913ee6095e369eda5b9d7,2020-11-27_15h03.16.770,lexical_decision_task_MP_exp2,2020.2.5,Linux armv8l,60,,0,-0.305664063,-0.306627062,1,0,0,0.9658,button_left,0.9658,1,,,,,,271,NW,"ID",33,aubrid,AUBRID,z,,,,,,-0.305664063,-0.306627062,1,0,0,,0,152,152,270,1,
,,,,,,,,,,,,,,,,,,5ef913ee6095e369eda5b9d7,2020-11-27_15h03.16.770,lexical_decision_task_MP_exp2,2020.2.5,Linux armv8l,60,,0,0.377685547,-0.298095703,1,0,0,0.7797,button_right,0.7797,1,,,,,,237,WORD,UN,16,seldom,POSTER,m,,,,,,0.377685547,-0.298095703,1,0,0,,0,153,153,236,1,
,,,,,,,,,,,,,,,,,,5ef913ee6095e369eda5b9d7,2020-11-27_15h03.16.770,lexical_decision_task_MP_exp2,2020.2.5,Linux armv8l,60,,0,0.296142578,-0.305623372,1,0,0,0.8183,button_right,0.8183,1,,,,,,26,WORD,"ID",33,sprint,SPRINT,m,,,,,,0.296142578,-0.305623372,1,0,0,,0,154,154,25,1,
,,,,,,,,,,,,,,,,,,5ef913ee6095e369eda5b9d7,2020-11-27_15h03.16.770,lexical_decision_task_MP_exp2,2020.2.5,Linux armv8l,60,,0,-0.308105469,-0.310139974,1,0,0,0.8817,button_left,0.8817,1,,,,,,256,NW,"ID",33,inlors,INLORS,z,,,,,,-0.308105469,-0.310139974,1,0,0,,0,155,155,255,1,
,,,,,,,,,,,,,,,,,,5ef913ee6095e369eda5b9d7,2020-11-27_15h03.16.770,lexical_decision_task_MP_exp2,2020.2.5,Linux armv8l,60,,0,0.33203125,-0.326700846,1,0,0,0.7145,button_right,0.7145,1,,,,,,168,WORD,UN,33,genius,ANSWER,m,,,,,,0.33203125,-0.326700846,1,0,0,,0,156,156,167,1,
,,,,,,,,,,,,,,,,,,5ef913ee6095e369eda5b9d7,2020-11-27_15h03.16.770,lexical_decision_task_MP_exp2,2020.2.5,Linux armv8l,60,,0,0.318847656,-0.34878201,1,0,0,0.7802,button_right,0.7802,1,,,,,,116,WORD,"ID",16,tumble,TUMBLE,m,,,,,,0.318847656,-0.34878201,1,0,0,,0,157,157,115,1,
,,,,,,,,,,,,,,,,,,5ef913ee6095e369eda5b9d7,2020-11-27_15h03.16.770,lexical_decision_task_MP_exp2,2020.2.5,Linux armv8l,60,,0,0.340087891,-0.340752496,1,0,0,0.709,button_right,0.709,1,,,,,,153,WORD,UN,33,author,BEHOLD,m,,,,,,0.340087891,-0.340752496,1,0,0,,0,158,158,152,1,
,,,,,,,,,,,,,,,,,,5ef913ee6095e369eda5b9d7,2020-11-27_15h03.16.770,lexical_decision_task_MP_exp2,2020.2.5,Linux armv8l,60,,0,0.347412109,-0.292575412,1,0,0,0.9325,button_right,0.9325,1,,,,,,159,WORD,UN,33,violet,DETAIL,m,,,,,,0.347412109,-0.292575412,1,0,0,,0,159,159,158,1,
,,,,,,,,,,,,,,,,,,5ef913ee6095e369eda5b9d7,2020-11-27_15h03.16.770,lexical_decision_task_MP_exp2,2020.2.5,Linux armv8l,60,,0,0.379638672,-0.331719293,1,0,0,0.631,button_right,0.631,1,,,,,,229,WORD,UN,16,fringe,MOTHER,m,,,,,,0.379638672,-0.331719293,1,0,0,,0,160,160,228,1,
,,,,,,,,,,,,,,,,,,5ef913ee6095e369eda5b9d7,2020-11-27_15h03.16.770,lexical_decision_task_MP_exp2,2020.2.5,Linux armv8l,60,,0,-0.305664063,-0.316663954,1,0,0,0.766,button_left,0.766,1,,,,,,307,NW,"ID",16,kirafe,KIRAFE,z,,,,,,-0.305664063,-0.316663954,1,0,0,,0,161,161,306,1,
,,,,,,,,,,,,,,,,,,5ef913ee6095e369eda5b9d7,2020-11-27_15h03.16.770,lexical_decision_task_MP_exp2,2020.2.5,Linux armv8l,60,,0,0.330322266,-0.344265408,1,0,0,1.1173,button_right,1.1173,1,,,,,,122,WORD,UN,33,strike,LINGER,m,,,,,,0.330322266,-0.344265408,1,0,0,,0,162,162,121,1,
,,,,,,,,,,,,,,,,,,5ef913ee6095e369eda5b9d7,2020-11-27_15h03.16.770,lexical_decision_task_MP_exp2,2020.2.5,Linux armv8l,60,,0,0.377929688,-0.313652886,1,0,0,0.9321,button_right,0.9321,1,,,,,,215,WORD,UN,16,behalf,PHOBIA,m,,,,,,0.377929688,-0.313652886,1,0,0,,0,163,163,214,1,
,,,,,,,,,,,,,,,,,,5ef913ee6095e369eda5b9d7,2020-11-27_15h03.16.770,lexical_decision_task_MP_exp2,2020.2.5,Linux armv8l,60,,0,0.363525391,-0.301608615,1,0,0,0.6825,button_right,0.6825,1,,,,,,149,WORD,UN,33,random,INVADE,m,,,,,,0.363525391,-0.301608615,1,0,0,,0,164,164,148,1,
,,,,,,,,,,,,,,,,,,5ef913ee6095e369eda5b9d7,2020-11-27_15h03.16.770,lexical_decision_task_MP_exp2,2020.2.5,Linux armv8l,60,,0,0.364746094,-0.325195313,1,0,0,0.7004,button_right,0.7004,1,,,,,,88,WORD,"ID",16,hunger,HUNGER,m,,,,,,0.364746094,-0.325195313,1,0,0,,0,165,165,87,1,
,,,,,,,,,,,,,,,,,,5ef913ee6095e369eda5b9d7,2020-11-27_15h03.16.770,lexical_decision_task_MP_exp2,2020.2.5,Linux armv8l,60,,0,-0.268798828,-0.3216824,1,0,0,0.8821,button_left,0.8821,1,,,,,,455,NW,UN,16,broget,TONDLE,z,,,,,,-0.268798828,-0.3216824,1,0,0,,0,166,166,454,1,
,,,,,,,,,,,,,,,,,,5ef913ee6095e369eda5b9d7,2020-11-27_15h03.16.770,lexical_decision_task_MP_exp2,2020.2.5,Linux armv8l,60,,0,0.330322266,-0.30863444,1,0,0,0.8474,button_right,0.8474,1,,,,,,76,WORD,"ID",16,exotic,EXOTIC,m,,,,,,0.330322266,-0.30863444,1,0,0,,0,167,167,75,1,
,,,,,,,,,,,,,,,,,,5ef913ee6095e369eda5b9d7,2020-11-27_15h03.16.770,lexical_decision_task_MP_exp2,2020.2.5,Linux armv8l,60,,0,0.351318359,-0.331719293,1,0,0,0.6639,button_right,0.6639,1,,,,,,103,WORD,"ID",16,bounce,BOUNCE,m,,,,,,0.351318359,-0.331719293,1,0,0,,0,168,168,102,1,
,,,,,,,,,,,,,,,,,,5ef913ee6095e369eda5b9d7,2020-11-27_15h03.16.770,lexical_decision_task_MP_exp2,2020.2.5,Linux armv8l,60,,0,-0.30859375,-0.314656576,1,0,0,0.8806,button_left,0.8806,1,,,,,,435,NW,UN,16,frutan,IMPURB,z,,,,,,-0.30859375,-0.314656576,1,0,0,,0,169,169,434,1,
,,,,,,,,,,,,,,,,,,5ef913ee6095e369eda5b9d7,2020-11-27_15h03.16.770,lexical_decision_task_MP_exp2,2020.2.5,Linux armv8l,60,,0,0.352783203,-0.303114149,1,0,0,0.8012,button_right,0.8012,1,,,,,,61,WORD,"ID",16,ponder,PONDER,m,,,,,,0.352783203,-0.303114149,1,0,0,,0,170,170,60,1,
,,,,,,,,,,,,,,,,,,5ef913ee6095e369eda5b9d7,2020-11-27_15h03.16.770,lexical_decision_task_MP_exp2,2020.2.5,Linux armv8l,60,,0,-0.306640625,-0.301608615,1,0,0,0.8498,button_left,0.8498,1,,,,,,422,NW,UN,16,streld,ALCOUD,z,,,,,,-0.306640625,-0.301608615,1,0,0,,0,171,171,421,1,
,,,,,,,,,,,,,,,,,,5ef913ee6095e369eda5b9d7,2020-11-27_15h03.16.770,lexical_decision_task_MP_exp2,2020.2.5,Linux armv8l,60,,0,0.302246094,-0.338745117,1,0,0,0.7518,button_right,0.7518,1,,,,,,118,WORD,"ID",16,flight,FLIGHT,m,,,,,,0.302246094,-0.338745117,1,0,0,,0,172,172,117,1,
,,,,,,,,,,,,,,,,,,5ef913ee6095e369eda5b9d7,2020-11-27_15h03.16.770,lexical_decision_task_MP_exp2,2020.2.5,Linux armv8l,60,,0,0.36328125,-0.323187934,1,0,0,0.6997,button_right,0.6997,1,,,,,,95,WORD,"ID",16,thread,THREAD,m,,,,,,0.36328125,-0.323187934,1,0,0,,0,173,173,94,1,
,,,,,,,,,,,,,,,,,,5ef913ee6095e369eda5b9d7,2020-11-27_15h03.16.770,lexical_decision_task_MP_exp2,2020.2.5,Linux armv8l,60,,0,0.362304688,-0.34225803,1,0,0,0.8156,button_right,0.8156,1,,,,,,13,WORD,"ID",33,strive,STRIVE,m,,,,,,0.362304688,-0.34225803,1,0,0,,0,174,174,12,1,
,,,,,,,,,,,,,,,,,,5ef913ee6095e369eda5b9d7,2020-11-27_15h03.16.770,lexical_decision_task_MP_exp2,2020.2.5,Linux armv8l,60,,0,-0.269775391,-0.31515842,1,0,0,1.184,button_left,1.184,1,,,,,,244,NW,"ID",33,eatric,EATRIC,z,,,,,,-0.269775391,-0.31515842,1,0,0,,0,175,175,243,1,
,,,,,,,,,,,,,,,,,,5ef913ee6095e369eda5b9d7,2020-11-27_15h03.16.770,lexical_decision_task_MP_exp2,2020.2.5,Linux armv8l,60,,0,-0.354492188,-0.315660265,1,0,0,0.8822,button_left,0.8822,1,,,,,,411,NW,UN,33,jiluer,ORCHIN,z,,,,,,-0.354492188,-0.315660265,1,0,0,,0,176,176,410,1,
,,,,,,,,,,,,,,,,,,5ef913ee6095e369eda5b9d7,2020-11-27_15h03.16.770,lexical_decision_task_MP_exp2,2020.2.5,Linux armv8l,60,,0,0.329589844,-0.333224826,1,0,0,0.6965,button_right,0.6965,1,,,,,,29,WORD,"ID",33,sketch,SKETCH,m,,,,,,0.329589844,-0.333224826,1,0,0,,0,177,177,28,1,
,,,,,,,,,,,,,,,,,,5ef913ee6095e369eda5b9d7,2020-11-27_15h03.16.770,lexical_decision_task_MP_exp2,2020.2.5,Linux armv8l,60,,0,-0.297851563,-0.365844727,1,0,0,0.849,button_left,0.849,1,,,,,,308,NW,"ID",16,psetch,PSETCH,z,,,,,,-0.297851563,-0.365844727,1,0,0,,0,178,178,307,1,
,,,,,,,,,,,,,,,,,,5ef913ee6095e369eda5b9d7,2020-11-27_15h03.16.770,lexical_decision_task_MP_exp2,2020.2.5,Linux armv8l,60,,0,-0.264404297,-0.30211046,1,0,0,1.1501,button_left,1.1501,1,,,,,,352,NW,"ID",16,tringe,TRINGE,z,,,,,,-0.264404297,-0.30211046,1,0,0,,0,179,179,351,1,
,,,,,,,,,,,,,,,,,,5ef913ee6095e369eda5b9d7,2020-11-27_15h03.16.770,lexical_decision_task_MP_exp2,2020.2.5,Linux armv8l,60,,0,-0.292480469,-0.30863444,1,0,0,0.9325,button_left,0.9325,1,,,,,,451,NW,UN,16,surden,CAINKY,z,,,,,,-0.292480469,-0.30863444,1,0,0,,0,180,180,450,1,
,,,,,,,,,,,,,,,,,,5ef913ee6095e369eda5b9d7,2020-11-27_15h03.16.770,lexical_decision_task_MP_exp2,2020.2.5,Linux armv8l,60,,0,0.343017578,-0.329711914,1,0,0,0.7652,button_right,0.7652,1,,,,,,167,WORD,UN,33,answer,DESIGN,m,,,,,,0.343017578,-0.329711914,1,0,0,,0,181,181,166,1,
,,,,,,,,,,,,,,,,,,5ef913ee6095e369eda5b9d7,2020-11-27_15h03.16.770,lexical_decision_task_MP_exp2,2020.2.5,Linux armv8l,60,,0,-0.341308594,-0.320176866,1,0,0,0.6992,button_left,0.6992,1,,,,,,286,NW,"ID",33,reldon,RELDON,z,,,,,,-0.341308594,-0.320176866,1,0,0,,0,182,182,285,1,
,,,,,,,,,,,,,,,,,,5ef913ee6095e369eda5b9d7,2020-11-27_15h03.16.770,lexical_decision_task_MP_exp2,2020.2.5,Linux armv8l,60,,0,0.293701172,-0.310139974,1,0,0,0.7183,button_right,0.7183,1,,,,,,35,WORD,"ID",33,socket,SOCKET,m,,,,,,0.293701172,-0.310139974,1,0,0,,0,183,183,34,1,
,,,,,,,,,,,,,,,,,,5ef913ee6095e369eda5b9d7,2020-11-27_15h03.16.770,lexical_decision_task_MP_exp2,2020.2.5,Linux armv8l,60,,0,-0.329101563,-0.3216824,1,0,0,0.9631,button_left,0.9631,1,,,,,,363,NW,UN,33,impote,BREALI,z,,,,,,-0.329101563,-0.3216824,1,0,0,,0,184,184,362,1,
,,,,,,,,,,,,,,,,,,5ef913ee6095e369eda5b9d7,2020-11-27_15h03.16.770,lexical_decision_task_MP_exp2,2020.2.5,Linux armv8l,60,,0,0.351806641,-0.299099392,1,0,0,0.9991,button_right,0.9991,1,,,,,,25,WORD,"ID",33,domain,DOMAIN,m,,,,,,0.351806641,-0.299099392,1,0,0,,0,185,185,24,1,
,,,,,,,,,,,,,,,,,,5ef913ee6095e369eda5b9d7,2020-11-27_15h03.16.770,lexical_decision_task_MP_exp2,2020.2.5,Linux armv8l,60,,0,0.379150391,-0.31515842,1,0,0,0.7323,button_right,0.7323,1,,,,,,223,WORD,UN,16,period,KIDNEY,m,,,,,,0.379150391,-0.31515842,1,0,0,,0,186,186,222,1,
,,,,,,,,,,,,,,,,,,5ef913ee6095e369eda5b9d7,2020-11-27_15h03.16.770,lexical_decision_task_MP_exp2,2020.2.5,Linux armv8l,60,,0,0.365234375,-0.326700846,1,0,0,0.7508,button_right,0.7508,1,,,,,,166,WORD,UN,33,design,STARCH,m,,,,,,0.365234375,-0.326700846,1,0,0,,0,187,187,165,1,
,,,,,,,,,,,,,,,,,,5ef913ee6095e369eda5b9d7,2020-11-27_15h03.16.770,lexical_decision_task_MP_exp2,2020.2.5,Linux armv8l,60,,0,0.324707031,-0.292073568,1,0,0,1.1338,button_right,1.1338,1,,,,,,139,WORD,UN,33,prince,DEBRIS,m,,,,,,0.324707031,-0.292073568,1,0,0,,0,188,188,138,1,
,,,,,,,,,,,,,,,,,,5ef913ee6095e369eda5b9d7,2020-11-27_15h03.16.770,lexical_decision_task_MP_exp2,2020.2.5,Linux armv8l,60,,0,0.39453125,-0.306125217,1,0,0,0.7512,button_right,0.7512,1,,,,,,230,WORD,UN,16,export,FRINGE,m,,,,,,0.39453125,-0.306125217,1,0,0,,0,189,189,229,1,
,,,,,,,,,,,,,,,,,,5ef913ee6095e369eda5b9d7,2020-11-27_15h03.16.770,lexical_decision_task_MP_exp2,2020.2.5,Linux armv8l,60,,0,-0.336425781,-0.306627062,1,0,0,0.9809,button_left,0.9809,1,,,,,,320,NW,"ID",16,jockal,JOCKAL,z,,,,,,-0.336425781,-0.306627062,1,0,0,,0,190,190,319,1,
,,,,,,,,,,,,,,,,,,5ef913ee6095e369eda5b9d7,2020-11-27_15h03.16.770,lexical_decision_task_MP_exp2,2020.2.5,Linux armv8l,60,,0,-0.280517578,-0.287556966,1,0,0,0.9855,button_left,0.9855,1,,,,,,380,NW,UN,33,huniek,CAVORY,z,,,,,,-0.280517578,-0.287556966,1,0,0,,0,191,191,379,1,
,,,,,,,,,,,,,,,,,,5ef913ee6095e369eda5b9d7,2020-11-27_15h03.16.770,lexical_decision_task_MP_exp2,2020.2.5,Linux armv8l,60,,0,-0.298339844,-0.283542209,1,0,0,0.8594,button_left,0.8594,1,,,,,,353,NW,"ID",16,clurey,CLUREY,z,,,,,,-0.298339844,-0.283542209,1,0,0,,0,192,192,352,1,
,,,,,,,,,,,,,,,,,,5ef913ee6095e369eda5b9d7,2020-11-27_15h03.16.770,lexical_decision_task_MP_exp2,2020.2.5,Linux armv8l,60,,0,0.346435547,-0.332722982,1,0,0,0.7518,button_right,0.7518,1,,,,,,1,WORD,"ID",33,fright,FRIGHT,m,,,,,,0.346435547,-0.332722982,1,0,0,,0,193,193,0,1,
,,,,,,,,,,,,,,,,,,5ef913ee6095e369eda5b9d7,2020-11-27_15h03.16.770,lexical_decision_task_MP_exp2,2020.2.5,Linux armv8l,60,,0,0.358154297,-0.323187934,1,0,0,0.7684,button_right,0.7684,1,,,,,,225,WORD,UN,16,kidney,VULGAR,m,,,,,,0.358154297,-0.323187934,1,0,0,,0,194,194,224,1,
,,,,,,,,,,,,,,,,,,5ef913ee6095e369eda5b9d7,2020-11-27_15h03.16.770,lexical_decision_task_MP_exp2,2020.2.5,Linux armv8l,60,,0,0.337646484,-0.350789388,1,0,0,0.8799,button_right,0.8799,1,,,,,,222,WORD,UN,16,casino,HINDER,m,,,,,,0.337646484,-0.350789388,1,0,0,,0,195,195,221,1,
,,,,,,,,,,,,,,,,,,5ef913ee6095e369eda5b9d7,2020-11-27_15h03.16.770,lexical_decision_task_MP_exp2,2020.2.5,Linux armv8l,60,,0,0.364501953,-0.319675022,1,0,0,0.7844,button_right,0.7844,1,,,,,,39,WORD,"ID",33,insect,INSECT,m,,,,,,0.364501953,-0.319675022,1,0,0,,0,196,196,38,1,
,,,,,,,,,,,,,,,,,,5ef913ee6095e369eda5b9d7,2020-11-27_15h03.16.770,lexical_decision_task_MP_exp2,2020.2.5,Linux armv8l,60,,0,-0.322265625,-0.325697157,1,0,0,0.9518,button_left,0.9518,1,,,,,,344,NW,"ID",16,scrily,SCRILY,z,,,,,,-0.322265625,-0.325697157,1,0,0,,0,197,197,343,1,
,,,,,,,,,,,,,,,,,,5ef913ee6095e369eda5b9d7,2020-11-27_15h03.16.770,lexical_decision_task_MP_exp2,2020.2.5,Linux armv8l,60,,0,-0.287841797,-0.311143663,1,0,0,1.0167,button_left,1.0167,1,,,,,,419,NW,UN,33,gushop,SLOUNT,z,,,,,,-0.287841797,-0.311143663,1,0,0,,0,198,198,418,1,
,,,,,,,,,,,,,,,,,,5ef913ee6095e369eda5b9d7,2020-11-27_15h03.16.770,lexical_decision_task_MP_exp2,2020.2.5,Linux armv8l,60,,0,0.371337891,-0.322686089,1,0,0,1.0829,button_right,1.0829,0,,,,,,378,NW,UN,33,auting,SHRILE,z,,,,,,0.371337891,-0.322686089,1,0,0,,0,199,199,377,1,
,,,,,,,,,,,,,,,,,,5ef913ee6095e369eda5b9d7,2020-11-27_15h03.16.770,lexical_decision_task_MP_exp2,2020.2.5,Linux armv8l,60,,0,0.33984375,-0.338745117,1,0,0,0.9671,button_right,0.9671,1,,,,,,87,WORD,"ID",16,filter,FILTER,m,,,,,,0.33984375,-0.338745117,1,0,0,,0,200,200,86,1,
,,,,,,,,,,,,,,,,,,5ef913ee6095e369eda5b9d7,2020-11-27_15h03.16.770,lexical_decision_task_MP_exp2,2020.2.5,Linux armv8l,60,,0,0.334228516,-0.319675022,1,0,0,0.6685,button_right,0.6685,1,,,,,,49,WORD,"ID",33,survey,SURVEY,m,,,,,,0.334228516,-0.319675022,1,0,0,,0,201,201,48,1,
,,,,,,,,,,,,,,,,,,5ef913ee6095e369eda5b9d7,2020-11-27_15h03.16.770,lexical_decision_task_MP_exp2,2020.2.5,Linux armv8l,60,,0,-0.327880859,-0.298095703,1,0,0,0.95,button_left,0.95,1,,,,,,417,NW,UN,33,suidle,EAROUD,z,,,,,,-0.327880859,-0.298095703,1,0,0,,0,202,202,416,1,
,,,,,,,,,,,,,,,,,,5ef913ee6095e369eda5b9d7,2020-11-27_15h03.16.770,lexical_decision_task_MP_exp2,2020.2.5,Linux armv8l,60,,0,-0.295410156,-0.313652886,1,0,0,1.1818,button_left,1.1818,1,,,,,,314,NW,"ID",16,sprine,SPRINE,z,,,,,,-0.295410156,-0.313652886,1,0,0,,0,203,203,313,1,
,,,,,,,,,,,,,,,,,,5ef913ee6095e369eda5b9d7,2020-11-27_15h03.16.770,lexical_decision_task_MP_exp2,2020.2.5,Linux armv8l,60,,0,0.311279297,-0.322686089,1,0,0,0.8195,button_right,0.8195,1,,,,,,177,WORD,UN,33,inform,ADVENT,m,,,,,,0.311279297,-0.322686089,1,0,0,,0,204,204,176,1,
,,,,,,,,,,,,,,,,,,5ef913ee6095e369eda5b9d7,2020-11-27_15h03.16.770,lexical_decision_task_MP_exp2,2020.2.5,Linux armv8l,60,,0,0.331787109,-0.319173177,1,0,0,0.667,button_right,0.667,1,,,,,,172,WORD,UN,33,shower,PATROL,m,,,,,,0.331787109,-0.319173177,1,0,0,,0,205,205,171,1,
,,,,,,,,,,,,,,,,,,5ef913ee6095e369eda5b9d7,2020-11-27_15h03.16.770,lexical_decision_task_MP_exp2,2020.2.5,Linux armv8l,60,,0,-0.304443359,-0.311645508,1,0,0,0.9514,button_left,0.9514,1,,,,,,248,NW,"ID",33,strole,STROLE,z,,,,,,-0.304443359,-0.311645508,1,0,0,,0,206,206,247,1,
,,,,,,,,,,,,,,,,,,5ef913ee6095e369eda5b9d7,2020-11-27_15h03.16.770,lexical_decision_task_MP_exp2,2020.2.5,Linux armv8l,60,,0,0.351074219,-0.313652886,1,0,0,0.749,button_right,0.749,1,,,,,,136,WORD,UN,33,finger,BLEACH,m,,,,,,0.351074219,-0.313652886,1,0,0,,0,207,207,135,1,
,,,,,,,,,,,,,,,,,,5ef913ee6095e369eda5b9d7,2020-11-27_15h03.16.770,lexical_decision_task_MP_exp2,2020.2.5,Linux armv8l,60,,0,-0.328369141,-0.304117839,1,0,0,1.251,button_left,1.251,0,,,,,,163,WORD,UN,33,market,STRING,m,,,,,,-0.328369141,-0.304117839,1,0,0,,0,208,208,162,1,
,,,,,,,,,,,,,,,,,,5ef913ee6095e369eda5b9d7,2020-11-27_15h03.16.770,lexical_decision_task_MP_exp2,2020.2.5,Linux armv8l,60,,0,0.373535156,-0.311143663,1,0,0,0.7503,button_right,0.7503,1,,,,,,169,WORD,UN,33,pounce,GENIUS,m,,,,,,0.373535156,-0.311143663,1,0,0,,0,209,209,168,1,
,,,,,,,,,,,,,,,,,,5ef913ee6095e369eda5b9d7,2020-11-27_15h03.16.770,lexical_decision_task_MP_exp2,2020.2.5,Linux armv8l,60,,0,-0.290283203,-0.254937066,1,0,0,1.0032,button_left,1.0032,1,,,,,,276,NW,"ID",33,yarmon,YARMON,z,,,,,,-0.290283203,-0.254937066,1,0,0,,0,210,210,275,1,
,,,,,,,,,,,,,,,,,,5ef913ee6095e369eda5b9d7,2020-11-27_15h03.16.770,lexical_decision_task_MP_exp2,2020.2.5,Linux armv8l,60,,0,0.373046875,-0.339748806,1,0,0,0.9807,button_right,0.9807,1,,,,,,220,WORD,UN,16,mascot,VOYAGE,m,,,,,,0.373046875,-0.339748806,1,0,0,,0,211,211,219,1,
,,,,,,,,,,,,,,,,,,5ef913ee6095e369eda5b9d7,2020-11-27_15h03.16.770,lexical_decision_task_MP_exp2,2020.2.5,Linux armv8l,60,,0,-0.320068359,-0.3216824,1,0,0,0.9496,button_left,0.9496,1,,,,,,442,NW,UN,16,dorsex,ABOUNE,z,,,,,,-0.320068359,-0.3216824,1,0,0,,0,212,212,441,1,
,,,,,,,,,,,,,,,,,,5ef913ee6095e369eda5b9d7,2020-11-27_15h03.16.770,lexical_decision_task_MP_exp2,2020.2.5,Linux armv8l,60,,0,-0.304443359,-0.323187934,1,0,0,1.1499,button_left,1.1499,1,,,,,,428,NW,UN,16,chrums,TANDLY,z,,,,,,-0.304443359,-0.323187934,1,0,0,,0,213,213,427,1,
,,,,,,,,,,,,,,,,,,5ef913ee6095e369eda5b9d7,2020-11-27_15h03.16.770,lexical_decision_task_MP_exp2,2020.2.5,Linux armv8l,60,,0,0.327148438,-0.318169488,1,0,0,0.7799,button_right,0.7799,1,,,,,,3,WORD,"ID",33,knight,KNIGHT,m,,,,,,0.327148438,-0.318169488,1,0,0,,0,214,214,2,1,
,,,,,,,,,,,,,,,,,,5ef913ee6095e369eda5b9d7,2020-11-27_15h03.16.770,lexical_decision_task_MP_exp2,2020.2.5,Linux armv8l,60,,0,-0.322265625,-0.320678711,1,0,0,0.9012,button_left,0.9012,1,,,,,,275,NW,"ID",33,sleirt,SLEIRT,z,,,,,,-0.322265625,-0.320678711,1,0,0,,0,215,215,274,1,
,,,,,,,,,,,,,,,,,,5ef913ee6095e369eda5b9d7,2020-11-27_15h03.16.770,lexical_decision_task_MP_exp2,2020.2.5,Linux armv8l,60,,0,-0.276367188,-0.335232205,1,0,0,1.1355,button_left,1.1355,1,,,,,,423,NW,UN,16,praile,STRELD,z,,,,,,-0.276367188,-0.335232205,1,0,0,,0,216,216,422,1,
,,,,,,,,,,,,,,,,,,5ef913ee6095e369eda5b9d7,2020-11-27_15h03.16.770,lexical_decision_task_MP_exp2,2020.2.5,Linux armv8l,60,,0,0.322753906,-0.320678711,1,0,0,0.7328,button_right,0.7328,1,,,,,,117,WORD,"ID",16,branch,BRANCH,m,,,,,,0.322753906,-0.320678711,1,0,0,,0,217,217,116,1,
,,,,,,,,,,,,,,,,,,5ef913ee6095e369eda5b9d7,2020-11-27_15h03.16.770,lexical_decision_task_MP_exp2,2020.2.5,Linux armv8l,60,,0,0.329101563,-0.329210069,1,0,0,0.9008,button_right,0.9008,1,,,,,,77,WORD,"ID",16,racket,RACKET,m,,,,,,0.329101563,-0.329210069,1,0,0,,0,218,218,76,1,
,,,,,,,,,,,,,,,,,,5ef913ee6095e369eda5b9d7,2020-11-27_15h03.16.770,lexical_decision_task_MP_exp2,2020.2.5,Linux armv8l,60,,0,0.34765625,-0.315660265,1,0,0,1.0528,button_right,1.0528,0,,,,,,299,NW,"ID",33,sturch,STURCH,z,,,,,,0.34765625,-0.315660265,1,0,0,,0,219,219,298,1,
,,,,,,,,,,,,,,,,,,5ef913ee6095e369eda5b9d7,2020-11-27_15h03.16.770,lexical_decision_task_MP_exp2,2020.2.5,Linux armv8l,60,,0,0.329589844,-0.324191623,1,0,0,0.8993,button_right,0.8993,0,,,,,,293,NW,"ID",33,swance,SWANCE,z,,,,,,0.329589844,-0.324191623,1,0,0,,0,220,220,292,1,
,,,,,,,,,,,,,,,,,,5ef913ee6095e369eda5b9d7,2020-11-27_15h03.16.770,lexical_decision_task_MP_exp2,2020.2.5,Linux armv8l,60,,0,-0.313232422,-0.310139974,1,0,0,0.8677,button_left,0.8677,1,,,,,,395,NW,UN,33,flengy,COLURY,z,,,,,,-0.313232422,-0.310139974,1,0,0,,0,221,221,394,1,
,,,,,,,,,,,,,,,,,,5ef913ee6095e369eda5b9d7,2020-11-27_15h03.16.770,lexical_decision_task_MP_exp2,2020.2.5,Linux armv8l,60,,0,-0.313476563,-0.286553277,1,0,0,0.9989,button_left,0.9989,1,,,,,,389,NW,UN,33,hatrus,WITMER,z,,,,,,-0.313476563,-0.286553277,1,0,0,,0,222,222,388,1,
,,,,,,,,,,,,,,,,,,5ef913ee6095e369eda5b9d7,2020-11-27_15h03.16.770,lexical_decision_task_MP_exp2,2020.2.5,Linux armv8l,60,,0,0.313964844,-0.329711914,1,0,0,0.784,button_right,0.784,1,,,,,,218,WORD,UN,16,bucket,SHRINK,m,,,,,,0.313964844,-0.329711914,1,0,0,,0,223,223,217,1,
,,,,,,,,,,,,,,,,,,5ef913ee6095e369eda5b9d7,2020-11-27_15h03.16.770,lexical_decision_task_MP_exp2,2020.2.5,Linux armv8l,60,,0,-0.317871094,-0.314656576,1,0,0,1.1004,button_left,1.1004,1,,,,,,322,NW,"ID",16,slanch,SLANCH,z,,,,,,-0.317871094,-0.314656576,1,0,0,,0,224,224,321,1,
,,,,,,,,,,,,,,,,,,5ef913ee6095e369eda5b9d7,2020-11-27_15h03.16.770,lexical_decision_task_MP_exp2,2020.2.5,Linux armv8l,60,,0,-0.326904297,-0.33473036,1,0,0,0.9017,button_left,0.9017,1,,,,,,478,NW,UN,16,lobush,ACRISE,z,,,,,,-0.326904297,-0.33473036,1,0,0,,0,225,225,477,1,
,,,,,,,,,,,,,,,,,,5ef913ee6095e369eda5b9d7,2020-11-27_15h03.16.770,lexical_decision_task_MP_exp2,2020.2.5,Linux armv8l,60,,0,-0.268798828,-0.310139974,1,0,0,0.866,button_left,0.866,1,,,,,,289,NW,"ID",33,starby,STARBY,z,,,,,,-0.268798828,-0.310139974,1,0,0,,0,226,226,288,1,
,,,,,,,,,,,,,,,,,,5ef913ee6095e369eda5b9d7,2020-11-27_15h03.16.770,lexical_decision_task_MP_exp2,2020.2.5,Linux armv8l,60,,0,-0.243896484,-0.325195313,1,0,0,1.0643,button_left,1.0643,1,,,,,,343,NW,"ID",16,aimosy,AIMOSY,z,,,,,,-0.243896484,-0.325195313,1,0,0,,0,227,227,342,1,
,,,,,,,,,,,,,,,,,,5ef913ee6095e369eda5b9d7,2020-11-27_15h03.16.770,lexical_decision_task_MP_exp2,2020.2.5,Linux armv8l,60,,0,0.291748047,-0.306125217,1,0,0,0.7986,button_right,0.7986,1,,,,,,157,WORD,UN,33,island,DRAGON,m,,,,,,0.291748047,-0.306125217,1,0,0,,0,228,228,156,1,
,,,,,,,,,,,,,,,,,,5ef913ee6095e369eda5b9d7,2020-11-27_15h03.16.770,lexical_decision_task_MP_exp2,2020.2.5,Linux armv8l,60,,0,0.323974609,-0.30863444,1,0,0,0.8626,button_right,0.8626,1,,,,,,200,WORD,UN,16,admire,BEACON,m,,,,,,0.323974609,-0.30863444,1,0,0,,0,229,229,199,1,
,,,,,,,,,,,,,,,,,,5ef913ee6095e369eda5b9d7,2020-11-27_15h03.16.770,lexical_decision_task_MP_exp2,2020.2.5,Linux armv8l,60,,0,-0.281738281,-0.307128906,1,0,0,0.8835,button_left,0.8835,1,,,,,,290,NW,"ID",33,splino,SPLINO,z,,,,,,-0.281738281,-0.307128906,1,0,0,,0,230,230,289,1,
,,,,,,,,,,,,,,,,,,5ef913ee6095e369eda5b9d7,2020-11-27_15h03.16.770,lexical_decision_task_MP_exp2,2020.2.5,Linux armv8l,60,,0,-0.281005859,-0.295084635,1,0,0,0.9505,button_left,0.9505,1,,,,,,477,NW,UN,16,acrise,PHOTIE,z,,,,,,-0.281005859,-0.295084635,1,0,0,,0,231,231,476,1,
,,,,,,,,,,,,,,,,,,5ef913ee6095e369eda5b9d7,2020-11-27_15h03.16.770,lexical_decision_task_MP_exp2,2020.2.5,Linux armv8l,60,,0,0.394042969,-0.299099392,1,0,0,0.915,button_right,0.915,1,,,,,,132,WORD,UN,33,bleach,STRONG,m,,,,,,0.394042969,-0.299099392,1,0,0,,0,232,232,131,1,
,,,,,,,,,,,,,,,,,,5ef913ee6095e369eda5b9d7,2020-11-27_15h03.16.770,lexical_decision_task_MP_exp2,2020.2.5,Linux armv8l,60,,0,-0.251220703,-0.319675022,1,0,0,1.2656,button_left,1.2656,1,,,,,,465,NW,UN,16,hocite,WHIVEX,z,,,,,,-0.251220703,-0.319675022,1,0,0,,0,233,233,464,1,
,,,,,,,,,,,,,,,,,,5ef913ee6095e369eda5b9d7,2020-11-27_15h03.16.770,lexical_decision_task_MP_exp2,2020.2.5,Linux armv8l,60,,0,0.333984375,-0.323689779,1,0,0,0.8247,button_right,0.8247,0,,,,,,425,NW,UN,16,schind,FRUDGE,z,,,,,,0.333984375,-0.323689779,1,0,0,,0,234,234,424,1,
,,,,,,,,,,,,,,,,,,5ef913ee6095e369eda5b9d7,2020-11-27_15h03.16.770,lexical_decision_task_MP_exp2,2020.2.5,Linux armv8l,60,,0,-0.267089844,-0.298597548,1,0,0,0.8348,button_left,0.8348,1,,,,,,436,NW,UN,16,snapel,FRUTAN,z,,,,,,-0.267089844,-0.298597548,1,0,0,,0,235,235,435,1,
,,,,,,,,,,,,,,,,,,5ef913ee6095e369eda5b9d7,2020-11-27_15h03.16.770,lexical_decision_task_MP_exp2,2020.2.5,Linux armv8l,60,,0,0.348876953,-0.294080946,1,0,0,1.1875,button_right,1.1875,1,,,,,,221,WORD,UN,16,hinder,MASCOT,m,,,,,,0.348876953,-0.294080946,1,0,0,,0,236,236,220,1,
,,,,,,,,,,,,,,,,,,5ef913ee6095e369eda5b9d7,2020-11-27_15h03.16.770,lexical_decision_task_MP_exp2,2020.2.5,Linux armv8l,60,,0,0.376464844,-0.322184245,1,0,0,0.7988,button_right,0.7988,1,,,,,,83,WORD,"ID",16,result,RESULT,m,,,,,,0.376464844,-0.322184245,1,0,0,,0,237,237,82,1,
,,,,,,,,,,,,,,,,,,5ef913ee6095e369eda5b9d7,2020-11-27_15h03.16.770,lexical_decision_task_MP_exp2,2020.2.5,Linux armv8l,60,,0,0.327392578,-0.32820638,1,0,0,0.8349,button_right,0.8349,1,,,,,,158,WORD,UN,33,detail,ISLAND,m,,,,,,0.327392578,-0.32820638,1,0,0,,0,238,238,157,1,
,,,,,,,,,,,,,,,,,,5ef913ee6095e369eda5b9d7,2020-11-27_15h03.16.770,lexical_decision_task_MP_exp2,2020.2.5,Linux armv8l,60,,0,0.364013672,-0.304619683,1,0,0,0.8515,button_right,0.8515,1,,,,,,32,WORD,"ID",33,buckle,BUCKLE,m,,,,,,0.364013672,-0.304619683,1,0,0,,0,239,239,31,1,
,,,,,,,,,,,,,,,,,,5ef913ee6095e369eda5b9d7,2020-11-27_15h03.16.770,lexical_decision_task_MP_exp2,2020.2.5,Linux armv8l,60,,0,0.368408203,-0.323689779,1,0,0,0.7841,button_right,0.7841,1,,,,,,219,WORD,UN,16,voyage,BUCKET,m,,,,,,0.368408203,-0.323689779,1,0,0,,0,240,240,218,1,
,,,,,,,,,,,,,,,,,,5ef913ee6095e369eda5b9d7,2020-11-27_15h03.16.770,lexical_decision_task_MP_exp2,2020.2.5,Linux armv8l,60,,0,0.328613281,-0.349283854,1,0,0,0.9843,button_right,0.9843,1,,,,,,106,WORD,"ID",16,ransom,RANSOM,m,,,,,,0.079589844,-0.426567925,1,0,0,,0,241,241,105,1,break_done_button
,,,,,,,,,,,,,,,,,,5ef913ee6095e369eda5b9d7,2020-11-27_15h03.16.770,lexical_decision_task_MP_exp2,2020.2.5,Linux armv8l,60,,0,-0.368652344,-0.362331814,1,0,0,1.1352,button_left,1.1352,1,,,,,,412,NW,UN,33,equats,JILUER,z,,,,,,-0.368652344,-0.362331814,1,0,0,,0,242,242,411,1,
,,,,,,,,,,,,,,,,,,5ef913ee6095e369eda5b9d7,2020-11-27_15h03.16.770,lexical_decision_task_MP_exp2,2020.2.5,Linux armv8l,60,,0,0.302490234,-0.304117839,1,0,0,0.7824,button_right,0.7824,1,,,,,,164,WORD,UN,33,invest,MARKET,m,,,,,,0.302490234,-0.304117839,1,0,0,,0,243,243,163,1,
,,,,,,,,,,,,,,,,,,5ef913ee6095e369eda5b9d7,2020-11-27_15h03.16.770,lexical_decision_task_MP_exp2,2020.2.5,Linux armv8l,60,,0,0.285400391,-0.332221137,1,0,0,0.7171,button_right,0.7171,1,,,,,,52,WORD,"ID",33,impose,IMPOSE,m,,,,,,0.285400391,-0.332221137,1,0,0,,0,244,244,51,1,
,,,,,,,,,,,,,,,,,,5ef913ee6095e369eda5b9d7,2020-11-27_15h03.16.770,lexical_decision_task_MP_exp2,2020.2.5,Linux armv8l,60,,0,-0.346679688,-0.325697157,1,0,0,0.782,button_left,0.782,1,,,,,,312,NW,"ID",16,nerawl,NERAWL,z,,,,,,-0.346679688,-0.325697157,1,0,0,,0,245,245,311,1,
,,,,,,,,,,,,,,,,,,5ef913ee6095e369eda5b9d7,2020-11-27_15h03.16.770,lexical_decision_task_MP_exp2,2020.2.5,Linux armv8l,60,,0,0.314697266,-0.353298611,1,0,0,0.6821,button_right,0.6821,1,,,,,,43,WORD,"ID",33,tongue,TONGUE,m,,,,,,0.314697266,-0.353298611,1,0,0,,0,246,246,42,1,
,,,,,,,,,,,,,,,,,,5ef913ee6095e369eda5b9d7,2020-11-27_15h03.16.770,lexical_decision_task_MP_exp2,2020.2.5,Linux armv8l,60,,0,0.325927734,-0.345770942,1,0,0,0.75,button_right,0.75,1,,,,,,51,WORD,"ID",33,hungry,HUNGRY,m,,,,,,0.325927734,-0.345770942,1,0,0,,0,247,247,50,1,
,,,,,,,,,,,,,,,,,,5ef913ee6095e369eda5b9d7,2020-11-27_15h03.16.770,lexical_decision_task_MP_exp2,2020.2.5,Linux armv8l,60,,0,0.340332031,-0.328708225,1,0,0,0.7806,button_right,0.7806,1,,,,,,129,WORD,UN,33,stupid,MARVEL,m,,,,,,0.340332031,-0.328708225,1,0,0,,0,248,248,128,1,
,,,,,,,,,,,,,,,,,,5ef913ee6095e369eda5b9d7,2020-11-27_15h03.16.770,lexical_decision_task_MP_exp2,2020.2.5,Linux armv8l,60,,0,0.321044922,-0.350287543,1,0,0,0.8175,button_right,0.8175,1,,,,,,138,WORD,UN,33,staple,MELODY,m,,,,,,0.321044922,-0.350287543,1,0,0,,0,249,249,137,1,
,,,,,,,,,,,,,,,,,,5ef913ee6095e369eda5b9d7,2020-11-27_15h03.16.770,lexical_decision_task_MP_exp2,2020.2.5,Linux armv8l,60,,0,0.387939453,-0.32820638,1,0,0,0.7656,button_right,0.7656,1,,,,,,73,WORD,"ID",16,source,SOURCE,m,,,,,,0.387939453,-0.32820638,1,0,0,,0,250,250,72,1,
,,,,,,,,,,,,,,,,,,5ef913ee6095e369eda5b9d7,2020-11-27_15h03.16.770,lexical_decision_task_MP_exp2,2020.2.5,Linux armv8l,60,,0,-0.240966797,-0.358317057,1,0,0,0.9522,button_left,0.9522,1,,,,,,459,NW,UN,16,mingar,BAFENT,z,,,,,,-0.240966797,-0.358317057,1,0,0,,0,251,251,458,1,
,,,,,,,,,,,,,,,,,,5ef913ee6095e369eda5b9d7,2020-11-27_15h03.16.770,lexical_decision_task_MP_exp2,2020.2.5,Linux armv8l,60,,0,0.346923828,-0.320176866,1,0,0,0.899,button_right,0.899,1,,,,,,206,WORD,UN,16,wreath,TAILOR,m,,,,,,0.346923828,-0.320176866,1,0,0,,0,252,252,205,1,
,,,,,,,,,,,,,,,,,,5ef913ee6095e369eda5b9d7,2020-11-27_15h03.16.770,lexical_decision_task_MP_exp2,2020.2.5,Linux armv8l,60,,0,0.328125,-0.317667643,1,0,0,1.0172,button_right,1.0172,1,,,,,,185,WORD,UN,16,portal,BOTHER,m,,,,,,0.328125,-0.317667643,1,0,0,,0,253,253,184,1,
,,,,,,,,,,,,,,,,,,5ef913ee6095e369eda5b9d7,2020-11-27_15h03.16.770,lexical_decision_task_MP_exp2,2020.2.5,Linux armv8l,60,,0,0.339111328,-0.356309679,1,0,0,1.0998,button_right,1.0998,1,,,,,,85,WORD,"ID",16,sprawl,SPRAWL,m,,,,,,0.339111328,-0.356309679,1,0,0,,0,254,254,84,1,
,,,,,,,,,,,,,,,,,,5ef913ee6095e369eda5b9d7,2020-11-27_15h03.16.770,lexical_decision_task_MP_exp2,2020.2.5,Linux armv8l,60,,0,-0.240722656,-0.362331814,1,0,0,0.8663,button_left,0.8663,1,,,,,,474,NW,UN,16,gorbie,HABLIN,z,,,,,,-0.240722656,-0.362331814,1,0,0,,0,255,255,473,1,
,,,,,,,,,,,,,,,,,,5ef913ee6095e369eda5b9d7,2020-11-27_15h03.16.770,lexical_decision_task_MP_exp2,2020.2.5,Linux armv8l,60,,0,0.345214844,-0.340250651,1,0,0,0.8869,button_right,0.8869,1,,,,,,67,WORD,"ID",16,policy,POLICY,m,,,,,,0.345214844,-0.340250651,1,0,0,,0,256,256,66,1,
,,,,,,,,,,,,,,,,,,5ef913ee6095e369eda5b9d7,2020-11-27_15h03.16.770,lexical_decision_task_MP_exp2,2020.2.5,Linux armv8l,60,,0,0.340820313,-0.364841037,1,0,0,0.8151,button_right,0.8151,1,,,,,,191,WORD,UN,16,absent,STABLE,m,,,,,,0.340820313,-0.364841037,1,0,0,,0,257,257,190,1,
,,,,,,,,,,,,,,,,,,5ef913ee6095e369eda5b9d7,2020-11-27_15h03.16.770,lexical_decision_task_MP_exp2,2020.2.5,Linux armv8l,60,,0,-0.270751953,-0.398464627,1,0,0,0.8508,button_left,0.8508,1,,,,,,364,NW,UN,33,guairt,IMPOTE,z,,,,,,-0.270751953,-0.398464627,1,0,0,,0,258,258,363,1,
,,,,,,,,,,,,,,,,,,5ef913ee6095e369eda5b9d7,2020-11-27_15h03.16.770,lexical_decision_task_MP_exp2,2020.2.5,Linux armv8l,60,,0,-0.239257813,-0.350287543,1,0,0,0.7671,button_left,0.7671,1,,,,,,300,NW,"ID",33,yarion,YARION,z,,,,,,-0.239257813,-0.350287543,1,0,0,,0,259,259,299,1,
,,,,,,,,,,,,,,,,,,5ef913ee6095e369eda5b9d7,2020-11-27_15h03.16.770,lexical_decision_task_MP_exp2,2020.2.5,Linux armv8l,60,,0,-0.243408203,-0.373372396,1,0,0,0.9006,button_left,0.9006,1,,,,,,379,NW,UN,33,cavory,AUTING,z,,,,,,-0.243408203,-0.373372396,1,0,0,,0,260,260,378,1,
,,,,,,,,,,,,,,,,,,5ef913ee6095e369eda5b9d7,2020-11-27_15h03.16.770,lexical_decision_task_MP_exp2,2020.2.5,Linux armv8l,60,,0,0.373291016,-0.314656576,1,0,0,0.8176,button_right,0.8176,1,,,,,,213,WORD,UN,16,intake,SQUEAL,m,,,,,,0.373291016,-0.314656576,1,0,0,,0,261,261,212,1,
,,,,,,,,,,,,,,,,,,5ef913ee6095e369eda5b9d7,2020-11-27_15h03.16.770,lexical_decision_task_MP_exp2,2020.2.5,Linux armv8l,60,,0,0.354980469,-0.306125217,1,0,0,1.1514,button_right,1.1514,1,,,,,,114,WORD,"ID",16,placid,PLACID,m,,,,,,0.354980469,-0.306125217,1,0,0,,0,262,262,113,1,
,,,,,,,,,,,,,,,,,,5ef913ee6095e369eda5b9d7,2020-11-27_15h03.16.770,lexical_decision_task_MP_exp2,2020.2.5,Linux armv8l,60,,0,0.344726563,-0.356811523,1,0,0,0.8478,button_right,0.8478,1,,,,,,7,WORD,"ID",33,anchor,ANCHOR,m,,,,,,0.344726563,-0.356811523,1,0,0,,0,263,263,6,1,
,,,,,,,,,,,,,,,,,,5ef913ee6095e369eda5b9d7,2020-11-27_15h03.16.770,lexical_decision_task_MP_exp2,2020.2.5,Linux armv8l,60,,0,0.340087891,-0.354804145,1,0,0,0.7993,button_right,0.7993,1,,,,,,37,WORD,"ID",33,insult,INSULT,m,,,,,,0.340087891,-0.354804145,1,0,0,,0,264,264,36,1,
,,,,,,,,,,,,,,,,,,5ef913ee6095e369eda5b9d7,2020-11-27_15h03.16.770,lexical_decision_task_MP_exp2,2020.2.5,Linux armv8l,60,,0,0.342041016,-0.337239583,1,0,0,0.8313,button_right,0.8313,1,,,,,,113,WORD,"ID",16,chorus,CHORUS,m,,,,,,0.342041016,-0.337239583,1,0,0,,0,265,265,112,1,
,,,,,,,,,,,,,,,,,,5ef913ee6095e369eda5b9d7,2020-11-27_15h03.16.770,lexical_decision_task_MP_exp2,2020.2.5,Linux armv8l,60,,0,-0.26953125,-0.341756185,1,0,0,0.9834,button_left,0.9834,1,,,,,,339,NW,"ID",16,fachow,FACHOW,z,,,,,,-0.26953125,-0.341756185,1,0,0,,0,266,266,338,1,
,,,,,,,,,,,,,,,,,,5ef913ee6095e369eda5b9d7,2020-11-27_15h03.16.770,lexical_decision_task_MP_exp2,2020.2.5,Linux armv8l,60,,0,0.392333984,-0.316162109,1,0,0,0.9504,button_right,0.9504,1,,,,,,216,WORD,UN,16,liquor,BEHALF,m,,,,,,0.392333984,-0.316162109,1,0,0,,0,267,267,215,1,
,,,,,,,,,,,,,,,,,,5ef913ee6095e369eda5b9d7,2020-11-27_15h03.16.770,lexical_decision_task_MP_exp2,2020.2.5,Linux armv8l,60,,0,0.375976563,-0.343763563,1,0,0,0.8656,button_right,0.8656,1,,,,,,147,WORD,UN,33,custom,GARLIC,m,,,,,,0.375976563,-0.343763563,1,0,0,,0,268,268,146,1,
,,,,,,,,,,,,,,,,,,5ef913ee6095e369eda5b9d7,2020-11-27_15h03.16.770,lexical_decision_task_MP_exp2,2020.2.5,Linux armv8l,60,,0,-0.251464844,-0.349283854,1,0,0,1.1835,button_left,1.1835,1,,,,,,260,NW,"ID",33,unject,UNJECT,z,,,,,,-0.251464844,-0.349283854,1,0,0,,0,269,269,259,1,
,,,,,,,,,,,,,,,,,,5ef913ee6095e369eda5b9d7,2020-11-27_15h03.16.770,lexical_decision_task_MP_exp2,2020.2.5,Linux armv8l,60,,0,0.353759766,-0.336235894,1,0,0,0.8826,button_right,0.8826,1,,,,,,74,WORD,"ID",16,plaque,PLAQUE,m,,,,,,0.353759766,-0.336235894,1,0,0,,0,270,270,73,1,
,,,,,,,,,,,,,,,,,,5ef913ee6095e369eda5b9d7,2020-11-27_15h03.16.770,lexical_decision_task_MP_exp2,2020.2.5,Linux armv8l,60,,0,0.358642578,-0.323187934,1,0,0,0.7998,button_right,0.7998,1,,,,,,34,WORD,"ID",33,jungle,JUNGLE,m,,,,,,0.358642578,-0.323187934,1,0,0,,0,271,271,33,1,
,,,,,,,,,,,,,,,,,,5ef913ee6095e369eda5b9d7,2020-11-27_15h03.16.770,lexical_decision_task_MP_exp2,2020.2.5,Linux armv8l,60,,0,-0.288574219,-0.345269097,1,0,0,0.8986,button_left,0.8986,1,,,,,,254,NW,"ID",33,varosh,VAROSH,z,,,,,,-0.288574219,-0.345269097,1,0,0,,0,272,272,253,1,
,,,,,,,,,,,,,,,,,,5ef913ee6095e369eda5b9d7,2020-11-27_15h03.16.770,lexical_decision_task_MP_exp2,2020.2.5,Linux armv8l,60,,0,-0.29296875,-0.379394531,1,0,0,1.3513,button_left,1.3513,1,,,,,,251,NW,"ID",33,lupict,LUPICT,z,,,,,,-0.29296875,-0.379394531,1,0,0,,0,273,273,250,1,
,,,,,,,,,,,,,,,,,,5ef913ee6095e369eda5b9d7,2020-11-27_15h03.16.770,lexical_decision_task_MP_exp2,2020.2.5,Linux armv8l,60,,0,0.375976563,-0.325195313,1,0,0,0.8146,button_right,0.8146,1,,,,,,226,WORD,UN,16,flower,CASINO,m,,,,,,0.375976563,-0.325195313,1,0,0,,0,274,274,225,1,
,,,,,,,,,,,,,,,,,,5ef913ee6095e369eda5b9d7,2020-11-27_15h03.16.770,lexical_decision_task_MP_exp2,2020.2.5,Linux armv8l,60,,0,-0.285400391,-0.390435113,1,0,0,0.9354,button_left,0.9354,1,,,,,,258,NW,"ID",33,poluth,POLUTH,z,,,,,,-0.285400391,-0.390435113,1,0,0,,0,275,275,257,1,
,,,,,,,,,,,,,,,,,,5ef913ee6095e369eda5b9d7,2020-11-27_15h03.16.770,lexical_decision_task_MP_exp2,2020.2.5,Linux armv8l,60,,0,0.375244141,-0.318671332,1,0,0,0.8857,button_right,0.8857,1,,,,,,141,WORD,UN,33,spruce,ORPHAN,m,,,,,,0.375244141,-0.318671332,1,0,0,,0,276,276,140,1,
,,,,,,,,,,,,,,,,,,5ef913ee6095e369eda5b9d7,2020-11-27_15h03.16.770,lexical_decision_task_MP_exp2,2020.2.5,Linux armv8l,60,,0,-0.288330078,-0.353800456,1,0,0,0.8814,button_left,0.8814,1,,,,,,310,NW,"ID",16,daniet,DANIET,z,,,,,,-0.288330078,-0.353800456,1,0,0,,0,277,277,309,1,
,,,,,,,,,,,,,,,,,,5ef913ee6095e369eda5b9d7,2020-11-27_15h03.16.770,lexical_decision_task_MP_exp2,2020.2.5,Linux armv8l,60,,0,0.398193359,-0.317165799,1,0,0,0.8645,button_right,0.8645,1,,,,,,104,WORD,"ID",16,studio,STUDIO,m,,,,,,0.398193359,-0.317165799,1,0,0,,0,278,278,103,1,
,,,,,,,,,,,,,,,,,,5ef913ee6095e369eda5b9d7,2020-11-27_15h03.16.770,lexical_decision_task_MP_exp2,2020.2.5,Linux armv8l,60,,0,-0.276367188,-0.36182997,1,0,0,0.935,button_left,0.935,1,,,,,,317,NW,"ID",16,worbal,WORBAL,z,,,,,,-0.276367188,-0.36182997,1,0,0,,0,279,279,316,1,
,,,,,,,,,,,,,,,,,,5ef913ee6095e369eda5b9d7,2020-11-27_15h03.16.770,lexical_decision_task_MP_exp2,2020.2.5,Linux armv8l,60,,0,0.330566406,-0.307630751,1,0,0,0.8508,button_right,0.8508,1,,,,,,137,WORD,UN,33,melody,FINGER,m,,,,,,0.330566406,-0.307630751,1,0,0,,0,280,280,136,1,
,,,,,,,,,,,,,,,,,,5ef913ee6095e369eda5b9d7,2020-11-27_15h03.16.770,lexical_decision_task_MP_exp2,2020.2.5,Linux armv8l,60,,0,-0.275390625,-0.409505208,1,0,0,0.8166,button_left,0.8166,1,,,,,,259,NW,"ID",33,soudal,SOUDAL,z,,,,,,-0.381835938,-0.342759874,1,0,0,,0,281,281,258,1,
,,,,,,,,,,,,,,,,,,5ef913ee6095e369eda5b9d7,2020-11-27_15h03.16.770,lexical_decision_task_MP_exp2,2020.2.5,Linux armv8l,60,,0,-0.361328125,-0.326199002,1,0,0,0.9834,button_left,0.9834,1,,,,,,434,NW,UN,16,impurb,PITROM,z,,,,,,-0.361328125,-0.326199002,1,0,0,,0,282,282,433,1,
,,,,,,,,,,,,,,,,,,5ef913ee6095e369eda5b9d7,2020-11-27_15h03.16.770,lexical_decision_task_MP_exp2,2020.2.5,Linux armv8l,60,,0,0.356933594,-0.314656576,1,0,0,0.7323,button_right,0.7323,1,,,,,,28,WORD,"ID",33,comedy,COMEDY,m,,,,,,0.356933594,-0.314656576,1,0,0,,0,283,283,27,1,
,,,,,,,,,,,,,,,,,,5ef913ee6095e369eda5b9d7,2020-11-27_15h03.16.770,lexical_decision_task_MP_exp2,2020.2.5,Linux armv8l,60,,0,-0.373291016,-0.327202691,1,0,0,0.7671,button_left,0.7671,1,,,,,,360,NW,"ID",16,desory,DESORY,z,,,,,,-0.373291016,-0.327202691,1,0,0,,0,284,284,359,1,
,,,,,,,,,,,,,,,,,,5ef913ee6095e369eda5b9d7,2020-11-27_15h03.16.770,lexical_decision_task_MP_exp2,2020.2.5,Linux armv8l,60,,0,-0.381103516,-0.301608615,1,0,0,0.8198,button_left,0.8198,1,,,,,,241,NW,"ID",33,smenco,SMENCO,z,,,,,,-0.381103516,-0.301608615,1,0,0,,0,285,285,240,1,
,,,,,,,,,,,,,,,,,,5ef913ee6095e369eda5b9d7,2020-11-27_15h03.16.770,lexical_decision_task_MP_exp2,2020.2.5,Linux armv8l,60,,0,-0.389892578,-0.307128906,1,0,0,0.7168,button_left,0.7168,1,,,,,,346,NW,"ID",16,saudic,SAUDIC,z,,,,,,-0.389892578,-0.307128906,1,0,0,,0,286,286,345,1,
,,,,,,,,,,,,,,,,,,5ef913ee6095e369eda5b9d7,2020-11-27_15h03.16.770,lexical_decision_task_MP_exp2,2020.2.5,Linux armv8l,60,,0,0.311279297,-0.344767253,1,0,0,0.6315,button_right,0.6315,1,,,,,,15,WORD,"ID",33,amount,AMOUNT,m,,,,,,0.311279297,-0.344767253,1,0,0,,0,287,287,14,1,
,,,,,,,,,,,,,,,,,,5ef913ee6095e369eda5b9d7,2020-11-27_15h03.16.770,lexical_decision_task_MP_exp2,2020.2.5,Linux armv8l,60,,0,-0.400146484,-0.309638129,1,0,0,0.7484,button_left,0.7484,1,,,,,,265,NW,"ID",33,distar,DISTAR,z,,,,,,-0.400146484,-0.309638129,1,0,0,,0,288,288,264,1,
,,,,,,,,,,,,,,,,,,5ef913ee6095e369eda5b9d7,2020-11-27_15h03.16.770,lexical_decision_task_MP_exp2,2020.2.5,Linux armv8l,60,,0,-0.385009766,-0.326199002,1,0,0,0.9161,button_left,0.9161,1,,,,,,306,NW,"ID",16,sounge,SOUNGE,z,,,,,,-0.385009766,-0.326199002,1,0,0,,0,289,289,305,1,
,,,,,,,,,,,,,,,,,,5ef913ee6095e369eda5b9d7,2020-11-27_15h03.16.770,lexical_decision_task_MP_exp2,2020.2.5,Linux armv8l,60,,0,-0.372314453,-0.336737739,1,0,0,0.8012,button_left,0.8012,1,,,,,,407,NW,UN,33,hurnia,SUIVER,z,,,,,,-0.372314453,-0.336737739,1,0,0,,0,290,290,406,1,
,,,,,,,,,,,,,,,,,,5ef913ee6095e369eda5b9d7,2020-11-27_15h03.16.770,lexical_decision_task_MP_exp2,2020.2.5,Linux armv8l,60,,0,0.298095703,-0.349785699,1,0,0,0.7159,button_right,0.7159,1,,,,,,82,WORD,"ID",16,stigma,STIGMA,m,,,,,,0.298095703,-0.349785699,1,0,0,,0,291,291,81,1,
,,,,,,,,,,,,,,,,,,5ef913ee6095e369eda5b9d7,2020-11-27_15h03.16.770,lexical_decision_task_MP_exp2,2020.2.5,Linux armv8l,60,,0,-0.382324219,-0.318169488,1,0,0,0.8842,button_left,0.8842,1,,,,,,420,NW,UN,33,pauche,GUSHOP,z,,,,,,-0.382324219,-0.318169488,1,0,0,,0,292,292,419,1,
,,,,,,,,,,,,,,,,,,5ef913ee6095e369eda5b9d7,2020-11-27_15h03.16.770,lexical_decision_task_MP_exp2,2020.2.5,Linux armv8l,60,,0,0.326660156,-0.318671332,1,0,0,0.7516,button_right,0.7516,1,,,,,,196,WORD,UN,16,stream,CREDIT,m,,,,,,0.326660156,-0.318671332,1,0,0,,0,293,293,195,1,
,,,,,,,,,,,,,,,,,,5ef913ee6095e369eda5b9d7,2020-11-27_15h03.16.770,lexical_decision_task_MP_exp2,2020.2.5,Linux armv8l,60,,0,-0.354492188,-0.34777832,1,0,0,1.2008,button_left,1.2008,1,,,,,,370,NW,UN,33,geiloy,SLEACT,z,,,,,,-0.354492188,-0.34777832,1,0,0,,0,294,294,369,1,
,,,,,,,,,,,,,,,,,,5ef913ee6095e369eda5b9d7,2020-11-27_15h03.16.770,lexical_decision_task_MP_exp2,2020.2.5,Linux armv8l,60,,0,0.307128906,-0.325195313,1,0,0,0.6848,button_right,0.6848,1,,,,,,108,WORD,"ID",16,reckon,RECKON,m,,,,,,0.307128906,-0.325195313,1,0,0,,0,295,295,107,1,
,,,,,,,,,,,,,,,,,,5ef913ee6095e369eda5b9d7,2020-11-27_15h03.16.770,lexical_decision_task_MP_exp2,2020.2.5,Linux armv8l,60,,0,0.313476563,-0.330715603,1,0,0,0.8159,button_right,0.8159,1,,,,,,194,WORD,UN,16,resign,ABSENT,m,,,,,,0.313476563,-0.330715603,1,0,0,,0,296,296,193,1,
,,,,,,,,,,,,,,,,,,5ef913ee6095e369eda5b9d7,2020-11-27_15h03.16.770,lexical_decision_task_MP_exp2,2020.2.5,Linux armv8l,60,,0,0.310302734,-0.333726671,1,0,0,0.7674,button_right,0.7674,1,,,,,,71,WORD,"ID",16,garden,GARDEN,m,,,,,,0.310302734,-0.333726671,1,0,0,,0,297,297,70,1,
,,,,,,,,,,,,,,,,,,5ef913ee6095e369eda5b9d7,2020-11-27_15h03.16.770,lexical_decision_task_MP_exp2,2020.2.5,Linux armv8l,60,,0,0.306884766,-0.332221137,1,0,0,0.7816,button_right,0.7816,1,,,,,,54,WORD,"ID",33,ramble,RAMBLE,m,,,,,,0.306884766,-0.332221137,1,0,0,,0,298,298,53,1,
,,,,,,,,,,,,,,,,,,5ef913ee6095e369eda5b9d7,2020-11-27_15h03.16.770,lexical_decision_task_MP_exp2,2020.2.5,Linux armv8l,60,,0,0.311523438,-0.330213759,1,0,0,0.8012,button_right,0.8012,1,,,,,,155,WORD,UN,33,cradle,LIZARD,m,,,,,,0.311523438,-0.330213759,1,0,0,,0,299,299,154,1,
,,,,,,,,,,,,,,,,,,5ef913ee6095e369eda5b9d7,2020-11-27_15h03.16.770,lexical_decision_task_MP_exp2,2020.2.5,Linux armv8l,60,,0,0.331542969,-0.312649197,1,0,0,0.8007,button_right,0.8007,1,,,,,,192,WORD,UN,16,object,PLAGUE,m,,,,,,0.331542969,-0.312649197,1,0,0,,0,300,300,191,1,
,,,,,,,,,,,,,,,,,,5ef913ee6095e369eda5b9d7,2020-11-27_15h03.16.770,lexical_decision_task_MP_exp2,2020.2.5,Linux armv8l,60,,0,0.324707031,-0.323689779,1,0,0,0.7174,button_right,0.7174,1,,,,,,102,WORD,"ID",16,direct,DIRECT,m,,,,,,0.324707031,-0.323689779,1,0,0,,0,301,301,101,1,
,,,,,,,,,,,,,,,,,,5ef913ee6095e369eda5b9d7,2020-11-27_15h03.16.770,lexical_decision_task_MP_exp2,2020.2.5,Linux armv8l,60,,0,0.3203125,-0.337239583,1,0,0,0.8002,button_right,0.8002,1,,,,,,121,WORD,UN,33,linger,THRIVE,m,,,,,,0.3203125,-0.337239583,1,0,0,,0,302,302,120,1,
,,,,,,,,,,,,,,,,,,5ef913ee6095e369eda5b9d7,2020-11-27_15h03.16.770,lexical_decision_task_MP_exp2,2020.2.5,Linux armv8l,60,,0,0.317626953,-0.348280165,1,0,0,0.8191,button_right,0.8191,1,,,,,,99,WORD,"ID",16,fluent,FLUENT,m,,,,,,0.317626953,-0.348280165,1,0,0,,0,303,303,98,1,
,,,,,,,,,,,,,,,,,,5ef913ee6095e369eda5b9d7,2020-11-27_15h03.16.770,lexical_decision_task_MP_exp2,2020.2.5,Linux armv8l,60,,0,-0.364013672,-0.325195313,1,0,0,0.7857,button_left,0.7857,1,,,,,,323,NW,"ID",16,rosail,ROSAIL,z,,,,,,-0.364013672,-0.325195313,1,0,0,,0,304,304,322,1,
,,,,,,,,,,,,,,,,,,5ef913ee6095e369eda5b9d7,2020-11-27_15h03.16.770,lexical_decision_task_MP_exp2,2020.2.5,Linux armv8l,60,,0,0.303710938,-0.374376085,1,0,0,0.7,button_right,0.7,1,,,,,,18,WORD,"ID",33,humble,HUMBLE,m,,,,,,0.303710938,-0.374376085,1,0,0,,0,305,305,17,1,
,,,,,,,,,,,,,,,,,,5ef913ee6095e369eda5b9d7,2020-11-27_15h03.16.770,lexical_decision_task_MP_exp2,2020.2.5,Linux armv8l,60,,0,-0.349365234,-0.36182997,1,0,0,1.0674,button_left,1.0674,1,,,,,,341,NW,"ID",16,myrtie,MYRTIE,z,,,,,,-0.349365234,-0.36182997,1,0,0,,0,306,306,340,1,
,,,,,,,,,,,,,,,,,,5ef913ee6095e369eda5b9d7,2020-11-27_15h03.16.770,lexical_decision_task_MP_exp2,2020.2.5,Linux armv8l,60,,0,-0.37109375,-0.34878201,1,0,0,0.7133,button_left,0.7133,1,,,,,,309,NW,"ID",16,amiloy,AMILOY,z,,,,,,-0.37109375,-0.34878201,1,0,0,,0,307,307,308,1,
,,,,,,,,,,,,,,,,,,5ef913ee6095e369eda5b9d7,2020-11-27_15h03.16.770,lexical_decision_task_MP_exp2,2020.2.5,Linux armv8l,60,,0,0.308349609,-0.353298611,1,0,0,0.7317,button_right,0.7317,1,,,,,,231,WORD,UN,16,mother,EXPORT,m,,,,,,0.308349609,-0.353298611,1,0,0,,0,308,308,230,1,
,,,,,,,,,,,,,,,,,,5ef913ee6095e369eda5b9d7,2020-11-27_15h03.16.770,lexical_decision_task_MP_exp2,2020.2.5,Linux armv8l,60,,0,0.320556641,-0.33473036,1,0,0,0.8836,button_right,0.8836,1,,,,,,91,WORD,"ID",16,expand,EXPAND,m,,,,,,0.320556641,-0.33473036,1,0,0,,0,309,309,90,1,
,,,,,,,,,,,,,,,,,,5ef913ee6095e369eda5b9d7,2020-11-27_15h03.16.770,lexical_decision_task_MP_exp2,2020.2.5,Linux armv8l,60,,0,-0.373779297,-0.304619683,1,0,0,0.7157,button_left,0.7157,1,,,,,,375,NW,UN,33,iguare,YORQUE,z,,,,,,-0.373779297,-0.304619683,1,0,0,,0,310,310,374,1,
,,,,,,,,,,,,,,,,,,5ef913ee6095e369eda5b9d7,2020-11-27_15h03.16.770,lexical_decision_task_MP_exp2,2020.2.5,Linux armv8l,60,,0,-0.367675781,-0.37387424,1,0,0,0.8504,button_left,0.8504,1,,,,,,450,NW,UN,16,rastoe,PHRECT,z,,,,,,-0.367675781,-0.37387424,1,0,0,,0,311,311,449,1,
,,,,,,,,,,,,,,,,,,5ef913ee6095e369eda5b9d7,2020-11-27_15h03.16.770,lexical_decision_task_MP_exp2,2020.2.5,Linux armv8l,60,,0,0.333496094,-0.336235894,1,0,0,0.8007,button_right,0.8007,1,,,,,,4,WORD,"ID",33,trench,TRENCH,m,,,,,,0.333496094,-0.336235894,1,0,0,,0,312,312,3,1,
,,,,,,,,,,,,,,,,,,5ef913ee6095e369eda5b9d7,2020-11-27_15h03.16.770,lexical_decision_task_MP_exp2,2020.2.5,Linux armv8l,60,,0,0.336425781,-0.340752496,1,0,0,0.7666,button_right,0.7666,1,,,,,,173,WORD,UN,33,turkey,SHOWER,m,,,,,,0.336425781,-0.340752496,1,0,0,,0,313,313,172,1,
,,,,,,,,,,,,,,,,,,5ef913ee6095e369eda5b9d7,2020-11-27_15h03.16.770,lexical_decision_task_MP_exp2,2020.2.5,Linux armv8l,60,,0,0.333007813,-0.33473036,1,0,0,0.8324,button_right,0.8324,1,,,,,,19,WORD,"ID",33,patron,PATRON,m,,,,,,0.333007813,-0.33473036,1,0,0,,0,314,314,18,1,
,,,,,,,,,,,,,,,,,,5ef913ee6095e369eda5b9d7,2020-11-27_15h03.16.770,lexical_decision_task_MP_exp2,2020.2.5,Linux armv8l,60,,0,0.309814453,-0.349785699,1,0,0,0.749,button_right,0.749,1,,,,,,30,WORD,"ID",33,orient,ORIENT,m,,,,,,0.309814453,-0.349785699,1,0,0,,0,315,315,29,1,
,,,,,,,,,,,,,,,,,,5ef913ee6095e369eda5b9d7,2020-11-27_15h03.16.770,lexical_decision_task_MP_exp2,2020.2.5,Linux armv8l,60,,0,0.327880859,-0.344767253,1,0,0,0.8157,button_right,0.8157,1,,,,,,156,WORD,UN,33,pastor,CRADLE,m,,,,,,0.327880859,-0.344767253,1,0,0,,0,316,316,155,1,
,,,,,,,,,,,,,,,,,,5ef913ee6095e369eda5b9d7,2020-11-27_15h03.16.770,lexical_decision_task_MP_exp2,2020.2.5,Linux armv8l,60,,0,-0.371582031,-0.340250651,1,0,0,1.051,button_left,1.051,1,,,,,,303,NW,"ID",16,fiream,FIREAM,z,,,,,,-0.371582031,-0.340250651,1,0,0,,0,317,317,302,1,
,,,,,,,,,,,,,,,,,,5ef913ee6095e369eda5b9d7,2020-11-27_15h03.16.770,lexical_decision_task_MP_exp2,2020.2.5,Linux armv8l,60,,0,0.322753906,-0.338243273,1,0,0,0.7283,button_right,0.7283,1,,,,,,27,WORD,"ID",33,scream,SCREAM,m,,,,,,0.322753906,-0.338243273,1,0,0,,0,318,318,26,1,
,,,,,,,,,,,,,,,,,,5ef913ee6095e369eda5b9d7,2020-11-27_15h03.16.770,lexical_decision_task_MP_exp2,2020.2.5,Linux armv8l,60,,0,0.311035156,-0.353800456,1,0,0,0.7838,button_right,0.7838,1,,,,,,133,WORD,UN,33,debris,CHROME,m,,,,,,0.311035156,-0.353800456,1,0,0,,0,319,319,132,1,
,,,,,,,,,,,,,,,,,,5ef913ee6095e369eda5b9d7,2020-11-27_15h03.16.770,lexical_decision_task_MP_exp2,2020.2.5,Linux armv8l,60,,0,-0.356689453,-0.34878201,1,0,0,0.7828,button_left,0.7828,1,,,,,,388,NW,UN,33,witmer,CRAGIN,z,,,,,,-0.356689453,-0.34878201,1,0,0,,0,320,320,387,1,
,,,,,,,,,,,,,,,,,,5ef913ee6095e369eda5b9d7,2020-11-27_15h03.16.770,lexical_decision_task_MP_exp2,2020.2.5,Linux armv8l,60,,0,-0.371337891,-0.33473036,1,0,0,1.3131,button_left,1.3131,1,,,,,,345,NW,"ID",16,absend,ABSEND,z,,,,,,-0.371337891,-0.33473036,1,0,0,,0,321,321,344,1,
,,,,,,,,,,,,,,,,,,5ef913ee6095e369eda5b9d7,2020-11-27_15h03.16.770,lexical_decision_task_MP_exp2,2020.2.5,Linux armv8l,60,,0,0.294677734,-0.376383464,1,0,0,0.634,button_right,0.634,1,,,,,,109,WORD,"ID",16,wonder,WONDER,m,,,,,,0.294677734,-0.376383464,1,0,0,,0,322,322,108,1,
,,,,,,,,,,,,,,,,,,5ef913ee6095e369eda5b9d7,2020-11-27_15h03.16.770,lexical_decision_task_MP_exp2,2020.2.5,Linux armv8l,60,,0,0.294433594,-0.3543023,1,0,0,0.6645,button_right,0.6645,1,,,,,,5,WORD,"ID",33,plunge,PLUNGE,m,,,,,,0.294433594,-0.3543023,1,0,0,,0,323,323,4,1,
,,,,,,,,,,,,,,,,,,5ef913ee6095e369eda5b9d7,2020-11-27_15h03.16.770,lexical_decision_task_MP_exp2,2020.2.5,Linux armv8l,60,,0,-0.384765625,-0.319675022,1,0,0,0.7656,button_left,0.7656,1,,,,,,405,NW,UN,33,nouply,FLUMNI,z,,,,,,-0.384765625,-0.319675022,1,0,0,,0,324,324,404,1,
,,,,,,,,,,,,,,,,,,5ef913ee6095e369eda5b9d7,2020-11-27_15h03.16.770,lexical_decision_task_MP_exp2,2020.2.5,Linux armv8l,60,,0,0.303222656,-0.38140191,1,0,0,0.8673,button_right,0.8673,1,,,,,,16,WORD,"ID",33,faucet,FAUCET,m,,,,,,0.303222656,-0.38140191,1,0,0,,0,325,325,15,1,
,,,,,,,,,,,,,,,,,,5ef913ee6095e369eda5b9d7,2020-11-27_15h03.16.770,lexical_decision_task_MP_exp2,2020.2.5,Linux armv8l,60,,0,0.295898438,-0.365342882,1,0,0,0.748,button_right,0.748,1,,,,,,96,WORD,"ID",16,ignore,IGNORE,m,,,,,,0.295898438,-0.365342882,1,0,0,,0,326,326,95,1,
,,,,,,,,,,,,,,,,,,5ef913ee6095e369eda5b9d7,2020-11-27_15h03.16.770,lexical_decision_task_MP_exp2,2020.2.5,Linux armv8l,60,,0,-0.362060547,-0.336235894,1,0,0,0.719,button_left,0.719,1,,,,,,404,NW,UN,33,syntic,CLUIRM,z,,,,,,-0.362060547,-0.336235894,1,0,0,,0,327,327,403,1,
,,,,,,,,,,,,,,,,,,5ef913ee6095e369eda5b9d7,2020-11-27_15h03.16.770,lexical_decision_task_MP_exp2,2020.2.5,Linux armv8l,60,,0,0.302734375,-0.363335503,1,0,0,0.8016,button_right,0.8016,1,,,,,,24,WORD,"ID",33,praise,PRAISE,m,,,,,,0.302734375,-0.363335503,1,0,0,,0,328,328,23,1,
,,,,,,,,,,,,,,,,,,5ef913ee6095e369eda5b9d7,2020-11-27_15h03.16.770,lexical_decision_task_MP_exp2,2020.2.5,Linux armv8l,60,,0,0.294677734,-0.358317057,1,0,0,0.6825,button_right,0.6825,1,,,,,,62,WORD,"ID",16,region,REGION,m,,,,,,0.294677734,-0.358317057,1,0,0,,0,329,329,61,1,
,,,,,,,,,,,,,,,,,,5ef913ee6095e369eda5b9d7,2020-11-27_15h03.16.770,lexical_decision_task_MP_exp2,2020.2.5,Linux armv8l,60,,0,-0.361083984,-0.350287543,1,0,0,0.6825,button_left,0.6825,1,,,,,,326,NW,"ID",16,iguade,IGUADE,z,,,,,,-0.361083984,-0.350287543,1,0,0,,0,330,330,325,1,
,,,,,,,,,,,,,,,,,,5ef913ee6095e369eda5b9d7,2020-11-27_15h03.16.770,lexical_decision_task_MP_exp2,2020.2.5,Linux armv8l,60,,0,-0.359619141,-0.336737739,1,0,0,0.6318,button_left,0.6318,1,,,,,,267,NW,"ID",33,pasink,PASINK,z,,,,,,-0.359619141,-0.336737739,1,0,0,,0,331,331,266,1,
,,,,,,,,,,,,,,,,,,5ef913ee6095e369eda5b9d7,2020-11-27_15h03.16.770,lexical_decision_task_MP_exp2,2020.2.5,Linux armv8l,60,,0,-0.362548828,-0.317165799,1,0,0,0.6468,button_left,0.6468,1,,,,,,245,NW,"ID",33,anougs,ANOUGS,z,,,,,,-0.362548828,-0.317165799,1,0,0,,0,332,332,244,1,
,,,,,,,,,,,,,,,,,,5ef913ee6095e369eda5b9d7,2020-11-27_15h03.16.770,lexical_decision_task_MP_exp2,2020.2.5,Linux armv8l,60,,0,0.299072266,-0.337239583,1,0,0,0.6497,button_right,0.6497,1,,,,,,58,WORD,"ID",33,foster,FOSTER,m,,,,,,0.299072266,-0.337239583,1,0,0,,0,333,333,57,1,
,,,,,,,,,,,,,,,,,,5ef913ee6095e369eda5b9d7,2020-11-27_15h03.16.770,lexical_decision_task_MP_exp2,2020.2.5,Linux armv8l,60,,0,0.334472656,-0.318169488,1,0,0,0.8177,button_right,0.8177,1,,,,,,197,WORD,UN,16,wicked,STREAM,m,,,,,,0.334472656,-0.318169488,1,0,0,,0,334,334,196,1,
