counterbalancing_condition,instr_done_keyboard.keys,instr_done_touch.x,instr_done_touch.y,instr_done_touch.leftButton,instr_done_touch.midButton,instr_done_touch.rightButton,instr_done_touch.clicked_name,instruction_pages.thisRepN,instruction_pages.thisTrialN,instruction_pages.thisN,instruction_pages.thisIndex,instruction_pages.ran,pageN,phase,instruct_text,has_image,instruct_image,participant,date,expName,psychopyVersion,OS,frameRate,response.keys,response.corr,response.rt,touch_resp.x,touch_resp.y,touch_resp.leftButton,touch_resp.midButton,touch_resp.rightButton,touch_resp.time,touch_resp.clicked_name,rt,corr,practice_trials.thisRepN,practice_trials.thisTrialN,practice_trials.thisN,practice_trials.thisIndex,practice_trials.ran,TrialID,StimulusType,Condition,PrimeDuration,Prime,Target,corrAns,end_of_practice_trials_pages.thisRepN,end_of_practice_trials_pages.thisTrialN,end_of_practice_trials_pages.thisN,end_of_practice_trials_pages.thisIndex,end_of_practice_trials_pages.ran,break_done_touch.x,break_done_touch.y,break_done_touch.leftButton,break_done_touch.midButton,break_done_touch.rightButton,break_done_keyboard.keys,experiment_trials.thisRepN,experiment_trials.thisTrialN,experiment_trials.thisN,experiment_trials.thisIndex,experiment_trials.ran,break_done_touch.clicked_name,break_done_keyboard.rt
0,,0.004804687,-0.387552083,1,0,0,instr_done_button,0,0,0,0,1,1,instructions,"INSTRUCTIONS
At the start of each trial, look at the hash marks (######) in the center of the screen. After a moment, a string of letters will appear. Your task is to indicate if the letter string forms a word or not (i.e., if it is a nonword). For example, AUTHOR is a word while AUTHON is a nonword.

Press the space bar or touch the button below to continue.",0,,5f12178ab3ab9d046595ce66,2020-11-27_15h06.28.980,lexical_decision_task_MP_exp2,2020.2.5,MacIntel,60,,,,,,,,,,,,,,,,,,,,,,,,,,,,,,,,,,,,,,,,,,
,,-0.021974826,-0.383025174,1,0,0,instr_done_button,0,1,1,1,1,2,instructions,"If your device has a keyboard, press the 'Z' key for nonwords and the 'M' key for words.





Press the space bar or touch the button below to continue.",1,keyboard-example.gif,5f12178ab3ab9d046595ce66,2020-11-27_15h06.28.980,lexical_decision_task_MP_exp2,2020.2.5,MacIntel,60,,,,,,,,,,,,,,,,,,,,,,,,,,,,,,,,,,,,,,,,,,
,,-0.021974826,-0.383025174,1,0,0,instr_done_button,0,2,2,2,1,3,instructions,"If you are using a touchscreen only device, use the buttons on the screen. Do not use the mouse.





Press the space bar or touch the button below to continue.",1,touchscreen-example.gif,5f12178ab3ab9d046595ce66,2020-11-27_15h06.28.980,lexical_decision_task_MP_exp2,2020.2.5,MacIntel,60,,,,,,,,,,,,,,,,,,,,,,,,,,,,,,,,,,,,,,,,,,
,,-0.021675347,-0.381684028,1,0,0,instr_done_button,0,3,3,3,1,4,instructions,"It is very important that you respond as quickly and accurately as possible, as each letter string will only be on the screen for two seconds. If you do not respond within this time, the message 'Too slow!' will be displayed and the experiment will progress to the next letter string. The first 20 trials will be practice trials and you will receive feedback on your answers. 

Press the space bar or touch the button below to start the practice trials.",0,,5f12178ab3ab9d046595ce66,2020-11-27_15h06.28.980,lexical_decision_task_MP_exp2,2020.2.5,MacIntel,60,,,,,,,,,,,,,,,,,,,,,,,,,,,,,,,,,,,,,,,,,,
,,,,,,,,,,,,,,,,,,5f12178ab3ab9d046595ce66,2020-11-27_15h06.28.980,lexical_decision_task_MP_exp2,2020.2.5,MacIntel,60,m,0,1.092015,,,,,,,,1.092015,0,0,0,0,9,1,1010,NW,"ID",33,fariny,FARINY,z,,,,,,,,,,,,,,,,,,
,,,,,,,,,,,,,,,,,,5f12178ab3ab9d046595ce66,2020-11-27_15h06.28.980,lexical_decision_task_MP_exp2,2020.2.5,MacIntel,60,m,1,0.623095,,,,,,,,0.623095,1,0,1,1,0,1,1001,WORD,"ID",33,utopia,UTOPIA,m,,,,,,,,,,,,,,,,,,
,,,,,,,,,,,,,,,,,,5f12178ab3ab9d046595ce66,2020-11-27_15h06.28.980,lexical_decision_task_MP_exp2,2020.2.5,MacIntel,60,m,1,0.69737,,,,,,,,0.69737,1,0,2,2,1,1,1002,WORD,"ID",33,adjust,ADJUST,m,,,,,,,,,,,,,,,,,,
,,,,,,,,,,,,,,,,,,5f12178ab3ab9d046595ce66,2020-11-27_15h06.28.980,lexical_decision_task_MP_exp2,2020.2.5,MacIntel,60,z,1,0.73005,,,,,,,,0.73005,1,0,3,3,15,1,1016,NW,UN,16,mushed,WHAISE,z,,,,,,,,,,,,,,,,,,
,,,,,,,,,,,,,,,,,,5f12178ab3ab9d046595ce66,2020-11-27_15h06.28.980,lexical_decision_task_MP_exp2,2020.2.5,MacIntel,60,m,1,0.500035,,,,,,,,0.500035,1,0,4,4,7,1,1008,WORD,UN,16,hurdle,VOLUME,m,,,,,,,,,,,,,,,,,,
,,,,,,,,,,,,,,,,,,5f12178ab3ab9d046595ce66,2020-11-27_15h06.28.980,lexical_decision_task_MP_exp2,2020.2.5,MacIntel,60,m,1,0.68814,,,,,,,,0.68814,1,0,5,5,6,1,1007,WORD,UN,16,tropic,ZOMBIE,m,,,,,,,,,,,,,,,,,,
,,,,,,,,,,,,,,,,,,5f12178ab3ab9d046595ce66,2020-11-27_15h06.28.980,lexical_decision_task_MP_exp2,2020.2.5,MacIntel,60,z,1,0.739025,,,,,,,,0.739025,1,0,6,6,14,1,1015,NW,UN,16,miaber,THRALE,z,,,,,,,,,,,,,,,,,,
,,,,,,,,,,,,,,,,,,5f12178ab3ab9d046595ce66,2020-11-27_15h06.28.980,lexical_decision_task_MP_exp2,2020.2.5,MacIntel,60,z,1,0.699415,,,,,,,,0.699415,1,0,7,7,8,1,1009,NW,"ID",33,aslert,ASLERT,z,,,,,,,,,,,,,,,,,,
,,,,,,,,,,,,,,,,,,5f12178ab3ab9d046595ce66,2020-11-27_15h06.28.980,lexical_decision_task_MP_exp2,2020.2.5,MacIntel,60,m,1,0.5184,,,,,,,,0.5184,1,0,8,8,5,1,1006,WORD,UN,33,frenzy,OBTAIN,m,,,,,,,,,,,,,,,,,,
,,,,,,,,,,,,,,,,,,5f12178ab3ab9d046595ce66,2020-11-27_15h06.28.980,lexical_decision_task_MP_exp2,2020.2.5,MacIntel,60,m,1,0.68695,,,,,,,,0.68695,1,0,9,9,3,1,1004,WORD,"ID",16,matrix,MATRIX,m,,,,,,,,,,,,,,,,,,
,,,,,,,,,,,,,,,,,,5f12178ab3ab9d046595ce66,2020-11-27_15h06.28.980,lexical_decision_task_MP_exp2,2020.2.5,MacIntel,60,z,1,0.61382,,,,,,,,0.61382,1,0,10,10,11,1,1012,NW,"ID",16,rashet,RASHET,z,,,,,,,,,,,,,,,,,,
,,,,,,,,,,,,,,,,,,5f12178ab3ab9d046595ce66,2020-11-27_15h06.28.980,lexical_decision_task_MP_exp2,2020.2.5,MacIntel,60,m,1,0.458205,,,,,,,,0.458205,1,0,11,11,2,1,1003,WORD,"ID",16,almond,ALMOND,m,,,,,,,,,,,,,,,,,,
,,,,,,,,,,,,,,,,,,5f12178ab3ab9d046595ce66,2020-11-27_15h06.28.980,lexical_decision_task_MP_exp2,2020.2.5,MacIntel,60,m,0,0.56565,,,,,,,,0.56565,0,0,12,12,10,1,1011,NW,"ID",16,inlade,INLADE,z,,,,,,,,,,,,,,,,,,
,,,,,,,,,,,,,,,,,,5f12178ab3ab9d046595ce66,2020-11-27_15h06.28.980,lexical_decision_task_MP_exp2,2020.2.5,MacIntel,60,m,1,0.77555,,,,,,,,0.77555,1,0,13,13,4,1,1005,WORD,UN,33,abound,SQUEAK,m,,,,,,,,,,,,,,,,,,
,,,,,,,,,,,,,,,,,,5f12178ab3ab9d046595ce66,2020-11-27_15h06.28.980,lexical_decision_task_MP_exp2,2020.2.5,MacIntel,60,z,1,0.65204,,,,,,,,0.65204,1,0,14,14,13,1,1014,NW,UN,33,winfer,ROUPET,z,,,,,,,,,,,,,,,,,,
,,,,,,,,,,,,,,,,,,5f12178ab3ab9d046595ce66,2020-11-27_15h06.28.980,lexical_decision_task_MP_exp2,2020.2.5,MacIntel,60,m,0,0.56794,,,,,,,,0.56794,0,0,15,15,12,1,1013,NW,UN,33,adveil,SPRINY,z,,,,,,,,,,,,,,,,,,
,,-0.024392361,-0.39452691,1,0,0,instr_done_button,,,,,,1,end_of_practice,"You have completed the practice trials. During the experimental trials, you will not receive feedback, but it is very important that you respond as quickly and accurately as possible. 
Before you begin, please ensure that you are in a comfortable and quiet location and will not be disturbed for about 15 minutes, as we cannot use your data if you do not complete all the trials. 
There will be opportunities to take breaks at regular intervals during the experiment. When you are ready to start the experimental trials, please press space or touch the button below.",,,5f12178ab3ab9d046595ce66,2020-11-27_15h06.28.980,lexical_decision_task_MP_exp2,2020.2.5,MacIntel,60,,,,,,,,,,,,,,,,,,,,,,,,,0,0,0,0,1,,,,,,,,,,,,,
,,,,,,,,,,,,,,,,,,5f12178ab3ab9d046595ce66,2020-11-27_15h06.28.980,lexical_decision_task_MP_exp2,2020.2.5,MacIntel,60,m,1,0.486875,,,,,,,,0.486875,1,,,,,,143,WORD,UN,16,sponge,REASON,m,,,,,,-0.024392361,-0.39452691,0,0,0,,0,0,0,202,1,,
,,,,,,,,,,,,,,,,,,5f12178ab3ab9d046595ce66,2020-11-27_15h06.28.980,lexical_decision_task_MP_exp2,2020.2.5,MacIntel,60,m,0,0.552245,,,,,,,,0.552245,0,,,,,,268,NW,"ID",16,packes,PACKES,z,,,,,,-0.024392361,-0.39452691,0,0,0,,0,1,1,327,1,,
,,,,,,,,,,,,,,,,,,5f12178ab3ab9d046595ce66,2020-11-27_15h06.28.980,lexical_decision_task_MP_exp2,2020.2.5,MacIntel,60,m,0,0.53499,,,,,,,,0.53499,0,,,,,,398,NW,UN,16,fouret,BLUNDE,z,,,,,,-0.024392361,-0.39452691,0,0,0,,0,2,2,457,1,,
,,,,,,,,,,,,,,,,,,5f12178ab3ab9d046595ce66,2020-11-27_15h06.28.980,lexical_decision_task_MP_exp2,2020.2.5,MacIntel,60,m,1,0.522095,,,,,,,,0.522095,1,,,,,,85,WORD,UN,33,rodent,SPRAWL,m,,,,,,-0.024392361,-0.39452691,0,0,0,,0,3,3,144,1,,
,,,,,,,,,,,,,,,,,,5f12178ab3ab9d046595ce66,2020-11-27_15h06.28.980,lexical_decision_task_MP_exp2,2020.2.5,MacIntel,60,z,1,0.684835,,,,,,,,0.684835,1,,,,,,440,NW,"ID",33,saride,SARIDE,z,,,,,,-0.024392361,-0.39452691,0,0,0,,0,4,4,259,1,,
,,,,,,,,,,,,,,,,,,5f12178ab3ab9d046595ce66,2020-11-27_15h06.28.980,lexical_decision_task_MP_exp2,2020.2.5,MacIntel,60,m,0,0.66859,,,,,,,,0.66859,0,,,,,,314,NW,UN,33,laston,SPRINE,z,,,,,,-0.024392361,-0.39452691,0,0,0,,0,5,5,373,1,,
,,,,,,,,,,,,,,,,,,5f12178ab3ab9d046595ce66,2020-11-27_15h06.28.980,lexical_decision_task_MP_exp2,2020.2.5,MacIntel,60,m,0,0.631285,,,,,,,,0.631285,0,,,,,,281,NW,"ID",16,melaty,MELATY,z,,,,,,-0.024392361,-0.39452691,0,0,0,,0,6,6,340,1,,
,,,,,,,,,,,,,,,,,,5f12178ab3ab9d046595ce66,2020-11-27_15h06.28.980,lexical_decision_task_MP_exp2,2020.2.5,MacIntel,60,z,1,0.687055,,,,,,,,0.687055,1,,,,,,351,NW,UN,33,tringe,TIESCH,z,,,,,,-0.024392361,-0.39452691,0,0,0,,0,7,7,410,1,,
,,,,,,,,,,,,,,,,,,5f12178ab3ab9d046595ce66,2020-11-27_15h06.28.980,lexical_decision_task_MP_exp2,2020.2.5,MacIntel,60,z,1,0.61569,,,,,,,,0.61569,1,,,,,,436,NW,"ID",33,frutan,FRUTAN,z,,,,,,-0.024392361,-0.39452691,0,0,0,,0,8,8,255,1,,
,,,,,,,,,,,,,,,,,,5f12178ab3ab9d046595ce66,2020-11-27_15h06.28.980,lexical_decision_task_MP_exp2,2020.2.5,MacIntel,60,z,1,0.721605,,,,,,,,0.721605,1,,,,,,400,NW,UN,16,mustil,WEAROX,z,,,,,,-0.024392361,-0.39452691,0,0,0,,0,9,9,459,1,,
,,,,,,,,,,,,,,,,,,5f12178ab3ab9d046595ce66,2020-11-27_15h06.28.980,lexical_decision_task_MP_exp2,2020.2.5,MacIntel,60,m,1,0.633055,,,,,,,,0.633055,1,,,,,,165,WORD,UN,16,starch,INVEST,m,,,,,,-0.024392361,-0.39452691,0,0,0,,0,10,10,224,1,,
,,,,,,,,,,,,,,,,,,5f12178ab3ab9d046595ce66,2020-11-27_15h06.28.980,lexical_decision_task_MP_exp2,2020.2.5,MacIntel,60,m,1,0.563735,,,,,,,,0.563735,1,,,,,,167,WORD,UN,16,answer,DESIGN,m,,,,,,-0.024392361,-0.39452691,0,0,0,,0,11,11,226,1,,
,,,,,,,,,,,,,,,,,,5f12178ab3ab9d046595ce66,2020-11-27_15h06.28.980,lexical_decision_task_MP_exp2,2020.2.5,MacIntel,60,z,1,0.707865,,,,,,,,0.707865,1,,,,,,415,NW,UN,16,pathel,HIGSTA,z,,,,,,-0.024392361,-0.39452691,0,0,0,,0,12,12,474,1,,
,,,,,,,,,,,,,,,,,,5f12178ab3ab9d046595ce66,2020-11-27_15h06.28.980,lexical_decision_task_MP_exp2,2020.2.5,MacIntel,60,m,0,0.638395,,,,,,,,0.638395,0,,,,,,261,NW,"ID",16,stunch,STUNCH,z,,,,,,-0.024392361,-0.39452691,0,0,0,,0,13,13,320,1,,
,,,,,,,,,,,,,,,,,,5f12178ab3ab9d046595ce66,2020-11-27_15h06.28.980,lexical_decision_task_MP_exp2,2020.2.5,MacIntel,60,m,1,0.70397,,,,,,,,0.70397,1,,,,,,217,WORD,"ID",33,liquor,LIQUOR,m,,,,,,-0.024392361,-0.39452691,0,0,0,,0,14,14,36,1,,
,,,,,,,,,,,,,,,,,,5f12178ab3ab9d046595ce66,2020-11-27_15h06.28.980,lexical_decision_task_MP_exp2,2020.2.5,MacIntel,60,m,1,0.53813,,,,,,,,0.53813,1,,,,,,2,WORD,"ID",16,bridge,BRIDGE,m,,,,,,-0.024392361,-0.39452691,0,0,0,,0,15,15,61,1,,
,,,,,,,,,,,,,,,,,,5f12178ab3ab9d046595ce66,2020-11-27_15h06.28.980,lexical_decision_task_MP_exp2,2020.2.5,MacIntel,60,z,1,0.632345,,,,,,,,0.632345,1,,,,,,311,NW,UN,33,nerawl,SPROLY,z,,,,,,-0.024392361,-0.39452691,0,0,0,,0,16,16,370,1,,
,,,,,,,,,,,,,,,,,,5f12178ab3ab9d046595ce66,2020-11-27_15h06.28.980,lexical_decision_task_MP_exp2,2020.2.5,MacIntel,60,z,1,0.749815,,,,,,,,0.749815,1,,,,,,431,NW,"ID",33,chrums,CHRUMS,z,,,,,,-0.024392361,-0.39452691,0,0,0,,0,17,17,250,1,,
,,,,,,,,,,,,,,,,,,5f12178ab3ab9d046595ce66,2020-11-27_15h06.28.980,lexical_decision_task_MP_exp2,2020.2.5,MacIntel,60,z,0,0.58842,,,,,,,,0.58842,0,,,,,,4,WORD,"ID",16,trench,TRENCH,m,,,,,,-0.024392361,-0.39452691,0,0,0,,0,18,18,63,1,,
,,,,,,,,,,,,,,,,,,5f12178ab3ab9d046595ce66,2020-11-27_15h06.28.980,lexical_decision_task_MP_exp2,2020.2.5,MacIntel,60,z,1,0.697575,,,,,,,,0.697575,1,,,,,,326,NW,UN,33,plenac,IGUADE,z,,,,,,-0.024392361,-0.39452691,0,0,0,,0,19,19,385,1,,
,,,,,,,,,,,,,,,,,,5f12178ab3ab9d046595ce66,2020-11-27_15h06.28.980,lexical_decision_task_MP_exp2,2020.2.5,MacIntel,60,z,1,0.601475,,,,,,,,0.601475,1,,,,,,446,NW,"ID",33,runamo,RUNAMO,z,,,,,,-0.024392361,-0.39452691,0,0,0,,0,20,20,265,1,,
,,,,,,,,,,,,,,,,,,5f12178ab3ab9d046595ce66,2020-11-27_15h06.28.980,lexical_decision_task_MP_exp2,2020.2.5,MacIntel,60,m,1,0.616115,,,,,,,,0.616115,1,,,,,,230,WORD,"ID",33,fringe,FRINGE,m,,,,,,-0.024392361,-0.39452691,0,0,0,,0,21,21,49,1,,
,,,,,,,,,,,,,,,,,,5f12178ab3ab9d046595ce66,2020-11-27_15h06.28.980,lexical_decision_task_MP_exp2,2020.2.5,MacIntel,60,m,1,0.64892,,,,,,,,0.64892,1,,,,,,45,WORD,"ID",16,clergy,CLERGY,m,,,,,,-0.024392361,-0.39452691,0,0,0,,0,22,22,104,1,,
,,,,,,,,,,,,,,,,,,5f12178ab3ab9d046595ce66,2020-11-27_15h06.28.980,lexical_decision_task_MP_exp2,2020.2.5,MacIntel,60,m,0,0.52609,,,,,,,,0.52609,0,,,,,,342,NW,UN,33,aimosy,RANDOW,z,,,,,,-0.024392361,-0.39452691,0,0,0,,0,23,23,401,1,,
,,,,,,,,,,,,,,,,,,5f12178ab3ab9d046595ce66,2020-11-27_15h06.28.980,lexical_decision_task_MP_exp2,2020.2.5,MacIntel,60,m,1,0.68336,,,,,,,,0.68336,1,,,,,,59,WORD,"ID",16,splint,SPLINT,m,,,,,,-0.024392361,-0.39452691,0,0,0,,0,24,24,118,1,,
,,,,,,,,,,,,,,,,,,5f12178ab3ab9d046595ce66,2020-11-27_15h06.28.980,lexical_decision_task_MP_exp2,2020.2.5,MacIntel,60,m,1,0.56636,,,,,,,,0.56636,1,,,,,,175,WORD,UN,16,strife,FABRIC,m,,,,,,-0.024392361,-0.39452691,0,0,0,,0,25,25,234,1,,
,,,,,,,,,,,,,,,,,,5f12178ab3ab9d046595ce66,2020-11-27_15h06.28.980,lexical_decision_task_MP_exp2,2020.2.5,MacIntel,60,z,1,0.64783,,,,,,,,0.64783,1,,,,,,293,NW,"ID",16,swance,SWANCE,z,,,,,,-0.024392361,-0.39452691,0,0,0,,0,26,26,352,1,,
,,,,,,,,,,,,,,,,,,5f12178ab3ab9d046595ce66,2020-11-27_15h06.28.980,lexical_decision_task_MP_exp2,2020.2.5,MacIntel,60,z,1,0.62268,,,,,,,,0.62268,1,,,,,,251,NW,"ID",16,lupict,LUPICT,z,,,,,,-0.024392361,-0.39452691,0,0,0,,0,27,27,310,1,,
,,,,,,,,,,,,,,,,,,5f12178ab3ab9d046595ce66,2020-11-27_15h06.28.980,lexical_decision_task_MP_exp2,2020.2.5,MacIntel,60,m,1,0.621735,,,,,,,,0.621735,1,,,,,,69,WORD,UN,33,square,PLENTY,m,,,,,,-0.024392361,-0.39452691,0,0,0,,0,28,28,128,1,,
,,,,,,,,,,,,,,,,,,5f12178ab3ab9d046595ce66,2020-11-27_15h06.28.980,lexical_decision_task_MP_exp2,2020.2.5,MacIntel,60,m,1,0.548125,,,,,,,,0.548125,1,,,,,,55,WORD,"ID",16,stroke,STROKE,m,,,,,,-0.024392361,-0.39452691,0,0,0,,0,29,29,114,1,,
,,,,,,,,,,,,,,,,,,5f12178ab3ab9d046595ce66,2020-11-27_15h06.28.980,lexical_decision_task_MP_exp2,2020.2.5,MacIntel,60,m,0,0.93907,,,,,,,,0.93907,0,,,,,,418,NW,UN,16,slount,SUIDLE,z,,,,,,-0.024392361,-0.39452691,0,0,0,,0,30,30,477,1,,
,,,,,,,,,,,,,,,,,,5f12178ab3ab9d046595ce66,2020-11-27_15h06.28.980,lexical_decision_task_MP_exp2,2020.2.5,MacIntel,60,z,1,0.81618,,,,,,,,0.81618,1,,,,,,333,NW,UN,33,watmeg,CATRIE,z,,,,,,-0.024392361,-0.39452691,0,0,0,,0,31,31,392,1,,
,,,,,,,,,,,,,,,,,,5f12178ab3ab9d046595ce66,2020-11-27_15h06.28.980,lexical_decision_task_MP_exp2,2020.2.5,MacIntel,60,m,1,0.620145,,,,,,,,0.620145,1,,,,,,110,WORD,UN,33,induce,POLITE,m,,,,,,-0.024392361,-0.39452691,0,0,0,,0,32,32,169,1,,
,,,,,,,,,,,,,,,,,,5f12178ab3ab9d046595ce66,2020-11-27_15h06.28.980,lexical_decision_task_MP_exp2,2020.2.5,MacIntel,60,m,1,0.552665,,,,,,,,0.552665,1,,,,,,213,WORD,"ID",33,squeal,SQUEAL,m,,,,,,-0.024392361,-0.39452691,0,0,0,,0,33,33,32,1,,
,,,,,,,,,,,,,,,,,,5f12178ab3ab9d046595ce66,2020-11-27_15h06.28.980,lexical_decision_task_MP_exp2,2020.2.5,MacIntel,60,z,1,0.648075,,,,,,,,0.648075,1,,,,,,287,NW,"ID",16,nymbel,NYMBEL,z,,,,,,-0.024392361,-0.39452691,0,0,0,,0,34,34,346,1,,
,,,,,,,,,,,,,,,,,,5f12178ab3ab9d046595ce66,2020-11-27_15h06.28.980,lexical_decision_task_MP_exp2,2020.2.5,MacIntel,60,z,1,0.698665,,,,,,,,0.698665,1,,,,,,273,NW,"ID",16,sortel,SORTEL,z,,,,,,-0.024392361,-0.39452691,0,0,0,,0,35,35,332,1,,
,,,,,,,,,,,,,,,,,,5f12178ab3ab9d046595ce66,2020-11-27_15h06.28.980,lexical_decision_task_MP_exp2,2020.2.5,MacIntel,60,z,1,0.52947,,,,,,,,0.52947,1,,,,,,365,NW,UN,16,toshel,GUAIRT,z,,,,,,-0.024392361,-0.39452691,0,0,0,,0,36,36,424,1,,
,,,,,,,,,,,,,,,,,,5f12178ab3ab9d046595ce66,2020-11-27_15h06.28.980,lexical_decision_task_MP_exp2,2020.2.5,MacIntel,60,z,1,0.665095,,,,,,,,0.665095,1,,,,,,404,NW,UN,16,flumni,CLUIRM,z,,,,,,-0.024392361,-0.39452691,0,0,0,,0,37,37,463,1,,
,,,,,,,,,,,,,,,,,,5f12178ab3ab9d046595ce66,2020-11-27_15h06.28.980,lexical_decision_task_MP_exp2,2020.2.5,MacIntel,60,m,1,0.6802,,,,,,,,0.6802,1,,,,,,76,WORD,UN,33,racket,EXOTIC,m,,,,,,-0.024392361,-0.39452691,0,0,0,,0,38,38,135,1,,
,,,,,,,,,,,,,,,,,,5f12178ab3ab9d046595ce66,2020-11-27_15h06.28.980,lexical_decision_task_MP_exp2,2020.2.5,MacIntel,60,z,1,0.700595,,,,,,,,0.700595,1,,,,,,414,NW,UN,16,higsta,SERBOL,z,,,,,,-0.024392361,-0.39452691,0,0,0,,0,39,39,473,1,,
,,,,,,,,,,,,,,,,,,5f12178ab3ab9d046595ce66,2020-11-27_15h06.28.980,lexical_decision_task_MP_exp2,2020.2.5,MacIntel,60,z,1,0.740925,,,,,,,,0.740925,1,,,,,,318,NW,UN,33,zomber,REAGLY,z,,,,,,-0.024392361,-0.39452691,0,0,0,,0,40,40,377,1,,
,,,,,,,,,,,,,,,,,,5f12178ab3ab9d046595ce66,2020-11-27_15h06.28.980,lexical_decision_task_MP_exp2,2020.2.5,MacIntel,60,z,1,0.5591,,,,,,,,0.5591,1,,,,,,315,NW,UN,33,scregm,LASTON,z,,,,,,-0.024392361,-0.39452691,0,0,0,,0,41,41,374,1,,
,,,,,,,,,,,,,,,,,,5f12178ab3ab9d046595ce66,2020-11-27_15h06.28.980,lexical_decision_task_MP_exp2,2020.2.5,MacIntel,60,z,1,0.60302,,,,,,,,0.60302,1,,,,,,459,NW,"ID",33,bafent,BAFENT,z,,,,,,-0.024392361,-0.39452691,0,0,0,,0,42,42,278,1,,
,,,,,,,,,,,,,,,,,,5f12178ab3ab9d046595ce66,2020-11-27_15h06.28.980,lexical_decision_task_MP_exp2,2020.2.5,MacIntel,60,m,1,0.6335,,,,,,,,0.6335,1,,,,,,103,WORD,UN,33,studio,BOUNCE,m,,,,,,-0.024392361,-0.39452691,0,0,0,,0,43,43,162,1,,
,,,,,,,,,,,,,,,,,,5f12178ab3ab9d046595ce66,2020-11-27_15h06.28.980,lexical_decision_task_MP_exp2,2020.2.5,MacIntel,60,z,1,0.699925,,,,,,,,0.699925,1,,,,,,301,NW,UN,33,miluer,FAINCH,z,,,,,,-0.024392361,-0.39452691,0,0,0,,0,44,44,360,1,,
,,,,,,,,,,,,,,,,,,5f12178ab3ab9d046595ce66,2020-11-27_15h06.28.980,lexical_decision_task_MP_exp2,2020.2.5,MacIntel,60,m,1,0.6486,,,,,,,,0.6486,1,,,,,,211,WORD,"ID",33,infect,INFECT,m,,,,,,-0.024392361,-0.39452691,0,0,0,,0,45,45,30,1,,
,,,,,,,,,,,,,,,,,,5f12178ab3ab9d046595ce66,2020-11-27_15h06.28.980,lexical_decision_task_MP_exp2,2020.2.5,MacIntel,60,z,1,0.55053,,,,,,,,0.55053,1,,,,,,340,NW,UN,33,myrtie,FIATCH,z,,,,,,-0.024392361,-0.39452691,0,0,0,,0,46,46,399,1,,
,,,,,,,,,,,,,,,,,,5f12178ab3ab9d046595ce66,2020-11-27_15h06.28.980,lexical_decision_task_MP_exp2,2020.2.5,MacIntel,60,z,1,0.55107,,,,,,,,0.55107,1,,,,,,321,NW,UN,33,slanch,MIATOR,z,,,,,,-0.024392361,-0.39452691,0,0,0,,0,47,47,380,1,,
,,,,,,,,,,,,,,,,,,5f12178ab3ab9d046595ce66,2020-11-27_15h06.28.980,lexical_decision_task_MP_exp2,2020.2.5,MacIntel,60,m,1,0.587545,,,,,,,,0.587545,1,,,,,,149,WORD,UN,16,random,INVADE,m,,,,,,-0.024392361,-0.39452691,0,0,0,,0,48,48,208,1,,
,,,,,,,,,,,,,,,,,,5f12178ab3ab9d046595ce66,2020-11-27_15h06.28.980,lexical_decision_task_MP_exp2,2020.2.5,MacIntel,60,z,1,0.60076,,,,,,,,0.60076,1,,,,,,246,NW,"ID",16,piaton,PIATON,z,,,,,,-0.024392361,-0.39452691,0,0,0,,0,49,49,305,1,,
,,,,,,,,,,,,,,,,,,5f12178ab3ab9d046595ce66,2020-11-27_15h06.28.980,lexical_decision_task_MP_exp2,2020.2.5,MacIntel,60,m,1,0.618285,,,,,,,,0.618285,1,,,,,,208,WORD,"ID",33,hockey,HOCKEY,m,,,,,,-0.024392361,-0.39452691,0,0,0,,0,50,50,27,1,,
,,,,,,,,,,,,,,,,,,5f12178ab3ab9d046595ce66,2020-11-27_15h06.28.980,lexical_decision_task_MP_exp2,2020.2.5,MacIntel,60,m,1,0.523765,,,,,,,,0.523765,1,,,,,,127,WORD,UN,16,senior,CASTLE,m,,,,,,-0.024392361,-0.39452691,0,0,0,,0,51,51,186,1,,
,,,,,,,,,,,,,,,,,,5f12178ab3ab9d046595ce66,2020-11-27_15h06.28.980,lexical_decision_task_MP_exp2,2020.2.5,MacIntel,60,z,1,0.766415,,,,,,,,0.766415,1,,,,,,253,NW,"ID",16,resait,RESAIT,z,,,,,,-0.024392361,-0.39452691,0,0,0,,0,52,52,312,1,,
,,,,,,,,,,,,,,,,,,5f12178ab3ab9d046595ce66,2020-11-27_15h06.28.980,lexical_decision_task_MP_exp2,2020.2.5,MacIntel,60,m,1,0.54997,,,,,,,,0.54997,1,,,,,,40,WORD,"ID",16,convey,CONVEY,m,,,,,,-0.024392361,-0.39452691,0,0,0,,0,53,53,99,1,,
,,,,,,,,,,,,,,,,,,5f12178ab3ab9d046595ce66,2020-11-27_15h06.28.980,lexical_decision_task_MP_exp2,2020.2.5,MacIntel,60,z,0,0.63314,,,,,,,,0.63314,0,,,,,,10,WORD,"ID",16,ethnic,ETHNIC,m,,,,,,-0.024392361,-0.39452691,0,0,0,,0,54,54,69,1,,
,,,,,,,,,,,,,,,,,,5f12178ab3ab9d046595ce66,2020-11-27_15h06.28.980,lexical_decision_task_MP_exp2,2020.2.5,MacIntel,60,m,1,0.683505,,,,,,,,0.683505,1,,,,,,227,WORD,"ID",33,seldom,SELDOM,m,,,,,,-0.024392361,-0.39452691,0,0,0,,0,55,55,46,1,,
,,,,,,,,,,,,,,,,,,5f12178ab3ab9d046595ce66,2020-11-27_15h06.28.980,lexical_decision_task_MP_exp2,2020.2.5,MacIntel,60,m,1,0.539835,,,,,,,,0.539835,1,,,,,,197,WORD,"ID",33,stream,STREAM,m,,,,,,-0.024392361,-0.39452691,0,0,0,,0,56,56,16,1,,
,,,,,,,,,,,,,,,,,,5f12178ab3ab9d046595ce66,2020-11-27_15h06.28.980,lexical_decision_task_MP_exp2,2020.2.5,MacIntel,60,z,1,0.59824,,,,,,,,0.59824,1,,,,,,432,NW,"ID",33,lunker,LUNKER,z,,,,,,-0.024392361,-0.39452691,0,0,0,,0,57,57,251,1,,
,,,,,,,,,,,,,,,,,,5f12178ab3ab9d046595ce66,2020-11-27_15h06.28.980,lexical_decision_task_MP_exp2,2020.2.5,MacIntel,60,z,0,0.546375,,,,,,,,0.546375,0,,,,,,68,WORD,UN,33,plenty,FUMBLE,m,,,,,,-0.024392361,-0.39452691,0,0,0,,0,58,58,127,1,,
,,,,,,,,,,,,,,,,,,5f12178ab3ab9d046595ce66,2020-11-27_15h06.28.980,lexical_decision_task_MP_exp2,2020.2.5,MacIntel,60,m,1,0.596695,,,,,,,,0.596695,1,,,,,,142,WORD,UN,16,reason,SPRUCE,m,,,,,,-0.024392361,-0.39452691,0,0,0,,0,59,59,201,1,,
,,,,,,,,,,,,,,,,,,5f12178ab3ab9d046595ce66,2020-11-27_15h06.28.980,lexical_decision_task_MP_exp2,2020.2.5,MacIntel,60,z,0,0.67241,,,,,,,,0.67241,0,,,,,,183,WORD,"ID",33,mildew,MILDEW,m,,,,,,-0.024392361,-0.39452691,0,0,0,,0,60,60,2,1,,
,,,,,,,,,,,,,,,,,,5f12178ab3ab9d046595ce66,2020-11-27_15h06.28.980,lexical_decision_task_MP_exp2,2020.2.5,MacIntel,60,z,0,0.60136,,,,,,,,0.60136,0,,,,,,13,WORD,"ID",16,strive,STRIVE,m,,,,,,-0.024392361,-0.39452691,0,0,0,,0,61,61,72,1,,
,,,,,,,,,,,,,,,,,,5f12178ab3ab9d046595ce66,2020-11-27_15h06.28.980,lexical_decision_task_MP_exp2,2020.2.5,MacIntel,60,z,1,0.649375,,,,,,,,0.649375,1,,,,,,275,NW,"ID",16,sleirt,SLEIRT,z,,,,,,-0.024392361,-0.39452691,0,0,0,,0,62,62,334,1,,
,,,,,,,,,,,,,,,,,,5f12178ab3ab9d046595ce66,2020-11-27_15h06.28.980,lexical_decision_task_MP_exp2,2020.2.5,MacIntel,60,m,1,0.590735,,,,,,,,0.590735,1,,,,,,163,WORD,UN,16,market,STRING,m,,,,,,-0.024392361,-0.39452691,0,0,0,,0,63,63,222,1,,
,,,,,,,,,,,,,,,,,,5f12178ab3ab9d046595ce66,2020-11-27_15h06.28.980,lexical_decision_task_MP_exp2,2020.2.5,MacIntel,60,z,1,0.631485,,,,,,,,0.631485,1,,,,,,394,NW,UN,16,colury,SPAQUX,z,,,,,,-0.024392361,-0.39452691,0,0,0,,0,64,64,453,1,,
,,,,,,,,,,,,,,,,,,5f12178ab3ab9d046595ce66,2020-11-27_15h06.28.980,lexical_decision_task_MP_exp2,2020.2.5,MacIntel,60,z,1,0.56815,,,,,,,,0.56815,1,,,,,,444,NW,"ID",33,jaunce,JAUNCE,z,,,,,,-0.024392361,-0.39452691,0,0,0,,0,65,65,263,1,,
,,,,,,,,,,,,,,,,,,5f12178ab3ab9d046595ce66,2020-11-27_15h06.28.980,lexical_decision_task_MP_exp2,2020.2.5,MacIntel,60,m,1,0.68542,,,,,,,,0.68542,1,,,,,,1,WORD,"ID",16,fright,FRIGHT,m,,,,,,-0.024392361,-0.39452691,0,0,0,,0,66,66,60,1,,
,,,,,,,,,,,,,,,,,,5f12178ab3ab9d046595ce66,2020-11-27_15h06.28.980,lexical_decision_task_MP_exp2,2020.2.5,MacIntel,60,z,1,0.636925,,,,,,,,0.636925,1,,,,,,346,NW,UN,33,kerift,SAUDIC,z,,,,,,-0.024392361,-0.39452691,0,0,0,,0,67,67,405,1,,
,,,,,,,,,,,,,,,,,,5f12178ab3ab9d046595ce66,2020-11-27_15h06.28.980,lexical_decision_task_MP_exp2,2020.2.5,MacIntel,60,z,1,1.089745,,,,,,,,1.089745,1,,,,,,260,NW,"ID",16,unject,UNJECT,z,,,,,,-0.024392361,-0.39452691,0,0,0,,0,68,68,319,1,,
,,,,,,,,,,,,,,,,,,5f12178ab3ab9d046595ce66,2020-11-27_15h06.28.980,lexical_decision_task_MP_exp2,2020.2.5,MacIntel,60,z,1,0.633475,,,,,,,,0.633475,1,,,,,,295,NW,"ID",16,gleath,GLEATH,z,,,,,,-0.024392361,-0.39452691,0,0,0,,0,69,69,354,1,,
,,,,,,,,,,,,,,,,,,5f12178ab3ab9d046595ce66,2020-11-27_15h06.28.980,lexical_decision_task_MP_exp2,2020.2.5,MacIntel,60,m,1,0.58293,,,,,,,,0.58293,1,,,,,,15,WORD,"ID",16,amount,AMOUNT,m,,,,,,-0.024392361,-0.39452691,0,0,0,,0,70,70,74,1,,
,,,,,,,,,,,,,,,,,,5f12178ab3ab9d046595ce66,2020-11-27_15h06.28.980,lexical_decision_task_MP_exp2,2020.2.5,MacIntel,60,m,1,0.550485,,,,,,,,0.550485,1,,,,,,148,WORD,UN,16,invade,CUSTOM,m,,,,,,-0.024392361,-0.39452691,0,0,0,,0,71,71,207,1,,
,,,,,,,,,,,,,,,,,,5f12178ab3ab9d046595ce66,2020-11-27_15h06.28.980,lexical_decision_task_MP_exp2,2020.2.5,MacIntel,60,m,1,0.60001,,,,,,,,0.60001,1,,,,,,186,WORD,"ID",33,portal,PORTAL,m,,,,,,-0.024392361,-0.39452691,0,0,0,,0,72,72,5,1,,
,,,,,,,,,,,,,,,,,,5f12178ab3ab9d046595ce66,2020-11-27_15h06.28.980,lexical_decision_task_MP_exp2,2020.2.5,MacIntel,60,z,1,0.633165,,,,,,,,0.633165,1,,,,,,428,NW,"ID",33,tandly,TANDLY,z,,,,,,-0.024392361,-0.39452691,0,0,0,,0,73,73,247,1,,
,,,,,,,,,,,,,,,,,,5f12178ab3ab9d046595ce66,2020-11-27_15h06.28.980,lexical_decision_task_MP_exp2,2020.2.5,MacIntel,60,z,0,0.58705,,,,,,,,0.58705,0,,,,,,102,WORD,UN,33,bounce,DIRECT,m,,,,,,-0.024392361,-0.39452691,0,0,0,,0,74,74,161,1,,
,,,,,,,,,,,,,,,,,,5f12178ab3ab9d046595ce66,2020-11-27_15h06.28.980,lexical_decision_task_MP_exp2,2020.2.5,MacIntel,60,m,1,0.554725,,,,,,,,0.554725,1,,,,,,38,WORD,"ID",16,powder,POWDER,m,,,,,,-0.024392361,-0.39452691,0,0,0,,0,75,75,97,1,,
,,,,,,,,,,,,,,,,,,5f12178ab3ab9d046595ce66,2020-11-27_15h06.28.980,lexical_decision_task_MP_exp2,2020.2.5,MacIntel,60,z,1,0.614865,,,,,,,,0.614865,1,,,,,,381,NW,UN,16,sarley,HUNIEK,z,,,,,,-0.024392361,-0.39452691,0,0,0,,0,76,76,440,1,,
,,,,,,,,,,,,,,,,,,5f12178ab3ab9d046595ce66,2020-11-27_15h06.28.980,lexical_decision_task_MP_exp2,2020.2.5,MacIntel,60,m,1,0.59114,,,,,,,,0.59114,1,,,,,,98,WORD,UN,33,fluent,BELONG,m,,,,,,-0.024392361,-0.39452691,0,0,0,,0,77,77,157,1,,
,,,,,,,,,,,,,,,,,,5f12178ab3ab9d046595ce66,2020-11-27_15h06.28.980,lexical_decision_task_MP_exp2,2020.2.5,MacIntel,60,z,1,0.53976,,,,,,,,0.53976,1,,,,,,470,NW,"ID",33,crudio,CRUDIO,z,,,,,,-0.024392361,-0.39452691,0,0,0,,0,78,78,289,1,,
,,,,,,,,,,,,,,,,,,5f12178ab3ab9d046595ce66,2020-11-27_15h06.28.980,lexical_decision_task_MP_exp2,2020.2.5,MacIntel,60,z,1,0.773485,,,,,,,,0.773485,1,,,,,,359,NW,UN,33,desory,FONVER,z,,,,,,-0.024392361,-0.39452691,0,0,0,,0,79,79,418,1,,
,,,,,,,,,,,,,,,,,,5f12178ab3ab9d046595ce66,2020-11-27_15h06.28.980,lexical_decision_task_MP_exp2,2020.2.5,MacIntel,60,z,0,0.57616,,,,,,,,0.57616,0,,,,,,111,WORD,UN,33,breath,INDUCE,m,,,,,,-0.024392361,-0.39452691,0,0,0,,0,80,80,170,1,,
,,,,,,,,,,,,,,,,,,5f12178ab3ab9d046595ce66,2020-11-27_15h06.28.980,lexical_decision_task_MP_exp2,2020.2.5,MacIntel,60,m,1,0.533875,,,,,,,,0.533875,1,,,,,,116,WORD,UN,33,branch,TUMBLE,m,,,,,,-0.024392361,-0.39452691,0,0,0,,0,81,81,175,1,,
,,,,,,,,,,,,,,,,,,5f12178ab3ab9d046595ce66,2020-11-27_15h06.28.980,lexical_decision_task_MP_exp2,2020.2.5,MacIntel,60,z,1,0.49128,,,,,,,,0.49128,1,,,,,,465,NW,"ID",33,whivex,WHIVEX,z,,,,,,-0.024392361,-0.39452691,0,0,0,,0,82,82,284,1,,
,,,,,,,,,,,,,,,,,,5f12178ab3ab9d046595ce66,2020-11-27_15h06.28.980,lexical_decision_task_MP_exp2,2020.2.5,MacIntel,60,m,1,0.56826,,,,,,,,0.56826,1,,,,,,229,WORD,"ID",33,mother,MOTHER,m,,,,,,-0.024392361,-0.39452691,0,0,0,,0,83,83,48,1,,
,,,,,,,,,,,,,,,,,,5f12178ab3ab9d046595ce66,2020-11-27_15h06.28.980,lexical_decision_task_MP_exp2,2020.2.5,MacIntel,60,z,1,0.67988,,,,,,,,0.67988,1,,,,,,292,NW,"ID",16,ablint,ABLINT,z,,,,,,-0.024392361,-0.39452691,0,0,0,,0,84,84,351,1,,
,,,,,,,,,,,,,,,,,,5f12178ab3ab9d046595ce66,2020-11-27_15h06.28.980,lexical_decision_task_MP_exp2,2020.2.5,MacIntel,60,m,1,0.52218,,,,,,,,0.52218,1,,,,,,18,WORD,"ID",16,humble,HUMBLE,m,,,,,,-0.024392361,-0.39452691,0,0,0,,0,85,85,77,1,,
,,,,,,,,,,,,,,,,,,5f12178ab3ab9d046595ce66,2020-11-27_15h06.28.980,lexical_decision_task_MP_exp2,2020.2.5,MacIntel,60,z,0,0.535695,,,,,,,,0.535695,0,,,,,,34,WORD,"ID",16,jungle,JUNGLE,m,,,,,,-0.024392361,-0.39452691,0,0,0,,0,86,86,93,1,,
,,,,,,,,,,,,,,,,,,5f12178ab3ab9d046595ce66,2020-11-27_15h06.28.980,lexical_decision_task_MP_exp2,2020.2.5,MacIntel,60,m,1,0.500405,,,,,,,,0.500405,1,,,,,,182,WORD,"ID",33,winter,WINTER,m,,,,,,-0.024392361,-0.39452691,0,0,0,,0,87,87,1,1,,
,,,,,,,,,,,,,,,,,,5f12178ab3ab9d046595ce66,2020-11-27_15h06.28.980,lexical_decision_task_MP_exp2,2020.2.5,MacIntel,60,m,1,0.50761,,,,,,,,0.50761,1,,,,,,72,WORD,UN,33,source,BRIGHT,m,,,,,,-0.024392361,-0.39452691,0,0,0,,0,88,88,131,1,,
,,,,,,,,,,,,,,,,,,5f12178ab3ab9d046595ce66,2020-11-27_15h06.28.980,lexical_decision_task_MP_exp2,2020.2.5,MacIntel,60,m,1,0.50093,,,,,,,,0.50093,1,,,,,,237,WORD,"ID",33,poster,POSTER,m,,,,,,-0.024392361,-0.39452691,0,0,0,,0,89,89,56,1,,
,,,,,,,,,,,,,,,,,,5f12178ab3ab9d046595ce66,2020-11-27_15h06.28.980,lexical_decision_task_MP_exp2,2020.2.5,MacIntel,60,m,1,0.514055,,,,,,,,0.514055,1,,,,,,135,WORD,UN,16,bleach,IMPORT,m,,,,,,-0.024392361,-0.39452691,0,0,0,,0,90,90,194,1,,
,,,,,,,,,,,,,,,,,,5f12178ab3ab9d046595ce66,2020-11-27_15h06.28.980,lexical_decision_task_MP_exp2,2020.2.5,MacIntel,60,z,1,0.46469,,,,,,,,0.46469,1,,,,,,330,NW,UN,33,gilfew,KENSOM,z,,,,,,-0.024392361,-0.39452691,0,0,0,,0,91,91,389,1,,
,,,,,,,,,,,,,,,,,,5f12178ab3ab9d046595ce66,2020-11-27_15h06.28.980,lexical_decision_task_MP_exp2,2020.2.5,MacIntel,60,m,0,0.36398,,,,,,,,0.36398,0,,,,,,453,NW,"ID",33,bolvis,BOLVIS,z,,,,,,-0.024392361,-0.39452691,0,0,0,,0,92,92,272,1,,
,,,,,,,,,,,,,,,,,,5f12178ab3ab9d046595ce66,2020-11-27_15h06.28.980,lexical_decision_task_MP_exp2,2020.2.5,MacIntel,60,m,1,0.519355,,,,,,,,0.519355,1,,,,,,169,WORD,UN,16,pounce,GENIUS,m,,,,,,-0.024392361,-0.39452691,0,0,0,,0,93,93,228,1,,
,,,,,,,,,,,,,,,,,,5f12178ab3ab9d046595ce66,2020-11-27_15h06.28.980,lexical_decision_task_MP_exp2,2020.2.5,MacIntel,60,m,1,0.499675,,,,,,,,0.499675,1,,,,,,152,WORD,UN,16,behold,ROCKET,m,,,,,,-0.024392361,-0.39452691,0,0,0,,0,94,94,211,1,,
,,,,,,,,,,,,,,,,,,5f12178ab3ab9d046595ce66,2020-11-27_15h06.28.980,lexical_decision_task_MP_exp2,2020.2.5,MacIntel,60,m,1,0.616995,,,,,,,,0.616995,1,,,,,,42,WORD,"ID",16,chapel,CHAPEL,m,,,,,,-0.024392361,-0.39452691,0,0,0,,0,95,95,101,1,,
,,,,,,,,,,,,,,,,,,5f12178ab3ab9d046595ce66,2020-11-27_15h06.28.980,lexical_decision_task_MP_exp2,2020.2.5,MacIntel,60,z,1,0.754855,,,,,,,,0.754855,1,,,,,,294,NW,"ID",16,inhort,INHORT,z,,,,,,-0.024392361,-0.39452691,0,0,0,,0,96,96,353,1,,
,,,,,,,,,,,,,,,,,,5f12178ab3ab9d046595ce66,2020-11-27_15h06.28.980,lexical_decision_task_MP_exp2,2020.2.5,MacIntel,60,z,1,0.60536,,,,,,,,0.60536,1,,,,,,258,NW,"ID",16,poluth,POLUTH,z,,,,,,-0.024392361,-0.39452691,0,0,0,,0,97,97,317,1,,
,,,,,,,,,,,,,,,,,,5f12178ab3ab9d046595ce66,2020-11-27_15h06.28.980,lexical_decision_task_MP_exp2,2020.2.5,MacIntel,60,z,1,0.49905,,,,,,,,0.49905,1,,,,,,307,NW,UN,33,psetch,KIRAFE,z,,,,,,-0.024392361,-0.39452691,0,0,0,,0,98,98,366,1,,
,,,,,,,,,,,,,,,,,,5f12178ab3ab9d046595ce66,2020-11-27_15h06.28.980,lexical_decision_task_MP_exp2,2020.2.5,MacIntel,60,z,0,0.449255,,,,,,,,0.449255,0,,,,,,210,WORD,"ID",33,monkey,MONKEY,m,,,,,,-0.024392361,-0.39452691,0,0,0,,0,99,99,29,1,,
,,,,,,,,,,,,,,,,,,5f12178ab3ab9d046595ce66,2020-11-27_15h06.28.980,lexical_decision_task_MP_exp2,2020.2.5,MacIntel,60,m,0,0.56901,,,,,,,,0.56901,0,,,,,,282,NW,"ID",16,porlex,PORLEX,z,,,,,,-0.024392361,-0.39452691,0,0,0,,0,100,100,341,1,,
,,,,,,,,,,,,,,,,,,5f12178ab3ab9d046595ce66,2020-11-27_15h06.28.980,lexical_decision_task_MP_exp2,2020.2.5,MacIntel,60,z,1,0.76372,,,,,,,,0.76372,1,,,,,,410,NW,UN,16,orchin,TUNORY,z,,,,,,-0.024392361,-0.39452691,0,0,0,,0,101,101,469,1,,
,,,,,,,,,,,,,,,,,,5f12178ab3ab9d046595ce66,2020-11-27_15h06.28.980,lexical_decision_task_MP_exp2,2020.2.5,MacIntel,60,m,1,0.7485,,,,,,,,0.7485,1,,,,,,214,WORD,"ID",33,intake,INTAKE,m,,,,,,-0.024392361,-0.39452691,0,0,0,,0,102,102,33,1,,
,,,,,,,,,,,,,,,,,,5f12178ab3ab9d046595ce66,2020-11-27_15h06.28.980,lexical_decision_task_MP_exp2,2020.2.5,MacIntel,60,m,1,0.51625,,,,,,,,0.51625,1,,,,,,191,WORD,"ID",33,stable,STABLE,m,,,,,,-0.024392361,-0.39452691,0,0,0,,0,103,103,10,1,,
,,,,,,,,,,,,,,,,,,5f12178ab3ab9d046595ce66,2020-11-27_15h06.28.980,lexical_decision_task_MP_exp2,2020.2.5,MacIntel,60,z,1,0.617465,,,,,,,,0.617465,1,,,,,,242,NW,"ID",16,unwert,UNWERT,z,,,,,,-0.024392361,-0.39452691,0,0,0,,0,104,104,301,1,,
,,,,,,,,,,,,,,,,,,5f12178ab3ab9d046595ce66,2020-11-27_15h06.28.980,lexical_decision_task_MP_exp2,2020.2.5,MacIntel,60,z,0,0.567255,,,,,,,,0.567255,0,,,,,,77,WORD,UN,33,column,RACKET,m,,,,,,-0.024392361,-0.39452691,0,0,0,,0,105,105,136,1,,
,,,,,,,,,,,,,,,,,,5f12178ab3ab9d046595ce66,2020-11-27_15h06.28.980,lexical_decision_task_MP_exp2,2020.2.5,MacIntel,60,z,1,0.606845,,,,,,,,0.606845,1,,,,,,371,NW,UN,16,ramily,GEILOY,z,,,,,,-0.024392361,-0.39452691,0,0,0,,0,106,106,430,1,,
,,,,,,,,,,,,,,,,,,5f12178ab3ab9d046595ce66,2020-11-27_15h06.28.980,lexical_decision_task_MP_exp2,2020.2.5,MacIntel,60,m,1,0.63389,,,,,,,,0.63389,1,,,,,,24,WORD,"ID",16,praise,PRAISE,m,,,,,,-0.024392361,-0.39452691,0,0,0,,0,107,107,83,1,,
,,,,,,,,,,,,,,,,,,5f12178ab3ab9d046595ce66,2020-11-27_15h06.28.980,lexical_decision_task_MP_exp2,2020.2.5,MacIntel,60,m,1,0.565285,,,,,,,,0.565285,1,,,,,,201,WORD,"ID",33,admire,ADMIRE,m,,,,,,-0.024392361,-0.39452691,0,0,0,,0,108,108,20,1,,
,,,,,,,,,,,,,,,,,,5f12178ab3ab9d046595ce66,2020-11-27_15h06.28.980,lexical_decision_task_MP_exp2,2020.2.5,MacIntel,60,z,1,0.583135,,,,,,,,0.583135,1,,,,,,405,NW,UN,16,nouply,FLUMNI,z,,,,,,-0.024392361,-0.39452691,0,0,0,,0,109,109,464,1,,
,,,,,,,,,,,,,,,,,,5f12178ab3ab9d046595ce66,2020-11-27_15h06.28.980,lexical_decision_task_MP_exp2,2020.2.5,MacIntel,60,z,1,0.56756,,,,,,,,0.56756,1,,,,,,276,NW,"ID",16,yarmon,YARMON,z,,,,,,-0.024392361,-0.39452691,0,0,0,,0,110,110,335,1,,
,,,,,,,,,,,,,,,,,,5f12178ab3ab9d046595ce66,2020-11-27_15h06.28.980,lexical_decision_task_MP_exp2,2020.2.5,MacIntel,60,m,1,0.714705,,,,,,,,0.714705,1,,,,,,162,WORD,UN,16,string,CANDLE,m,,,,,,-0.024392361,-0.39452691,0,0,0,,0,111,111,221,1,,
,,,,,,,,,,,,,,,,,,5f12178ab3ab9d046595ce66,2020-11-27_15h06.28.980,lexical_decision_task_MP_exp2,2020.2.5,MacIntel,60,m,1,0.597785,,,,,,,,0.597785,1,,,,,,235,WORD,"ID",33,grumpy,GRUMPY,m,,,,,,-0.024392361,-0.39452691,0,0,0,,0,112,112,54,1,,
,,,,,,,,,,,,,,,,,,5f12178ab3ab9d046595ce66,2020-11-27_15h06.28.980,lexical_decision_task_MP_exp2,2020.2.5,MacIntel,60,z,1,0.53046,,,,,,,,0.53046,1,,,,,,358,NW,UN,33,fonver,FLEACK,z,,,,,,-0.024392361,-0.39452691,0,0,0,,0,113,113,417,1,,
,,,,,,,,,,,,,,,,,,5f12178ab3ab9d046595ce66,2020-11-27_15h06.28.980,lexical_decision_task_MP_exp2,2020.2.5,MacIntel,60,m,1,0.562795,,,,,,,,0.562795,1,,,,,,41,WORD,"ID",16,spring,SPRING,m,,,,,,-0.024392361,-0.39452691,0,0,0,,0,114,114,100,1,,
,,,,,,,,,,,,,,,,,,5f12178ab3ab9d046595ce66,2020-11-27_15h06.28.980,lexical_decision_task_MP_exp2,2020.2.5,MacIntel,60,z,1,0.66469,,,,,,,,0.66469,1,,,,,,367,NW,UN,16,hornal,SLIQUE,z,,,,,,-0.024392361,-0.39452691,0,0,0,,0,115,115,426,1,,
,,,,,,,,,,,,,,,,,,5f12178ab3ab9d046595ce66,2020-11-27_15h06.28.980,lexical_decision_task_MP_exp2,2020.2.5,MacIntel,60,m,1,0.43439,,,,,,,,0.43439,1,,,,,,14,WORD,"ID",16,almost,ALMOST,m,,,,,,-0.024392361,-0.39452691,0,0,0,,0,116,116,73,1,,
,,,,,,,,,,,,,,,,,,5f12178ab3ab9d046595ce66,2020-11-27_15h06.28.980,lexical_decision_task_MP_exp2,2020.2.5,MacIntel,60,z,1,0.64931,,,,,,,,0.64931,1,,,,,,476,NW,"ID",33,josted,JOSTED,z,,,,,,-0.024392361,-0.39452691,0,0,0,,0,117,117,295,1,,
,,,,,,,,,,,,,,,,,,5f12178ab3ab9d046595ce66,2020-11-27_15h06.28.980,lexical_decision_task_MP_exp2,2020.2.5,MacIntel,60,z,1,0.5522,,,,,,,,0.5522,1,,,,,,463,NW,"ID",33,kispel,KISPEL,z,,,,,,-0.024392361,-0.39452691,0,0,0,,0,118,118,282,1,,
,,,,,,,,,,,,,,,,,,5f12178ab3ab9d046595ce66,2020-11-27_15h06.28.980,lexical_decision_task_MP_exp2,2020.2.5,MacIntel,60,z,1,0.366705,,,,,,,,0.366705,1,,,,,,391,NW,UN,16,rouncy,THELDY,z,,,,,,-0.024392361,-0.39452691,0,0,0,,0,119,119,450,1,,
,,,,,,,,,,,,,,,,,,5f12178ab3ab9d046595ce66,2020-11-27_15h06.28.980,lexical_decision_task_MP_exp2,2020.2.5,MacIntel,60,m,1,0.61324,,,,,,,,0.61324,1,,,,,,137,WORD,UN,16,melody,FINGER,m,,,,,,-0.024392361,-0.39452691,1,0,0,,0,120,120,196,1,break_done_button,
,,,,,,,,,,,,,,,,,,5f12178ab3ab9d046595ce66,2020-11-27_15h06.28.980,lexical_decision_task_MP_exp2,2020.2.5,MacIntel,60,m,0,0.56733,,,,,,,,0.56733,0,,,,,,363,NW,UN,16,impote,BREALI,z,,,,,,-0.024392361,-0.39452691,0,0,0,,0,121,121,422,1,,
,,,,,,,,,,,,,,,,,,5f12178ab3ab9d046595ce66,2020-11-27_15h06.28.980,lexical_decision_task_MP_exp2,2020.2.5,MacIntel,60,z,1,0.568165,,,,,,,,0.568165,1,,,,,,357,NW,UN,33,fleack,DERAIN,z,,,,,,-0.024392361,-0.39452691,0,0,0,,0,122,122,416,1,,
,,,,,,,,,,,,,,,,,,5f12178ab3ab9d046595ce66,2020-11-27_15h06.28.980,lexical_decision_task_MP_exp2,2020.2.5,MacIntel,60,m,0,0.604855,,,,,,,,0.604855,0,,,,,,409,NW,UN,16,tunory,ELOPIA,z,,,,,,-0.024392361,-0.39452691,0,0,0,,0,123,123,468,1,,
,,,,,,,,,,,,,,,,,,5f12178ab3ab9d046595ce66,2020-11-27_15h06.28.980,lexical_decision_task_MP_exp2,2020.2.5,MacIntel,60,m,1,0.55228,,,,,,,,0.55228,1,,,,,,166,WORD,UN,16,design,STARCH,m,,,,,,-0.024392361,-0.39452691,0,0,0,,0,124,124,225,1,,
,,,,,,,,,,,,,,,,,,5f12178ab3ab9d046595ce66,2020-11-27_15h06.28.980,lexical_decision_task_MP_exp2,2020.2.5,MacIntel,60,z,1,0.70417,,,,,,,,0.70417,1,,,,,,399,NW,UN,16,wearox,FOURET,z,,,,,,-0.024392361,-0.39452691,0,0,0,,0,125,125,458,1,,
,,,,,,,,,,,,,,,,,,5f12178ab3ab9d046595ce66,2020-11-27_15h06.28.980,lexical_decision_task_MP_exp2,2020.2.5,MacIntel,60,z,1,0.5649,,,,,,,,0.5649,1,,,,,,390,NW,UN,16,theldy,HATRUS,z,,,,,,-0.024392361,-0.39452691,0,0,0,,0,126,126,449,1,,
,,,,,,,,,,,,,,,,,,5f12178ab3ab9d046595ce66,2020-11-27_15h06.28.980,lexical_decision_task_MP_exp2,2020.2.5,MacIntel,60,z,1,0.63395,,,,,,,,0.63395,1,,,,,,322,NW,UN,33,rosail,SLANCH,z,,,,,,-0.024392361,-0.39452691,0,0,0,,0,127,127,381,1,,
,,,,,,,,,,,,,,,,,,5f12178ab3ab9d046595ce66,2020-11-27_15h06.28.980,lexical_decision_task_MP_exp2,2020.2.5,MacIntel,60,m,1,0.590595,,,,,,,,0.590595,1,,,,,,188,WORD,"ID",33,social,SOCIAL,m,,,,,,-0.024392361,-0.39452691,0,0,0,,0,128,128,7,1,,
,,,,,,,,,,,,,,,,,,5f12178ab3ab9d046595ce66,2020-11-27_15h06.28.980,lexical_decision_task_MP_exp2,2020.2.5,MacIntel,60,m,1,0.58523,,,,,,,,0.58523,1,,,,,,12,WORD,"ID",16,orange,ORANGE,m,,,,,,-0.024392361,-0.39452691,0,0,0,,0,129,129,71,1,,
,,,,,,,,,,,,,,,,,,5f12178ab3ab9d046595ce66,2020-11-27_15h06.28.980,lexical_decision_task_MP_exp2,2020.2.5,MacIntel,60,z,1,0.606455,,,,,,,,0.606455,1,,,,,,438,NW,"ID",33,baitch,BAITCH,z,,,,,,-0.024392361,-0.39452691,0,0,0,,0,130,130,257,1,,
,,,,,,,,,,,,,,,,,,5f12178ab3ab9d046595ce66,2020-11-27_15h06.28.980,lexical_decision_task_MP_exp2,2020.2.5,MacIntel,60,m,1,0.59282,,,,,,,,0.59282,1,,,,,,106,WORD,UN,33,slogan,RANSOM,m,,,,,,-0.024392361,-0.39452691,0,0,0,,0,131,131,165,1,,
,,,,,,,,,,,,,,,,,,5f12178ab3ab9d046595ce66,2020-11-27_15h06.28.980,lexical_decision_task_MP_exp2,2020.2.5,MacIntel,60,z,1,0.72978,,,,,,,,0.72978,1,,,,,,243,NW,"ID",16,musied,MUSIED,z,,,,,,-0.024392361,-0.39452691,0,0,0,,0,132,132,302,1,,
,,,,,,,,,,,,,,,,,,5f12178ab3ab9d046595ce66,2020-11-27_15h06.28.980,lexical_decision_task_MP_exp2,2020.2.5,MacIntel,60,m,1,0.582435,,,,,,,,0.582435,1,,,,,,39,WORD,"ID",16,insect,INSECT,m,,,,,,-0.024392361,-0.39452691,0,0,0,,0,133,133,98,1,,
,,,,,,,,,,,,,,,,,,5f12178ab3ab9d046595ce66,2020-11-27_15h06.28.980,lexical_decision_task_MP_exp2,2020.2.5,MacIntel,60,z,1,0.74953,,,,,,,,0.74953,1,,,,,,452,NW,"ID",33,surden,SURDEN,z,,,,,,-0.024392361,-0.39452691,0,0,0,,0,134,134,271,1,,
,,,,,,,,,,,,,,,,,,5f12178ab3ab9d046595ce66,2020-11-27_15h06.28.980,lexical_decision_task_MP_exp2,2020.2.5,MacIntel,60,m,1,0.549205,,,,,,,,0.549205,1,,,,,,209,WORD,"ID",33,search,SEARCH,m,,,,,,-0.024392361,-0.39452691,0,0,0,,0,135,135,28,1,,
,,,,,,,,,,,,,,,,,,5f12178ab3ab9d046595ce66,2020-11-27_15h06.28.980,lexical_decision_task_MP_exp2,2020.2.5,MacIntel,60,z,1,0.600745,,,,,,,,0.600745,1,,,,,,401,NW,UN,16,syntic,MUSTIL,z,,,,,,-0.024392361,-0.39452691,0,0,0,,0,136,136,460,1,,
,,,,,,,,,,,,,,,,,,5f12178ab3ab9d046595ce66,2020-11-27_15h06.28.980,lexical_decision_task_MP_exp2,2020.2.5,MacIntel,60,z,0,0.51738,,,,,,,,0.51738,0,,,,,,51,WORD,"ID",16,hungry,HUNGRY,m,,,,,,-0.024392361,-0.39452691,0,0,0,,0,137,137,110,1,,
,,,,,,,,,,,,,,,,,,5f12178ab3ab9d046595ce66,2020-11-27_15h06.28.980,lexical_decision_task_MP_exp2,2020.2.5,MacIntel,60,z,1,0.687835,,,,,,,,0.687835,1,,,,,,467,NW,"ID",33,gorbie,GORBIE,z,,,,,,-0.024392361,-0.39452691,0,0,0,,0,138,138,286,1,,
,,,,,,,,,,,,,,,,,,5f12178ab3ab9d046595ce66,2020-11-27_15h06.28.980,lexical_decision_task_MP_exp2,2020.2.5,MacIntel,60,m,1,0.64984,,,,,,,,0.64984,1,,,,,,139,WORD,UN,16,prince,DEBRIS,m,,,,,,-0.024392361,-0.39452691,0,0,0,,0,139,139,198,1,,
,,,,,,,,,,,,,,,,,,5f12178ab3ab9d046595ce66,2020-11-27_15h06.28.980,lexical_decision_task_MP_exp2,2020.2.5,MacIntel,60,z,1,0.6487,,,,,,,,0.6487,1,,,,,,306,NW,UN,33,kirafe,SOUNGE,z,,,,,,-0.024392361,-0.39452691,0,0,0,,0,140,140,365,1,,
,,,,,,,,,,,,,,,,,,5f12178ab3ab9d046595ce66,2020-11-27_15h06.28.980,lexical_decision_task_MP_exp2,2020.2.5,MacIntel,60,m,0,0.648995,,,,,,,,0.648995,0,,,,,,386,NW,UN,16,gronce,ANCUST,z,,,,,,-0.024392361,-0.39452691,0,0,0,,0,141,141,445,1,,
,,,,,,,,,,,,,,,,,,5f12178ab3ab9d046595ce66,2020-11-27_15h06.28.980,lexical_decision_task_MP_exp2,2020.2.5,MacIntel,60,z,1,0.706865,,,,,,,,0.706865,1,,,,,,347,NW,UN,33,dumple,KERIFT,z,,,,,,-0.024392361,-0.39452691,0,0,0,,0,142,142,406,1,,
,,,,,,,,,,,,,,,,,,5f12178ab3ab9d046595ce66,2020-11-27_15h06.28.980,lexical_decision_task_MP_exp2,2020.2.5,MacIntel,60,m,1,0.69032,,,,,,,,0.69032,1,,,,,,9,WORD,"ID",16,hustle,HUSTLE,m,,,,,,-0.024392361,-0.39452691,0,0,0,,0,143,143,68,1,,
,,,,,,,,,,,,,,,,,,5f12178ab3ab9d046595ce66,2020-11-27_15h06.28.980,lexical_decision_task_MP_exp2,2020.2.5,MacIntel,60,z,1,0.615675,,,,,,,,0.615675,1,,,,,,456,NW,"ID",33,broget,BROGET,z,,,,,,-0.024392361,-0.39452691,0,0,0,,0,144,144,275,1,,
,,,,,,,,,,,,,,,,,,5f12178ab3ab9d046595ce66,2020-11-27_15h06.28.980,lexical_decision_task_MP_exp2,2020.2.5,MacIntel,60,m,1,0.58529,,,,,,,,0.58529,1,,,,,,223,WORD,"ID",33,kidney,KIDNEY,m,,,,,,-0.024392361,-0.39452691,0,0,0,,0,145,145,42,1,,
,,,,,,,,,,,,,,,,,,5f12178ab3ab9d046595ce66,2020-11-27_15h06.28.980,lexical_decision_task_MP_exp2,2020.2.5,MacIntel,60,z,1,0.63345,,,,,,,,0.63345,1,,,,,,325,NW,UN,33,iguade,THRUSE,z,,,,,,-0.024392361,-0.39452691,0,0,0,,0,146,146,384,1,,
,,,,,,,,,,,,,,,,,,5f12178ab3ab9d046595ce66,2020-11-27_15h06.28.980,lexical_decision_task_MP_exp2,2020.2.5,MacIntel,60,m,0,0.568485,,,,,,,,0.568485,0,,,,,,454,NW,"ID",33,scouge,SCOUGE,z,,,,,,-0.024392361,-0.39452691,0,0,0,,0,147,147,273,1,,
,,,,,,,,,,,,,,,,,,5f12178ab3ab9d046595ce66,2020-11-27_15h06.28.980,lexical_decision_task_MP_exp2,2020.2.5,MacIntel,60,m,1,0.764675,,,,,,,,0.764675,1,,,,,,172,WORD,UN,16,shower,PATROL,m,,,,,,-0.024392361,-0.39452691,0,0,0,,0,148,148,231,1,,
,,,,,,,,,,,,,,,,,,5f12178ab3ab9d046595ce66,2020-11-27_15h06.28.980,lexical_decision_task_MP_exp2,2020.2.5,MacIntel,60,z,1,0.816205,,,,,,,,0.816205,1,,,,,,474,NW,"ID",33,hablin,HABLIN,z,,,,,,-0.024392361,-0.39452691,0,0,0,,0,149,149,293,1,,
,,,,,,,,,,,,,,,,,,5f12178ab3ab9d046595ce66,2020-11-27_15h06.28.980,lexical_decision_task_MP_exp2,2020.2.5,MacIntel,60,z,1,0.568235,,,,,,,,0.568235,1,,,,,,434,NW,"ID",33,pitrom,PITROM,z,,,,,,-0.024392361,-0.39452691,0,0,0,,0,150,150,253,1,,
,,,,,,,,,,,,,,,,,,5f12178ab3ab9d046595ce66,2020-11-27_15h06.28.980,lexical_decision_task_MP_exp2,2020.2.5,MacIntel,60,m,1,0.619725,,,,,,,,0.619725,1,,,,,,140,WORD,UN,16,chrome,PRINCE,m,,,,,,-0.024392361,-0.39452691,0,0,0,,0,151,151,199,1,,
,,,,,,,,,,,,,,,,,,5f12178ab3ab9d046595ce66,2020-11-27_15h06.28.980,lexical_decision_task_MP_exp2,2020.2.5,MacIntel,60,m,1,0.556045,,,,,,,,0.556045,1,,,,,,231,WORD,"ID",33,export,EXPORT,m,,,,,,-0.024392361,-0.39452691,0,0,0,,0,152,152,50,1,,
,,,,,,,,,,,,,,,,,,5f12178ab3ab9d046595ce66,2020-11-27_15h06.28.980,lexical_decision_task_MP_exp2,2020.2.5,MacIntel,60,m,1,0.607835,,,,,,,,0.607835,1,,,,,,203,WORD,"ID",33,phrase,PHRASE,m,,,,,,-0.024392361,-0.39452691,0,0,0,,0,153,153,22,1,,
,,,,,,,,,,,,,,,,,,5f12178ab3ab9d046595ce66,2020-11-27_15h06.28.980,lexical_decision_task_MP_exp2,2020.2.5,MacIntel,60,z,1,0.59344,,,,,,,,0.59344,1,,,,,,336,NW,UN,33,rejols,GHODUS,z,,,,,,-0.024392361,-0.39452691,0,0,0,,0,154,154,395,1,,
,,,,,,,,,,,,,,,,,,5f12178ab3ab9d046595ce66,2020-11-27_15h06.28.980,lexical_decision_task_MP_exp2,2020.2.5,MacIntel,60,m,1,0.569255,,,,,,,,0.569255,1,,,,,,141,WORD,UN,16,spruce,ORPHAN,m,,,,,,-0.024392361,-0.39452691,0,0,0,,0,155,155,200,1,,
,,,,,,,,,,,,,,,,,,5f12178ab3ab9d046595ce66,2020-11-27_15h06.28.980,lexical_decision_task_MP_exp2,2020.2.5,MacIntel,60,z,1,0.602735,,,,,,,,0.602735,1,,,,,,312,NW,UN,33,paurse,NERAWL,z,,,,,,-0.024392361,-0.39452691,0,0,0,,0,156,156,371,1,,
,,,,,,,,,,,,,,,,,,5f12178ab3ab9d046595ce66,2020-11-27_15h06.28.980,lexical_decision_task_MP_exp2,2020.2.5,MacIntel,60,m,1,0.52108,,,,,,,,0.52108,1,,,,,,91,WORD,UN,33,hunger,EXPAND,m,,,,,,-0.024392361,-0.39452691,0,0,0,,0,157,157,150,1,,
,,,,,,,,,,,,,,,,,,5f12178ab3ab9d046595ce66,2020-11-27_15h06.28.980,lexical_decision_task_MP_exp2,2020.2.5,MacIntel,60,m,1,0.795525,,,,,,,,0.795525,1,,,,,,189,WORD,"ID",33,censor,CENSOR,m,,,,,,-0.024392361,-0.39452691,0,0,0,,0,158,158,8,1,,
,,,,,,,,,,,,,,,,,,5f12178ab3ab9d046595ce66,2020-11-27_15h06.28.980,lexical_decision_task_MP_exp2,2020.2.5,MacIntel,60,z,1,0.634005,,,,,,,,0.634005,1,,,,,,412,NW,UN,16,equats,JILUER,z,,,,,,-0.024392361,-0.39452691,0,0,0,,0,159,159,471,1,,
,,,,,,,,,,,,,,,,,,5f12178ab3ab9d046595ce66,2020-11-27_15h06.28.980,lexical_decision_task_MP_exp2,2020.2.5,MacIntel,60,m,1,0.63202,,,,,,,,0.63202,1,,,,,,226,WORD,"ID",33,casino,CASINO,m,,,,,,-0.024392361,-0.39452691,0,0,0,,0,160,160,45,1,,
,,,,,,,,,,,,,,,,,,5f12178ab3ab9d046595ce66,2020-11-27_15h06.28.980,lexical_decision_task_MP_exp2,2020.2.5,MacIntel,60,z,1,0.790905,,,,,,,,0.790905,1,,,,,,442,NW,"ID",33,aboune,ABOUNE,z,,,,,,-0.024392361,-0.39452691,0,0,0,,0,161,161,261,1,,
,,,,,,,,,,,,,,,,,,5f12178ab3ab9d046595ce66,2020-11-27_15h06.28.980,lexical_decision_task_MP_exp2,2020.2.5,MacIntel,60,m,1,0.535495,,,,,,,,0.535495,1,,,,,,233,WORD,"ID",33,nature,NATURE,m,,,,,,-0.024392361,-0.39452691,0,0,0,,0,162,162,52,1,,
,,,,,,,,,,,,,,,,,,5f12178ab3ab9d046595ce66,2020-11-27_15h06.28.980,lexical_decision_task_MP_exp2,2020.2.5,MacIntel,60,z,1,0.534185,,,,,,,,0.534185,1,,,,,,406,NW,UN,16,suiver,NOUPLY,z,,,,,,-0.024392361,-0.39452691,0,0,0,,0,163,163,465,1,,
,,,,,,,,,,,,,,,,,,5f12178ab3ab9d046595ce66,2020-11-27_15h06.28.980,lexical_decision_task_MP_exp2,2020.2.5,MacIntel,60,m,1,0.616935,,,,,,,,0.616935,1,,,,,,164,WORD,UN,16,invest,MARKET,m,,,,,,-0.024392361,-0.39452691,0,0,0,,0,164,164,223,1,,
,,,,,,,,,,,,,,,,,,5f12178ab3ab9d046595ce66,2020-11-27_15h06.28.980,lexical_decision_task_MP_exp2,2020.2.5,MacIntel,60,z,1,0.60279,,,,,,,,0.60279,1,,,,,,383,NW,UN,16,guesco,AUNGRE,z,,,,,,-0.024392361,-0.39452691,0,0,0,,0,165,165,442,1,,
,,,,,,,,,,,,,,,,,,5f12178ab3ab9d046595ce66,2020-11-27_15h06.28.980,lexical_decision_task_MP_exp2,2020.2.5,MacIntel,60,m,1,0.461195,,,,,,,,0.461195,1,,,,,,49,WORD,"ID",16,survey,SURVEY,m,,,,,,-0.024392361,-0.39452691,0,0,0,,0,166,166,108,1,,
,,,,,,,,,,,,,,,,,,5f12178ab3ab9d046595ce66,2020-11-27_15h06.28.980,lexical_decision_task_MP_exp2,2020.2.5,MacIntel,60,z,1,0.6529,,,,,,,,0.6529,1,,,,,,379,NW,UN,16,cavory,AUTING,z,,,,,,-0.024392361,-0.39452691,0,0,0,,0,167,167,438,1,,
,,,,,,,,,,,,,,,,,,5f12178ab3ab9d046595ce66,2020-11-27_15h06.28.980,lexical_decision_task_MP_exp2,2020.2.5,MacIntel,60,m,1,0.598295,,,,,,,,0.598295,1,,,,,,79,WORD,UN,33,family,THEORY,m,,,,,,-0.024392361,-0.39452691,0,0,0,,0,168,168,138,1,,
,,,,,,,,,,,,,,,,,,5f12178ab3ab9d046595ce66,2020-11-27_15h06.28.980,lexical_decision_task_MP_exp2,2020.2.5,MacIntel,60,z,1,0.582085,,,,,,,,0.582085,1,,,,,,421,NW,"ID",33,knisma,KNISMA,z,,,,,,-0.024392361,-0.39452691,0,0,0,,0,169,169,240,1,,
,,,,,,,,,,,,,,,,,,5f12178ab3ab9d046595ce66,2020-11-27_15h06.28.980,lexical_decision_task_MP_exp2,2020.2.5,MacIntel,60,z,1,0.60505,,,,,,,,0.60505,1,,,,,,385,NW,UN,16,ancust,VEIGMA,z,,,,,,-0.024392361,-0.39452691,0,0,0,,0,170,170,444,1,,
,,,,,,,,,,,,,,,,,,5f12178ab3ab9d046595ce66,2020-11-27_15h06.28.980,lexical_decision_task_MP_exp2,2020.2.5,MacIntel,60,z,1,0.47348,,,,,,,,0.47348,1,,,,,,337,NW,UN,33,wreash,REJOLS,z,,,,,,-0.024392361,-0.39452691,0,0,0,,0,171,171,396,1,,
,,,,,,,,,,,,,,,,,,5f12178ab3ab9d046595ce66,2020-11-27_15h06.28.980,lexical_decision_task_MP_exp2,2020.2.5,MacIntel,60,z,1,0.683525,,,,,,,,0.683525,1,,,,,,349,NW,UN,33,nagurs,ASYLEN,z,,,,,,-0.024392361,-0.39452691,0,0,0,,0,172,172,408,1,,
,,,,,,,,,,,,,,,,,,5f12178ab3ab9d046595ce66,2020-11-27_15h06.28.980,lexical_decision_task_MP_exp2,2020.2.5,MacIntel,60,m,1,0.56676,,,,,,,,0.56676,1,,,,,,52,WORD,"ID",16,impose,IMPOSE,m,,,,,,-0.024392361,-0.39452691,0,0,0,,0,173,173,111,1,,
,,,,,,,,,,,,,,,,,,5f12178ab3ab9d046595ce66,2020-11-27_15h06.28.980,lexical_decision_task_MP_exp2,2020.2.5,MacIntel,60,z,1,0.77861,,,,,,,,0.77861,1,,,,,,425,NW,"ID",33,frudge,FRUDGE,z,,,,,,-0.024392361,-0.39452691,0,0,0,,0,174,174,244,1,,
,,,,,,,,,,,,,,,,,,5f12178ab3ab9d046595ce66,2020-11-27_15h06.28.980,lexical_decision_task_MP_exp2,2020.2.5,MacIntel,60,m,1,0.678995,,,,,,,,0.678995,1,,,,,,190,WORD,"ID",33,backup,BACKUP,m,,,,,,-0.024392361,-0.39452691,0,0,0,,0,175,175,9,1,,
,,,,,,,,,,,,,,,,,,5f12178ab3ab9d046595ce66,2020-11-27_15h06.28.980,lexical_decision_task_MP_exp2,2020.2.5,MacIntel,60,z,1,0.56384,,,,,,,,0.56384,1,,,,,,402,NW,UN,16,bruats,SYNTIC,z,,,,,,-0.024392361,-0.39452691,0,0,0,,0,176,176,461,1,,
,,,,,,,,,,,,,,,,,,5f12178ab3ab9d046595ce66,2020-11-27_15h06.28.980,lexical_decision_task_MP_exp2,2020.2.5,MacIntel,60,m,0,0.537205,,,,,,,,0.537205,0,,,,,,478,NW,"ID",33,acrise,ACRISE,z,,,,,,-0.024392361,-0.39452691,0,0,0,,0,177,177,297,1,,
,,,,,,,,,,,,,,,,,,5f12178ab3ab9d046595ce66,2020-11-27_15h06.28.980,lexical_decision_task_MP_exp2,2020.2.5,MacIntel,60,m,1,0.622655,,,,,,,,0.622655,1,,,,,,99,WORD,UN,33,carbon,FLUENT,m,,,,,,-0.024392361,-0.39452691,0,0,0,,0,178,178,158,1,,
,,,,,,,,,,,,,,,,,,5f12178ab3ab9d046595ce66,2020-11-27_15h06.28.980,lexical_decision_task_MP_exp2,2020.2.5,MacIntel,60,z,1,0.594825,,,,,,,,0.594825,1,,,,,,247,NW,"ID",16,blarge,BLARGE,z,,,,,,-0.024392361,-0.39452691,0,0,0,,0,179,179,306,1,,
,,,,,,,,,,,,,,,,,,5f12178ab3ab9d046595ce66,2020-11-27_15h06.28.980,lexical_decision_task_MP_exp2,2020.2.5,MacIntel,60,z,1,0.700585,,,,,,,,0.700585,1,,,,,,313,NW,UN,33,sprine,PAURSE,z,,,,,,-0.024392361,-0.39452691,0,0,0,,0,180,180,372,1,,
,,,,,,,,,,,,,,,,,,5f12178ab3ab9d046595ce66,2020-11-27_15h06.28.980,lexical_decision_task_MP_exp2,2020.2.5,MacIntel,60,m,1,0.748425,,,,,,,,0.748425,1,,,,,,89,WORD,UN,33,relish,PERMIT,m,,,,,,-0.024392361,-0.39452691,0,0,0,,0,181,181,148,1,,
,,,,,,,,,,,,,,,,,,5f12178ab3ab9d046595ce66,2020-11-27_15h06.28.980,lexical_decision_task_MP_exp2,2020.2.5,MacIntel,60,z,1,0.585765,,,,,,,,0.585765,1,,,,,,451,NW,"ID",33,cainky,CAINKY,z,,,,,,-0.024392361,-0.39452691,0,0,0,,0,182,182,270,1,,
,,,,,,,,,,,,,,,,,,5f12178ab3ab9d046595ce66,2020-11-27_15h06.28.980,lexical_decision_task_MP_exp2,2020.2.5,MacIntel,60,m,1,0.61632,,,,,,,,0.61632,1,,,,,,19,WORD,"ID",16,patron,PATRON,m,,,,,,-0.024392361,-0.39452691,0,0,0,,0,183,183,78,1,,
,,,,,,,,,,,,,,,,,,5f12178ab3ab9d046595ce66,2020-11-27_15h06.28.980,lexical_decision_task_MP_exp2,2020.2.5,MacIntel,60,m,0,0.63995,,,,,,,,0.63995,0,,,,,,320,NW,UN,33,miator,JOCKAL,z,,,,,,-0.024392361,-0.39452691,0,0,0,,0,184,184,379,1,,
,,,,,,,,,,,,,,,,,,5f12178ab3ab9d046595ce66,2020-11-27_15h06.28.980,lexical_decision_task_MP_exp2,2020.2.5,MacIntel,60,m,0,0.56532,,,,,,,,0.56532,0,,,,,,285,NW,"ID",16,prudge,PRUDGE,z,,,,,,-0.024392361,-0.39452691,0,0,0,,0,185,185,344,1,,
,,,,,,,,,,,,,,,,,,5f12178ab3ab9d046595ce66,2020-11-27_15h06.28.980,lexical_decision_task_MP_exp2,2020.2.5,MacIntel,60,z,1,0.71946,,,,,,,,0.71946,1,,,,,,395,NW,UN,16,flengy,COLURY,z,,,,,,-0.024392361,-0.39452691,0,0,0,,0,186,186,454,1,,
,,,,,,,,,,,,,,,,,,5f12178ab3ab9d046595ce66,2020-11-27_15h06.28.980,lexical_decision_task_MP_exp2,2020.2.5,MacIntel,60,z,1,0.63288,,,,,,,,0.63288,1,,,,,,334,NW,UN,33,desion,WATMEG,z,,,,,,-0.024392361,-0.39452691,0,0,0,,0,187,187,393,1,,
,,,,,,,,,,,,,,,,,,5f12178ab3ab9d046595ce66,2020-11-27_15h06.28.980,lexical_decision_task_MP_exp2,2020.2.5,MacIntel,60,z,0,0.53944,,,,,,,,0.53944,0,,,,,,160,WORD,UN,16,pastor,VIOLET,m,,,,,,-0.024392361,-0.39452691,0,0,0,,0,188,188,219,1,,
,,,,,,,,,,,,,,,,,,5f12178ab3ab9d046595ce66,2020-11-27_15h06.28.980,lexical_decision_task_MP_exp2,2020.2.5,MacIntel,60,z,1,0.76732,,,,,,,,0.76732,1,,,,,,343,NW,UN,33,scrily,AIMOSY,z,,,,,,-0.024392361,-0.39452691,0,0,0,,0,189,189,402,1,,
,,,,,,,,,,,,,,,,,,5f12178ab3ab9d046595ce66,2020-11-27_15h06.28.980,lexical_decision_task_MP_exp2,2020.2.5,MacIntel,60,m,1,0.598925,,,,,,,,0.598925,1,,,,,,218,WORD,"ID",33,shrink,SHRINK,m,,,,,,-0.024392361,-0.39452691,0,0,0,,0,190,190,37,1,,
,,,,,,,,,,,,,,,,,,5f12178ab3ab9d046595ce66,2020-11-27_15h06.28.980,lexical_decision_task_MP_exp2,2020.2.5,MacIntel,60,z,1,0.802285,,,,,,,,0.802285,1,,,,,,475,NW,"ID",33,pebric,PEBRIC,z,,,,,,-0.024392361,-0.39452691,0,0,0,,0,191,191,294,1,,
,,,,,,,,,,,,,,,,,,5f12178ab3ab9d046595ce66,2020-11-27_15h06.28.980,lexical_decision_task_MP_exp2,2020.2.5,MacIntel,60,m,1,0.55118,,,,,,,,0.55118,1,,,,,,144,WORD,UN,16,parish,SPONGE,m,,,,,,-0.024392361,-0.39452691,0,0,0,,0,192,192,203,1,,
,,,,,,,,,,,,,,,,,,5f12178ab3ab9d046595ce66,2020-11-27_15h06.28.980,lexical_decision_task_MP_exp2,2020.2.5,MacIntel,60,z,1,0.585975,,,,,,,,0.585975,1,,,,,,480,NW,"ID",33,robuly,ROBULY,z,,,,,,-0.024392361,-0.39452691,0,0,0,,0,193,193,299,1,,
,,,,,,,,,,,,,,,,,,5f12178ab3ab9d046595ce66,2020-11-27_15h06.28.980,lexical_decision_task_MP_exp2,2020.2.5,MacIntel,60,m,1,0.467445,,,,,,,,0.467445,1,,,,,,35,WORD,"ID",16,socket,SOCKET,m,,,,,,-0.024392361,-0.39452691,0,0,0,,0,194,194,94,1,,
,,,,,,,,,,,,,,,,,,5f12178ab3ab9d046595ce66,2020-11-27_15h06.28.980,lexical_decision_task_MP_exp2,2020.2.5,MacIntel,60,m,1,0.53623,,,,,,,,0.53623,1,,,,,,80,WORD,UN,33,friend,FAMILY,m,,,,,,-0.024392361,-0.39452691,0,0,0,,0,195,195,139,1,,
,,,,,,,,,,,,,,,,,,5f12178ab3ab9d046595ce66,2020-11-27_15h06.28.980,lexical_decision_task_MP_exp2,2020.2.5,MacIntel,60,m,1,0.565105,,,,,,,,0.565105,1,,,,,,174,WORD,UN,16,fabric,TURKEY,m,,,,,,-0.024392361,-0.39452691,0,0,0,,0,196,196,233,1,,
,,,,,,,,,,,,,,,,,,5f12178ab3ab9d046595ce66,2020-11-27_15h06.28.980,lexical_decision_task_MP_exp2,2020.2.5,MacIntel,60,m,1,0.55276,,,,,,,,0.55276,1,,,,,,30,WORD,"ID",16,orient,ORIENT,m,,,,,,-0.024392361,-0.39452691,0,0,0,,0,197,197,89,1,,
,,,,,,,,,,,,,,,,,,5f12178ab3ab9d046595ce66,2020-11-27_15h06.28.980,lexical_decision_task_MP_exp2,2020.2.5,MacIntel,60,m,1,0.487335,,,,,,,,0.487335,1,,,,,,173,WORD,UN,16,turkey,SHOWER,m,,,,,,-0.024392361,-0.39452691,0,0,0,,0,198,198,232,1,,
,,,,,,,,,,,,,,,,,,5f12178ab3ab9d046595ce66,2020-11-27_15h06.28.980,lexical_decision_task_MP_exp2,2020.2.5,MacIntel,60,z,1,0.62108,,,,,,,,0.62108,1,,,,,,280,NW,"ID",16,curbol,CURBOL,z,,,,,,-0.024392361,-0.39452691,0,0,0,,0,199,199,339,1,,
,,,,,,,,,,,,,,,,,,5f12178ab3ab9d046595ce66,2020-11-27_15h06.28.980,lexical_decision_task_MP_exp2,2020.2.5,MacIntel,60,z,1,0.50424,,,,,,,,0.50424,1,,,,,,277,NW,"ID",16,petain,PETAIN,z,,,,,,-0.024392361,-0.39452691,0,0,0,,0,200,200,336,1,,
,,,,,,,,,,,,,,,,,,5f12178ab3ab9d046595ce66,2020-11-27_15h06.28.980,lexical_decision_task_MP_exp2,2020.2.5,MacIntel,60,z,1,0.662565,,,,,,,,0.662565,1,,,,,,420,NW,UN,16,pauche,GUSHOP,z,,,,,,-0.024392361,-0.39452691,0,0,0,,0,201,201,479,1,,
,,,,,,,,,,,,,,,,,,5f12178ab3ab9d046595ce66,2020-11-27_15h06.28.980,lexical_decision_task_MP_exp2,2020.2.5,MacIntel,60,z,1,0.48099,,,,,,,,0.48099,1,,,,,,382,NW,UN,16,aungre,SARLEY,z,,,,,,-0.024392361,-0.39452691,0,0,0,,0,202,202,441,1,,
,,,,,,,,,,,,,,,,,,5f12178ab3ab9d046595ce66,2020-11-27_15h06.28.980,lexical_decision_task_MP_exp2,2020.2.5,MacIntel,60,m,1,0.586035,,,,,,,,0.586035,1,,,,,,47,WORD,"ID",16,income,INCOME,m,,,,,,-0.024392361,-0.39452691,0,0,0,,0,203,203,106,1,,
,,,,,,,,,,,,,,,,,,5f12178ab3ab9d046595ce66,2020-11-27_15h06.28.980,lexical_decision_task_MP_exp2,2020.2.5,MacIntel,60,z,1,0.58347,,,,,,,,0.58347,1,,,,,,387,NW,UN,16,cragin,GRONCE,z,,,,,,-0.024392361,-0.39452691,0,0,0,,0,204,204,446,1,,
,,,,,,,,,,,,,,,,,,5f12178ab3ab9d046595ce66,2020-11-27_15h06.28.980,lexical_decision_task_MP_exp2,2020.2.5,MacIntel,60,z,0,0.56788,,,,,,,,0.56788,0,,,,,,147,WORD,UN,16,custom,GARLIC,m,,,,,,-0.024392361,-0.39452691,0,0,0,,0,205,205,206,1,,
,,,,,,,,,,,,,,,,,,5f12178ab3ab9d046595ce66,2020-11-27_15h06.28.980,lexical_decision_task_MP_exp2,2020.2.5,MacIntel,60,z,1,0.852165,,,,,,,,0.852165,1,,,,,,372,NW,UN,16,bigent,RAMILY,z,,,,,,-0.024392361,-0.39452691,0,0,0,,0,206,206,431,1,,
,,,,,,,,,,,,,,,,,,5f12178ab3ab9d046595ce66,2020-11-27_15h06.28.980,lexical_decision_task_MP_exp2,2020.2.5,MacIntel,60,z,1,0.55024,,,,,,,,0.55024,1,,,,,,441,NW,"ID",33,rastoe,RASTOE,z,,,,,,-0.024392361,-0.39452691,0,0,0,,0,207,207,260,1,,
,,,,,,,,,,,,,,,,,,5f12178ab3ab9d046595ce66,2020-11-27_15h06.28.980,lexical_decision_task_MP_exp2,2020.2.5,MacIntel,60,m,1,0.73526,,,,,,,,0.73526,1,,,,,,29,WORD,"ID",16,sketch,SKETCH,m,,,,,,-0.024392361,-0.39452691,0,0,0,,0,208,208,88,1,,
,,,,,,,,,,,,,,,,,,5f12178ab3ab9d046595ce66,2020-11-27_15h06.28.980,lexical_decision_task_MP_exp2,2020.2.5,MacIntel,60,m,1,0.599695,,,,,,,,0.599695,1,,,,,,109,WORD,UN,33,polite,WONDER,m,,,,,,-0.024392361,-0.39452691,0,0,0,,0,209,209,168,1,,
,,,,,,,,,,,,,,,,,,5f12178ab3ab9d046595ce66,2020-11-27_15h06.28.980,lexical_decision_task_MP_exp2,2020.2.5,MacIntel,60,m,0,0.6532,,,,,,,,0.6532,0,,,,,,284,NW,"ID",16,shaple,SHAPLE,z,,,,,,-0.024392361,-0.39452691,0,0,0,,0,210,210,343,1,,
,,,,,,,,,,,,,,,,,,5f12178ab3ab9d046595ce66,2020-11-27_15h06.28.980,lexical_decision_task_MP_exp2,2020.2.5,MacIntel,60,z,1,0.649615,,,,,,,,0.649615,1,,,,,,300,NW,"ID",16,yarion,YARION,z,,,,,,-0.024392361,-0.39452691,0,0,0,,0,211,211,359,1,,
,,,,,,,,,,,,,,,,,,5f12178ab3ab9d046595ce66,2020-11-27_15h06.28.980,lexical_decision_task_MP_exp2,2020.2.5,MacIntel,60,z,1,0.583435,,,,,,,,0.583435,1,,,,,,270,NW,"ID",16,wrimsy,WRIMSY,z,,,,,,-0.024392361,-0.39452691,0,0,0,,0,212,212,329,1,,
,,,,,,,,,,,,,,,,,,5f12178ab3ab9d046595ce66,2020-11-27_15h06.28.980,lexical_decision_task_MP_exp2,2020.2.5,MacIntel,60,m,1,0.521135,,,,,,,,0.521135,1,,,,,,238,WORD,"ID",33,flower,FLOWER,m,,,,,,-0.024392361,-0.39452691,0,0,0,,0,213,213,57,1,,
,,,,,,,,,,,,,,,,,,5f12178ab3ab9d046595ce66,2020-11-27_15h06.28.980,lexical_decision_task_MP_exp2,2020.2.5,MacIntel,60,z,0,0.56799,,,,,,,,0.56799,0,,,,,,236,WORD,"ID",33,pirate,PIRATE,m,,,,,,-0.024392361,-0.39452691,0,0,0,,0,214,214,55,1,,
,,,,,,,,,,,,,,,,,,5f12178ab3ab9d046595ce66,2020-11-27_15h06.28.980,lexical_decision_task_MP_exp2,2020.2.5,MacIntel,60,z,1,0.73985,,,,,,,,0.73985,1,,,,,,259,NW,"ID",16,soudal,SOUDAL,z,,,,,,-0.024392361,-0.39452691,0,0,0,,0,215,215,318,1,,
,,,,,,,,,,,,,,,,,,5f12178ab3ab9d046595ce66,2020-11-27_15h06.28.980,lexical_decision_task_MP_exp2,2020.2.5,MacIntel,60,z,1,0.65448,,,,,,,,0.65448,1,,,,,,354,NW,UN,33,zingly,VIRLEX,z,,,,,,-0.024392361,-0.39452691,0,0,0,,0,216,216,413,1,,
,,,,,,,,,,,,,,,,,,5f12178ab3ab9d046595ce66,2020-11-27_15h06.28.980,lexical_decision_task_MP_exp2,2020.2.5,MacIntel,60,m,1,0.566725,,,,,,,,0.566725,1,,,,,,5,WORD,"ID",16,plunge,PLUNGE,m,,,,,,-0.024392361,-0.39452691,0,0,0,,0,217,217,64,1,,
,,,,,,,,,,,,,,,,,,5f12178ab3ab9d046595ce66,2020-11-27_15h06.28.980,lexical_decision_task_MP_exp2,2020.2.5,MacIntel,60,z,1,0.54804,,,,,,,,0.54804,1,,,,,,308,NW,UN,33,amiloy,PSETCH,z,,,,,,-0.024392361,-0.39452691,0,0,0,,0,218,218,367,1,,
,,,,,,,,,,,,,,,,,,5f12178ab3ab9d046595ce66,2020-11-27_15h06.28.980,lexical_decision_task_MP_exp2,2020.2.5,MacIntel,60,z,1,0.55563,,,,,,,,0.55563,1,,,,,,427,NW,"ID",33,schind,SCHIND,z,,,,,,-0.024392361,-0.39452691,0,0,0,,0,219,219,246,1,,
,,,,,,,,,,,,,,,,,,5f12178ab3ab9d046595ce66,2020-11-27_15h06.28.980,lexical_decision_task_MP_exp2,2020.2.5,MacIntel,60,m,1,0.556005,,,,,,,,0.556005,1,,,,,,187,WORD,"ID",33,course,COURSE,m,,,,,,-0.024392361,-0.39452691,0,0,0,,0,220,220,6,1,,
,,,,,,,,,,,,,,,,,,5f12178ab3ab9d046595ce66,2020-11-27_15h06.28.980,lexical_decision_task_MP_exp2,2020.2.5,MacIntel,60,z,1,0.65281,,,,,,,,0.65281,1,,,,,,388,NW,UN,16,witmer,CRAGIN,z,,,,,,-0.024392361,-0.39452691,0,0,0,,0,221,221,447,1,,
,,,,,,,,,,,,,,,,,,5f12178ab3ab9d046595ce66,2020-11-27_15h06.28.980,lexical_decision_task_MP_exp2,2020.2.5,MacIntel,60,m,0,0.49795,,,,,,,,0.49795,0,,,,,,266,NW,"ID",16,varmit,VARMIT,z,,,,,,-0.024392361,-0.39452691,0,0,0,,0,222,222,325,1,,
,,,,,,,,,,,,,,,,,,5f12178ab3ab9d046595ce66,2020-11-27_15h06.28.980,lexical_decision_task_MP_exp2,2020.2.5,MacIntel,60,z,1,0.50731,,,,,,,,0.50731,1,,,,,,423,NW,"ID",33,streld,STRELD,z,,,,,,-0.024392361,-0.39452691,0,0,0,,0,223,223,242,1,,
,,,,,,,,,,,,,,,,,,5f12178ab3ab9d046595ce66,2020-11-27_15h06.28.980,lexical_decision_task_MP_exp2,2020.2.5,MacIntel,60,m,1,0.789845,,,,,,,,0.789845,1,,,,,,46,WORD,"ID",16,single,SINGLE,m,,,,,,-0.024392361,-0.39452691,0,0,0,,0,224,224,105,1,,
,,,,,,,,,,,,,,,,,,5f12178ab3ab9d046595ce66,2020-11-27_15h06.28.980,lexical_decision_task_MP_exp2,2020.2.5,MacIntel,60,z,1,0.6011,,,,,,,,0.6011,1,,,,,,362,NW,UN,16,breali,TIREAU,z,,,,,,-0.024392361,-0.39452691,0,0,0,,0,225,225,421,1,,
,,,,,,,,,,,,,,,,,,5f12178ab3ab9d046595ce66,2020-11-27_15h06.28.980,lexical_decision_task_MP_exp2,2020.2.5,MacIntel,60,m,1,0.786025,,,,,,,,0.786025,1,,,,,,118,WORD,UN,33,spider,FLIGHT,m,,,,,,-0.024392361,-0.39452691,0,0,0,,0,226,226,177,1,,
,,,,,,,,,,,,,,,,,,5f12178ab3ab9d046595ce66,2020-11-27_15h06.28.980,lexical_decision_task_MP_exp2,2020.2.5,MacIntel,60,m,1,0.551345,,,,,,,,0.551345,1,,,,,,132,WORD,UN,16,orphan,STRONG,m,,,,,,-0.024392361,-0.39452691,0,0,0,,0,227,227,191,1,,
,,,,,,,,,,,,,,,,,,5f12178ab3ab9d046595ce66,2020-11-27_15h06.28.980,lexical_decision_task_MP_exp2,2020.2.5,MacIntel,60,m,0,0.454705,,,,,,,,0.454705,0,,,,,,252,NW,"ID",16,stapod,STAPOD,z,,,,,,-0.024392361,-0.39452691,0,0,0,,0,228,228,311,1,,
,,,,,,,,,,,,,,,,,,5f12178ab3ab9d046595ce66,2020-11-27_15h06.28.980,lexical_decision_task_MP_exp2,2020.2.5,MacIntel,60,z,1,0.63259,,,,,,,,0.63259,1,,,,,,278,NW,"ID",16,unighs,UNIGHS,z,,,,,,-0.024392361,-0.39452691,0,0,0,,0,229,229,337,1,,
,,,,,,,,,,,,,,,,,,5f12178ab3ab9d046595ce66,2020-11-27_15h06.28.980,lexical_decision_task_MP_exp2,2020.2.5,MacIntel,60,m,1,0.60087,,,,,,,,0.60087,1,,,,,,150,WORD,UN,16,mystic,RANDOM,m,,,,,,-0.024392361,-0.39452691,0,0,0,,0,230,230,209,1,,
,,,,,,,,,,,,,,,,,,5f12178ab3ab9d046595ce66,2020-11-27_15h06.28.980,lexical_decision_task_MP_exp2,2020.2.5,MacIntel,60,m,1,0.56648,,,,,,,,0.56648,1,,,,,,57,WORD,"ID",16,change,CHANGE,m,,,,,,-0.024392361,-0.39452691,0,0,0,,0,231,231,116,1,,
,,,,,,,,,,,,,,,,,,5f12178ab3ab9d046595ce66,2020-11-27_15h06.28.980,lexical_decision_task_MP_exp2,2020.2.5,MacIntel,60,m,1,0.600075,,,,,,,,0.600075,1,,,,,,43,WORD,"ID",16,tongue,TONGUE,m,,,,,,-0.024392361,-0.39452691,0,0,0,,0,232,232,102,1,,
,,,,,,,,,,,,,,,,,,5f12178ab3ab9d046595ce66,2020-11-27_15h06.28.980,lexical_decision_task_MP_exp2,2020.2.5,MacIntel,60,m,1,0.46454,,,,,,,,0.46454,1,,,,,,232,WORD,"ID",33,inject,INJECT,m,,,,,,-0.024392361,-0.39452691,0,0,0,,0,233,233,51,1,,
,,,,,,,,,,,,,,,,,,5f12178ab3ab9d046595ce66,2020-11-27_15h06.28.980,lexical_decision_task_MP_exp2,2020.2.5,MacIntel,60,m,0,0.43323,,,,,,,,0.43323,0,,,,,,339,NW,UN,33,fiatch,FACHOW,z,,,,,,-0.024392361,-0.39452691,0,0,0,,0,234,234,398,1,,
,,,,,,,,,,,,,,,,,,5f12178ab3ab9d046595ce66,2020-11-27_15h06.28.980,lexical_decision_task_MP_exp2,2020.2.5,MacIntel,60,m,1,0.46473,,,,,,,,0.46473,1,,,,,,228,WORD,"ID",33,master,MASTER,m,,,,,,-0.024392361,-0.39452691,0,0,0,,0,235,235,47,1,,
,,,,,,,,,,,,,,,,,,5f12178ab3ab9d046595ce66,2020-11-27_15h06.28.980,lexical_decision_task_MP_exp2,2020.2.5,MacIntel,60,z,1,0.68103,,,,,,,,0.68103,1,,,,,,376,NW,UN,16,veigma,IGUARE,z,,,,,,-0.024392361,-0.39452691,0,0,0,,0,236,236,435,1,,
,,,,,,,,,,,,,,,,,,5f12178ab3ab9d046595ce66,2020-11-27_15h06.28.980,lexical_decision_task_MP_exp2,2020.2.5,MacIntel,60,m,1,0.654155,,,,,,,,0.654155,1,,,,,,56,WORD,"ID",16,ambush,AMBUSH,m,,,,,,-0.024392361,-0.39452691,0,0,0,,0,237,237,115,1,,
,,,,,,,,,,,,,,,,,,5f12178ab3ab9d046595ce66,2020-11-27_15h06.28.980,lexical_decision_task_MP_exp2,2020.2.5,MacIntel,60,m,1,0.449275,,,,,,,,0.449275,1,,,,,,90,WORD,UN,33,expand,RELISH,m,,,,,,-0.024392361,-0.39452691,0,0,0,,0,238,238,149,1,,
,,,,,,,,,,,,,,,,,,5f12178ab3ab9d046595ce66,2020-11-27_15h06.28.980,lexical_decision_task_MP_exp2,2020.2.5,MacIntel,60,z,1,0.635335,,,,,,,,0.635335,1,,,,,,426,NW,"ID",33,urivel,URIVEL,z,,,,,,-0.024392361,-0.39452691,0,0,0,,0,239,239,245,1,,
,,,,,,,,,,,,,,,,,,5f12178ab3ab9d046595ce66,2020-11-27_15h06.28.980,lexical_decision_task_MP_exp2,2020.2.5,MacIntel,60,m,1,0.56502,,,,,,,,0.56502,1,,,,,,240,WORD,"ID",33,forest,FOREST,m,,,,,,-0.024392361,-0.39452691,0,0,0,,0,240,240,59,1,,
,,,,,,,,,,,,,,,,,,5f12178ab3ab9d046595ce66,2020-11-27_15h06.28.980,lexical_decision_task_MP_exp2,2020.2.5,MacIntel,60,m,1,0.56669,,,,,,,,0.56669,1,,,,,,234,WORD,"ID",33,clumsy,CLUMSY,m,,,,,,-0.024392361,-0.39452691,1,0,0,,0,241,241,53,1,break_done_button,
,,,,,,,,,,,,,,,,,,5f12178ab3ab9d046595ce66,2020-11-27_15h06.28.980,lexical_decision_task_MP_exp2,2020.2.5,MacIntel,60,m,1,0.68928,,,,,,,,0.68928,1,,,,,,204,WORD,"ID",33,burden,BURDEN,m,,,,,,-0.024392361,-0.39452691,0,0,0,,0,242,242,23,1,,
,,,,,,,,,,,,,,,,,,5f12178ab3ab9d046595ce66,2020-11-27_15h06.28.980,lexical_decision_task_MP_exp2,2020.2.5,MacIntel,60,m,1,1.23169,,,,,,,,1.23169,1,,,,,,178,WORD,UN,16,basket,INFORM,m,,,,,,-0.024392361,-0.39452691,0,0,0,,0,243,243,237,1,,
,,,,,,,,,,,,,,,,,,5f12178ab3ab9d046595ce66,2020-11-27_15h06.28.980,lexical_decision_task_MP_exp2,2020.2.5,MacIntel,60,m,1,0.568935,,,,,,,,0.568935,1,,,,,,11,WORD,"ID",16,cruise,CRUISE,m,,,,,,-0.024392361,-0.39452691,0,0,0,,0,244,244,70,1,,
,,,,,,,,,,,,,,,,,,5f12178ab3ab9d046595ce66,2020-11-27_15h06.28.980,lexical_decision_task_MP_exp2,2020.2.5,MacIntel,60,m,1,0.48395,,,,,,,,0.48395,1,,,,,,224,WORD,"ID",33,period,PERIOD,m,,,,,,-0.024392361,-0.39452691,0,0,0,,0,245,245,43,1,,
,,,,,,,,,,,,,,,,,,5f12178ab3ab9d046595ce66,2020-11-27_15h06.28.980,lexical_decision_task_MP_exp2,2020.2.5,MacIntel,60,z,1,0.60026,,,,,,,,0.60026,1,,,,,,331,NW,UN,33,vangue,GILFEW,z,,,,,,-0.024392361,-0.39452691,0,0,0,,0,246,246,390,1,,
,,,,,,,,,,,,,,,,,,5f12178ab3ab9d046595ce66,2020-11-27_15h06.28.980,lexical_decision_task_MP_exp2,2020.2.5,MacIntel,60,z,1,0.648785,,,,,,,,0.648785,1,,,,,,361,NW,UN,16,tireau,PAUCHE,z,,,,,,-0.024392361,-0.39452691,0,0,0,,0,247,247,420,1,,
,,,,,,,,,,,,,,,,,,5f12178ab3ab9d046595ce66,2020-11-27_15h06.28.980,lexical_decision_task_MP_exp2,2020.2.5,MacIntel,60,m,1,0.55162,,,,,,,,0.55162,1,,,,,,212,WORD,"ID",33,verify,VERIFY,m,,,,,,-0.024392361,-0.39452691,0,0,0,,0,248,248,31,1,,
,,,,,,,,,,,,,,,,,,5f12178ab3ab9d046595ce66,2020-11-27_15h06.28.980,lexical_decision_task_MP_exp2,2020.2.5,MacIntel,60,z,1,0.597075,,,,,,,,0.597075,1,,,,,,248,NW,"ID",16,strole,STROLE,z,,,,,,-0.024392361,-0.39452691,0,0,0,,0,249,249,307,1,,
,,,,,,,,,,,,,,,,,,5f12178ab3ab9d046595ce66,2020-11-27_15h06.28.980,lexical_decision_task_MP_exp2,2020.2.5,MacIntel,60,m,0,0.61627,,,,,,,,0.61627,0,,,,,,473,NW,"ID",33,crible,CRIBLE,z,,,,,,-0.024392361,-0.39452691,0,0,0,,0,250,250,292,1,,
,,,,,,,,,,,,,,,,,,5f12178ab3ab9d046595ce66,2020-11-27_15h06.28.980,lexical_decision_task_MP_exp2,2020.2.5,MacIntel,60,m,1,0.721775,,,,,,,,0.721775,1,,,,,,87,WORD,UN,33,sprawl,FILTER,m,,,,,,-0.024392361,-0.39452691,0,0,0,,0,251,251,146,1,,
,,,,,,,,,,,,,,,,,,5f12178ab3ab9d046595ce66,2020-11-27_15h06.28.980,lexical_decision_task_MP_exp2,2020.2.5,MacIntel,60,m,1,0.55187,,,,,,,,0.55187,1,,,,,,36,WORD,"ID",16,vanish,VANISH,m,,,,,,-0.024392361,-0.39452691,0,0,0,,0,252,252,95,1,,
,,,,,,,,,,,,,,,,,,5f12178ab3ab9d046595ce66,2020-11-27_15h06.28.980,lexical_decision_task_MP_exp2,2020.2.5,MacIntel,60,m,1,0.54891,,,,,,,,0.54891,1,,,,,,7,WORD,"ID",16,anchor,ANCHOR,m,,,,,,-0.024392361,-0.39452691,0,0,0,,0,253,253,66,1,,
,,,,,,,,,,,,,,,,,,5f12178ab3ab9d046595ce66,2020-11-27_15h06.28.980,lexical_decision_task_MP_exp2,2020.2.5,MacIntel,60,m,0,0.417065,,,,,,,,0.417065,0,,,,,,327,NW,UN,33,broake,PLENAC,z,,,,,,-0.024392361,-0.39452691,0,0,0,,0,254,254,386,1,,
,,,,,,,,,,,,,,,,,,5f12178ab3ab9d046595ce66,2020-11-27_15h06.28.980,lexical_decision_task_MP_exp2,2020.2.5,MacIntel,60,m,1,0.681355,,,,,,,,0.681355,1,,,,,,63,WORD,UN,33,throne,LAUNCH,m,,,,,,-0.024392361,-0.39452691,0,0,0,,0,255,255,122,1,,
,,,,,,,,,,,,,,,,,,5f12178ab3ab9d046595ce66,2020-11-27_15h06.28.980,lexical_decision_task_MP_exp2,2020.2.5,MacIntel,60,m,1,0.57116,,,,,,,,0.57116,1,,,,,,97,WORD,UN,33,belong,CLIENT,m,,,,,,-0.024392361,-0.39452691,0,0,0,,0,256,256,156,1,,
,,,,,,,,,,,,,,,,,,5f12178ab3ab9d046595ce66,2020-11-27_15h06.28.980,lexical_decision_task_MP_exp2,2020.2.5,MacIntel,60,z,0,0.754455,,,,,,,,0.754455,0,,,,,,176,WORD,UN,16,advent,STRIFE,m,,,,,,-0.024392361,-0.39452691,0,0,0,,0,257,257,235,1,,
,,,,,,,,,,,,,,,,,,5f12178ab3ab9d046595ce66,2020-11-27_15h06.28.980,lexical_decision_task_MP_exp2,2020.2.5,MacIntel,60,z,1,0.770535,,,,,,,,0.770535,1,,,,,,263,NW,"ID",16,dolica,DOLICA,z,,,,,,-0.024392361,-0.39452691,0,0,0,,0,258,258,322,1,,
,,,,,,,,,,,,,,,,,,5f12178ab3ab9d046595ce66,2020-11-27_15h06.28.980,lexical_decision_task_MP_exp2,2020.2.5,MacIntel,60,z,1,0.667605,,,,,,,,0.667605,1,,,,,,447,NW,"ID",33,gircue,GIRCUE,z,,,,,,-0.024392361,-0.39452691,0,0,0,,0,259,259,266,1,,
,,,,,,,,,,,,,,,,,,5f12178ab3ab9d046595ce66,2020-11-27_15h06.28.980,lexical_decision_task_MP_exp2,2020.2.5,MacIntel,60,m,1,0.7005,,,,,,,,0.7005,1,,,,,,195,WORD,"ID",33,resign,RESIGN,m,,,,,,-0.024392361,-0.39452691,0,0,0,,0,260,260,14,1,,
,,,,,,,,,,,,,,,,,,5f12178ab3ab9d046595ce66,2020-11-27_15h06.28.980,lexical_decision_task_MP_exp2,2020.2.5,MacIntel,60,m,1,0.45432,,,,,,,,0.45432,1,,,,,,200,WORD,"ID",33,beacon,BEACON,m,,,,,,-0.024392361,-0.39452691,0,0,0,,0,261,261,19,1,,
,,,,,,,,,,,,,,,,,,5f12178ab3ab9d046595ce66,2020-11-27_15h06.28.980,lexical_decision_task_MP_exp2,2020.2.5,MacIntel,60,m,1,0.537185,,,,,,,,0.537185,1,,,,,,33,WORD,"ID",16,butler,BUTLER,m,,,,,,-0.024392361,-0.39452691,0,0,0,,0,262,262,92,1,,
,,,,,,,,,,,,,,,,,,5f12178ab3ab9d046595ce66,2020-11-27_15h06.28.980,lexical_decision_task_MP_exp2,2020.2.5,MacIntel,60,m,0,0.4979,,,,,,,,0.4979,0,,,,,,335,NW,UN,33,ghodus,DESION,z,,,,,,-0.024392361,-0.39452691,0,0,0,,0,263,263,394,1,,
,,,,,,,,,,,,,,,,,,5f12178ab3ab9d046595ce66,2020-11-27_15h06.28.980,lexical_decision_task_MP_exp2,2020.2.5,MacIntel,60,m,1,0.52051,,,,,,,,0.52051,1,,,,,,112,WORD,UN,33,chorus,BREATH,m,,,,,,-0.024392361,-0.39452691,0,0,0,,0,264,264,171,1,,
,,,,,,,,,,,,,,,,,,5f12178ab3ab9d046595ce66,2020-11-27_15h06.28.980,lexical_decision_task_MP_exp2,2020.2.5,MacIntel,60,z,1,0.65028,,,,,,,,0.65028,1,,,,,,267,NW,"ID",16,pasink,PASINK,z,,,,,,-0.024392361,-0.39452691,0,0,0,,0,265,265,326,1,,
,,,,,,,,,,,,,,,,,,5f12178ab3ab9d046595ce66,2020-11-27_15h06.28.980,lexical_decision_task_MP_exp2,2020.2.5,MacIntel,60,m,1,0.653895,,,,,,,,0.653895,1,,,,,,31,WORD,"ID",16,weapon,WEAPON,m,,,,,,-0.024392361,-0.39452691,0,0,0,,0,266,266,90,1,,
,,,,,,,,,,,,,,,,,,5f12178ab3ab9d046595ce66,2020-11-27_15h06.28.980,lexical_decision_task_MP_exp2,2020.2.5,MacIntel,60,m,1,0.586415,,,,,,,,0.586415,1,,,,,,95,WORD,UN,33,ignore,THREAD,m,,,,,,-0.024392361,-0.39452691,0,0,0,,0,267,267,154,1,,
,,,,,,,,,,,,,,,,,,5f12178ab3ab9d046595ce66,2020-11-27_15h06.28.980,lexical_decision_task_MP_exp2,2020.2.5,MacIntel,60,m,0,0.50757,,,,,,,,0.50757,0,,,,,,257,NW,"ID",16,veniod,VENIOD,z,,,,,,-0.024392361,-0.39452691,0,0,0,,0,268,268,316,1,,
,,,,,,,,,,,,,,,,,,5f12178ab3ab9d046595ce66,2020-11-27_15h06.28.980,lexical_decision_task_MP_exp2,2020.2.5,MacIntel,60,m,1,0.618405,,,,,,,,0.618405,1,,,,,,61,WORD,UN,33,region,PONDER,m,,,,,,-0.024392361,-0.39452691,0,0,0,,0,269,269,120,1,,
,,,,,,,,,,,,,,,,,,5f12178ab3ab9d046595ce66,2020-11-27_15h06.28.980,lexical_decision_task_MP_exp2,2020.2.5,MacIntel,60,z,1,0.80038,,,,,,,,0.80038,1,,,,,,416,NW,UN,16,earoud,PATHEL,z,,,,,,-0.024392361,-0.39452691,0,0,0,,0,270,270,475,1,,
,,,,,,,,,,,,,,,,,,5f12178ab3ab9d046595ce66,2020-11-27_15h06.28.980,lexical_decision_task_MP_exp2,2020.2.5,MacIntel,60,m,1,0.715785,,,,,,,,0.715785,1,,,,,,115,WORD,UN,33,tumble,GUITAR,m,,,,,,-0.024392361,-0.39452691,0,0,0,,0,271,271,174,1,,
,,,,,,,,,,,,,,,,,,5f12178ab3ab9d046595ce66,2020-11-27_15h06.28.980,lexical_decision_task_MP_exp2,2020.2.5,MacIntel,60,m,1,0.54958,,,,,,,,0.54958,1,,,,,,74,WORD,UN,33,trophy,PLAQUE,m,,,,,,-0.024392361,-0.39452691,0,0,0,,0,272,272,133,1,,
,,,,,,,,,,,,,,,,,,5f12178ab3ab9d046595ce66,2020-11-27_15h06.28.980,lexical_decision_task_MP_exp2,2020.2.5,MacIntel,60,m,1,0.59055,,,,,,,,0.59055,1,,,,,,123,WORD,UN,16,blouse,STRIKE,m,,,,,,-0.024392361,-0.39452691,0,0,0,,0,273,273,182,1,,
,,,,,,,,,,,,,,,,,,5f12178ab3ab9d046595ce66,2020-11-27_15h06.28.980,lexical_decision_task_MP_exp2,2020.2.5,MacIntel,60,m,0,0.550655,,,,,,,,0.550655,0,,,,,,324,NW,UN,33,thruse,STEIKH,z,,,,,,-0.024392361,-0.39452691,0,0,0,,0,274,274,383,1,,
,,,,,,,,,,,,,,,,,,5f12178ab3ab9d046595ce66,2020-11-27_15h06.28.980,lexical_decision_task_MP_exp2,2020.2.5,MacIntel,60,m,1,0.636,,,,,,,,0.636,1,,,,,,93,WORD,UN,33,travel,PUBLIC,m,,,,,,-0.024392361,-0.39452691,0,0,0,,0,275,275,152,1,,
,,,,,,,,,,,,,,,,,,5f12178ab3ab9d046595ce66,2020-11-27_15h06.28.980,lexical_decision_task_MP_exp2,2020.2.5,MacIntel,60,m,1,0.566135,,,,,,,,0.566135,1,,,,,,8,WORD,"ID",16,abrupt,ABRUPT,m,,,,,,-0.024392361,-0.39452691,0,0,0,,0,276,276,67,1,,
,,,,,,,,,,,,,,,,,,5f12178ab3ab9d046595ce66,2020-11-27_15h06.28.980,lexical_decision_task_MP_exp2,2020.2.5,MacIntel,60,m,1,0.546905,,,,,,,,0.546905,1,,,,,,26,WORD,"ID",16,sprint,SPRINT,m,,,,,,-0.024392361,-0.39452691,0,0,0,,0,277,277,85,1,,
,,,,,,,,,,,,,,,,,,5f12178ab3ab9d046595ce66,2020-11-27_15h06.28.980,lexical_decision_task_MP_exp2,2020.2.5,MacIntel,60,m,0,0.450555,,,,,,,,0.450555,0,,,,,,396,NW,UN,16,camble,FLENGY,z,,,,,,-0.024392361,-0.39452691,0,0,0,,0,278,278,455,1,,
,,,,,,,,,,,,,,,,,,5f12178ab3ab9d046595ce66,2020-11-27_15h06.28.980,lexical_decision_task_MP_exp2,2020.2.5,MacIntel,60,z,0,0.56666,,,,,,,,0.56666,0,,,,,,50,WORD,"ID",16,snatch,SNATCH,m,,,,,,-0.024392361,-0.39452691,0,0,0,,0,279,279,109,1,,
,,,,,,,,,,,,,,,,,,5f12178ab3ab9d046595ce66,2020-11-27_15h06.28.980,lexical_decision_task_MP_exp2,2020.2.5,MacIntel,60,m,1,0.79914,,,,,,,,0.79914,1,,,,,,216,WORD,"ID",33,behalf,BEHALF,m,,,,,,-0.024392361,-0.39452691,0,0,0,,0,280,280,35,1,,
,,,,,,,,,,,,,,,,,,5f12178ab3ab9d046595ce66,2020-11-27_15h06.28.980,lexical_decision_task_MP_exp2,2020.2.5,MacIntel,60,m,0,0.5993,,,,,,,,0.5993,0,,,,,,271,NW,"ID",16,aubrid,AUBRID,z,,,,,,-0.024392361,-0.39452691,0,0,0,,0,281,281,330,1,,
,,,,,,,,,,,,,,,,,,5f12178ab3ab9d046595ce66,2020-11-27_15h06.28.980,lexical_decision_task_MP_exp2,2020.2.5,MacIntel,60,z,1,0.566095,,,,,,,,0.566095,1,,,,,,288,NW,"ID",16,yaceup,YACEUP,z,,,,,,-0.024392361,-0.39452691,0,0,0,,0,282,282,347,1,,
,,,,,,,,,,,,,,,,,,5f12178ab3ab9d046595ce66,2020-11-27_15h06.28.980,lexical_decision_task_MP_exp2,2020.2.5,MacIntel,60,m,1,0.51402,,,,,,,,0.51402,1,,,,,,154,WORD,UN,16,lizard,AUTHOR,m,,,,,,-0.024392361,-0.39452691,0,0,0,,0,283,283,213,1,,
,,,,,,,,,,,,,,,,,,5f12178ab3ab9d046595ce66,2020-11-27_15h06.28.980,lexical_decision_task_MP_exp2,2020.2.5,MacIntel,60,m,1,0.620765,,,,,,,,0.620765,1,,,,,,37,WORD,"ID",16,insult,INSULT,m,,,,,,-0.024392361,-0.39452691,0,0,0,,0,284,284,96,1,,
,,,,,,,,,,,,,,,,,,5f12178ab3ab9d046595ce66,2020-11-27_15h06.28.980,lexical_decision_task_MP_exp2,2020.2.5,MacIntel,60,z,0,0.689845,,,,,,,,0.689845,0,,,,,,114,WORD,UN,33,guitar,PLACID,m,,,,,,-0.024392361,-0.39452691,0,0,0,,0,285,285,173,1,,
,,,,,,,,,,,,,,,,,,5f12178ab3ab9d046595ce66,2020-11-27_15h06.28.980,lexical_decision_task_MP_exp2,2020.2.5,MacIntel,60,m,1,0.539525,,,,,,,,0.539525,1,,,,,,215,WORD,"ID",33,phobia,PHOBIA,m,,,,,,-0.024392361,-0.39452691,0,0,0,,0,286,286,34,1,,
,,,,,,,,,,,,,,,,,,5f12178ab3ab9d046595ce66,2020-11-27_15h06.28.980,lexical_decision_task_MP_exp2,2020.2.5,MacIntel,60,z,1,0.655285,,,,,,,,0.655285,1,,,,,,448,NW,"ID",33,sadent,SADENT,z,,,,,,-0.024392361,-0.39452691,0,0,0,,0,287,287,267,1,,
,,,,,,,,,,,,,,,,,,5f12178ab3ab9d046595ce66,2020-11-27_15h06.28.980,lexical_decision_task_MP_exp2,2020.2.5,MacIntel,60,z,1,0.587795,,,,,,,,0.587795,1,,,,,,254,NW,"ID",16,varosh,VAROSH,z,,,,,,-0.024392361,-0.39452691,0,0,0,,0,288,288,313,1,,
,,,,,,,,,,,,,,,,,,5f12178ab3ab9d046595ce66,2020-11-27_15h06.28.980,lexical_decision_task_MP_exp2,2020.2.5,MacIntel,60,m,1,0.529985,,,,,,,,0.529985,1,,,,,,58,WORD,"ID",16,foster,FOSTER,m,,,,,,-0.024392361,-0.39452691,0,0,0,,0,289,289,117,1,,
,,,,,,,,,,,,,,,,,,5f12178ab3ab9d046595ce66,2020-11-27_15h06.28.980,lexical_decision_task_MP_exp2,2020.2.5,MacIntel,60,z,1,0.616825,,,,,,,,0.616825,1,,,,,,466,NW,"ID",33,hocite,HOCITE,z,,,,,,-0.024392361,-0.39452691,0,0,0,,0,290,290,285,1,,
,,,,,,,,,,,,,,,,,,5f12178ab3ab9d046595ce66,2020-11-27_15h06.28.980,lexical_decision_task_MP_exp2,2020.2.5,MacIntel,60,m,1,0.697535,,,,,,,,0.697535,1,,,,,,78,WORD,UN,33,theory,COLUMN,m,,,,,,-0.024392361,-0.39452691,0,0,0,,0,291,291,137,1,,
,,,,,,,,,,,,,,,,,,5f12178ab3ab9d046595ce66,2020-11-27_15h06.28.980,lexical_decision_task_MP_exp2,2020.2.5,MacIntel,60,m,1,0.450635,,,,,,,,0.450635,1,,,,,,17,WORD,"ID",16,charge,CHARGE,m,,,,,,-0.024392361,-0.39452691,0,0,0,,0,292,292,76,1,,
,,,,,,,,,,,,,,,,,,5f12178ab3ab9d046595ce66,2020-11-27_15h06.28.980,lexical_decision_task_MP_exp2,2020.2.5,MacIntel,60,z,1,0.631405,,,,,,,,0.631405,1,,,,,,422,NW,"ID",33,alcoud,ALCOUD,z,,,,,,-0.024392361,-0.39452691,0,0,0,,0,293,293,241,1,,
,,,,,,,,,,,,,,,,,,5f12178ab3ab9d046595ce66,2020-11-27_15h06.28.980,lexical_decision_task_MP_exp2,2020.2.5,MacIntel,60,z,1,0.483115,,,,,,,,0.483115,1,,,,,,403,NW,UN,16,cluirm,BRUATS,z,,,,,,-0.024392361,-0.39452691,0,0,0,,0,294,294,462,1,,
,,,,,,,,,,,,,,,,,,5f12178ab3ab9d046595ce66,2020-11-27_15h06.28.980,lexical_decision_task_MP_exp2,2020.2.5,MacIntel,60,m,0,0.681895,,,,,,,,0.681895,0,,,,,,364,NW,UN,16,guairt,IMPOTE,z,,,,,,-0.024392361,-0.39452691,0,0,0,,0,295,295,423,1,,
,,,,,,,,,,,,,,,,,,5f12178ab3ab9d046595ce66,2020-11-27_15h06.28.980,lexical_decision_task_MP_exp2,2020.2.5,MacIntel,60,z,1,0.585135,,,,,,,,0.585135,1,,,,,,303,NW,UN,33,cludie,FIREAM,z,,,,,,-0.024392361,-0.39452691,0,0,0,,0,296,296,362,1,,
,,,,,,,,,,,,,,,,,,5f12178ab3ab9d046595ce66,2020-11-27_15h06.28.980,lexical_decision_task_MP_exp2,2020.2.5,MacIntel,60,m,1,0.550925,,,,,,,,0.550925,1,,,,,,198,WORD,"ID",33,wicked,WICKED,m,,,,,,-0.024392361,-0.39452691,0,0,0,,0,297,297,17,1,,
,,,,,,,,,,,,,,,,,,5f12178ab3ab9d046595ce66,2020-11-27_15h06.28.980,lexical_decision_task_MP_exp2,2020.2.5,MacIntel,60,m,1,0.53265,,,,,,,,0.53265,1,,,,,,75,WORD,UN,33,exotic,TROPHY,m,,,,,,-0.024392361,-0.39452691,0,0,0,,0,298,298,134,1,,
,,,,,,,,,,,,,,,,,,5f12178ab3ab9d046595ce66,2020-11-27_15h06.28.980,lexical_decision_task_MP_exp2,2020.2.5,MacIntel,60,z,0,0.703365,,,,,,,,0.703365,0,,,,,,156,WORD,UN,16,depart,CRADLE,m,,,,,,-0.024392361,-0.39452691,0,0,0,,0,299,299,215,1,,
,,,,,,,,,,,,,,,,,,5f12178ab3ab9d046595ce66,2020-11-27_15h06.28.980,lexical_decision_task_MP_exp2,2020.2.5,MacIntel,60,m,1,0.51879,,,,,,,,0.51879,1,,,,,,67,WORD,UN,33,fumble,POLICY,m,,,,,,-0.024392361,-0.39452691,0,0,0,,0,300,300,126,1,,
,,,,,,,,,,,,,,,,,,5f12178ab3ab9d046595ce66,2020-11-27_15h06.28.980,lexical_decision_task_MP_exp2,2020.2.5,MacIntel,60,z,0,0.700015,,,,,,,,0.700015,0,,,,,,16,WORD,"ID",16,faucet,FAUCET,m,,,,,,-0.024392361,-0.39452691,0,0,0,,0,301,301,75,1,,
,,,,,,,,,,,,,,,,,,5f12178ab3ab9d046595ce66,2020-11-27_15h06.28.980,lexical_decision_task_MP_exp2,2020.2.5,MacIntel,60,m,1,0.65343,,,,,,,,0.65343,1,,,,,,70,WORD,UN,33,garden,SQUARE,m,,,,,,-0.024392361,-0.39452691,0,0,0,,0,302,302,129,1,,
,,,,,,,,,,,,,,,,,,5f12178ab3ab9d046595ce66,2020-11-27_15h06.28.980,lexical_decision_task_MP_exp2,2020.2.5,MacIntel,60,m,1,0.579835,,,,,,,,0.579835,1,,,,,,6,WORD,"ID",16,bundle,BUNDLE,m,,,,,,-0.024392361,-0.39452691,0,0,0,,0,303,303,65,1,,
,,,,,,,,,,,,,,,,,,5f12178ab3ab9d046595ce66,2020-11-27_15h06.28.980,lexical_decision_task_MP_exp2,2020.2.5,MacIntel,60,m,1,0.557425,,,,,,,,0.557425,1,,,,,,104,WORD,UN,33,number,STUDIO,m,,,,,,-0.024392361,-0.39452691,0,0,0,,0,304,304,163,1,,
,,,,,,,,,,,,,,,,,,5f12178ab3ab9d046595ce66,2020-11-27_15h06.28.980,lexical_decision_task_MP_exp2,2020.2.5,MacIntel,60,m,0,0.384485,,,,,,,,0.384485,0,,,,,,380,NW,UN,16,huniek,CAVORY,z,,,,,,-0.024392361,-0.39452691,0,0,0,,0,305,305,439,1,,
,,,,,,,,,,,,,,,,,,5f12178ab3ab9d046595ce66,2020-11-27_15h06.28.980,lexical_decision_task_MP_exp2,2020.2.5,MacIntel,60,z,1,0.625005,,,,,,,,0.625005,1,,,,,,338,NW,UN,33,fachow,WREASH,z,,,,,,-0.024392361,-0.39452691,0,0,0,,0,306,306,397,1,,
,,,,,,,,,,,,,,,,,,5f12178ab3ab9d046595ce66,2020-11-27_15h06.28.980,lexical_decision_task_MP_exp2,2020.2.5,MacIntel,60,m,1,0.685465,,,,,,,,0.685465,1,,,,,,129,WORD,UN,16,stupid,MARVEL,m,,,,,,-0.024392361,-0.39452691,0,0,0,,0,307,307,188,1,,
,,,,,,,,,,,,,,,,,,5f12178ab3ab9d046595ce66,2020-11-27_15h06.28.980,lexical_decision_task_MP_exp2,2020.2.5,MacIntel,60,m,1,0.50554,,,,,,,,0.50554,1,,,,,,146,WORD,UN,16,garlic,COUPLE,m,,,,,,-0.024392361,-0.39452691,0,0,0,,0,308,308,205,1,,
,,,,,,,,,,,,,,,,,,5f12178ab3ab9d046595ce66,2020-11-27_15h06.28.980,lexical_decision_task_MP_exp2,2020.2.5,MacIntel,60,z,1,0.616115,,,,,,,,0.616115,1,,,,,,328,NW,UN,33,yarike,BROAKE,z,,,,,,-0.024392361,-0.39452691,0,0,0,,0,309,309,387,1,,
,,,,,,,,,,,,,,,,,,5f12178ab3ab9d046595ce66,2020-11-27_15h06.28.980,lexical_decision_task_MP_exp2,2020.2.5,MacIntel,60,m,1,0.589435,,,,,,,,0.589435,1,,,,,,161,WORD,UN,16,candle,PASTOR,m,,,,,,-0.024392361,-0.39452691,0,0,0,,0,310,310,220,1,,
,,,,,,,,,,,,,,,,,,5f12178ab3ab9d046595ce66,2020-11-27_15h06.28.980,lexical_decision_task_MP_exp2,2020.2.5,MacIntel,60,m,0,0.623215,,,,,,,,0.623215,0,,,,,,384,NW,UN,16,injore,GUESCO,z,,,,,,-0.024392361,-0.39452691,0,0,0,,0,311,311,443,1,,
,,,,,,,,,,,,,,,,,,5f12178ab3ab9d046595ce66,2020-11-27_15h06.28.980,lexical_decision_task_MP_exp2,2020.2.5,MacIntel,60,z,1,0.87463,,,,,,,,0.87463,1,,,,,,302,NW,UN,33,fiream,MILUER,z,,,,,,-0.024392361,-0.39452691,0,0,0,,0,312,312,361,1,,
,,,,,,,,,,,,,,,,,,5f12178ab3ab9d046595ce66,2020-11-27_15h06.28.980,lexical_decision_task_MP_exp2,2020.2.5,MacIntel,60,z,1,0.88276,,,,,,,,0.88276,1,,,,,,353,NW,UN,33,virlex,CLUREY,z,,,,,,-0.024392361,-0.39452691,0,0,0,,0,313,313,412,1,,
,,,,,,,,,,,,,,,,,,5f12178ab3ab9d046595ce66,2020-11-27_15h06.28.980,lexical_decision_task_MP_exp2,2020.2.5,MacIntel,60,z,1,0.718055,,,,,,,,0.718055,1,,,,,,316,NW,UN,33,worbal,SCREGM,z,,,,,,-0.024392361,-0.39452691,0,0,0,,0,314,314,375,1,,
,,,,,,,,,,,,,,,,,,5f12178ab3ab9d046595ce66,2020-11-27_15h06.28.980,lexical_decision_task_MP_exp2,2020.2.5,MacIntel,60,z,1,0.61877,,,,,,,,0.61877,1,,,,,,310,NW,UN,33,sproly,DANIET,z,,,,,,-0.024392361,-0.39452691,0,0,0,,0,315,315,369,1,,
,,,,,,,,,,,,,,,,,,5f12178ab3ab9d046595ce66,2020-11-27_15h06.28.980,lexical_decision_task_MP_exp2,2020.2.5,MacIntel,60,z,0,0.93658,,,,,,,,0.93658,0,,,,,,128,WORD,UN,16,marvel,SENIOR,m,,,,,,-0.024392361,-0.39452691,0,0,0,,0,316,316,187,1,,
,,,,,,,,,,,,,,,,,,5f12178ab3ab9d046595ce66,2020-11-27_15h06.28.980,lexical_decision_task_MP_exp2,2020.2.5,MacIntel,60,m,1,0.847835,,,,,,,,0.847835,1,,,,,,131,WORD,UN,16,strong,QUENCH,m,,,,,,-0.024392361,-0.39452691,0,0,0,,0,317,317,190,1,,
,,,,,,,,,,,,,,,,,,5f12178ab3ab9d046595ce66,2020-11-27_15h06.28.980,lexical_decision_task_MP_exp2,2020.2.5,MacIntel,60,z,1,0.75814,,,,,,,,0.75814,1,,,,,,369,NW,UN,16,sleact,WRONCH,z,,,,,,-0.024392361,-0.39452691,0,0,0,,0,318,318,428,1,,
,,,,,,,,,,,,,,,,,,5f12178ab3ab9d046595ce66,2020-11-27_15h06.28.980,lexical_decision_task_MP_exp2,2020.2.5,MacIntel,60,z,1,0.786835,,,,,,,,0.786835,1,,,,,,360,NW,UN,33,fainch,DESORY,z,,,,,,-0.024392361,-0.39452691,0,0,0,,0,319,319,419,1,,
,,,,,,,,,,,,,,,,,,5f12178ab3ab9d046595ce66,2020-11-27_15h06.28.980,lexical_decision_task_MP_exp2,2020.2.5,MacIntel,60,m,1,0.605965,,,,,,,,0.605965,1,,,,,,126,WORD,UN,16,castle,ENOUGH,m,,,,,,-0.024392361,-0.39452691,0,0,0,,0,320,320,185,1,,
,,,,,,,,,,,,,,,,,,5f12178ab3ab9d046595ce66,2020-11-27_15h06.28.980,lexical_decision_task_MP_exp2,2020.2.5,MacIntel,60,m,1,0.566165,,,,,,,,0.566165,1,,,,,,193,WORD,"ID",33,object,OBJECT,m,,,,,,-0.024392361,-0.39452691,0,0,0,,0,321,321,12,1,,
,,,,,,,,,,,,,,,,,,5f12178ab3ab9d046595ce66,2020-11-27_15h06.28.980,lexical_decision_task_MP_exp2,2020.2.5,MacIntel,60,z,1,0.648805,,,,,,,,0.648805,1,,,,,,323,NW,UN,33,steikh,ROSAIL,z,,,,,,-0.024392361,-0.39452691,0,0,0,,0,322,322,382,1,,
,,,,,,,,,,,,,,,,,,5f12178ab3ab9d046595ce66,2020-11-27_15h06.28.980,lexical_decision_task_MP_exp2,2020.2.5,MacIntel,60,z,0,0.738135,,,,,,,,0.738135,0,,,,,,22,WORD,"ID",16,jockey,JOCKEY,m,,,,,,-0.024392361,-0.39452691,0,0,0,,0,323,323,81,1,,
,,,,,,,,,,,,,,,,,,5f12178ab3ab9d046595ce66,2020-11-27_15h06.28.980,lexical_decision_task_MP_exp2,2020.2.5,MacIntel,60,m,1,0.682965,,,,,,,,0.682965,1,,,,,,54,WORD,"ID",16,ramble,RAMBLE,m,,,,,,-0.024392361,-0.39452691,0,0,0,,0,324,324,113,1,,
,,,,,,,,,,,,,,,,,,5f12178ab3ab9d046595ce66,2020-11-27_15h06.28.980,lexical_decision_task_MP_exp2,2020.2.5,MacIntel,60,z,1,0.533345,,,,,,,,0.533345,1,,,,,,439,NW,"ID",33,limpor,LIMPOR,z,,,,,,-0.024392361,-0.39452691,0,0,0,,0,325,325,258,1,,
,,,,,,,,,,,,,,,,,,5f12178ab3ab9d046595ce66,2020-11-27_15h06.28.980,lexical_decision_task_MP_exp2,2020.2.5,MacIntel,60,z,1,0.648165,,,,,,,,0.648165,1,,,,,,397,NW,UN,16,blunde,CAMBLE,z,,,,,,-0.024392361,-0.39452691,0,0,0,,0,326,326,456,1,,
,,,,,,,,,,,,,,,,,,5f12178ab3ab9d046595ce66,2020-11-27_15h06.28.980,lexical_decision_task_MP_exp2,2020.2.5,MacIntel,60,z,1,0.49428,,,,,,,,0.49428,1,,,,,,255,NW,"ID",16,apight,APIGHT,z,,,,,,-0.024392361,-0.39452691,0,0,0,,0,327,327,314,1,,
,,,,,,,,,,,,,,,,,,5f12178ab3ab9d046595ce66,2020-11-27_15h06.28.980,lexical_decision_task_MP_exp2,2020.2.5,MacIntel,60,m,1,0.64137,,,,,,,,0.64137,1,,,,,,180,WORD,UN,16,thrive,SILENT,m,,,,,,-0.024392361,-0.39452691,0,0,0,,0,328,328,239,1,,
,,,,,,,,,,,,,,,,,,5f12178ab3ab9d046595ce66,2020-11-27_15h06.28.980,lexical_decision_task_MP_exp2,2020.2.5,MacIntel,60,z,1,0.61492,,,,,,,,0.61492,1,,,,,,272,NW,"ID",16,damilt,DAMILT,z,,,,,,-0.024392361,-0.39452691,0,0,0,,0,329,329,331,1,,
,,,,,,,,,,,,,,,,,,5f12178ab3ab9d046595ce66,2020-11-27_15h06.28.980,lexical_decision_task_MP_exp2,2020.2.5,MacIntel,60,z,1,0.53604,,,,,,,,0.53604,1,,,,,,445,NW,"ID",33,minkel,MINKEL,z,,,,,,-0.024392361,-0.39452691,0,0,0,,0,330,330,264,1,,
,,,,,,,,,,,,,,,,,,5f12178ab3ab9d046595ce66,2020-11-27_15h06.28.980,lexical_decision_task_MP_exp2,2020.2.5,MacIntel,60,m,1,0.7377,,,,,,,,0.7377,1,,,,,,206,WORD,"ID",33,tailor,TAILOR,m,,,,,,-0.024392361,-0.39452691,0,0,0,,0,331,331,25,1,,
,,,,,,,,,,,,,,,,,,5f12178ab3ab9d046595ce66,2020-11-27_15h06.28.980,lexical_decision_task_MP_exp2,2020.2.5,MacIntel,60,m,1,0.565965,,,,,,,,0.565965,1,,,,,,207,WORD,"ID",33,wreath,WREATH,m,,,,,,-0.024392361,-0.39452691,0,0,0,,0,332,332,26,1,,
,,,,,,,,,,,,,,,,,,5f12178ab3ab9d046595ce66,2020-11-27_15h06.28.980,lexical_decision_task_MP_exp2,2020.2.5,MacIntel,60,z,1,0.618845,,,,,,,,0.618845,1,,,,,,443,NW,"ID",33,dorsex,DORSEX,z,,,,,,-0.024392361,-0.39452691,0,0,0,,0,333,333,262,1,,
,,,,,,,,,,,,,,,,,,5f12178ab3ab9d046595ce66,2020-11-27_15h06.28.980,lexical_decision_task_MP_exp2,2020.2.5,MacIntel,60,z,0,0.58512,,,,,,,,0.58512,0,,,,,,20,WORD,"ID",16,breast,BREAST,m,,,,,,-0.024392361,-0.39452691,0,0,0,,0,334,334,79,1,,
,,,,,,,,,,,,,,,,,,5f12178ab3ab9d046595ce66,2020-11-27_15h06.28.980,lexical_decision_task_MP_exp2,2020.2.5,MacIntel,60,m,1,0.643175,,,,,,,,0.643175,1,,,,,,83,WORD,UN,33,mortal,RESULT,m,,,,,,-0.024392361,-0.39452691,0,0,0,,0,335,335,142,1,,
,,,,,,,,,,,,,,,,,,5f12178ab3ab9d046595ce66,2020-11-27_15h06.28.980,lexical_decision_task_MP_exp2,2020.2.5,MacIntel,60,z,1,0.656625,,,,,,,,0.656625,1,,,,,,392,NW,UN,16,ganous,ROUNCY,z,,,,,,-0.024392361,-0.39452691,0,0,0,,0,336,336,451,1,,
,,,,,,,,,,,,,,,,,,5f12178ab3ab9d046595ce66,2020-11-27_15h06.28.980,lexical_decision_task_MP_exp2,2020.2.5,MacIntel,60,z,1,0.69922,,,,,,,,0.69922,1,,,,,,378,NW,UN,16,auting,SHRILE,z,,,,,,-0.024392361,-0.39452691,0,0,0,,0,337,337,437,1,,
,,,,,,,,,,,,,,,,,,5f12178ab3ab9d046595ce66,2020-11-27_15h06.28.980,lexical_decision_task_MP_exp2,2020.2.5,MacIntel,60,m,1,0.63566,,,,,,,,0.63566,1,,,,,,222,WORD,"ID",33,hinder,HINDER,m,,,,,,-0.024392361,-0.39452691,0,0,0,,0,338,338,41,1,,
,,,,,,,,,,,,,,,,,,5f12178ab3ab9d046595ce66,2020-11-27_15h06.28.980,lexical_decision_task_MP_exp2,2020.2.5,MacIntel,60,z,1,0.64761,,,,,,,,0.64761,1,,,,,,317,NW,UN,33,reagly,WORBAL,z,,,,,,-0.024392361,-0.39452691,0,0,0,,0,339,339,376,1,,
,,,,,,,,,,,,,,,,,,5f12178ab3ab9d046595ce66,2020-11-27_15h06.28.980,lexical_decision_task_MP_exp2,2020.2.5,MacIntel,60,z,1,0.55059,,,,,,,,0.55059,1,,,,,,241,NW,"ID",16,smenco,SMENCO,z,,,,,,-0.024392361,-0.39452691,0,0,0,,0,340,340,300,1,,
,,,,,,,,,,,,,,,,,,5f12178ab3ab9d046595ce66,2020-11-27_15h06.28.980,lexical_decision_task_MP_exp2,2020.2.5,MacIntel,60,m,1,0.73466,,,,,,,,0.73466,1,,,,,,171,WORD,UN,16,patrol,DEPART,m,,,,,,-0.024392361,-0.39452691,0,0,0,,0,341,341,230,1,,
,,,,,,,,,,,,,,,,,,5f12178ab3ab9d046595ce66,2020-11-27_15h06.28.980,lexical_decision_task_MP_exp2,2020.2.5,MacIntel,60,m,1,0.565625,,,,,,,,0.565625,1,,,,,,84,WORD,UN,33,strand,MORTAL,m,,,,,,-0.024392361,-0.39452691,0,0,0,,0,342,342,143,1,,
,,,,,,,,,,,,,,,,,,5f12178ab3ab9d046595ce66,2020-11-27_15h06.28.980,lexical_decision_task_MP_exp2,2020.2.5,MacIntel,60,z,1,0.63419,,,,,,,,0.63419,1,,,,,,461,NW,"ID",33,justre,JUSTRE,z,,,,,,-0.024392361,-0.39452691,0,0,0,,0,343,343,280,1,,
,,,,,,,,,,,,,,,,,,5f12178ab3ab9d046595ce66,2020-11-27_15h06.28.980,lexical_decision_task_MP_exp2,2020.2.5,MacIntel,60,z,1,0.49877,,,,,,,,0.49877,1,,,,,,449,NW,"ID",33,brunge,BRUNGE,z,,,,,,-0.024392361,-0.39452691,0,0,0,,0,344,344,268,1,,
,,,,,,,,,,,,,,,,,,5f12178ab3ab9d046595ce66,2020-11-27_15h06.28.980,lexical_decision_task_MP_exp2,2020.2.5,MacIntel,60,z,1,0.552545,,,,,,,,0.552545,1,,,,,,304,NW,UN,33,forgle,CLUDIE,z,,,,,,-0.024392361,-0.39452691,0,0,0,,0,345,345,363,1,,
,,,,,,,,,,,,,,,,,,5f12178ab3ab9d046595ce66,2020-11-27_15h06.28.980,lexical_decision_task_MP_exp2,2020.2.5,MacIntel,60,m,1,0.631425,,,,,,,,0.631425,1,,,,,,205,WORD,"ID",33,lounge,LOUNGE,m,,,,,,-0.024392361,-0.39452691,0,0,0,,0,346,346,24,1,,
,,,,,,,,,,,,,,,,,,5f12178ab3ab9d046595ce66,2020-11-27_15h06.28.980,lexical_decision_task_MP_exp2,2020.2.5,MacIntel,60,z,1,0.48438,,,,,,,,0.48438,1,,,,,,283,NW,"ID",16,veralf,VERALF,z,,,,,,-0.024392361,-0.39452691,0,0,0,,0,347,347,342,1,,
,,,,,,,,,,,,,,,,,,5f12178ab3ab9d046595ce66,2020-11-27_15h06.28.980,lexical_decision_task_MP_exp2,2020.2.5,MacIntel,60,z,1,0.432175,,,,,,,,0.432175,1,,,,,,450,NW,"ID",33,phrect,PHRECT,z,,,,,,-0.024392361,-0.39452691,0,0,0,,0,348,348,269,1,,
,,,,,,,,,,,,,,,,,,5f12178ab3ab9d046595ce66,2020-11-27_15h06.28.980,lexical_decision_task_MP_exp2,2020.2.5,MacIntel,60,z,1,0.453905,,,,,,,,0.453905,1,,,,,,329,NW,UN,33,kensom,YARIKE,z,,,,,,-0.024392361,-0.39452691,0,0,0,,0,349,349,388,1,,
,,,,,,,,,,,,,,,,,,5f12178ab3ab9d046595ce66,2020-11-27_15h06.28.980,lexical_decision_task_MP_exp2,2020.2.5,MacIntel,60,z,1,0.44681,,,,,,,,0.44681,1,,,,,,419,NW,UN,16,gushop,SLOUNT,z,,,,,,-0.024392361,-0.39452691,0,0,0,,0,350,350,478,1,,
,,,,,,,,,,,,,,,,,,5f12178ab3ab9d046595ce66,2020-11-27_15h06.28.980,lexical_decision_task_MP_exp2,2020.2.5,MacIntel,60,z,0,0.40005,,,,,,,,0.40005,0,,,,,,122,WORD,UN,16,strike,LINGER,m,,,,,,-0.024392361,-0.39452691,0,0,0,,0,351,351,181,1,,
,,,,,,,,,,,,,,,,,,5f12178ab3ab9d046595ce66,2020-11-27_15h06.28.980,lexical_decision_task_MP_exp2,2020.2.5,MacIntel,60,z,1,0.59082,,,,,,,,0.59082,1,,,,,,457,NW,"ID",33,wanigh,WANIGH,z,,,,,,-0.024392361,-0.39452691,0,0,0,,0,352,352,276,1,,
,,,,,,,,,,,,,,,,,,5f12178ab3ab9d046595ce66,2020-11-27_15h06.28.980,lexical_decision_task_MP_exp2,2020.2.5,MacIntel,60,z,1,0.91989,,,,,,,,0.91989,1,,,,,,373,NW,UN,16,sliant,BIGENT,z,,,,,,-0.024392361,-0.39452691,0,0,0,,0,353,353,432,1,,
,,,,,,,,,,,,,,,,,,5f12178ab3ab9d046595ce66,2020-11-27_15h06.28.980,lexical_decision_task_MP_exp2,2020.2.5,MacIntel,60,z,1,0.636985,,,,,,,,0.636985,1,,,,,,298,NW,"ID",16,piergy,PIERGY,z,,,,,,-0.024392361,-0.39452691,0,0,0,,0,354,354,357,1,,
,,,,,,,,,,,,,,,,,,5f12178ab3ab9d046595ce66,2020-11-27_15h06.28.980,lexical_decision_task_MP_exp2,2020.2.5,MacIntel,60,z,1,0.567635,,,,,,,,0.567635,1,,,,,,417,NW,UN,16,suidle,EAROUD,z,,,,,,-0.024392361,-0.39452691,0,0,0,,0,355,355,476,1,,
,,,,,,,,,,,,,,,,,,5f12178ab3ab9d046595ce66,2020-11-27_15h06.28.980,lexical_decision_task_MP_exp2,2020.2.5,MacIntel,60,m,1,0.53488,,,,,,,,0.53488,1,,,,,,124,WORD,UN,16,nickel,BLOUSE,m,,,,,,-0.024392361,-0.39452691,0,0,0,,0,356,356,183,1,,
,,,,,,,,,,,,,,,,,,5f12178ab3ab9d046595ce66,2020-11-27_15h06.28.980,lexical_decision_task_MP_exp2,2020.2.5,MacIntel,60,m,1,0.617785,,,,,,,,0.617785,1,,,,,,65,WORD,UN,33,gospel,SYMBOL,m,,,,,,-0.024392361,-0.39452691,0,0,0,,0,357,357,124,1,,
,,,,,,,,,,,,,,,,,,5f12178ab3ab9d046595ce66,2020-11-27_15h06.28.980,lexical_decision_task_MP_exp2,2020.2.5,MacIntel,60,z,1,0.66503,,,,,,,,0.66503,1,,,,,,424,NW,"ID",33,praile,PRAILE,z,,,,,,-0.024392361,-0.39452691,0,0,0,,0,358,358,243,1,,
,,,,,,,,,,,,,,,,,,5f12178ab3ab9d046595ce66,2020-11-27_15h06.28.980,lexical_decision_task_MP_exp2,2020.2.5,MacIntel,60,m,1,0.618515,,,,,,,,0.618515,1,,,,,,225,WORD,"ID",33,vulgar,VULGAR,m,,,,,,-0.024392361,-0.39452691,0,0,0,,0,359,359,44,1,,
,,,,,,,,,,,,,,,,,,5f12178ab3ab9d046595ce66,2020-11-27_15h06.28.980,lexical_decision_task_MP_exp2,2020.2.5,MacIntel,60,z,1,0.78391,,,,,,,,0.78391,1,,,,,,355,NW,UN,33,othnis,ZINGLY,z,,,,,,-0.024392361,-0.39452691,0,0,0,,0,360,360,414,1,,
,,,,,,,,,,,,,,,,,,5f12178ab3ab9d046595ce66,2020-11-27_15h06.28.980,lexical_decision_task_MP_exp2,2020.2.5,MacIntel,60,m,1,0.61677,,,,,,,,0.61677,1,,,,,,88,WORD,UN,33,permit,HUNGER,m,,,,,,-0.024392361,-0.39452691,0,0,0,,0,361,361,147,1,,
,,,,,,,,,,,,,,,,,,5f12178ab3ab9d046595ce66,2020-11-27_15h06.28.980,lexical_decision_task_MP_exp2,2020.2.5,MacIntel,60,m,1,0.76832,,,,,,,,0.76832,1,,,,,,177,WORD,UN,16,inform,ADVENT,m,,,,,,-0.024392361,-0.39452691,0,0,0,space,0,362,362,236,1,,61.601415
,,,,,,,,,,,,,,,,,,5f12178ab3ab9d046595ce66,2020-11-27_15h06.28.980,lexical_decision_task_MP_exp2,2020.2.5,MacIntel,60,m,1,0.498915,,,,,,,,0.498915,1,,,,,,136,WORD,UN,16,finger,BLEACH,m,,,,,,-0.024392361,-0.39452691,0,0,0,,0,363,363,195,1,,
,,,,,,,,,,,,,,,,,,5f12178ab3ab9d046595ce66,2020-11-27_15h06.28.980,lexical_decision_task_MP_exp2,2020.2.5,MacIntel,60,m,1,0.482485,,,,,,,,0.482485,1,,,,,,94,WORD,UN,33,thread,TRAVEL,m,,,,,,-0.024392361,-0.39452691,0,0,0,,0,364,364,153,1,,
,,,,,,,,,,,,,,,,,,5f12178ab3ab9d046595ce66,2020-11-27_15h06.28.980,lexical_decision_task_MP_exp2,2020.2.5,MacIntel,60,m,0,0.482545,,,,,,,,0.482545,0,,,,,,393,NW,UN,16,spaqux,GANOUS,z,,,,,,-0.024392361,-0.39452691,0,0,0,,0,365,365,452,1,,
,,,,,,,,,,,,,,,,,,5f12178ab3ab9d046595ce66,2020-11-27_15h06.28.980,lexical_decision_task_MP_exp2,2020.2.5,MacIntel,60,m,1,0.48256,,,,,,,,0.48256,1,,,,,,53,WORD,"ID",16,police,POLICE,m,,,,,,-0.024392361,-0.39452691,0,0,0,,0,366,366,112,1,,
,,,,,,,,,,,,,,,,,,5f12178ab3ab9d046595ce66,2020-11-27_15h06.28.980,lexical_decision_task_MP_exp2,2020.2.5,MacIntel,60,m,1,0.559705,,,,,,,,0.559705,1,,,,,,145,WORD,UN,16,couple,PARISH,m,,,,,,-0.024392361,-0.39452691,0,0,0,,0,367,367,204,1,,
,,,,,,,,,,,,,,,,,,5f12178ab3ab9d046595ce66,2020-11-27_15h06.28.980,lexical_decision_task_MP_exp2,2020.2.5,MacIntel,60,m,1,0.5204,,,,,,,,0.5204,1,,,,,,73,WORD,UN,33,plaque,SOURCE,m,,,,,,-0.024392361,-0.39452691,0,0,0,,0,368,368,132,1,,
,,,,,,,,,,,,,,,,,,5f12178ab3ab9d046595ce66,2020-11-27_15h06.28.980,lexical_decision_task_MP_exp2,2020.2.5,MacIntel,60,z,1,0.566575,,,,,,,,0.566575,1,,,,,,411,NW,UN,16,jiluer,ORCHIN,z,,,,,,-0.024392361,-0.39452691,0,0,0,,0,369,369,470,1,,
,,,,,,,,,,,,,,,,,,5f12178ab3ab9d046595ce66,2020-11-27_15h06.28.980,lexical_decision_task_MP_exp2,2020.2.5,MacIntel,60,z,1,0.666605,,,,,,,,0.666605,1,,,,,,468,NW,"ID",33,wictor,WICTOR,z,,,,,,-0.024392361,-0.39452691,0,0,0,,0,370,370,287,1,,
,,,,,,,,,,,,,,,,,,5f12178ab3ab9d046595ce66,2020-11-27_15h06.28.980,lexical_decision_task_MP_exp2,2020.2.5,MacIntel,60,z,0,0.54897,,,,,,,,0.54897,0,,,,,,66,WORD,UN,33,policy,GOSPEL,m,,,,,,-0.024392361,-0.39452691,0,0,0,,0,371,371,125,1,,
,,,,,,,,,,,,,,,,,,5f12178ab3ab9d046595ce66,2020-11-27_15h06.28.980,lexical_decision_task_MP_exp2,2020.2.5,MacIntel,60,z,1,0.66776,,,,,,,,0.66776,1,,,,,,407,NW,UN,16,hurnia,SUIVER,z,,,,,,-0.024392361,-0.39452691,0,0,0,,0,372,372,466,1,,
,,,,,,,,,,,,,,,,,,5f12178ab3ab9d046595ce66,2020-11-27_15h06.28.980,lexical_decision_task_MP_exp2,2020.2.5,MacIntel,60,m,1,0.548865,,,,,,,,0.548865,1,,,,,,96,WORD,UN,33,client,IGNORE,m,,,,,,-0.024392361,-0.39452691,0,0,0,,0,373,373,155,1,,
,,,,,,,,,,,,,,,,,,5f12178ab3ab9d046595ce66,2020-11-27_15h06.28.980,lexical_decision_task_MP_exp2,2020.2.5,MacIntel,60,m,1,0.455145,,,,,,,,0.455145,1,,,,,,44,WORD,"ID",16,danger,DANGER,m,,,,,,-0.024392361,-0.39452691,0,0,0,,0,374,374,103,1,,
,,,,,,,,,,,,,,,,,,5f12178ab3ab9d046595ce66,2020-11-27_15h06.28.980,lexical_decision_task_MP_exp2,2020.2.5,MacIntel,60,z,0,0.55714,,,,,,,,0.55714,0,,,,,,184,WORD,"ID",33,sleazy,SLEAZY,m,,,,,,-0.024392361,-0.39452691,0,0,0,,0,375,375,3,1,,
,,,,,,,,,,,,,,,,,,5f12178ab3ab9d046595ce66,2020-11-27_15h06.28.980,lexical_decision_task_MP_exp2,2020.2.5,MacIntel,60,m,1,0.52572,,,,,,,,0.52572,1,,,,,,138,WORD,UN,16,debris,MELODY,m,,,,,,-0.024392361,-0.39452691,0,0,0,,0,376,376,197,1,,
,,,,,,,,,,,,,,,,,,5f12178ab3ab9d046595ce66,2020-11-27_15h06.28.980,lexical_decision_task_MP_exp2,2020.2.5,MacIntel,60,z,1,0.67958,,,,,,,,0.67958,1,,,,,,286,NW,"ID",16,reldon,RELDON,z,,,,,,-0.024392361,-0.39452691,0,0,0,,0,377,377,345,1,,
,,,,,,,,,,,,,,,,,,5f12178ab3ab9d046595ce66,2020-11-27_15h06.28.980,lexical_decision_task_MP_exp2,2020.2.5,MacIntel,60,m,0,0.44194,,,,,,,,0.44194,0,,,,,,370,NW,UN,16,geiloy,SLEACT,z,,,,,,-0.024392361,-0.39452691,0,0,0,,0,378,378,429,1,,
,,,,,,,,,,,,,,,,,,5f12178ab3ab9d046595ce66,2020-11-27_15h06.28.980,lexical_decision_task_MP_exp2,2020.2.5,MacIntel,60,m,1,0.480585,,,,,,,,0.480585,1,,,,,,194,WORD,"ID",33,absent,ABSENT,m,,,,,,-0.024392361,-0.39452691,0,0,0,,0,379,379,13,1,,
,,,,,,,,,,,,,,,,,,5f12178ab3ab9d046595ce66,2020-11-27_15h06.28.980,lexical_decision_task_MP_exp2,2020.2.5,MacIntel,60,m,1,0.55002,,,,,,,,0.55002,1,,,,,,119,WORD,UN,33,strain,SPIDER,m,,,,,,-0.024392361,-0.39452691,0,0,0,,0,380,380,178,1,,
,,,,,,,,,,,,,,,,,,5f12178ab3ab9d046595ce66,2020-11-27_15h06.28.980,lexical_decision_task_MP_exp2,2020.2.5,MacIntel,60,m,1,0.68001,,,,,,,,0.68001,1,,,,,,23,WORD,"ID",16,wealth,WEALTH,m,,,,,,-0.024392361,-0.39452691,0,0,0,,0,381,381,82,1,,
,,,,,,,,,,,,,,,,,,5f12178ab3ab9d046595ce66,2020-11-27_15h06.28.980,lexical_decision_task_MP_exp2,2020.2.5,MacIntel,60,m,1,0.54616,,,,,,,,0.54616,1,,,,,,32,WORD,"ID",16,buckle,BUCKLE,m,,,,,,-0.024392361,-0.39452691,0,0,0,,0,382,382,91,1,,
,,,,,,,,,,,,,,,,,,5f12178ab3ab9d046595ce66,2020-11-27_15h06.28.980,lexical_decision_task_MP_exp2,2020.2.5,MacIntel,60,m,1,0.368045,,,,,,,,0.368045,1,,,,,,86,WORD,UN,33,filter,RODENT,m,,,,,,-0.024392361,-0.39452691,0,0,0,,0,383,383,145,1,,
,,,,,,,,,,,,,,,,,,5f12178ab3ab9d046595ce66,2020-11-27_15h06.28.980,lexical_decision_task_MP_exp2,2020.2.5,MacIntel,60,m,0,0.66964,,,,,,,,0.66964,0,,,,,,244,NW,"ID",16,eatric,EATRIC,z,,,,,,-0.024392361,-0.39452691,0,0,0,,0,384,384,303,1,,
,,,,,,,,,,,,,,,,,,5f12178ab3ab9d046595ce66,2020-11-27_15h06.28.980,lexical_decision_task_MP_exp2,2020.2.5,MacIntel,60,m,0,0.499445,,,,,,,,0.499445,0,,,,,,462,NW,"ID",33,absult,ABSULT,z,,,,,,-0.024392361,-0.39452691,0,0,0,,0,385,385,281,1,,
,,,,,,,,,,,,,,,,,,5f12178ab3ab9d046595ce66,2020-11-27_15h06.28.980,lexical_decision_task_MP_exp2,2020.2.5,MacIntel,60,m,1,0.63612,,,,,,,,0.63612,1,,,,,,27,WORD,"ID",16,scream,SCREAM,m,,,,,,-0.024392361,-0.39452691,0,0,0,,0,386,386,86,1,,
,,,,,,,,,,,,,,,,,,5f12178ab3ab9d046595ce66,2020-11-27_15h06.28.980,lexical_decision_task_MP_exp2,2020.2.5,MacIntel,60,z,1,0.7215,,,,,,,,0.7215,1,,,,,,291,NW,"ID",16,pretch,PRETCH,z,,,,,,-0.024392361,-0.39452691,0,0,0,,0,387,387,350,1,,
