counterbalancing_condition,instr_done_keyboard.keys,instr_done_touch.x,instr_done_touch.y,instr_done_touch.leftButton,instr_done_touch.midButton,instr_done_touch.rightButton,instr_done_touch.clicked_name,instruction_pages.thisRepN,instruction_pages.thisTrialN,instruction_pages.thisN,instruction_pages.thisIndex,instruction_pages.ran,pageN,phase,instruct_text,has_image,instruct_image,participant,date,expName,psychopyVersion,OS,frameRate,instr_done_keyboard.rt,response.keys,response.corr,response.rt,touch_resp.x,touch_resp.y,touch_resp.leftButton,touch_resp.midButton,touch_resp.rightButton,touch_resp.time,touch_resp.clicked_name,rt,corr,practice_trials.thisRepN,practice_trials.thisTrialN,practice_trials.thisN,practice_trials.thisIndex,practice_trials.ran,TrialID,StimulusType,Condition,PrimeDuration,Prime,Target,corrAns,end_of_practice_trials_pages.thisRepN,end_of_practice_trials_pages.thisTrialN,end_of_practice_trials_pages.thisN,end_of_practice_trials_pages.thisIndex,end_of_practice_trials_pages.ran,break_done_touch.x,break_done_touch.y,break_done_touch.leftButton,break_done_touch.midButton,break_done_touch.rightButton,break_done_keyboard.keys,experiment_trials.thisRepN,experiment_trials.thisTrialN,experiment_trials.thisN,experiment_trials.thisIndex,experiment_trials.ran,break_done_keyboard.rt
1,,0.069444444,-0.387962963,1,0,0,instr_done_button,0,0,0,0,1,1,instructions,"INSTRUCTIONS
At the start of each trial, look at the hash marks (######) in the center of the screen. After a moment, a string of letters will appear. Your task is to indicate if the letter string forms a word or not (i.e., if it is a nonword). For example, AUTHOR is a word while AUTHON is a nonword.

Press the space bar or touch the button below to continue.",0,,5f12a59abbb7d320699d062f,2020-11-26_15h57.40.166,lexical_decision_task_MP_exp2,2020.2.5,Win32,60,,,,,,,,,,,,,,,,,,,,,,,,,,,,,,,,,,,,,,,,,,
,space,-0.046296296,-0.150925926,0,0,0,,0,1,1,1,1,2,instructions,"If your device has a keyboard, press the 'Z' key for nonwords and the 'M' key for words.





Press the space bar or touch the button below to continue.",1,keyboard-example.gif,5f12a59abbb7d320699d062f,2020-11-26_15h57.40.166,lexical_decision_task_MP_exp2,2020.2.5,Win32,60,13.46208,,,,,,,,,,,,,,,,,,,,,,,,,,,,,,,,,,,,,,,,,
,space,-0.046296296,-0.150925926,0,0,0,,0,2,2,2,1,3,instructions,"If you are using a touchscreen only device, use the buttons on the screen. Do not use the mouse.





Press the space bar or touch the button below to continue.",1,touchscreen-example.gif,5f12a59abbb7d320699d062f,2020-11-26_15h57.40.166,lexical_decision_task_MP_exp2,2020.2.5,Win32,60,11.34444,,,,,,,,,,,,,,,,,,,,,,,,,,,,,,,,,,,,,,,,,
,space,-0.046296296,-0.150925926,0,0,0,,0,3,3,3,1,4,instructions,"It is very important that you respond as quickly and accurately as possible, as each letter string will only be on the screen for two seconds. If you do not respond within this time, the message 'Too slow!' will be displayed and the experiment will progress to the next letter string. The first 20 trials will be practice trials and you will receive feedback on your answers. 

Press the space bar or touch the button below to start the practice trials.",0,,5f12a59abbb7d320699d062f,2020-11-26_15h57.40.166,lexical_decision_task_MP_exp2,2020.2.5,Win32,60,7.385305,,,,,,,,,,,,,,,,,,,,,,,,,,,,,,,,,,,,,,,,,
,,,,,,,,,,,,,,,,,,5f12a59abbb7d320699d062f,2020-11-26_15h57.40.166,lexical_decision_task_MP_exp2,2020.2.5,Win32,60,,z,0,0.69734,,,,,,,,0.69734,0,0,0,0,6,1,1007,WORD,UN,16,tropic,ZOMBIE,m,,,,,,,,,,,,,,,,,
,,,,,,,,,,,,,,,,,,5f12a59abbb7d320699d062f,2020-11-26_15h57.40.166,lexical_decision_task_MP_exp2,2020.2.5,Win32,60,,m,1,0.629495,,,,,,,,0.629495,1,0,1,1,3,1,1004,WORD,"ID",16,matrix,MATRIX,m,,,,,,,,,,,,,,,,,
,,,,,,,,,,,,,,,,,,5f12a59abbb7d320699d062f,2020-11-26_15h57.40.166,lexical_decision_task_MP_exp2,2020.2.5,Win32,60,,z,1,0.776825,,,,,,,,0.776825,1,0,2,2,10,1,1011,NW,"ID",16,inlade,INLADE,z,,,,,,,,,,,,,,,,,
,,,,,,,,,,,,,,,,,,5f12a59abbb7d320699d062f,2020-11-26_15h57.40.166,lexical_decision_task_MP_exp2,2020.2.5,Win32,60,,m,1,0.76974,,,,,,,,0.76974,1,0,3,3,4,1,1005,WORD,UN,33,abound,SQUEAK,m,,,,,,,,,,,,,,,,,
,,,,,,,,,,,,,,,,,,5f12a59abbb7d320699d062f,2020-11-26_15h57.40.166,lexical_decision_task_MP_exp2,2020.2.5,Win32,60,,m,1,0.68887,,,,,,,,0.68887,1,0,4,4,1,1,1002,WORD,"ID",33,adjust,ADJUST,m,,,,,,,,,,,,,,,,,
,,,,,,,,,,,,,,,,,,5f12a59abbb7d320699d062f,2020-11-26_15h57.40.166,lexical_decision_task_MP_exp2,2020.2.5,Win32,60,,z,1,0.76771,,,,,,,,0.76771,1,0,5,5,13,1,1014,NW,UN,33,winfer,ROUPET,z,,,,,,,,,,,,,,,,,
,,,,,,,,,,,,,,,,,,5f12a59abbb7d320699d062f,2020-11-26_15h57.40.166,lexical_decision_task_MP_exp2,2020.2.5,Win32,60,,z,1,0.813505,,,,,,,,0.813505,1,0,6,6,9,1,1010,NW,"ID",33,fariny,FARINY,z,,,,,,,,,,,,,,,,,
,,,,,,,,,,,,,,,,,,5f12a59abbb7d320699d062f,2020-11-26_15h57.40.166,lexical_decision_task_MP_exp2,2020.2.5,Win32,60,,z,1,0.83002,,,,,,,,0.83002,1,0,7,7,8,1,1009,NW,"ID",33,aslert,ASLERT,z,,,,,,,,,,,,,,,,,
,,,,,,,,,,,,,,,,,,5f12a59abbb7d320699d062f,2020-11-26_15h57.40.166,lexical_decision_task_MP_exp2,2020.2.5,Win32,60,,z,1,0.689005,,,,,,,,0.689005,1,0,8,8,12,1,1013,NW,UN,33,adveil,SPRINY,z,,,,,,,,,,,,,,,,,
,,,,,,,,,,,,,,,,,,5f12a59abbb7d320699d062f,2020-11-26_15h57.40.166,lexical_decision_task_MP_exp2,2020.2.5,Win32,60,,z,1,0.92059,,,,,,,,0.92059,1,0,9,9,14,1,1015,NW,UN,16,miaber,THRALE,z,,,,,,,,,,,,,,,,,
,,,,,,,,,,,,,,,,,,5f12a59abbb7d320699d062f,2020-11-26_15h57.40.166,lexical_decision_task_MP_exp2,2020.2.5,Win32,60,,m,1,0.57507,,,,,,,,0.57507,1,0,10,10,5,1,1006,WORD,UN,33,frenzy,OBTAIN,m,,,,,,,,,,,,,,,,,
,,,,,,,,,,,,,,,,,,5f12a59abbb7d320699d062f,2020-11-26_15h57.40.166,lexical_decision_task_MP_exp2,2020.2.5,Win32,60,,m,1,0.571525,,,,,,,,0.571525,1,0,11,11,0,1,1001,WORD,"ID",33,utopia,UTOPIA,m,,,,,,,,,,,,,,,,,
,,,,,,,,,,,,,,,,,,5f12a59abbb7d320699d062f,2020-11-26_15h57.40.166,lexical_decision_task_MP_exp2,2020.2.5,Win32,60,,m,1,0.6355,,,,,,,,0.6355,1,0,12,12,2,1,1003,WORD,"ID",16,almond,ALMOND,m,,,,,,,,,,,,,,,,,
,,,,,,,,,,,,,,,,,,5f12a59abbb7d320699d062f,2020-11-26_15h57.40.166,lexical_decision_task_MP_exp2,2020.2.5,Win32,60,,z,1,0.80718,,,,,,,,0.80718,1,0,13,13,11,1,1012,NW,"ID",16,rashet,RASHET,z,,,,,,,,,,,,,,,,,
,,,,,,,,,,,,,,,,,,5f12a59abbb7d320699d062f,2020-11-26_15h57.40.166,lexical_decision_task_MP_exp2,2020.2.5,Win32,60,,m,1,0.587675,,,,,,,,0.587675,1,0,14,14,7,1,1008,WORD,UN,16,hurdle,VOLUME,m,,,,,,,,,,,,,,,,,
,,,,,,,,,,,,,,,,,,5f12a59abbb7d320699d062f,2020-11-26_15h57.40.166,lexical_decision_task_MP_exp2,2020.2.5,Win32,60,,z,1,0.95851,,,,,,,,0.95851,1,0,15,15,15,1,1016,NW,UN,16,mushed,WHAISE,z,,,,,,,,,,,,,,,,,
,space,0.141666667,-0.217592593,0,0,0,,,,,,,1,end_of_practice,"You have completed the practice trials. During the experimental trials, you will not receive feedback, but it is very important that you respond as quickly and accurately as possible. 
Before you begin, please ensure that you are in a comfortable and quiet location and will not be disturbed for about 15 minutes, as we cannot use your data if you do not complete all the trials. 
There will be opportunities to take breaks at regular intervals during the experiment. When you are ready to start the experimental trials, please press space or touch the button below.",,,5f12a59abbb7d320699d062f,2020-11-26_15h57.40.166,lexical_decision_task_MP_exp2,2020.2.5,Win32,60,13.9158,,,,,,,,,,,,,,,,,,,,,,,,,0,0,0,0,1,,,,,,,,,,,,
,,,,,,,,,,,,,,,,,,5f12a59abbb7d320699d062f,2020-11-26_15h57.40.166,lexical_decision_task_MP_exp2,2020.2.5,Win32,60,,m,1,0.63461,,,,,,,,0.63461,1,,,,,,16,WORD,"ID",33,faucet,FAUCET,m,,,,,,0.141666667,-0.217592593,0,0,0,,0,0,0,15,1,
,,,,,,,,,,,,,,,,,,5f12a59abbb7d320699d062f,2020-11-26_15h57.40.166,lexical_decision_task_MP_exp2,2020.2.5,Win32,60,,m,1,0.5006,,,,,,,,0.5006,1,,,,,,157,WORD,UN,33,island,DRAGON,m,,,,,,0.141666667,-0.217592593,0,0,0,,0,1,1,156,1,
,,,,,,,,,,,,,,,,,,5f12a59abbb7d320699d062f,2020-11-26_15h57.40.166,lexical_decision_task_MP_exp2,2020.2.5,Win32,60,,z,1,0.74406,,,,,,,,0.74406,1,,,,,,392,NW,UN,33,ganous,ROUNCY,z,,,,,,0.141666667,-0.217592593,0,0,0,,0,2,2,391,1,
,,,,,,,,,,,,,,,,,,5f12a59abbb7d320699d062f,2020-11-26_15h57.40.166,lexical_decision_task_MP_exp2,2020.2.5,Win32,60,,z,1,0.67774,,,,,,,,0.67774,1,,,,,,351,NW,"ID",16,tiesch,TIESCH,z,,,,,,0.141666667,-0.217592593,0,0,0,,0,3,3,350,1,
,,,,,,,,,,,,,,,,,,5f12a59abbb7d320699d062f,2020-11-26_15h57.40.166,lexical_decision_task_MP_exp2,2020.2.5,Win32,60,,m,1,0.559175,,,,,,,,0.559175,1,,,,,,36,WORD,"ID",33,vanish,VANISH,m,,,,,,0.141666667,-0.217592593,0,0,0,,0,4,4,35,1,
,,,,,,,,,,,,,,,,,,5f12a59abbb7d320699d062f,2020-11-26_15h57.40.166,lexical_decision_task_MP_exp2,2020.2.5,Win32,60,,z,1,0.754445,,,,,,,,0.754445,1,,,,,,422,NW,UN,16,streld,ALCOUD,z,,,,,,0.141666667,-0.217592593,0,0,0,,0,5,5,421,1,
,,,,,,,,,,,,,,,,,,5f12a59abbb7d320699d062f,2020-11-26_15h57.40.166,lexical_decision_task_MP_exp2,2020.2.5,Win32,60,,m,1,0.605695,,,,,,,,0.605695,1,,,,,,203,WORD,UN,16,burden,PHRASE,m,,,,,,0.141666667,-0.217592593,0,0,0,,0,6,6,202,1,
,,,,,,,,,,,,,,,,,,5f12a59abbb7d320699d062f,2020-11-26_15h57.40.166,lexical_decision_task_MP_exp2,2020.2.5,Win32,60,,m,1,0.528925,,,,,,,,0.528925,1,,,,,,191,WORD,UN,16,absent,STABLE,m,,,,,,0.141666667,-0.217592593,0,0,0,,0,7,7,190,1,
,,,,,,,,,,,,,,,,,,5f12a59abbb7d320699d062f,2020-11-26_15h57.40.166,lexical_decision_task_MP_exp2,2020.2.5,Win32,60,,m,1,0.53422,,,,,,,,0.53422,1,,,,,,228,WORD,UN,16,inject,MASTER,m,,,,,,0.141666667,-0.217592593,0,0,0,,0,8,8,227,1,
,,,,,,,,,,,,,,,,,,5f12a59abbb7d320699d062f,2020-11-26_15h57.40.166,lexical_decision_task_MP_exp2,2020.2.5,Win32,60,,m,1,0.62649,,,,,,,,0.62649,1,,,,,,211,WORD,UN,16,verify,INFECT,m,,,,,,0.141666667,-0.217592593,0,0,0,,0,9,9,210,1,
,,,,,,,,,,,,,,,,,,5f12a59abbb7d320699d062f,2020-11-26_15h57.40.166,lexical_decision_task_MP_exp2,2020.2.5,Win32,60,,z,1,0.71783,,,,,,,,0.71783,1,,,,,,339,NW,"ID",16,fachow,FACHOW,z,,,,,,0.141666667,-0.217592593,0,0,0,,0,10,10,338,1,
,,,,,,,,,,,,,,,,,,5f12a59abbb7d320699d062f,2020-11-26_15h57.40.166,lexical_decision_task_MP_exp2,2020.2.5,Win32,60,,z,1,0.90666,,,,,,,,0.90666,1,,,,,,388,NW,UN,33,witmer,CRAGIN,z,,,,,,0.141666667,-0.217592593,0,0,0,,0,11,11,387,1,
,,,,,,,,,,,,,,,,,,5f12a59abbb7d320699d062f,2020-11-26_15h57.40.166,lexical_decision_task_MP_exp2,2020.2.5,Win32,60,,z,1,0.900095,,,,,,,,0.900095,1,,,,,,433,NW,UN,16,pitrom,DRANCE,z,,,,,,0.141666667,-0.217592593,0,0,0,,0,12,12,432,1,
,,,,,,,,,,,,,,,,,,5f12a59abbb7d320699d062f,2020-11-26_15h57.40.166,lexical_decision_task_MP_exp2,2020.2.5,Win32,60,,z,1,0.747075,,,,,,,,0.747075,1,,,,,,384,NW,UN,33,veigma,GUESCO,z,,,,,,0.141666667,-0.217592593,0,0,0,,0,13,13,383,1,
,,,,,,,,,,,,,,,,,,5f12a59abbb7d320699d062f,2020-11-26_15h57.40.166,lexical_decision_task_MP_exp2,2020.2.5,Win32,60,,m,1,0.655425,,,,,,,,0.655425,1,,,,,,20,WORD,"ID",33,breast,BREAST,m,,,,,,0.141666667,-0.217592593,0,0,0,,0,14,14,19,1,
,,,,,,,,,,,,,,,,,,5f12a59abbb7d320699d062f,2020-11-26_15h57.40.166,lexical_decision_task_MP_exp2,2020.2.5,Win32,60,,z,1,0.838875,,,,,,,,0.838875,1,,,,,,400,NW,UN,33,mustil,WEAROX,z,,,,,,0.141666667,-0.217592593,0,0,0,,0,15,15,399,1,
,,,,,,,,,,,,,,,,,,5f12a59abbb7d320699d062f,2020-11-26_15h57.40.166,lexical_decision_task_MP_exp2,2020.2.5,Win32,60,,z,1,0.92915,,,,,,,,0.92915,1,,,,,,309,NW,"ID",16,amiloy,AMILOY,z,,,,,,0.141666667,-0.217592593,0,0,0,,0,16,16,308,1,
,,,,,,,,,,,,,,,,,,5f12a59abbb7d320699d062f,2020-11-26_15h57.40.166,lexical_decision_task_MP_exp2,2020.2.5,Win32,60,,m,1,0.711305,,,,,,,,0.711305,1,,,,,,177,WORD,UN,33,inform,ADVENT,m,,,,,,0.141666667,-0.217592593,0,0,0,,0,17,17,176,1,
,,,,,,,,,,,,,,,,,,5f12a59abbb7d320699d062f,2020-11-26_15h57.40.166,lexical_decision_task_MP_exp2,2020.2.5,Win32,60,,z,1,0.68264,,,,,,,,0.68264,1,,,,,,406,NW,UN,33,suiver,NOUPLY,z,,,,,,0.141666667,-0.217592593,0,0,0,,0,18,18,405,1,
,,,,,,,,,,,,,,,,,,5f12a59abbb7d320699d062f,2020-11-26_15h57.40.166,lexical_decision_task_MP_exp2,2020.2.5,Win32,60,,m,1,0.499485,,,,,,,,0.499485,1,,,,,,28,WORD,"ID",33,comedy,COMEDY,m,,,,,,0.141666667,-0.217592593,0,0,0,,0,19,19,27,1,
,,,,,,,,,,,,,,,,,,5f12a59abbb7d320699d062f,2020-11-26_15h57.40.166,lexical_decision_task_MP_exp2,2020.2.5,Win32,60,,z,1,0.7032,,,,,,,,0.7032,1,,,,,,362,NW,UN,33,breali,TIREAU,z,,,,,,0.141666667,-0.217592593,0,0,0,,0,20,20,361,1,
,,,,,,,,,,,,,,,,,,5f12a59abbb7d320699d062f,2020-11-26_15h57.40.166,lexical_decision_task_MP_exp2,2020.2.5,Win32,60,,m,1,0.703085,,,,,,,,0.703085,1,,,,,,90,WORD,"ID",16,relish,RELISH,m,,,,,,0.141666667,-0.217592593,0,0,0,,0,21,21,89,1,
,,,,,,,,,,,,,,,,,,5f12a59abbb7d320699d062f,2020-11-26_15h57.40.166,lexical_decision_task_MP_exp2,2020.2.5,Win32,60,,z,1,0.83078,,,,,,,,0.83078,1,,,,,,311,NW,"ID",16,sproly,SPROLY,z,,,,,,0.141666667,-0.217592593,0,0,0,,0,22,22,310,1,
,,,,,,,,,,,,,,,,,,5f12a59abbb7d320699d062f,2020-11-26_15h57.40.166,lexical_decision_task_MP_exp2,2020.2.5,Win32,60,,z,1,0.6666,,,,,,,,0.6666,1,,,,,,395,NW,UN,33,flengy,COLURY,z,,,,,,0.141666667,-0.217592593,0,0,0,,0,23,23,394,1,
,,,,,,,,,,,,,,,,,,5f12a59abbb7d320699d062f,2020-11-26_15h57.40.166,lexical_decision_task_MP_exp2,2020.2.5,Win32,60,,m,1,0.600135,,,,,,,,0.600135,1,,,,,,96,WORD,"ID",16,ignore,IGNORE,m,,,,,,0.141666667,-0.217592593,0,0,0,,0,24,24,95,1,
,,,,,,,,,,,,,,,,,,5f12a59abbb7d320699d062f,2020-11-26_15h57.40.166,lexical_decision_task_MP_exp2,2020.2.5,Win32,60,,z,1,0.6805,,,,,,,,0.6805,1,,,,,,478,NW,UN,16,lobush,ACRISE,z,,,,,,0.141666667,-0.217592593,0,0,0,,0,25,25,477,1,
,,,,,,,,,,,,,,,,,,5f12a59abbb7d320699d062f,2020-11-26_15h57.40.166,lexical_decision_task_MP_exp2,2020.2.5,Win32,60,,m,0,0.725915,,,,,,,,0.725915,0,,,,,,348,NW,"ID",16,dumple,DUMPLE,z,,,,,,0.141666667,-0.217592593,0,0,0,,0,26,26,347,1,
,,,,,,,,,,,,,,,,,,5f12a59abbb7d320699d062f,2020-11-26_15h57.40.166,lexical_decision_task_MP_exp2,2020.2.5,Win32,60,,z,1,0.566175,,,,,,,,0.566175,1,,,,,,447,NW,UN,16,sadent,GIRCUE,z,,,,,,0.141666667,-0.217592593,0,0,0,,0,27,27,446,1,
,,,,,,,,,,,,,,,,,,5f12a59abbb7d320699d062f,2020-11-26_15h57.40.166,lexical_decision_task_MP_exp2,2020.2.5,Win32,60,,z,1,0.61086,,,,,,,,0.61086,1,,,,,,343,NW,"ID",16,aimosy,AIMOSY,z,,,,,,0.141666667,-0.217592593,0,0,0,,0,28,28,342,1,
,,,,,,,,,,,,,,,,,,5f12a59abbb7d320699d062f,2020-11-26_15h57.40.166,lexical_decision_task_MP_exp2,2020.2.5,Win32,60,,m,1,0.62624,,,,,,,,0.62624,1,,,,,,34,WORD,"ID",33,jungle,JUNGLE,m,,,,,,0.141666667,-0.217592593,0,0,0,,0,29,29,33,1,
,,,,,,,,,,,,,,,,,,5f12a59abbb7d320699d062f,2020-11-26_15h57.40.166,lexical_decision_task_MP_exp2,2020.2.5,Win32,60,,m,1,0.714855,,,,,,,,0.714855,1,,,,,,23,WORD,"ID",33,wealth,WEALTH,m,,,,,,0.141666667,-0.217592593,0,0,0,,0,30,30,22,1,
,,,,,,,,,,,,,,,,,,5f12a59abbb7d320699d062f,2020-11-26_15h57.40.166,lexical_decision_task_MP_exp2,2020.2.5,Win32,60,,z,1,0.723595,,,,,,,,0.723595,1,,,,,,317,NW,"ID",16,worbal,WORBAL,z,,,,,,0.141666667,-0.217592593,0,0,0,,0,31,31,316,1,
,,,,,,,,,,,,,,,,,,5f12a59abbb7d320699d062f,2020-11-26_15h57.40.166,lexical_decision_task_MP_exp2,2020.2.5,Win32,60,,z,1,0.598575,,,,,,,,0.598575,1,,,,,,261,NW,"ID",33,stunch,STUNCH,z,,,,,,0.141666667,-0.217592593,0,0,0,,0,32,32,260,1,
,,,,,,,,,,,,,,,,,,5f12a59abbb7d320699d062f,2020-11-26_15h57.40.166,lexical_decision_task_MP_exp2,2020.2.5,Win32,60,,m,0,0.723515,,,,,,,,0.723515,0,,,,,,260,NW,"ID",33,unject,UNJECT,z,,,,,,0.141666667,-0.217592593,0,0,0,,0,33,33,259,1,
,,,,,,,,,,,,,,,,,,5f12a59abbb7d320699d062f,2020-11-26_15h57.40.166,lexical_decision_task_MP_exp2,2020.2.5,Win32,60,,z,1,0.903875,,,,,,,,0.903875,1,,,,,,354,NW,"ID",16,virlex,VIRLEX,z,,,,,,0.141666667,-0.217592593,0,0,0,,0,34,34,353,1,
,,,,,,,,,,,,,,,,,,5f12a59abbb7d320699d062f,2020-11-26_15h57.40.166,lexical_decision_task_MP_exp2,2020.2.5,Win32,60,,m,1,0.6428,,,,,,,,0.6428,1,,,,,,146,WORD,UN,33,garlic,COUPLE,m,,,,,,0.141666667,-0.217592593,0,0,0,,0,35,35,145,1,
,,,,,,,,,,,,,,,,,,5f12a59abbb7d320699d062f,2020-11-26_15h57.40.166,lexical_decision_task_MP_exp2,2020.2.5,Win32,60,,z,1,0.949455,,,,,,,,0.949455,1,,,,,,322,NW,"ID",16,slanch,SLANCH,z,,,,,,0.141666667,-0.217592593,0,0,0,,0,36,36,321,1,
,,,,,,,,,,,,,,,,,,5f12a59abbb7d320699d062f,2020-11-26_15h57.40.166,lexical_decision_task_MP_exp2,2020.2.5,Win32,60,,m,1,0.66169,,,,,,,,0.66169,1,,,,,,67,WORD,"ID",16,policy,POLICY,m,,,,,,0.141666667,-0.217592593,0,0,0,,0,37,37,66,1,
,,,,,,,,,,,,,,,,,,5f12a59abbb7d320699d062f,2020-11-26_15h57.40.166,lexical_decision_task_MP_exp2,2020.2.5,Win32,60,,m,1,0.600795,,,,,,,,0.600795,1,,,,,,52,WORD,"ID",33,impose,IMPOSE,m,,,,,,0.141666667,-0.217592593,0,0,0,,0,38,38,51,1,
,,,,,,,,,,,,,,,,,,5f12a59abbb7d320699d062f,2020-11-26_15h57.40.166,lexical_decision_task_MP_exp2,2020.2.5,Win32,60,,m,1,0.563495,,,,,,,,0.563495,1,,,,,,218,WORD,UN,16,bucket,SHRINK,m,,,,,,0.141666667,-0.217592593,0,0,0,,0,39,39,217,1,
,,,,,,,,,,,,,,,,,,5f12a59abbb7d320699d062f,2020-11-26_15h57.40.166,lexical_decision_task_MP_exp2,2020.2.5,Win32,60,,m,1,0.59548,,,,,,,,0.59548,1,,,,,,123,WORD,UN,33,enough,STRIKE,m,,,,,,0.141666667,-0.217592593,0,0,0,,0,40,40,122,1,
,,,,,,,,,,,,,,,,,,5f12a59abbb7d320699d062f,2020-11-26_15h57.40.166,lexical_decision_task_MP_exp2,2020.2.5,Win32,60,,z,1,0.894605,,,,,,,,0.894605,1,,,,,,448,NW,UN,16,brunge,SADENT,z,,,,,,0.141666667,-0.217592593,0,0,0,,0,41,41,447,1,
,,,,,,,,,,,,,,,,,,5f12a59abbb7d320699d062f,2020-11-26_15h57.40.166,lexical_decision_task_MP_exp2,2020.2.5,Win32,60,,m,1,0.59794,,,,,,,,0.59794,1,,,,,,81,WORD,"ID",16,friend,FRIEND,m,,,,,,0.141666667,-0.217592593,0,0,0,,0,42,42,80,1,
,,,,,,,,,,,,,,,,,,5f12a59abbb7d320699d062f,2020-11-26_15h57.40.166,lexical_decision_task_MP_exp2,2020.2.5,Win32,60,,m,1,0.63058,,,,,,,,0.63058,1,,,,,,108,WORD,"ID",16,reckon,RECKON,m,,,,,,0.141666667,-0.217592593,0,0,0,,0,43,43,107,1,
,,,,,,,,,,,,,,,,,,5f12a59abbb7d320699d062f,2020-11-26_15h57.40.166,lexical_decision_task_MP_exp2,2020.2.5,Win32,60,,m,1,0.54065,,,,,,,,0.54065,1,,,,,,150,WORD,UN,33,mystic,RANDOM,m,,,,,,0.141666667,-0.217592593,0,0,0,,0,44,44,149,1,
,,,,,,,,,,,,,,,,,,5f12a59abbb7d320699d062f,2020-11-26_15h57.40.166,lexical_decision_task_MP_exp2,2020.2.5,Win32,60,,m,1,0.46455,,,,,,,,0.46455,1,,,,,,13,WORD,"ID",33,strive,STRIVE,m,,,,,,0.141666667,-0.217592593,0,0,0,,0,45,45,12,1,
,,,,,,,,,,,,,,,,,,5f12a59abbb7d320699d062f,2020-11-26_15h57.40.166,lexical_decision_task_MP_exp2,2020.2.5,Win32,60,,z,0,0.72211,,,,,,,,0.72211,0,,,,,,212,WORD,UN,16,squeal,VERIFY,m,,,,,,0.141666667,-0.217592593,0,0,0,,0,46,46,211,1,
,,,,,,,,,,,,,,,,,,5f12a59abbb7d320699d062f,2020-11-26_15h57.40.166,lexical_decision_task_MP_exp2,2020.2.5,Win32,60,,z,1,0.725795,,,,,,,,0.725795,1,,,,,,263,NW,"ID",33,dolica,DOLICA,z,,,,,,0.141666667,-0.217592593,0,0,0,,0,47,47,262,1,
,,,,,,,,,,,,,,,,,,5f12a59abbb7d320699d062f,2020-11-26_15h57.40.166,lexical_decision_task_MP_exp2,2020.2.5,Win32,60,,m,1,0.681075,,,,,,,,0.681075,1,,,,,,102,WORD,"ID",16,direct,DIRECT,m,,,,,,0.141666667,-0.217592593,0,0,0,,0,48,48,101,1,
,,,,,,,,,,,,,,,,,,5f12a59abbb7d320699d062f,2020-11-26_15h57.40.166,lexical_decision_task_MP_exp2,2020.2.5,Win32,60,,m,0,0.766555,,,,,,,,0.766555,0,,,,,,432,NW,UN,16,drance,LUNKER,z,,,,,,0.141666667,-0.217592593,0,0,0,,0,49,49,431,1,
,,,,,,,,,,,,,,,,,,5f12a59abbb7d320699d062f,2020-11-26_15h57.40.166,lexical_decision_task_MP_exp2,2020.2.5,Win32,60,,z,1,0.65155,,,,,,,,0.65155,1,,,,,,390,NW,UN,33,theldy,HATRUS,z,,,,,,0.141666667,-0.217592593,0,0,0,,0,50,50,389,1,
,,,,,,,,,,,,,,,,,,5f12a59abbb7d320699d062f,2020-11-26_15h57.40.166,lexical_decision_task_MP_exp2,2020.2.5,Win32,60,,z,1,0.619275,,,,,,,,0.619275,1,,,,,,286,NW,"ID",33,reldon,RELDON,z,,,,,,0.141666667,-0.217592593,0,0,0,,0,51,51,285,1,
,,,,,,,,,,,,,,,,,,5f12a59abbb7d320699d062f,2020-11-26_15h57.40.166,lexical_decision_task_MP_exp2,2020.2.5,Win32,60,,z,1,0.7581,,,,,,,,0.7581,1,,,,,,472,NW,UN,16,crible,CIGNEY,z,,,,,,0.141666667,-0.217592593,0,0,0,,0,52,52,471,1,
,,,,,,,,,,,,,,,,,,5f12a59abbb7d320699d062f,2020-11-26_15h57.40.166,lexical_decision_task_MP_exp2,2020.2.5,Win32,60,,m,1,0.789245,,,,,,,,0.789245,1,,,,,,7,WORD,"ID",33,anchor,ANCHOR,m,,,,,,0.141666667,-0.217592593,0,0,0,,0,53,53,6,1,
,,,,,,,,,,,,,,,,,,5f12a59abbb7d320699d062f,2020-11-26_15h57.40.166,lexical_decision_task_MP_exp2,2020.2.5,Win32,60,,m,1,0.541345,,,,,,,,0.541345,1,,,,,,84,WORD,"ID",16,mortal,MORTAL,m,,,,,,0.141666667,-0.217592593,0,0,0,,0,54,54,83,1,
,,,,,,,,,,,,,,,,,,5f12a59abbb7d320699d062f,2020-11-26_15h57.40.166,lexical_decision_task_MP_exp2,2020.2.5,Win32,60,,z,1,0.94715,,,,,,,,0.94715,1,,,,,,419,NW,UN,33,gushop,SLOUNT,z,,,,,,0.141666667,-0.217592593,0,0,0,,0,55,55,418,1,
,,,,,,,,,,,,,,,,,,5f12a59abbb7d320699d062f,2020-11-26_15h57.40.166,lexical_decision_task_MP_exp2,2020.2.5,Win32,60,,m,1,0.669375,,,,,,,,0.669375,1,,,,,,152,WORD,UN,33,behold,ROCKET,m,,,,,,0.141666667,-0.217592593,0,0,0,,0,56,56,151,1,
,,,,,,,,,,,,,,,,,,5f12a59abbb7d320699d062f,2020-11-26_15h57.40.166,lexical_decision_task_MP_exp2,2020.2.5,Win32,60,,m,1,0.613975,,,,,,,,0.613975,1,,,,,,161,WORD,UN,33,candle,PASTOR,m,,,,,,0.141666667,-0.217592593,0,0,0,,0,57,57,160,1,
,,,,,,,,,,,,,,,,,,5f12a59abbb7d320699d062f,2020-11-26_15h57.40.166,lexical_decision_task_MP_exp2,2020.2.5,Win32,60,,z,1,0.67921,,,,,,,,0.67921,1,,,,,,468,NW,UN,16,padifs,WICTOR,z,,,,,,0.141666667,-0.217592593,0,0,0,,0,58,58,467,1,
,,,,,,,,,,,,,,,,,,5f12a59abbb7d320699d062f,2020-11-26_15h57.40.166,lexical_decision_task_MP_exp2,2020.2.5,Win32,60,,z,0,0.591755,,,,,,,,0.591755,0,,,,,,142,WORD,UN,33,orphan,SPRUCE,m,,,,,,0.141666667,-0.217592593,0,0,0,,0,59,59,141,1,
,,,,,,,,,,,,,,,,,,5f12a59abbb7d320699d062f,2020-11-26_15h57.40.166,lexical_decision_task_MP_exp2,2020.2.5,Win32,60,,z,1,0.903085,,,,,,,,0.903085,1,,,,,,409,NW,UN,33,tunory,ELOPIA,z,,,,,,0.141666667,-0.217592593,0,0,0,,0,60,60,408,1,
,,,,,,,,,,,,,,,,,,5f12a59abbb7d320699d062f,2020-11-26_15h57.40.166,lexical_decision_task_MP_exp2,2020.2.5,Win32,60,,z,1,0.784915,,,,,,,,0.784915,1,,,,,,413,NW,UN,33,serbol,EQUATS,z,,,,,,0.141666667,-0.217592593,0,0,0,,0,61,61,412,1,
,,,,,,,,,,,,,,,,,,5f12a59abbb7d320699d062f,2020-11-26_15h57.40.166,lexical_decision_task_MP_exp2,2020.2.5,Win32,60,,m,1,0.65776,,,,,,,,0.65776,1,,,,,,236,WORD,UN,16,poster,PIRATE,m,,,,,,0.141666667,-0.217592593,0,0,0,,0,62,62,235,1,
,,,,,,,,,,,,,,,,,,5f12a59abbb7d320699d062f,2020-11-26_15h57.40.166,lexical_decision_task_MP_exp2,2020.2.5,Win32,60,,z,1,0.622565,,,,,,,,0.622565,1,,,,,,434,NW,UN,16,impurb,PITROM,z,,,,,,0.141666667,-0.217592593,0,0,0,,0,63,63,433,1,
,,,,,,,,,,,,,,,,,,5f12a59abbb7d320699d062f,2020-11-26_15h57.40.166,lexical_decision_task_MP_exp2,2020.2.5,Win32,60,,z,1,0.593225,,,,,,,,0.593225,1,,,,,,457,NW,UN,16,barcet,WANIGH,z,,,,,,0.141666667,-0.217592593,0,0,0,,0,64,64,456,1,
,,,,,,,,,,,,,,,,,,5f12a59abbb7d320699d062f,2020-11-26_15h57.40.166,lexical_decision_task_MP_exp2,2020.2.5,Win32,60,,z,1,0.528595,,,,,,,,0.528595,1,,,,,,431,NW,UN,16,lunker,CHRUMS,z,,,,,,0.141666667,-0.217592593,0,0,0,,0,65,65,430,1,
,,,,,,,,,,,,,,,,,,5f12a59abbb7d320699d062f,2020-11-26_15h57.40.166,lexical_decision_task_MP_exp2,2020.2.5,Win32,60,,m,1,0.68662,,,,,,,,0.68662,1,,,,,,75,WORD,"ID",16,trophy,TROPHY,m,,,,,,0.141666667,-0.217592593,0,0,0,,0,66,66,74,1,
,,,,,,,,,,,,,,,,,,5f12a59abbb7d320699d062f,2020-11-26_15h57.40.166,lexical_decision_task_MP_exp2,2020.2.5,Win32,60,,z,1,0.912,,,,,,,,0.912,1,,,,,,423,NW,UN,16,praile,STRELD,z,,,,,,0.141666667,-0.217592593,0,0,0,,0,67,67,422,1,
,,,,,,,,,,,,,,,,,,5f12a59abbb7d320699d062f,2020-11-26_15h57.40.166,lexical_decision_task_MP_exp2,2020.2.5,Win32,60,,z,1,0.791895,,,,,,,,0.791895,1,,,,,,363,NW,UN,33,impote,BREALI,z,,,,,,0.141666667,-0.217592593,0,0,0,,0,68,68,362,1,
,,,,,,,,,,,,,,,,,,5f12a59abbb7d320699d062f,2020-11-26_15h57.40.166,lexical_decision_task_MP_exp2,2020.2.5,Win32,60,,z,1,0.82263,,,,,,,,0.82263,1,,,,,,435,NW,UN,16,frutan,IMPURB,z,,,,,,0.141666667,-0.217592593,0,0,0,,0,69,69,434,1,
,,,,,,,,,,,,,,,,,,5f12a59abbb7d320699d062f,2020-11-26_15h57.40.166,lexical_decision_task_MP_exp2,2020.2.5,Win32,60,,m,1,1.0101,,,,,,,,1.0101,1,,,,,,42,WORD,"ID",33,chapel,CHAPEL,m,,,,,,0.141666667,-0.217592593,0,0,0,,0,70,70,41,1,
,,,,,,,,,,,,,,,,,,5f12a59abbb7d320699d062f,2020-11-26_15h57.40.166,lexical_decision_task_MP_exp2,2020.2.5,Win32,60,,m,1,0.597505,,,,,,,,0.597505,1,,,,,,100,WORD,"ID",16,carbon,CARBON,m,,,,,,0.141666667,-0.217592593,0,0,0,,0,71,71,99,1,
,,,,,,,,,,,,,,,,,,5f12a59abbb7d320699d062f,2020-11-26_15h57.40.166,lexical_decision_task_MP_exp2,2020.2.5,Win32,60,,z,1,1.050375,,,,,,,,1.050375,1,,,,,,402,NW,UN,33,bruats,SYNTIC,z,,,,,,0.141666667,-0.217592593,0,0,0,,0,72,72,401,1,
,,,,,,,,,,,,,,,,,,5f12a59abbb7d320699d062f,2020-11-26_15h57.40.166,lexical_decision_task_MP_exp2,2020.2.5,Win32,60,,m,1,0.635405,,,,,,,,0.635405,1,,,,,,8,WORD,"ID",33,abrupt,ABRUPT,m,,,,,,0.141666667,-0.217592593,0,0,0,,0,73,73,7,1,
,,,,,,,,,,,,,,,,,,5f12a59abbb7d320699d062f,2020-11-26_15h57.40.166,lexical_decision_task_MP_exp2,2020.2.5,Win32,60,,m,1,0.690725,,,,,,,,0.690725,1,,,,,,26,WORD,"ID",33,sprint,SPRINT,m,,,,,,0.141666667,-0.217592593,0,0,0,,0,74,74,25,1,
,,,,,,,,,,,,,,,,,,5f12a59abbb7d320699d062f,2020-11-26_15h57.40.166,lexical_decision_task_MP_exp2,2020.2.5,Win32,60,,m,1,0.581505,,,,,,,,0.581505,1,,,,,,185,WORD,UN,16,portal,BOTHER,m,,,,,,0.141666667,-0.217592593,0,0,0,,0,75,75,184,1,
,,,,,,,,,,,,,,,,,,5f12a59abbb7d320699d062f,2020-11-26_15h57.40.166,lexical_decision_task_MP_exp2,2020.2.5,Win32,60,,z,1,0.891335,,,,,,,,0.891335,1,,,,,,438,NW,UN,16,limpor,BAITCH,z,,,,,,0.141666667,-0.217592593,0,0,0,,0,76,76,437,1,
,,,,,,,,,,,,,,,,,,5f12a59abbb7d320699d062f,2020-11-26_15h57.40.166,lexical_decision_task_MP_exp2,2020.2.5,Win32,60,,z,1,0.76209,,,,,,,,0.76209,1,,,,,,410,NW,UN,33,orchin,TUNORY,z,,,,,,0.141666667,-0.217592593,0,0,0,,0,77,77,409,1,
,,,,,,,,,,,,,,,,,,5f12a59abbb7d320699d062f,2020-11-26_15h57.40.166,lexical_decision_task_MP_exp2,2020.2.5,Win32,60,,m,1,0.684375,,,,,,,,0.684375,1,,,,,,186,WORD,UN,16,course,PORTAL,m,,,,,,0.141666667,-0.217592593,0,0,0,,0,78,78,185,1,
,,,,,,,,,,,,,,,,,,5f12a59abbb7d320699d062f,2020-11-26_15h57.40.166,lexical_decision_task_MP_exp2,2020.2.5,Win32,60,,m,1,0.64941,,,,,,,,0.64941,1,,,,,,133,WORD,UN,33,debris,CHROME,m,,,,,,0.141666667,-0.217592593,0,0,0,,0,79,79,132,1,
,,,,,,,,,,,,,,,,,,5f12a59abbb7d320699d062f,2020-11-26_15h57.40.166,lexical_decision_task_MP_exp2,2020.2.5,Win32,60,,z,0,0.698745,,,,,,,,0.698745,0,,,,,,183,WORD,UN,16,sleazy,MILDEW,m,,,,,,0.141666667,-0.217592593,0,0,0,,0,80,80,182,1,
,,,,,,,,,,,,,,,,,,5f12a59abbb7d320699d062f,2020-11-26_15h57.40.166,lexical_decision_task_MP_exp2,2020.2.5,Win32,60,,z,1,0.687065,,,,,,,,0.687065,1,,,,,,417,NW,UN,33,suidle,EAROUD,z,,,,,,0.141666667,-0.217592593,0,0,0,,0,81,81,416,1,
,,,,,,,,,,,,,,,,,,5f12a59abbb7d320699d062f,2020-11-26_15h57.40.166,lexical_decision_task_MP_exp2,2020.2.5,Win32,60,,m,1,0.64549,,,,,,,,0.64549,1,,,,,,234,WORD,UN,16,lumber,CLUMSY,m,,,,,,0.141666667,-0.217592593,0,0,0,,0,82,82,233,1,
,,,,,,,,,,,,,,,,,,5f12a59abbb7d320699d062f,2020-11-26_15h57.40.166,lexical_decision_task_MP_exp2,2020.2.5,Win32,60,,z,1,0.724235,,,,,,,,0.724235,1,,,,,,291,NW,"ID",33,pretch,PRETCH,z,,,,,,0.141666667,-0.217592593,0,0,0,,0,83,83,290,1,
,,,,,,,,,,,,,,,,,,5f12a59abbb7d320699d062f,2020-11-26_15h57.40.166,lexical_decision_task_MP_exp2,2020.2.5,Win32,60,,m,1,0.590145,,,,,,,,0.590145,1,,,,,,155,WORD,UN,33,cradle,LIZARD,m,,,,,,0.141666667,-0.217592593,0,0,0,,0,84,84,154,1,
,,,,,,,,,,,,,,,,,,5f12a59abbb7d320699d062f,2020-11-26_15h57.40.166,lexical_decision_task_MP_exp2,2020.2.5,Win32,60,,z,1,0.618385,,,,,,,,0.618385,1,,,,,,420,NW,UN,33,pauche,GUSHOP,z,,,,,,0.141666667,-0.217592593,0,0,0,,0,85,85,419,1,
,,,,,,,,,,,,,,,,,,5f12a59abbb7d320699d062f,2020-11-26_15h57.40.166,lexical_decision_task_MP_exp2,2020.2.5,Win32,60,,z,1,0.66823,,,,,,,,0.66823,1,,,,,,455,NW,UN,16,broget,TONDLE,z,,,,,,0.141666667,-0.217592593,0,0,0,,0,86,86,454,1,
,,,,,,,,,,,,,,,,,,5f12a59abbb7d320699d062f,2020-11-26_15h57.40.166,lexical_decision_task_MP_exp2,2020.2.5,Win32,60,,m,1,0.57985,,,,,,,,0.57985,1,,,,,,17,WORD,"ID",33,charge,CHARGE,m,,,,,,0.141666667,-0.217592593,0,0,0,,0,87,87,16,1,
,,,,,,,,,,,,,,,,,,5f12a59abbb7d320699d062f,2020-11-26_15h57.40.166,lexical_decision_task_MP_exp2,2020.2.5,Win32,60,,m,1,0.57715,,,,,,,,0.57715,1,,,,,,3,WORD,"ID",33,knight,KNIGHT,m,,,,,,0.141666667,-0.217592593,0,0,0,,0,88,88,2,1,
,,,,,,,,,,,,,,,,,,5f12a59abbb7d320699d062f,2020-11-26_15h57.40.166,lexical_decision_task_MP_exp2,2020.2.5,Win32,60,,z,1,0.64205,,,,,,,,0.64205,1,,,,,,292,NW,"ID",33,ablint,ABLINT,z,,,,,,0.141666667,-0.217592593,0,0,0,,0,89,89,291,1,
,,,,,,,,,,,,,,,,,,5f12a59abbb7d320699d062f,2020-11-26_15h57.40.166,lexical_decision_task_MP_exp2,2020.2.5,Win32,60,,z,0,0.658395,,,,,,,,0.658395,0,,,,,,114,WORD,"ID",16,placid,PLACID,m,,,,,,0.141666667,-0.217592593,0,0,0,,0,90,90,113,1,
,,,,,,,,,,,,,,,,,,5f12a59abbb7d320699d062f,2020-11-26_15h57.40.166,lexical_decision_task_MP_exp2,2020.2.5,Win32,60,,z,0,0.88907,,,,,,,,0.88907,0,,,,,,69,WORD,"ID",16,plenty,PLENTY,m,,,,,,0.141666667,-0.217592593,0,0,0,,0,91,91,68,1,
,,,,,,,,,,,,,,,,,,5f12a59abbb7d320699d062f,2020-11-26_15h57.40.166,lexical_decision_task_MP_exp2,2020.2.5,Win32,60,,m,1,0.585985,,,,,,,,0.585985,1,,,,,,195,WORD,UN,16,credit,RESIGN,m,,,,,,0.141666667,-0.217592593,0,0,0,,0,92,92,194,1,
,,,,,,,,,,,,,,,,,,5f12a59abbb7d320699d062f,2020-11-26_15h57.40.166,lexical_decision_task_MP_exp2,2020.2.5,Win32,60,,z,1,0.74782,,,,,,,,0.74782,1,,,,,,456,NW,UN,16,wanigh,BROGET,z,,,,,,0.141666667,-0.217592593,0,0,0,,0,93,93,455,1,
,,,,,,,,,,,,,,,,,,5f12a59abbb7d320699d062f,2020-11-26_15h57.40.166,lexical_decision_task_MP_exp2,2020.2.5,Win32,60,,z,1,0.83801,,,,,,,,0.83801,1,,,,,,278,NW,"ID",33,unighs,UNIGHS,z,,,,,,0.141666667,-0.217592593,0,0,0,,0,94,94,277,1,
,,,,,,,,,,,,,,,,,,5f12a59abbb7d320699d062f,2020-11-26_15h57.40.166,lexical_decision_task_MP_exp2,2020.2.5,Win32,60,,m,1,0.517815,,,,,,,,0.517815,1,,,,,,47,WORD,"ID",33,income,INCOME,m,,,,,,0.141666667,-0.217592593,0,0,0,,0,95,95,46,1,
,,,,,,,,,,,,,,,,,,5f12a59abbb7d320699d062f,2020-11-26_15h57.40.166,lexical_decision_task_MP_exp2,2020.2.5,Win32,60,,m,1,0.50131,,,,,,,,0.50131,1,,,,,,49,WORD,"ID",33,survey,SURVEY,m,,,,,,0.141666667,-0.217592593,0,0,0,,0,96,96,48,1,
,,,,,,,,,,,,,,,,,,5f12a59abbb7d320699d062f,2020-11-26_15h57.40.166,lexical_decision_task_MP_exp2,2020.2.5,Win32,60,,z,1,0.883085,,,,,,,,0.883085,1,,,,,,253,NW,"ID",33,resait,RESAIT,z,,,,,,0.141666667,-0.217592593,0,0,0,,0,97,97,252,1,
,,,,,,,,,,,,,,,,,,5f12a59abbb7d320699d062f,2020-11-26_15h57.40.166,lexical_decision_task_MP_exp2,2020.2.5,Win32,60,,m,1,0.655885,,,,,,,,0.655885,1,,,,,,87,WORD,"ID",16,filter,FILTER,m,,,,,,0.141666667,-0.217592593,0,0,0,,0,98,98,86,1,
,,,,,,,,,,,,,,,,,,5f12a59abbb7d320699d062f,2020-11-26_15h57.40.166,lexical_decision_task_MP_exp2,2020.2.5,Win32,60,,z,1,0.703225,,,,,,,,0.703225,1,,,,,,324,NW,"ID",16,steikh,STEIKH,z,,,,,,0.141666667,-0.217592593,0,0,0,,0,99,99,323,1,
,,,,,,,,,,,,,,,,,,5f12a59abbb7d320699d062f,2020-11-26_15h57.40.166,lexical_decision_task_MP_exp2,2020.2.5,Win32,60,,z,1,0.64906,,,,,,,,0.64906,1,,,,,,346,NW,"ID",16,saudic,SAUDIC,z,,,,,,0.141666667,-0.217592593,0,0,0,,0,100,100,345,1,
,,,,,,,,,,,,,,,,,,5f12a59abbb7d320699d062f,2020-11-26_15h57.40.166,lexical_decision_task_MP_exp2,2020.2.5,Win32,60,,m,1,0.615485,,,,,,,,0.615485,1,,,,,,66,WORD,"ID",16,gospel,GOSPEL,m,,,,,,0.141666667,-0.217592593,0,0,0,,0,101,101,65,1,
,,,,,,,,,,,,,,,,,,5f12a59abbb7d320699d062f,2020-11-26_15h57.40.166,lexical_decision_task_MP_exp2,2020.2.5,Win32,60,,m,1,0.620895,,,,,,,,0.620895,1,,,,,,171,WORD,UN,33,patrol,DEPART,m,,,,,,0.141666667,-0.217592593,0,0,0,,0,102,102,170,1,
,,,,,,,,,,,,,,,,,,5f12a59abbb7d320699d062f,2020-11-26_15h57.40.166,lexical_decision_task_MP_exp2,2020.2.5,Win32,60,,m,1,0.642385,,,,,,,,0.642385,1,,,,,,165,WORD,UN,33,starch,INVEST,m,,,,,,0.141666667,-0.217592593,0,0,0,,0,103,103,164,1,
,,,,,,,,,,,,,,,,,,5f12a59abbb7d320699d062f,2020-11-26_15h57.40.166,lexical_decision_task_MP_exp2,2020.2.5,Win32,60,,m,1,0.58152,,,,,,,,0.58152,1,,,,,,18,WORD,"ID",33,humble,HUMBLE,m,,,,,,0.141666667,-0.217592593,0,0,0,,0,104,104,17,1,
,,,,,,,,,,,,,,,,,,5f12a59abbb7d320699d062f,2020-11-26_15h57.40.166,lexical_decision_task_MP_exp2,2020.2.5,Win32,60,,m,1,0.52742,,,,,,,,0.52742,1,,,,,,61,WORD,"ID",16,ponder,PONDER,m,,,,,,0.141666667,-0.217592593,0,0,0,,0,105,105,60,1,
,,,,,,,,,,,,,,,,,,5f12a59abbb7d320699d062f,2020-11-26_15h57.40.166,lexical_decision_task_MP_exp2,2020.2.5,Win32,60,,m,0,1.012395,,,,,,,,1.012395,0,,,,,,352,NW,"ID",16,tringe,TRINGE,z,,,,,,0.141666667,-0.217592593,0,0,0,,0,106,106,351,1,
,,,,,,,,,,,,,,,,,,5f12a59abbb7d320699d062f,2020-11-26_15h57.40.166,lexical_decision_task_MP_exp2,2020.2.5,Win32,60,,z,1,0.819455,,,,,,,,0.819455,1,,,,,,377,NW,UN,33,shrile,INJORE,z,,,,,,0.141666667,-0.217592593,0,0,0,,0,107,107,376,1,
,,,,,,,,,,,,,,,,,,5f12a59abbb7d320699d062f,2020-11-26_15h57.40.166,lexical_decision_task_MP_exp2,2020.2.5,Win32,60,,m,1,1.00139,,,,,,,,1.00139,1,,,,,,209,WORD,UN,16,monkey,SEARCH,m,,,,,,0.141666667,-0.217592593,0,0,0,,0,108,108,208,1,
,,,,,,,,,,,,,,,,,,5f12a59abbb7d320699d062f,2020-11-26_15h57.40.166,lexical_decision_task_MP_exp2,2020.2.5,Win32,60,,m,1,0.52318,,,,,,,,0.52318,1,,,,,,63,WORD,"ID",16,launch,LAUNCH,m,,,,,,0.141666667,-0.217592593,0,0,0,,0,109,109,62,1,
,,,,,,,,,,,,,,,,,,5f12a59abbb7d320699d062f,2020-11-26_15h57.40.166,lexical_decision_task_MP_exp2,2020.2.5,Win32,60,,m,0,0.984465,,,,,,,,0.984465,0,,,,,,298,NW,"ID",33,piergy,PIERGY,z,,,,,,0.141666667,-0.217592593,0,0,0,,0,110,110,297,1,
,,,,,,,,,,,,,,,,,,5f12a59abbb7d320699d062f,2020-11-26_15h57.40.166,lexical_decision_task_MP_exp2,2020.2.5,Win32,60,,z,0,1.097645,,,,,,,,1.097645,0,,,,,,77,WORD,"ID",16,racket,RACKET,m,,,,,,0.141666667,-0.217592593,0,0,0,,0,111,111,76,1,
,,,,,,,,,,,,,,,,,,5f12a59abbb7d320699d062f,2020-11-26_15h57.40.166,lexical_decision_task_MP_exp2,2020.2.5,Win32,60,,m,1,0.581455,,,,,,,,0.581455,1,,,,,,38,WORD,"ID",33,powder,POWDER,m,,,,,,0.141666667,-0.217592593,0,0,0,,0,112,112,37,1,
,,,,,,,,,,,,,,,,,,5f12a59abbb7d320699d062f,2020-11-26_15h57.40.166,lexical_decision_task_MP_exp2,2020.2.5,Win32,60,,m,1,1.110825,,,,,,,,1.110825,1,,,,,,19,WORD,"ID",33,patron,PATRON,m,,,,,,0.141666667,-0.217592593,0,0,0,,0,113,113,18,1,
,,,,,,,,,,,,,,,,,,5f12a59abbb7d320699d062f,2020-11-26_15h57.40.166,lexical_decision_task_MP_exp2,2020.2.5,Win32,60,,z,1,1.40902,,,,,,,,1.40902,1,,,,,,436,NW,UN,16,snapel,FRUTAN,z,,,,,,0.141666667,-0.217592593,0,0,0,,0,114,114,435,1,
,,,,,,,,,,,,,,,,,,5f12a59abbb7d320699d062f,2020-11-26_15h57.40.166,lexical_decision_task_MP_exp2,2020.2.5,Win32,60,,m,1,0.851645,,,,,,,,0.851645,1,,,,,,92,WORD,"ID",16,strand,STRAND,m,,,,,,0.141666667,-0.217592593,0,0,0,,0,115,115,91,1,
,,,,,,,,,,,,,,,,,,5f12a59abbb7d320699d062f,2020-11-26_15h57.40.166,lexical_decision_task_MP_exp2,2020.2.5,Win32,60,,z,1,0.69118,,,,,,,,0.69118,1,,,,,,296,NW,"ID",33,beinch,BEINCH,z,,,,,,0.141666667,-0.217592593,0,0,0,,0,116,116,295,1,
,,,,,,,,,,,,,,,,,,5f12a59abbb7d320699d062f,2020-11-26_15h57.40.166,lexical_decision_task_MP_exp2,2020.2.5,Win32,60,,m,1,0.553085,,,,,,,,0.553085,1,,,,,,190,WORD,UN,16,stable,BACKUP,m,,,,,,0.141666667,-0.217592593,0,0,0,,0,117,117,189,1,
,,,,,,,,,,,,,,,,,,5f12a59abbb7d320699d062f,2020-11-26_15h57.40.166,lexical_decision_task_MP_exp2,2020.2.5,Win32,60,,m,1,0.667815,,,,,,,,0.667815,1,,,,,,213,WORD,UN,16,intake,SQUEAL,m,,,,,,0.141666667,-0.217592593,0,0,0,,0,118,118,212,1,
,,,,,,,,,,,,,,,,,,5f12a59abbb7d320699d062f,2020-11-26_15h57.40.166,lexical_decision_task_MP_exp2,2020.2.5,Win32,60,,z,1,0.736875,,,,,,,,0.736875,1,,,,,,470,NW,UN,16,nobest,CRUDIO,z,,,,,,0.141666667,-0.217592593,0,0,0,,0,119,119,469,1,
,,,,,,,,,,,,,,,,,,5f12a59abbb7d320699d062f,2020-11-26_15h57.40.166,lexical_decision_task_MP_exp2,2020.2.5,Win32,60,,m,1,0.641355,,,,,,,,0.641355,1,,,,,,94,WORD,"ID",16,travel,TRAVEL,m,,,,,,0.141666667,-0.217592593,0,0,0,space,0,120,120,93,1,13.464365
,,,,,,,,,,,,,,,,,,5f12a59abbb7d320699d062f,2020-11-26_15h57.40.166,lexical_decision_task_MP_exp2,2020.2.5,Win32,60,,z,1,0.790175,,,,,,,,0.790175,1,,,,,,378,NW,UN,33,auting,SHRILE,z,,,,,,0.141666667,-0.217592593,0,0,0,,0,121,121,377,1,
,,,,,,,,,,,,,,,,,,5f12a59abbb7d320699d062f,2020-11-26_15h57.40.166,lexical_decision_task_MP_exp2,2020.2.5,Win32,60,,z,1,1.054355,,,,,,,,1.054355,1,,,,,,442,NW,UN,16,dorsex,ABOUNE,z,,,,,,0.141666667,-0.217592593,0,0,0,,0,122,122,441,1,
,,,,,,,,,,,,,,,,,,5f12a59abbb7d320699d062f,2020-11-26_15h57.40.166,lexical_decision_task_MP_exp2,2020.2.5,Win32,60,,z,1,0.639595,,,,,,,,0.639595,1,,,,,,403,NW,UN,33,cluirm,BRUATS,z,,,,,,0.141666667,-0.217592593,0,0,0,,0,123,123,402,1,
,,,,,,,,,,,,,,,,,,5f12a59abbb7d320699d062f,2020-11-26_15h57.40.166,lexical_decision_task_MP_exp2,2020.2.5,Win32,60,,m,1,0.55181,,,,,,,,0.55181,1,,,,,,224,WORD,UN,16,vulgar,PERIOD,m,,,,,,0.141666667,-0.217592593,0,0,0,,0,124,124,223,1,
,,,,,,,,,,,,,,,,,,5f12a59abbb7d320699d062f,2020-11-26_15h57.40.166,lexical_decision_task_MP_exp2,2020.2.5,Win32,60,,z,1,0.658075,,,,,,,,0.658075,1,,,,,,276,NW,"ID",33,yarmon,YARMON,z,,,,,,0.141666667,-0.217592593,0,0,0,,0,125,125,275,1,
,,,,,,,,,,,,,,,,,,5f12a59abbb7d320699d062f,2020-11-26_15h57.40.166,lexical_decision_task_MP_exp2,2020.2.5,Win32,60,,m,1,0.743715,,,,,,,,0.743715,1,,,,,,139,WORD,UN,33,prince,DEBRIS,m,,,,,,0.141666667,-0.217592593,0,0,0,,0,126,126,138,1,
,,,,,,,,,,,,,,,,,,5f12a59abbb7d320699d062f,2020-11-26_15h57.40.166,lexical_decision_task_MP_exp2,2020.2.5,Win32,60,,z,1,0.94267,,,,,,,,0.94267,1,,,,,,405,NW,UN,33,nouply,FLUMNI,z,,,,,,0.141666667,-0.217592593,0,0,0,,0,127,127,404,1,
,,,,,,,,,,,,,,,,,,5f12a59abbb7d320699d062f,2020-11-26_15h57.40.166,lexical_decision_task_MP_exp2,2020.2.5,Win32,60,,m,1,0.668105,,,,,,,,0.668105,1,,,,,,53,WORD,"ID",33,police,POLICE,m,,,,,,0.141666667,-0.217592593,0,0,0,,0,128,128,52,1,
,,,,,,,,,,,,,,,,,,5f12a59abbb7d320699d062f,2020-11-26_15h57.40.166,lexical_decision_task_MP_exp2,2020.2.5,Win32,60,,z,1,0.77625,,,,,,,,0.77625,1,,,,,,341,NW,"ID",16,myrtie,MYRTIE,z,,,,,,0.141666667,-0.217592593,0,0,0,,0,129,129,340,1,
,,,,,,,,,,,,,,,,,,5f12a59abbb7d320699d062f,2020-11-26_15h57.40.166,lexical_decision_task_MP_exp2,2020.2.5,Win32,60,,z,1,0.68892,,,,,,,,0.68892,1,,,,,,259,NW,"ID",33,soudal,SOUDAL,z,,,,,,0.141666667,-0.217592593,0,0,0,,0,130,130,258,1,
,,,,,,,,,,,,,,,,,,5f12a59abbb7d320699d062f,2020-11-26_15h57.40.166,lexical_decision_task_MP_exp2,2020.2.5,Win32,60,,m,1,0.56104,,,,,,,,0.56104,1,,,,,,233,WORD,UN,16,clumsy,NATURE,m,,,,,,0.141666667,-0.217592593,0,0,0,,0,131,131,232,1,
,,,,,,,,,,,,,,,,,,5f12a59abbb7d320699d062f,2020-11-26_15h57.40.166,lexical_decision_task_MP_exp2,2020.2.5,Win32,60,,z,1,0.88551,,,,,,,,0.88551,1,,,,,,358,NW,"ID",16,fleack,FLEACK,z,,,,,,0.141666667,-0.217592593,0,0,0,,0,132,132,357,1,
,,,,,,,,,,,,,,,,,,5f12a59abbb7d320699d062f,2020-11-26_15h57.40.166,lexical_decision_task_MP_exp2,2020.2.5,Win32,60,,m,0,0.986465,,,,,,,,0.986465,0,,,,,,374,NW,UN,33,yorque,SLIANT,z,,,,,,0.141666667,-0.217592593,0,0,0,,0,133,133,373,1,
,,,,,,,,,,,,,,,,,,5f12a59abbb7d320699d062f,2020-11-26_15h57.40.166,lexical_decision_task_MP_exp2,2020.2.5,Win32,60,,z,1,0.74764,,,,,,,,0.74764,1,,,,,,359,NW,"ID",16,fonver,FONVER,z,,,,,,0.141666667,-0.217592593,0,0,0,,0,134,134,358,1,
,,,,,,,,,,,,,,,,,,5f12a59abbb7d320699d062f,2020-11-26_15h57.40.166,lexical_decision_task_MP_exp2,2020.2.5,Win32,60,,m,1,0.63185,,,,,,,,0.63185,1,,,,,,147,WORD,UN,33,custom,GARLIC,m,,,,,,0.141666667,-0.217592593,0,0,0,,0,135,135,146,1,
,,,,,,,,,,,,,,,,,,5f12a59abbb7d320699d062f,2020-11-26_15h57.40.166,lexical_decision_task_MP_exp2,2020.2.5,Win32,60,,m,1,0.731245,,,,,,,,0.731245,1,,,,,,110,WORD,"ID",16,polite,POLITE,m,,,,,,0.141666667,-0.217592593,0,0,0,,0,136,136,109,1,
,,,,,,,,,,,,,,,,,,5f12a59abbb7d320699d062f,2020-11-26_15h57.40.166,lexical_decision_task_MP_exp2,2020.2.5,Win32,60,,z,1,0.669505,,,,,,,,0.669505,1,,,,,,287,NW,"ID",33,nymbel,NYMBEL,z,,,,,,0.141666667,-0.217592593,0,0,0,,0,137,137,286,1,
,,,,,,,,,,,,,,,,,,5f12a59abbb7d320699d062f,2020-11-26_15h57.40.166,lexical_decision_task_MP_exp2,2020.2.5,Win32,60,,m,1,1.0582,,,,,,,,1.0582,1,,,,,,62,WORD,"ID",16,region,REGION,m,,,,,,0.141666667,-0.217592593,0,0,0,,0,138,138,61,1,
,,,,,,,,,,,,,,,,,,5f12a59abbb7d320699d062f,2020-11-26_15h57.40.166,lexical_decision_task_MP_exp2,2020.2.5,Win32,60,,z,1,0.65947,,,,,,,,0.65947,1,,,,,,275,NW,"ID",33,sleirt,SLEIRT,z,,,,,,0.141666667,-0.217592593,0,0,0,,0,139,139,274,1,
,,,,,,,,,,,,,,,,,,5f12a59abbb7d320699d062f,2020-11-26_15h57.40.166,lexical_decision_task_MP_exp2,2020.2.5,Win32,60,,m,1,0.51598,,,,,,,,0.51598,1,,,,,,80,WORD,"ID",16,family,FAMILY,m,,,,,,0.141666667,-0.217592593,0,0,0,,0,140,140,79,1,
,,,,,,,,,,,,,,,,,,5f12a59abbb7d320699d062f,2020-11-26_15h57.40.166,lexical_decision_task_MP_exp2,2020.2.5,Win32,60,,z,1,0.601315,,,,,,,,0.601315,1,,,,,,338,NW,"ID",16,wreash,WREASH,z,,,,,,0.141666667,-0.217592593,0,0,0,,0,141,141,337,1,
,,,,,,,,,,,,,,,,,,5f12a59abbb7d320699d062f,2020-11-26_15h57.40.166,lexical_decision_task_MP_exp2,2020.2.5,Win32,60,,z,1,0.670675,,,,,,,,0.670675,1,,,,,,321,NW,"ID",16,miator,MIATOR,z,,,,,,0.141666667,-0.217592593,0,0,0,,0,142,142,320,1,
,,,,,,,,,,,,,,,,,,5f12a59abbb7d320699d062f,2020-11-26_15h57.40.166,lexical_decision_task_MP_exp2,2020.2.5,Win32,60,,m,1,0.63239,,,,,,,,0.63239,1,,,,,,72,WORD,"ID",16,bright,BRIGHT,m,,,,,,0.141666667,-0.217592593,0,0,0,,0,143,143,71,1,
,,,,,,,,,,,,,,,,,,5f12a59abbb7d320699d062f,2020-11-26_15h57.40.166,lexical_decision_task_MP_exp2,2020.2.5,Win32,60,,z,1,0.562355,,,,,,,,0.562355,1,,,,,,356,NW,"ID",16,othnis,OTHNIS,z,,,,,,0.141666667,-0.217592593,0,0,0,,0,144,144,355,1,
,,,,,,,,,,,,,,,,,,5f12a59abbb7d320699d062f,2020-11-26_15h57.40.166,lexical_decision_task_MP_exp2,2020.2.5,Win32,60,,z,0,0.66437,,,,,,,,0.66437,0,,,,,,83,WORD,"ID",16,result,RESULT,m,,,,,,0.141666667,-0.217592593,0,0,0,,0,145,145,82,1,
,,,,,,,,,,,,,,,,,,5f12a59abbb7d320699d062f,2020-11-26_15h57.40.166,lexical_decision_task_MP_exp2,2020.2.5,Win32,60,,m,1,0.540065,,,,,,,,0.540065,1,,,,,,6,WORD,"ID",33,bundle,BUNDLE,m,,,,,,0.141666667,-0.217592593,0,0,0,,0,146,146,5,1,
,,,,,,,,,,,,,,,,,,5f12a59abbb7d320699d062f,2020-11-26_15h57.40.166,lexical_decision_task_MP_exp2,2020.2.5,Win32,60,,m,0,1.13674,,,,,,,,1.13674,0,,,,,,272,NW,"ID",33,damilt,DAMILT,z,,,,,,0.141666667,-0.217592593,0,0,0,,0,147,147,271,1,
,,,,,,,,,,,,,,,,,,5f12a59abbb7d320699d062f,2020-11-26_15h57.40.166,lexical_decision_task_MP_exp2,2020.2.5,Win32,60,,m,1,0.48482,,,,,,,,0.48482,1,,,,,,214,WORD,UN,16,phobia,INTAKE,m,,,,,,0.141666667,-0.217592593,0,0,0,,0,148,148,213,1,
,,,,,,,,,,,,,,,,,,5f12a59abbb7d320699d062f,2020-11-26_15h57.40.166,lexical_decision_task_MP_exp2,2020.2.5,Win32,60,,z,1,0.708665,,,,,,,,0.708665,1,,,,,,449,NW,UN,16,phrect,BRUNGE,z,,,,,,0.141666667,-0.217592593,0,0,0,,0,149,149,448,1,
,,,,,,,,,,,,,,,,,,5f12a59abbb7d320699d062f,2020-11-26_15h57.40.166,lexical_decision_task_MP_exp2,2020.2.5,Win32,60,,z,1,0.73845,,,,,,,,0.73845,1,,,,,,297,NW,"ID",33,fertic,FERTIC,z,,,,,,0.141666667,-0.217592593,0,0,0,,0,150,150,296,1,
,,,,,,,,,,,,,,,,,,5f12a59abbb7d320699d062f,2020-11-26_15h57.40.166,lexical_decision_task_MP_exp2,2020.2.5,Win32,60,,z,1,0.85828,,,,,,,,0.85828,1,,,,,,319,NW,"ID",16,zomber,ZOMBER,z,,,,,,0.141666667,-0.217592593,0,0,0,,0,151,151,318,1,
,,,,,,,,,,,,,,,,,,5f12a59abbb7d320699d062f,2020-11-26_15h57.40.166,lexical_decision_task_MP_exp2,2020.2.5,Win32,60,,m,1,0.572565,,,,,,,,0.572565,1,,,,,,130,WORD,UN,33,quench,STUPID,m,,,,,,0.141666667,-0.217592593,0,0,0,,0,152,152,129,1,
,,,,,,,,,,,,,,,,,,5f12a59abbb7d320699d062f,2020-11-26_15h57.40.166,lexical_decision_task_MP_exp2,2020.2.5,Win32,60,,m,0,0.741975,,,,,,,,0.741975,0,,,,,,299,NW,"ID",33,sturch,STURCH,z,,,,,,0.141666667,-0.217592593,0,0,0,,0,153,153,298,1,
,,,,,,,,,,,,,,,,,,5f12a59abbb7d320699d062f,2020-11-26_15h57.40.166,lexical_decision_task_MP_exp2,2020.2.5,Win32,60,,z,1,0.88366,,,,,,,,0.88366,1,,,,,,316,NW,"ID",16,scregm,SCREGM,z,,,,,,0.141666667,-0.217592593,0,0,0,,0,154,154,315,1,
,,,,,,,,,,,,,,,,,,5f12a59abbb7d320699d062f,2020-11-26_15h57.40.166,lexical_decision_task_MP_exp2,2020.2.5,Win32,60,,z,1,0.6471,,,,,,,,0.6471,1,,,,,,248,NW,"ID",33,strole,STROLE,z,,,,,,0.141666667,-0.217592593,0,0,0,,0,155,155,247,1,
,,,,,,,,,,,,,,,,,,5f12a59abbb7d320699d062f,2020-11-26_15h57.40.166,lexical_decision_task_MP_exp2,2020.2.5,Win32,60,,z,1,0.731145,,,,,,,,0.731145,1,,,,,,283,NW,"ID",33,veralf,VERALF,z,,,,,,0.141666667,-0.217592593,0,0,0,,0,156,156,282,1,
,,,,,,,,,,,,,,,,,,5f12a59abbb7d320699d062f,2020-11-26_15h57.40.166,lexical_decision_task_MP_exp2,2020.2.5,Win32,60,,m,1,0.68809,,,,,,,,0.68809,1,,,,,,151,WORD,UN,33,rocket,MYSTIC,m,,,,,,0.141666667,-0.217592593,0,0,0,,0,157,157,150,1,
,,,,,,,,,,,,,,,,,,5f12a59abbb7d320699d062f,2020-11-26_15h57.40.166,lexical_decision_task_MP_exp2,2020.2.5,Win32,60,,m,1,0.57038,,,,,,,,0.57038,1,,,,,,232,WORD,UN,16,nature,INJECT,m,,,,,,0.141666667,-0.217592593,0,0,0,,0,158,158,231,1,
,,,,,,,,,,,,,,,,,,5f12a59abbb7d320699d062f,2020-11-26_15h57.40.166,lexical_decision_task_MP_exp2,2020.2.5,Win32,60,,m,1,0.471415,,,,,,,,0.471415,1,,,,,,239,WORD,UN,16,forest,LUMBER,m,,,,,,0.141666667,-0.217592593,0,0,0,,0,159,159,238,1,
,,,,,,,,,,,,,,,,,,5f12a59abbb7d320699d062f,2020-11-26_15h57.40.166,lexical_decision_task_MP_exp2,2020.2.5,Win32,60,,z,1,0.612385,,,,,,,,0.612385,1,,,,,,415,NW,UN,33,pathel,HIGSTA,z,,,,,,0.141666667,-0.217592593,0,0,0,,0,160,160,414,1,
,,,,,,,,,,,,,,,,,,5f12a59abbb7d320699d062f,2020-11-26_15h57.40.166,lexical_decision_task_MP_exp2,2020.2.5,Win32,60,,m,1,0.600215,,,,,,,,0.600215,1,,,,,,82,WORD,"ID",16,stigma,STIGMA,m,,,,,,0.141666667,-0.217592593,0,0,0,,0,161,161,81,1,
,,,,,,,,,,,,,,,,,,5f12a59abbb7d320699d062f,2020-11-26_15h57.40.166,lexical_decision_task_MP_exp2,2020.2.5,Win32,60,,z,1,0.633835,,,,,,,,0.633835,1,,,,,,295,NW,"ID",33,gleath,GLEATH,z,,,,,,0.141666667,-0.217592593,0,0,0,,0,162,162,294,1,
,,,,,,,,,,,,,,,,,,5f12a59abbb7d320699d062f,2020-11-26_15h57.40.166,lexical_decision_task_MP_exp2,2020.2.5,Win32,60,,z,1,0.604295,,,,,,,,0.604295,1,,,,,,254,NW,"ID",33,varosh,VAROSH,z,,,,,,0.141666667,-0.217592593,0,0,0,,0,163,163,253,1,
,,,,,,,,,,,,,,,,,,5f12a59abbb7d320699d062f,2020-11-26_15h57.40.166,lexical_decision_task_MP_exp2,2020.2.5,Win32,60,,m,1,0.52383,,,,,,,,0.52383,1,,,,,,95,WORD,"ID",16,thread,THREAD,m,,,,,,0.141666667,-0.217592593,0,0,0,,0,164,164,94,1,
,,,,,,,,,,,,,,,,,,5f12a59abbb7d320699d062f,2020-11-26_15h57.40.166,lexical_decision_task_MP_exp2,2020.2.5,Win32,60,,m,1,0.61762,,,,,,,,0.61762,1,,,,,,140,WORD,UN,33,reason,PRINCE,m,,,,,,0.141666667,-0.217592593,0,0,0,,0,165,165,139,1,
,,,,,,,,,,,,,,,,,,5f12a59abbb7d320699d062f,2020-11-26_15h57.40.166,lexical_decision_task_MP_exp2,2020.2.5,Win32,60,,z,1,0.724865,,,,,,,,0.724865,1,,,,,,249,NW,"ID",33,batrol,BATROL,z,,,,,,0.141666667,-0.217592593,0,0,0,,0,166,166,248,1,
,,,,,,,,,,,,,,,,,,5f12a59abbb7d320699d062f,2020-11-26_15h57.40.166,lexical_decision_task_MP_exp2,2020.2.5,Win32,60,,m,1,0.457805,,,,,,,,0.457805,1,,,,,,154,WORD,UN,33,lizard,AUTHOR,m,,,,,,0.141666667,-0.217592593,0,0,0,,0,167,167,153,1,
,,,,,,,,,,,,,,,,,,5f12a59abbb7d320699d062f,2020-11-26_15h57.40.166,lexical_decision_task_MP_exp2,2020.2.5,Win32,60,,z,1,0.58354,,,,,,,,0.58354,1,,,,,,394,NW,UN,33,colury,SPAQUX,z,,,,,,0.141666667,-0.217592593,0,0,0,,0,168,168,393,1,
,,,,,,,,,,,,,,,,,,5f12a59abbb7d320699d062f,2020-11-26_15h57.40.166,lexical_decision_task_MP_exp2,2020.2.5,Win32,60,,z,1,0.72335,,,,,,,,0.72335,1,,,,,,439,NW,UN,16,saride,LIMPOR,z,,,,,,0.141666667,-0.217592593,0,0,0,,0,169,169,438,1,
,,,,,,,,,,,,,,,,,,5f12a59abbb7d320699d062f,2020-11-26_15h57.40.166,lexical_decision_task_MP_exp2,2020.2.5,Win32,60,,z,1,0.55088,,,,,,,,0.55088,1,,,,,,290,NW,"ID",33,splino,SPLINO,z,,,,,,0.141666667,-0.217592593,0,0,0,,0,170,170,289,1,
,,,,,,,,,,,,,,,,,,5f12a59abbb7d320699d062f,2020-11-26_15h57.40.166,lexical_decision_task_MP_exp2,2020.2.5,Win32,60,,z,1,0.50697,,,,,,,,0.50697,1,,,,,,461,NW,UN,16,absult,JUSTRE,z,,,,,,0.141666667,-0.217592593,0,0,0,,0,171,171,460,1,
,,,,,,,,,,,,,,,,,,5f12a59abbb7d320699d062f,2020-11-26_15h57.40.166,lexical_decision_task_MP_exp2,2020.2.5,Win32,60,,z,1,0.52611,,,,,,,,0.52611,1,,,,,,318,NW,"ID",16,reagly,REAGLY,z,,,,,,0.141666667,-0.217592593,0,0,0,,0,172,172,317,1,
,,,,,,,,,,,,,,,,,,5f12a59abbb7d320699d062f,2020-11-26_15h57.40.166,lexical_decision_task_MP_exp2,2020.2.5,Win32,60,,m,1,0.60411,,,,,,,,0.60411,1,,,,,,64,WORD,"ID",16,throne,THRONE,m,,,,,,0.141666667,-0.217592593,0,0,0,,0,173,173,63,1,
,,,,,,,,,,,,,,,,,,5f12a59abbb7d320699d062f,2020-11-26_15h57.40.166,lexical_decision_task_MP_exp2,2020.2.5,Win32,60,,m,0,1.224325,,,,,,,,1.224325,0,,,,,,303,NW,"ID",16,fiream,FIREAM,z,,,,,,0.141666667,-0.217592593,0,0,0,,0,174,174,302,1,
,,,,,,,,,,,,,,,,,,5f12a59abbb7d320699d062f,2020-11-26_15h57.40.166,lexical_decision_task_MP_exp2,2020.2.5,Win32,60,,z,1,0.678115,,,,,,,,0.678115,1,,,,,,347,NW,"ID",16,kerift,KERIFT,z,,,,,,0.141666667,-0.217592593,0,0,0,,0,175,175,346,1,
,,,,,,,,,,,,,,,,,,5f12a59abbb7d320699d062f,2020-11-26_15h57.40.166,lexical_decision_task_MP_exp2,2020.2.5,Win32,60,,m,1,0.72731,,,,,,,,0.72731,1,,,,,,206,WORD,UN,16,wreath,TAILOR,m,,,,,,0.141666667,-0.217592593,0,0,0,,0,176,176,205,1,
,,,,,,,,,,,,,,,,,,5f12a59abbb7d320699d062f,2020-11-26_15h57.40.166,lexical_decision_task_MP_exp2,2020.2.5,Win32,60,,z,1,0.78526,,,,,,,,0.78526,1,,,,,,331,NW,"ID",16,gilfew,GILFEW,z,,,,,,0.141666667,-0.217592593,0,0,0,,0,177,177,330,1,
,,,,,,,,,,,,,,,,,,5f12a59abbb7d320699d062f,2020-11-26_15h57.40.166,lexical_decision_task_MP_exp2,2020.2.5,Win32,60,,z,1,0.728295,,,,,,,,0.728295,1,,,,,,396,NW,UN,33,camble,FLENGY,z,,,,,,0.141666667,-0.217592593,0,0,0,,0,178,178,395,1,
,,,,,,,,,,,,,,,,,,5f12a59abbb7d320699d062f,2020-11-26_15h57.40.166,lexical_decision_task_MP_exp2,2020.2.5,Win32,60,,m,1,0.58234,,,,,,,,0.58234,1,,,,,,204,WORD,UN,16,lounge,BURDEN,m,,,,,,0.141666667,-0.217592593,0,0,0,,0,179,179,203,1,
,,,,,,,,,,,,,,,,,,5f12a59abbb7d320699d062f,2020-11-26_15h57.40.166,lexical_decision_task_MP_exp2,2020.2.5,Win32,60,,m,1,0.469985,,,,,,,,0.469985,1,,,,,,109,WORD,"ID",16,wonder,WONDER,m,,,,,,0.141666667,-0.217592593,0,0,0,,0,180,180,108,1,
,,,,,,,,,,,,,,,,,,5f12a59abbb7d320699d062f,2020-11-26_15h57.40.166,lexical_decision_task_MP_exp2,2020.2.5,Win32,60,,z,1,0.650695,,,,,,,,0.650695,1,,,,,,242,NW,"ID",33,unwert,UNWERT,z,,,,,,0.141666667,-0.217592593,0,0,0,,0,181,181,241,1,
,,,,,,,,,,,,,,,,,,5f12a59abbb7d320699d062f,2020-11-26_15h57.40.166,lexical_decision_task_MP_exp2,2020.2.5,Win32,60,,z,1,0.544455,,,,,,,,0.544455,1,,,,,,247,NW,"ID",33,blarge,BLARGE,z,,,,,,0.141666667,-0.217592593,0,0,0,,0,182,182,246,1,
,,,,,,,,,,,,,,,,,,5f12a59abbb7d320699d062f,2020-11-26_15h57.40.166,lexical_decision_task_MP_exp2,2020.2.5,Win32,60,,z,1,0.797895,,,,,,,,0.797895,1,,,,,,364,NW,UN,33,guairt,IMPOTE,z,,,,,,0.141666667,-0.217592593,0,0,0,,0,183,183,363,1,
,,,,,,,,,,,,,,,,,,5f12a59abbb7d320699d062f,2020-11-26_15h57.40.166,lexical_decision_task_MP_exp2,2020.2.5,Win32,60,,z,0,0.534815,,,,,,,,0.534815,0,,,,,,41,WORD,"ID",33,spring,SPRING,m,,,,,,0.141666667,-0.217592593,0,0,0,,0,184,184,40,1,
,,,,,,,,,,,,,,,,,,5f12a59abbb7d320699d062f,2020-11-26_15h57.40.166,lexical_decision_task_MP_exp2,2020.2.5,Win32,60,,z,1,0.64333,,,,,,,,0.64333,1,,,,,,266,NW,"ID",33,varmit,VARMIT,z,,,,,,0.141666667,-0.217592593,0,0,0,,0,185,185,265,1,
,,,,,,,,,,,,,,,,,,5f12a59abbb7d320699d062f,2020-11-26_15h57.40.166,lexical_decision_task_MP_exp2,2020.2.5,Win32,60,,m,1,0.674335,,,,,,,,0.674335,1,,,,,,136,WORD,UN,33,finger,BLEACH,m,,,,,,0.141666667,-0.217592593,0,0,0,,0,186,186,135,1,
,,,,,,,,,,,,,,,,,,5f12a59abbb7d320699d062f,2020-11-26_15h57.40.166,lexical_decision_task_MP_exp2,2020.2.5,Win32,60,,z,1,0.730095,,,,,,,,0.730095,1,,,,,,304,NW,"ID",16,cludie,CLUDIE,z,,,,,,0.141666667,-0.217592593,0,0,0,,0,187,187,303,1,
,,,,,,,,,,,,,,,,,,5f12a59abbb7d320699d062f,2020-11-26_15h57.40.166,lexical_decision_task_MP_exp2,2020.2.5,Win32,60,,m,1,0.72665,,,,,,,,0.72665,1,,,,,,160,WORD,UN,33,dragon,VIOLET,m,,,,,,0.141666667,-0.217592593,0,0,0,,0,188,188,159,1,
,,,,,,,,,,,,,,,,,,5f12a59abbb7d320699d062f,2020-11-26_15h57.40.166,lexical_decision_task_MP_exp2,2020.2.5,Win32,60,,m,1,0.470385,,,,,,,,0.470385,1,,,,,,182,WORD,UN,16,basket,WINTER,m,,,,,,0.141666667,-0.217592593,0,0,0,,0,189,189,181,1,
,,,,,,,,,,,,,,,,,,5f12a59abbb7d320699d062f,2020-11-26_15h57.40.166,lexical_decision_task_MP_exp2,2020.2.5,Win32,60,,z,1,0.78644,,,,,,,,0.78644,1,,,,,,391,NW,UN,33,rouncy,THELDY,z,,,,,,0.141666667,-0.217592593,0,0,0,,0,190,190,390,1,
,,,,,,,,,,,,,,,,,,5f12a59abbb7d320699d062f,2020-11-26_15h57.40.166,lexical_decision_task_MP_exp2,2020.2.5,Win32,60,,m,1,0.548145,,,,,,,,0.548145,1,,,,,,149,WORD,UN,33,random,INVADE,m,,,,,,0.141666667,-0.217592593,0,0,0,,0,191,191,148,1,
,,,,,,,,,,,,,,,,,,5f12a59abbb7d320699d062f,2020-11-26_15h57.40.166,lexical_decision_task_MP_exp2,2020.2.5,Win32,60,,m,1,0.53991,,,,,,,,0.53991,1,,,,,,106,WORD,"ID",16,ransom,RANSOM,m,,,,,,0.141666667,-0.217592593,0,0,0,,0,192,192,105,1,
,,,,,,,,,,,,,,,,,,5f12a59abbb7d320699d062f,2020-11-26_15h57.40.166,lexical_decision_task_MP_exp2,2020.2.5,Win32,60,,z,1,0.601755,,,,,,,,0.601755,1,,,,,,458,NW,UN,16,chaite,BARCET,z,,,,,,0.141666667,-0.217592593,0,0,0,,0,193,193,457,1,
,,,,,,,,,,,,,,,,,,5f12a59abbb7d320699d062f,2020-11-26_15h57.40.166,lexical_decision_task_MP_exp2,2020.2.5,Win32,60,,m,1,0.541725,,,,,,,,0.541725,1,,,,,,101,WORD,"ID",16,wrench,WRENCH,m,,,,,,0.141666667,-0.217592593,0,0,0,,0,194,194,100,1,
,,,,,,,,,,,,,,,,,,5f12a59abbb7d320699d062f,2020-11-26_15h57.40.166,lexical_decision_task_MP_exp2,2020.2.5,Win32,60,,m,1,0.610065,,,,,,,,0.610065,1,,,,,,58,WORD,"ID",33,foster,FOSTER,m,,,,,,0.141666667,-0.217592593,0,0,0,,0,195,195,57,1,
,,,,,,,,,,,,,,,,,,5f12a59abbb7d320699d062f,2020-11-26_15h57.40.166,lexical_decision_task_MP_exp2,2020.2.5,Win32,60,,m,0,0.779955,,,,,,,,0.779955,0,,,,,,320,NW,"ID",16,jockal,JOCKAL,z,,,,,,0.141666667,-0.217592593,0,0,0,,0,196,196,319,1,
,,,,,,,,,,,,,,,,,,5f12a59abbb7d320699d062f,2020-11-26_15h57.40.166,lexical_decision_task_MP_exp2,2020.2.5,Win32,60,,z,1,0.831045,,,,,,,,0.831045,1,,,,,,393,NW,UN,33,spaqux,GANOUS,z,,,,,,0.141666667,-0.217592593,0,0,0,,0,197,197,392,1,
,,,,,,,,,,,,,,,,,,5f12a59abbb7d320699d062f,2020-11-26_15h57.40.166,lexical_decision_task_MP_exp2,2020.2.5,Win32,60,,m,1,0.73304,,,,,,,,0.73304,1,,,,,,128,WORD,UN,33,marvel,SENIOR,m,,,,,,0.141666667,-0.217592593,0,0,0,,0,198,198,127,1,
,,,,,,,,,,,,,,,,,,5f12a59abbb7d320699d062f,2020-11-26_15h57.40.166,lexical_decision_task_MP_exp2,2020.2.5,Win32,60,,z,1,0.67759,,,,,,,,0.67759,1,,,,,,312,NW,"ID",16,nerawl,NERAWL,z,,,,,,0.141666667,-0.217592593,0,0,0,,0,199,199,311,1,
,,,,,,,,,,,,,,,,,,5f12a59abbb7d320699d062f,2020-11-26_15h57.40.166,lexical_decision_task_MP_exp2,2020.2.5,Win32,60,,z,1,0.64564,,,,,,,,0.64564,1,,,,,,313,NW,"ID",16,paurse,PAURSE,z,,,,,,0.141666667,-0.217592593,0,0,0,,0,200,200,312,1,
,,,,,,,,,,,,,,,,,,5f12a59abbb7d320699d062f,2020-11-26_15h57.40.166,lexical_decision_task_MP_exp2,2020.2.5,Win32,60,,m,1,0.520995,,,,,,,,0.520995,1,,,,,,210,WORD,UN,16,infect,MONKEY,m,,,,,,0.141666667,-0.217592593,0,0,0,,0,201,201,209,1,
,,,,,,,,,,,,,,,,,,5f12a59abbb7d320699d062f,2020-11-26_15h57.40.166,lexical_decision_task_MP_exp2,2020.2.5,Win32,60,,z,1,0.9225,,,,,,,,0.9225,1,,,,,,412,NW,UN,33,equats,JILUER,z,,,,,,0.141666667,-0.217592593,0,0,0,,0,202,202,411,1,
,,,,,,,,,,,,,,,,,,5f12a59abbb7d320699d062f,2020-11-26_15h57.40.166,lexical_decision_task_MP_exp2,2020.2.5,Win32,60,,z,1,0.69193,,,,,,,,0.69193,1,,,,,,428,NW,UN,16,chrums,TANDLY,z,,,,,,0.141666667,-0.217592593,0,0,0,,0,203,203,427,1,
,,,,,,,,,,,,,,,,,,5f12a59abbb7d320699d062f,2020-11-26_15h57.40.166,lexical_decision_task_MP_exp2,2020.2.5,Win32,60,,m,1,0.843005,,,,,,,,0.843005,1,,,,,,125,WORD,UN,33,blouse,NICKEL,m,,,,,,0.141666667,-0.217592593,0,0,0,,0,204,204,124,1,
,,,,,,,,,,,,,,,,,,5f12a59abbb7d320699d062f,2020-11-26_15h57.40.166,lexical_decision_task_MP_exp2,2020.2.5,Win32,60,,m,1,0.964255,,,,,,,,0.964255,1,,,,,,131,WORD,UN,33,strong,QUENCH,m,,,,,,0.141666667,-0.217592593,0,0,0,,0,205,205,130,1,
,,,,,,,,,,,,,,,,,,5f12a59abbb7d320699d062f,2020-11-26_15h57.40.166,lexical_decision_task_MP_exp2,2020.2.5,Win32,60,,z,1,1.008565,,,,,,,,1.008565,1,,,,,,332,NW,"ID",16,vangue,VANGUE,z,,,,,,0.141666667,-0.217592593,0,0,0,,0,206,206,331,1,
,,,,,,,,,,,,,,,,,,5f12a59abbb7d320699d062f,2020-11-26_15h57.40.166,lexical_decision_task_MP_exp2,2020.2.5,Win32,60,,m,1,0.607735,,,,,,,,0.607735,1,,,,,,175,WORD,UN,33,strife,FABRIC,m,,,,,,0.141666667,-0.217592593,0,0,0,,0,207,207,174,1,
,,,,,,,,,,,,,,,,,,5f12a59abbb7d320699d062f,2020-11-26_15h57.40.166,lexical_decision_task_MP_exp2,2020.2.5,Win32,60,,z,1,0.797895,,,,,,,,0.797895,1,,,,,,466,NW,UN,16,pebric,HOCITE,z,,,,,,0.141666667,-0.217592593,0,0,0,,0,208,208,465,1,
,,,,,,,,,,,,,,,,,,5f12a59abbb7d320699d062f,2020-11-26_15h57.40.166,lexical_decision_task_MP_exp2,2020.2.5,Win32,60,,m,1,0.53395,,,,,,,,0.53395,1,,,,,,21,WORD,"ID",33,simple,SIMPLE,m,,,,,,0.141666667,-0.217592593,0,0,0,,0,209,209,20,1,
,,,,,,,,,,,,,,,,,,5f12a59abbb7d320699d062f,2020-11-26_15h57.40.166,lexical_decision_task_MP_exp2,2020.2.5,Win32,60,,z,1,0.708015,,,,,,,,0.708015,1,,,,,,267,NW,"ID",33,pasink,PASINK,z,,,,,,0.141666667,-0.217592593,0,0,0,,0,210,210,266,1,
,,,,,,,,,,,,,,,,,,5f12a59abbb7d320699d062f,2020-11-26_15h57.40.166,lexical_decision_task_MP_exp2,2020.2.5,Win32,60,,m,1,0.77268,,,,,,,,0.77268,1,,,,,,181,WORD,UN,16,winter,GLANCE,m,,,,,,0.141666667,-0.217592593,0,0,0,,0,211,211,180,1,
,,,,,,,,,,,,,,,,,,5f12a59abbb7d320699d062f,2020-11-26_15h57.40.166,lexical_decision_task_MP_exp2,2020.2.5,Win32,60,,m,0,0.730045,,,,,,,,0.730045,0,,,,,,475,NW,UN,16,robuly,PEBRIC,z,,,,,,0.141666667,-0.217592593,0,0,0,,0,212,212,474,1,
,,,,,,,,,,,,,,,,,,5f12a59abbb7d320699d062f,2020-11-26_15h57.40.166,lexical_decision_task_MP_exp2,2020.2.5,Win32,60,,m,1,0.53856,,,,,,,,0.53856,1,,,,,,168,WORD,UN,33,genius,ANSWER,m,,,,,,0.141666667,-0.217592593,0,0,0,,0,213,213,167,1,
,,,,,,,,,,,,,,,,,,5f12a59abbb7d320699d062f,2020-11-26_15h57.40.166,lexical_decision_task_MP_exp2,2020.2.5,Win32,60,,m,1,0.65048,,,,,,,,0.65048,1,,,,,,159,WORD,UN,33,violet,DETAIL,m,,,,,,0.141666667,-0.217592593,0,0,0,,0,214,214,158,1,
,,,,,,,,,,,,,,,,,,5f12a59abbb7d320699d062f,2020-11-26_15h57.40.166,lexical_decision_task_MP_exp2,2020.2.5,Win32,60,,z,1,0.701585,,,,,,,,0.701585,1,,,,,,376,NW,UN,33,sliant,IGUARE,z,,,,,,0.141666667,-0.217592593,0,0,0,,0,215,215,375,1,
,,,,,,,,,,,,,,,,,,5f12a59abbb7d320699d062f,2020-11-26_15h57.40.166,lexical_decision_task_MP_exp2,2020.2.5,Win32,60,,m,1,0.646135,,,,,,,,0.646135,1,,,,,,118,WORD,"ID",16,flight,FLIGHT,m,,,,,,0.141666667,-0.217592593,0,0,0,,0,216,216,117,1,
,,,,,,,,,,,,,,,,,,5f12a59abbb7d320699d062f,2020-11-26_15h57.40.166,lexical_decision_task_MP_exp2,2020.2.5,Win32,60,,m,1,0.64795,,,,,,,,0.64795,1,,,,,,137,WORD,UN,33,melody,FINGER,m,,,,,,0.141666667,-0.217592593,0,0,0,,0,217,217,136,1,
,,,,,,,,,,,,,,,,,,5f12a59abbb7d320699d062f,2020-11-26_15h57.40.166,lexical_decision_task_MP_exp2,2020.2.5,Win32,60,,z,1,0.641735,,,,,,,,0.641735,1,,,,,,386,NW,UN,33,gronce,ANCUST,z,,,,,,0.141666667,-0.217592593,0,0,0,,0,218,218,385,1,
,,,,,,,,,,,,,,,,,,5f12a59abbb7d320699d062f,2020-11-26_15h57.40.166,lexical_decision_task_MP_exp2,2020.2.5,Win32,60,,z,1,1.054655,,,,,,,,1.054655,1,,,,,,284,NW,"ID",33,shaple,SHAPLE,z,,,,,,0.141666667,-0.217592593,0,0,0,,0,219,219,283,1,
,,,,,,,,,,,,,,,,,,5f12a59abbb7d320699d062f,2020-11-26_15h57.40.166,lexical_decision_task_MP_exp2,2020.2.5,Win32,60,,z,1,0.579335,,,,,,,,0.579335,1,,,,,,333,NW,"ID",16,catrie,CATRIE,z,,,,,,0.141666667,-0.217592593,0,0,0,,0,220,220,332,1,
,,,,,,,,,,,,,,,,,,5f12a59abbb7d320699d062f,2020-11-26_15h57.40.166,lexical_decision_task_MP_exp2,2020.2.5,Win32,60,,m,1,0.62953,,,,,,,,0.62953,1,,,,,,103,WORD,"ID",16,bounce,BOUNCE,m,,,,,,0.141666667,-0.217592593,0,0,0,,0,221,221,102,1,
,,,,,,,,,,,,,,,,,,5f12a59abbb7d320699d062f,2020-11-26_15h57.40.166,lexical_decision_task_MP_exp2,2020.2.5,Win32,60,,m,1,0.73615,,,,,,,,0.73615,1,,,,,,120,WORD,"ID",16,strain,STRAIN,m,,,,,,0.141666667,-0.217592593,0,0,0,,0,222,222,119,1,
,,,,,,,,,,,,,,,,,,5f12a59abbb7d320699d062f,2020-11-26_15h57.40.166,lexical_decision_task_MP_exp2,2020.2.5,Win32,60,,m,1,0.630515,,,,,,,,0.630515,1,,,,,,22,WORD,"ID",33,jockey,JOCKEY,m,,,,,,0.141666667,-0.217592593,0,0,0,,0,223,223,21,1,
,,,,,,,,,,,,,,,,,,5f12a59abbb7d320699d062f,2020-11-26_15h57.40.166,lexical_decision_task_MP_exp2,2020.2.5,Win32,60,,m,1,0.49894,,,,,,,,0.49894,1,,,,,,73,WORD,"ID",16,source,SOURCE,m,,,,,,0.141666667,-0.217592593,0,0,0,,0,224,224,72,1,
,,,,,,,,,,,,,,,,,,5f12a59abbb7d320699d062f,2020-11-26_15h57.40.166,lexical_decision_task_MP_exp2,2020.2.5,Win32,60,,m,1,0.4498,,,,,,,,0.4498,1,,,,,,1,WORD,"ID",33,fright,FRIGHT,m,,,,,,0.141666667,-0.217592593,0,0,0,,0,225,225,0,1,
,,,,,,,,,,,,,,,,,,5f12a59abbb7d320699d062f,2020-11-26_15h57.40.166,lexical_decision_task_MP_exp2,2020.2.5,Win32,60,,m,1,0.594925,,,,,,,,0.594925,1,,,,,,194,WORD,UN,16,resign,ABSENT,m,,,,,,0.141666667,-0.217592593,0,0,0,,0,226,226,193,1,
,,,,,,,,,,,,,,,,,,5f12a59abbb7d320699d062f,2020-11-26_15h57.40.166,lexical_decision_task_MP_exp2,2020.2.5,Win32,60,,m,1,0.472455,,,,,,,,0.472455,1,,,,,,2,WORD,"ID",33,bridge,BRIDGE,m,,,,,,0.141666667,-0.217592593,0,0,0,,0,227,227,1,1,
,,,,,,,,,,,,,,,,,,5f12a59abbb7d320699d062f,2020-11-26_15h57.40.166,lexical_decision_task_MP_exp2,2020.2.5,Win32,60,,m,1,0.45972,,,,,,,,0.45972,1,,,,,,11,WORD,"ID",33,cruise,CRUISE,m,,,,,,0.141666667,-0.217592593,0,0,0,,0,228,228,10,1,
,,,,,,,,,,,,,,,,,,5f12a59abbb7d320699d062f,2020-11-26_15h57.40.166,lexical_decision_task_MP_exp2,2020.2.5,Win32,60,,z,1,0.7771,,,,,,,,0.7771,1,,,,,,474,NW,UN,16,gorbie,HABLIN,z,,,,,,0.141666667,-0.217592593,0,0,0,,0,229,229,473,1,
,,,,,,,,,,,,,,,,,,5f12a59abbb7d320699d062f,2020-11-26_15h57.40.166,lexical_decision_task_MP_exp2,2020.2.5,Win32,60,,m,1,0.76675,,,,,,,,0.76675,1,,,,,,221,WORD,UN,16,hinder,MASCOT,m,,,,,,0.141666667,-0.217592593,0,0,0,,0,230,230,220,1,
,,,,,,,,,,,,,,,,,,5f12a59abbb7d320699d062f,2020-11-26_15h57.40.166,lexical_decision_task_MP_exp2,2020.2.5,Win32,60,,m,1,0.636265,,,,,,,,0.636265,1,,,,,,207,WORD,UN,16,hockey,WREATH,m,,,,,,0.141666667,-0.217592593,0,0,0,,0,231,231,206,1,
,,,,,,,,,,,,,,,,,,5f12a59abbb7d320699d062f,2020-11-26_15h57.40.166,lexical_decision_task_MP_exp2,2020.2.5,Win32,60,,m,1,0.504455,,,,,,,,0.504455,1,,,,,,198,WORD,UN,16,invoke,WICKED,m,,,,,,0.141666667,-0.217592593,0,0,0,,0,232,232,197,1,
,,,,,,,,,,,,,,,,,,5f12a59abbb7d320699d062f,2020-11-26_15h57.40.166,lexical_decision_task_MP_exp2,2020.2.5,Win32,60,,z,1,0.73803,,,,,,,,0.73803,1,,,,,,280,NW,"ID",33,curbol,CURBOL,z,,,,,,0.141666667,-0.217592593,0,0,0,,0,233,233,279,1,
,,,,,,,,,,,,,,,,,,5f12a59abbb7d320699d062f,2020-11-26_15h57.40.166,lexical_decision_task_MP_exp2,2020.2.5,Win32,60,,m,1,0.633045,,,,,,,,0.633045,1,,,,,,158,WORD,UN,33,detail,ISLAND,m,,,,,,0.141666667,-0.217592593,0,0,0,,0,234,234,157,1,
,,,,,,,,,,,,,,,,,,5f12a59abbb7d320699d062f,2020-11-26_15h57.40.166,lexical_decision_task_MP_exp2,2020.2.5,Win32,60,,m,0,0.659675,,,,,,,,0.659675,0,,,,,,425,NW,UN,16,schind,FRUDGE,z,,,,,,0.141666667,-0.217592593,0,0,0,,0,235,235,424,1,
,,,,,,,,,,,,,,,,,,5f12a59abbb7d320699d062f,2020-11-26_15h57.40.166,lexical_decision_task_MP_exp2,2020.2.5,Win32,60,,z,1,0.822045,,,,,,,,0.822045,1,,,,,,255,NW,"ID",33,apight,APIGHT,z,,,,,,0.141666667,-0.217592593,0,0,0,,0,236,236,254,1,
,,,,,,,,,,,,,,,,,,5f12a59abbb7d320699d062f,2020-11-26_15h57.40.166,lexical_decision_task_MP_exp2,2020.2.5,Win32,60,,z,1,0.83543,,,,,,,,0.83543,1,,,,,,244,NW,"ID",33,eatric,EATRIC,z,,,,,,0.141666667,-0.217592593,0,0,0,,0,237,237,243,1,
,,,,,,,,,,,,,,,,,,5f12a59abbb7d320699d062f,2020-11-26_15h57.40.166,lexical_decision_task_MP_exp2,2020.2.5,Win32,60,,z,1,0.653815,,,,,,,,0.653815,1,,,,,,258,NW,"ID",33,poluth,POLUTH,z,,,,,,0.141666667,-0.217592593,0,0,0,,0,238,238,257,1,
,,,,,,,,,,,,,,,,,,5f12a59abbb7d320699d062f,2020-11-26_15h57.40.166,lexical_decision_task_MP_exp2,2020.2.5,Win32,60,,z,1,0.72825,,,,,,,,0.72825,1,,,,,,454,NW,UN,16,tondle,SCOUGE,z,,,,,,0.141666667,-0.217592593,0,0,0,,0,239,239,453,1,
,,,,,,,,,,,,,,,,,,5f12a59abbb7d320699d062f,2020-11-26_15h57.40.166,lexical_decision_task_MP_exp2,2020.2.5,Win32,60,,z,1,0.588815,,,,,,,,0.588815,1,,,,,,385,NW,UN,33,ancust,VEIGMA,z,,,,,,0.141666667,-0.217592593,0,0,0,,0,240,240,384,1,
,,,,,,,,,,,,,,,,,,5f12a59abbb7d320699d062f,2020-11-26_15h57.40.166,lexical_decision_task_MP_exp2,2020.2.5,Win32,60,,z,1,0.73456,,,,,,,,0.73456,1,,,,,,293,NW,"ID",33,swance,SWANCE,z,,,,,,0.141666667,-0.217592593,0,0,0,space,0,241,241,292,1,11.784395
,,,,,,,,,,,,,,,,,,5f12a59abbb7d320699d062f,2020-11-26_15h57.40.166,lexical_decision_task_MP_exp2,2020.2.5,Win32,60,,m,1,0.586695,,,,,,,,0.586695,1,,,,,,231,WORD,UN,16,mother,EXPORT,m,,,,,,0.141666667,-0.217592593,0,0,0,,0,242,242,230,1,
,,,,,,,,,,,,,,,,,,5f12a59abbb7d320699d062f,2020-11-26_15h57.40.166,lexical_decision_task_MP_exp2,2020.2.5,Win32,60,,m,1,0.61273,,,,,,,,0.61273,1,,,,,,215,WORD,UN,16,behalf,PHOBIA,m,,,,,,0.141666667,-0.217592593,0,0,0,,0,243,243,214,1,
,,,,,,,,,,,,,,,,,,5f12a59abbb7d320699d062f,2020-11-26_15h57.40.166,lexical_decision_task_MP_exp2,2020.2.5,Win32,60,,m,1,0.560095,,,,,,,,0.560095,1,,,,,,217,WORD,UN,16,shrink,LIQUOR,m,,,,,,0.141666667,-0.217592593,0,0,0,,0,244,244,216,1,
,,,,,,,,,,,,,,,,,,5f12a59abbb7d320699d062f,2020-11-26_15h57.40.166,lexical_decision_task_MP_exp2,2020.2.5,Win32,60,,z,1,0.779675,,,,,,,,0.779675,1,,,,,,437,NW,UN,16,baitch,SNAPEL,z,,,,,,0.141666667,-0.217592593,0,0,0,,0,245,245,436,1,
,,,,,,,,,,,,,,,,,,5f12a59abbb7d320699d062f,2020-11-26_15h57.40.166,lexical_decision_task_MP_exp2,2020.2.5,Win32,60,,z,1,1.11955,,,,,,,,1.11955,1,,,,,,314,NW,"ID",16,sprine,SPRINE,z,,,,,,0.141666667,-0.217592593,0,0,0,,0,246,246,313,1,
,,,,,,,,,,,,,,,,,,5f12a59abbb7d320699d062f,2020-11-26_15h57.40.166,lexical_decision_task_MP_exp2,2020.2.5,Win32,60,,z,1,0.650945,,,,,,,,0.650945,1,,,,,,327,NW,"ID",16,plenac,PLENAC,z,,,,,,0.141666667,-0.217592593,0,0,0,,0,247,247,326,1,
,,,,,,,,,,,,,,,,,,5f12a59abbb7d320699d062f,2020-11-26_15h57.40.166,lexical_decision_task_MP_exp2,2020.2.5,Win32,60,,m,1,0.63421,,,,,,,,0.63421,1,,,,,,197,WORD,UN,16,wicked,STREAM,m,,,,,,0.141666667,-0.217592593,0,0,0,,0,248,248,196,1,
,,,,,,,,,,,,,,,,,,5f12a59abbb7d320699d062f,2020-11-26_15h57.40.166,lexical_decision_task_MP_exp2,2020.2.5,Win32,60,,z,1,0.65883,,,,,,,,0.65883,1,,,,,,373,NW,UN,33,injore,BIGENT,z,,,,,,0.141666667,-0.217592593,0,0,0,,0,249,249,372,1,
,,,,,,,,,,,,,,,,,,5f12a59abbb7d320699d062f,2020-11-26_15h57.40.166,lexical_decision_task_MP_exp2,2020.2.5,Win32,60,,m,1,0.66727,,,,,,,,0.66727,1,,,,,,112,WORD,"ID",16,breath,BREATH,m,,,,,,0.141666667,-0.217592593,0,0,0,,0,250,250,111,1,
,,,,,,,,,,,,,,,,,,5f12a59abbb7d320699d062f,2020-11-26_15h57.40.166,lexical_decision_task_MP_exp2,2020.2.5,Win32,60,,m,1,0.48423,,,,,,,,0.48423,1,,,,,,188,WORD,UN,16,censor,SOCIAL,m,,,,,,0.141666667,-0.217592593,0,0,0,,0,251,251,187,1,
,,,,,,,,,,,,,,,,,,5f12a59abbb7d320699d062f,2020-11-26_15h57.40.166,lexical_decision_task_MP_exp2,2020.2.5,Win32,60,,z,1,0.600525,,,,,,,,0.600525,1,,,,,,463,NW,UN,16,bafent,KISPEL,z,,,,,,0.141666667,-0.217592593,0,0,0,,0,252,252,462,1,
,,,,,,,,,,,,,,,,,,5f12a59abbb7d320699d062f,2020-11-26_15h57.40.166,lexical_decision_task_MP_exp2,2020.2.5,Win32,60,,z,1,0.690535,,,,,,,,0.690535,1,,,,,,257,NW,"ID",33,veniod,VENIOD,z,,,,,,0.141666667,-0.217592593,0,0,0,,0,253,253,256,1,
,,,,,,,,,,,,,,,,,,5f12a59abbb7d320699d062f,2020-11-26_15h57.40.166,lexical_decision_task_MP_exp2,2020.2.5,Win32,60,,z,1,0.53205,,,,,,,,0.53205,1,,,,,,355,NW,"ID",16,zingly,ZINGLY,z,,,,,,0.141666667,-0.217592593,0,0,0,,0,254,254,354,1,
,,,,,,,,,,,,,,,,,,5f12a59abbb7d320699d062f,2020-11-26_15h57.40.166,lexical_decision_task_MP_exp2,2020.2.5,Win32,60,,m,1,0.625255,,,,,,,,0.625255,1,,,,,,37,WORD,"ID",33,insult,INSULT,m,,,,,,0.141666667,-0.217592593,0,0,0,,0,255,255,36,1,
,,,,,,,,,,,,,,,,,,5f12a59abbb7d320699d062f,2020-11-26_15h57.40.166,lexical_decision_task_MP_exp2,2020.2.5,Win32,60,,z,1,0.61686,,,,,,,,0.61686,1,,,,,,274,NW,"ID",33,fumblo,FUMBLO,z,,,,,,0.141666667,-0.217592593,0,0,0,,0,256,256,273,1,
,,,,,,,,,,,,,,,,,,5f12a59abbb7d320699d062f,2020-11-26_15h57.40.166,lexical_decision_task_MP_exp2,2020.2.5,Win32,60,,m,1,0.644945,,,,,,,,0.644945,1,,,,,,29,WORD,"ID",33,sketch,SKETCH,m,,,,,,0.141666667,-0.217592593,0,0,0,,0,257,257,28,1,
,,,,,,,,,,,,,,,,,,5f12a59abbb7d320699d062f,2020-11-26_15h57.40.166,lexical_decision_task_MP_exp2,2020.2.5,Win32,60,,m,1,0.51267,,,,,,,,0.51267,1,,,,,,25,WORD,"ID",33,domain,DOMAIN,m,,,,,,0.141666667,-0.217592593,0,0,0,,0,258,258,24,1,
,,,,,,,,,,,,,,,,,,5f12a59abbb7d320699d062f,2020-11-26_15h57.40.166,lexical_decision_task_MP_exp2,2020.2.5,Win32,60,,z,1,0.598345,,,,,,,,0.598345,1,,,,,,467,NW,UN,16,wictor,GORBIE,z,,,,,,0.141666667,-0.217592593,0,0,0,,0,259,259,466,1,
,,,,,,,,,,,,,,,,,,5f12a59abbb7d320699d062f,2020-11-26_15h57.40.166,lexical_decision_task_MP_exp2,2020.2.5,Win32,60,,m,1,0.550835,,,,,,,,0.550835,1,,,,,,51,WORD,"ID",33,hungry,HUNGRY,m,,,,,,0.141666667,-0.217592593,0,0,0,,0,260,260,50,1,
,,,,,,,,,,,,,,,,,,5f12a59abbb7d320699d062f,2020-11-26_15h57.40.166,lexical_decision_task_MP_exp2,2020.2.5,Win32,60,,m,1,0.46807,,,,,,,,0.46807,1,,,,,,173,WORD,UN,33,turkey,SHOWER,m,,,,,,0.141666667,-0.217592593,0,0,0,,0,261,261,172,1,
,,,,,,,,,,,,,,,,,,5f12a59abbb7d320699d062f,2020-11-26_15h57.40.166,lexical_decision_task_MP_exp2,2020.2.5,Win32,60,,m,1,0.55725,,,,,,,,0.55725,1,,,,,,172,WORD,UN,33,shower,PATROL,m,,,,,,0.141666667,-0.217592593,0,0,0,,0,262,262,171,1,
,,,,,,,,,,,,,,,,,,5f12a59abbb7d320699d062f,2020-11-26_15h57.40.166,lexical_decision_task_MP_exp2,2020.2.5,Win32,60,,m,1,0.42322,,,,,,,,0.42322,1,,,,,,55,WORD,"ID",33,stroke,STROKE,m,,,,,,0.141666667,-0.217592593,0,0,0,,0,263,263,54,1,
,,,,,,,,,,,,,,,,,,5f12a59abbb7d320699d062f,2020-11-26_15h57.40.166,lexical_decision_task_MP_exp2,2020.2.5,Win32,60,,m,1,0.415695,,,,,,,,0.415695,1,,,,,,86,WORD,"ID",16,rodent,RODENT,m,,,,,,0.141666667,-0.217592593,0,0,0,,0,264,264,85,1,
,,,,,,,,,,,,,,,,,,5f12a59abbb7d320699d062f,2020-11-26_15h57.40.166,lexical_decision_task_MP_exp2,2020.2.5,Win32,60,,m,1,0.61645,,,,,,,,0.61645,1,,,,,,40,WORD,"ID",33,convey,CONVEY,m,,,,,,0.141666667,-0.217592593,0,0,0,,0,265,265,39,1,
,,,,,,,,,,,,,,,,,,5f12a59abbb7d320699d062f,2020-11-26_15h57.40.166,lexical_decision_task_MP_exp2,2020.2.5,Win32,60,,m,1,0.62526,,,,,,,,0.62526,1,,,,,,141,WORD,UN,33,spruce,ORPHAN,m,,,,,,0.141666667,-0.217592593,0,0,0,,0,266,266,140,1,
,,,,,,,,,,,,,,,,,,5f12a59abbb7d320699d062f,2020-11-26_15h57.40.166,lexical_decision_task_MP_exp2,2020.2.5,Win32,60,,z,1,0.72402,,,,,,,,0.72402,1,,,,,,301,NW,"ID",16,fainch,FAINCH,z,,,,,,0.141666667,-0.217592593,0,0,0,,0,267,267,300,1,
,,,,,,,,,,,,,,,,,,5f12a59abbb7d320699d062f,2020-11-26_15h57.40.166,lexical_decision_task_MP_exp2,2020.2.5,Win32,60,,z,1,0.66996,,,,,,,,0.66996,1,,,,,,360,NW,"ID",16,desory,DESORY,z,,,,,,0.141666667,-0.217592593,0,0,0,,0,268,268,359,1,
,,,,,,,,,,,,,,,,,,5f12a59abbb7d320699d062f,2020-11-26_15h57.40.166,lexical_decision_task_MP_exp2,2020.2.5,Win32,60,,z,1,0.606015,,,,,,,,0.606015,1,,,,,,256,NW,"ID",33,inlors,INLORS,z,,,,,,0.141666667,-0.217592593,0,0,0,,0,269,269,255,1,
,,,,,,,,,,,,,,,,,,5f12a59abbb7d320699d062f,2020-11-26_15h57.40.166,lexical_decision_task_MP_exp2,2020.2.5,Win32,60,,z,1,0.643705,,,,,,,,0.643705,1,,,,,,302,NW,"ID",16,miluer,MILUER,z,,,,,,0.141666667,-0.217592593,0,0,0,,0,270,270,301,1,
,,,,,,,,,,,,,,,,,,5f12a59abbb7d320699d062f,2020-11-26_15h57.40.166,lexical_decision_task_MP_exp2,2020.2.5,Win32,60,,z,1,0.635345,,,,,,,,0.635345,1,,,,,,399,NW,UN,33,wearox,FOURET,z,,,,,,0.141666667,-0.217592593,0,0,0,,0,271,271,398,1,
,,,,,,,,,,,,,,,,,,5f12a59abbb7d320699d062f,2020-11-26_15h57.40.166,lexical_decision_task_MP_exp2,2020.2.5,Win32,60,,m,1,0.58998,,,,,,,,0.58998,1,,,,,,192,WORD,UN,16,object,PLAGUE,m,,,,,,0.141666667,-0.217592593,0,0,0,,0,272,272,191,1,
,,,,,,,,,,,,,,,,,,5f12a59abbb7d320699d062f,2020-11-26_15h57.40.166,lexical_decision_task_MP_exp2,2020.2.5,Win32,60,,m,1,0.46742,,,,,,,,0.46742,1,,,,,,43,WORD,"ID",33,tongue,TONGUE,m,,,,,,0.141666667,-0.217592593,0,0,0,,0,273,273,42,1,
,,,,,,,,,,,,,,,,,,5f12a59abbb7d320699d062f,2020-11-26_15h57.40.166,lexical_decision_task_MP_exp2,2020.2.5,Win32,60,,z,1,0.595625,,,,,,,,0.595625,1,,,,,,335,NW,"ID",16,desion,DESION,z,,,,,,0.141666667,-0.217592593,0,0,0,,0,274,274,334,1,
,,,,,,,,,,,,,,,,,,5f12a59abbb7d320699d062f,2020-11-26_15h57.40.166,lexical_decision_task_MP_exp2,2020.2.5,Win32,60,,m,1,0.486435,,,,,,,,0.486435,1,,,,,,202,WORD,UN,16,phrase,FACTOR,m,,,,,,0.141666667,-0.217592593,0,0,0,,0,275,275,201,1,
,,,,,,,,,,,,,,,,,,5f12a59abbb7d320699d062f,2020-11-26_15h57.40.166,lexical_decision_task_MP_exp2,2020.2.5,Win32,60,,z,1,0.644085,,,,,,,,0.644085,1,,,,,,336,NW,"ID",16,ghodus,GHODUS,z,,,,,,0.141666667,-0.217592593,0,0,0,,0,276,276,335,1,
,,,,,,,,,,,,,,,,,,5f12a59abbb7d320699d062f,2020-11-26_15h57.40.166,lexical_decision_task_MP_exp2,2020.2.5,Win32,60,,m,1,0.745765,,,,,,,,0.745765,1,,,,,,113,WORD,"ID",16,chorus,CHORUS,m,,,,,,0.141666667,-0.217592593,0,0,0,,0,277,277,112,1,
,,,,,,,,,,,,,,,,,,5f12a59abbb7d320699d062f,2020-11-26_15h57.40.166,lexical_decision_task_MP_exp2,2020.2.5,Win32,60,,z,1,0.63793,,,,,,,,0.63793,1,,,,,,440,NW,UN,16,cainky,SARIDE,z,,,,,,0.141666667,-0.217592593,0,0,0,,0,278,278,439,1,
,,,,,,,,,,,,,,,,,,5f12a59abbb7d320699d062f,2020-11-26_15h57.40.166,lexical_decision_task_MP_exp2,2020.2.5,Win32,60,,m,1,0.742615,,,,,,,,0.742615,1,,,,,,227,WORD,UN,16,master,SELDOM,m,,,,,,0.141666667,-0.217592593,0,0,0,,0,279,279,226,1,
,,,,,,,,,,,,,,,,,,5f12a59abbb7d320699d062f,2020-11-26_15h57.40.166,lexical_decision_task_MP_exp2,2020.2.5,Win32,60,,m,1,0.56276,,,,,,,,0.56276,1,,,,,,57,WORD,"ID",33,change,CHANGE,m,,,,,,0.141666667,-0.217592593,0,0,0,,0,280,280,56,1,
,,,,,,,,,,,,,,,,,,5f12a59abbb7d320699d062f,2020-11-26_15h57.40.166,lexical_decision_task_MP_exp2,2020.2.5,Win32,60,,z,1,0.660295,,,,,,,,0.660295,1,,,,,,300,NW,"ID",33,yarion,YARION,z,,,,,,0.141666667,-0.217592593,0,0,0,,0,281,281,299,1,
,,,,,,,,,,,,,,,,,,5f12a59abbb7d320699d062f,2020-11-26_15h57.40.166,lexical_decision_task_MP_exp2,2020.2.5,Win32,60,,m,1,0.510985,,,,,,,,0.510985,1,,,,,,129,WORD,UN,33,stupid,MARVEL,m,,,,,,0.141666667,-0.217592593,0,0,0,,0,282,282,128,1,
,,,,,,,,,,,,,,,,,,5f12a59abbb7d320699d062f,2020-11-26_15h57.40.166,lexical_decision_task_MP_exp2,2020.2.5,Win32,60,,z,1,0.57454,,,,,,,,0.57454,1,,,,,,281,NW,"ID",33,melaty,MELATY,z,,,,,,0.141666667,-0.217592593,0,0,0,,0,283,283,280,1,
,,,,,,,,,,,,,,,,,,5f12a59abbb7d320699d062f,2020-11-26_15h57.40.166,lexical_decision_task_MP_exp2,2020.2.5,Win32,60,,m,1,0.51341,,,,,,,,0.51341,1,,,,,,116,WORD,"ID",16,tumble,TUMBLE,m,,,,,,0.141666667,-0.217592593,0,0,0,,0,284,284,115,1,
,,,,,,,,,,,,,,,,,,5f12a59abbb7d320699d062f,2020-11-26_15h57.40.166,lexical_decision_task_MP_exp2,2020.2.5,Win32,60,,z,1,0.72715,,,,,,,,0.72715,1,,,,,,445,NW,UN,16,runamo,MINKEL,z,,,,,,0.141666667,-0.217592593,0,0,0,,0,285,285,444,1,
,,,,,,,,,,,,,,,,,,5f12a59abbb7d320699d062f,2020-11-26_15h57.40.166,lexical_decision_task_MP_exp2,2020.2.5,Win32,60,,m,1,0.50614,,,,,,,,0.50614,1,,,,,,119,WORD,"ID",16,spider,SPIDER,m,,,,,,0.141666667,-0.217592593,0,0,0,,0,286,286,118,1,
,,,,,,,,,,,,,,,,,,5f12a59abbb7d320699d062f,2020-11-26_15h57.40.166,lexical_decision_task_MP_exp2,2020.2.5,Win32,60,,z,1,0.60107,,,,,,,,0.60107,1,,,,,,270,NW,"ID",33,wrimsy,WRIMSY,z,,,,,,0.141666667,-0.217592593,0,0,0,,0,287,287,269,1,
,,,,,,,,,,,,,,,,,,5f12a59abbb7d320699d062f,2020-11-26_15h57.40.166,lexical_decision_task_MP_exp2,2020.2.5,Win32,60,,m,1,0.5034,,,,,,,,0.5034,1,,,,,,230,WORD,UN,16,export,FRINGE,m,,,,,,0.141666667,-0.217592593,0,0,0,,0,288,288,229,1,
,,,,,,,,,,,,,,,,,,5f12a59abbb7d320699d062f,2020-11-26_15h57.40.166,lexical_decision_task_MP_exp2,2020.2.5,Win32,60,,z,1,0.90756,,,,,,,,0.90756,1,,,,,,424,NW,UN,16,urivel,PRAILE,z,,,,,,0.141666667,-0.217592593,0,0,0,,0,289,289,423,1,
,,,,,,,,,,,,,,,,,,5f12a59abbb7d320699d062f,2020-11-26_15h57.40.166,lexical_decision_task_MP_exp2,2020.2.5,Win32,60,,z,1,0.74318,,,,,,,,0.74318,1,,,,,,404,NW,UN,33,syntic,CLUIRM,z,,,,,,0.141666667,-0.217592593,0,0,0,,0,290,290,403,1,
,,,,,,,,,,,,,,,,,,5f12a59abbb7d320699d062f,2020-11-26_15h57.40.166,lexical_decision_task_MP_exp2,2020.2.5,Win32,60,,m,1,0.61991,,,,,,,,0.61991,1,,,,,,35,WORD,"ID",33,socket,SOCKET,m,,,,,,0.141666667,-0.217592593,0,0,0,,0,291,291,34,1,
,,,,,,,,,,,,,,,,,,5f12a59abbb7d320699d062f,2020-11-26_15h57.40.166,lexical_decision_task_MP_exp2,2020.2.5,Win32,60,,z,1,0.586365,,,,,,,,0.586365,1,,,,,,375,NW,UN,33,iguare,YORQUE,z,,,,,,0.141666667,-0.217592593,0,0,0,,0,292,292,374,1,
,,,,,,,,,,,,,,,,,,5f12a59abbb7d320699d062f,2020-11-26_15h57.40.166,lexical_decision_task_MP_exp2,2020.2.5,Win32,60,,z,1,0.905275,,,,,,,,0.905275,1,,,,,,379,NW,UN,33,cavory,AUTING,z,,,,,,0.141666667,-0.217592593,0,0,0,,0,293,293,378,1,
,,,,,,,,,,,,,,,,,,5f12a59abbb7d320699d062f,2020-11-26_15h57.40.166,lexical_decision_task_MP_exp2,2020.2.5,Win32,60,,z,1,0.67192,,,,,,,,0.67192,1,,,,,,430,NW,UN,16,funtle,CAROEY,z,,,,,,0.141666667,-0.217592593,0,0,0,,0,294,294,429,1,
,,,,,,,,,,,,,,,,,,5f12a59abbb7d320699d062f,2020-11-26_15h57.40.166,lexical_decision_task_MP_exp2,2020.2.5,Win32,60,,m,1,1.490595,,,,,,,,1.490595,1,,,,,,44,WORD,"ID",33,danger,DANGER,m,,,,,,0.141666667,-0.217592593,0,0,0,,0,295,295,43,1,
,,,,,,,,,,,,,,,,,,5f12a59abbb7d320699d062f,2020-11-26_15h57.40.166,lexical_decision_task_MP_exp2,2020.2.5,Win32,60,,z,1,0.62968,,,,,,,,0.62968,1,,,,,,279,NW,"ID",33,celond,CELOND,z,,,,,,0.141666667,-0.217592593,0,0,0,,0,296,296,278,1,
,,,,,,,,,,,,,,,,,,5f12a59abbb7d320699d062f,2020-11-26_15h57.40.166,lexical_decision_task_MP_exp2,2020.2.5,Win32,60,,m,1,1.004285,,,,,,,,1.004285,1,,,,,,68,WORD,"ID",16,fumble,FUMBLE,m,,,,,,0.141666667,-0.217592593,0,0,0,,0,297,297,67,1,
,,,,,,,,,,,,,,,,,,5f12a59abbb7d320699d062f,2020-11-26_15h57.40.166,lexical_decision_task_MP_exp2,2020.2.5,Win32,60,,m,1,0.888285,,,,,,,,0.888285,1,,,,,,10,WORD,"ID",33,ethnic,ETHNIC,m,,,,,,0.141666667,-0.217592593,0,0,0,,0,298,298,9,1,
,,,,,,,,,,,,,,,,,,5f12a59abbb7d320699d062f,2020-11-26_15h57.40.166,lexical_decision_task_MP_exp2,2020.2.5,Win32,60,,z,1,0.70779,,,,,,,,0.70779,1,,,,,,370,NW,UN,33,geiloy,SLEACT,z,,,,,,0.141666667,-0.217592593,0,0,0,,0,299,299,369,1,
,,,,,,,,,,,,,,,,,,5f12a59abbb7d320699d062f,2020-11-26_15h57.40.166,lexical_decision_task_MP_exp2,2020.2.5,Win32,60,,m,1,1.21098,,,,,,,,1.21098,1,,,,,,176,WORD,UN,33,advent,STRIFE,m,,,,,,0.141666667,-0.217592593,0,0,0,,0,300,300,175,1,
,,,,,,,,,,,,,,,,,,5f12a59abbb7d320699d062f,2020-11-26_15h57.40.166,lexical_decision_task_MP_exp2,2020.2.5,Win32,60,,z,1,0.8013,,,,,,,,0.8013,1,,,,,,361,NW,UN,33,tireau,PAUCHE,z,,,,,,0.141666667,-0.217592593,0,0,0,,0,301,301,360,1,
,,,,,,,,,,,,,,,,,,5f12a59abbb7d320699d062f,2020-11-26_15h57.40.166,lexical_decision_task_MP_exp2,2020.2.5,Win32,60,,m,1,0.659935,,,,,,,,0.659935,1,,,,,,196,WORD,UN,16,stream,CREDIT,m,,,,,,0.141666667,-0.217592593,0,0,0,,0,302,302,195,1,
,,,,,,,,,,,,,,,,,,5f12a59abbb7d320699d062f,2020-11-26_15h57.40.166,lexical_decision_task_MP_exp2,2020.2.5,Win32,60,,z,1,0.608475,,,,,,,,0.608475,1,,,,,,371,NW,UN,33,ramily,GEILOY,z,,,,,,0.141666667,-0.217592593,0,0,0,,0,303,303,370,1,
,,,,,,,,,,,,,,,,,,5f12a59abbb7d320699d062f,2020-11-26_15h57.40.166,lexical_decision_task_MP_exp2,2020.2.5,Win32,60,,m,1,0.563105,,,,,,,,0.563105,1,,,,,,33,WORD,"ID",33,butler,BUTLER,m,,,,,,0.141666667,-0.217592593,0,0,0,,0,304,304,32,1,
,,,,,,,,,,,,,,,,,,5f12a59abbb7d320699d062f,2020-11-26_15h57.40.166,lexical_decision_task_MP_exp2,2020.2.5,Win32,60,,z,1,0.99513,,,,,,,,0.99513,1,,,,,,451,NW,UN,16,surden,CAINKY,z,,,,,,0.141666667,-0.217592593,0,0,0,,0,305,305,450,1,
,,,,,,,,,,,,,,,,,,5f12a59abbb7d320699d062f,2020-11-26_15h57.40.166,lexical_decision_task_MP_exp2,2020.2.5,Win32,60,,m,0,0.697305,,,,,,,,0.697305,0,,,,,,429,NW,UN,16,caroey,FUNTLE,z,,,,,,0.141666667,-0.217592593,0,0,0,,0,306,306,428,1,
,,,,,,,,,,,,,,,,,,5f12a59abbb7d320699d062f,2020-11-26_15h57.40.166,lexical_decision_task_MP_exp2,2020.2.5,Win32,60,,m,1,0.772535,,,,,,,,0.772535,1,,,,,,148,WORD,UN,33,invade,CUSTOM,m,,,,,,0.141666667,-0.217592593,0,0,0,,0,307,307,147,1,
,,,,,,,,,,,,,,,,,,5f12a59abbb7d320699d062f,2020-11-26_15h57.40.166,lexical_decision_task_MP_exp2,2020.2.5,Win32,60,,z,1,0.592765,,,,,,,,0.592765,1,,,,,,421,NW,UN,16,alcoud,KNISMA,z,,,,,,0.141666667,-0.217592593,0,0,0,,0,308,308,420,1,
,,,,,,,,,,,,,,,,,,5f12a59abbb7d320699d062f,2020-11-26_15h57.40.166,lexical_decision_task_MP_exp2,2020.2.5,Win32,60,,z,1,0.72208,,,,,,,,0.72208,1,,,,,,480,NW,UN,16,knisma,ROBULY,z,,,,,,0.141666667,-0.217592593,0,0,0,,0,309,309,479,1,
,,,,,,,,,,,,,,,,,,5f12a59abbb7d320699d062f,2020-11-26_15h57.40.166,lexical_decision_task_MP_exp2,2020.2.5,Win32,60,,z,0,0.60145,,,,,,,,0.60145,0,,,,,,89,WORD,"ID",16,permit,PERMIT,m,,,,,,0.141666667,-0.217592593,0,0,0,,0,310,310,88,1,
,,,,,,,,,,,,,,,,,,5f12a59abbb7d320699d062f,2020-11-26_15h57.40.166,lexical_decision_task_MP_exp2,2020.2.5,Win32,60,,z,1,0.57471,,,,,,,,0.57471,1,,,,,,441,NW,UN,16,aboune,RASTOE,z,,,,,,0.141666667,-0.217592593,0,0,0,,0,311,311,440,1,
,,,,,,,,,,,,,,,,,,5f12a59abbb7d320699d062f,2020-11-26_15h57.40.166,lexical_decision_task_MP_exp2,2020.2.5,Win32,60,,z,1,0.517945,,,,,,,,0.517945,1,,,,,,401,NW,UN,33,elopia,MUSTIL,z,,,,,,0.141666667,-0.217592593,0,0,0,,0,312,312,400,1,
,,,,,,,,,,,,,,,,,,5f12a59abbb7d320699d062f,2020-11-26_15h57.40.166,lexical_decision_task_MP_exp2,2020.2.5,Win32,60,,m,1,0.637155,,,,,,,,0.637155,1,,,,,,24,WORD,"ID",33,praise,PRAISE,m,,,,,,0.141666667,-0.217592593,0,0,0,,0,313,313,23,1,
,,,,,,,,,,,,,,,,,,5f12a59abbb7d320699d062f,2020-11-26_15h57.40.166,lexical_decision_task_MP_exp2,2020.2.5,Win32,60,,z,1,0.83639,,,,,,,,0.83639,1,,,,,,389,NW,UN,33,hatrus,WITMER,z,,,,,,0.141666667,-0.217592593,0,0,0,,0,314,314,388,1,
,,,,,,,,,,,,,,,,,,5f12a59abbb7d320699d062f,2020-11-26_15h57.40.166,lexical_decision_task_MP_exp2,2020.2.5,Win32,60,,z,1,1.18713,,,,,,,,1.18713,1,,,,,,416,NW,UN,33,earoud,PATHEL,z,,,,,,0.141666667,-0.217592593,0,0,0,,0,315,315,415,1,
,,,,,,,,,,,,,,,,,,5f12a59abbb7d320699d062f,2020-11-26_15h57.40.166,lexical_decision_task_MP_exp2,2020.2.5,Win32,60,,z,1,0.56424,,,,,,,,0.56424,1,,,,,,427,NW,UN,16,tandly,SCHIND,z,,,,,,0.141666667,-0.217592593,0,0,0,,0,316,316,426,1,
,,,,,,,,,,,,,,,,,,5f12a59abbb7d320699d062f,2020-11-26_15h57.40.166,lexical_decision_task_MP_exp2,2020.2.5,Win32,60,,z,1,0.58711,,,,,,,,0.58711,1,,,,,,262,NW,"ID",33,quilew,QUILEW,z,,,,,,0.141666667,-0.217592593,0,0,0,,0,317,317,261,1,
,,,,,,,,,,,,,,,,,,5f12a59abbb7d320699d062f,2020-11-26_15h57.40.166,lexical_decision_task_MP_exp2,2020.2.5,Win32,60,,m,0,1.13783,,,,,,,,1.13783,0,,,,,,367,NW,UN,33,hornal,SLIQUE,z,,,,,,0.141666667,-0.217592593,0,0,0,,0,318,318,366,1,
,,,,,,,,,,,,,,,,,,5f12a59abbb7d320699d062f,2020-11-26_15h57.40.166,lexical_decision_task_MP_exp2,2020.2.5,Win32,60,,m,1,0.66113,,,,,,,,0.66113,1,,,,,,78,WORD,"ID",16,column,COLUMN,m,,,,,,0.141666667,-0.217592593,0,0,0,,0,319,319,77,1,
,,,,,,,,,,,,,,,,,,5f12a59abbb7d320699d062f,2020-11-26_15h57.40.166,lexical_decision_task_MP_exp2,2020.2.5,Win32,60,,z,1,0.895275,,,,,,,,0.895275,1,,,,,,315,NW,"ID",16,laston,LASTON,z,,,,,,0.141666667,-0.217592593,0,0,0,,0,320,320,314,1,
,,,,,,,,,,,,,,,,,,5f12a59abbb7d320699d062f,2020-11-26_15h57.40.166,lexical_decision_task_MP_exp2,2020.2.5,Win32,60,,z,1,0.58363,,,,,,,,0.58363,1,,,,,,365,NW,UN,33,toshel,GUAIRT,z,,,,,,0.141666667,-0.217592593,0,0,0,,0,321,321,364,1,
,,,,,,,,,,,,,,,,,,5f12a59abbb7d320699d062f,2020-11-26_15h57.40.166,lexical_decision_task_MP_exp2,2020.2.5,Win32,60,,z,1,0.815095,,,,,,,,0.815095,1,,,,,,289,NW,"ID",33,starby,STARBY,z,,,,,,0.141666667,-0.217592593,0,0,0,,0,322,322,288,1,
,,,,,,,,,,,,,,,,,,5f12a59abbb7d320699d062f,2020-11-26_15h57.40.166,lexical_decision_task_MP_exp2,2020.2.5,Win32,60,,m,1,0.58413,,,,,,,,0.58413,1,,,,,,164,WORD,UN,33,invest,MARKET,m,,,,,,0.141666667,-0.217592593,0,0,0,,0,323,323,163,1,
,,,,,,,,,,,,,,,,,,5f12a59abbb7d320699d062f,2020-11-26_15h57.40.166,lexical_decision_task_MP_exp2,2020.2.5,Win32,60,,m,1,0.63488,,,,,,,,0.63488,1,,,,,,216,WORD,UN,16,liquor,BEHALF,m,,,,,,0.141666667,-0.217592593,0,0,0,,0,324,324,215,1,
,,,,,,,,,,,,,,,,,,5f12a59abbb7d320699d062f,2020-11-26_15h57.40.166,lexical_decision_task_MP_exp2,2020.2.5,Win32,60,,m,1,0.712105,,,,,,,,0.712105,1,,,,,,124,WORD,UN,33,nickel,BLOUSE,m,,,,,,0.141666667,-0.217592593,0,0,0,,0,325,325,123,1,
,,,,,,,,,,,,,,,,,,5f12a59abbb7d320699d062f,2020-11-26_15h57.40.166,lexical_decision_task_MP_exp2,2020.2.5,Win32,60,,m,1,0.937485,,,,,,,,0.937485,1,,,,,,166,WORD,UN,33,design,STARCH,m,,,,,,0.141666667,-0.217592593,0,0,0,,0,326,326,165,1,
,,,,,,,,,,,,,,,,,,5f12a59abbb7d320699d062f,2020-11-26_15h57.40.166,lexical_decision_task_MP_exp2,2020.2.5,Win32,60,,m,0,0.733585,,,,,,,,0.733585,0,,,,,,269,NW,"ID",33,orchet,ORCHET,z,,,,,,0.141666667,-0.217592593,0,0,0,,0,327,327,268,1,
,,,,,,,,,,,,,,,,,,5f12a59abbb7d320699d062f,2020-11-26_15h57.40.166,lexical_decision_task_MP_exp2,2020.2.5,Win32,60,,z,1,1.273725,,,,,,,,1.273725,1,,,,,,328,NW,"ID",16,broake,BROAKE,z,,,,,,0.141666667,-0.217592593,0,0,0,,0,328,328,327,1,
,,,,,,,,,,,,,,,,,,5f12a59abbb7d320699d062f,2020-11-26_15h57.40.166,lexical_decision_task_MP_exp2,2020.2.5,Win32,60,,z,1,0.675955,,,,,,,,0.675955,1,,,,,,251,NW,"ID",33,lupict,LUPICT,z,,,,,,0.141666667,-0.217592593,0,0,0,,0,329,329,250,1,
,,,,,,,,,,,,,,,,,,5f12a59abbb7d320699d062f,2020-11-26_15h57.40.166,lexical_decision_task_MP_exp2,2020.2.5,Win32,60,,z,1,0.551595,,,,,,,,0.551595,1,,,,,,372,NW,UN,33,bigent,RAMILY,z,,,,,,0.141666667,-0.217592593,0,0,0,,0,330,330,371,1,
,,,,,,,,,,,,,,,,,,5f12a59abbb7d320699d062f,2020-11-26_15h57.40.166,lexical_decision_task_MP_exp2,2020.2.5,Win32,60,,z,1,0.706045,,,,,,,,0.706045,1,,,,,,310,NW,"ID",16,daniet,DANIET,z,,,,,,0.141666667,-0.217592593,0,0,0,,0,331,331,309,1,
,,,,,,,,,,,,,,,,,,5f12a59abbb7d320699d062f,2020-11-26_15h57.40.166,lexical_decision_task_MP_exp2,2020.2.5,Win32,60,,m,1,0.655825,,,,,,,,0.655825,1,,,,,,235,WORD,UN,16,pirate,GRUMPY,m,,,,,,0.141666667,-0.217592593,0,0,0,,0,332,332,234,1,
,,,,,,,,,,,,,,,,,,5f12a59abbb7d320699d062f,2020-11-26_15h57.40.166,lexical_decision_task_MP_exp2,2020.2.5,Win32,60,,z,1,0.890265,,,,,,,,0.890265,1,,,,,,294,NW,"ID",33,inhort,INHORT,z,,,,,,0.141666667,-0.217592593,0,0,0,,0,333,333,293,1,
,,,,,,,,,,,,,,,,,,5f12a59abbb7d320699d062f,2020-11-26_15h57.40.166,lexical_decision_task_MP_exp2,2020.2.5,Win32,60,,z,1,0.65805,,,,,,,,0.65805,1,,,,,,446,NW,UN,16,gircue,RUNAMO,z,,,,,,0.141666667,-0.217592593,0,0,0,,0,334,334,445,1,
,,,,,,,,,,,,,,,,,,5f12a59abbb7d320699d062f,2020-11-26_15h57.40.166,lexical_decision_task_MP_exp2,2020.2.5,Win32,60,,z,1,0.7771,,,,,,,,0.7771,1,,,,,,469,NW,UN,16,crudio,PADIFS,z,,,,,,0.141666667,-0.217592593,0,0,0,,0,335,335,468,1,
,,,,,,,,,,,,,,,,,,5f12a59abbb7d320699d062f,2020-11-26_15h57.40.166,lexical_decision_task_MP_exp2,2020.2.5,Win32,60,,m,1,0.6518,,,,,,,,0.6518,1,,,,,,97,WORD,"ID",16,client,CLIENT,m,,,,,,0.141666667,-0.217592593,0,0,0,,0,336,336,96,1,
,,,,,,,,,,,,,,,,,,5f12a59abbb7d320699d062f,2020-11-26_15h57.40.166,lexical_decision_task_MP_exp2,2020.2.5,Win32,60,,z,1,0.874595,,,,,,,,0.874595,1,,,,,,452,NW,UN,16,bolvis,SURDEN,z,,,,,,0.141666667,-0.217592593,0,0,0,,0,337,337,451,1,
,,,,,,,,,,,,,,,,,,5f12a59abbb7d320699d062f,2020-11-26_15h57.40.166,lexical_decision_task_MP_exp2,2020.2.5,Win32,60,,z,1,0.69114,,,,,,,,0.69114,1,,,,,,350,NW,"ID",16,nagurs,NAGURS,z,,,,,,0.141666667,-0.217592593,0,0,0,,0,338,338,349,1,
,,,,,,,,,,,,,,,,,,5f12a59abbb7d320699d062f,2020-11-26_15h57.40.166,lexical_decision_task_MP_exp2,2020.2.5,Win32,60,,z,1,0.68553,,,,,,,,0.68553,1,,,,,,323,NW,"ID",16,rosail,ROSAIL,z,,,,,,0.141666667,-0.217592593,0,0,0,,0,339,339,322,1,
,,,,,,,,,,,,,,,,,,5f12a59abbb7d320699d062f,2020-11-26_15h57.40.166,lexical_decision_task_MP_exp2,2020.2.5,Win32,60,,m,1,0.62385,,,,,,,,0.62385,1,,,,,,76,WORD,"ID",16,exotic,EXOTIC,m,,,,,,0.141666667,-0.217592593,0,0,0,,0,340,340,75,1,
,,,,,,,,,,,,,,,,,,5f12a59abbb7d320699d062f,2020-11-26_15h57.40.166,lexical_decision_task_MP_exp2,2020.2.5,Win32,60,,m,0,0.601135,,,,,,,,0.601135,0,,,,,,418,NW,UN,33,slount,SUIDLE,z,,,,,,0.141666667,-0.217592593,0,0,0,,0,341,341,417,1,
,,,,,,,,,,,,,,,,,,5f12a59abbb7d320699d062f,2020-11-26_15h57.40.166,lexical_decision_task_MP_exp2,2020.2.5,Win32,60,,z,1,0.92605,,,,,,,,0.92605,1,,,,,,477,NW,UN,16,acrise,PHOTIE,z,,,,,,0.141666667,-0.217592593,0,0,0,,0,342,342,476,1,
,,,,,,,,,,,,,,,,,,5f12a59abbb7d320699d062f,2020-11-26_15h57.40.166,lexical_decision_task_MP_exp2,2020.2.5,Win32,60,,z,1,0.5845,,,,,,,,0.5845,1,,,,,,241,NW,"ID",33,smenco,SMENCO,z,,,,,,0.141666667,-0.217592593,0,0,0,,0,343,343,240,1,
,,,,,,,,,,,,,,,,,,5f12a59abbb7d320699d062f,2020-11-26_15h57.40.166,lexical_decision_task_MP_exp2,2020.2.5,Win32,60,,m,1,0.608725,,,,,,,,0.608725,1,,,,,,200,WORD,UN,16,admire,BEACON,m,,,,,,0.141666667,-0.217592593,0,0,0,,0,344,344,199,1,
,,,,,,,,,,,,,,,,,,5f12a59abbb7d320699d062f,2020-11-26_15h57.40.166,lexical_decision_task_MP_exp2,2020.2.5,Win32,60,,m,1,0.723,,,,,,,,0.723,1,,,,,,48,WORD,"ID",33,walnut,WALNUT,m,,,,,,0.141666667,-0.217592593,0,0,0,,0,345,345,47,1,
,,,,,,,,,,,,,,,,,,5f12a59abbb7d320699d062f,2020-11-26_15h57.40.166,lexical_decision_task_MP_exp2,2020.2.5,Win32,60,,m,1,0.618085,,,,,,,,0.618085,1,,,,,,189,WORD,UN,16,backup,CENSOR,m,,,,,,0.141666667,-0.217592593,0,0,0,,0,346,346,188,1,
,,,,,,,,,,,,,,,,,,5f12a59abbb7d320699d062f,2020-11-26_15h57.40.166,lexical_decision_task_MP_exp2,2020.2.5,Win32,60,,z,1,0.83307,,,,,,,,0.83307,1,,,,,,407,NW,UN,33,hurnia,SUIVER,z,,,,,,0.141666667,-0.217592593,0,0,0,,0,347,347,406,1,
,,,,,,,,,,,,,,,,,,5f12a59abbb7d320699d062f,2020-11-26_15h57.40.166,lexical_decision_task_MP_exp2,2020.2.5,Win32,60,,z,1,0.61024,,,,,,,,0.61024,1,,,,,,252,NW,"ID",33,stapod,STAPOD,z,,,,,,0.141666667,-0.217592593,0,0,0,,0,348,348,251,1,
,,,,,,,,,,,,,,,,,,5f12a59abbb7d320699d062f,2020-11-26_15h57.40.166,lexical_decision_task_MP_exp2,2020.2.5,Win32,60,,z,1,0.63109,,,,,,,,0.63109,1,,,,,,306,NW,"ID",16,sounge,SOUNGE,z,,,,,,0.141666667,-0.217592593,0,0,0,,0,349,349,305,1,
,,,,,,,,,,,,,,,,,,5f12a59abbb7d320699d062f,2020-11-26_15h57.40.166,lexical_decision_task_MP_exp2,2020.2.5,Win32,60,,z,1,0.655435,,,,,,,,0.655435,1,,,,,,366,NW,UN,33,slique,TOSHEL,z,,,,,,0.141666667,-0.217592593,0,0,0,,0,350,350,365,1,
,,,,,,,,,,,,,,,,,,5f12a59abbb7d320699d062f,2020-11-26_15h57.40.166,lexical_decision_task_MP_exp2,2020.2.5,Win32,60,,m,1,0.548145,,,,,,,,0.548145,1,,,,,,98,WORD,"ID",16,belong,BELONG,m,,,,,,0.141666667,-0.217592593,0,0,0,,0,351,351,97,1,
,,,,,,,,,,,,,,,,,,5f12a59abbb7d320699d062f,2020-11-26_15h57.40.166,lexical_decision_task_MP_exp2,2020.2.5,Win32,60,,m,1,0.687145,,,,,,,,0.687145,1,,,,,,79,WORD,"ID",16,theory,THEORY,m,,,,,,0.141666667,-0.217592593,0,0,0,,0,352,352,78,1,
,,,,,,,,,,,,,,,,,,5f12a59abbb7d320699d062f,2020-11-26_15h57.40.166,lexical_decision_task_MP_exp2,2020.2.5,Win32,60,,m,1,0.973295,,,,,,,,0.973295,1,,,,,,74,WORD,"ID",16,plaque,PLAQUE,m,,,,,,0.141666667,-0.217592593,0,0,0,,0,353,353,73,1,
,,,,,,,,,,,,,,,,,,5f12a59abbb7d320699d062f,2020-11-26_15h57.40.166,lexical_decision_task_MP_exp2,2020.2.5,Win32,60,,z,1,0.75192,,,,,,,,0.75192,1,,,,,,426,NW,UN,16,frudge,URIVEL,z,,,,,,0.141666667,-0.217592593,0,0,0,,0,354,354,425,1,
,,,,,,,,,,,,,,,,,,5f12a59abbb7d320699d062f,2020-11-26_15h57.40.166,lexical_decision_task_MP_exp2,2020.2.5,Win32,60,,z,1,0.67039,,,,,,,,0.67039,1,,,,,,443,NW,UN,16,jaunce,DORSEX,z,,,,,,0.141666667,-0.217592593,0,0,0,,0,355,355,442,1,
,,,,,,,,,,,,,,,,,,5f12a59abbb7d320699d062f,2020-11-26_15h57.40.166,lexical_decision_task_MP_exp2,2020.2.5,Win32,60,,m,1,0.68587,,,,,,,,0.68587,1,,,,,,153,WORD,UN,33,author,BEHOLD,m,,,,,,0.141666667,-0.217592593,0,0,0,,0,356,356,152,1,
,,,,,,,,,,,,,,,,,,5f12a59abbb7d320699d062f,2020-11-26_15h57.40.166,lexical_decision_task_MP_exp2,2020.2.5,Win32,60,,m,1,0.797375,,,,,,,,0.797375,1,,,,,,127,WORD,UN,33,senior,CASTLE,m,,,,,,0.141666667,-0.217592593,0,0,0,,0,357,357,126,1,
,,,,,,,,,,,,,,,,,,5f12a59abbb7d320699d062f,2020-11-26_15h57.40.166,lexical_decision_task_MP_exp2,2020.2.5,Win32,60,,m,1,0.88284,,,,,,,,0.88284,1,,,,,,240,WORD,UN,16,glance,FOREST,m,,,,,,0.141666667,-0.217592593,0,0,0,,0,358,358,239,1,
,,,,,,,,,,,,,,,,,,5f12a59abbb7d320699d062f,2020-11-26_15h57.40.166,lexical_decision_task_MP_exp2,2020.2.5,Win32,60,,z,1,0.83279,,,,,,,,0.83279,1,,,,,,325,NW,"ID",16,thruse,THRUSE,z,,,,,,0.141666667,-0.217592593,0,0,0,,0,359,359,324,1,
,,,,,,,,,,,,,,,,,,5f12a59abbb7d320699d062f,2020-11-26_15h57.40.166,lexical_decision_task_MP_exp2,2020.2.5,Win32,60,,m,1,0.841725,,,,,,,,0.841725,1,,,,,,54,WORD,"ID",33,ramble,RAMBLE,m,,,,,,0.141666667,-0.217592593,0,0,0,,0,360,360,53,1,
,,,,,,,,,,,,,,,,,,5f12a59abbb7d320699d062f,2020-11-26_15h57.40.166,lexical_decision_task_MP_exp2,2020.2.5,Win32,60,,z,1,0.847535,,,,,,,,0.847535,1,,,,,,357,NW,"ID",16,derain,DERAIN,z,,,,,,0.141666667,-0.217592593,0,0,0,,0,361,361,356,1,
,,,,,,,,,,,,,,,,,,5f12a59abbb7d320699d062f,2020-11-26_15h57.40.166,lexical_decision_task_MP_exp2,2020.2.5,Win32,60,,z,0,0.742165,,,,,,,,0.742165,0,,,,,,156,WORD,UN,33,pastor,CRADLE,m,,,,,,0.141666667,-0.217592593,0,0,0,space,0,362,362,155,1,5.62636
,,,,,,,,,,,,,,,,,,5f12a59abbb7d320699d062f,2020-11-26_15h57.40.166,lexical_decision_task_MP_exp2,2020.2.5,Win32,60,,m,1,0.57149,,,,,,,,0.57149,1,,,,,,30,WORD,"ID",33,orient,ORIENT,m,,,,,,0.141666667,-0.217592593,0,0,0,,0,363,363,29,1,
,,,,,,,,,,,,,,,,,,5f12a59abbb7d320699d062f,2020-11-26_15h57.40.166,lexical_decision_task_MP_exp2,2020.2.5,Win32,60,,m,1,0.57488,,,,,,,,0.57488,1,,,,,,134,WORD,UN,33,import,STAPLE,m,,,,,,0.141666667,-0.217592593,0,0,0,,0,364,364,133,1,
,,,,,,,,,,,,,,,,,,5f12a59abbb7d320699d062f,2020-11-26_15h57.40.166,lexical_decision_task_MP_exp2,2020.2.5,Win32,60,,m,1,0.54724,,,,,,,,0.54724,1,,,,,,208,WORD,UN,16,search,HOCKEY,m,,,,,,0.141666667,-0.217592593,0,0,0,,0,365,365,207,1,
,,,,,,,,,,,,,,,,,,5f12a59abbb7d320699d062f,2020-11-26_15h57.40.166,lexical_decision_task_MP_exp2,2020.2.5,Win32,60,,m,1,0.47882,,,,,,,,0.47882,1,,,,,,88,WORD,"ID",16,hunger,HUNGER,m,,,,,,0.141666667,-0.217592593,0,0,0,,0,366,366,87,1,
,,,,,,,,,,,,,,,,,,5f12a59abbb7d320699d062f,2020-11-26_15h57.40.166,lexical_decision_task_MP_exp2,2020.2.5,Win32,60,,m,1,0.512155,,,,,,,,0.512155,1,,,,,,143,WORD,UN,33,sponge,REASON,m,,,,,,0.141666667,-0.217592593,0,0,0,,0,367,367,142,1,
,,,,,,,,,,,,,,,,,,5f12a59abbb7d320699d062f,2020-11-26_15h57.40.166,lexical_decision_task_MP_exp2,2020.2.5,Win32,60,,m,1,0.51615,,,,,,,,0.51615,1,,,,,,180,WORD,UN,33,thrive,SILENT,m,,,,,,0.141666667,-0.217592593,0,0,0,,0,368,368,179,1,
,,,,,,,,,,,,,,,,,,5f12a59abbb7d320699d062f,2020-11-26_15h57.40.166,lexical_decision_task_MP_exp2,2020.2.5,Win32,60,,z,1,1.417375,,,,,,,,1.417375,1,,,,,,397,NW,UN,33,blunde,CAMBLE,z,,,,,,0.141666667,-0.217592593,0,0,0,,0,369,369,396,1,
,,,,,,,,,,,,,,,,,,5f12a59abbb7d320699d062f,2020-11-26_15h57.40.166,lexical_decision_task_MP_exp2,2020.2.5,Win32,60,,m,1,0.61288,,,,,,,,0.61288,1,,,,,,60,WORD,"ID",33,pencil,PENCIL,m,,,,,,0.141666667,-0.217592593,0,0,0,,0,370,370,59,1,
,,,,,,,,,,,,,,,,,,5f12a59abbb7d320699d062f,2020-11-26_15h57.40.166,lexical_decision_task_MP_exp2,2020.2.5,Win32,60,,m,1,0.534665,,,,,,,,0.534665,1,,,,,,144,WORD,UN,33,parish,SPONGE,m,,,,,,0.141666667,-0.217592593,0,0,0,,0,371,371,143,1,
,,,,,,,,,,,,,,,,,,5f12a59abbb7d320699d062f,2020-11-26_15h57.40.166,lexical_decision_task_MP_exp2,2020.2.5,Win32,60,,z,1,0.871475,,,,,,,,0.871475,1,,,,,,462,NW,UN,16,kispel,ABSULT,z,,,,,,0.141666667,-0.217592593,0,0,0,,0,372,372,461,1,
,,,,,,,,,,,,,,,,,,5f12a59abbb7d320699d062f,2020-11-26_15h57.40.166,lexical_decision_task_MP_exp2,2020.2.5,Win32,60,,m,1,0.76612,,,,,,,,0.76612,1,,,,,,225,WORD,UN,16,kidney,VULGAR,m,,,,,,0.141666667,-0.217592593,0,0,0,,0,373,373,224,1,
,,,,,,,,,,,,,,,,,,5f12a59abbb7d320699d062f,2020-11-26_15h57.40.166,lexical_decision_task_MP_exp2,2020.2.5,Win32,60,,z,1,0.73649,,,,,,,,0.73649,1,,,,,,349,NW,"ID",16,asylen,ASYLEN,z,,,,,,0.141666667,-0.217592593,0,0,0,,0,374,374,348,1,
,,,,,,,,,,,,,,,,,,5f12a59abbb7d320699d062f,2020-11-26_15h57.40.166,lexical_decision_task_MP_exp2,2020.2.5,Win32,60,,m,1,0.623505,,,,,,,,0.623505,1,,,,,,107,WORD,"ID",16,slogan,SLOGAN,m,,,,,,0.141666667,-0.217592593,0,0,0,,0,375,375,106,1,
,,,,,,,,,,,,,,,,,,5f12a59abbb7d320699d062f,2020-11-26_15h57.40.166,lexical_decision_task_MP_exp2,2020.2.5,Win32,60,,m,1,0.4784,,,,,,,,0.4784,1,,,,,,65,WORD,"ID",16,symbol,SYMBOL,m,,,,,,0.141666667,-0.217592593,0,0,0,,0,376,376,64,1,
,,,,,,,,,,,,,,,,,,5f12a59abbb7d320699d062f,2020-11-26_15h57.40.166,lexical_decision_task_MP_exp2,2020.2.5,Win32,60,,m,1,0.539025,,,,,,,,0.539025,1,,,,,,32,WORD,"ID",33,buckle,BUCKLE,m,,,,,,0.141666667,-0.217592593,0,0,0,,0,377,377,31,1,
,,,,,,,,,,,,,,,,,,5f12a59abbb7d320699d062f,2020-11-26_15h57.40.166,lexical_decision_task_MP_exp2,2020.2.5,Win32,60,,m,1,0.681425,,,,,,,,0.681425,1,,,,,,145,WORD,UN,33,couple,PARISH,m,,,,,,0.141666667,-0.217592593,0,0,0,,0,378,378,144,1,
,,,,,,,,,,,,,,,,,,5f12a59abbb7d320699d062f,2020-11-26_15h57.40.166,lexical_decision_task_MP_exp2,2020.2.5,Win32,60,,m,1,0.498185,,,,,,,,0.498185,1,,,,,,70,WORD,"ID",16,square,SQUARE,m,,,,,,0.141666667,-0.217592593,0,0,0,,0,379,379,69,1,
,,,,,,,,,,,,,,,,,,5f12a59abbb7d320699d062f,2020-11-26_15h57.40.166,lexical_decision_task_MP_exp2,2020.2.5,Win32,60,,m,0,0.41376,,,,,,,,0.41376,0,,,,,,308,NW,"ID",16,psetch,PSETCH,z,,,,,,0.141666667,-0.217592593,0,0,0,,0,380,380,307,1,
,,,,,,,,,,,,,,,,,,5f12a59abbb7d320699d062f,2020-11-26_15h57.40.166,lexical_decision_task_MP_exp2,2020.2.5,Win32,60,,z,1,0.674385,,,,,,,,0.674385,1,,,,,,288,NW,"ID",33,yaceup,YACEUP,z,,,,,,0.141666667,-0.217592593,0,0,0,,0,381,381,287,1,
,,,,,,,,,,,,,,,,,,5f12a59abbb7d320699d062f,2020-11-26_15h57.40.166,lexical_decision_task_MP_exp2,2020.2.5,Win32,60,,m,1,0.61463,,,,,,,,0.61463,1,,,,,,4,WORD,"ID",33,trench,TRENCH,m,,,,,,0.141666667,-0.217592593,0,0,0,,0,382,382,3,1,
,,,,,,,,,,,,,,,,,,5f12a59abbb7d320699d062f,2020-11-26_15h57.40.166,lexical_decision_task_MP_exp2,2020.2.5,Win32,60,,z,1,0.83507,,,,,,,,0.83507,1,,,,,,381,NW,UN,33,sarley,HUNIEK,z,,,,,,0.141666667,-0.217592593,0,0,0,,0,383,383,380,1,
,,,,,,,,,,,,,,,,,,5f12a59abbb7d320699d062f,2020-11-26_15h57.40.166,lexical_decision_task_MP_exp2,2020.2.5,Win32,60,,z,1,0.74171,,,,,,,,0.74171,1,,,,,,465,NW,UN,16,hocite,WHIVEX,z,,,,,,0.141666667,-0.217592593,0,0,0,,0,384,384,464,1,
,,,,,,,,,,,,,,,,,,5f12a59abbb7d320699d062f,2020-11-26_15h57.40.166,lexical_decision_task_MP_exp2,2020.2.5,Win32,60,,m,1,0.581385,,,,,,,,0.581385,1,,,,,,12,WORD,"ID",33,orange,ORANGE,m,,,,,,0.141666667,-0.217592593,0,0,0,,0,385,385,11,1,
,,,,,,,,,,,,,,,,,,5f12a59abbb7d320699d062f,2020-11-26_15h57.40.166,lexical_decision_task_MP_exp2,2020.2.5,Win32,60,,m,1,0.604385,,,,,,,,0.604385,1,,,,,,105,WORD,"ID",16,number,NUMBER,m,,,,,,0.141666667,-0.217592593,0,0,0,,0,386,386,104,1,
,,,,,,,,,,,,,,,,,,5f12a59abbb7d320699d062f,2020-11-26_15h57.40.166,lexical_decision_task_MP_exp2,2020.2.5,Win32,60,,z,1,0.61266,,,,,,,,0.61266,1,,,,,,246,NW,"ID",33,piaton,PIATON,z,,,,,,0.141666667,-0.217592593,0,0,0,,0,387,387,245,1,
,,,,,,,,,,,,,,,,,,5f12a59abbb7d320699d062f,2020-11-26_15h57.40.166,lexical_decision_task_MP_exp2,2020.2.5,Win32,60,,m,1,0.76024,,,,,,,,0.76024,1,,,,,,179,WORD,UN,33,silent,BASKET,m,,,,,,0.141666667,-0.217592593,0,0,0,,0,388,388,178,1,
,,,,,,,,,,,,,,,,,,5f12a59abbb7d320699d062f,2020-11-26_15h57.40.166,lexical_decision_task_MP_exp2,2020.2.5,Win32,60,,z,1,1.22595,,,,,,,,1.22595,1,,,,,,387,NW,UN,33,cragin,GRONCE,z,,,,,,0.141666667,-0.217592593,0,0,0,,0,389,389,386,1,
,,,,,,,,,,,,,,,,,,5f12a59abbb7d320699d062f,2020-11-26_15h57.40.166,lexical_decision_task_MP_exp2,2020.2.5,Win32,60,,m,1,0.684255,,,,,,,,0.684255,1,,,,,,27,WORD,"ID",33,scream,SCREAM,m,,,,,,0.141666667,-0.217592593,0,0,0,,0,390,390,26,1,
,,,,,,,,,,,,,,,,,,5f12a59abbb7d320699d062f,2020-11-26_15h57.40.166,lexical_decision_task_MP_exp2,2020.2.5,Win32,60,,m,1,0.69811,,,,,,,,0.69811,1,,,,,,222,WORD,UN,16,casino,HINDER,m,,,,,,0.141666667,-0.217592593,0,0,0,,0,391,391,221,1,
,,,,,,,,,,,,,,,,,,5f12a59abbb7d320699d062f,2020-11-26_15h57.40.166,lexical_decision_task_MP_exp2,2020.2.5,Win32,60,,m,1,0.96245,,,,,,,,0.96245,1,,,,,,219,WORD,UN,16,voyage,BUCKET,m,,,,,,0.141666667,-0.217592593,0,0,0,,0,392,392,218,1,
