counterbalancing_condition,instr_done_keyboard.keys,instr_done_touch.x,instr_done_touch.y,instr_done_touch.leftButton,instr_done_touch.midButton,instr_done_touch.rightButton,instr_done_touch.clicked_name,instruction_pages.thisRepN,instruction_pages.thisTrialN,instruction_pages.thisN,instruction_pages.thisIndex,instruction_pages.ran,pageN,phase,instruct_text,has_image,instruct_image,participant,date,expName,psychopyVersion,OS,frameRate,response.keys,response.corr,touch_resp.x,touch_resp.y,touch_resp.leftButton,touch_resp.midButton,touch_resp.rightButton,touch_resp.time,touch_resp.clicked_name,rt,corr,practice_trials.thisRepN,practice_trials.thisTrialN,practice_trials.thisN,practice_trials.thisIndex,practice_trials.ran,TrialID,StimulusType,Condition,PrimeDuration,Prime,Target,corrAns,end_of_practice_trials_pages.thisRepN,end_of_practice_trials_pages.thisTrialN,end_of_practice_trials_pages.thisN,end_of_practice_trials_pages.thisIndex,end_of_practice_trials_pages.ran,break_done_touch.x,break_done_touch.y,break_done_touch.leftButton,break_done_touch.midButton,break_done_touch.rightButton,break_done_keyboard.keys,experiment_trials.thisRepN,experiment_trials.thisTrialN,experiment_trials.thisN,experiment_trials.thisIndex,experiment_trials.ran,break_done_touch.clicked_name
2,,0.068772029,-0.394265777,1,0,0,instr_done_button,0,0,0,0,1,1,instructions,"INSTRUCTIONS
At the start of each trial, look at the hash marks (######) in the center of the screen. After a moment, a string of letters will appear. Your task is to indicate if the letter string forms a word or not (i.e., if it is a nonword). For example, AUTHOR is a word while AUTHON is a nonword.

Press the space bar or touch the button below to continue.",0,,5f146f134d45f104d0fee62c,2020-11-26_16h20.49.385,lexical_decision_task_MP_exp2,2020.2.5,Linux armv8l,60,,,,,,,,,,,,,,,,,,,,,,,,,,,,,,,,,,,,,,,,
,,0.039949213,-0.363303027,1,0,0,instr_done_button,0,1,1,1,1,2,instructions,"If your device has a keyboard, press the 'Z' key for nonwords and the 'M' key for words.





Press the space bar or touch the button below to continue.",1,keyboard-example.gif,5f146f134d45f104d0fee62c,2020-11-26_16h20.49.385,lexical_decision_task_MP_exp2,2020.2.5,Linux armv8l,60,,,,,,,,,,,,,,,,,,,,,,,,,,,,,,,,,,,,,,,,
,,0.047669642,-0.393046777,1,0,0,instr_done_button,0,2,2,2,1,3,instructions,"If you are using a touchscreen only device, use the buttons on the screen. Do not use the mouse.





Press the space bar or touch the button below to continue.",1,touchscreen-example.gif,5f146f134d45f104d0fee62c,2020-11-26_16h20.49.385,lexical_decision_task_MP_exp2,2020.2.5,Linux armv8l,60,,,,,,,,,,,,,,,,,,,,,,,,,,,,,,,,,,,,,,,,
,,0.033772885,-0.39670385,1,0,0,instr_done_button,0,3,3,3,1,4,instructions,"It is very important that you respond as quickly and accurately as possible, as each letter string will only be on the screen for two seconds. If you do not respond within this time, the message 'Too slow!' will be displayed and the experiment will progress to the next letter string. The first 20 trials will be practice trials and you will receive feedback on your answers. 

Press the space bar or touch the button below to start the practice trials.",0,,5f146f134d45f104d0fee62c,2020-11-26_16h20.49.385,lexical_decision_task_MP_exp2,2020.2.5,Linux armv8l,60,,,,,,,,,,,,,,,,,,,,,,,,,,,,,,,,,,,,,,,,
,,,,,,,,,,,,,,,,,,5f146f134d45f104d0fee62c,2020-11-26_16h20.49.385,lexical_decision_task_MP_exp2,2020.2.5,Linux armv8l,60,,0,0.41618999,-0.311860686,1,0,0,1.5867,button_right,1.5867,1,0,0,0,0,1,1001,WORD,"ID",33,utopia,UTOPIA,m,,,,,,,,,,,,,,,,,
,,,,,,,,,,,,,,,,,,5f146f134d45f104d0fee62c,2020-11-26_16h20.49.385,lexical_decision_task_MP_exp2,2020.2.5,Linux armv8l,60,,0,0.391999328,-0.302596231,1,0,0,0.8218,button_right,0.8218,1,0,1,1,1,1,1002,WORD,"ID",33,adjust,ADJUST,m,,,,,,,,,,,,,,,,,
,,,,,,,,,,,,,,,,,,5f146f134d45f104d0fee62c,2020-11-26_16h20.49.385,lexical_decision_task_MP_exp2,2020.2.5,Linux armv8l,60,,0,-0.491214086,-0.311129301,1,0,0,0.6477,button_left,0.6477,1,0,2,2,15,1,1016,NW,UN,16,mushed,WHAISE,z,,,,,,,,,,,,,,,,,
,,,,,,,,,,,,,,,,,,5f146f134d45f104d0fee62c,2020-11-26_16h20.49.385,lexical_decision_task_MP_exp2,2020.2.5,Linux armv8l,60,,0,-0.465994122,-0.307959844,1,0,0,0.6615,button_left,0.6615,1,0,3,3,10,1,1011,NW,"ID",16,inlade,INLADE,z,,,,,,,,,,,,,,,,,
,,,,,,,,,,,,,,,,,,5f146f134d45f104d0fee62c,2020-11-26_16h20.49.385,lexical_decision_task_MP_exp2,2020.2.5,Linux armv8l,60,,0,0.378102571,-0.266269721,1,0,0,0.6651,button_right,0.6651,1,0,4,4,7,1,1008,WORD,UN,16,hurdle,VOLUME,m,,,,,,,,,,,,,,,,,
,,,,,,,,,,,,,,,,,,5f146f134d45f104d0fee62c,2020-11-26_16h20.49.385,lexical_decision_task_MP_exp2,2020.2.5,Linux armv8l,60,,0,-0.482464318,-0.331121056,1,0,0,0.9519,button_left,0.9519,1,0,5,5,8,1,1009,NW,"ID",33,aslert,ASLERT,z,,,,,,,,,,,,,,,,,
,,,,,,,,,,,,,,,,,,5f146f134d45f104d0fee62c,2020-11-26_16h20.49.385,lexical_decision_task_MP_exp2,2020.2.5,Linux armv8l,60,,0,-0.478346778,-0.329170746,1,0,0,0.8691,button_left,0.8691,1,0,6,6,12,1,1013,NW,UN,33,adveil,SPRINY,z,,,,,,,,,,,,,,,,,
,,,,,,,,,,,,,,,,,,5f146f134d45f104d0fee62c,2020-11-26_16h20.49.385,lexical_decision_task_MP_exp2,2020.2.5,Linux armv8l,60,,0,-0.464964746,-0.289918622,1,0,0,0.6324,button_left,0.6324,1,0,7,7,13,1,1014,NW,UN,33,winfer,ROUPET,z,,,,,,,,,,,,,,,,,
,,,,,,,,,,,,,,,,,,5f146f134d45f104d0fee62c,2020-11-26_16h20.49.385,lexical_decision_task_MP_exp2,2020.2.5,Linux armv8l,60,,0,0.385308275,-0.349893811,1,0,0,0.6966,button_right,0.6966,1,0,8,8,2,1,1003,WORD,"ID",16,almond,ALMOND,m,,,,,,,,,,,,,,,,,
,,,,,,,,,,,,,,,,,,5f146f134d45f104d0fee62c,2020-11-26_16h20.49.385,lexical_decision_task_MP_exp2,2020.2.5,Linux armv8l,60,,0,-0.474743926,-0.319418602,1,0,0,0.716,button_left,0.716,1,0,9,9,9,1,1010,NW,"ID",33,fariny,FARINY,z,,,,,,,,,,,,,,,,,
,,,,,,,,,,,,,,,,,,5f146f134d45f104d0fee62c,2020-11-26_16h20.49.385,lexical_decision_task_MP_exp2,2020.2.5,Linux armv8l,60,,0,0.395087529,-0.345505353,1,0,0,0.7603,button_right,0.7603,1,0,10,10,4,1,1005,WORD,UN,33,abound,SQUEAK,m,,,,,,,,,,,,,,,,,
,,,,,,,,,,,,,,,,,,5f146f134d45f104d0fee62c,2020-11-26_16h20.49.385,lexical_decision_task_MP_exp2,2020.2.5,Linux armv8l,60,,0,-0.488640609,-0.313811219,1,0,0,0.68,button_left,0.68,1,0,11,11,11,1,1012,NW,"ID",16,rashet,RASHET,z,,,,,,,,,,,,,,,,,
,,,,,,,,,,,,,,,,,,5f146f134d45f104d0fee62c,2020-11-26_16h20.49.385,lexical_decision_task_MP_exp2,2020.2.5,Linux armv8l,60,,0,0.403322535,-0.34136074,1,0,0,0.9387,button_right,0.9387,1,0,12,12,3,1,1004,WORD,"ID",16,matrix,MATRIX,m,,,,,,,,,,,,,,,,,
,,,,,,,,,,,,,,,,,,5f146f134d45f104d0fee62c,2020-11-26_16h20.49.385,lexical_decision_task_MP_exp2,2020.2.5,Linux armv8l,60,,0,0.432660149,-0.326732598,1,0,0,0.7671,button_right,0.7671,1,0,13,13,5,1,1006,WORD,UN,33,frenzy,OBTAIN,m,,,,,,,,,,,,,,,,,
,,,,,,,,,,,,,,,,,,5f146f134d45f104d0fee62c,2020-11-26_16h20.49.385,lexical_decision_task_MP_exp2,2020.2.5,Linux armv8l,60,,0,0.45170371,-0.3147863,1,0,0,0.7005,button_right,0.7005,1,0,14,14,6,1,1007,WORD,UN,16,tropic,ZOMBIE,m,,,,,,,,,,,,,,,,,
,,,,,,,,,,,,,,,,,,5f146f134d45f104d0fee62c,2020-11-26_16h20.49.385,lexical_decision_task_MP_exp2,2020.2.5,Linux armv8l,60,,0,-0.515919361,-0.308203688,1,0,0,0.6814,button_left,0.6814,1,0,15,15,14,1,1015,NW,UN,16,miaber,THRALE,z,,,,,,,,,,,,,,,,,
,,0.06208105,-0.36062111,1,0,0,instr_done_button,,,,,,1,end_of_practice,"You have completed the practice trials. During the experimental trials, you will not receive feedback, but it is very important that you respond as quickly and accurately as possible. 
Before you begin, please ensure that you are in a comfortable and quiet location and will not be disturbed for about 15 minutes, as we cannot use your data if you do not complete all the trials. 
There will be opportunities to take breaks at regular intervals during the experiment. When you are ready to start the experimental trials, please press space or touch the button below.",,,5f146f134d45f104d0fee62c,2020-11-26_16h20.49.385,lexical_decision_task_MP_exp2,2020.2.5,Linux armv8l,60,,,,,,,,,,,,,,,,,,,,,,,,0,0,0,0,1,,,,,,,,,,,,
,,,,,,,,,,,,,,,,,,5f146f134d45f104d0fee62c,2020-11-26_16h20.49.385,lexical_decision_task_MP_exp2,2020.2.5,Linux armv8l,60,,0,0.410528239,-0.305278148,1,0,0,0.9163,button_right,0.9163,1,,,,,,38,WORD,UN,16,insect,POWDER,m,,,,,,0.410528239,-0.305278148,1,0,0,,0,0,0,217,1,
,,,,,,,,,,,,,,,,,,5f146f134d45f104d0fee62c,2020-11-26_16h20.49.385,lexical_decision_task_MP_exp2,2020.2.5,Linux armv8l,60,,0,0.411043037,-0.33160867,1,0,0,0.6827,button_right,0.6827,1,,,,,,88,WORD,"ID",33,hunger,HUNGER,m,,,,,,0.411043037,-0.33160867,1,0,0,,0,1,1,27,1,
,,,,,,,,,,,,,,,,,,5f146f134d45f104d0fee62c,2020-11-26_16h20.49.385,lexical_decision_task_MP_exp2,2020.2.5,Linux armv8l,60,,0,0.425454445,-0.292356547,1,0,0,0.6524,button_right,0.6524,1,,,,,,113,WORD,"ID",33,chorus,CHORUS,m,,,,,,0.425454445,-0.292356547,1,0,0,,0,2,2,52,1,
,,,,,,,,,,,,,,,,,,5f146f134d45f104d0fee62c,2020-11-26_16h20.49.385,lexical_decision_task_MP_exp2,2020.2.5,Linux armv8l,60,,0,-0.514375298,-0.292844161,1,0,0,0.6676,button_left,0.6676,1,,,,,,288,NW,UN,16,starby,YACEUP,z,,,,,,-0.514375298,-0.292844161,1,0,0,,0,3,3,467,1,
,,,,,,,,,,,,,,,,,,5f146f134d45f104d0fee62c,2020-11-26_16h20.49.385,lexical_decision_task_MP_exp2,2020.2.5,Linux armv8l,60,,0,-0.551947881,-0.290893703,1,0,0,0.6509,button_left,0.6509,0,,,,,,139,WORD,"ID",16,debris,DEBRIS,m,,,,,,-0.551947881,-0.290893703,1,0,0,,0,4,4,78,1,
,,,,,,,,,,,,,,,,,,5f146f134d45f104d0fee62c,2020-11-26_16h20.49.385,lexical_decision_task_MP_exp2,2020.2.5,Linux armv8l,60,,0,-0.505625493,-0.306497074,1,0,0,0.8664,button_left,0.8664,1,,,,,,444,NW,UN,33,minkel,JAUNCE,z,,,,,,-0.505625493,-0.306497074,1,0,0,,0,5,5,383,1,
,,,,,,,,,,,,,,,,,,5f146f134d45f104d0fee62c,2020-11-26_16h20.49.385,lexical_decision_task_MP_exp2,2020.2.5,Linux armv8l,60,,0,-0.504596118,-0.294306931,1,0,0,0.9391,button_left,0.9391,1,,,,,,314,NW,"ID",33,sprine,SPRINE,z,,,,,,-0.504596118,-0.294306931,1,0,0,,0,6,6,253,1,
,,,,,,,,,,,,,,,,,,5f146f134d45f104d0fee62c,2020-11-26_16h20.49.385,lexical_decision_task_MP_exp2,2020.2.5,Linux armv8l,60,,0,-0.494816937,-0.270658178,1,0,0,0.6678,button_left,0.6678,1,,,,,,405,NW,"ID",16,flumni,FLUMNI,z,,,,,,-0.494816937,-0.270658178,1,0,0,,0,7,7,344,1,
,,,,,,,,,,,,,,,,,,5f146f134d45f104d0fee62c,2020-11-26_16h20.49.385,lexical_decision_task_MP_exp2,2020.2.5,Linux armv8l,60,,0,-0.528271981,-0.271877178,1,0,0,0.6682,button_left,0.6682,0,,,,,,68,WORD,"ID",33,fumble,FUMBLE,m,,,,,,-0.528271981,-0.271877178,1,0,0,,0,8,8,7,1,
,,,,,,,,,,,,,,,,,,5f146f134d45f104d0fee62c,2020-11-26_16h20.49.385,lexical_decision_task_MP_exp2,2020.2.5,Linux armv8l,60,,0,0.381190772,-0.282360632,1,0,0,0.733,button_right,0.733,1,,,,,,235,WORD,UN,33,pirate,GRUMPY,m,,,,,,0.381190772,-0.282360632,1,0,0,,0,9,9,174,1,
,,,,,,,,,,,,,,,,,,5f146f134d45f104d0fee62c,2020-11-26_16h20.49.385,lexical_decision_task_MP_exp2,2020.2.5,Linux armv8l,60,,0,-0.511287134,-0.271389563,1,0,0,0.8351,button_left,0.8351,1,,,,,,410,NW,"ID",16,tunory,TUNORY,z,,,,,,-0.511287134,-0.271389563,1,0,0,,0,10,10,349,1,
,,,,,,,,,,,,,,,,,,5f146f134d45f104d0fee62c,2020-11-26_16h20.49.385,lexical_decision_task_MP_exp2,2020.2.5,Linux armv8l,60,,0,0.410013588,-0.3135673,1,0,0,0.8355,button_right,0.8355,1,,,,,,19,WORD,UN,16,breast,PATRON,m,,,,,,0.410013588,-0.3135673,1,0,0,,0,11,11,198,1,
,,,,,,,,,,,,,,,,,,5f146f134d45f104d0fee62c,2020-11-26_16h20.49.385,lexical_decision_task_MP_exp2,2020.2.5,Linux armv8l,60,,0,-0.506654869,-0.275534176,1,0,0,0.7819,button_left,0.7819,1,,,,,,393,NW,"ID",16,ganous,GANOUS,z,,,,,,-0.506654869,-0.275534176,1,0,0,,0,12,12,332,1,
,,,,,,,,,,,,,,,,,,5f146f134d45f104d0fee62c,2020-11-26_16h20.49.385,lexical_decision_task_MP_exp2,2020.2.5,Linux armv8l,60,,0,-0.528786706,-0.283335862,1,0,0,0.7008,button_left,0.7008,1,,,,,,428,NW,UN,33,funtle,TANDLY,z,,,,,,-0.528786706,-0.283335862,1,0,0,,0,13,13,367,1,
,,,,,,,,,,,,,,,,,,5f146f134d45f104d0fee62c,2020-11-26_16h20.49.385,lexical_decision_task_MP_exp2,2020.2.5,Linux armv8l,60,,0,-0.498419789,-0.26748872,1,0,0,0.6187,button_left,0.6187,1,,,,,,383,NW,"ID",16,aungre,AUNGRE,z,,,,,,-0.498419789,-0.26748872,1,0,0,,0,14,14,322,1,
,,,,,,,,,,,,,,,,,,5f146f134d45f104d0fee62c,2020-11-26_16h20.49.385,lexical_decision_task_MP_exp2,2020.2.5,Linux armv8l,60,,0,-0.514375298,-0.267732639,1,0,0,0.6829,button_left,0.6829,1,,,,,,404,NW,"ID",16,cluirm,CLUIRM,z,,,,,,-0.514375298,-0.267732639,1,0,0,,0,15,15,343,1,
,,,,,,,,,,,,,,,,,,5f146f134d45f104d0fee62c,2020-11-26_16h20.49.385,lexical_decision_task_MP_exp2,2020.2.5,Linux armv8l,60,,0,-0.493787562,-0.270170564,1,0,0,0.7259,button_left,0.7259,1,,,,,,282,NW,UN,16,veralf,PORLEX,z,,,,,,-0.493787562,-0.270170564,1,0,0,,0,16,16,461,1,
,,,,,,,,,,,,,,,,,,5f146f134d45f104d0fee62c,2020-11-26_16h20.49.385,lexical_decision_task_MP_exp2,2020.2.5,Linux armv8l,60,,0,-0.497905102,-0.299914388,1,0,0,0.7137,button_left,0.7137,1,,,,,,472,NW,UN,33,gorbie,CIGNEY,z,,,,,,-0.497905102,-0.299914388,1,0,0,,0,17,17,411,1,
,,,,,,,,,,,,,,,,,,5f146f134d45f104d0fee62c,2020-11-26_16h20.49.385,lexical_decision_task_MP_exp2,2020.2.5,Linux armv8l,60,,0,-0.514889986,-0.282116862,1,0,0,0.7174,button_left,0.7174,1,,,,,,306,NW,"ID",33,sounge,SOUNGE,z,,,,,,-0.514889986,-0.282116862,1,0,0,,0,18,18,245,1,
,,,,,,,,,,,,,,,,,,5f146f134d45f104d0fee62c,2020-11-26_16h20.49.385,lexical_decision_task_MP_exp2,2020.2.5,Linux armv8l,60,,0,0.399205032,-0.336240898,1,0,0,0.7015,button_right,0.7015,1,,,,,,172,WORD,"ID",16,patrol,PATROL,m,,,,,,0.399205032,-0.336240898,1,0,0,,0,19,19,111,1,
,,,,,,,,,,,,,,,,,,5f146f134d45f104d0fee62c,2020-11-26_16h20.49.385,lexical_decision_task_MP_exp2,2020.2.5,Linux armv8l,60,,0,-0.501507954,-0.289674703,1,0,0,0.6534,button_left,0.6534,1,,,,,,349,NW,"ID",33,asylen,ASYLEN,z,,,,,,-0.501507954,-0.289674703,1,0,0,,0,20,20,288,1,
,,,,,,,,,,,,,,,,,,5f146f134d45f104d0fee62c,2020-11-26_16h20.49.385,lexical_decision_task_MP_exp2,2020.2.5,Linux armv8l,60,,0,-0.495331588,-0.281385551,1,0,0,0.6836,button_left,0.6836,1,,,,,,407,NW,"ID",16,suiver,SUIVER,z,,,,,,-0.495331588,-0.281385551,1,0,0,,0,21,21,346,1,
,,,,,,,,,,,,,,,,,,5f146f134d45f104d0fee62c,2020-11-26_16h20.49.385,lexical_decision_task_MP_exp2,2020.2.5,Linux armv8l,60,,0,-0.512831197,-0.31454253,1,0,0,0.6004,button_left,0.6004,1,,,,,,426,NW,UN,33,schind,URIVEL,z,,,,,,-0.512831197,-0.31454253,1,0,0,,0,22,22,365,1,
,,,,,,,,,,,,,,,,,,5f146f134d45f104d0fee62c,2020-11-26_16h20.49.385,lexical_decision_task_MP_exp2,2020.2.5,Linux armv8l,60,,0,0.388396476,-0.311860686,1,0,0,0.703,button_right,0.703,1,,,,,,203,WORD,UN,33,burden,PHRASE,m,,,,,,0.388396476,-0.311860686,1,0,0,,0,23,23,142,1,
,,,,,,,,,,,,,,,,,,5f146f134d45f104d0fee62c,2020-11-26_16h20.49.385,lexical_decision_task_MP_exp2,2020.2.5,Linux armv8l,60,,0,-0.514375298,-0.307959844,1,0,0,0.6856,button_left,0.6856,1,,,,,,273,NW,UN,16,fumblo,SORTEL,z,,,,,,-0.514375298,-0.307959844,1,0,0,,0,24,24,452,1,
,,,,,,,,,,,,,,,,,,5f146f134d45f104d0fee62c,2020-11-26_16h20.49.385,lexical_decision_task_MP_exp2,2020.2.5,Linux armv8l,60,,0,-0.510257721,-0.290162318,1,0,0,0.6156,button_left,0.6156,1,,,,,,256,NW,UN,16,veniod,INLORS,z,,,,,,-0.510257721,-0.290162318,1,0,0,,0,25,25,435,1,
,,,,,,,,,,,,,,,,,,5f146f134d45f104d0fee62c,2020-11-26_16h20.49.385,lexical_decision_task_MP_exp2,2020.2.5,Linux armv8l,60,,0,-0.521066277,-0.306984763,1,0,0,0.5696,button_left,0.5696,1,,,,,,254,NW,UN,16,apight,VAROSH,z,,,,,,-0.521066277,-0.306984763,1,0,0,,0,26,26,433,1,
,,,,,,,,,,,,,,,,,,5f146f134d45f104d0fee62c,2020-11-26_16h20.49.385,lexical_decision_task_MP_exp2,2020.2.5,Linux armv8l,60,,0,0.386852376,-0.319174757,1,0,0,0.6996,button_right,0.6996,1,,,,,,132,WORD,"ID",16,strong,STRONG,m,,,,,,0.386852376,-0.319174757,1,0,0,,0,27,27,71,1,
,,,,,,,,,,,,,,,,,,5f146f134d45f104d0fee62c,2020-11-26_16h20.49.385,lexical_decision_task_MP_exp2,2020.2.5,Linux armv8l,60,,0,-0.510257721,-0.306984763,1,0,0,0.7557,button_left,0.7557,1,,,,,,398,NW,"ID",16,blunde,BLUNDE,z,,,,,,-0.510257721,-0.306984763,1,0,0,,0,28,28,337,1,
,,,,,,,,,,,,,,,,,,5f146f134d45f104d0fee62c,2020-11-26_16h20.49.385,lexical_decision_task_MP_exp2,2020.2.5,Linux armv8l,60,,0,0.391484677,-0.340141741,1,0,0,0.7693,button_right,0.7693,1,,,,,,171,WORD,"ID",16,depart,DEPART,m,,,,,,0.391484677,-0.340141741,1,0,0,,0,29,29,110,1,
,,,,,,,,,,,,,,,,,,5f146f134d45f104d0fee62c,2020-11-26_16h20.49.385,lexical_decision_task_MP_exp2,2020.2.5,Linux armv8l,60,,0,0.411043037,-0.301133387,1,0,0,0.8171,button_right,0.8171,1,,,,,,142,WORD,"ID",16,spruce,SPRUCE,m,,,,,,0.411043037,-0.301133387,1,0,0,,0,30,30,81,1,
,,,,,,,,,,,,,,,,,,5f146f134d45f104d0fee62c,2020-11-26_16h20.49.385,lexical_decision_task_MP_exp2,2020.2.5,Linux armv8l,60,,0,0.405896085,-0.320149986,1,0,0,0.6182,button_right,0.6182,1,,,,,,208,WORD,UN,33,search,HOCKEY,m,,,,,,0.405896085,-0.320149986,1,0,0,,0,31,31,147,1,
,,,,,,,,,,,,,,,,,,5f146f134d45f104d0fee62c,2020-11-26_16h20.49.385,lexical_decision_task_MP_exp2,2020.2.5,Linux armv8l,60,,0,-0.505625493,-0.321368986,1,0,0,0.6699,button_left,0.6699,1,,,,,,344,NW,"ID",33,scrily,SCRILY,z,,,,,,-0.505625493,-0.321368986,1,0,0,,0,32,32,283,1,
,,,,,,,,,,,,,,,,,,5f146f134d45f104d0fee62c,2020-11-26_16h20.49.385,lexical_decision_task_MP_exp2,2020.2.5,Linux armv8l,60,,0,-0.510257721,-0.302596231,1,0,0,0.6346,button_left,0.6346,1,,,,,,292,NW,UN,16,swance,ABLINT,z,,,,,,-0.510257721,-0.302596231,1,0,0,,0,33,33,471,1,
,,,,,,,,,,,,,,,,,,5f146f134d45f104d0fee62c,2020-11-26_16h20.49.385,lexical_decision_task_MP_exp2,2020.2.5,Linux armv8l,60,,0,0.382734873,-0.31454253,1,0,0,0.6836,button_right,0.6836,1,,,,,,11,WORD,UN,16,amount,CRUISE,m,,,,,,0.382734873,-0.31454253,1,0,0,,0,34,34,190,1,
,,,,,,,,,,,,,,,,,,5f146f134d45f104d0fee62c,2020-11-26_16h20.49.385,lexical_decision_task_MP_exp2,2020.2.5,Linux armv8l,60,,0,-0.520036901,-0.309422687,1,0,0,0.7352,button_left,0.7352,1,,,,,,305,NW,"ID",33,forgle,FORGLE,z,,,,,,-0.520036901,-0.309422687,1,0,0,,0,35,35,244,1,
,,,,,,,,,,,,,,,,,,5f146f134d45f104d0fee62c,2020-11-26_16h20.49.385,lexical_decision_task_MP_exp2,2020.2.5,Linux armv8l,60,,0,-0.514375298,-0.280897863,1,0,0,0.6492,button_left,0.6492,1,,,,,,366,NW,"ID",16,toshel,TOSHEL,z,,,,,,-0.514375298,-0.280897863,1,0,0,,0,36,36,305,1,
,,,,,,,,,,,,,,,,,,5f146f134d45f104d0fee62c,2020-11-26_16h20.49.385,lexical_decision_task_MP_exp2,2020.2.5,Linux armv8l,60,,0,-0.505110805,-0.288455704,1,0,0,0.6489,button_left,0.6489,1,,,,,,255,NW,UN,16,inlors,APIGHT,z,,,,,,-0.505110805,-0.288455704,1,0,0,,0,37,37,434,1,
,,,,,,,,,,,,,,,,,,5f146f134d45f104d0fee62c,2020-11-26_16h20.49.385,lexical_decision_task_MP_exp2,2020.2.5,Linux armv8l,60,,0,0.375529169,-0.299914388,1,0,0,0.7035,button_right,0.7035,1,,,,,,158,WORD,"ID",16,island,ISLAND,m,,,,,,0.375529169,-0.299914388,1,0,0,,0,38,38,97,1,
,,,,,,,,,,,,,,,,,,5f146f134d45f104d0fee62c,2020-11-26_16h20.49.385,lexical_decision_task_MP_exp2,2020.2.5,Linux armv8l,60,,0,-0.524669129,-0.312348301,1,0,0,0.6326,button_left,0.6326,1,,,,,,390,NW,"ID",16,hatrus,HATRUS,z,,,,,,-0.524669129,-0.312348301,1,0,0,,0,39,39,329,1,
,,,,,,,,,,,,,,,,,,5f146f134d45f104d0fee62c,2020-11-26_16h20.49.385,lexical_decision_task_MP_exp2,2020.2.5,Linux armv8l,60,,0,0.390970026,-0.306984763,1,0,0,0.815,button_right,0.815,1,,,,,,229,WORD,UN,33,fringe,MOTHER,m,,,,,,0.390970026,-0.306984763,1,0,0,,0,40,40,168,1,
,,,,,,,,,,,,,,,,,,5f146f134d45f104d0fee62c,2020-11-26_16h20.49.385,lexical_decision_task_MP_exp2,2020.2.5,Linux armv8l,60,,0,0.394572878,-0.322100371,1,0,0,0.6396,button_right,0.6396,1,,,,,,177,WORD,"ID",16,advent,ADVENT,m,,,,,,0.394572878,-0.322100371,1,0,0,,0,41,41,116,1,
,,,,,,,,,,,,,,,,,,5f146f134d45f104d0fee62c,2020-11-26_16h20.49.385,lexical_decision_task_MP_exp2,2020.2.5,Linux armv8l,60,,0,-0.523639753,-0.300645847,1,0,0,0.6834,button_left,0.6834,1,,,,,,340,NW,"ID",33,fiatch,FIATCH,z,,,,,,-0.523639753,-0.300645847,1,0,0,,0,42,42,279,1,
,,,,,,,,,,,,,,,,,,5f146f134d45f104d0fee62c,2020-11-26_16h20.49.385,lexical_decision_task_MP_exp2,2020.2.5,Linux armv8l,60,,0,-0.559668272,-0.300645847,1,0,0,0.6966,button_left,0.6966,1,,,,,,392,NW,"ID",16,rouncy,ROUNCY,z,,,,,,-0.559668272,-0.300645847,1,0,0,,0,43,43,331,1,
,,,,,,,,,,,,,,,,,,5f146f134d45f104d0fee62c,2020-11-26_16h20.49.385,lexical_decision_task_MP_exp2,2020.2.5,Linux armv8l,60,,0,0.397146281,-0.314298759,1,0,0,0.6178,button_right,0.6178,1,,,,,,104,WORD,"ID",33,studio,STUDIO,m,,,,,,0.397146281,-0.314298759,1,0,0,,0,44,44,43,1,
,,,,,,,,,,,,,,,,,,5f146f134d45f104d0fee62c,2020-11-26_16h20.49.385,lexical_decision_task_MP_exp2,2020.2.5,Linux armv8l,60,,0,0.406925387,-0.317224447,1,0,0,0.6694,button_right,0.6694,1,,,,,,77,WORD,"ID",33,racket,RACKET,m,,,,,,0.406925387,-0.317224447,1,0,0,,0,45,45,16,1,
,,,,,,,,,,,,,,,,,,5f146f134d45f104d0fee62c,2020-11-26_16h20.49.385,lexical_decision_task_MP_exp2,2020.2.5,Linux armv8l,60,,0,0.403837334,-0.310397991,1,0,0,0.6369,button_right,0.6369,1,,,,,,159,WORD,"ID",16,detail,DETAIL,m,,,,,,0.403837334,-0.310397991,1,0,0,,0,46,46,98,1,
,,,,,,,,,,,,,,,,,,5f146f134d45f104d0fee62c,2020-11-26_16h20.49.385,lexical_decision_task_MP_exp2,2020.2.5,Linux armv8l,60,,0,0.404866635,-0.312348301,1,0,0,0.6676,button_right,0.6676,1,,,,,,201,WORD,UN,33,factor,ADMIRE,m,,,,,,0.404866635,-0.312348301,1,0,0,,0,47,47,140,1,
,,,,,,,,,,,,,,,,,,5f146f134d45f104d0fee62c,2020-11-26_16h20.49.385,lexical_decision_task_MP_exp2,2020.2.5,Linux armv8l,60,,0,-0.529301393,-0.306984763,1,0,0,0.7376,button_left,0.7376,1,,,,,,451,NW,UN,33,surden,CAINKY,z,,,,,,-0.529301393,-0.306984763,1,0,0,,0,48,48,390,1,
,,,,,,,,,,,,,,,,,,5f146f134d45f104d0fee62c,2020-11-26_16h20.49.385,lexical_decision_task_MP_exp2,2020.2.5,Linux armv8l,60,,0,0.394058079,-0.312348301,1,0,0,0.9705,button_right,0.9705,1,,,,,,40,WORD,UN,16,spring,CONVEY,m,,,,,,0.394058079,-0.312348301,1,0,0,,0,49,49,219,1,
,,,,,,,,,,,,,,,,,,5f146f134d45f104d0fee62c,2020-11-26_16h20.49.385,lexical_decision_task_MP_exp2,2020.2.5,Linux armv8l,60,,0,0.404866635,-0.319418602,1,0,0,0.6847,button_right,0.6847,1,,,,,,84,WORD,"ID",33,mortal,MORTAL,m,,,,,,0.404866635,-0.319418602,1,0,0,,0,50,50,23,1,
,,,,,,,,,,,,,,,,,,5f146f134d45f104d0fee62c,2020-11-26_16h20.49.385,lexical_decision_task_MP_exp2,2020.2.5,Linux armv8l,60,,0,-0.529816081,-0.292112776,1,0,0,0.6182,button_left,0.6182,1,,,,,,362,NW,"ID",16,tireau,TIREAU,z,,,,,,-0.529816081,-0.292112776,1,0,0,,0,51,51,301,1,
,,,,,,,,,,,,,,,,,,5f146f134d45f104d0fee62c,2020-11-26_16h20.49.385,lexical_decision_task_MP_exp2,2020.2.5,Linux armv8l,60,,0,0.398690381,-0.313079686,1,0,0,0.653,button_right,0.653,1,,,,,,71,WORD,"ID",33,garden,GARDEN,m,,,,,,0.398690381,-0.313079686,1,0,0,,0,52,52,10,1,
,,,,,,,,,,,,,,,,,,5f146f134d45f104d0fee62c,2020-11-26_16h20.49.385,lexical_decision_task_MP_exp2,2020.2.5,Linux armv8l,60,,0,0.399719683,-0.313079686,1,0,0,0.5353,button_right,0.5353,1,,,,,,152,WORD,"ID",16,rocket,ROCKET,m,,,,,,0.399719683,-0.313079686,1,0,0,,0,53,53,91,1,
,,,,,,,,,,,,,,,,,,5f146f134d45f104d0fee62c,2020-11-26_16h20.49.385,lexical_decision_task_MP_exp2,2020.2.5,Linux armv8l,60,,0,-0.526213229,-0.305278148,1,0,0,0.6189,button_left,0.6189,1,,,,,,332,NW,"ID",33,vangue,VANGUE,z,,,,,,-0.526213229,-0.305278148,1,0,0,,0,54,54,271,1,
,,,,,,,,,,,,,,,,,,5f146f134d45f104d0fee62c,2020-11-26_16h20.49.385,lexical_decision_task_MP_exp2,2020.2.5,Linux armv8l,60,,0,0.388396476,-0.312592145,1,0,0,0.6529,button_right,0.6529,0,,,,,,406,NW,"ID",16,nouply,NOUPLY,z,,,,,,0.388396476,-0.312592145,1,0,0,,0,55,55,345,1,
,,,,,,,,,,,,,,,,,,5f146f134d45f104d0fee62c,2020-11-26_16h20.49.385,lexical_decision_task_MP_exp2,2020.2.5,Linux armv8l,60,,0,0.397146281,-0.300889617,1,0,0,0.6164,button_right,0.6164,1,,,,,,86,WORD,"ID",33,rodent,RODENT,m,,,,,,0.397146281,-0.300889617,1,0,0,,0,56,56,25,1,
,,,,,,,,,,,,,,,,,,5f146f134d45f104d0fee62c,2020-11-26_16h20.49.385,lexical_decision_task_MP_exp2,2020.2.5,Linux armv8l,60,,0,0.408469487,-0.291868932,1,0,0,0.6689,button_right,0.6689,1,,,,,,123,WORD,"ID",16,strike,STRIKE,m,,,,,,0.408469487,-0.291868932,1,0,0,,0,57,57,62,1,
,,,,,,,,,,,,,,,,,,5f146f134d45f104d0fee62c,2020-11-26_16h20.49.385,lexical_decision_task_MP_exp2,2020.2.5,Linux armv8l,60,,0,-0.502022641,-0.311616916,1,0,0,0.6692,button_left,0.6692,1,,,,,,409,NW,"ID",16,elopia,ELOPIA,z,,,,,,-0.502022641,-0.311616916,1,0,0,,0,58,58,348,1,
,,,,,,,,,,,,,,,,,,5f146f134d45f104d0fee62c,2020-11-26_16h20.49.385,lexical_decision_task_MP_exp2,2020.2.5,Linux armv8l,60,,0,-0.517463425,-0.300402002,1,0,0,0.668,button_left,0.668,1,,,,,,275,NW,UN,16,yarmon,SLEIRT,z,,,,,,-0.517463425,-0.300402002,1,0,0,,0,59,59,454,1,
,,,,,,,,,,,,,,,,,,5f146f134d45f104d0fee62c,2020-11-26_16h20.49.385,lexical_decision_task_MP_exp2,2020.2.5,Linux armv8l,60,,0,-0.506140144,-0.299183003,1,0,0,0.6693,button_left,0.6693,1,,,,,,419,NW,"ID",16,slount,SLOUNT,z,,,,,,-0.506140144,-0.299183003,1,0,0,,0,60,60,358,1,
,,,,,,,,,,,,,,,,,,5f146f134d45f104d0fee62c,2020-11-26_16h20.49.385,lexical_decision_task_MP_exp2,2020.2.5,Linux armv8l,60,,0,-0.5169487,-0.300402002,1,0,0,0.553,button_left,0.553,0,,,,,,192,WORD,UN,33,object,PLAGUE,m,,,,,,-0.5169487,-0.300402002,1,0,0,,0,61,61,131,1,
,,,,,,,,,,,,,,,,,,5f146f134d45f104d0fee62c,2020-11-26_16h20.49.385,lexical_decision_task_MP_exp2,2020.2.5,Linux armv8l,60,,0,-0.523639753,-0.300889617,1,0,0,0.6699,button_left,0.6699,1,,,,,,284,NW,UN,16,prudge,SHAPLE,z,,,,,,-0.523639753,-0.300889617,1,0,0,,0,62,62,463,1,
,,,,,,,,,,,,,,,,,,5f146f134d45f104d0fee62c,2020-11-26_16h20.49.385,lexical_decision_task_MP_exp2,2020.2.5,Linux armv8l,60,,0,0.379132021,-0.317224447,1,0,0,0.654,button_right,0.654,1,,,,,,34,WORD,UN,16,socket,JUNGLE,m,,,,,,0.379132021,-0.317224447,1,0,0,,0,63,63,213,1,
,,,,,,,,,,,,,,,,,,5f146f134d45f104d0fee62c,2020-11-26_16h20.49.385,lexical_decision_task_MP_exp2,2020.2.5,Linux armv8l,60,,0,-0.528786706,-0.303571534,1,0,0,0.8361,button_left,0.8361,1,,,,,,436,NW,UN,33,snapel,FRUTAN,z,,,,,,-0.528786706,-0.303571534,1,0,0,,0,64,64,375,1,
,,,,,,,,,,,,,,,,,,5f146f134d45f104d0fee62c,2020-11-26_16h20.49.385,lexical_decision_task_MP_exp2,2020.2.5,Linux armv8l,60,,0,0.381705423,-0.318443372,1,0,0,0.6679,button_right,0.6679,1,,,,,,145,WORD,"ID",16,parish,PARISH,m,,,,,,0.381705423,-0.318443372,1,0,0,,0,65,65,84,1,
,,,,,,,,,,,,,,,,,,5f146f134d45f104d0fee62c,2020-11-26_16h20.49.385,lexical_decision_task_MP_exp2,2020.2.5,Linux armv8l,60,,0,0.384278973,-0.312348301,1,0,0,0.7182,button_right,0.7182,1,,,,,,42,WORD,UN,16,tongue,CHAPEL,m,,,,,,0.384278973,-0.312348301,1,0,0,,0,66,66,221,1,
,,,,,,,,,,,,,,,,,,5f146f134d45f104d0fee62c,2020-11-26_16h20.49.385,lexical_decision_task_MP_exp2,2020.2.5,Linux armv8l,60,,0,0.385308275,-0.311129301,1,0,0,0.7868,button_right,0.7868,1,,,,,,160,WORD,"ID",16,violet,VIOLET,m,,,,,,0.385308275,-0.311129301,1,0,0,,0,67,67,99,1,
,,,,,,,,,,,,,,,,,,5f146f134d45f104d0fee62c,2020-11-26_16h20.49.385,lexical_decision_task_MP_exp2,2020.2.5,Linux armv8l,60,,0,0.401263783,-0.308447458,1,0,0,0.6854,button_right,0.6854,1,,,,,,205,WORD,UN,33,tailor,LOUNGE,m,,,,,,0.401263783,-0.308447458,1,0,0,,0,68,68,144,1,
,,,,,,,,,,,,,,,,,,5f146f134d45f104d0fee62c,2020-11-26_16h20.49.385,lexical_decision_task_MP_exp2,2020.2.5,Linux armv8l,60,,0,-0.525183854,-0.304546615,1,0,0,0.9851,button_left,0.9851,1,,,,,,260,NW,UN,16,stunch,UNJECT,z,,,,,,-0.525183854,-0.304546615,1,0,0,,0,69,69,439,1,
,,,,,,,,,,,,,,,,,,5f146f134d45f104d0fee62c,2020-11-26_16h20.49.385,lexical_decision_task_MP_exp2,2020.2.5,Linux armv8l,60,,0,0.379646672,-0.319906142,1,0,0,0.6887,button_right,0.6887,1,,,,,,184,WORD,UN,33,bother,SLEAZY,m,,,,,,0.379646672,-0.319906142,1,0,0,,0,70,70,123,1,
,,,,,,,,,,,,,,,,,,5f146f134d45f104d0fee62c,2020-11-26_16h20.49.385,lexical_decision_task_MP_exp2,2020.2.5,Linux armv8l,60,,0,0.394572878,-0.316249144,1,0,0,1.0851,button_right,1.0851,1,,,,,,141,WORD,"ID",16,orphan,ORPHAN,m,,,,,,0.394572878,-0.316249144,1,0,0,,0,71,71,80,1,
,,,,,,,,,,,,,,,,,,5f146f134d45f104d0fee62c,2020-11-26_16h20.49.385,lexical_decision_task_MP_exp2,2020.2.5,Linux armv8l,60,,0,0.393028778,-0.312104605,1,0,0,0.6456,button_right,0.6456,1,,,,,,55,WORD,UN,16,ambush,STROKE,m,,,,,,0.393028778,-0.312104605,1,0,0,,0,72,72,234,1,
,,,,,,,,,,,,,,,,,,5f146f134d45f104d0fee62c,2020-11-26_16h20.49.385,lexical_decision_task_MP_exp2,2020.2.5,Linux armv8l,60,,0,0.388396476,-0.316980529,1,0,0,0.6392,button_right,0.6392,1,,,,,,210,WORD,UN,33,infect,MONKEY,m,,,,,,0.388396476,-0.316980529,1,0,0,,0,73,73,149,1,
,,,,,,,,,,,,,,,,,,5f146f134d45f104d0fee62c,2020-11-26_16h20.49.385,lexical_decision_task_MP_exp2,2020.2.5,Linux armv8l,60,,0,0.382220222,-0.319906142,1,0,0,0.6522,button_right,0.6522,1,,,,,,52,WORD,UN,16,police,IMPOSE,m,,,,,,0.382220222,-0.319906142,1,0,0,,0,74,74,231,1,
,,,,,,,,,,,,,,,,,,5f146f134d45f104d0fee62c,2020-11-26_16h20.49.385,lexical_decision_task_MP_exp2,2020.2.5,Linux armv8l,60,,0,-0.527757293,-0.303083846,1,0,0,0.7531,button_left,0.7531,1,,,,,,475,NW,UN,33,josted,PEBRIC,z,,,,,,-0.527757293,-0.303083846,1,0,0,,0,75,75,414,1,
,,,,,,,,,,,,,,,,,,5f146f134d45f104d0fee62c,2020-11-26_16h20.49.385,lexical_decision_task_MP_exp2,2020.2.5,Linux armv8l,60,,0,0.379132021,-0.319906142,1,0,0,0.6637,button_right,0.6637,1,,,,,,97,WORD,"ID",33,client,CLIENT,m,,,,,,0.379132021,-0.319906142,1,0,0,,0,76,76,36,1,
,,,,,,,,,,,,,,,,,,5f146f134d45f104d0fee62c,2020-11-26_16h20.49.385,lexical_decision_task_MP_exp2,2020.2.5,Linux armv8l,60,,0,0.383249524,-0.3230756,1,0,0,0.7193,button_right,0.7193,1,,,,,,198,WORD,UN,33,invoke,WICKED,m,,,,,,0.383249524,-0.3230756,1,0,0,,0,77,77,137,1,
,,,,,,,,,,,,,,,,,,5f146f134d45f104d0fee62c,2020-11-26_16h20.49.385,lexical_decision_task_MP_exp2,2020.2.5,Linux armv8l,60,,0,-0.517463425,-0.303083846,1,0,0,0.6819,button_left,0.6819,1,,,,,,361,NW,"ID",16,pauche,PAUCHE,z,,,,,,-0.517463425,-0.303083846,1,0,0,,0,78,78,300,1,
,,,,,,,,,,,,,,,,,,5f146f134d45f104d0fee62c,2020-11-26_16h20.49.385,lexical_decision_task_MP_exp2,2020.2.5,Linux armv8l,60,,0,-0.522095689,-0.296745078,1,0,0,0.768,button_left,0.768,1,,,,,,396,NW,"ID",16,flengy,FLENGY,z,,,,,,-0.522095689,-0.296745078,1,0,0,,0,79,79,335,1,
,,,,,,,,,,,,,,,,,,5f146f134d45f104d0fee62c,2020-11-26_16h20.49.385,lexical_decision_task_MP_exp2,2020.2.5,Linux armv8l,60,,0,-0.521066277,-0.289187089,1,0,0,0.7558,button_left,0.7558,1,,,,,,310,NW,"ID",33,daniet,DANIET,z,,,,,,-0.521066277,-0.289187089,1,0,0,,0,80,80,249,1,
,,,,,,,,,,,,,,,,,,5f146f134d45f104d0fee62c,2020-11-26_16h20.49.385,lexical_decision_task_MP_exp2,2020.2.5,Linux armv8l,60,,0,-0.524154441,-0.286505394,1,0,0,0.6021,button_left,0.6021,1,,,,,,376,NW,"ID",16,iguare,IGUARE,z,,,,,,-0.524154441,-0.286505394,1,0,0,,0,81,81,315,1,
,,,,,,,,,,,,,,,,,,5f146f134d45f104d0fee62c,2020-11-26_16h20.49.385,lexical_decision_task_MP_exp2,2020.2.5,Linux armv8l,60,,0,-0.520036901,-0.306009459,1,0,0,0.7498,button_left,0.7498,1,,,,,,413,NW,"ID",16,equats,EQUATS,z,,,,,,-0.520036901,-0.306009459,1,0,0,,0,82,82,352,1,
,,,,,,,,,,,,,,,,,,5f146f134d45f104d0fee62c,2020-11-26_16h20.49.385,lexical_decision_task_MP_exp2,2020.2.5,Linux armv8l,60,,0,0.375014518,-0.326245058,1,0,0,0.655,button_right,0.655,1,,,,,,103,WORD,"ID",33,bounce,BOUNCE,m,,,,,,0.375014518,-0.326245058,1,0,0,,0,83,83,42,1,
,,,,,,,,,,,,,,,,,,5f146f134d45f104d0fee62c,2020-11-26_16h20.49.385,lexical_decision_task_MP_exp2,2020.2.5,Linux armv8l,60,,0,-0.523639753,-0.297232619,1,0,0,0.7528,button_left,0.7528,1,,,,,,360,NW,"ID",33,desory,DESORY,z,,,,,,-0.523639753,-0.297232619,1,0,0,,0,84,84,299,1,
,,,,,,,,,,,,,,,,,,5f146f134d45f104d0fee62c,2020-11-26_16h20.49.385,lexical_decision_task_MP_exp2,2020.2.5,Linux armv8l,60,,0,0.369867566,-0.329414442,1,0,0,0.7669,button_right,0.7669,1,,,,,,144,WORD,"ID",16,sponge,SPONGE,m,,,,,,0.369867566,-0.329414442,1,0,0,,0,85,85,83,1,
,,,,,,,,,,,,,,,,,,5f146f134d45f104d0fee62c,2020-11-26_16h20.49.385,lexical_decision_task_MP_exp2,2020.2.5,Linux armv8l,60,,0,0.37758792,-0.321856601,1,0,0,0.7006,button_right,0.7006,1,,,,,,137,WORD,"ID",16,finger,FINGER,m,,,,,,0.37758792,-0.321856601,1,0,0,,0,86,86,76,1,
,,,,,,,,,,,,,,,,,,5f146f134d45f104d0fee62c,2020-11-26_16h20.49.385,lexical_decision_task_MP_exp2,2020.2.5,Linux armv8l,60,,0,0.379132021,-0.321856601,1,0,0,0.6062,button_right,0.6062,1,,,,,,135,WORD,"ID",16,import,IMPORT,m,,,,,,0.379132021,-0.321856601,1,0,0,,0,87,87,74,1,
,,,,,,,,,,,,,,,,,,5f146f134d45f104d0fee62c,2020-11-26_16h20.49.385,lexical_decision_task_MP_exp2,2020.2.5,Linux armv8l,60,,0,-0.527242605,-0.30479046,1,0,0,0.6458,button_left,0.6458,1,,,,,,469,NW,UN,33,crudio,PADIFS,z,,,,,,-0.527242605,-0.30479046,1,0,0,,0,88,88,408,1,
,,,,,,,,,,,,,,,,,,5f146f134d45f104d0fee62c,2020-11-26_16h20.49.385,lexical_decision_task_MP_exp2,2020.2.5,Linux armv8l,60,,0,-0.529301393,-0.303327616,1,0,0,0.652,button_left,0.652,1,,,,,,380,NW,"ID",16,cavory,CAVORY,z,,,,,,-0.529301393,-0.303327616,1,0,0,,0,89,89,319,1,
,,,,,,,,,,,,,,,,,,5f146f134d45f104d0fee62c,2020-11-26_16h20.49.385,lexical_decision_task_MP_exp2,2020.2.5,Linux armv8l,60,,0,-0.534448309,-0.299183003,1,0,0,0.668,button_left,0.668,1,,,,,,318,NW,"ID",33,reagly,REAGLY,z,,,,,,-0.534448309,-0.299183003,1,0,0,,0,90,90,257,1,
,,,,,,,,,,,,,,,,,,5f146f134d45f104d0fee62c,2020-11-26_16h20.49.385,lexical_decision_task_MP_exp2,2020.2.5,Linux armv8l,60,,0,-0.533418933,-0.299183003,1,0,0,0.5695,button_left,0.5695,1,,,,,,466,NW,UN,33,robuly,HOCITE,z,,,,,,-0.533418933,-0.299183003,1,0,0,,0,91,91,405,1,
,,,,,,,,,,,,,,,,,,5f146f134d45f104d0fee62c,2020-11-26_16h20.49.385,lexical_decision_task_MP_exp2,2020.2.5,Linux armv8l,60,,0,0.370896867,-0.327464131,1,0,0,0.7155,button_right,0.7155,1,,,,,,178,WORD,"ID",16,inform,INFORM,m,,,,,,0.370896867,-0.327464131,1,0,0,,0,92,92,117,1,
,,,,,,,,,,,,,,,,,,5f146f134d45f104d0fee62c,2020-11-26_16h20.49.385,lexical_decision_task_MP_exp2,2020.2.5,Linux armv8l,60,,0,0.367808814,-0.330389671,1,0,0,0.6348,button_right,0.6348,1,,,,,,102,WORD,"ID",33,direct,DIRECT,m,,,,,,0.367808814,-0.330389671,1,0,0,,0,93,93,41,1,
,,,,,,,,,,,,,,,,,,5f146f134d45f104d0fee62c,2020-11-26_16h20.49.385,lexical_decision_task_MP_exp2,2020.2.5,Linux armv8l,60,,0,-0.525698541,-0.297232619,1,0,0,0.6318,button_left,0.6318,1,,,,,,391,NW,"ID",16,theldy,THELDY,z,,,,,,-0.525698541,-0.297232619,1,0,0,,0,94,94,330,1,
,,,,,,,,,,,,,,,,,,5f146f134d45f104d0fee62c,2020-11-26_16h20.49.385,lexical_decision_task_MP_exp2,2020.2.5,Linux armv8l,60,,0,-0.525698541,-0.29528216,1,0,0,0.6998,button_left,0.6998,1,,,,,,295,NW,UN,16,beinch,GLEATH,z,,,,,,-0.525698541,-0.29528216,1,0,0,,0,95,95,474,1,
,,,,,,,,,,,,,,,,,,5f146f134d45f104d0fee62c,2020-11-26_16h20.49.385,lexical_decision_task_MP_exp2,2020.2.5,Linux armv8l,60,,0,0.371926317,-0.325513599,1,0,0,0.7019,button_right,0.7019,1,,,,,,206,WORD,UN,33,wreath,TAILOR,m,,,,,,0.371926317,-0.325513599,1,0,0,,0,96,96,145,1,
,,,,,,,,,,,,,,,,,,5f146f134d45f104d0fee62c,2020-11-26_16h20.49.385,lexical_decision_task_MP_exp2,2020.2.5,Linux armv8l,60,,0,-0.522095689,-0.300158306,1,0,0,0.7227,button_left,0.7227,1,,,,,,389,NW,"ID",16,witmer,WITMER,z,,,,,,-0.522095689,-0.300158306,1,0,0,,0,97,97,328,1,
,,,,,,,,,,,,,,,,,,5f146f134d45f104d0fee62c,2020-11-26_16h20.49.385,lexical_decision_task_MP_exp2,2020.2.5,Linux armv8l,60,,0,-0.523639753,-0.295769775,1,0,0,0.6364,button_left,0.6364,1,,,,,,309,NW,"ID",33,amiloy,AMILOY,z,,,,,,-0.523639753,-0.295769775,1,0,0,,0,98,98,248,1,
,,,,,,,,,,,,,,,,,,5f146f134d45f104d0fee62c,2020-11-26_16h20.49.385,lexical_decision_task_MP_exp2,2020.2.5,Linux armv8l,60,,0,0.368838116,-0.330389671,1,0,0,0.7259,button_right,0.7259,1,,,,,,31,WORD,UN,16,buckle,WEAPON,m,,,,,,0.368838116,-0.330389671,1,0,0,,0,99,99,210,1,
,,,,,,,,,,,,,,,,,,5f146f134d45f104d0fee62c,2020-11-26_16h20.49.385,lexical_decision_task_MP_exp2,2020.2.5,Linux armv8l,60,,0,0.374499719,-0.328439213,1,0,0,0.6872,button_right,0.6872,1,,,,,,20,WORD,UN,16,simple,BREAST,m,,,,,,0.374499719,-0.328439213,1,0,0,,0,100,100,199,1,
,,,,,,,,,,,,,,,,,,5f146f134d45f104d0fee62c,2020-11-26_16h20.49.385,lexical_decision_task_MP_exp2,2020.2.5,Linux armv8l,60,,0,0.374499719,-0.32331937,1,0,0,0.6164,button_right,0.6164,1,,,,,,93,WORD,"ID",33,public,PUBLIC,m,,,,,,0.374499719,-0.32331937,1,0,0,,0,101,101,32,1,
,,,,,,,,,,,,,,,,,,5f146f134d45f104d0fee62c,2020-11-26_16h20.49.385,lexical_decision_task_MP_exp2,2020.2.5,Linux armv8l,60,,0,-0.522095689,-0.301377232,1,0,0,0.7349,button_left,0.7349,0,,,,,,5,WORD,UN,16,bundle,PLUNGE,m,,,,,,-0.522095689,-0.301377232,1,0,0,,0,102,102,184,1,
,,,,,,,,,,,,,,,,,,5f146f134d45f104d0fee62c,2020-11-26_16h20.49.385,lexical_decision_task_MP_exp2,2020.2.5,Linux armv8l,60,,0,0.368838116,-0.328439213,1,0,0,1.4168,button_right,1.4168,1,,,,,,24,WORD,UN,16,domain,PRAISE,m,,,,,,0.368838116,-0.328439213,1,0,0,,0,103,103,203,1,
,,,,,,,,,,,,,,,,,,5f146f134d45f104d0fee62c,2020-11-26_16h20.49.385,lexical_decision_task_MP_exp2,2020.2.5,Linux armv8l,60,,0,-0.473199826,-0.289430933,1,0,0,0.7692,button_left,0.7692,1,,,,,,397,NW,"ID",16,camble,CAMBLE,z,,,,,,-0.473199826,-0.289430933,1,0,0,,0,104,104,336,1,
,,,,,,,,,,,,,,,,,,5f146f134d45f104d0fee62c,2020-11-26_16h20.49.385,lexical_decision_task_MP_exp2,2020.2.5,Linux armv8l,60,,0,0.351853306,-0.309178917,1,0,0,0.9593,button_right,0.9593,1,,,,,,183,WORD,UN,33,sleazy,MILDEW,m,,,,,,0.351853306,-0.309178917,1,0,0,,0,105,105,122,1,
,,,,,,,,,,,,,,,,,,5f146f134d45f104d0fee62c,2020-11-26_16h20.49.385,lexical_decision_task_MP_exp2,2020.2.5,Linux armv8l,60,,0,0.363176512,-0.295526005,1,0,0,0.6353,button_right,0.6353,1,,,,,,153,WORD,"ID",16,behold,BEHOLD,m,,,,,,0.363176512,-0.295526005,1,0,0,,0,106,106,92,1,
,,,,,,,,,,,,,,,,,,5f146f134d45f104d0fee62c,2020-11-26_16h20.49.385,lexical_decision_task_MP_exp2,2020.2.5,Linux armv8l,60,,0,0.379132021,-0.28674909,1,0,0,0.7817,button_right,0.7817,1,,,,,,94,WORD,"ID",33,travel,TRAVEL,m,,,,,,0.379132021,-0.28674909,1,0,0,,0,107,107,33,1,
,,,,,,,,,,,,,,,,,,5f146f134d45f104d0fee62c,2020-11-26_16h20.49.385,lexical_decision_task_MP_exp2,2020.2.5,Linux armv8l,60,,0,0.397660931,-0.274802791,1,0,0,0.82,button_right,0.82,1,,,,,,121,WORD,"ID",16,thrive,THRIVE,m,,,,,,0.397660931,-0.274802791,1,0,0,,0,108,108,60,1,
,,,,,,,,,,,,,,,,,,5f146f134d45f104d0fee62c,2020-11-26_16h20.49.385,lexical_decision_task_MP_exp2,2020.2.5,Linux armv8l,60,,0,0.380676121,-0.281141633,1,0,0,0.7167,button_right,0.7167,1,,,,,,54,WORD,UN,16,stroke,RAMBLE,m,,,,,,0.380676121,-0.281141633,1,0,0,,0,109,109,233,1,
,,,,,,,,,,,,,,,,,,5f146f134d45f104d0fee62c,2020-11-26_16h20.49.385,lexical_decision_task_MP_exp2,2020.2.5,Linux armv8l,60,,0,-0.464964746,-0.273827562,1,0,0,0.6822,button_left,0.6822,1,,,,,,479,NW,UN,33,crible,LOBUSH,z,,,,,,-0.464964746,-0.273827562,1,0,0,,0,110,110,418,1,
,,,,,,,,,,,,,,,,,,5f146f134d45f104d0fee62c,2020-11-26_16h20.49.385,lexical_decision_task_MP_exp2,2020.2.5,Linux armv8l,60,,0,0.372955767,-0.289430933,1,0,0,0.7372,button_right,0.7372,1,,,,,,190,WORD,UN,33,stable,BACKUP,m,,,,,,0.372955767,-0.289430933,1,0,0,,0,111,111,129,1,
,,,,,,,,,,,,,,,,,,5f146f134d45f104d0fee62c,2020-11-26_16h20.49.385,lexical_decision_task_MP_exp2,2020.2.5,Linux armv8l,60,,0,-0.459303106,-0.275046636,1,0,0,0.8529,button_left,0.8529,1,,,,,,285,NW,UN,16,reldon,PRUDGE,z,,,,,,-0.459303106,-0.275046636,1,0,0,,0,112,112,464,1,
,,,,,,,,,,,,,,,,,,5f146f134d45f104d0fee62c,2020-11-26_16h20.49.385,lexical_decision_task_MP_exp2,2020.2.5,Linux armv8l,60,,0,0.367294015,-0.290893703,1,0,0,0.6692,button_right,0.6692,1,,,,,,119,WORD,"ID",33,spider,SPIDER,m,,,,,,0.367294015,-0.290893703,1,0,0,,0,113,113,58,1,
,,,,,,,,,,,,,,,,,,5f146f134d45f104d0fee62c,2020-11-26_16h20.49.385,lexical_decision_task_MP_exp2,2020.2.5,Linux armv8l,60,,0,0.399719683,-0.272852481,1,0,0,0.7668,button_right,0.7668,1,,,,,,180,WORD,"ID",16,silent,SILENT,m,,,,,,0.399719683,-0.272852481,1,0,0,,0,114,114,119,1,
,,,,,,,,,,,,,,,,,,5f146f134d45f104d0fee62c,2020-11-26_16h20.49.385,lexical_decision_task_MP_exp2,2020.2.5,Linux armv8l,60,,0,-0.438200682,-0.213364684,1,0,0,0.6513,button_left,0.6513,1,,,,,,326,NW,"ID",33,iguade,IGUADE,z,,,,,,-0.438200682,-0.213364684,1,0,0,,0,115,115,265,1,
,,,,,,,,,,,,,,,,,,5f146f134d45f104d0fee62c,2020-11-26_16h20.49.385,lexical_decision_task_MP_exp2,2020.2.5,Linux armv8l,60,,0,-0.400113411,-0.23945151,1,0,0,0.9187,button_left,0.9187,1,,,,,,476,NW,UN,33,photie,JOSTED,z,,,,,,-0.400113411,-0.23945151,1,0,0,,0,116,116,415,1,
,,,,,,,,,,,,,,,,,,5f146f134d45f104d0fee62c,2020-11-26_16h20.49.385,lexical_decision_task_MP_exp2,2020.2.5,Linux armv8l,60,,0,-0.388275443,-0.266026025,1,0,0,0.6195,button_left,0.6195,1,,,,,,304,NW,"ID",33,cludie,CLUDIE,z,,,,,,-0.388275443,-0.266026025,1,0,0,,0,117,117,243,1,
,,,,,,,,,,,,,,,,,,5f146f134d45f104d0fee62c,2020-11-26_16h20.49.385,lexical_decision_task_MP_exp2,2020.2.5,Linux armv8l,60,,0,0.389425926,-0.276021791,1,0,0,0.8189,button_right,0.8189,1,,,,,,175,WORD,"ID",16,fabric,FABRIC,m,,,,,,0.389425926,-0.276021791,1,0,0,,0,118,118,114,1,
,,,,,,,,,,,,,,,,,,5f146f134d45f104d0fee62c,2020-11-26_16h20.49.385,lexical_decision_task_MP_exp2,2020.2.5,Linux armv8l,60,,0,-0.392907707,-0.263587878,1,0,0,0.6947,button_left,0.6947,1,,,,,,412,NW,"ID",16,jiluer,JILUER,z,,,,,,-0.392907707,-0.263587878,1,0,0,,0,119,119,351,1,
,,,,,,,,,,,,,,,,,,5f146f134d45f104d0fee62c,2020-11-26_16h20.49.385,lexical_decision_task_MP_exp2,2020.2.5,Linux armv8l,60,,0,0.383764323,-0.278459864,1,0,0,0.6844,button_right,0.6844,1,,,,,,65,WORD,"ID",33,symbol,SYMBOL,m,,,,,,0.073918981,-0.378662554,1,0,0,,0,120,120,4,1,break_done_button
,,,,,,,,,,,,,,,,,,5f146f134d45f104d0fee62c,2020-11-26_16h20.49.385,lexical_decision_task_MP_exp2,2020.2.5,Linux armv8l,60,,0,-0.423789274,-0.278459864,1,0,0,0.6669,button_left,0.6669,1,,,,,,367,NW,"ID",16,slique,SLIQUE,z,,,,,,-0.423789274,-0.278459864,1,0,0,,0,121,121,306,1,
,,,,,,,,,,,,,,,,,,5f146f134d45f104d0fee62c,2020-11-26_16h20.49.385,lexical_decision_task_MP_exp2,2020.2.5,Linux armv8l,60,,0,-0.423789274,-0.269682949,1,0,0,0.5818,button_left,0.5818,1,,,,,,334,NW,"ID",33,watmeg,WATMEG,z,,,,,,-0.423789274,-0.269682949,1,0,0,,0,122,122,273,1,
,,,,,,,,,,,,,,,,,,5f146f134d45f104d0fee62c,2020-11-26_16h20.49.385,lexical_decision_task_MP_exp2,2020.2.5,Linux armv8l,60,,0,-0.413495406,-0.271389563,1,0,0,0.7034,button_left,0.7034,1,,,,,,459,NW,UN,33,mingar,BAFENT,z,,,,,,-0.413495406,-0.271389563,1,0,0,,0,123,123,398,1,
,,,,,,,,,,,,,,,,,,5f146f134d45f104d0fee62c,2020-11-26_16h20.49.385,lexical_decision_task_MP_exp2,2020.2.5,Linux armv8l,60,,0,0.41361644,-0.310154072,1,0,0,0.6726,button_right,0.6726,1,,,,,,130,WORD,"ID",16,stupid,STUPID,m,,,,,,0.41361644,-0.310154072,1,0,0,,0,124,124,69,1,
,,,,,,,,,,,,,,,,,,5f146f134d45f104d0fee62c,2020-11-26_16h20.49.385,lexical_decision_task_MP_exp2,2020.2.5,Linux armv8l,60,,0,-0.414010131,-0.278459864,1,0,0,0.784,button_left,0.784,1,,,,,,293,NW,UN,16,inhort,SWANCE,z,,,,,,-0.414010131,-0.278459864,1,0,0,,0,125,125,472,1,
,,,,,,,,,,,,,,,,,,5f146f134d45f104d0fee62c,2020-11-26_16h20.49.385,lexical_decision_task_MP_exp2,2020.2.5,Linux armv8l,60,,0,0.387881825,-0.309422687,1,0,0,0.7162,button_right,0.7162,1,,,,,,53,WORD,UN,16,ramble,POLICE,m,,,,,,0.387881825,-0.309422687,1,0,0,,0,126,126,232,1,
,,,,,,,,,,,,,,,,,,5f146f134d45f104d0fee62c,2020-11-26_16h20.49.385,lexical_decision_task_MP_exp2,2020.2.5,Linux armv8l,60,,0,-0.406804427,-0.28479878,1,0,0,0.654,button_left,0.654,1,,,,,,422,NW,UN,33,streld,ALCOUD,z,,,,,,-0.406804427,-0.28479878,1,0,0,,0,127,127,361,1,
,,,,,,,,,,,,,,,,,,5f146f134d45f104d0fee62c,2020-11-26_16h20.49.385,lexical_decision_task_MP_exp2,2020.2.5,Linux armv8l,60,,0,-0.405260327,-0.282604477,1,0,0,0.6503,button_left,0.6503,0,,,,,,239,WORD,UN,33,forest,LUMBER,m,,,,,,-0.405260327,-0.282604477,1,0,0,,0,128,128,178,1,
,,,,,,,,,,,,,,,,,,5f146f134d45f104d0fee62c,2020-11-26_16h20.49.385,lexical_decision_task_MP_exp2,2020.2.5,Linux armv8l,60,,0,-0.409892554,-0.268951564,1,0,0,0.7844,button_left,0.7844,1,,,,,,424,NW,UN,33,frudge,PRAILE,z,,,,,,-0.409892554,-0.268951564,1,0,0,,0,129,129,363,1,
,,,,,,,,,,,,,,,,,,5f146f134d45f104d0fee62c,2020-11-26_16h20.49.385,lexical_decision_task_MP_exp2,2020.2.5,Linux armv8l,60,,0,0.364720613,-0.3135673,1,0,0,0.9522,button_right,0.9522,1,,,,,,1,WORD,UN,16,ethnic,FRIGHT,m,,,,,,0.364720613,-0.3135673,1,0,0,,0,130,130,180,1,
,,,,,,,,,,,,,,,,,,5f146f134d45f104d0fee62c,2020-11-26_16h20.49.385,lexical_decision_task_MP_exp2,2020.2.5,Linux armv8l,60,,0,0.365235264,-0.285773861,1,0,0,0.7695,button_right,0.7695,1,,,,,,220,WORD,UN,33,mascot,VOYAGE,m,,,,,,0.365235264,-0.285773861,1,0,0,,0,131,131,159,1,
,,,,,,,,,,,,,,,,,,5f146f134d45f104d0fee62c,2020-11-26_16h20.49.385,lexical_decision_task_MP_exp2,2020.2.5,Linux armv8l,60,,0,0.354941507,-0.277728405,1,0,0,0.6317,button_right,0.6317,0,,,,,,319,NW,"ID",33,zomber,ZOMBER,z,,,,,,0.354941507,-0.277728405,1,0,0,,0,132,132,258,1,
,,,,,,,,,,,,,,,,,,5f146f134d45f104d0fee62c,2020-11-26_16h20.49.385,lexical_decision_task_MP_exp2,2020.2.5,Linux armv8l,60,,0,-0.403716263,-0.282848247,1,0,0,0.7653,button_left,0.7653,1,,,,,,455,NW,UN,33,broget,TONDLE,z,,,,,,-0.403716263,-0.282848247,1,0,0,,0,133,133,394,1,
,,,,,,,,,,,,,,,,,,5f146f134d45f104d0fee62c,2020-11-26_16h20.49.385,lexical_decision_task_MP_exp2,2020.2.5,Linux armv8l,60,,0,0.349279756,-0.276265709,1,0,0,0.7335,button_right,0.7335,1,,,,,,47,WORD,UN,16,walnut,INCOME,m,,,,,,0.349279756,-0.276265709,1,0,0,,0,134,134,226,1,
,,,,,,,,,,,,,,,,,,5f146f134d45f104d0fee62c,2020-11-26_16h20.49.385,lexical_decision_task_MP_exp2,2020.2.5,Linux armv8l,60,,0,0.352367957,-0.275046636,1,0,0,0.6199,button_right,0.6199,1,,,,,,179,WORD,"ID",16,basket,BASKET,m,,,,,,0.352367957,-0.275046636,1,0,0,,0,135,135,118,1,
,,,,,,,,,,,,,,,,,,5f146f134d45f104d0fee62c,2020-11-26_16h20.49.385,lexical_decision_task_MP_exp2,2020.2.5,Linux armv8l,60,,0,0.360088311,-0.277484635,1,0,0,0.6525,button_right,0.6525,1,,,,,,105,WORD,"ID",33,number,NUMBER,m,,,,,,0.360088311,-0.277484635,1,0,0,,0,136,136,44,1,
,,,,,,,,,,,,,,,,,,5f146f134d45f104d0fee62c,2020-11-26_16h20.49.385,lexical_decision_task_MP_exp2,2020.2.5,Linux armv8l,60,,0,-0.402172163,-0.270658178,1,0,0,0.5832,button_left,0.5832,1,,,,,,356,NW,"ID",33,othnis,OTHNIS,z,,,,,,-0.402172163,-0.270658178,1,0,0,,0,137,137,295,1,
,,,,,,,,,,,,,,,,,,5f146f134d45f104d0fee62c,2020-11-26_16h20.49.385,lexical_decision_task_MP_exp2,2020.2.5,Linux armv8l,60,,0,-0.393422395,-0.270901949,1,0,0,0.6839,button_left,0.6839,1,,,,,,420,NW,"ID",16,gushop,GUSHOP,z,,,,,,-0.393422395,-0.270901949,1,0,0,,0,138,138,359,1,
,,,,,,,,,,,,,,,,,,5f146f134d45f104d0fee62c,2020-11-26_16h20.49.385,lexical_decision_task_MP_exp2,2020.2.5,Linux armv8l,60,,0,0.342588851,-0.286992934,1,0,0,0.617,button_right,0.617,1,,,,,,112,WORD,"ID",33,breath,BREATH,m,,,,,,0.342588851,-0.286992934,1,0,0,,0,139,139,51,1,
,,,,,,,,,,,,,,,,,,5f146f134d45f104d0fee62c,2020-11-26_16h20.49.385,lexical_decision_task_MP_exp2,2020.2.5,Linux armv8l,60,,0,0.344647602,-0.284067247,1,0,0,0.5975,button_right,0.5975,1,,,,,,98,WORD,"ID",33,belong,BELONG,m,,,,,,0.344647602,-0.284067247,1,0,0,,0,140,140,37,1,
,,,,,,,,,,,,,,,,,,5f146f134d45f104d0fee62c,2020-11-26_16h20.49.385,lexical_decision_task_MP_exp2,2020.2.5,Linux armv8l,60,,0,-0.398054623,-0.270170564,1,0,0,0.7181,button_left,0.7181,1,,,,,,302,NW,"ID",33,miluer,MILUER,z,,,,,,-0.398054623,-0.270170564,1,0,0,,0,141,141,241,1,
,,,,,,,,,,,,,,,,,,5f146f134d45f104d0fee62c,2020-11-26_16h20.49.385,lexical_decision_task_MP_exp2,2020.2.5,Linux armv8l,60,,0,-0.391878295,-0.271389563,1,0,0,0.6693,button_left,0.6693,1,,,,,,440,NW,UN,33,rastoe,SARIDE,z,,,,,,-0.391878295,-0.271389563,1,0,0,,0,142,142,379,1,
,,,,,,,,,,,,,,,,,,5f146f134d45f104d0fee62c,2020-11-26_16h20.49.385,lexical_decision_task_MP_exp2,2020.2.5,Linux armv8l,60,,0,-0.388275443,-0.268951564,1,0,0,0.6206,button_left,0.6206,1,,,,,,353,NW,"ID",33,clurey,CLUREY,z,,,,,,-0.388275443,-0.268951564,1,0,0,,0,143,143,292,1,
,,,,,,,,,,,,,,,,,,5f146f134d45f104d0fee62c,2020-11-26_16h20.49.385,lexical_decision_task_MP_exp2,2020.2.5,Linux armv8l,60,,0,-0.392907707,-0.269682949,1,0,0,0.6813,button_left,0.6813,1,,,,,,347,NW,"ID",33,kerift,KERIFT,z,,,,,,-0.392907707,-0.269682949,1,0,0,,0,144,144,286,1,
,,,,,,,,,,,,,,,,,,5f146f134d45f104d0fee62c,2020-11-26_16h20.49.385,lexical_decision_task_MP_exp2,2020.2.5,Linux armv8l,60,,0,-0.389304855,-0.269682949,1,0,0,0.7024,button_left,0.7024,1,,,,,,274,NW,UN,16,sleirt,FUMBLO,z,,,,,,-0.389304855,-0.269682949,1,0,0,,0,145,145,453,1,
,,,,,,,,,,,,,,,,,,5f146f134d45f104d0fee62c,2020-11-26_16h20.49.385,lexical_decision_task_MP_exp2,2020.2.5,Linux armv8l,60,,0,0.336927247,-0.287724319,1,0,0,0.6036,button_right,0.6036,1,,,,,,228,WORD,UN,33,kidney,MASTER,m,,,,,,0.336927247,-0.287724319,1,0,0,,0,146,146,167,1,
,,,,,,,,,,,,,,,,,,5f146f134d45f104d0fee62c,2020-11-26_16h20.49.385,lexical_decision_task_MP_exp2,2020.2.5,Linux armv8l,60,,0,0.334868348,-0.289918622,1,0,0,0.6685,button_right,0.6685,1,,,,,,18,WORD,UN,16,patron,HUMBLE,m,,,,,,0.334868348,-0.289918622,1,0,0,,0,147,147,197,1,
,,,,,,,,,,,,,,,,,,5f146f134d45f104d0fee62c,2020-11-26_16h20.49.385,lexical_decision_task_MP_exp2,2020.2.5,Linux armv8l,60,,0,0.327662644,-0.294063161,1,0,0,0.5812,button_right,0.5812,1,,,,,,28,WORD,UN,16,sketch,COMEDY,m,,,,,,0.327662644,-0.294063161,1,0,0,,0,148,148,207,1,
,,,,,,,,,,,,,,,,,,5f146f134d45f104d0fee62c,2020-11-26_16h20.49.385,lexical_decision_task_MP_exp2,2020.2.5,Linux armv8l,60,,0,0.325089242,-0.297232619,1,0,0,0.6338,button_right,0.6338,1,,,,,,117,WORD,"ID",33,branch,BRANCH,m,,,,,,0.325089242,-0.297232619,1,0,0,,0,149,149,56,1,
,,,,,,,,,,,,,,,,,,5f146f134d45f104d0fee62c,2020-11-26_16h20.49.385,lexical_decision_task_MP_exp2,2020.2.5,Linux armv8l,60,,0,0.314795337,-0.302840001,1,0,0,0.5004,button_right,0.5004,1,,,,,,191,WORD,UN,33,beacon,STABLE,m,,,,,,0.314795337,-0.302840001,1,0,0,,0,150,150,130,1,
,,,,,,,,,,,,,,,,,,5f146f134d45f104d0fee62c,2020-11-26_16h20.49.385,lexical_decision_task_MP_exp2,2020.2.5,Linux armv8l,60,,0,-0.370775908,-0.274802791,1,0,0,0.502,button_left,0.502,1,,,,,,375,NW,"ID",16,yorque,YORQUE,z,,,,,,-0.370775908,-0.274802791,1,0,0,,0,151,151,314,1,
,,,,,,,,,,,,,,,,,,5f146f134d45f104d0fee62c,2020-11-26_16h20.49.385,lexical_decision_task_MP_exp2,2020.2.5,Linux armv8l,60,,0,0.312221934,-0.305278148,1,0,0,0.6009,button_right,0.6009,1,,,,,,219,WORD,UN,33,voyage,BUCKET,m,,,,,,0.312221934,-0.305278148,1,0,0,,0,152,152,158,1,
,,,,,,,,,,,,,,,,,,5f146f134d45f104d0fee62c,2020-11-26_16h20.49.385,lexical_decision_task_MP_exp2,2020.2.5,Linux armv8l,60,,0,-0.362026103,-0.270901949,1,0,0,0.6303,button_left,0.6303,1,,,,,,439,NW,UN,33,saride,LIMPOR,z,,,,,,-0.362026103,-0.270901949,1,0,0,,0,153,153,378,1,
,,,,,,,,,,,,,,,,,,5f146f134d45f104d0fee62c,2020-11-26_16h20.49.385,lexical_decision_task_MP_exp2,2020.2.5,Linux armv8l,60,,0,-0.36048204,-0.266757335,1,0,0,0.77,button_left,0.77,1,,,,,,342,NW,"ID",33,randow,RANDOW,z,,,,,,-0.36048204,-0.266757335,1,0,0,,0,154,154,281,1,
,,,,,,,,,,,,,,,,,,5f146f134d45f104d0fee62c,2020-11-26_16h20.49.385,lexical_decision_task_MP_exp2,2020.2.5,Linux armv8l,60,,0,0.330236194,-0.29650116,1,0,0,0.7725,button_right,0.7725,1,,,,,,85,WORD,"ID",33,sprawl,SPRAWL,m,,,,,,0.330236194,-0.29650116,1,0,0,,0,155,155,24,1,
,,,,,,,,,,,,,,,,,,5f146f134d45f104d0fee62c,2020-11-26_16h20.49.385,lexical_decision_task_MP_exp2,2020.2.5,Linux armv8l,60,,0,0.32148639,-0.301377232,1,0,0,0.6345,button_right,0.6345,1,,,,,,109,WORD,"ID",33,wonder,WONDER,m,,,,,,0.32148639,-0.301377232,1,0,0,,0,156,156,48,1,
,,,,,,,,,,,,,,,,,,5f146f134d45f104d0fee62c,2020-11-26_16h20.49.385,lexical_decision_task_MP_exp2,2020.2.5,Linux armv8l,60,,0,0.326633342,-0.299670618,1,0,0,0.5685,button_right,0.5685,1,,,,,,41,WORD,UN,16,chapel,SPRING,m,,,,,,0.326633342,-0.299670618,1,0,0,,0,157,157,220,1,
,,,,,,,,,,,,,,,,,,5f146f134d45f104d0fee62c,2020-11-26_16h20.49.385,lexical_decision_task_MP_exp2,2020.2.5,Linux armv8l,60,,0,-0.352246923,-0.274315177,1,0,0,0.6688,button_left,0.6688,1,,,,,,423,NW,UN,33,praile,STRELD,z,,,,,,-0.352246923,-0.274315177,1,0,0,,0,158,158,362,1,
,,,,,,,,,,,,,,,,,,5f146f134d45f104d0fee62c,2020-11-26_16h20.49.385,lexical_decision_task_MP_exp2,2020.2.5,Linux armv8l,60,,0,-0.351217548,-0.270170564,1,0,0,0.751,button_left,0.751,1,,,,,,449,NW,UN,33,phrect,BRUNGE,z,,,,,,-0.351217548,-0.270170564,1,0,0,,0,159,159,388,1,
,,,,,,,,,,,,,,,,,,5f146f134d45f104d0fee62c,2020-11-26_16h20.49.385,lexical_decision_task_MP_exp2,2020.2.5,Linux armv8l,60,,0,-0.348644071,-0.273583792,1,0,0,0.9007,button_left,0.9007,1,,,,,,454,NW,UN,33,tondle,SCOUGE,z,,,,,,-0.348644071,-0.273583792,1,0,0,,0,160,160,393,1,
,,,,,,,,,,,,,,,,,,5f146f134d45f104d0fee62c,2020-11-26_16h20.49.385,lexical_decision_task_MP_exp2,2020.2.5,Linux armv8l,60,,0,-0.342982468,-0.275046636,1,0,0,0.5686,button_left,0.5686,1,,,,,,437,NW,UN,33,baitch,SNAPEL,z,,,,,,-0.342982468,-0.275046636,1,0,0,,0,161,161,376,1,
,,,,,,,,,,,,,,,,,,5f146f134d45f104d0fee62c,2020-11-26_16h20.49.385,lexical_decision_task_MP_exp2,2020.2.5,Linux armv8l,60,,0,0.316854088,-0.299670618,1,0,0,0.6654,button_right,0.6654,1,,,,,,162,WORD,"ID",16,candle,CANDLE,m,,,,,,0.316854088,-0.299670618,1,0,0,,0,162,162,101,1,
,,,,,,,,,,,,,,,,,,5f146f134d45f104d0fee62c,2020-11-26_16h20.49.385,lexical_decision_task_MP_exp2,2020.2.5,Linux armv8l,60,,0,-0.347614696,-0.271389563,1,0,0,0.8386,button_left,0.8386,1,,,,,,458,NW,UN,33,hocite,BARCET,z,,,,,,-0.347614696,-0.271389563,1,0,0,,0,163,163,397,1,
,,,,,,,,,,,,,,,,,,5f146f134d45f104d0fee62c,2020-11-26_16h20.49.385,lexical_decision_task_MP_exp2,2020.2.5,Linux armv8l,60,,0,-0.347614696,-0.274071406,1,0,0,0.8695,button_left,0.8695,1,,,,,,468,NW,UN,33,padifs,WICTOR,z,,,,,,-0.347614696,-0.274071406,1,0,0,,0,164,164,407,1,
,,,,,,,,,,,,,,,,,,5f146f134d45f104d0fee62c,2020-11-26_16h20.49.385,lexical_decision_task_MP_exp2,2020.2.5,Linux armv8l,60,,0,-0.337835516,-0.275046636,1,0,0,0.5834,button_left,0.5834,1,,,,,,317,NW,"ID",33,worbal,WORBAL,z,,,,,,-0.337835516,-0.275046636,1,0,0,,0,165,165,256,1,
,,,,,,,,,,,,,,,,,,5f146f134d45f104d0fee62c,2020-11-26_16h20.49.385,lexical_decision_task_MP_exp2,2020.2.5,Linux armv8l,60,,0,0.311707284,-0.304302845,1,0,0,0.6867,button_right,0.6867,1,,,,,,106,WORD,"ID",33,ransom,RANSOM,m,,,,,,0.311707284,-0.304302845,1,0,0,,0,166,166,45,1,
,,,,,,,,,,,,,,,,,,5f146f134d45f104d0fee62c,2020-11-26_16h20.49.385,lexical_decision_task_MP_exp2,2020.2.5,Linux armv8l,60,,0,-0.347100008,-0.273340022,1,0,0,0.6838,button_left,0.6838,1,,,,,,267,NW,UN,16,packes,PASINK,z,,,,,,-0.347100008,-0.273340022,1,0,0,,0,167,167,446,1,
,,,,,,,,,,,,,,,,,,5f146f134d45f104d0fee62c,2020-11-26_16h20.49.385,lexical_decision_task_MP_exp2,2020.2.5,Linux armv8l,60,,0,0.305016231,-0.306009459,1,0,0,0.6727,button_right,0.6727,1,,,,,,213,WORD,UN,33,intake,SQUEAL,m,,,,,,0.305016231,-0.306009459,1,0,0,,0,168,168,152,1,
,,,,,,,,,,,,,,,,,,5f146f134d45f104d0fee62c,2020-11-26_16h20.49.385,lexical_decision_task_MP_exp2,2020.2.5,Linux armv8l,60,,0,-0.346070632,-0.274559095,1,0,0,0.6114,button_left,0.6114,1,,,,,,385,NW,"ID",16,veigma,VEIGMA,z,,,,,,-0.346070632,-0.274559095,1,0,0,,0,169,169,324,1,
,,,,,,,,,,,,,,,,,,5f146f134d45f104d0fee62c,2020-11-26_16h20.49.385,lexical_decision_task_MP_exp2,2020.2.5,Linux armv8l,60,,0,-0.347614696,-0.273096177,1,0,0,0.642,button_left,0.642,1,,,,,,421,NW,UN,33,alcoud,KNISMA,z,,,,,,-0.347614696,-0.273096177,1,0,0,,0,170,170,360,1,
,,,,,,,,,,,,,,,,,,5f146f134d45f104d0fee62c,2020-11-26_16h20.49.385,lexical_decision_task_MP_exp2,2020.2.5,Linux armv8l,60,,0,-0.347100008,-0.274802791,1,0,0,0.6183,button_left,0.6183,1,,,,,,463,NW,UN,33,chaite,KISPEL,z,,,,,,-0.347100008,-0.274802791,1,0,0,,0,171,171,402,1,
,,,,,,,,,,,,,,,,,,5f146f134d45f104d0fee62c,2020-11-26_16h20.49.385,lexical_decision_task_MP_exp2,2020.2.5,Linux armv8l,60,,0,0.305016231,-0.306740844,1,0,0,0.6825,button_right,0.6825,1,,,,,,182,WORD,UN,33,absent,WINTER,m,,,,,,0.305016231,-0.306740844,1,0,0,,0,172,172,121,1,
,,,,,,,,,,,,,,,,,,5f146f134d45f104d0fee62c,2020-11-26_16h20.49.385,lexical_decision_task_MP_exp2,2020.2.5,Linux armv8l,60,,0,0.30450158,-0.307472303,1,0,0,0.5696,button_right,0.5696,1,,,,,,181,WORD,UN,33,winter,GLANCE,m,,,,,,0.30450158,-0.307472303,1,0,0,,0,173,173,120,1,
,,,,,,,,,,,,,,,,,,5f146f134d45f104d0fee62c,2020-11-26_16h20.49.385,lexical_decision_task_MP_exp2,2020.2.5,Linux armv8l,60,,0,0.30450158,-0.310397991,1,0,0,0.7503,button_right,0.7503,1,,,,,,156,WORD,"ID",16,cradle,CRADLE,m,,,,,,0.30450158,-0.310397991,1,0,0,,0,174,174,95,1,
,,,,,,,,,,,,,,,,,,5f146f134d45f104d0fee62c,2020-11-26_16h20.49.385,lexical_decision_task_MP_exp2,2020.2.5,Linux armv8l,60,,0,-0.342982468,-0.275534176,1,0,0,0.7562,button_left,0.7562,1,,,,,,470,NW,UN,33,nobest,CRUDIO,z,,,,,,-0.342982468,-0.275534176,1,0,0,,0,175,175,409,1,
,,,,,,,,,,,,,,,,,,5f146f134d45f104d0fee62c,2020-11-26_16h20.49.385,lexical_decision_task_MP_exp2,2020.2.5,Linux armv8l,60,,0,-0.347614696,-0.271877178,1,0,0,0.7014,button_left,0.7014,0,,,,,,64,WORD,"ID",33,throne,THRONE,m,,,,,,-0.347614696,-0.271877178,1,0,0,,0,176,176,3,1,
,,,,,,,,,,,,,,,,,,5f146f134d45f104d0fee62c,2020-11-26_16h20.49.385,lexical_decision_task_MP_exp2,2020.2.5,Linux armv8l,60,,0,-0.34246778,-0.273827562,1,0,0,0.5862,button_left,0.5862,1,,,,,,246,NW,UN,16,blarge,PIATON,z,,,,,,-0.34246778,-0.273827562,1,0,0,,0,177,177,425,1,
,,,,,,,,,,,,,,,,,,5f146f134d45f104d0fee62c,2020-11-26_16h20.49.385,lexical_decision_task_MP_exp2,2020.2.5,Linux armv8l,60,,0,0.305530881,-0.309666458,1,0,0,0.6519,button_right,0.6519,1,,,,,,75,WORD,"ID",33,trophy,TROPHY,m,,,,,,0.305530881,-0.309666458,1,0,0,,0,178,178,14,1,
,,,,,,,,,,,,,,,,,,5f146f134d45f104d0fee62c,2020-11-26_16h20.49.385,lexical_decision_task_MP_exp2,2020.2.5,Linux armv8l,60,,0,-0.350188172,-0.272608563,1,0,0,0.6843,button_left,0.6843,1,,,,,,384,NW,"ID",16,guesco,GUESCO,z,,,,,,-0.350188172,-0.272608563,1,0,0,,0,179,179,323,1,
,,,,,,,,,,,,,,,,,,5f146f134d45f104d0fee62c,2020-11-26_16h20.49.385,lexical_decision_task_MP_exp2,2020.2.5,Linux armv8l,60,,0,0.305016231,-0.307472303,1,0,0,0.6337,button_right,0.6337,1,,,,,,44,WORD,UN,16,clergy,DANGER,m,,,,,,0.305016231,-0.307472303,1,0,0,,0,180,180,223,1,
,,,,,,,,,,,,,,,,,,5f146f134d45f104d0fee62c,2020-11-26_16h20.49.385,lexical_decision_task_MP_exp2,2020.2.5,Linux armv8l,60,,0,0.308104432,-0.305278148,1,0,0,0.7322,button_right,0.7322,1,,,,,,147,WORD,"ID",16,garlic,GARLIC,m,,,,,,0.308104432,-0.305278148,1,0,0,,0,181,181,86,1,
,,,,,,,,,,,,,,,,,,5f146f134d45f104d0fee62c,2020-11-26_16h20.49.385,lexical_decision_task_MP_exp2,2020.2.5,Linux armv8l,60,,0,0.302957479,-0.307959844,1,0,0,0.6166,button_right,0.6166,1,,,,,,91,WORD,"ID",33,expand,EXPAND,m,,,,,,0.302957479,-0.307959844,1,0,0,,0,182,182,30,1,
,,,,,,,,,,,,,,,,,,5f146f134d45f104d0fee62c,2020-11-26_16h20.49.385,lexical_decision_task_MP_exp2,2020.2.5,Linux armv8l,60,,0,0.303986781,-0.308691377,1,0,0,0.5993,button_right,0.5993,1,,,,,,9,WORD,UN,16,bridge,HUSTLE,m,,,,,,0.303986781,-0.308691377,1,0,0,,0,183,183,188,1,
,,,,,,,,,,,,,,,,,,5f146f134d45f104d0fee62c,2020-11-26_16h20.49.385,lexical_decision_task_MP_exp2,2020.2.5,Linux armv8l,60,,0,0.305530881,-0.306984763,1,0,0,0.8011,button_right,0.8011,1,,,,,,218,WORD,UN,33,bucket,SHRINK,m,,,,,,0.305530881,-0.306984763,1,0,0,,0,184,184,157,1,
,,,,,,,,,,,,,,,,,,5f146f134d45f104d0fee62c,2020-11-26_16h20.49.385,lexical_decision_task_MP_exp2,2020.2.5,Linux armv8l,60,,0,0.30450158,-0.310885531,1,0,0,0.552,button_right,0.552,1,,,,,,51,WORD,UN,16,impose,HUNGRY,m,,,,,,0.30450158,-0.310885531,1,0,0,,0,185,185,230,1,
,,,,,,,,,,,,,,,,,,5f146f134d45f104d0fee62c,2020-11-26_16h20.49.385,lexical_decision_task_MP_exp2,2020.2.5,Linux armv8l,60,,0,0.305016231,-0.311129301,1,0,0,0.5688,button_right,0.5688,1,,,,,,174,WORD,"ID",16,turkey,TURKEY,m,,,,,,0.305016231,-0.311129301,1,0,0,,0,186,186,113,1,
,,,,,,,,,,,,,,,,,,5f146f134d45f104d0fee62c,2020-11-26_16h20.49.385,lexical_decision_task_MP_exp2,2020.2.5,Linux armv8l,60,,0,-0.352246923,-0.266513565,1,0,0,0.7001,button_left,0.7001,1,,,,,,328,NW,"ID",33,broake,BROAKE,z,,,,,,-0.352246923,-0.266513565,1,0,0,,0,187,187,267,1,
,,,,,,,,,,,,,,,,,,5f146f134d45f104d0fee62c,2020-11-26_16h20.49.385,lexical_decision_task_MP_exp2,2020.2.5,Linux armv8l,60,,0,0.305016231,-0.311616916,1,0,0,0.6189,button_right,0.6189,1,,,,,,22,WORD,UN,16,wealth,JOCKEY,m,,,,,,0.305016231,-0.311616916,1,0,0,,0,188,188,201,1,
,,,,,,,,,,,,,,,,,,5f146f134d45f104d0fee62c,2020-11-26_16h20.49.385,lexical_decision_task_MP_exp2,2020.2.5,Linux armv8l,60,,0,0.30450158,-0.3135673,1,0,0,0.6166,button_right,0.6166,1,,,,,,3,WORD,UN,16,trench,KNIGHT,m,,,,,,0.30450158,-0.3135673,1,0,0,,0,189,189,182,1,
,,,,,,,,,,,,,,,,,,5f146f134d45f104d0fee62c,2020-11-26_16h20.49.385,lexical_decision_task_MP_exp2,2020.2.5,Linux armv8l,60,,0,0.30347213,-0.314298759,1,0,0,0.668,button_right,0.668,1,,,,,,23,WORD,UN,16,praise,WEALTH,m,,,,,,0.30347213,-0.314298759,1,0,0,,0,190,190,202,1,
,,,,,,,,,,,,,,,,,,5f146f134d45f104d0fee62c,2020-11-26_16h20.49.385,lexical_decision_task_MP_exp2,2020.2.5,Linux armv8l,60,,0,-0.347100008,-0.271877178,1,0,0,0.9308,button_left,0.9308,1,,,,,,394,NW,"ID",16,spaqux,SPAQUX,z,,,,,,-0.347100008,-0.271877178,1,0,0,,0,191,191,333,1,
,,,,,,,,,,,,,,,,,,5f146f134d45f104d0fee62c,2020-11-26_16h20.49.385,lexical_decision_task_MP_exp2,2020.2.5,Linux armv8l,60,,0,-0.345041219,-0.271145867,1,0,0,0.6191,button_left,0.6191,1,,,,,,297,NW,UN,16,piergy,FERTIC,z,,,,,,-0.345041219,-0.271145867,1,0,0,,0,192,192,476,1,
,,,,,,,,,,,,,,,,,,5f146f134d45f104d0fee62c,2020-11-26_16h20.49.385,lexical_decision_task_MP_exp2,2020.2.5,Linux armv8l,60,,0,0.306045532,-0.311129301,1,0,0,0.6538,button_right,0.6538,1,,,,,,231,WORD,UN,33,inject,EXPORT,m,,,,,,0.306045532,-0.311129301,1,0,0,,0,193,193,170,1,
,,,,,,,,,,,,,,,,,,5f146f134d45f104d0fee62c,2020-11-26_16h20.49.385,lexical_decision_task_MP_exp2,2020.2.5,Linux armv8l,60,,0,0.306560331,-0.307472303,1,0,0,0.6664,button_right,0.6664,1,,,,,,78,WORD,"ID",33,column,COLUMN,m,,,,,,0.306560331,-0.307472303,1,0,0,,0,194,194,17,1,
,,,,,,,,,,,,,,,,,,5f146f134d45f104d0fee62c,2020-11-26_16h20.49.385,lexical_decision_task_MP_exp2,2020.2.5,Linux armv8l,60,,0,0.319427638,-0.303083846,1,0,0,0.5347,button_right,0.5347,1,,,,,,157,WORD,"ID",16,dragon,DRAGON,m,,,,,,0.319427638,-0.303083846,1,0,0,,0,195,195,96,1,
,,,,,,,,,,,,,,,,,,5f146f134d45f104d0fee62c,2020-11-26_16h20.49.385,lexical_decision_task_MP_exp2,2020.2.5,Linux armv8l,60,,0,-0.373349347,-0.262125108,1,0,0,0.6651,button_left,0.6651,1,,,,,,276,NW,UN,16,petain,YARMON,z,,,,,,-0.373349347,-0.262125108,1,0,0,,0,196,196,455,1,
,,,,,,,,,,,,,,,,,,5f146f134d45f104d0fee62c,2020-11-26_16h20.49.385,lexical_decision_task_MP_exp2,2020.2.5,Linux armv8l,60,,0,-0.364084892,-0.259930879,1,0,0,0.6212,button_left,0.6212,1,,,,,,447,NW,UN,33,sadent,GIRCUE,z,,,,,,-0.364084892,-0.259930879,1,0,0,,0,197,197,386,1,
,,,,,,,,,,,,,,,,,,5f146f134d45f104d0fee62c,2020-11-26_16h20.49.385,lexical_decision_task_MP_exp2,2020.2.5,Linux armv8l,60,,0,-0.358423252,-0.263831722,1,0,0,0.5881,button_left,0.5881,0,,,,,,234,WORD,UN,33,poster,CLUMSY,m,,,,,,-0.358423252,-0.263831722,1,0,0,,0,198,198,173,1,
,,,,,,,,,,,,,,,,,,5f146f134d45f104d0fee62c,2020-11-26_16h20.49.385,lexical_decision_task_MP_exp2,2020.2.5,Linux armv8l,60,,0,0.325603893,-0.309422687,1,0,0,0.7688,button_right,0.7688,1,,,,,,168,WORD,"ID",16,answer,ANSWER,m,,,,,,0.325603893,-0.309422687,1,0,0,,0,199,199,107,1,
,,,,,,,,,,,,,,,,,,5f146f134d45f104d0fee62c,2020-11-26_16h20.49.385,lexical_decision_task_MP_exp2,2020.2.5,Linux armv8l,60,,0,-0.373349347,-0.258224265,1,0,0,0.5826,button_left,0.5826,1,,,,,,452,NW,UN,33,bolvis,SURDEN,z,,,,,,-0.373349347,-0.258224265,1,0,0,,0,200,200,391,1,
,,,,,,,,,,,,,,,,,,5f146f134d45f104d0fee62c,2020-11-26_16h20.49.385,lexical_decision_task_MP_exp2,2020.2.5,Linux armv8l,60,,0,-0.373349347,-0.253835808,1,0,0,0.9857,button_left,0.9857,1,,,,,,433,NW,UN,33,pitrom,DRANCE,z,,,,,,-0.373349347,-0.253835808,1,0,0,,0,201,201,372,1,
,,,,,,,,,,,,,,,,,,5f146f134d45f104d0fee62c,2020-11-26_16h20.49.385,lexical_decision_task_MP_exp2,2020.2.5,Linux armv8l,60,,0,-0.357908564,-0.263344107,1,0,0,0.7363,button_left,0.7363,1,,,,,,364,NW,"ID",16,impote,IMPOTE,z,,,,,,-0.357908564,-0.263344107,1,0,0,,0,202,202,303,1,
,,,,,,,,,,,,,,,,,,5f146f134d45f104d0fee62c,2020-11-26_16h20.49.385,lexical_decision_task_MP_exp2,2020.2.5,Linux armv8l,60,,0,-0.359967352,-0.25773665,1,0,0,0.6012,button_left,0.6012,1,,,,,,338,NW,"ID",33,wreash,WREASH,z,,,,,,-0.359967352,-0.25773665,1,0,0,,0,203,203,277,1,
,,,,,,,,,,,,,,,,,,5f146f134d45f104d0fee62c,2020-11-26_16h20.49.385,lexical_decision_task_MP_exp2,2020.2.5,Linux armv8l,60,,0,0.315310136,-0.310397991,1,0,0,0.7511,button_right,0.7511,1,,,,,,134,WORD,"ID",16,staple,STAPLE,m,,,,,,0.315310136,-0.310397991,1,0,0,,0,204,204,73,1,
,,,,,,,,,,,,,,,,,,5f146f134d45f104d0fee62c,2020-11-26_16h20.49.385,lexical_decision_task_MP_exp2,2020.2.5,Linux armv8l,60,,0,0.305530881,-0.309666458,1,0,0,0.6159,button_right,0.6159,1,,,,,,83,WORD,"ID",33,result,RESULT,m,,,,,,0.305530881,-0.309666458,1,0,0,,0,205,205,22,1,
,,,,,,,,,,,,,,,,,,5f146f134d45f104d0fee62c,2020-11-26_16h20.49.385,lexical_decision_task_MP_exp2,2020.2.5,Linux armv8l,60,,0,-0.375922823,-0.244815123,1,0,0,0.6399,button_left,0.6399,1,,,,,,339,NW,"ID",33,fachow,FACHOW,z,,,,,,-0.375922823,-0.244815123,1,0,0,,0,206,206,278,1,
,,,,,,,,,,,,,,,,,,5f146f134d45f104d0fee62c,2020-11-26_16h20.49.385,lexical_decision_task_MP_exp2,2020.2.5,Linux armv8l,60,,0,0.32045694,-0.302596231,1,0,0,0.8357,button_right,0.8357,1,,,,,,133,WORD,"ID",16,chrome,CHROME,m,,,,,,0.32045694,-0.302596231,1,0,0,,0,207,207,72,1,
,,,,,,,,,,,,,,,,,,5f146f134d45f104d0fee62c,2020-11-26_16h20.49.385,lexical_decision_task_MP_exp2,2020.2.5,Linux armv8l,60,,0,-0.373349347,-0.251397809,1,0,0,0.7027,button_left,0.7027,1,,,,,,311,NW,"ID",33,sproly,SPROLY,z,,,,,,-0.373349347,-0.251397809,1,0,0,,0,208,208,250,1,
,,,,,,,,,,,,,,,,,,5f146f134d45f104d0fee62c,2020-11-26_16h20.49.385,lexical_decision_task_MP_exp2,2020.2.5,Linux armv8l,60,,0,-0.371290596,-0.245302737,1,0,0,0.6366,button_left,0.6366,1,,,,,,351,NW,"ID",33,tiesch,TIESCH,z,,,,,,-0.371290596,-0.245302737,1,0,0,,0,209,209,290,1,
,,,,,,,,,,,,,,,,,,5f146f134d45f104d0fee62c,2020-11-26_16h20.49.385,lexical_decision_task_MP_exp2,2020.2.5,Linux armv8l,60,,0,0.323545141,-0.303815231,1,0,0,0.9695,button_right,0.9695,1,,,,,,185,WORD,UN,33,portal,BOTHER,m,,,,,,0.323545141,-0.303815231,1,0,0,,0,210,210,124,1,
,,,,,,,,,,,,,,,,,,5f146f134d45f104d0fee62c,2020-11-26_16h20.49.385,lexical_decision_task_MP_exp2,2020.2.5,Linux armv8l,60,,0,0.311192485,-0.315273915,1,0,0,0.7691,button_right,0.7691,1,,,,,,90,WORD,"ID",33,relish,RELISH,m,,,,,,0.311192485,-0.315273915,1,0,0,,0,211,211,29,1,
,,,,,,,,,,,,,,,,,,5f146f134d45f104d0fee62c,2020-11-26_16h20.49.385,lexical_decision_task_MP_exp2,2020.2.5,Linux armv8l,60,,0,0.311192485,-0.308203688,1,0,0,0.6487,button_right,0.6487,1,,,,,,126,WORD,"ID",16,enough,ENOUGH,m,,,,,,0.311192485,-0.308203688,1,0,0,,0,212,212,65,1,
,,,,,,,,,,,,,,,,,,5f146f134d45f104d0fee62c,2020-11-26_16h20.49.385,lexical_decision_task_MP_exp2,2020.2.5,Linux armv8l,60,,0,0.307589633,-0.308447458,1,0,0,0.5999,button_right,0.5999,1,,,,,,26,WORD,UN,16,butler,SPRINT,m,,,,,,0.307589633,-0.308447458,1,0,0,,0,213,213,205,1,
,,,,,,,,,,,,,,,,,,5f146f134d45f104d0fee62c,2020-11-26_16h20.49.385,lexical_decision_task_MP_exp2,2020.2.5,Linux armv8l,60,,0,0.316339437,-0.30625323,1,0,0,0.6347,button_right,0.6347,1,,,,,,149,WORD,"ID",16,invade,INVADE,m,,,,,,0.316339437,-0.30625323,1,0,0,,0,214,214,88,1,
,,,,,,,,,,,,,,,,,,5f146f134d45f104d0fee62c,2020-11-26_16h20.49.385,lexical_decision_task_MP_exp2,2020.2.5,Linux armv8l,60,,0,0.318398189,-0.309178917,1,0,0,0.583,button_right,0.583,1,,,,,,233,WORD,UN,33,clumsy,NATURE,m,,,,,,0.318398189,-0.309178917,1,0,0,,0,215,215,172,1,
,,,,,,,,,,,,,,,,,,5f146f134d45f104d0fee62c,2020-11-26_16h20.49.385,lexical_decision_task_MP_exp2,2020.2.5,Linux armv8l,60,,0,-0.368202432,-0.24725327,1,0,0,0.8822,button_left,0.8822,1,,,,,,315,NW,"ID",33,laston,LASTON,z,,,,,,-0.368202432,-0.24725327,1,0,0,,0,216,216,254,1,
,,,,,,,,,,,,,,,,,,5f146f134d45f104d0fee62c,2020-11-26_16h20.49.385,lexical_decision_task_MP_exp2,2020.2.5,Linux armv8l,60,,0,0.309648384,-0.315030144,1,0,0,0.7022,button_right,0.7022,1,,,,,,96,WORD,"ID",33,ignore,IGNORE,m,,,,,,0.309648384,-0.315030144,1,0,0,,0,217,217,35,1,
,,,,,,,,,,,,,,,,,,5f146f134d45f104d0fee62c,2020-11-26_16h20.49.385,lexical_decision_task_MP_exp2,2020.2.5,Linux armv8l,60,,0,0.320971739,-0.303571534,1,0,0,0.8532,button_right,0.8532,1,,,,,,122,WORD,"ID",16,linger,LINGER,m,,,,,,0.320971739,-0.303571534,1,0,0,,0,218,218,61,1,
,,,,,,,,,,,,,,,,,,5f146f134d45f104d0fee62c,2020-11-26_16h20.49.385,lexical_decision_task_MP_exp2,2020.2.5,Linux armv8l,60,,0,-0.370261183,-0.254811037,1,0,0,0.7361,button_left,0.7361,1,,,,,,467,NW,UN,33,wictor,GORBIE,z,,,,,,-0.370261183,-0.254811037,1,0,0,,0,219,219,406,1,
,,,,,,,,,,,,,,,,,,5f146f134d45f104d0fee62c,2020-11-26_16h20.49.385,lexical_decision_task_MP_exp2,2020.2.5,Linux armv8l,60,,0,-0.358423252,-0.261393723,1,0,0,0.6963,button_left,0.6963,1,,,,,,286,NW,UN,16,nymbel,RELDON,z,,,,,,-0.358423252,-0.261393723,1,0,0,,0,220,220,465,1,
,,,,,,,,,,,,,,,,,,5f146f134d45f104d0fee62c,2020-11-26_16h20.49.385,lexical_decision_task_MP_exp2,2020.2.5,Linux armv8l,60,,0,-0.3548204,-0.263587878,1,0,0,0.6353,button_left,0.6353,1,,,,,,415,NW,"ID",16,higsta,HIGSTA,z,,,,,,-0.3548204,-0.263587878,1,0,0,,0,221,221,354,1,
,,,,,,,,,,,,,,,,,,5f146f134d45f104d0fee62c,2020-11-26_16h20.49.385,lexical_decision_task_MP_exp2,2020.2.5,Linux armv8l,60,,0,0.299869278,-0.313079686,1,0,0,0.7028,button_right,0.7028,1,,,,,,150,WORD,"ID",16,random,RANDOM,m,,,,,,0.299869278,-0.313079686,1,0,0,,0,222,222,89,1,
,,,,,,,,,,,,,,,,,,5f146f134d45f104d0fee62c,2020-11-26_16h20.49.385,lexical_decision_task_MP_exp2,2020.2.5,Linux armv8l,60,,0,-0.362540791,-0.264319411,1,0,0,0.6513,button_left,0.6513,1,,,,,,480,NW,UN,33,knisma,ROBULY,z,,,,,,-0.362540791,-0.264319411,1,0,0,,0,223,223,419,1,
,,,,,,,,,,,,,,,,,,5f146f134d45f104d0fee62c,2020-11-26_16h20.49.385,lexical_decision_task_MP_exp2,2020.2.5,Linux armv8l,60,,0,-0.359967352,-0.260906182,1,0,0,0.586,button_left,0.586,1,,,,,,242,NW,UN,16,musied,UNWERT,z,,,,,,-0.359967352,-0.260906182,1,0,0,,0,224,224,421,1,
,,,,,,,,,,,,,,,,,,5f146f134d45f104d0fee62c,2020-11-26_16h20.49.385,lexical_decision_task_MP_exp2,2020.2.5,Linux armv8l,60,,0,0.302957479,-0.312348301,1,0,0,0.7174,button_right,0.7174,1,,,,,,111,WORD,"ID",33,induce,INDUCE,m,,,,,,0.302957479,-0.312348301,1,0,0,,0,225,225,50,1,
,,,,,,,,,,,,,,,,,,5f146f134d45f104d0fee62c,2020-11-26_16h20.49.385,lexical_decision_task_MP_exp2,2020.2.5,Linux armv8l,60,,0,-0.370261183,-0.254323422,1,0,0,0.703,button_left,0.703,1,,,,,,395,NW,"ID",16,colury,COLURY,z,,,,,,-0.370261183,-0.254323422,1,0,0,,0,226,226,334,1,
,,,,,,,,,,,,,,,,,,5f146f134d45f104d0fee62c,2020-11-26_16h20.49.385,lexical_decision_task_MP_exp2,2020.2.5,Linux armv8l,60,,0,0.305530881,-0.308447458,1,0,0,0.7686,button_right,0.7686,1,,,,,,136,WORD,"ID",16,bleach,BLEACH,m,,,,,,0.305530881,-0.308447458,1,0,0,,0,227,227,75,1,
,,,,,,,,,,,,,,,,,,5f146f134d45f104d0fee62c,2020-11-26_16h20.49.385,lexical_decision_task_MP_exp2,2020.2.5,Linux armv8l,60,,0,-0.363570204,-0.259687109,1,0,0,0.721,button_left,0.721,1,,,,,,265,NW,UN,16,varmit,DISTAR,z,,,,,,-0.363570204,-0.259687109,1,0,0,,0,228,228,444,1,
,,,,,,,,,,,,,,,,,,5f146f134d45f104d0fee62c,2020-11-26_16h20.49.385,lexical_decision_task_MP_exp2,2020.2.5,Linux armv8l,60,,0,-0.357908564,-0.257492954,1,0,0,0.5838,button_left,0.5838,1,,,,,,477,NW,UN,33,lobush,PHOTIE,z,,,,,,-0.357908564,-0.257492954,1,0,0,,0,229,229,416,1,
,,,,,,,,,,,,,,,,,,5f146f134d45f104d0fee62c,2020-11-26_16h20.49.385,lexical_decision_task_MP_exp2,2020.2.5,Linux armv8l,60,,0,-0.357908564,-0.252616808,1,0,0,0.8728,button_left,0.8728,1,,,,,,261,NW,UN,16,quilew,STUNCH,z,,,,,,-0.357908564,-0.252616808,1,0,0,,0,230,230,440,1,
,,,,,,,,,,,,,,,,,,5f146f134d45f104d0fee62c,2020-11-26_16h20.49.385,lexical_decision_task_MP_exp2,2020.2.5,Linux armv8l,60,,0,0.311707284,-0.290406162,1,0,0,0.6517,button_right,0.6517,1,,,,,,57,WORD,UN,16,danger,CHANGE,m,,,,,,0.311707284,-0.290406162,1,0,0,,0,231,231,236,1,
,,,,,,,,,,,,,,,,,,5f146f134d45f104d0fee62c,2020-11-26_16h20.49.385,lexical_decision_task_MP_exp2,2020.2.5,Linux armv8l,60,,0,-0.353791024,-0.256517651,1,0,0,0.6333,button_left,0.6333,1,,,,,,323,NW,"ID",33,rosail,ROSAIL,z,,,,,,-0.353791024,-0.256517651,1,0,0,,0,232,232,262,1,
,,,,,,,,,,,,,,,,,,5f146f134d45f104d0fee62c,2020-11-26_16h20.49.385,lexical_decision_task_MP_exp2,2020.2.5,Linux armv8l,60,,0,-0.353276336,-0.253592037,1,0,0,0.6003,button_left,0.6003,1,,,,,,381,NW,"ID",16,huniek,HUNIEK,z,,,,,,-0.353276336,-0.253592037,1,0,0,,0,233,233,320,1,
,,,,,,,,,,,,,,,,,,5f146f134d45f104d0fee62c,2020-11-26_16h20.49.385,lexical_decision_task_MP_exp2,2020.2.5,Linux armv8l,60,,0,-0.357393876,-0.251885423,1,0,0,0.5675,button_left,0.5675,1,,,,,,368,NW,"ID",16,hornal,HORNAL,z,,,,,,-0.357393876,-0.251885423,1,0,0,,0,234,234,307,1,
,,,,,,,,,,,,,,,,,,5f146f134d45f104d0fee62c,2020-11-26_16h20.49.385,lexical_decision_task_MP_exp2,2020.2.5,Linux armv8l,60,,0,0.307589633,-0.302108617,1,0,0,1.4077,button_right,1.4077,0,,,,,,345,NW,"ID",33,absend,ABSEND,z,,,,,,0.307589633,-0.302108617,1,0,0,,0,235,235,284,1,
,,,,,,,,,,,,,,,,,,5f146f134d45f104d0fee62c,2020-11-26_16h20.49.385,lexical_decision_task_MP_exp2,2020.2.5,Linux armv8l,60,,0,-0.359967352,-0.255542422,1,0,0,0.7182,button_left,0.7182,0,,,,,,45,WORD,UN,16,single,CLERGY,m,,,,,,-0.359967352,-0.255542422,1,0,0,,0,236,236,224,1,
,,,,,,,,,,,,,,,,,,5f146f134d45f104d0fee62c,2020-11-26_16h20.49.385,lexical_decision_task_MP_exp2,2020.2.5,Linux armv8l,60,,0,-0.353276336,-0.25578634,1,0,0,0.7747,button_left,0.7747,1,,,,,,283,NW,UN,16,shaple,VERALF,z,,,,,,-0.353276336,-0.25578634,1,0,0,,0,237,237,462,1,
,,,,,,,,,,,,,,,,,,5f146f134d45f104d0fee62c,2020-11-26_16h20.49.385,lexical_decision_task_MP_exp2,2020.2.5,Linux armv8l,60,,0,0.29523705,-0.311860686,1,0,0,0.6484,button_right,0.6484,1,,,,,,6,WORD,UN,16,anchor,BUNDLE,m,,,,,,0.29523705,-0.311860686,1,0,0,,0,238,238,185,1,
,,,,,,,,,,,,,,,,,,5f146f134d45f104d0fee62c,2020-11-26_16h20.49.385,lexical_decision_task_MP_exp2,2020.2.5,Linux armv8l,60,,0,-0.358937939,-0.254811037,1,0,0,0.7361,button_left,0.7361,1,,,,,,387,NW,"ID",16,gronce,GRONCE,z,,,,,,-0.358937939,-0.254811037,1,0,0,,0,239,239,326,1,
,,,,,,,,,,,,,,,,,,5f146f134d45f104d0fee62c,2020-11-26_16h20.49.385,lexical_decision_task_MP_exp2,2020.2.5,Linux armv8l,60,,0,-0.352246923,-0.257980495,1,0,0,0.7833,button_left,0.7833,1,,,,,,248,NW,UN,16,batrol,STROLE,z,,,,,,-0.352246923,-0.257980495,1,0,0,,0,240,240,427,1,
,,,,,,,,,,,,,,,,,,5f146f134d45f104d0fee62c,2020-11-26_16h20.49.385,lexical_decision_task_MP_exp2,2020.2.5,Linux armv8l,60,,0,-0.354305712,-0.253592037,1,0,0,0.7169,button_left,0.7169,1,,,,,,296,NW,UN,16,fertic,BEINCH,z,,,,,,0.074433706,-0.363790568,1,0,0,,0,241,241,475,1,break_done_button
,,,,,,,,,,,,,,,,,,5f146f134d45f104d0fee62c,2020-11-26_16h20.49.385,lexical_decision_task_MP_exp2,2020.2.5,Linux armv8l,60,,0,-0.423274587,-0.282604477,1,0,0,1.0367,button_left,1.0367,1,,,,,,388,NW,"ID",16,cragin,CRAGIN,z,,,,,,-0.423274587,-0.282604477,1,0,0,,0,242,242,327,1,
,,,,,,,,,,,,,,,,,,5f146f134d45f104d0fee62c,2020-11-26_16h20.49.385,lexical_decision_task_MP_exp2,2020.2.5,Linux armv8l,60,,0,0.423910345,-0.297232619,1,0,0,0.7696,button_right,0.7696,1,,,,,,148,WORD,"ID",16,custom,CUSTOM,m,,,,,,0.423910345,-0.297232619,1,0,0,,0,243,243,87,1,
,,,,,,,,,,,,,,,,,,5f146f134d45f104d0fee62c,2020-11-26_16h20.49.385,lexical_decision_task_MP_exp2,2020.2.5,Linux armv8l,60,,0,-0.441803534,-0.308203688,1,0,0,0.7001,button_left,0.7001,1,,,,,,258,NW,UN,16,soudal,POLUTH,z,,,,,,-0.441803534,-0.308203688,1,0,0,,0,244,244,437,1,
,,,,,,,,,,,,,,,,,,5f146f134d45f104d0fee62c,2020-11-26_16h20.49.385,lexical_decision_task_MP_exp2,2020.2.5,Linux armv8l,60,,0,-0.361511416,-0.287236704,1,0,0,0.6121,button_left,0.6121,1,,,,,,269,NW,UN,16,wrimsy,ORCHET,z,,,,,,-0.361511416,-0.287236704,1,0,0,,0,245,245,448,1,
,,,,,,,,,,,,,,,,,,5f146f134d45f104d0fee62c,2020-11-26_16h20.49.385,lexical_decision_task_MP_exp2,2020.2.5,Linux armv8l,60,,0,-0.362540791,-0.302840001,1,0,0,0.5835,button_left,0.5835,1,,,,,,350,NW,"ID",33,nagurs,NAGURS,z,,,,,,-0.362540791,-0.302840001,1,0,0,,0,246,246,289,1,
,,,,,,,,,,,,,,,,,,5f146f134d45f104d0fee62c,2020-11-26_16h20.49.385,lexical_decision_task_MP_exp2,2020.2.5,Linux armv8l,60,,0,-0.356879188,-0.28528632,1,0,0,0.6024,button_left,0.6024,1,,,,,,435,NW,UN,33,frutan,IMPURB,z,,,,,,-0.356879188,-0.28528632,1,0,0,,0,247,247,374,1,
,,,,,,,,,,,,,,,,,,5f146f134d45f104d0fee62c,2020-11-26_16h20.49.385,lexical_decision_task_MP_exp2,2020.2.5,Linux armv8l,60,,0,0.369352915,-0.311860686,1,0,0,0.7194,button_right,0.7194,1,,,,,,74,WORD,"ID",33,plaque,PLAQUE,m,,,,,,0.369352915,-0.311860686,1,0,0,,0,248,248,13,1,
,,,,,,,,,,,,,,,,,,5f146f134d45f104d0fee62c,2020-11-26_16h20.49.385,lexical_decision_task_MP_exp2,2020.2.5,Linux armv8l,60,,0,-0.375408136,-0.303815231,1,0,0,0.5972,button_left,0.5972,1,,,,,,271,NW,UN,16,damilt,AUBRID,z,,,,,,-0.375408136,-0.303815231,1,0,0,,0,249,249,450,1,
,,,,,,,,,,,,,,,,,,5f146f134d45f104d0fee62c,2020-11-26_16h20.49.385,lexical_decision_task_MP_exp2,2020.2.5,Linux armv8l,60,,0,0.349794554,-0.323563215,1,0,0,0.6642,button_right,0.6642,1,,,,,,67,WORD,"ID",33,policy,POLICY,m,,,,,,0.349794554,-0.323563215,1,0,0,,0,250,250,6,1,
,,,,,,,,,,,,,,,,,,5f146f134d45f104d0fee62c,2020-11-26_16h20.49.385,lexical_decision_task_MP_exp2,2020.2.5,Linux armv8l,60,,0,-0.374893448,-0.301377232,1,0,0,0.602,button_left,0.602,1,,,,,,357,NW,"ID",33,derain,DERAIN,z,,,,,,-0.374893448,-0.301377232,1,0,0,,0,251,251,296,1,
,,,,,,,,,,,,,,,,,,5f146f134d45f104d0fee62c,2020-11-26_16h20.49.385,lexical_decision_task_MP_exp2,2020.2.5,Linux armv8l,60,,0,-0.373349347,-0.29528216,1,0,0,0.6157,button_left,0.6157,1,,,,,,264,NW,UN,16,distar,VACKEL,z,,,,,,-0.373349347,-0.29528216,1,0,0,,0,252,252,443,1,
,,,,,,,,,,,,,,,,,,5f146f134d45f104d0fee62c,2020-11-26_16h20.49.385,lexical_decision_task_MP_exp2,2020.2.5,Linux armv8l,60,,0,0.342588851,-0.317224447,1,0,0,0.7023,button_right,0.7023,1,,,,,,81,WORD,"ID",33,friend,FRIEND,m,,,,,,0.342588851,-0.317224447,1,0,0,,0,253,253,20,1,
,,,,,,,,,,,,,,,,,,5f146f134d45f104d0fee62c,2020-11-26_16h20.49.385,lexical_decision_task_MP_exp2,2020.2.5,Linux armv8l,60,,0,0.344132951,-0.324050903,1,0,0,0.8,button_right,0.8,1,,,,,,151,WORD,"ID",16,mystic,MYSTIC,m,,,,,,0.344132951,-0.324050903,1,0,0,,0,254,254,90,1,
,,,,,,,,,,,,,,,,,,5f146f134d45f104d0fee62c,2020-11-26_16h20.49.385,lexical_decision_task_MP_exp2,2020.2.5,Linux armv8l,60,,0,-0.377981612,-0.302108617,1,0,0,0.6708,button_left,0.6708,1,,,,,,244,NW,UN,16,anougs,EATRIC,z,,,,,,-0.377981612,-0.302108617,1,0,0,,0,255,255,423,1,
,,,,,,,,,,,,,,,,,,5f146f134d45f104d0fee62c,2020-11-26_16h20.49.385,lexical_decision_task_MP_exp2,2020.2.5,Linux armv8l,60,,0,0.354941507,-0.325513599,1,0,0,0.7472,button_right,0.7472,1,,,,,,32,WORD,UN,16,scream,BUCKLE,m,,,,,,0.354941507,-0.325513599,1,0,0,,0,256,256,211,1,
,,,,,,,,,,,,,,,,,,5f146f134d45f104d0fee62c,2020-11-26_16h20.49.385,lexical_decision_task_MP_exp2,2020.2.5,Linux armv8l,60,,0,0.338985999,-0.324782214,1,0,0,0.6839,button_right,0.6839,1,,,,,,202,WORD,UN,33,phrase,FACTOR,m,,,,,,0.338985999,-0.324782214,1,0,0,,0,257,257,141,1,
,,,,,,,,,,,,,,,,,,5f146f134d45f104d0fee62c,2020-11-26_16h20.49.385,lexical_decision_task_MP_exp2,2020.2.5,Linux armv8l,60,,0,0.34104475,-0.321125216,1,0,0,0.617,button_right,0.617,1,,,,,,76,WORD,"ID",33,exotic,EXOTIC,m,,,,,,0.34104475,-0.321125216,1,0,0,,0,258,258,15,1,
,,,,,,,,,,,,,,,,,,5f146f134d45f104d0fee62c,2020-11-26_16h20.49.385,lexical_decision_task_MP_exp2,2020.2.5,Linux armv8l,60,,0,0.346191703,-0.319906142,1,0,0,0.6015,button_right,0.6015,1,,,,,,49,WORD,UN,16,snatch,SURVEY,m,,,,,,0.346191703,-0.319906142,1,0,0,,0,259,259,228,1,
,,,,,,,,,,,,,,,,,,5f146f134d45f104d0fee62c,2020-11-26_16h20.49.385,lexical_decision_task_MP_exp2,2020.2.5,Linux armv8l,60,,0,-0.398569311,-0.309666458,1,0,0,0.6333,button_left,0.6333,1,,,,,,300,NW,UN,16,smenco,YARION,z,,,,,,-0.398569311,-0.309666458,1,0,0,,0,260,260,479,1,
,,,,,,,,,,,,,,,,,,5f146f134d45f104d0fee62c,2020-11-26_16h20.49.385,lexical_decision_task_MP_exp2,2020.2.5,Linux armv8l,60,,0,0.3384712,-0.315030144,1,0,0,0.8544,button_right,0.8544,1,,,,,,48,WORD,UN,16,survey,WALNUT,m,,,,,,0.3384712,-0.315030144,1,0,0,,0,261,261,227,1,
,,,,,,,,,,,,,,,,,,5f146f134d45f104d0fee62c,2020-11-26_16h20.49.385,lexical_decision_task_MP_exp2,2020.2.5,Linux armv8l,60,,0,-0.324453484,-0.29333185,1,0,0,0.6877,button_left,0.6877,1,,,,,,290,NW,UN,16,pretch,SPLINO,z,,,,,,-0.324453484,-0.29333185,1,0,0,,0,262,262,469,1,
,,,,,,,,,,,,,,,,,,5f146f134d45f104d0fee62c,2020-11-26_16h20.49.385,lexical_decision_task_MP_exp2,2020.2.5,Linux armv8l,60,,0,-0.311586176,-0.295769775,1,0,0,0.5648,button_left,0.5648,1,,,,,,386,NW,"ID",16,ancust,ANCUST,z,,,,,,-0.311586176,-0.295769775,1,0,0,,0,263,263,325,1,
,,,,,,,,,,,,,,,,,,5f146f134d45f104d0fee62c,2020-11-26_16h20.49.385,lexical_decision_task_MP_exp2,2020.2.5,Linux armv8l,60,,0,-0.313644928,-0.29333185,1,0,0,0.5372,button_left,0.5372,1,,,,,,337,NW,"ID",33,rejols,REJOLS,z,,,,,,-0.313644928,-0.29333185,1,0,0,,0,264,264,276,1,
,,,,,,,,,,,,,,,,,,5f146f134d45f104d0fee62c,2020-11-26_16h20.49.385,lexical_decision_task_MP_exp2,2020.2.5,Linux armv8l,60,,0,-0.314674377,-0.291381317,1,0,0,0.7491,button_left,0.7491,1,,,,,,277,NW,UN,16,unighs,PETAIN,z,,,,,,-0.314674377,-0.291381317,1,0,0,,0,265,265,456,1,
,,,,,,,,,,,,,,,,,,5f146f134d45f104d0fee62c,2020-11-26_16h20.49.385,lexical_decision_task_MP_exp2,2020.2.5,Linux armv8l,60,,0,0.317368887,-0.297720159,1,0,0,0.6344,button_right,0.6344,1,,,,,,95,WORD,"ID",33,thread,THREAD,m,,,,,,0.317368887,-0.297720159,1,0,0,,0,266,266,34,1,
,,,,,,,,,,,,,,,,,,5f146f134d45f104d0fee62c,2020-11-26_16h20.49.385,lexical_decision_task_MP_exp2,2020.2.5,Linux armv8l,60,,0,-0.323424108,-0.304302845,1,0,0,0.5998,button_left,0.5998,1,,,,,,243,NW,UN,16,eatric,MUSIED,z,,,,,,-0.323424108,-0.304302845,1,0,0,,0,267,267,422,1,
,,,,,,,,,,,,,,,,,,5f146f134d45f104d0fee62c,2020-11-26_16h20.49.385,lexical_decision_task_MP_exp2,2020.2.5,Linux armv8l,60,,0,-0.319306605,-0.297232619,1,0,0,0.5989,button_left,0.5989,1,,,,,,336,NW,"ID",33,ghodus,GHODUS,z,,,,,,-0.319306605,-0.297232619,1,0,0,,0,268,268,275,1,
,,,,,,,,,,,,,,,,,,5f146f134d45f104d0fee62c,2020-11-26_16h20.49.385,lexical_decision_task_MP_exp2,2020.2.5,Linux armv8l,60,,0,-0.32702696,-0.301133387,1,0,0,0.72,button_left,0.72,1,,,,,,352,NW,"ID",33,tringe,TRINGE,z,,,,,,-0.32702696,-0.301133387,1,0,0,,0,269,269,291,1,
,,,,,,,,,,,,,,,,,,5f146f134d45f104d0fee62c,2020-11-26_16h20.49.385,lexical_decision_task_MP_exp2,2020.2.5,Linux armv8l,60,,0,-0.323424108,-0.302352461,1,0,0,0.6317,button_left,0.6317,0,,,,,,61,WORD,"ID",33,ponder,PONDER,m,,,,,,-0.323424108,-0.302352461,1,0,0,,0,270,270,0,1,
,,,,,,,,,,,,,,,,,,5f146f134d45f104d0fee62c,2020-11-26_16h20.49.385,lexical_decision_task_MP_exp2,2020.2.5,Linux armv8l,60,,0,0.337956549,-0.315273915,1,0,0,0.7368,button_right,0.7368,1,,,,,,186,WORD,UN,33,course,PORTAL,m,,,,,,0.337956549,-0.315273915,1,0,0,,0,271,271,125,1,
,,,,,,,,,,,,,,,,,,5f146f134d45f104d0fee62c,2020-11-26_16h20.49.385,lexical_decision_task_MP_exp2,2020.2.5,Linux armv8l,60,,0,0.32148639,-0.331121056,1,0,0,0.6383,button_right,0.6383,1,,,,,,138,WORD,"ID",16,melody,MELODY,m,,,,,,0.32148639,-0.331121056,1,0,0,,0,272,272,77,1,
,,,,,,,,,,,,,,,,,,5f146f134d45f104d0fee62c,2020-11-26_16h20.49.385,lexical_decision_task_MP_exp2,2020.2.5,Linux armv8l,60,,0,-0.349673484,-0.304059075,1,0,0,0.7356,button_left,0.7356,1,,,,,,461,NW,UN,33,absult,JUSTRE,z,,,,,,-0.349673484,-0.304059075,1,0,0,,0,273,273,400,1,
,,,,,,,,,,,,,,,,,,5f146f134d45f104d0fee62c,2020-11-26_16h20.49.385,lexical_decision_task_MP_exp2,2020.2.5,Linux armv8l,60,,0,0.323545141,-0.335753283,1,0,0,0.7669,button_right,0.7669,1,,,,,,27,WORD,UN,16,comedy,SCREAM,m,,,,,,0.323545141,-0.335753283,1,0,0,,0,274,274,206,1,
,,,,,,,,,,,,,,,,,,5f146f134d45f104d0fee62c,2020-11-26_16h20.49.385,lexical_decision_task_MP_exp2,2020.2.5,Linux armv8l,60,,0,-0.347614696,-0.299183003,1,0,0,0.582,button_left,0.582,1,,,,,,460,NW,UN,33,justre,MINGAR,z,,,,,,-0.347614696,-0.299183003,1,0,0,,0,275,275,399,1,
,,,,,,,,,,,,,,,,,,5f146f134d45f104d0fee62c,2020-11-26_16h20.49.385,lexical_decision_task_MP_exp2,2020.2.5,Linux armv8l,60,,0,-0.340408992,-0.297476389,1,0,0,1.0543,button_left,1.0543,1,,,,,,443,NW,UN,33,jaunce,DORSEX,z,,,,,,-0.340408992,-0.297476389,1,0,0,,0,276,276,382,1,
,,,,,,,,,,,,,,,,,,5f146f134d45f104d0fee62c,2020-11-26_16h20.49.385,lexical_decision_task_MP_exp2,2020.2.5,Linux armv8l,60,,0,-0.345555944,-0.28479878,1,0,0,0.5852,button_left,0.5852,0,,,,,,212,WORD,UN,33,squeal,VERIFY,m,,,,,,-0.345555944,-0.28479878,1,0,0,,0,277,277,151,1,
,,,,,,,,,,,,,,,,,,5f146f134d45f104d0fee62c,2020-11-26_16h20.49.385,lexical_decision_task_MP_exp2,2020.2.5,Linux armv8l,60,,0,0.329206744,-0.316005373,1,0,0,0.6702,button_right,0.6702,1,,,,,,63,WORD,"ID",33,launch,LAUNCH,m,,,,,,0.329206744,-0.316005373,1,0,0,,0,278,278,2,1,
,,,,,,,,,,,,,,,,,,5f146f134d45f104d0fee62c,2020-11-26_16h20.49.385,lexical_decision_task_MP_exp2,2020.2.5,Linux armv8l,60,,0,-0.354305712,-0.311129301,1,0,0,0.7026,button_left,0.7026,1,,,,,,453,NW,UN,33,scouge,BOLVIS,z,,,,,,-0.354305712,-0.311129301,1,0,0,,0,279,279,392,1,
,,,,,,,,,,,,,,,,,,5f146f134d45f104d0fee62c,2020-11-26_16h20.49.385,lexical_decision_task_MP_exp2,2020.2.5,Linux armv8l,60,,0,-0.346070632,-0.290406162,1,0,0,0.5813,button_left,0.5813,1,,,,,,456,NW,UN,33,wanigh,BROGET,z,,,,,,-0.346070632,-0.290406162,1,0,0,,0,280,280,395,1,
,,,,,,,,,,,,,,,,,,5f146f134d45f104d0fee62c,2020-11-26_16h20.49.385,lexical_decision_task_MP_exp2,2020.2.5,Linux armv8l,60,,0,0.310163183,-0.332583974,1,0,0,0.6846,button_right,0.6846,1,,,,,,115,WORD,"ID",33,guitar,GUITAR,m,,,,,,0.310163183,-0.332583974,1,0,0,,0,281,281,54,1,
,,,,,,,,,,,,,,,,,,5f146f134d45f104d0fee62c,2020-11-26_16h20.49.385,lexical_decision_task_MP_exp2,2020.2.5,Linux armv8l,60,,0,0.315824786,-0.328439213,1,0,0,0.7517,button_right,0.7517,1,,,,,,154,WORD,"ID",16,author,AUTHOR,m,,,,,,0.315824786,-0.328439213,1,0,0,,0,282,282,93,1,
,,,,,,,,,,,,,,,,,,5f146f134d45f104d0fee62c,2020-11-26_16h20.49.385,lexical_decision_task_MP_exp2,2020.2.5,Linux armv8l,60,,0,-0.347614696,-0.302596231,1,0,0,1.2043,button_left,1.2043,1,,,,,,474,NW,UN,33,acrise,HABLIN,z,,,,,,-0.347614696,-0.302596231,1,0,0,,0,283,283,413,1,
,,,,,,,,,,,,,,,,,,5f146f134d45f104d0fee62c,2020-11-26_16h20.49.385,lexical_decision_task_MP_exp2,2020.2.5,Linux armv8l,60,,0,0.339500649,-0.343067354,1,0,0,0.7529,button_right,0.7529,1,,,,,,155,WORD,"ID",16,lizard,LIZARD,m,,,,,,0.339500649,-0.343067354,1,0,0,,0,284,284,94,1,
,,,,,,,,,,,,,,,,,,5f146f134d45f104d0fee62c,2020-11-26_16h20.49.385,lexical_decision_task_MP_exp2,2020.2.5,Linux armv8l,60,,0,-0.372834659,-0.297720159,1,0,0,0.6815,button_left,0.6815,1,,,,,,279,NW,UN,16,curbol,CELOND,z,,,,,,-0.372834659,-0.297720159,1,0,0,,0,285,285,458,1,
,,,,,,,,,,,,,,,,,,5f146f134d45f104d0fee62c,2020-11-26_16h20.49.385,lexical_decision_task_MP_exp2,2020.2.5,Linux armv8l,60,,0,0.324059792,-0.326976443,1,0,0,0.6871,button_right,0.6871,1,,,,,,35,WORD,UN,16,vanish,SOCKET,m,,,,,,0.324059792,-0.326976443,1,0,0,,0,286,286,214,1,
,,,,,,,,,,,,,,,,,,5f146f134d45f104d0fee62c,2020-11-26_16h20.49.385,lexical_decision_task_MP_exp2,2020.2.5,Linux armv8l,60,,0,-0.339379616,-0.309910302,1,0,0,0.5718,button_left,0.5718,0,,,,,,114,WORD,"ID",33,placid,PLACID,m,,,,,,-0.339379616,-0.309910302,1,0,0,,0,287,287,53,1,
,,,,,,,,,,,,,,,,,,5f146f134d45f104d0fee62c,2020-11-26_16h20.49.385,lexical_decision_task_MP_exp2,2020.2.5,Linux armv8l,60,,0,0.313251236,-0.330145827,1,0,0,0.7348,button_right,0.7348,1,,,,,,200,WORD,UN,33,admire,BEACON,m,,,,,,0.313251236,-0.330145827,1,0,0,,0,288,288,139,1,
,,,,,,,,,,,,,,,,,,5f146f134d45f104d0fee62c,2020-11-26_16h20.49.385,lexical_decision_task_MP_exp2,2020.2.5,Linux armv8l,60,,0,0.324574591,-0.334046669,1,0,0,0.7026,button_right,0.7026,1,,,,,,13,WORD,UN,16,almost,STRIVE,m,,,,,,0.324574591,-0.334046669,1,0,0,,0,289,289,192,1,
,,,,,,,,,,,,,,,,,,5f146f134d45f104d0fee62c,2020-11-26_16h20.49.385,lexical_decision_task_MP_exp2,2020.2.5,Linux armv8l,60,,0,-0.344011844,-0.311860686,1,0,0,0.8439,button_left,0.8439,1,,,,,,250,NW,UN,16,lupict,MILTED,z,,,,,,-0.344011844,-0.311860686,1,0,0,,0,290,290,429,1,
,,,,,,,,,,,,,,,,,,5f146f134d45f104d0fee62c,2020-11-26_16h20.49.385,lexical_decision_task_MP_exp2,2020.2.5,Linux armv8l,60,,0,0.325603893,-0.331121056,1,0,0,0.7159,button_right,0.7159,1,,,,,,164,WORD,"ID",16,market,MARKET,m,,,,,,0.325603893,-0.331121056,1,0,0,,0,291,291,103,1,
,,,,,,,,,,,,,,,,,,5f146f134d45f104d0fee62c,2020-11-26_16h20.49.385,lexical_decision_task_MP_exp2,2020.2.5,Linux armv8l,60,,0,0.320971739,-0.335021899,1,0,0,0.7363,button_right,0.7363,1,,,,,,33,WORD,UN,16,jungle,BUTLER,m,,,,,,0.320971739,-0.335021899,1,0,0,,0,292,292,212,1,
,,,,,,,,,,,,,,,,,,5f146f134d45f104d0fee62c,2020-11-26_16h20.49.385,lexical_decision_task_MP_exp2,2020.2.5,Linux armv8l,60,,0,-0.344011844,-0.307228459,1,0,0,0.6499,button_left,0.6499,1,,,,,,457,NW,UN,33,barcet,WANIGH,z,,,,,,-0.344011844,-0.307228459,1,0,0,,0,293,293,396,1,
,,,,,,,,,,,,,,,,,,5f146f134d45f104d0fee62c,2020-11-26_16h20.49.385,lexical_decision_task_MP_exp2,2020.2.5,Linux armv8l,60,,0,0.311192485,-0.336972283,1,0,0,0.7202,button_right,0.7202,1,,,,,,204,WORD,UN,33,lounge,BURDEN,m,,,,,,0.311192485,-0.336972283,1,0,0,,0,294,294,143,1,
,,,,,,,,,,,,,,,,,,5f146f134d45f104d0fee62c,2020-11-26_16h20.49.385,lexical_decision_task_MP_exp2,2020.2.5,Linux armv8l,60,,0,0.314795337,-0.33160867,1,0,0,0.717,button_right,0.717,1,,,,,,60,WORD,UN,16,fright,PENCIL,m,,,,,,0.314795337,-0.33160867,1,0,0,,0,295,295,239,1,
,,,,,,,,,,,,,,,,,,5f146f134d45f104d0fee62c,2020-11-26_16h20.49.385,lexical_decision_task_MP_exp2,2020.2.5,Linux armv8l,60,,0,0.319427638,-0.33160867,1,0,0,0.7852,button_right,0.7852,1,,,,,,82,WORD,"ID",33,stigma,STIGMA,m,,,,,,0.319427638,-0.33160867,1,0,0,,0,296,296,21,1,
,,,,,,,,,,,,,,,,,,5f146f134d45f104d0fee62c,2020-11-26_16h20.49.385,lexical_decision_task_MP_exp2,2020.2.5,Linux armv8l,60,,0,0.318912988,-0.331121056,1,0,0,0.7155,button_right,0.7155,1,,,,,,227,WORD,UN,33,master,SELDOM,m,,,,,,0.318912988,-0.331121056,1,0,0,,0,297,297,166,1,
,,,,,,,,,,,,,,,,,,5f146f134d45f104d0fee62c,2020-11-26_16h20.49.385,lexical_decision_task_MP_exp2,2020.2.5,Linux armv8l,60,,0,0.324059792,-0.329414442,1,0,0,0.6009,button_right,0.6009,1,,,,,,128,WORD,"ID",16,senior,SENIOR,m,,,,,,0.324059792,-0.329414442,1,0,0,,0,298,298,67,1,
,,,,,,,,,,,,,,,,,,5f146f134d45f104d0fee62c,2020-11-26_16h20.49.385,lexical_decision_task_MP_exp2,2020.2.5,Linux armv8l,60,,0,0.331265496,-0.331121056,1,0,0,0.718,button_right,0.718,1,,,,,,100,WORD,"ID",33,carbon,CARBON,m,,,,,,0.331265496,-0.331121056,1,0,0,,0,299,299,39,1,
,,,,,,,,,,,,,,,,,,5f146f134d45f104d0fee62c,2020-11-26_16h20.49.385,lexical_decision_task_MP_exp2,2020.2.5,Linux armv8l,60,,0,-0.351217548,-0.303327616,1,0,0,0.6702,button_left,0.6702,1,,,,,,371,NW,"ID",16,geiloy,GEILOY,z,,,,,,-0.351217548,-0.303327616,1,0,0,,0,300,300,310,1,
,,,,,,,,,,,,,,,,,,5f146f134d45f104d0fee62c,2020-11-26_16h20.49.385,lexical_decision_task_MP_exp2,2020.2.5,Linux armv8l,60,,0,0.330236194,-0.33087736,1,0,0,0.7001,button_right,0.7001,1,,,,,,170,WORD,"ID",16,pounce,POUNCE,m,,,,,,0.330236194,-0.33087736,1,0,0,,0,301,301,109,1,
,,,,,,,,,,,,,,,,,,5f146f134d45f104d0fee62c,2020-11-26_16h20.49.385,lexical_decision_task_MP_exp2,2020.2.5,Linux armv8l,60,,0,0.335897798,-0.322100371,1,0,0,0.7008,button_right,0.7008,1,,,,,,17,WORD,UN,16,humble,CHARGE,m,,,,,,0.335897798,-0.322100371,1,0,0,,0,302,302,196,1,
,,,,,,,,,,,,,,,,,,5f146f134d45f104d0fee62c,2020-11-26_16h20.49.385,lexical_decision_task_MP_exp2,2020.2.5,Linux armv8l,60,,0,0.331780295,-0.325757517,1,0,0,0.6208,button_right,0.6208,1,,,,,,58,WORD,UN,16,splint,FOSTER,m,,,,,,0.331780295,-0.325757517,1,0,0,,0,303,303,237,1,
,,,,,,,,,,,,,,,,,,5f146f134d45f104d0fee62c,2020-11-26_16h20.49.385,lexical_decision_task_MP_exp2,2020.2.5,Linux armv8l,60,,0,0.325089242,-0.331121056,1,0,0,0.7194,button_right,0.7194,1,,,,,,131,WORD,"ID",16,quench,QUENCH,m,,,,,,0.325089242,-0.331121056,1,0,0,,0,304,304,70,1,
,,,,,,,,,,,,,,,,,,5f146f134d45f104d0fee62c,2020-11-26_16h20.49.385,lexical_decision_task_MP_exp2,2020.2.5,Linux armv8l,60,,0,0.32251584,-0.328926827,1,0,0,0.6151,button_right,0.6151,1,,,,,,39,WORD,UN,16,convey,INSECT,m,,,,,,0.32251584,-0.328926827,1,0,0,,0,305,305,218,1,
,,,,,,,,,,,,,,,,,,5f146f134d45f104d0fee62c,2020-11-26_16h20.49.385,lexical_decision_task_MP_exp2,2020.2.5,Linux armv8l,60,,0,0.313251236,-0.336972283,1,0,0,0.6369,button_right,0.6369,1,,,,,,214,WORD,UN,33,phobia,INTAKE,m,,,,,,0.313251236,-0.336972283,1,0,0,,0,306,306,153,1,
,,,,,,,,,,,,,,,,,,5f146f134d45f104d0fee62c,2020-11-26_16h20.49.385,lexical_decision_task_MP_exp2,2020.2.5,Linux armv8l,60,,0,-0.347614696,-0.312104605,1,0,0,0.7681,button_left,0.7681,1,,,,,,263,NW,UN,16,vackel,DOLICA,z,,,,,,-0.347614696,-0.312104605,1,0,0,,0,307,307,442,1,
,,,,,,,,,,,,,,,,,,5f146f134d45f104d0fee62c,2020-11-26_16h20.49.385,lexical_decision_task_MP_exp2,2020.2.5,Linux armv8l,60,,0,0.319942289,-0.334046669,1,0,0,0.8178,button_right,0.8178,1,,,,,,225,WORD,UN,33,casino,VULGAR,m,,,,,,0.319942289,-0.334046669,1,0,0,,0,308,308,164,1,
,,,,,,,,,,,,,,,,,,5f146f134d45f104d0fee62c,2020-11-26_16h20.49.385,lexical_decision_task_MP_exp2,2020.2.5,Linux armv8l,60,,0,0.316339437,-0.334046669,1,0,0,0.6806,button_right,0.6806,1,,,,,,110,WORD,"ID",33,polite,POLITE,m,,,,,,0.316339437,-0.334046669,1,0,0,,0,309,309,49,1,
,,,,,,,,,,,,,,,,,,5f146f134d45f104d0fee62c,2020-11-26_16h20.49.385,lexical_decision_task_MP_exp2,2020.2.5,Linux armv8l,60,,0,0.316854088,-0.339897971,1,0,0,0.5708,button_right,0.5708,1,,,,,,237,WORD,UN,33,glance,POSTER,m,,,,,,0.316854088,-0.339897971,1,0,0,,0,310,310,176,1,
,,,,,,,,,,,,,,,,,,5f146f134d45f104d0fee62c,2020-11-26_16h20.49.385,lexical_decision_task_MP_exp2,2020.2.5,Linux armv8l,60,,0,0.326633342,-0.332583974,1,0,0,0.6493,button_right,0.6493,1,,,,,,25,WORD,UN,16,sprint,DOMAIN,m,,,,,,0.326633342,-0.332583974,1,0,0,,0,311,311,204,1,
,,,,,,,,,,,,,,,,,,5f146f134d45f104d0fee62c,2020-11-26_16h20.49.385,lexical_decision_task_MP_exp2,2020.2.5,Linux armv8l,60,,0,0.32303049,-0.330389671,1,0,0,0.5706,button_right,0.5706,0,,,,,,425,NW,UN,33,urivel,FRUDGE,z,,,,,,0.32303049,-0.330389671,1,0,0,,0,312,312,364,1,
,,,,,,,,,,,,,,,,,,5f146f134d45f104d0fee62c,2020-11-26_16h20.49.385,lexical_decision_task_MP_exp2,2020.2.5,Linux armv8l,60,,0,-0.341438368,-0.316249144,1,0,0,0.7334,button_left,0.7334,1,,,,,,325,NW,"ID",33,thruse,THRUSE,z,,,,,,-0.341438368,-0.316249144,1,0,0,,0,313,313,264,1,
,,,,,,,,,,,,,,,,,,5f146f134d45f104d0fee62c,2020-11-26_16h20.49.385,lexical_decision_task_MP_exp2,2020.2.5,Linux armv8l,60,,0,-0.339379616,-0.310885531,1,0,0,0.7183,button_left,0.7183,1,,,,,,403,NW,"ID",16,bruats,BRUATS,z,,,,,,-0.339379616,-0.310885531,1,0,0,,0,314,314,342,1,
,,,,,,,,,,,,,,,,,,5f146f134d45f104d0fee62c,2020-11-26_16h20.49.385,lexical_decision_task_MP_exp2,2020.2.5,Linux armv8l,60,,0,0.322001041,-0.341604585,1,0,0,0.6999,button_right,0.6999,1,,,,,,222,WORD,UN,33,export,HINDER,m,,,,,,0.322001041,-0.341604585,1,0,0,,0,315,315,161,1,
,,,,,,,,,,,,,,,,,,5f146f134d45f104d0fee62c,2020-11-26_16h20.49.385,lexical_decision_task_MP_exp2,2020.2.5,Linux armv8l,60,,0,0.32045694,-0.336728513,1,0,0,0.6537,button_right,0.6537,1,,,,,,217,WORD,UN,33,shrink,LIQUOR,m,,,,,,0.32045694,-0.336728513,1,0,0,,0,316,316,156,1,
,,,,,,,,,,,,,,,,,,5f146f134d45f104d0fee62c,2020-11-26_16h20.49.385,lexical_decision_task_MP_exp2,2020.2.5,Linux armv8l,60,,0,-0.494816937,-0.310885531,1,0,0,1.4768,button_left,1.4768,1,,,,,,402,NW,"ID",16,syntic,SYNTIC,z,,,,,,-0.494816937,-0.310885531,1,0,0,,0,317,317,341,1,
,,,,,,,,,,,,,,,,,,5f146f134d45f104d0fee62c,2020-11-26_16h20.49.385,lexical_decision_task_MP_exp2,2020.2.5,Linux armv8l,60,,0,-0.339894304,-0.280897863,1,0,0,0.6178,button_left,0.6178,1,,,,,,333,NW,"ID",33,catrie,CATRIE,z,,,,,,-0.339894304,-0.280897863,1,0,0,,0,318,318,272,1,
,,,,,,,,,,,,,,,,,,5f146f134d45f104d0fee62c,2020-11-26_16h20.49.385,lexical_decision_task_MP_exp2,2020.2.5,Linux armv8l,60,,0,0.32148639,-0.295769775,1,0,0,0.7963,button_right,0.7963,1,,,,,,236,WORD,UN,33,grumpy,PIRATE,m,,,,,,0.32148639,-0.295769775,1,0,0,,0,319,319,175,1,
,,,,,,,,,,,,,,,,,,5f146f134d45f104d0fee62c,2020-11-26_16h20.49.385,lexical_decision_task_MP_exp2,2020.2.5,Linux armv8l,60,,0,0.327662644,-0.301377232,1,0,0,0.6024,button_right,0.6024,1,,,,,,37,WORD,UN,16,powder,INSULT,m,,,,,,0.327662644,-0.301377232,1,0,0,,0,320,320,216,1,
,,,,,,,,,,,,,,,,,,5f146f134d45f104d0fee62c,2020-11-26_16h20.49.385,lexical_decision_task_MP_exp2,2020.2.5,Linux armv8l,60,,0,0.326118691,-0.303327616,1,0,0,0.7179,button_right,0.7179,1,,,,,,176,WORD,"ID",16,strife,STRIFE,m,,,,,,0.326118691,-0.303327616,1,0,0,,0,321,321,115,1,
,,,,,,,,,,,,,,,,,,5f146f134d45f104d0fee62c,2020-11-26_16h20.49.385,lexical_decision_task_MP_exp2,2020.2.5,Linux armv8l,60,,0,0.32148639,-0.308203688,1,0,0,0.6834,button_right,0.6834,1,,,,,,161,WORD,"ID",16,pastor,PASTOR,m,,,,,,0.32148639,-0.308203688,1,0,0,,0,322,322,100,1,
,,,,,,,,,,,,,,,,,,5f146f134d45f104d0fee62c,2020-11-26_16h20.49.385,lexical_decision_task_MP_exp2,2020.2.5,Linux armv8l,60,,0,-0.385187316,-0.310397991,1,0,0,0.7539,button_left,0.7539,1,,,,,,280,NW,UN,16,melaty,CURBOL,z,,,,,,-0.385187316,-0.310397991,1,0,0,,0,323,323,459,1,
,,,,,,,,,,,,,,,,,,5f146f134d45f104d0fee62c,2020-11-26_16h20.49.385,lexical_decision_task_MP_exp2,2020.2.5,Linux armv8l,60,,0,-0.363570204,-0.286261475,1,0,0,0.6344,button_left,0.6344,1,,,,,,259,NW,UN,16,unject,SOUDAL,z,,,,,,-0.363570204,-0.286261475,1,0,0,,0,324,324,438,1,
,,,,,,,,,,,,,,,,,,5f146f134d45f104d0fee62c,2020-11-26_16h20.49.385,lexical_decision_task_MP_exp2,2020.2.5,Linux armv8l,60,,0,0.328177443,-0.299914388,1,0,0,0.733,button_right,0.733,1,,,,,,14,WORD,UN,16,orange,ALMOST,m,,,,,,0.328177443,-0.299914388,1,0,0,,0,325,325,193,1,
,,,,,,,,,,,,,,,,,,5f146f134d45f104d0fee62c,2020-11-26_16h20.49.385,lexical_decision_task_MP_exp2,2020.2.5,Linux armv8l,60,,0,0.32045694,-0.310397991,1,0,0,0.5987,button_right,0.5987,1,,,,,,59,WORD,UN,16,pencil,SPLINT,m,,,,,,0.32045694,-0.310397991,1,0,0,,0,326,326,238,1,
,,,,,,,,,,,,,,,,,,5f146f134d45f104d0fee62c,2020-11-26_16h20.49.385,lexical_decision_task_MP_exp2,2020.2.5,Linux armv8l,60,,0,-0.3548204,-0.289918622,1,0,0,0.7268,button_left,0.7268,1,,,,,,251,NW,UN,16,stapod,LUPICT,z,,,,,,-0.3548204,-0.289918622,1,0,0,,0,327,327,430,1,
,,,,,,,,,,,,,,,,,,5f146f134d45f104d0fee62c,2020-11-26_16h20.49.385,lexical_decision_task_MP_exp2,2020.2.5,Linux armv8l,60,,0,0.32251584,-0.310154072,1,0,0,0.6993,button_right,0.6993,1,,,,,,226,WORD,UN,33,flower,CASINO,m,,,,,,0.32251584,-0.310154072,1,0,0,,0,328,328,165,1,
,,,,,,,,,,,,,,,,,,5f146f134d45f104d0fee62c,2020-11-26_16h20.49.385,lexical_decision_task_MP_exp2,2020.2.5,Linux armv8l,60,,0,0.32148639,-0.311129301,1,0,0,0.6995,button_right,0.6995,1,,,,,,140,WORD,"ID",16,prince,PRINCE,m,,,,,,0.32148639,-0.311129301,1,0,0,,0,329,329,79,1,
,,,,,,,,,,,,,,,,,,5f146f134d45f104d0fee62c,2020-11-26_16h20.49.385,lexical_decision_task_MP_exp2,2020.2.5,Linux armv8l,60,,0,-0.353791024,-0.283823476,1,0,0,0.6691,button_left,0.6691,1,,,,,,341,NW,"ID",33,myrtie,MYRTIE,z,,,,,,-0.353791024,-0.283823476,1,0,0,,0,330,330,280,1,
,,,,,,,,,,,,,,,,,,5f146f134d45f104d0fee62c,2020-11-26_16h20.49.385,lexical_decision_task_MP_exp2,2020.2.5,Linux armv8l,60,,0,-0.350188172,-0.281629248,1,0,0,0.5833,button_left,0.5833,1,,,,,,308,NW,"ID",33,psetch,PSETCH,z,,,,,,-0.350188172,-0.281629248,1,0,0,,0,331,331,247,1,
,,,,,,,,,,,,,,,,,,5f146f134d45f104d0fee62c,2020-11-26_16h20.49.385,lexical_decision_task_MP_exp2,2020.2.5,Linux armv8l,60,,0,-0.349158796,-0.278459864,1,0,0,0.8562,button_left,0.8562,1,,,,,,307,NW,"ID",33,kirafe,KIRAFE,z,,,,,,-0.349158796,-0.278459864,1,0,0,,0,332,332,246,1,
,,,,,,,,,,,,,,,,,,5f146f134d45f104d0fee62c,2020-11-26_16h20.49.385,lexical_decision_task_MP_exp2,2020.2.5,Linux armv8l,60,,0,-0.342982468,-0.27724079,1,0,0,0.6663,button_left,0.6663,1,,,,,,359,NW,"ID",33,fonver,FONVER,z,,,,,,-0.342982468,-0.27724079,1,0,0,,0,333,333,298,1,
,,,,,,,,,,,,,,,,,,5f146f134d45f104d0fee62c,2020-11-26_16h20.49.385,lexical_decision_task_MP_exp2,2020.2.5,Linux armv8l,60,,0,0.313251236,-0.308447458,1,0,0,0.7206,button_right,0.7206,1,,,,,,107,WORD,"ID",33,slogan,SLOGAN,m,,,,,,0.313251236,-0.308447458,1,0,0,,0,334,334,46,1,
