counterbalancing_condition,instr_done_keyboard.keys,instr_done_keyboard.rt,instr_done_touch.x,instr_done_touch.y,instr_done_touch.leftButton,instr_done_touch.midButton,instr_done_touch.rightButton,instruction_pages.thisRepN,instruction_pages.thisTrialN,instruction_pages.thisN,instruction_pages.thisIndex,instruction_pages.ran,pageN,phase,instruct_text,has_image,instruct_image,participant,date,expName,psychopyVersion,OS,frameRate,response.keys,response.corr,response.rt,touch_resp.x,touch_resp.y,touch_resp.leftButton,touch_resp.midButton,touch_resp.rightButton,touch_resp.time,touch_resp.clicked_name,rt,corr,practice_trials.thisRepN,practice_trials.thisTrialN,practice_trials.thisN,practice_trials.thisIndex,practice_trials.ran,TrialID,StimulusType,Condition,PrimeDuration,Prime,Target,corrAns,end_of_practice_trials_pages.thisRepN,end_of_practice_trials_pages.thisTrialN,end_of_practice_trials_pages.thisN,end_of_practice_trials_pages.thisIndex,end_of_practice_trials_pages.ran,break_done_touch.x,break_done_touch.y,break_done_touch.leftButton,break_done_touch.midButton,break_done_touch.rightButton,break_done_keyboard.keys,trials.thisRepN,trials.thisTrialN,trials.thisN,trials.thisIndex,trials.ran
1,space,25.99075,-0.224999934,-0.071296305,0,0,0,0,0,0,0,1,1,instructions,"INSTRUCTIONS
At the start of each trial, look at the hash marks (######) in the center of the screen. After a moment, a string of letters will appear. Your task is to indicate if the letter string forms a word or not (i.e., if it is a nonword). For example, AUTHOR is a word while AUTHON is a nonword.

Press the space bar or touch the button below to continue.",0,,5f243ced1993820009875c12,2020-11-25_16h36.09.381,lexical_decision_task_MP_exp2,2020.2.5,Win32,60,,,,,,,,,,,,,,,,,,,,,,,,,,,,,,,,,,,,,,,,
,space,6.21807,-0.134259248,0.237962959,0,0,0,0,1,1,1,1,2,instructions,"If your device has a keyboard, press the 'Z' key for nonwords and the 'M' key for words.





Press the space bar or touch the button below to continue.",1,keyboard-example.gif,5f243ced1993820009875c12,2020-11-25_16h36.09.381,lexical_decision_task_MP_exp2,2020.2.5,Win32,60,,,,,,,,,,,,,,,,,,,,,,,,,,,,,,,,,,,,,,,,
,space,2.126425,-0.134259248,0.237962959,0,0,0,0,2,2,2,1,3,instructions,"If you are using a touchscreen only device, use the buttons on the screen. Do not use the mouse.





Press the space bar or touch the button below to continue.",1,touchscreen-example.gif,5f243ced1993820009875c12,2020-11-25_16h36.09.381,lexical_decision_task_MP_exp2,2020.2.5,Win32,60,,,,,,,,,,,,,,,,,,,,,,,,,,,,,,,,,,,,,,,,
,space,19.20235,-0.134259248,0.237962959,0,0,0,0,3,3,3,1,4,instructions,"It is very important that you respond as quickly and accurately as possible, as each letter string will only be on the screen for two seconds. If you do not respond within this time, the message 'Too slow!' will be displayed and the experiment will progress to the next letter string. The first 20 trials will be practice trials and you will receive feedback on your answers. 

Press the space bar or touch the button below to start the practice trials.",0,,5f243ced1993820009875c12,2020-11-25_16h36.09.381,lexical_decision_task_MP_exp2,2020.2.5,Win32,60,,,,,,,,,,,,,,,,,,,,,,,,,,,,,,,,,,,,,,,,
,,,,,,,,,,,,,,,,,,5f243ced1993820009875c12,2020-11-25_16h36.09.381,lexical_decision_task_MP_exp2,2020.2.5,Win32,60,m,1,1.190465,,,,,,,,1.190465,1,0,0,0,4,1,1005,WORD,UN,33,abound,SQUEAK,m,,,,,,,,,,,,,,,,
,,,,,,,,,,,,,,,,,,5f243ced1993820009875c12,2020-11-25_16h36.09.381,lexical_decision_task_MP_exp2,2020.2.5,Win32,60,m,1,0.96336,,,,,,,,0.96336,1,0,1,1,5,1,1006,WORD,UN,33,frenzy,OBTAIN,m,,,,,,,,,,,,,,,,
,,,,,,,,,,,,,,,,,,5f243ced1993820009875c12,2020-11-25_16h36.09.381,lexical_decision_task_MP_exp2,2020.2.5,Win32,60,m,1,0.803105,,,,,,,,0.803105,1,0,2,2,7,1,1008,WORD,UN,16,hurdle,VOLUME,m,,,,,,,,,,,,,,,,
,,,,,,,,,,,,,,,,,,5f243ced1993820009875c12,2020-11-25_16h36.09.381,lexical_decision_task_MP_exp2,2020.2.5,Win32,60,z,1,0.812035,,,,,,,,0.812035,1,0,3,3,15,1,1016,NW,UN,16,mushed,WHAISE,z,,,,,,,,,,,,,,,,
,,,,,,,,,,,,,,,,,,5f243ced1993820009875c12,2020-11-25_16h36.09.381,lexical_decision_task_MP_exp2,2020.2.5,Win32,60,m,1,0.59715,,,,,,,,0.59715,1,0,4,4,1,1,1002,WORD,"ID",33,adjust,ADJUST,m,,,,,,,,,,,,,,,,
,,,,,,,,,,,,,,,,,,5f243ced1993820009875c12,2020-11-25_16h36.09.381,lexical_decision_task_MP_exp2,2020.2.5,Win32,60,m,1,0.62898,,,,,,,,0.62898,1,0,5,5,6,1,1007,WORD,UN,16,tropic,ZOMBIE,m,,,,,,,,,,,,,,,,
,,,,,,,,,,,,,,,,,,5f243ced1993820009875c12,2020-11-25_16h36.09.381,lexical_decision_task_MP_exp2,2020.2.5,Win32,60,m,1,0.776965,,,,,,,,0.776965,1,0,6,6,2,1,1003,WORD,"ID",16,almond,ALMOND,m,,,,,,,,,,,,,,,,
,,,,,,,,,,,,,,,,,,5f243ced1993820009875c12,2020-11-25_16h36.09.381,lexical_decision_task_MP_exp2,2020.2.5,Win32,60,m,1,0.696925,,,,,,,,0.696925,1,0,7,7,3,1,1004,WORD,"ID",16,matrix,MATRIX,m,,,,,,,,,,,,,,,,
,,,,,,,,,,,,,,,,,,5f243ced1993820009875c12,2020-11-25_16h36.09.381,lexical_decision_task_MP_exp2,2020.2.5,Win32,60,z,1,0.79788,,,,,,,,0.79788,1,0,8,8,12,1,1013,NW,UN,33,adveil,SPRINY,z,,,,,,,,,,,,,,,,
,,,,,,,,,,,,,,,,,,5f243ced1993820009875c12,2020-11-25_16h36.09.381,lexical_decision_task_MP_exp2,2020.2.5,Win32,60,m,1,0.8171,,,,,,,,0.8171,1,0,9,9,0,1,1001,WORD,"ID",33,utopia,UTOPIA,m,,,,,,,,,,,,,,,,
,,,,,,,,,,,,,,,,,,5f243ced1993820009875c12,2020-11-25_16h36.09.381,lexical_decision_task_MP_exp2,2020.2.5,Win32,60,m,0,0.690435,,,,,,,,0.690435,0,0,10,10,10,1,1011,NW,"ID",16,inlade,INLADE,z,,,,,,,,,,,,,,,,
,,,,,,,,,,,,,,,,,,5f243ced1993820009875c12,2020-11-25_16h36.09.381,lexical_decision_task_MP_exp2,2020.2.5,Win32,60,z,1,0.885175,,,,,,,,0.885175,1,0,11,11,11,1,1012,NW,"ID",16,rashet,RASHET,z,,,,,,,,,,,,,,,,
,,,,,,,,,,,,,,,,,,5f243ced1993820009875c12,2020-11-25_16h36.09.381,lexical_decision_task_MP_exp2,2020.2.5,Win32,60,z,1,0.634285,,,,,,,,0.634285,1,0,12,12,14,1,1015,NW,UN,16,miaber,THRALE,z,,,,,,,,,,,,,,,,
,,,,,,,,,,,,,,,,,,5f243ced1993820009875c12,2020-11-25_16h36.09.381,lexical_decision_task_MP_exp2,2020.2.5,Win32,60,z,1,0.83955,,,,,,,,0.83955,1,0,13,13,8,1,1009,NW,"ID",33,aslert,ASLERT,z,,,,,,,,,,,,,,,,
,,,,,,,,,,,,,,,,,,5f243ced1993820009875c12,2020-11-25_16h36.09.381,lexical_decision_task_MP_exp2,2020.2.5,Win32,60,z,1,0.728115,,,,,,,,0.728115,1,0,14,14,9,1,1010,NW,"ID",33,fariny,FARINY,z,,,,,,,,,,,,,,,,
,,,,,,,,,,,,,,,,,,5f243ced1993820009875c12,2020-11-25_16h36.09.381,lexical_decision_task_MP_exp2,2020.2.5,Win32,60,z,1,1.188375,,,,,,,,1.188375,1,0,15,15,13,1,1014,NW,UN,33,winfer,ROUPET,z,,,,,,,,,,,,,,,,
,space,6.64723,-0.134259248,0.237962959,0,0,0,,,,,,1,end_of_practice,"You have completed the practice trials. During the experimental trials, you will not receive feedback, but it is very important that you respond as quickly and accurately as possible. 
Before you begin, please ensure that you are in a comfortable and quiet location and will not be disturbed for about 15 minutes, as we cannot use your data if you do not complete all the trials. 
There will be opportunities to take breaks at regular intervals during the experiment. When you are ready to start the experimental trials, please press space or touch the button below.",,,5f243ced1993820009875c12,2020-11-25_16h36.09.381,lexical_decision_task_MP_exp2,2020.2.5,Win32,60,,,,,,,,,,,,,,,,,,,,,,,,,0,0,0,0,1,,,,,,,,,,,
,,,,,,,,,,,,,,,,,,5f243ced1993820009875c12,2020-11-25_16h36.09.381,lexical_decision_task_MP_exp2,2020.2.5,Win32,60,z,1,0.81932,,,,,,,,0.81932,1,,,,,,376,NW,UN,33,sliant,IGUARE,z,,,,,,-0.134259248,0.237962959,0,0,0,,0,0,0,375,1
,,,,,,,,,,,,,,,,,,5f243ced1993820009875c12,2020-11-25_16h36.09.381,lexical_decision_task_MP_exp2,2020.2.5,Win32,60,m,1,0.69541,,,,,,,,0.69541,1,,,,,,27,WORD,"ID",33,scream,SCREAM,m,,,,,,-0.134259248,0.237962959,0,0,0,,0,1,1,26,1
,,,,,,,,,,,,,,,,,,5f243ced1993820009875c12,2020-11-25_16h36.09.381,lexical_decision_task_MP_exp2,2020.2.5,Win32,60,m,1,0.7613,,,,,,,,0.7613,1,,,,,,195,WORD,UN,16,credit,RESIGN,m,,,,,,-0.134259248,0.237962959,0,0,0,,0,2,2,194,1
,,,,,,,,,,,,,,,,,,5f243ced1993820009875c12,2020-11-25_16h36.09.381,lexical_decision_task_MP_exp2,2020.2.5,Win32,60,z,1,0.71202,,,,,,,,0.71202,1,,,,,,479,NW,UN,16,josted,LOBUSH,z,,,,,,-0.134259248,0.237962959,0,0,0,,0,3,3,478,1
,,,,,,,,,,,,,,,,,,5f243ced1993820009875c12,2020-11-25_16h36.09.381,lexical_decision_task_MP_exp2,2020.2.5,Win32,60,m,1,0.11533,,,,,,,,0.11533,1,,,,,,222,WORD,UN,16,casino,HINDER,m,,,,,,-0.134259248,0.237962959,0,0,0,,0,4,4,221,1
,,,,,,,,,,,,,,,,,,5f243ced1993820009875c12,2020-11-25_16h36.09.381,lexical_decision_task_MP_exp2,2020.2.5,Win32,60,z,1,0.762105,,,,,,,,0.762105,1,,,,,,411,NW,UN,33,jiluer,ORCHIN,z,,,,,,-0.134259248,0.237962959,0,0,0,,0,5,5,410,1
,,,,,,,,,,,,,,,,,,5f243ced1993820009875c12,2020-11-25_16h36.09.381,lexical_decision_task_MP_exp2,2020.2.5,Win32,60,z,0,0.623065,,,,,,,,0.623065,0,,,,,,221,WORD,UN,16,hinder,MASCOT,m,,,,,,-0.134259248,0.237962959,0,0,0,,0,6,6,220,1
,,,,,,,,,,,,,,,,,,5f243ced1993820009875c12,2020-11-25_16h36.09.381,lexical_decision_task_MP_exp2,2020.2.5,Win32,60,z,1,0.801665,,,,,,,,0.801665,1,,,,,,320,NW,"ID",16,jockal,JOCKAL,z,,,,,,-0.134259248,0.237962959,0,0,0,,0,7,7,319,1
,,,,,,,,,,,,,,,,,,5f243ced1993820009875c12,2020-11-25_16h36.09.381,lexical_decision_task_MP_exp2,2020.2.5,Win32,60,z,1,0.66424,,,,,,,,0.66424,1,,,,,,287,NW,"ID",33,nymbel,NYMBEL,z,,,,,,-0.134259248,0.237962959,0,0,0,,0,8,8,286,1
,,,,,,,,,,,,,,,,,,5f243ced1993820009875c12,2020-11-25_16h36.09.381,lexical_decision_task_MP_exp2,2020.2.5,Win32,60,m,1,0.64657,,,,,,,,0.64657,1,,,,,,58,WORD,"ID",33,foster,FOSTER,m,,,,,,-0.134259248,0.237962959,0,0,0,,0,9,9,57,1
,,,,,,,,,,,,,,,,,,5f243ced1993820009875c12,2020-11-25_16h36.09.381,lexical_decision_task_MP_exp2,2020.2.5,Win32,60,z,1,0.538115,,,,,,,,0.538115,1,,,,,,371,NW,UN,33,ramily,GEILOY,z,,,,,,-0.134259248,0.237962959,0,0,0,,0,10,10,370,1
,,,,,,,,,,,,,,,,,,5f243ced1993820009875c12,2020-11-25_16h36.09.381,lexical_decision_task_MP_exp2,2020.2.5,Win32,60,z,1,1.013605,,,,,,,,1.013605,1,,,,,,396,NW,UN,33,camble,FLENGY,z,,,,,,-0.134259248,0.237962959,0,0,0,,0,11,11,395,1
,,,,,,,,,,,,,,,,,,5f243ced1993820009875c12,2020-11-25_16h36.09.381,lexical_decision_task_MP_exp2,2020.2.5,Win32,60,m,1,0.64912,,,,,,,,0.64912,1,,,,,,192,WORD,UN,16,object,PLAGUE,m,,,,,,-0.134259248,0.237962959,0,0,0,,0,12,12,191,1
,,,,,,,,,,,,,,,,,,5f243ced1993820009875c12,2020-11-25_16h36.09.381,lexical_decision_task_MP_exp2,2020.2.5,Win32,60,m,1,0.72901,,,,,,,,0.72901,1,,,,,,205,WORD,UN,16,tailor,LOUNGE,m,,,,,,-0.134259248,0.237962959,0,0,0,,0,13,13,204,1
,,,,,,,,,,,,,,,,,,5f243ced1993820009875c12,2020-11-25_16h36.09.381,lexical_decision_task_MP_exp2,2020.2.5,Win32,60,m,1,0.79934,,,,,,,,0.79934,1,,,,,,1,WORD,"ID",33,fright,FRIGHT,m,,,,,,-0.134259248,0.237962959,0,0,0,,0,14,14,0,1
,,,,,,,,,,,,,,,,,,5f243ced1993820009875c12,2020-11-25_16h36.09.381,lexical_decision_task_MP_exp2,2020.2.5,Win32,60,z,1,0.98073,,,,,,,,0.98073,1,,,,,,293,NW,"ID",33,swance,SWANCE,z,,,,,,-0.134259248,0.237962959,0,0,0,,0,15,15,292,1
,,,,,,,,,,,,,,,,,,5f243ced1993820009875c12,2020-11-25_16h36.09.381,lexical_decision_task_MP_exp2,2020.2.5,Win32,60,m,1,0.7621,,,,,,,,0.7621,1,,,,,,117,WORD,"ID",16,branch,BRANCH,m,,,,,,-0.134259248,0.237962959,0,0,0,,0,16,16,116,1
,,,,,,,,,,,,,,,,,,5f243ced1993820009875c12,2020-11-25_16h36.09.381,lexical_decision_task_MP_exp2,2020.2.5,Win32,60,m,1,1.2658,,,,,,,,1.2658,1,,,,,,77,WORD,"ID",16,racket,RACKET,m,,,,,,-0.134259248,0.237962959,0,0,0,,0,17,17,76,1
,,,,,,,,,,,,,,,,,,5f243ced1993820009875c12,2020-11-25_16h36.09.381,lexical_decision_task_MP_exp2,2020.2.5,Win32,60,z,1,1.321605,,,,,,,,1.321605,1,,,,,,250,NW,"ID",33,milted,MILTED,z,,,,,,-0.134259248,0.237962959,0,0,0,,0,18,18,249,1
,,,,,,,,,,,,,,,,,,5f243ced1993820009875c12,2020-11-25_16h36.09.381,lexical_decision_task_MP_exp2,2020.2.5,Win32,60,z,1,0.8496,,,,,,,,0.8496,1,,,,,,444,NW,UN,16,minkel,JAUNCE,z,,,,,,-0.134259248,0.237962959,0,0,0,,0,19,19,443,1
,,,,,,,,,,,,,,,,,,5f243ced1993820009875c12,2020-11-25_16h36.09.381,lexical_decision_task_MP_exp2,2020.2.5,Win32,60,m,1,0.68193,,,,,,,,0.68193,1,,,,,,63,WORD,"ID",16,launch,LAUNCH,m,,,,,,-0.134259248,0.237962959,0,0,0,,0,20,20,62,1
,,,,,,,,,,,,,,,,,,5f243ced1993820009875c12,2020-11-25_16h36.09.381,lexical_decision_task_MP_exp2,2020.2.5,Win32,60,z,1,0.86504,,,,,,,,0.86504,1,,,,,,466,NW,UN,16,pebric,HOCITE,z,,,,,,-0.134259248,0.237962959,0,0,0,,0,21,21,465,1
,,,,,,,,,,,,,,,,,,5f243ced1993820009875c12,2020-11-25_16h36.09.381,lexical_decision_task_MP_exp2,2020.2.5,Win32,60,m,1,0.74541,,,,,,,,0.74541,1,,,,,,217,WORD,UN,16,shrink,LIQUOR,m,,,,,,-0.134259248,0.237962959,0,0,0,,0,22,22,216,1
,,,,,,,,,,,,,,,,,,5f243ced1993820009875c12,2020-11-25_16h36.09.381,lexical_decision_task_MP_exp2,2020.2.5,Win32,60,z,1,0.625915,,,,,,,,0.625915,1,,,,,,446,NW,UN,16,gircue,RUNAMO,z,,,,,,-0.134259248,0.237962959,0,0,0,,0,23,23,445,1
,,,,,,,,,,,,,,,,,,5f243ced1993820009875c12,2020-11-25_16h36.09.381,lexical_decision_task_MP_exp2,2020.2.5,Win32,60,z,1,0.905765,,,,,,,,0.905765,1,,,,,,328,NW,"ID",16,broake,BROAKE,z,,,,,,-0.134259248,0.237962959,0,0,0,,0,24,24,327,1
,,,,,,,,,,,,,,,,,,5f243ced1993820009875c12,2020-11-25_16h36.09.381,lexical_decision_task_MP_exp2,2020.2.5,Win32,60,m,1,0.601225,,,,,,,,0.601225,1,,,,,,238,WORD,UN,16,grumpy,FLOWER,m,,,,,,-0.134259248,0.237962959,0,0,0,,0,25,25,237,1
,,,,,,,,,,,,,,,,,,5f243ced1993820009875c12,2020-11-25_16h36.09.381,lexical_decision_task_MP_exp2,2020.2.5,Win32,60,m,1,0.585395,,,,,,,,0.585395,1,,,,,,108,WORD,"ID",16,reckon,RECKON,m,,,,,,-0.134259248,0.237962959,0,0,0,,0,26,26,107,1
,,,,,,,,,,,,,,,,,,5f243ced1993820009875c12,2020-11-25_16h36.09.381,lexical_decision_task_MP_exp2,2020.2.5,Win32,60,z,1,0.62152,,,,,,,,0.62152,1,,,,,,301,NW,"ID",16,fainch,FAINCH,z,,,,,,-0.134259248,0.237962959,0,0,0,,0,27,27,300,1
,,,,,,,,,,,,,,,,,,5f243ced1993820009875c12,2020-11-25_16h36.09.381,lexical_decision_task_MP_exp2,2020.2.5,Win32,60,z,1,0.8257,,,,,,,,0.8257,1,,,,,,255,NW,"ID",33,apight,APIGHT,z,,,,,,-0.134259248,0.237962959,0,0,0,,0,28,28,254,1
,,,,,,,,,,,,,,,,,,5f243ced1993820009875c12,2020-11-25_16h36.09.381,lexical_decision_task_MP_exp2,2020.2.5,Win32,60,z,1,1.16362,,,,,,,,1.16362,1,,,,,,285,NW,"ID",33,prudge,PRUDGE,z,,,,,,-0.134259248,0.237962959,0,0,0,,0,29,29,284,1
,,,,,,,,,,,,,,,,,,5f243ced1993820009875c12,2020-11-25_16h36.09.381,lexical_decision_task_MP_exp2,2020.2.5,Win32,60,m,1,0.61515,,,,,,,,0.61515,1,,,,,,44,WORD,"ID",33,danger,DANGER,m,,,,,,-0.134259248,0.237962959,0,0,0,,0,30,30,43,1
,,,,,,,,,,,,,,,,,,5f243ced1993820009875c12,2020-11-25_16h36.09.381,lexical_decision_task_MP_exp2,2020.2.5,Win32,60,z,1,0.672485,,,,,,,,0.672485,1,,,,,,369,NW,UN,33,sleact,WRONCH,z,,,,,,-0.134259248,0.237962959,0,0,0,,0,31,31,368,1
,,,,,,,,,,,,,,,,,,5f243ced1993820009875c12,2020-11-25_16h36.09.381,lexical_decision_task_MP_exp2,2020.2.5,Win32,60,z,1,0.766335,,,,,,,,0.766335,1,,,,,,440,NW,UN,16,cainky,SARIDE,z,,,,,,-0.134259248,0.237962959,0,0,0,,0,32,32,439,1
,,,,,,,,,,,,,,,,,,5f243ced1993820009875c12,2020-11-25_16h36.09.381,lexical_decision_task_MP_exp2,2020.2.5,Win32,60,z,1,0.84613,,,,,,,,0.84613,1,,,,,,367,NW,UN,33,hornal,SLIQUE,z,,,,,,-0.134259248,0.237962959,0,0,0,,0,33,33,366,1
,,,,,,,,,,,,,,,,,,5f243ced1993820009875c12,2020-11-25_16h36.09.381,lexical_decision_task_MP_exp2,2020.2.5,Win32,60,m,1,0.814125,,,,,,,,0.814125,1,,,,,,116,WORD,"ID",16,tumble,TUMBLE,m,,,,,,-0.134259248,0.237962959,0,0,0,,0,34,34,115,1
,,,,,,,,,,,,,,,,,,5f243ced1993820009875c12,2020-11-25_16h36.09.381,lexical_decision_task_MP_exp2,2020.2.5,Win32,60,z,1,0.6637,,,,,,,,0.6637,1,,,,,,379,NW,UN,33,cavory,AUTING,z,,,,,,-0.134259248,0.237962959,0,0,0,,0,35,35,378,1
,,,,,,,,,,,,,,,,,,5f243ced1993820009875c12,2020-11-25_16h36.09.381,lexical_decision_task_MP_exp2,2020.2.5,Win32,60,z,0,0.749595,,,,,,,,0.749595,0,,,,,,225,WORD,UN,16,kidney,VULGAR,m,,,,,,-0.134259248,0.237962959,0,0,0,,0,36,36,224,1
,,,,,,,,,,,,,,,,,,5f243ced1993820009875c12,2020-11-25_16h36.09.381,lexical_decision_task_MP_exp2,2020.2.5,Win32,60,m,1,0.6526,,,,,,,,0.6526,1,,,,,,131,WORD,UN,33,strong,QUENCH,m,,,,,,-0.134259248,0.237962959,0,0,0,,0,37,37,130,1
,,,,,,,,,,,,,,,,,,5f243ced1993820009875c12,2020-11-25_16h36.09.381,lexical_decision_task_MP_exp2,2020.2.5,Win32,60,m,1,0.570905,,,,,,,,0.570905,1,,,,,,67,WORD,"ID",16,policy,POLICY,m,,,,,,-0.134259248,0.237962959,0,0,0,,0,38,38,66,1
,,,,,,,,,,,,,,,,,,5f243ced1993820009875c12,2020-11-25_16h36.09.381,lexical_decision_task_MP_exp2,2020.2.5,Win32,60,m,1,0.664565,,,,,,,,0.664565,1,,,,,,172,WORD,UN,33,shower,PATROL,m,,,,,,-0.134259248,0.237962959,0,0,0,,0,39,39,171,1
,,,,,,,,,,,,,,,,,,5f243ced1993820009875c12,2020-11-25_16h36.09.381,lexical_decision_task_MP_exp2,2020.2.5,Win32,60,z,1,0.81896,,,,,,,,0.81896,1,,,,,,392,NW,UN,33,ganous,ROUNCY,z,,,,,,-0.134259248,0.237962959,0,0,0,,0,40,40,391,1
,,,,,,,,,,,,,,,,,,5f243ced1993820009875c12,2020-11-25_16h36.09.381,lexical_decision_task_MP_exp2,2020.2.5,Win32,60,z,1,1.129965,,,,,,,,1.129965,1,,,,,,321,NW,"ID",16,miator,MIATOR,z,,,,,,-0.134259248,0.237962959,0,0,0,,0,41,41,320,1
,,,,,,,,,,,,,,,,,,5f243ced1993820009875c12,2020-11-25_16h36.09.381,lexical_decision_task_MP_exp2,2020.2.5,Win32,60,z,1,0.86334,,,,,,,,0.86334,1,,,,,,416,NW,UN,33,earoud,PATHEL,z,,,,,,-0.134259248,0.237962959,0,0,0,,0,42,42,415,1
,,,,,,,,,,,,,,,,,,5f243ced1993820009875c12,2020-11-25_16h36.09.381,lexical_decision_task_MP_exp2,2020.2.5,Win32,60,m,1,0.721565,,,,,,,,0.721565,1,,,,,,86,WORD,"ID",16,rodent,RODENT,m,,,,,,-0.134259248,0.237962959,0,0,0,,0,43,43,85,1
,,,,,,,,,,,,,,,,,,5f243ced1993820009875c12,2020-11-25_16h36.09.381,lexical_decision_task_MP_exp2,2020.2.5,Win32,60,z,0,0.87221,,,,,,,,0.87221,0,,,,,,85,WORD,"ID",16,sprawl,SPRAWL,m,,,,,,-0.134259248,0.237962959,0,0,0,,0,44,44,84,1
,,,,,,,,,,,,,,,,,,5f243ced1993820009875c12,2020-11-25_16h36.09.381,lexical_decision_task_MP_exp2,2020.2.5,Win32,60,m,1,0.736545,,,,,,,,0.736545,1,,,,,,25,WORD,"ID",33,domain,DOMAIN,m,,,,,,-0.134259248,0.237962959,0,0,0,,0,45,45,24,1
,,,,,,,,,,,,,,,,,,5f243ced1993820009875c12,2020-11-25_16h36.09.381,lexical_decision_task_MP_exp2,2020.2.5,Win32,60,m,1,0.76937,,,,,,,,0.76937,1,,,,,,82,WORD,"ID",16,stigma,STIGMA,m,,,,,,-0.134259248,0.237962959,0,0,0,,0,46,46,81,1
,,,,,,,,,,,,,,,,,,5f243ced1993820009875c12,2020-11-25_16h36.09.381,lexical_decision_task_MP_exp2,2020.2.5,Win32,60,m,1,0.649585,,,,,,,,0.649585,1,,,,,,158,WORD,UN,33,detail,ISLAND,m,,,,,,-0.134259248,0.237962959,0,0,0,,0,47,47,157,1
,,,,,,,,,,,,,,,,,,5f243ced1993820009875c12,2020-11-25_16h36.09.381,lexical_decision_task_MP_exp2,2020.2.5,Win32,60,m,1,0.632235,,,,,,,,0.632235,1,,,,,,75,WORD,"ID",16,trophy,TROPHY,m,,,,,,-0.134259248,0.237962959,0,0,0,,0,48,48,74,1
,,,,,,,,,,,,,,,,,,5f243ced1993820009875c12,2020-11-25_16h36.09.381,lexical_decision_task_MP_exp2,2020.2.5,Win32,60,m,1,0.54927,,,,,,,,0.54927,1,,,,,,18,WORD,"ID",33,humble,HUMBLE,m,,,,,,-0.134259248,0.237962959,0,0,0,,0,49,49,17,1
,,,,,,,,,,,,,,,,,,5f243ced1993820009875c12,2020-11-25_16h36.09.381,lexical_decision_task_MP_exp2,2020.2.5,Win32,60,m,1,0.467225,,,,,,,,0.467225,1,,,,,,17,WORD,"ID",33,charge,CHARGE,m,,,,,,-0.134259248,0.237962959,0,0,0,,0,50,50,16,1
,,,,,,,,,,,,,,,,,,5f243ced1993820009875c12,2020-11-25_16h36.09.381,lexical_decision_task_MP_exp2,2020.2.5,Win32,60,m,1,0.56202,,,,,,,,0.56202,1,,,,,,235,WORD,UN,16,pirate,GRUMPY,m,,,,,,-0.134259248,0.237962959,0,0,0,,0,51,51,234,1
,,,,,,,,,,,,,,,,,,5f243ced1993820009875c12,2020-11-25_16h36.09.381,lexical_decision_task_MP_exp2,2020.2.5,Win32,60,z,1,0.67012,,,,,,,,0.67012,1,,,,,,381,NW,UN,33,sarley,HUNIEK,z,,,,,,-0.134259248,0.237962959,0,0,0,,0,52,52,380,1
,,,,,,,,,,,,,,,,,,5f243ced1993820009875c12,2020-11-25_16h36.09.381,lexical_decision_task_MP_exp2,2020.2.5,Win32,60,m,1,0.7288,,,,,,,,0.7288,1,,,,,,198,WORD,UN,16,invoke,WICKED,m,,,,,,-0.134259248,0.237962959,0,0,0,,0,53,53,197,1
,,,,,,,,,,,,,,,,,,5f243ced1993820009875c12,2020-11-25_16h36.09.381,lexical_decision_task_MP_exp2,2020.2.5,Win32,60,z,1,0.81281,,,,,,,,0.81281,1,,,,,,249,NW,"ID",33,batrol,BATROL,z,,,,,,-0.134259248,0.237962959,0,0,0,,0,54,54,248,1
,,,,,,,,,,,,,,,,,,5f243ced1993820009875c12,2020-11-25_16h36.09.381,lexical_decision_task_MP_exp2,2020.2.5,Win32,60,m,1,0.583055,,,,,,,,0.583055,1,,,,,,200,WORD,UN,16,admire,BEACON,m,,,,,,-0.134259248,0.237962959,0,0,0,,0,55,55,199,1
,,,,,,,,,,,,,,,,,,5f243ced1993820009875c12,2020-11-25_16h36.09.381,lexical_decision_task_MP_exp2,2020.2.5,Win32,60,z,1,0.62836,,,,,,,,0.62836,1,,,,,,472,NW,UN,16,crible,CIGNEY,z,,,,,,-0.134259248,0.237962959,0,0,0,,0,56,56,471,1
,,,,,,,,,,,,,,,,,,5f243ced1993820009875c12,2020-11-25_16h36.09.381,lexical_decision_task_MP_exp2,2020.2.5,Win32,60,m,0,0.763165,,,,,,,,0.763165,0,,,,,,441,NW,UN,16,aboune,RASTOE,z,,,,,,-0.134259248,0.237962959,0,0,0,,0,57,57,440,1
,,,,,,,,,,,,,,,,,,5f243ced1993820009875c12,2020-11-25_16h36.09.381,lexical_decision_task_MP_exp2,2020.2.5,Win32,60,z,1,0.94569,,,,,,,,0.94569,1,,,,,,463,NW,UN,16,bafent,KISPEL,z,,,,,,-0.134259248,0.237962959,0,0,0,,0,58,58,462,1
,,,,,,,,,,,,,,,,,,5f243ced1993820009875c12,2020-11-25_16h36.09.381,lexical_decision_task_MP_exp2,2020.2.5,Win32,60,z,1,1.05136,,,,,,,,1.05136,1,,,,,,456,NW,UN,16,wanigh,BROGET,z,,,,,,-0.134259248,0.237962959,0,0,0,,0,59,59,455,1
,,,,,,,,,,,,,,,,,,5f243ced1993820009875c12,2020-11-25_16h36.09.381,lexical_decision_task_MP_exp2,2020.2.5,Win32,60,z,1,0.70376,,,,,,,,0.70376,1,,,,,,461,NW,UN,16,absult,JUSTRE,z,,,,,,-0.134259248,0.237962959,0,0,0,,0,60,60,460,1
,,,,,,,,,,,,,,,,,,5f243ced1993820009875c12,2020-11-25_16h36.09.381,lexical_decision_task_MP_exp2,2020.2.5,Win32,60,m,1,0.83313,,,,,,,,0.83313,1,,,,,,219,WORD,UN,16,voyage,BUCKET,m,,,,,,-0.134259248,0.237962959,0,0,0,,0,61,61,218,1
,,,,,,,,,,,,,,,,,,5f243ced1993820009875c12,2020-11-25_16h36.09.381,lexical_decision_task_MP_exp2,2020.2.5,Win32,60,z,1,0.956465,,,,,,,,0.956465,1,,,,,,382,NW,UN,33,aungre,SARLEY,z,,,,,,-0.134259248,0.237962959,0,0,0,,0,62,62,381,1
,,,,,,,,,,,,,,,,,,5f243ced1993820009875c12,2020-11-25_16h36.09.381,lexical_decision_task_MP_exp2,2020.2.5,Win32,60,z,1,0.6706,,,,,,,,0.6706,1,,,,,,375,NW,UN,33,iguare,YORQUE,z,,,,,,-0.134259248,0.237962959,0,0,0,,0,63,63,374,1
,,,,,,,,,,,,,,,,,,5f243ced1993820009875c12,2020-11-25_16h36.09.381,lexical_decision_task_MP_exp2,2020.2.5,Win32,60,z,0,0.763255,,,,,,,,0.763255,0,,,,,,176,WORD,UN,33,advent,STRIFE,m,,,,,,-0.134259248,0.237962959,0,0,0,,0,64,64,175,1
,,,,,,,,,,,,,,,,,,5f243ced1993820009875c12,2020-11-25_16h36.09.381,lexical_decision_task_MP_exp2,2020.2.5,Win32,60,z,1,0.623935,,,,,,,,0.623935,1,,,,,,325,NW,"ID",16,thruse,THRUSE,z,,,,,,-0.134259248,0.237962959,0,0,0,,0,65,65,324,1
,,,,,,,,,,,,,,,,,,5f243ced1993820009875c12,2020-11-25_16h36.09.381,lexical_decision_task_MP_exp2,2020.2.5,Win32,60,z,1,0.73495,,,,,,,,0.73495,1,,,,,,458,NW,UN,16,chaite,BARCET,z,,,,,,-0.134259248,0.237962959,0,0,0,,0,66,66,457,1
,,,,,,,,,,,,,,,,,,5f243ced1993820009875c12,2020-11-25_16h36.09.381,lexical_decision_task_MP_exp2,2020.2.5,Win32,60,z,1,0.984825,,,,,,,,0.984825,1,,,,,,344,NW,"ID",16,scrily,SCRILY,z,,,,,,-0.134259248,0.237962959,0,0,0,,0,67,67,343,1
,,,,,,,,,,,,,,,,,,5f243ced1993820009875c12,2020-11-25_16h36.09.381,lexical_decision_task_MP_exp2,2020.2.5,Win32,60,z,1,0.673395,,,,,,,,0.673395,1,,,,,,290,NW,"ID",33,splino,SPLINO,z,,,,,,-0.134259248,0.237962959,0,0,0,,0,68,68,289,1
,,,,,,,,,,,,,,,,,,5f243ced1993820009875c12,2020-11-25_16h36.09.381,lexical_decision_task_MP_exp2,2020.2.5,Win32,60,m,1,0.62153,,,,,,,,0.62153,1,,,,,,36,WORD,"ID",33,vanish,VANISH,m,,,,,,-0.134259248,0.237962959,0,0,0,,0,69,69,35,1
,,,,,,,,,,,,,,,,,,5f243ced1993820009875c12,2020-11-25_16h36.09.381,lexical_decision_task_MP_exp2,2020.2.5,Win32,60,m,1,0.735715,,,,,,,,0.735715,1,,,,,,119,WORD,"ID",16,spider,SPIDER,m,,,,,,-0.134259248,0.237962959,0,0,0,,0,70,70,118,1
,,,,,,,,,,,,,,,,,,5f243ced1993820009875c12,2020-11-25_16h36.09.381,lexical_decision_task_MP_exp2,2020.2.5,Win32,60,z,1,0.7624,,,,,,,,0.7624,1,,,,,,454,NW,UN,16,tondle,SCOUGE,z,,,,,,-0.134259248,0.237962959,0,0,0,,0,71,71,453,1
,,,,,,,,,,,,,,,,,,5f243ced1993820009875c12,2020-11-25_16h36.09.381,lexical_decision_task_MP_exp2,2020.2.5,Win32,60,z,1,0.744955,,,,,,,,0.744955,1,,,,,,330,NW,"ID",16,kensom,KENSOM,z,,,,,,-0.134259248,0.237962959,0,0,0,,0,72,72,329,1
,,,,,,,,,,,,,,,,,,5f243ced1993820009875c12,2020-11-25_16h36.09.381,lexical_decision_task_MP_exp2,2020.2.5,Win32,60,z,1,0.78268,,,,,,,,0.78268,1,,,,,,350,NW,"ID",16,nagurs,NAGURS,z,,,,,,-0.134259248,0.237962959,0,0,0,,0,73,73,349,1
,,,,,,,,,,,,,,,,,,5f243ced1993820009875c12,2020-11-25_16h36.09.381,lexical_decision_task_MP_exp2,2020.2.5,Win32,60,m,1,0.628385,,,,,,,,0.628385,1,,,,,,4,WORD,"ID",33,trench,TRENCH,m,,,,,,-0.134259248,0.237962959,0,0,0,,0,74,74,3,1
,,,,,,,,,,,,,,,,,,5f243ced1993820009875c12,2020-11-25_16h36.09.381,lexical_decision_task_MP_exp2,2020.2.5,Win32,60,m,1,0.74975,,,,,,,,0.74975,1,,,,,,151,WORD,UN,33,rocket,MYSTIC,m,,,,,,-0.134259248,0.237962959,0,0,0,,0,75,75,150,1
,,,,,,,,,,,,,,,,,,5f243ced1993820009875c12,2020-11-25_16h36.09.381,lexical_decision_task_MP_exp2,2020.2.5,Win32,60,m,1,0.58141,,,,,,,,0.58141,1,,,,,,8,WORD,"ID",33,abrupt,ABRUPT,m,,,,,,-0.134259248,0.237962959,0,0,0,,0,76,76,7,1
,,,,,,,,,,,,,,,,,,5f243ced1993820009875c12,2020-11-25_16h36.09.381,lexical_decision_task_MP_exp2,2020.2.5,Win32,60,z,1,0.99611,,,,,,,,0.99611,1,,,,,,268,NW,"ID",33,packes,PACKES,z,,,,,,-0.134259248,0.237962959,0,0,0,,0,77,77,267,1
,,,,,,,,,,,,,,,,,,5f243ced1993820009875c12,2020-11-25_16h36.09.381,lexical_decision_task_MP_exp2,2020.2.5,Win32,60,z,1,0.95782,,,,,,,,0.95782,1,,,,,,258,NW,"ID",33,poluth,POLUTH,z,,,,,,-0.134259248,0.237962959,0,0,0,,0,78,78,257,1
,,,,,,,,,,,,,,,,,,5f243ced1993820009875c12,2020-11-25_16h36.09.381,lexical_decision_task_MP_exp2,2020.2.5,Win32,60,z,1,0.735475,,,,,,,,0.735475,1,,,,,,310,NW,"ID",16,daniet,DANIET,z,,,,,,-0.134259248,0.237962959,0,0,0,,0,79,79,309,1
,,,,,,,,,,,,,,,,,,5f243ced1993820009875c12,2020-11-25_16h36.09.381,lexical_decision_task_MP_exp2,2020.2.5,Win32,60,z,1,0.695685,,,,,,,,0.695685,1,,,,,,395,NW,UN,33,flengy,COLURY,z,,,,,,-0.134259248,0.237962959,0,0,0,,0,80,80,394,1
,,,,,,,,,,,,,,,,,,5f243ced1993820009875c12,2020-11-25_16h36.09.381,lexical_decision_task_MP_exp2,2020.2.5,Win32,60,m,1,0.66714,,,,,,,,0.66714,1,,,,,,223,WORD,UN,16,period,KIDNEY,m,,,,,,-0.134259248,0.237962959,0,0,0,,0,81,81,222,1
,,,,,,,,,,,,,,,,,,5f243ced1993820009875c12,2020-11-25_16h36.09.381,lexical_decision_task_MP_exp2,2020.2.5,Win32,60,z,0,0.64943,,,,,,,,0.64943,0,,,,,,142,WORD,UN,33,orphan,SPRUCE,m,,,,,,-0.134259248,0.237962959,0,0,0,,0,82,82,141,1
,,,,,,,,,,,,,,,,,,5f243ced1993820009875c12,2020-11-25_16h36.09.381,lexical_decision_task_MP_exp2,2020.2.5,Win32,60,m,1,0.804825,,,,,,,,0.804825,1,,,,,,167,WORD,UN,33,answer,DESIGN,m,,,,,,-0.134259248,0.237962959,0,0,0,,0,83,83,166,1
,,,,,,,,,,,,,,,,,,5f243ced1993820009875c12,2020-11-25_16h36.09.381,lexical_decision_task_MP_exp2,2020.2.5,Win32,60,z,1,1.029285,,,,,,,,1.029285,1,,,,,,314,NW,"ID",16,sprine,SPRINE,z,,,,,,-0.134259248,0.237962959,0,0,0,,0,84,84,313,1
,,,,,,,,,,,,,,,,,,5f243ced1993820009875c12,2020-11-25_16h36.09.381,lexical_decision_task_MP_exp2,2020.2.5,Win32,60,m,1,0.66441,,,,,,,,0.66441,1,,,,,,138,WORD,UN,33,staple,MELODY,m,,,,,,-0.134259248,0.237962959,0,0,0,,0,85,85,137,1
,,,,,,,,,,,,,,,,,,5f243ced1993820009875c12,2020-11-25_16h36.09.381,lexical_decision_task_MP_exp2,2020.2.5,Win32,60,z,1,0.524265,,,,,,,,0.524265,1,,,,,,384,NW,UN,33,veigma,GUESCO,z,,,,,,-0.134259248,0.237962959,0,0,0,,0,86,86,383,1
,,,,,,,,,,,,,,,,,,5f243ced1993820009875c12,2020-11-25_16h36.09.381,lexical_decision_task_MP_exp2,2020.2.5,Win32,60,z,1,0.619955,,,,,,,,0.619955,1,,,,,,448,NW,UN,16,brunge,SADENT,z,,,,,,-0.134259248,0.237962959,0,0,0,,0,87,87,447,1
,,,,,,,,,,,,,,,,,,5f243ced1993820009875c12,2020-11-25_16h36.09.381,lexical_decision_task_MP_exp2,2020.2.5,Win32,60,m,1,0.980335,,,,,,,,0.980335,1,,,,,,236,WORD,UN,16,poster,PIRATE,m,,,,,,-0.134259248,0.237962959,0,0,0,,0,88,88,235,1
,,,,,,,,,,,,,,,,,,5f243ced1993820009875c12,2020-11-25_16h36.09.381,lexical_decision_task_MP_exp2,2020.2.5,Win32,60,m,1,0.72256,,,,,,,,0.72256,1,,,,,,31,WORD,"ID",33,weapon,WEAPON,m,,,,,,-0.134259248,0.237962959,0,0,0,,0,89,89,30,1
,,,,,,,,,,,,,,,,,,5f243ced1993820009875c12,2020-11-25_16h36.09.381,lexical_decision_task_MP_exp2,2020.2.5,Win32,60,z,1,0.670895,,,,,,,,0.670895,1,,,,,,408,NW,UN,33,flumni,HURNIA,z,,,,,,-0.134259248,0.237962959,0,0,0,,0,90,90,407,1
,,,,,,,,,,,,,,,,,,5f243ced1993820009875c12,2020-11-25_16h36.09.381,lexical_decision_task_MP_exp2,2020.2.5,Win32,60,z,1,0.834225,,,,,,,,0.834225,1,,,,,,449,NW,UN,16,phrect,BRUNGE,z,,,,,,-0.134259248,0.237962959,0,0,0,,0,91,91,448,1
,,,,,,,,,,,,,,,,,,5f243ced1993820009875c12,2020-11-25_16h36.09.381,lexical_decision_task_MP_exp2,2020.2.5,Win32,60,m,1,0.689615,,,,,,,,0.689615,1,,,,,,174,WORD,UN,33,fabric,TURKEY,m,,,,,,-0.134259248,0.237962959,0,0,0,,0,92,92,173,1
,,,,,,,,,,,,,,,,,,5f243ced1993820009875c12,2020-11-25_16h36.09.381,lexical_decision_task_MP_exp2,2020.2.5,Win32,60,z,1,1.4958,,,,,,,,1.4958,1,,,,,,265,NW,"ID",33,distar,DISTAR,z,,,,,,-0.134259248,0.237962959,0,0,0,,0,93,93,264,1
,,,,,,,,,,,,,,,,,,5f243ced1993820009875c12,2020-11-25_16h36.09.381,lexical_decision_task_MP_exp2,2020.2.5,Win32,60,z,1,0.656305,,,,,,,,0.656305,1,,,,,,385,NW,UN,33,ancust,VEIGMA,z,,,,,,-0.134259248,0.237962959,0,0,0,,0,94,94,384,1
,,,,,,,,,,,,,,,,,,5f243ced1993820009875c12,2020-11-25_16h36.09.381,lexical_decision_task_MP_exp2,2020.2.5,Win32,60,m,1,0.64767,,,,,,,,0.64767,1,,,,,,171,WORD,UN,33,patrol,DEPART,m,,,,,,-0.134259248,0.237962959,0,0,0,,0,95,95,170,1
,,,,,,,,,,,,,,,,,,5f243ced1993820009875c12,2020-11-25_16h36.09.381,lexical_decision_task_MP_exp2,2020.2.5,Win32,60,m,1,0.795325,,,,,,,,0.795325,1,,,,,,83,WORD,"ID",16,result,RESULT,m,,,,,,-0.134259248,0.237962959,0,0,0,,0,96,96,82,1
,,,,,,,,,,,,,,,,,,5f243ced1993820009875c12,2020-11-25_16h36.09.381,lexical_decision_task_MP_exp2,2020.2.5,Win32,60,z,1,0.71615,,,,,,,,0.71615,1,,,,,,277,NW,"ID",33,petain,PETAIN,z,,,,,,-0.134259248,0.237962959,0,0,0,,0,97,97,276,1
,,,,,,,,,,,,,,,,,,5f243ced1993820009875c12,2020-11-25_16h36.09.381,lexical_decision_task_MP_exp2,2020.2.5,Win32,60,z,1,0.666085,,,,,,,,0.666085,1,,,,,,292,NW,"ID",33,ablint,ABLINT,z,,,,,,-0.134259248,0.237962959,0,0,0,,0,98,98,291,1
,,,,,,,,,,,,,,,,,,5f243ced1993820009875c12,2020-11-25_16h36.09.381,lexical_decision_task_MP_exp2,2020.2.5,Win32,60,z,1,0.89924,,,,,,,,0.89924,1,,,,,,324,NW,"ID",16,steikh,STEIKH,z,,,,,,-0.134259248,0.237962959,0,0,0,,0,99,99,323,1
,,,,,,,,,,,,,,,,,,5f243ced1993820009875c12,2020-11-25_16h36.09.381,lexical_decision_task_MP_exp2,2020.2.5,Win32,60,m,1,0.8542,,,,,,,,0.8542,1,,,,,,23,WORD,"ID",33,wealth,WEALTH,m,,,,,,-0.134259248,0.237962959,0,0,0,,0,100,100,22,1
,,,,,,,,,,,,,,,,,,5f243ced1993820009875c12,2020-11-25_16h36.09.381,lexical_decision_task_MP_exp2,2020.2.5,Win32,60,z,1,1.22988,,,,,,,,1.22988,1,,,,,,433,NW,UN,16,pitrom,DRANCE,z,,,,,,-0.134259248,0.237962959,0,0,0,,0,101,101,432,1
,,,,,,,,,,,,,,,,,,5f243ced1993820009875c12,2020-11-25_16h36.09.381,lexical_decision_task_MP_exp2,2020.2.5,Win32,60,z,1,0.746335,,,,,,,,0.746335,1,,,,,,412,NW,UN,33,equats,JILUER,z,,,,,,-0.134259248,0.237962959,0,0,0,,0,102,102,411,1
,,,,,,,,,,,,,,,,,,5f243ced1993820009875c12,2020-11-25_16h36.09.381,lexical_decision_task_MP_exp2,2020.2.5,Win32,60,z,0,0.823765,,,,,,,,0.823765,0,,,,,,64,WORD,"ID",16,throne,THRONE,m,,,,,,-0.134259248,0.237962959,0,0,0,,0,103,103,63,1
,,,,,,,,,,,,,,,,,,5f243ced1993820009875c12,2020-11-25_16h36.09.381,lexical_decision_task_MP_exp2,2020.2.5,Win32,60,m,1,0.74972,,,,,,,,0.74972,1,,,,,,100,WORD,"ID",16,carbon,CARBON,m,,,,,,-0.134259248,0.237962959,0,0,0,,0,104,104,99,1
,,,,,,,,,,,,,,,,,,5f243ced1993820009875c12,2020-11-25_16h36.09.381,lexical_decision_task_MP_exp2,2020.2.5,Win32,60,z,1,1.153915,,,,,,,,1.153915,1,,,,,,475,NW,UN,16,robuly,PEBRIC,z,,,,,,-0.134259248,0.237962959,0,0,0,,0,105,105,474,1
,,,,,,,,,,,,,,,,,,5f243ced1993820009875c12,2020-11-25_16h36.09.381,lexical_decision_task_MP_exp2,2020.2.5,Win32,60,z,1,1.09564,,,,,,,,1.09564,1,,,,,,356,NW,"ID",16,othnis,OTHNIS,z,,,,,,-0.134259248,0.237962959,0,0,0,,0,106,106,355,1
,,,,,,,,,,,,,,,,,,5f243ced1993820009875c12,2020-11-25_16h36.09.381,lexical_decision_task_MP_exp2,2020.2.5,Win32,60,m,1,0.679285,,,,,,,,0.679285,1,,,,,,157,WORD,UN,33,island,DRAGON,m,,,,,,-0.134259248,0.237962959,0,0,0,,0,107,107,156,1
,,,,,,,,,,,,,,,,,,5f243ced1993820009875c12,2020-11-25_16h36.09.381,lexical_decision_task_MP_exp2,2020.2.5,Win32,60,m,1,0.598315,,,,,,,,0.598315,1,,,,,,193,WORD,UN,16,plague,OBJECT,m,,,,,,-0.134259248,0.237962959,0,0,0,,0,108,108,192,1
,,,,,,,,,,,,,,,,,,5f243ced1993820009875c12,2020-11-25_16h36.09.381,lexical_decision_task_MP_exp2,2020.2.5,Win32,60,m,1,0.993725,,,,,,,,0.993725,1,,,,,,57,WORD,"ID",33,change,CHANGE,m,,,,,,-0.134259248,0.237962959,0,0,0,,0,109,109,56,1
,,,,,,,,,,,,,,,,,,5f243ced1993820009875c12,2020-11-25_16h36.09.381,lexical_decision_task_MP_exp2,2020.2.5,Win32,60,z,1,1.000255,,,,,,,,1.000255,1,,,,,,432,NW,UN,16,drance,LUNKER,z,,,,,,-0.134259248,0.237962959,0,0,0,,0,110,110,431,1
,,,,,,,,,,,,,,,,,,5f243ced1993820009875c12,2020-11-25_16h36.09.381,lexical_decision_task_MP_exp2,2020.2.5,Win32,60,m,1,0.84765,,,,,,,,0.84765,1,,,,,,20,WORD,"ID",33,breast,BREAST,m,,,,,,-0.134259248,0.237962959,0,0,0,,0,111,111,19,1
,,,,,,,,,,,,,,,,,,5f243ced1993820009875c12,2020-11-25_16h36.09.381,lexical_decision_task_MP_exp2,2020.2.5,Win32,60,m,1,0.61378,,,,,,,,0.61378,1,,,,,,179,WORD,UN,33,silent,BASKET,m,,,,,,-0.134259248,0.237962959,0,0,0,,0,112,112,178,1
,,,,,,,,,,,,,,,,,,5f243ced1993820009875c12,2020-11-25_16h36.09.381,lexical_decision_task_MP_exp2,2020.2.5,Win32,60,m,1,0.66649,,,,,,,,0.66649,1,,,,,,84,WORD,"ID",16,mortal,MORTAL,m,,,,,,-0.134259248,0.237962959,0,0,0,,0,113,113,83,1
,,,,,,,,,,,,,,,,,,5f243ced1993820009875c12,2020-11-25_16h36.09.381,lexical_decision_task_MP_exp2,2020.2.5,Win32,60,m,1,0.704635,,,,,,,,0.704635,1,,,,,,48,WORD,"ID",33,walnut,WALNUT,m,,,,,,-0.134259248,0.237962959,0,0,0,,0,114,114,47,1
,,,,,,,,,,,,,,,,,,5f243ced1993820009875c12,2020-11-25_16h36.09.381,lexical_decision_task_MP_exp2,2020.2.5,Win32,60,m,1,0.545715,,,,,,,,0.545715,1,,,,,,224,WORD,UN,16,vulgar,PERIOD,m,,,,,,-0.134259248,0.237962959,0,0,0,,0,115,115,223,1
,,,,,,,,,,,,,,,,,,5f243ced1993820009875c12,2020-11-25_16h36.09.381,lexical_decision_task_MP_exp2,2020.2.5,Win32,60,z,1,1.213905,,,,,,,,1.213905,1,,,,,,429,NW,UN,16,caroey,FUNTLE,z,,,,,,-0.134259248,0.237962959,0,0,0,,0,116,116,428,1
,,,,,,,,,,,,,,,,,,5f243ced1993820009875c12,2020-11-25_16h36.09.381,lexical_decision_task_MP_exp2,2020.2.5,Win32,60,m,1,0.533625,,,,,,,,0.533625,1,,,,,,98,WORD,"ID",16,belong,BELONG,m,,,,,,-0.134259248,0.237962959,0,0,0,,0,117,117,97,1
,,,,,,,,,,,,,,,,,,5f243ced1993820009875c12,2020-11-25_16h36.09.381,lexical_decision_task_MP_exp2,2020.2.5,Win32,60,m,1,1.31238,,,,,,,,1.31238,1,,,,,,143,WORD,UN,33,sponge,REASON,m,,,,,,-0.134259248,0.237962959,0,0,0,,0,118,118,142,1
,,,,,,,,,,,,,,,,,,5f243ced1993820009875c12,2020-11-25_16h36.09.381,lexical_decision_task_MP_exp2,2020.2.5,Win32,60,m,1,0.61782,,,,,,,,0.61782,1,,,,,,128,WORD,UN,33,marvel,SENIOR,m,,,,,,-0.134259248,0.237962959,0,0,0,,0,119,119,127,1
,,,,,,,,,,,,,,,,,,5f243ced1993820009875c12,2020-11-25_16h36.09.381,lexical_decision_task_MP_exp2,2020.2.5,Win32,60,z,1,1.1397,,,,,,,,1.1397,1,,,,,,339,NW,"ID",16,fachow,FACHOW,z,,,,,,-0.134259248,0.237962959,0,0,0,,0,120,120,338,1
,,,,,,,,,,,,,,,,,,5f243ced1993820009875c12,2020-11-25_16h36.09.381,lexical_decision_task_MP_exp2,2020.2.5,Win32,60,z,1,0.644485,,,,,,,,0.644485,1,,,,,,329,NW,"ID",16,yarike,YARIKE,z,,,,,,-0.134259248,0.237962959,0,0,0,,0,121,121,328,1
,,,,,,,,,,,,,,,,,,5f243ced1993820009875c12,2020-11-25_16h36.09.381,lexical_decision_task_MP_exp2,2020.2.5,Win32,60,m,1,0.712555,,,,,,,,0.712555,1,,,,,,120,WORD,"ID",16,strain,STRAIN,m,,,,,,-0.134259248,0.237962959,0,0,0,,0,122,122,119,1
,,,,,,,,,,,,,,,,,,5f243ced1993820009875c12,2020-11-25_16h36.09.381,lexical_decision_task_MP_exp2,2020.2.5,Win32,60,m,1,0.798735,,,,,,,,0.798735,1,,,,,,81,WORD,"ID",16,friend,FRIEND,m,,,,,,-0.134259248,0.237962959,0,0,0,,0,123,123,80,1
,,,,,,,,,,,,,,,,,,5f243ced1993820009875c12,2020-11-25_16h36.09.381,lexical_decision_task_MP_exp2,2020.2.5,Win32,60,z,1,0.611675,,,,,,,,0.611675,1,,,,,,477,NW,UN,16,acrise,PHOTIE,z,,,,,,-0.134259248,0.237962959,0,0,0,,0,124,124,476,1
,,,,,,,,,,,,,,,,,,5f243ced1993820009875c12,2020-11-25_16h36.09.381,lexical_decision_task_MP_exp2,2020.2.5,Win32,60,z,1,0.66345,,,,,,,,0.66345,1,,,,,,406,NW,UN,33,suiver,NOUPLY,z,,,,,,-0.134259248,0.237962959,0,0,0,,0,125,125,405,1
,,,,,,,,,,,,,,,,,,5f243ced1993820009875c12,2020-11-25_16h36.09.381,lexical_decision_task_MP_exp2,2020.2.5,Win32,60,z,1,0.589635,,,,,,,,0.589635,1,,,,,,313,NW,"ID",16,paurse,PAURSE,z,,,,,,-0.134259248,0.237962959,0,0,0,,0,126,126,312,1
,,,,,,,,,,,,,,,,,,5f243ced1993820009875c12,2020-11-25_16h36.09.381,lexical_decision_task_MP_exp2,2020.2.5,Win32,60,m,1,0.670185,,,,,,,,0.670185,1,,,,,,206,WORD,UN,16,wreath,TAILOR,m,,,,,,-0.134259248,0.237962959,0,0,0,,0,127,127,205,1
,,,,,,,,,,,,,,,,,,5f243ced1993820009875c12,2020-11-25_16h36.09.381,lexical_decision_task_MP_exp2,2020.2.5,Win32,60,m,1,0.870515,,,,,,,,0.870515,1,,,,,,199,WORD,UN,16,beacon,INVOKE,m,,,,,,-0.134259248,0.237962959,0,0,0,,0,128,128,198,1
,,,,,,,,,,,,,,,,,,5f243ced1993820009875c12,2020-11-25_16h36.09.381,lexical_decision_task_MP_exp2,2020.2.5,Win32,60,m,1,0.54643,,,,,,,,0.54643,1,,,,,,196,WORD,UN,16,stream,CREDIT,m,,,,,,-0.134259248,0.237962959,0,0,0,,0,129,129,195,1
,,,,,,,,,,,,,,,,,,5f243ced1993820009875c12,2020-11-25_16h36.09.381,lexical_decision_task_MP_exp2,2020.2.5,Win32,60,m,1,0.846195,,,,,,,,0.846195,1,,,,,,135,WORD,UN,33,chrome,IMPORT,m,,,,,,-0.134259248,0.237962959,0,0,0,,0,130,130,134,1
,,,,,,,,,,,,,,,,,,5f243ced1993820009875c12,2020-11-25_16h36.09.381,lexical_decision_task_MP_exp2,2020.2.5,Win32,60,m,1,0.678485,,,,,,,,0.678485,1,,,,,,13,WORD,"ID",33,strive,STRIVE,m,,,,,,-0.134259248,0.237962959,0,0,0,,0,131,131,12,1
,,,,,,,,,,,,,,,,,,5f243ced1993820009875c12,2020-11-25_16h36.09.381,lexical_decision_task_MP_exp2,2020.2.5,Win32,60,z,1,0.700775,,,,,,,,0.700775,1,,,,,,415,NW,UN,33,pathel,HIGSTA,z,,,,,,-0.134259248,0.237962959,0,0,0,,0,132,132,414,1
,,,,,,,,,,,,,,,,,,5f243ced1993820009875c12,2020-11-25_16h36.09.381,lexical_decision_task_MP_exp2,2020.2.5,Win32,60,m,1,0.770625,,,,,,,,0.770625,1,,,,,,124,WORD,UN,33,nickel,BLOUSE,m,,,,,,-0.134259248,0.237962959,0,0,0,,0,133,133,123,1
,,,,,,,,,,,,,,,,,,5f243ced1993820009875c12,2020-11-25_16h36.09.381,lexical_decision_task_MP_exp2,2020.2.5,Win32,60,z,1,0.78047,,,,,,,,0.78047,1,,,,,,264,NW,"ID",33,vackel,VACKEL,z,,,,,,-0.134259248,0.237962959,0,0,0,,0,134,134,263,1
,,,,,,,,,,,,,,,,,,5f243ced1993820009875c12,2020-11-25_16h36.09.381,lexical_decision_task_MP_exp2,2020.2.5,Win32,60,m,1,0.531295,,,,,,,,0.531295,1,,,,,,163,WORD,UN,33,market,STRING,m,,,,,,-0.134259248,0.237962959,0,0,0,,0,135,135,162,1
,,,,,,,,,,,,,,,,,,5f243ced1993820009875c12,2020-11-25_16h36.09.381,lexical_decision_task_MP_exp2,2020.2.5,Win32,60,z,1,0.62083,,,,,,,,0.62083,1,,,,,,252,NW,"ID",33,stapod,STAPOD,z,,,,,,-0.134259248,0.237962959,0,0,0,,0,136,136,251,1
,,,,,,,,,,,,,,,,,,5f243ced1993820009875c12,2020-11-25_16h36.09.381,lexical_decision_task_MP_exp2,2020.2.5,Win32,60,z,1,0.7554,,,,,,,,0.7554,1,,,,,,273,NW,"ID",33,sortel,SORTEL,z,,,,,,-0.134259248,0.237962959,0,0,0,,0,137,137,272,1
,,,,,,,,,,,,,,,,,,5f243ced1993820009875c12,2020-11-25_16h36.09.381,lexical_decision_task_MP_exp2,2020.2.5,Win32,60,m,1,0.53662,,,,,,,,0.53662,1,,,,,,153,WORD,UN,33,author,BEHOLD,m,,,,,,-0.134259248,0.237962959,0,0,0,,0,138,138,152,1
,,,,,,,,,,,,,,,,,,5f243ced1993820009875c12,2020-11-25_16h36.09.381,lexical_decision_task_MP_exp2,2020.2.5,Win32,60,z,1,0.93137,,,,,,,,0.93137,1,,,,,,297,NW,"ID",33,fertic,FERTIC,z,,,,,,-0.134259248,0.237962959,0,0,0,,0,139,139,296,1
,,,,,,,,,,,,,,,,,,5f243ced1993820009875c12,2020-11-25_16h36.09.381,lexical_decision_task_MP_exp2,2020.2.5,Win32,60,z,1,0.78041,,,,,,,,0.78041,1,,,,,,275,NW,"ID",33,sleirt,SLEIRT,z,,,,,,-0.134259248,0.237962959,0,0,0,,0,140,140,274,1
,,,,,,,,,,,,,,,,,,5f243ced1993820009875c12,2020-11-25_16h36.09.381,lexical_decision_task_MP_exp2,2020.2.5,Win32,60,m,0,0.53232,,,,,,,,0.53232,0,,,,,,452,NW,UN,16,bolvis,SURDEN,z,,,,,,-0.134259248,0.237962959,0,0,0,,0,141,141,451,1
,,,,,,,,,,,,,,,,,,5f243ced1993820009875c12,2020-11-25_16h36.09.381,lexical_decision_task_MP_exp2,2020.2.5,Win32,60,z,0,1.1663,,,,,,,,1.1663,0,,,,,,145,WORD,UN,33,couple,PARISH,m,,,,,,-0.134259248,0.237962959,0,0,0,,0,142,142,144,1
,,,,,,,,,,,,,,,,,,5f243ced1993820009875c12,2020-11-25_16h36.09.381,lexical_decision_task_MP_exp2,2020.2.5,Win32,60,z,1,0.63041,,,,,,,,0.63041,1,,,,,,288,NW,"ID",33,yaceup,YACEUP,z,,,,,,-0.134259248,0.237962959,0,0,0,,0,143,143,287,1
,,,,,,,,,,,,,,,,,,5f243ced1993820009875c12,2020-11-25_16h36.09.381,lexical_decision_task_MP_exp2,2020.2.5,Win32,60,m,1,0.55484,,,,,,,,0.55484,1,,,,,,97,WORD,"ID",16,client,CLIENT,m,,,,,,-0.134259248,0.237962959,0,0,0,,0,144,144,96,1
,,,,,,,,,,,,,,,,,,5f243ced1993820009875c12,2020-11-25_16h36.09.381,lexical_decision_task_MP_exp2,2020.2.5,Win32,60,z,1,0.646515,,,,,,,,0.646515,1,,,,,,434,NW,UN,16,impurb,PITROM,z,,,,,,-0.134259248,0.237962959,0,0,0,,0,145,145,433,1
,,,,,,,,,,,,,,,,,,5f243ced1993820009875c12,2020-11-25_16h36.09.381,lexical_decision_task_MP_exp2,2020.2.5,Win32,60,z,1,0.697035,,,,,,,,0.697035,1,,,,,,414,NW,UN,33,higsta,SERBOL,z,,,,,,-0.134259248,0.237962959,0,0,0,,0,146,146,413,1
,,,,,,,,,,,,,,,,,,5f243ced1993820009875c12,2020-11-25_16h36.09.381,lexical_decision_task_MP_exp2,2020.2.5,Win32,60,z,1,0.76287,,,,,,,,0.76287,1,,,,,,318,NW,"ID",16,reagly,REAGLY,z,,,,,,-0.134259248,0.237962959,0,0,0,,0,147,147,317,1
,,,,,,,,,,,,,,,,,,5f243ced1993820009875c12,2020-11-25_16h36.09.381,lexical_decision_task_MP_exp2,2020.2.5,Win32,60,z,1,0.64774,,,,,,,,0.64774,1,,,,,,283,NW,"ID",33,veralf,VERALF,z,,,,,,-0.134259248,0.237962959,0,0,0,,0,148,148,282,1
,,,,,,,,,,,,,,,,,,5f243ced1993820009875c12,2020-11-25_16h36.09.381,lexical_decision_task_MP_exp2,2020.2.5,Win32,60,z,1,0.655555,,,,,,,,0.655555,1,,,,,,291,NW,"ID",33,pretch,PRETCH,z,,,,,,-0.134259248,0.237962959,0,0,0,,0,149,149,290,1
,,,,,,,,,,,,,,,,,,5f243ced1993820009875c12,2020-11-25_16h36.09.381,lexical_decision_task_MP_exp2,2020.2.5,Win32,60,m,1,0.620595,,,,,,,,0.620595,1,,,,,,71,WORD,"ID",16,garden,GARDEN,m,,,,,,-0.134259248,0.237962959,0,0,0,,0,150,150,70,1
,,,,,,,,,,,,,,,,,,5f243ced1993820009875c12,2020-11-25_16h36.09.381,lexical_decision_task_MP_exp2,2020.2.5,Win32,60,m,1,0.796745,,,,,,,,0.796745,1,,,,,,230,WORD,UN,16,export,FRINGE,m,,,,,,-0.134259248,0.237962959,0,0,0,,0,151,151,229,1
,,,,,,,,,,,,,,,,,,5f243ced1993820009875c12,2020-11-25_16h36.09.381,lexical_decision_task_MP_exp2,2020.2.5,Win32,60,m,1,0.863445,,,,,,,,0.863445,1,,,,,,91,WORD,"ID",16,expand,EXPAND,m,,,,,,-0.134259248,0.237962959,0,0,0,,0,152,152,90,1
,,,,,,,,,,,,,,,,,,5f243ced1993820009875c12,2020-11-25_16h36.09.381,lexical_decision_task_MP_exp2,2020.2.5,Win32,60,z,1,0.730435,,,,,,,,0.730435,1,,,,,,271,NW,"ID",33,aubrid,AUBRID,z,,,,,,-0.134259248,0.237962959,0,0,0,,0,153,153,270,1
,,,,,,,,,,,,,,,,,,5f243ced1993820009875c12,2020-11-25_16h36.09.381,lexical_decision_task_MP_exp2,2020.2.5,Win32,60,z,1,0.97947,,,,,,,,0.97947,1,,,,,,341,NW,"ID",16,myrtie,MYRTIE,z,,,,,,-0.134259248,0.237962959,0,0,0,,0,154,154,340,1
,,,,,,,,,,,,,,,,,,5f243ced1993820009875c12,2020-11-25_16h36.09.381,lexical_decision_task_MP_exp2,2020.2.5,Win32,60,m,1,0.83111,,,,,,,,0.83111,1,,,,,,239,WORD,UN,16,forest,LUMBER,m,,,,,,-0.134259248,0.237962959,0,0,0,,0,155,155,238,1
,,,,,,,,,,,,,,,,,,5f243ced1993820009875c12,2020-11-25_16h36.09.381,lexical_decision_task_MP_exp2,2020.2.5,Win32,60,m,1,0.681585,,,,,,,,0.681585,1,,,,,,3,WORD,"ID",33,knight,KNIGHT,m,,,,,,-0.134259248,0.237962959,0,0,0,,0,156,156,2,1
,,,,,,,,,,,,,,,,,,5f243ced1993820009875c12,2020-11-25_16h36.09.381,lexical_decision_task_MP_exp2,2020.2.5,Win32,60,z,1,0.73006,,,,,,,,0.73006,1,,,,,,359,NW,"ID",16,fonver,FONVER,z,,,,,,-0.134259248,0.237962959,0,0,0,,0,157,157,358,1
,,,,,,,,,,,,,,,,,,5f243ced1993820009875c12,2020-11-25_16h36.09.381,lexical_decision_task_MP_exp2,2020.2.5,Win32,60,m,1,0.659225,,,,,,,,0.659225,1,,,,,,150,WORD,UN,33,mystic,RANDOM,m,,,,,,-0.134259248,0.237962959,0,0,0,,0,158,158,149,1
,,,,,,,,,,,,,,,,,,5f243ced1993820009875c12,2020-11-25_16h36.09.381,lexical_decision_task_MP_exp2,2020.2.5,Win32,60,m,1,0.701465,,,,,,,,0.701465,1,,,,,,141,WORD,UN,33,spruce,ORPHAN,m,,,,,,-0.134259248,0.237962959,0,0,0,,0,159,159,140,1
,,,,,,,,,,,,,,,,,,5f243ced1993820009875c12,2020-11-25_16h36.09.381,lexical_decision_task_MP_exp2,2020.2.5,Win32,60,z,1,0.682185,,,,,,,,0.682185,1,,,,,,270,NW,"ID",33,wrimsy,WRIMSY,z,,,,,,-0.134259248,0.237962959,0,0,0,,0,160,160,269,1
,,,,,,,,,,,,,,,,,,5f243ced1993820009875c12,2020-11-25_16h36.09.381,lexical_decision_task_MP_exp2,2020.2.5,Win32,60,m,1,1.081505,,,,,,,,1.081505,1,,,,,,148,WORD,UN,33,invade,CUSTOM,m,,,,,,-0.134259248,0.237962959,0,0,0,,0,161,161,147,1
,,,,,,,,,,,,,,,,,,5f243ced1993820009875c12,2020-11-25_16h36.09.381,lexical_decision_task_MP_exp2,2020.2.5,Win32,60,m,1,0.763775,,,,,,,,0.763775,1,,,,,,42,WORD,"ID",33,chapel,CHAPEL,m,,,,,,-0.134259248,0.237962959,0,0,0,,0,162,162,41,1
,,,,,,,,,,,,,,,,,,5f243ced1993820009875c12,2020-11-25_16h36.09.381,lexical_decision_task_MP_exp2,2020.2.5,Win32,60,m,1,0.53299,,,,,,,,0.53299,1,,,,,,147,WORD,UN,33,custom,GARLIC,m,,,,,,-0.134259248,0.237962959,0,0,0,,0,163,163,146,1
,,,,,,,,,,,,,,,,,,5f243ced1993820009875c12,2020-11-25_16h36.09.381,lexical_decision_task_MP_exp2,2020.2.5,Win32,60,z,1,0.608855,,,,,,,,0.608855,1,,,,,,387,NW,UN,33,cragin,GRONCE,z,,,,,,-0.134259248,0.237962959,0,0,0,,0,164,164,386,1
,,,,,,,,,,,,,,,,,,5f243ced1993820009875c12,2020-11-25_16h36.09.381,lexical_decision_task_MP_exp2,2020.2.5,Win32,60,m,1,0.7831,,,,,,,,0.7831,1,,,,,,46,WORD,"ID",33,single,SINGLE,m,,,,,,-0.134259248,0.237962959,0,0,0,,0,165,165,45,1
,,,,,,,,,,,,,,,,,,5f243ced1993820009875c12,2020-11-25_16h36.09.381,lexical_decision_task_MP_exp2,2020.2.5,Win32,60,m,1,0.81278,,,,,,,,0.81278,1,,,,,,107,WORD,"ID",16,slogan,SLOGAN,m,,,,,,-0.134259248,0.237962959,0,0,0,,0,166,166,106,1
,,,,,,,,,,,,,,,,,,5f243ced1993820009875c12,2020-11-25_16h36.09.381,lexical_decision_task_MP_exp2,2020.2.5,Win32,60,m,1,0.511705,,,,,,,,0.511705,1,,,,,,216,WORD,UN,16,liquor,BEHALF,m,,,,,,-0.134259248,0.237962959,0,0,0,,0,167,167,215,1
,,,,,,,,,,,,,,,,,,5f243ced1993820009875c12,2020-11-25_16h36.09.381,lexical_decision_task_MP_exp2,2020.2.5,Win32,60,z,1,0.75008,,,,,,,,0.75008,1,,,,,,323,NW,"ID",16,rosail,ROSAIL,z,,,,,,-0.134259248,0.237962959,0,0,0,,0,168,168,322,1
,,,,,,,,,,,,,,,,,,5f243ced1993820009875c12,2020-11-25_16h36.09.381,lexical_decision_task_MP_exp2,2020.2.5,Win32,60,z,1,0.95464,,,,,,,,0.95464,1,,,,,,407,NW,UN,33,hurnia,SUIVER,z,,,,,,-0.134259248,0.237962959,0,0,0,,0,169,169,406,1
,,,,,,,,,,,,,,,,,,5f243ced1993820009875c12,2020-11-25_16h36.09.381,lexical_decision_task_MP_exp2,2020.2.5,Win32,60,z,1,0.7301,,,,,,,,0.7301,1,,,,,,300,NW,"ID",33,yarion,YARION,z,,,,,,-0.134259248,0.237962959,0,0,0,,0,170,170,299,1
,,,,,,,,,,,,,,,,,,5f243ced1993820009875c12,2020-11-25_16h36.09.381,lexical_decision_task_MP_exp2,2020.2.5,Win32,60,z,1,0.836765,,,,,,,,0.836765,1,,,,,,253,NW,"ID",33,resait,RESAIT,z,,,,,,-0.134259248,0.237962959,0,0,0,,0,171,171,252,1
,,,,,,,,,,,,,,,,,,5f243ced1993820009875c12,2020-11-25_16h36.09.381,lexical_decision_task_MP_exp2,2020.2.5,Win32,60,z,1,0.818775,,,,,,,,0.818775,1,,,,,,284,NW,"ID",33,shaple,SHAPLE,z,,,,,,-0.134259248,0.237962959,0,0,0,,0,172,172,283,1
,,,,,,,,,,,,,,,,,,5f243ced1993820009875c12,2020-11-25_16h36.09.381,lexical_decision_task_MP_exp2,2020.2.5,Win32,60,m,1,0.65226,,,,,,,,0.65226,1,,,,,,173,WORD,UN,33,turkey,SHOWER,m,,,,,,-0.134259248,0.237962959,0,0,0,,0,173,173,172,1
,,,,,,,,,,,,,,,,,,5f243ced1993820009875c12,2020-11-25_16h36.09.381,lexical_decision_task_MP_exp2,2020.2.5,Win32,60,z,1,0.7907,,,,,,,,0.7907,1,,,,,,389,NW,UN,33,hatrus,WITMER,z,,,,,,-0.134259248,0.237962959,0,0,0,,0,174,174,388,1
,,,,,,,,,,,,,,,,,,5f243ced1993820009875c12,2020-11-25_16h36.09.381,lexical_decision_task_MP_exp2,2020.2.5,Win32,60,z,1,0.93408,,,,,,,,0.93408,1,,,,,,357,NW,"ID",16,derain,DERAIN,z,,,,,,-0.134259248,0.237962959,0,0,0,,0,175,175,356,1
,,,,,,,,,,,,,,,,,,5f243ced1993820009875c12,2020-11-25_16h36.09.381,lexical_decision_task_MP_exp2,2020.2.5,Win32,60,m,1,0.60008,,,,,,,,0.60008,1,,,,,,22,WORD,"ID",33,jockey,JOCKEY,m,,,,,,-0.134259248,0.237962959,0,0,0,,0,176,176,21,1
,,,,,,,,,,,,,,,,,,5f243ced1993820009875c12,2020-11-25_16h36.09.381,lexical_decision_task_MP_exp2,2020.2.5,Win32,60,m,1,0.580345,,,,,,,,0.580345,1,,,,,,53,WORD,"ID",33,police,POLICE,m,,,,,,-0.134259248,0.237962959,0,0,0,,0,177,177,52,1
,,,,,,,,,,,,,,,,,,5f243ced1993820009875c12,2020-11-25_16h36.09.381,lexical_decision_task_MP_exp2,2020.2.5,Win32,60,z,1,0.851905,,,,,,,,0.851905,1,,,,,,304,NW,"ID",16,cludie,CLUDIE,z,,,,,,-0.134259248,0.237962959,0,0,0,,0,178,178,303,1
,,,,,,,,,,,,,,,,,,5f243ced1993820009875c12,2020-11-25_16h36.09.381,lexical_decision_task_MP_exp2,2020.2.5,Win32,60,m,1,0.676915,,,,,,,,0.676915,1,,,,,,87,WORD,"ID",16,filter,FILTER,m,,,,,,-0.134259248,0.237962959,0,0,0,,0,179,179,86,1
,,,,,,,,,,,,,,,,,,5f243ced1993820009875c12,2020-11-25_16h36.09.381,lexical_decision_task_MP_exp2,2020.2.5,Win32,60,z,1,0.60267,,,,,,,,0.60267,1,,,,,,374,NW,UN,33,yorque,SLIANT,z,,,,,,-0.134259248,0.237962959,0,0,0,,0,180,180,373,1
,,,,,,,,,,,,,,,,,,5f243ced1993820009875c12,2020-11-25_16h36.09.381,lexical_decision_task_MP_exp2,2020.2.5,Win32,60,m,1,0.636005,,,,,,,,0.636005,1,,,,,,113,WORD,"ID",16,chorus,CHORUS,m,,,,,,-0.134259248,0.237962959,0,0,0,,0,181,181,112,1
,,,,,,,,,,,,,,,,,,5f243ced1993820009875c12,2020-11-25_16h36.09.381,lexical_decision_task_MP_exp2,2020.2.5,Win32,60,m,1,0.869215,,,,,,,,0.869215,1,,,,,,202,WORD,UN,16,phrase,FACTOR,m,,,,,,-0.134259248,0.237962959,0,0,0,,0,182,182,201,1
,,,,,,,,,,,,,,,,,,5f243ced1993820009875c12,2020-11-25_16h36.09.381,lexical_decision_task_MP_exp2,2020.2.5,Win32,60,z,1,0.890185,,,,,,,,0.890185,1,,,,,,346,NW,"ID",16,saudic,SAUDIC,z,,,,,,-0.134259248,0.237962959,0,0,0,,0,183,183,345,1
,,,,,,,,,,,,,,,,,,5f243ced1993820009875c12,2020-11-25_16h36.09.381,lexical_decision_task_MP_exp2,2020.2.5,Win32,60,m,1,0.77953,,,,,,,,0.77953,1,,,,,,12,WORD,"ID",33,orange,ORANGE,m,,,,,,-0.134259248,0.237962959,0,0,0,,0,184,184,11,1
,,,,,,,,,,,,,,,,,,5f243ced1993820009875c12,2020-11-25_16h36.09.381,lexical_decision_task_MP_exp2,2020.2.5,Win32,60,m,1,1.20207,,,,,,,,1.20207,1,,,,,,101,WORD,"ID",16,wrench,WRENCH,m,,,,,,-0.134259248,0.237962959,0,0,0,,0,185,185,100,1
,,,,,,,,,,,,,,,,,,5f243ced1993820009875c12,2020-11-25_16h36.09.381,lexical_decision_task_MP_exp2,2020.2.5,Win32,60,m,1,0.67574,,,,,,,,0.67574,1,,,,,,41,WORD,"ID",33,spring,SPRING,m,,,,,,-0.134259248,0.237962959,0,0,0,,0,186,186,40,1
,,,,,,,,,,,,,,,,,,5f243ced1993820009875c12,2020-11-25_16h36.09.381,lexical_decision_task_MP_exp2,2020.2.5,Win32,60,z,1,0.82696,,,,,,,,0.82696,1,,,,,,259,NW,"ID",33,soudal,SOUDAL,z,,,,,,-0.134259248,0.237962959,0,0,0,,0,187,187,258,1
,,,,,,,,,,,,,,,,,,5f243ced1993820009875c12,2020-11-25_16h36.09.381,lexical_decision_task_MP_exp2,2020.2.5,Win32,60,z,1,0.59037,,,,,,,,0.59037,1,,,,,,391,NW,UN,33,rouncy,THELDY,z,,,,,,-0.134259248,0.237962959,0,0,0,,0,188,188,390,1
,,,,,,,,,,,,,,,,,,5f243ced1993820009875c12,2020-11-25_16h36.09.381,lexical_decision_task_MP_exp2,2020.2.5,Win32,60,m,1,1.027705,,,,,,,,1.027705,1,,,,,,70,WORD,"ID",16,square,SQUARE,m,,,,,,-0.134259248,0.237962959,0,0,0,,0,189,189,69,1
,,,,,,,,,,,,,,,,,,5f243ced1993820009875c12,2020-11-25_16h36.09.381,lexical_decision_task_MP_exp2,2020.2.5,Win32,60,m,1,0.852575,,,,,,,,0.852575,1,,,,,,212,WORD,UN,16,squeal,VERIFY,m,,,,,,-0.134259248,0.237962959,0,0,0,,0,190,190,211,1
,,,,,,,,,,,,,,,,,,5f243ced1993820009875c12,2020-11-25_16h36.09.381,lexical_decision_task_MP_exp2,2020.2.5,Win32,60,z,1,0.62761,,,,,,,,0.62761,1,,,,,,327,NW,"ID",16,plenac,PLENAC,z,,,,,,-0.134259248,0.237962959,0,0,0,,0,191,191,326,1
,,,,,,,,,,,,,,,,,,5f243ced1993820009875c12,2020-11-25_16h36.09.381,lexical_decision_task_MP_exp2,2020.2.5,Win32,60,m,1,0.74694,,,,,,,,0.74694,1,,,,,,90,WORD,"ID",16,relish,RELISH,m,,,,,,-0.134259248,0.237962959,0,0,0,,0,192,192,89,1
,,,,,,,,,,,,,,,,,,5f243ced1993820009875c12,2020-11-25_16h36.09.381,lexical_decision_task_MP_exp2,2020.2.5,Win32,60,m,1,0.65949,,,,,,,,0.65949,1,,,,,,229,WORD,UN,16,fringe,MOTHER,m,,,,,,-0.134259248,0.237962959,0,0,0,,0,193,193,228,1
,,,,,,,,,,,,,,,,,,5f243ced1993820009875c12,2020-11-25_16h36.09.381,lexical_decision_task_MP_exp2,2020.2.5,Win32,60,m,1,0.594435,,,,,,,,0.594435,1,,,,,,168,WORD,UN,33,genius,ANSWER,m,,,,,,-0.134259248,0.237962959,0,0,0,,0,194,194,167,1
,,,,,,,,,,,,,,,,,,5f243ced1993820009875c12,2020-11-25_16h36.09.381,lexical_decision_task_MP_exp2,2020.2.5,Win32,60,m,1,0.46843,,,,,,,,0.46843,1,,,,,,185,WORD,UN,16,portal,BOTHER,m,,,,,,-0.134259248,0.237962959,0,0,0,,0,195,195,184,1
,,,,,,,,,,,,,,,,,,5f243ced1993820009875c12,2020-11-25_16h36.09.381,lexical_decision_task_MP_exp2,2020.2.5,Win32,60,m,1,0.48486,,,,,,,,0.48486,1,,,,,,68,WORD,"ID",16,fumble,FUMBLE,m,,,,,,-0.134259248,0.237962959,0,0,0,,0,196,196,67,1
,,,,,,,,,,,,,,,,,,5f243ced1993820009875c12,2020-11-25_16h36.09.381,lexical_decision_task_MP_exp2,2020.2.5,Win32,60,m,1,0.441715,,,,,,,,0.441715,1,,,,,,103,WORD,"ID",16,bounce,BOUNCE,m,,,,,,-0.134259248,0.237962959,0,0,0,,0,197,197,102,1
,,,,,,,,,,,,,,,,,,5f243ced1993820009875c12,2020-11-25_16h36.09.381,lexical_decision_task_MP_exp2,2020.2.5,Win32,60,m,1,0.544325,,,,,,,,0.544325,1,,,,,,6,WORD,"ID",33,bundle,BUNDLE,m,,,,,,-0.134259248,0.237962959,0,0,0,,0,198,198,5,1
,,,,,,,,,,,,,,,,,,5f243ced1993820009875c12,2020-11-25_16h36.09.381,lexical_decision_task_MP_exp2,2020.2.5,Win32,60,m,1,1.001855,,,,,,,,1.001855,1,,,,,,214,WORD,UN,16,phobia,INTAKE,m,,,,,,-0.134259248,0.237962959,0,0,0,,0,199,199,213,1
,,,,,,,,,,,,,,,,,,5f243ced1993820009875c12,2020-11-25_16h36.09.381,lexical_decision_task_MP_exp2,2020.2.5,Win32,60,z,1,0.67043,,,,,,,,0.67043,1,,,,,,337,NW,"ID",16,rejols,REJOLS,z,,,,,,-0.134259248,0.237962959,0,0,0,,0,200,200,336,1
,,,,,,,,,,,,,,,,,,5f243ced1993820009875c12,2020-11-25_16h36.09.381,lexical_decision_task_MP_exp2,2020.2.5,Win32,60,z,1,0.4181,,,,,,,,0.4181,1,,,,,,289,NW,"ID",33,starby,STARBY,z,,,,,,-0.134259248,0.237962959,0,0,0,,0,201,201,288,1
,,,,,,,,,,,,,,,,,,5f243ced1993820009875c12,2020-11-25_16h36.09.381,lexical_decision_task_MP_exp2,2020.2.5,Win32,60,m,1,0.8941,,,,,,,,0.8941,1,,,,,,110,WORD,"ID",16,polite,POLITE,m,,,,,,-0.134259248,0.237962959,0,0,0,,0,202,202,109,1
,,,,,,,,,,,,,,,,,,5f243ced1993820009875c12,2020-11-25_16h36.09.381,lexical_decision_task_MP_exp2,2020.2.5,Win32,60,z,1,0.619235,,,,,,,,0.619235,1,,,,,,312,NW,"ID",16,nerawl,NERAWL,z,,,,,,-0.134259248,0.237962959,0,0,0,,0,203,203,311,1
,,,,,,,,,,,,,,,,,,5f243ced1993820009875c12,2020-11-25_16h36.09.381,lexical_decision_task_MP_exp2,2020.2.5,Win32,60,z,1,0.941035,,,,,,,,0.941035,1,,,,,,424,NW,UN,16,urivel,PRAILE,z,,,,,,-0.134259248,0.237962959,0,0,0,,0,204,204,423,1
,,,,,,,,,,,,,,,,,,5f243ced1993820009875c12,2020-11-25_16h36.09.381,lexical_decision_task_MP_exp2,2020.2.5,Win32,60,m,1,0.569285,,,,,,,,0.569285,1,,,,,,14,WORD,"ID",33,almost,ALMOST,m,,,,,,-0.134259248,0.237962959,0,0,0,,0,205,205,13,1
,,,,,,,,,,,,,,,,,,5f243ced1993820009875c12,2020-11-25_16h36.09.381,lexical_decision_task_MP_exp2,2020.2.5,Win32,60,z,1,0.73666,,,,,,,,0.73666,1,,,,,,422,NW,UN,16,streld,ALCOUD,z,,,,,,-0.134259248,0.237962959,0,0,0,,0,206,206,421,1
,,,,,,,,,,,,,,,,,,5f243ced1993820009875c12,2020-11-25_16h36.09.381,lexical_decision_task_MP_exp2,2020.2.5,Win32,60,m,1,0.508125,,,,,,,,0.508125,1,,,,,,154,WORD,UN,33,lizard,AUTHOR,m,,,,,,-0.134259248,0.237962959,0,0,0,,0,207,207,153,1
,,,,,,,,,,,,,,,,,,5f243ced1993820009875c12,2020-11-25_16h36.09.381,lexical_decision_task_MP_exp2,2020.2.5,Win32,60,z,1,0.669625,,,,,,,,0.669625,1,,,,,,262,NW,"ID",33,quilew,QUILEW,z,,,,,,-0.134259248,0.237962959,0,0,0,,0,208,208,261,1
,,,,,,,,,,,,,,,,,,5f243ced1993820009875c12,2020-11-25_16h36.09.381,lexical_decision_task_MP_exp2,2020.2.5,Win32,60,m,1,0.570565,,,,,,,,0.570565,1,,,,,,7,WORD,"ID",33,anchor,ANCHOR,m,,,,,,-0.134259248,0.237962959,0,0,0,,0,209,209,6,1
,,,,,,,,,,,,,,,,,,5f243ced1993820009875c12,2020-11-25_16h36.09.381,lexical_decision_task_MP_exp2,2020.2.5,Win32,60,z,1,0.618595,,,,,,,,0.618595,1,,,,,,254,NW,"ID",33,varosh,VAROSH,z,,,,,,-0.134259248,0.237962959,0,0,0,,0,210,210,253,1
,,,,,,,,,,,,,,,,,,5f243ced1993820009875c12,2020-11-25_16h36.09.381,lexical_decision_task_MP_exp2,2020.2.5,Win32,60,m,1,0.668825,,,,,,,,0.668825,1,,,,,,21,WORD,"ID",33,simple,SIMPLE,m,,,,,,-0.134259248,0.237962959,0,0,0,,0,211,211,20,1
,,,,,,,,,,,,,,,,,,5f243ced1993820009875c12,2020-11-25_16h36.09.381,lexical_decision_task_MP_exp2,2020.2.5,Win32,60,m,1,0.702065,,,,,,,,0.702065,1,,,,,,203,WORD,UN,16,burden,PHRASE,m,,,,,,-0.134259248,0.237962959,0,0,0,,0,212,212,202,1
,,,,,,,,,,,,,,,,,,5f243ced1993820009875c12,2020-11-25_16h36.09.381,lexical_decision_task_MP_exp2,2020.2.5,Win32,60,z,1,1.02653,,,,,,,,1.02653,1,,,,,,352,NW,"ID",16,tringe,TRINGE,z,,,,,,-0.134259248,0.237962959,0,0,0,,0,213,213,351,1
,,,,,,,,,,,,,,,,,,5f243ced1993820009875c12,2020-11-25_16h36.09.381,lexical_decision_task_MP_exp2,2020.2.5,Win32,60,z,1,0.78567,,,,,,,,0.78567,1,,,,,,364,NW,UN,33,guairt,IMPOTE,z,,,,,,-0.134259248,0.237962959,0,0,0,,0,214,214,363,1
,,,,,,,,,,,,,,,,,,5f243ced1993820009875c12,2020-11-25_16h36.09.381,lexical_decision_task_MP_exp2,2020.2.5,Win32,60,m,1,0.769915,,,,,,,,0.769915,1,,,,,,10,WORD,"ID",33,ethnic,ETHNIC,m,,,,,,-0.134259248,0.237962959,0,0,0,,0,215,215,9,1
,,,,,,,,,,,,,,,,,,5f243ced1993820009875c12,2020-11-25_16h36.09.381,lexical_decision_task_MP_exp2,2020.2.5,Win32,60,m,1,0.59321,,,,,,,,0.59321,1,,,,,,28,WORD,"ID",33,comedy,COMEDY,m,,,,,,-0.134259248,0.237962959,0,0,0,,0,216,216,27,1
,,,,,,,,,,,,,,,,,,5f243ced1993820009875c12,2020-11-25_16h36.09.381,lexical_decision_task_MP_exp2,2020.2.5,Win32,60,m,1,0.46296,,,,,,,,0.46296,1,,,,,,140,WORD,UN,33,reason,PRINCE,m,,,,,,-0.134259248,0.237962959,0,0,0,,0,217,217,139,1
,,,,,,,,,,,,,,,,,,5f243ced1993820009875c12,2020-11-25_16h36.09.381,lexical_decision_task_MP_exp2,2020.2.5,Win32,60,z,1,0.7546,,,,,,,,0.7546,1,,,,,,316,NW,"ID",16,scregm,SCREGM,z,,,,,,-0.134259248,0.237962959,0,0,0,,0,218,218,315,1
,,,,,,,,,,,,,,,,,,5f243ced1993820009875c12,2020-11-25_16h36.09.381,lexical_decision_task_MP_exp2,2020.2.5,Win32,60,z,0,1.010015,,,,,,,,1.010015,0,,,,,,106,WORD,"ID",16,ransom,RANSOM,m,,,,,,-0.134259248,0.237962959,0,0,0,,0,219,219,105,1
,,,,,,,,,,,,,,,,,,5f243ced1993820009875c12,2020-11-25_16h36.09.381,lexical_decision_task_MP_exp2,2020.2.5,Win32,60,m,1,1.018755,,,,,,,,1.018755,1,,,,,,177,WORD,UN,33,inform,ADVENT,m,,,,,,-0.134259248,0.237962959,0,0,0,,0,220,220,176,1
,,,,,,,,,,,,,,,,,,5f243ced1993820009875c12,2020-11-25_16h36.09.381,lexical_decision_task_MP_exp2,2020.2.5,Win32,60,z,0,0.719425,,,,,,,,0.719425,0,,,,,,16,WORD,"ID",33,faucet,FAUCET,m,,,,,,-0.134259248,0.237962959,0,0,0,,0,221,221,15,1
,,,,,,,,,,,,,,,,,,5f243ced1993820009875c12,2020-11-25_16h36.09.381,lexical_decision_task_MP_exp2,2020.2.5,Win32,60,z,1,0.90273,,,,,,,,0.90273,1,,,,,,380,NW,UN,33,huniek,CAVORY,z,,,,,,-0.134259248,0.237962959,0,0,0,,0,222,222,379,1
,,,,,,,,,,,,,,,,,,5f243ced1993820009875c12,2020-11-25_16h36.09.381,lexical_decision_task_MP_exp2,2020.2.5,Win32,60,z,1,0.78662,,,,,,,,0.78662,1,,,,,,299,NW,"ID",33,sturch,STURCH,z,,,,,,-0.134259248,0.237962959,0,0,0,,0,223,223,298,1
,,,,,,,,,,,,,,,,,,5f243ced1993820009875c12,2020-11-25_16h36.09.381,lexical_decision_task_MP_exp2,2020.2.5,Win32,60,z,0,0.959115,,,,,,,,0.959115,0,,,,,,45,WORD,"ID",33,clergy,CLERGY,m,,,,,,-0.134259248,0.237962959,0,0,0,,0,224,224,44,1
,,,,,,,,,,,,,,,,,,5f243ced1993820009875c12,2020-11-25_16h36.09.381,lexical_decision_task_MP_exp2,2020.2.5,Win32,60,m,1,0.559365,,,,,,,,0.559365,1,,,,,,210,WORD,UN,16,infect,MONKEY,m,,,,,,-0.134259248,0.237962959,0,0,0,,0,225,225,209,1
,,,,,,,,,,,,,,,,,,5f243ced1993820009875c12,2020-11-25_16h36.09.381,lexical_decision_task_MP_exp2,2020.2.5,Win32,60,z,1,0.81886,,,,,,,,0.81886,1,,,,,,465,NW,UN,16,hocite,WHIVEX,z,,,,,,-0.134259248,0.237962959,0,0,0,,0,226,226,464,1
,,,,,,,,,,,,,,,,,,5f243ced1993820009875c12,2020-11-25_16h36.09.381,lexical_decision_task_MP_exp2,2020.2.5,Win32,60,z,1,0.68923,,,,,,,,0.68923,1,,,,,,279,NW,"ID",33,celond,CELOND,z,,,,,,-0.134259248,0.237962959,0,0,0,,0,227,227,278,1
,,,,,,,,,,,,,,,,,,5f243ced1993820009875c12,2020-11-25_16h36.09.381,lexical_decision_task_MP_exp2,2020.2.5,Win32,60,z,1,1.00739,,,,,,,,1.00739,1,,,,,,450,NW,UN,16,rastoe,PHRECT,z,,,,,,-0.134259248,0.237962959,0,0,0,,0,228,228,449,1
,,,,,,,,,,,,,,,,,,5f243ced1993820009875c12,2020-11-25_16h36.09.381,lexical_decision_task_MP_exp2,2020.2.5,Win32,60,z,1,0.9529,,,,,,,,0.9529,1,,,,,,443,NW,UN,16,jaunce,DORSEX,z,,,,,,-0.134259248,0.237962959,0,0,0,,0,229,229,442,1
,,,,,,,,,,,,,,,,,,5f243ced1993820009875c12,2020-11-25_16h36.09.381,lexical_decision_task_MP_exp2,2020.2.5,Win32,60,m,1,0.72935,,,,,,,,0.72935,1,,,,,,170,WORD,UN,33,depart,POUNCE,m,,,,,,-0.134259248,0.237962959,0,0,0,,0,230,230,169,1
,,,,,,,,,,,,,,,,,,5f243ced1993820009875c12,2020-11-25_16h36.09.381,lexical_decision_task_MP_exp2,2020.2.5,Win32,60,m,1,0.55363,,,,,,,,0.55363,1,,,,,,164,WORD,UN,33,invest,MARKET,m,,,,,,-0.134259248,0.237962959,0,0,0,,0,231,231,163,1
,,,,,,,,,,,,,,,,,,5f243ced1993820009875c12,2020-11-25_16h36.09.381,lexical_decision_task_MP_exp2,2020.2.5,Win32,60,z,1,1.245715,,,,,,,,1.245715,1,,,,,,473,NW,UN,16,hablin,CRIBLE,z,,,,,,-0.134259248,0.237962959,0,0,0,,0,232,232,472,1
,,,,,,,,,,,,,,,,,,5f243ced1993820009875c12,2020-11-25_16h36.09.381,lexical_decision_task_MP_exp2,2020.2.5,Win32,60,z,1,1.553785,,,,,,,,1.553785,1,,,,,,243,NW,"ID",33,musied,MUSIED,z,,,,,,-0.134259248,0.237962959,0,0,0,,0,233,233,242,1
,,,,,,,,,,,,,,,,,,5f243ced1993820009875c12,2020-11-25_16h36.09.381,lexical_decision_task_MP_exp2,2020.2.5,Win32,60,m,1,0.95274,,,,,,,,0.95274,1,,,,,,104,WORD,"ID",16,studio,STUDIO,m,,,,,,-0.134259248,0.237962959,0,0,0,,0,234,234,103,1
,,,,,,,,,,,,,,,,,,5f243ced1993820009875c12,2020-11-25_16h36.09.381,lexical_decision_task_MP_exp2,2020.2.5,Win32,60,z,1,0.77961,,,,,,,,0.77961,1,,,,,,366,NW,UN,33,slique,TOSHEL,z,,,,,,-0.134259248,0.237962959,0,0,0,,0,235,235,365,1
,,,,,,,,,,,,,,,,,,5f243ced1993820009875c12,2020-11-25_16h36.09.381,lexical_decision_task_MP_exp2,2020.2.5,Win32,60,z,1,1.13552,,,,,,,,1.13552,1,,,,,,343,NW,"ID",16,aimosy,AIMOSY,z,,,,,,-0.134259248,0.237962959,0,0,0,,0,236,236,342,1
,,,,,,,,,,,,,,,,,,5f243ced1993820009875c12,2020-11-25_16h36.09.381,lexical_decision_task_MP_exp2,2020.2.5,Win32,60,m,1,0.885405,,,,,,,,0.885405,1,,,,,,126,WORD,UN,33,castle,ENOUGH,m,,,,,,-0.134259248,0.237962959,0,0,0,,0,237,237,125,1
,,,,,,,,,,,,,,,,,,5f243ced1993820009875c12,2020-11-25_16h36.09.381,lexical_decision_task_MP_exp2,2020.2.5,Win32,60,m,1,0.552755,,,,,,,,0.552755,1,,,,,,208,WORD,UN,16,search,HOCKEY,m,,,,,,-0.134259248,0.237962959,0,0,0,,0,238,238,207,1
,,,,,,,,,,,,,,,,,,5f243ced1993820009875c12,2020-11-25_16h36.09.381,lexical_decision_task_MP_exp2,2020.2.5,Win32,60,m,1,0.492115,,,,,,,,0.492115,1,,,,,,89,WORD,"ID",16,permit,PERMIT,m,,,,,,-0.134259248,0.237962959,0,0,0,,0,239,239,88,1
,,,,,,,,,,,,,,,,,,5f243ced1993820009875c12,2020-11-25_16h36.09.381,lexical_decision_task_MP_exp2,2020.2.5,Win32,60,z,1,0.625785,,,,,,,,0.625785,1,,,,,,388,NW,UN,33,witmer,CRAGIN,z,,,,,,-0.134259248,0.237962959,0,0,0,,0,240,240,387,1
,,,,,,,,,,,,,,,,,,5f243ced1993820009875c12,2020-11-25_16h36.09.381,lexical_decision_task_MP_exp2,2020.2.5,Win32,60,m,1,0.634165,,,,,,,,0.634165,1,,,,,,189,WORD,UN,16,backup,CENSOR,m,,,,,,-0.134259248,0.237962959,0,0,0,,0,241,241,188,1
,,,,,,,,,,,,,,,,,,5f243ced1993820009875c12,2020-11-25_16h36.09.381,lexical_decision_task_MP_exp2,2020.2.5,Win32,60,z,1,0.987325,,,,,,,,0.987325,1,,,,,,420,NW,UN,33,pauche,GUSHOP,z,,,,,,-0.134259248,0.237962959,0,0,0,,0,242,242,419,1
,,,,,,,,,,,,,,,,,,5f243ced1993820009875c12,2020-11-25_16h36.09.381,lexical_decision_task_MP_exp2,2020.2.5,Win32,60,z,1,1.536,,,,,,,,1.536,1,,,,,,306,NW,"ID",16,sounge,SOUNGE,z,,,,,,-0.134259248,0.237962959,0,0,0,,0,243,243,305,1
,,,,,,,,,,,,,,,,,,5f243ced1993820009875c12,2020-11-25_16h36.09.381,lexical_decision_task_MP_exp2,2020.2.5,Win32,60,z,1,0.750145,,,,,,,,0.750145,1,,,,,,459,NW,UN,16,mingar,BAFENT,z,,,,,,-0.134259248,0.237962959,0,0,0,,0,244,244,458,1
,,,,,,,,,,,,,,,,,,5f243ced1993820009875c12,2020-11-25_16h36.09.381,lexical_decision_task_MP_exp2,2020.2.5,Win32,60,z,1,1.235815,,,,,,,,1.235815,1,,,,,,281,NW,"ID",33,melaty,MELATY,z,,,,,,-0.134259248,0.237962959,0,0,0,,0,245,245,280,1
,,,,,,,,,,,,,,,,,,5f243ced1993820009875c12,2020-11-25_16h36.09.381,lexical_decision_task_MP_exp2,2020.2.5,Win32,60,z,1,0.6674,,,,,,,,0.6674,1,,,,,,317,NW,"ID",16,worbal,WORBAL,z,,,,,,-0.134259248,0.237962959,0,0,0,,0,246,246,316,1
,,,,,,,,,,,,,,,,,,5f243ced1993820009875c12,2020-11-25_16h36.09.381,lexical_decision_task_MP_exp2,2020.2.5,Win32,60,m,1,0.850485,,,,,,,,0.850485,1,,,,,,19,WORD,"ID",33,patron,PATRON,m,,,,,,-0.134259248,0.237962959,0,0,0,,0,247,247,18,1
,,,,,,,,,,,,,,,,,,5f243ced1993820009875c12,2020-11-25_16h36.09.381,lexical_decision_task_MP_exp2,2020.2.5,Win32,60,m,1,0.62658,,,,,,,,0.62658,1,,,,,,213,WORD,UN,16,intake,SQUEAL,m,,,,,,-0.134259248,0.237962959,0,0,0,,0,248,248,212,1
,,,,,,,,,,,,,,,,,,5f243ced1993820009875c12,2020-11-25_16h36.09.381,lexical_decision_task_MP_exp2,2020.2.5,Win32,60,z,1,0.834035,,,,,,,,0.834035,1,,,,,,397,NW,UN,33,blunde,CAMBLE,z,,,,,,-0.134259248,0.237962959,0,0,0,,0,249,249,396,1
,,,,,,,,,,,,,,,,,,5f243ced1993820009875c12,2020-11-25_16h36.09.381,lexical_decision_task_MP_exp2,2020.2.5,Win32,60,z,1,0.71122,,,,,,,,0.71122,1,,,,,,309,NW,"ID",16,amiloy,AMILOY,z,,,,,,-0.134259248,0.237962959,0,0,0,,0,250,250,308,1
,,,,,,,,,,,,,,,,,,5f243ced1993820009875c12,2020-11-25_16h36.09.381,lexical_decision_task_MP_exp2,2020.2.5,Win32,60,z,1,0.886425,,,,,,,,0.886425,1,,,,,,331,NW,"ID",16,gilfew,GILFEW,z,,,,,,-0.134259248,0.237962959,0,0,0,,0,251,251,330,1
,,,,,,,,,,,,,,,,,,5f243ced1993820009875c12,2020-11-25_16h36.09.381,lexical_decision_task_MP_exp2,2020.2.5,Win32,60,m,1,0.602795,,,,,,,,0.602795,1,,,,,,72,WORD,"ID",16,bright,BRIGHT,m,,,,,,-0.134259248,0.237962959,0,0,0,,0,252,252,71,1
,,,,,,,,,,,,,,,,,,5f243ced1993820009875c12,2020-11-25_16h36.09.381,lexical_decision_task_MP_exp2,2020.2.5,Win32,60,m,1,0.601,,,,,,,,0.601,1,,,,,,95,WORD,"ID",16,thread,THREAD,m,,,,,,-0.134259248,0.237962959,0,0,0,,0,253,253,94,1
,,,,,,,,,,,,,,,,,,5f243ced1993820009875c12,2020-11-25_16h36.09.381,lexical_decision_task_MP_exp2,2020.2.5,Win32,60,z,1,0.80294,,,,,,,,0.80294,1,,,,,,332,NW,"ID",16,vangue,VANGUE,z,,,,,,-0.134259248,0.237962959,0,0,0,,0,254,254,331,1
,,,,,,,,,,,,,,,,,,5f243ced1993820009875c12,2020-11-25_16h36.09.381,lexical_decision_task_MP_exp2,2020.2.5,Win32,60,z,1,0.702365,,,,,,,,0.702365,1,,,,,,296,NW,"ID",33,beinch,BEINCH,z,,,,,,-0.134259248,0.237962959,0,0,0,,0,255,255,295,1
,,,,,,,,,,,,,,,,,,5f243ced1993820009875c12,2020-11-25_16h36.09.381,lexical_decision_task_MP_exp2,2020.2.5,Win32,60,m,1,0.64081,,,,,,,,0.64081,1,,,,,,115,WORD,"ID",16,guitar,GUITAR,m,,,,,,-0.134259248,0.237962959,0,0,0,,0,256,256,114,1
,,,,,,,,,,,,,,,,,,5f243ced1993820009875c12,2020-11-25_16h36.09.381,lexical_decision_task_MP_exp2,2020.2.5,Win32,60,z,1,0.74627,,,,,,,,0.74627,1,,,,,,347,NW,"ID",16,kerift,KERIFT,z,,,,,,-0.134259248,0.237962959,0,0,0,,0,257,257,346,1
,,,,,,,,,,,,,,,,,,5f243ced1993820009875c12,2020-11-25_16h36.09.381,lexical_decision_task_MP_exp2,2020.2.5,Win32,60,z,1,0.61888,,,,,,,,0.61888,1,,,,,,241,NW,"ID",33,smenco,SMENCO,z,,,,,,-0.134259248,0.237962959,0,0,0,,0,258,258,240,1
,,,,,,,,,,,,,,,,,,5f243ced1993820009875c12,2020-11-25_16h36.09.381,lexical_decision_task_MP_exp2,2020.2.5,Win32,60,m,1,0.577645,,,,,,,,0.577645,1,,,,,,133,WORD,UN,33,debris,CHROME,m,,,,,,-0.134259248,0.237962959,0,0,0,,0,259,259,132,1
,,,,,,,,,,,,,,,,,,5f243ced1993820009875c12,2020-11-25_16h36.09.381,lexical_decision_task_MP_exp2,2020.2.5,Win32,60,m,0,0.436245,,,,,,,,0.436245,0,,,,,,404,NW,UN,33,syntic,CLUIRM,z,,,,,,-0.134259248,0.237962959,0,0,0,,0,260,260,403,1
,,,,,,,,,,,,,,,,,,5f243ced1993820009875c12,2020-11-25_16h36.09.381,lexical_decision_task_MP_exp2,2020.2.5,Win32,60,z,0,0.536465,,,,,,,,0.536465,0,,,,,,139,WORD,UN,33,prince,DEBRIS,m,,,,,,-0.134259248,0.237962959,0,0,0,,0,261,261,138,1
,,,,,,,,,,,,,,,,,,5f243ced1993820009875c12,2020-11-25_16h36.09.381,lexical_decision_task_MP_exp2,2020.2.5,Win32,60,m,1,0.619075,,,,,,,,0.619075,1,,,,,,178,WORD,UN,33,mildew,INFORM,m,,,,,,-0.134259248,0.237962959,0,0,0,,0,262,262,177,1
,,,,,,,,,,,,,,,,,,5f243ced1993820009875c12,2020-11-25_16h36.09.381,lexical_decision_task_MP_exp2,2020.2.5,Win32,60,z,1,0.68923,,,,,,,,0.68923,1,,,,,,245,NW,"ID",33,anougs,ANOUGS,z,,,,,,-0.134259248,0.237962959,0,0,0,,0,263,263,244,1
,,,,,,,,,,,,,,,,,,5f243ced1993820009875c12,2020-11-25_16h36.09.381,lexical_decision_task_MP_exp2,2020.2.5,Win32,60,m,1,0.58664,,,,,,,,0.58664,1,,,,,,96,WORD,"ID",16,ignore,IGNORE,m,,,,,,-0.134259248,0.237962959,0,0,0,,0,264,264,95,1
,,,,,,,,,,,,,,,,,,5f243ced1993820009875c12,2020-11-25_16h36.09.381,lexical_decision_task_MP_exp2,2020.2.5,Win32,60,z,1,0.60599,,,,,,,,0.60599,1,,,,,,282,NW,"ID",33,porlex,PORLEX,z,,,,,,-0.134259248,0.237962959,0,0,0,,0,265,265,281,1
,,,,,,,,,,,,,,,,,,5f243ced1993820009875c12,2020-11-25_16h36.09.381,lexical_decision_task_MP_exp2,2020.2.5,Win32,60,m,1,0.791265,,,,,,,,0.791265,1,,,,,,134,WORD,UN,33,import,STAPLE,m,,,,,,-0.134259248,0.237962959,0,0,0,,0,266,266,133,1
,,,,,,,,,,,,,,,,,,5f243ced1993820009875c12,2020-11-25_16h36.09.381,lexical_decision_task_MP_exp2,2020.2.5,Win32,60,z,1,0.608315,,,,,,,,0.608315,1,,,,,,383,NW,UN,33,guesco,AUNGRE,z,,,,,,-0.134259248,0.237962959,0,0,0,,0,267,267,382,1
,,,,,,,,,,,,,,,,,,5f243ced1993820009875c12,2020-11-25_16h36.09.381,lexical_decision_task_MP_exp2,2020.2.5,Win32,60,m,1,0.523975,,,,,,,,0.523975,1,,,,,,165,WORD,UN,33,starch,INVEST,m,,,,,,-0.134259248,0.237962959,0,0,0,,0,268,268,164,1
,,,,,,,,,,,,,,,,,,5f243ced1993820009875c12,2020-11-25_16h36.09.381,lexical_decision_task_MP_exp2,2020.2.5,Win32,60,m,1,0.637415,,,,,,,,0.637415,1,,,,,,127,WORD,UN,33,senior,CASTLE,m,,,,,,-0.134259248,0.237962959,0,0,0,,0,269,269,126,1
,,,,,,,,,,,,,,,,,,5f243ced1993820009875c12,2020-11-25_16h36.09.381,lexical_decision_task_MP_exp2,2020.2.5,Win32,60,m,1,0.496975,,,,,,,,0.496975,1,,,,,,55,WORD,"ID",33,stroke,STROKE,m,,,,,,-0.134259248,0.237962959,0,0,0,,0,270,270,54,1
,,,,,,,,,,,,,,,,,,5f243ced1993820009875c12,2020-11-25_16h36.09.381,lexical_decision_task_MP_exp2,2020.2.5,Win32,60,z,1,0.696135,,,,,,,,0.696135,1,,,,,,478,NW,UN,16,lobush,ACRISE,z,,,,,,-0.134259248,0.237962959,0,0,0,,0,271,271,477,1
,,,,,,,,,,,,,,,,,,5f243ced1993820009875c12,2020-11-25_16h36.09.381,lexical_decision_task_MP_exp2,2020.2.5,Win32,60,m,1,0.5293,,,,,,,,0.5293,1,,,,,,34,WORD,"ID",33,jungle,JUNGLE,m,,,,,,-0.134259248,0.237962959,0,0,0,,0,272,272,33,1
,,,,,,,,,,,,,,,,,,5f243ced1993820009875c12,2020-11-25_16h36.09.381,lexical_decision_task_MP_exp2,2020.2.5,Win32,60,z,0,0.564655,,,,,,,,0.564655,0,,,,,,59,WORD,"ID",33,splint,SPLINT,m,,,,,,-0.134259248,0.237962959,0,0,0,,0,273,273,58,1
,,,,,,,,,,,,,,,,,,5f243ced1993820009875c12,2020-11-25_16h36.09.381,lexical_decision_task_MP_exp2,2020.2.5,Win32,60,m,1,0.928735,,,,,,,,0.928735,1,,,,,,169,WORD,UN,33,pounce,GENIUS,m,,,,,,-0.134259248,0.237962959,0,0,0,,0,274,274,168,1
,,,,,,,,,,,,,,,,,,5f243ced1993820009875c12,2020-11-25_16h36.09.381,lexical_decision_task_MP_exp2,2020.2.5,Win32,60,m,1,0.62997,,,,,,,,0.62997,1,,,,,,51,WORD,"ID",33,hungry,HUNGRY,m,,,,,,-0.134259248,0.237962959,0,0,0,,0,275,275,50,1
,,,,,,,,,,,,,,,,,,5f243ced1993820009875c12,2020-11-25_16h36.09.381,lexical_decision_task_MP_exp2,2020.2.5,Win32,60,z,1,0.647435,,,,,,,,0.647435,1,,,,,,267,NW,"ID",33,pasink,PASINK,z,,,,,,-0.134259248,0.237962959,0,0,0,,0,276,276,266,1
,,,,,,,,,,,,,,,,,,5f243ced1993820009875c12,2020-11-25_16h36.09.381,lexical_decision_task_MP_exp2,2020.2.5,Win32,60,m,1,0.779325,,,,,,,,0.779325,1,,,,,,211,WORD,UN,16,verify,INFECT,m,,,,,,-0.134259248,0.237962959,0,0,0,,0,277,277,210,1
,,,,,,,,,,,,,,,,,,5f243ced1993820009875c12,2020-11-25_16h36.09.381,lexical_decision_task_MP_exp2,2020.2.5,Win32,60,m,1,0.513645,,,,,,,,0.513645,1,,,,,,240,WORD,UN,16,glance,FOREST,m,,,,,,-0.134259248,0.237962959,0,0,0,,0,278,278,239,1
,,,,,,,,,,,,,,,,,,5f243ced1993820009875c12,2020-11-25_16h36.09.381,lexical_decision_task_MP_exp2,2020.2.5,Win32,60,z,1,0.936355,,,,,,,,0.936355,1,,,,,,401,NW,UN,33,elopia,MUSTIL,z,,,,,,-0.134259248,0.237962959,0,0,0,,0,279,279,400,1
,,,,,,,,,,,,,,,,,,5f243ced1993820009875c12,2020-11-25_16h36.09.381,lexical_decision_task_MP_exp2,2020.2.5,Win32,60,m,1,0.73186,,,,,,,,0.73186,1,,,,,,111,WORD,"ID",16,induce,INDUCE,m,,,,,,-0.134259248,0.237962959,0,0,0,,0,280,280,110,1
,,,,,,,,,,,,,,,,,,5f243ced1993820009875c12,2020-11-25_16h36.09.381,lexical_decision_task_MP_exp2,2020.2.5,Win32,60,m,1,0.66585,,,,,,,,0.66585,1,,,,,,226,WORD,UN,16,flower,CASINO,m,,,,,,-0.134259248,0.237962959,0,0,0,,0,281,281,225,1
,,,,,,,,,,,,,,,,,,5f243ced1993820009875c12,2020-11-25_16h36.09.381,lexical_decision_task_MP_exp2,2020.2.5,Win32,60,z,1,0.71494,,,,,,,,0.71494,1,,,,,,368,NW,UN,33,wronch,HORNAL,z,,,,,,-0.134259248,0.237962959,0,0,0,,0,282,282,367,1
,,,,,,,,,,,,,,,,,,5f243ced1993820009875c12,2020-11-25_16h36.09.381,lexical_decision_task_MP_exp2,2020.2.5,Win32,60,m,1,0.53036,,,,,,,,0.53036,1,,,,,,73,WORD,"ID",16,source,SOURCE,m,,,,,,-0.134259248,0.237962959,0,0,0,,0,283,283,72,1
,,,,,,,,,,,,,,,,,,5f243ced1993820009875c12,2020-11-25_16h36.09.381,lexical_decision_task_MP_exp2,2020.2.5,Win32,60,z,1,0.598065,,,,,,,,0.598065,1,,,,,,256,NW,"ID",33,inlors,INLORS,z,,,,,,-0.134259248,0.237962959,0,0,0,,0,284,284,255,1
,,,,,,,,,,,,,,,,,,5f243ced1993820009875c12,2020-11-25_16h36.09.381,lexical_decision_task_MP_exp2,2020.2.5,Win32,60,m,1,0.584085,,,,,,,,0.584085,1,,,,,,94,WORD,"ID",16,travel,TRAVEL,m,,,,,,-0.134259248,0.237962959,0,0,0,,0,285,285,93,1
,,,,,,,,,,,,,,,,,,5f243ced1993820009875c12,2020-11-25_16h36.09.381,lexical_decision_task_MP_exp2,2020.2.5,Win32,60,z,1,1.1471,,,,,,,,1.1471,1,,,,,,425,NW,UN,16,schind,FRUDGE,z,,,,,,-0.134259248,0.237962959,0,0,0,,0,286,286,424,1
,,,,,,,,,,,,,,,,,,5f243ced1993820009875c12,2020-11-25_16h36.09.381,lexical_decision_task_MP_exp2,2020.2.5,Win32,60,z,1,0.650555,,,,,,,,0.650555,1,,,,,,351,NW,"ID",16,tiesch,TIESCH,z,,,,,,-0.134259248,0.237962959,0,0,0,,0,287,287,350,1
,,,,,,,,,,,,,,,,,,5f243ced1993820009875c12,2020-11-25_16h36.09.381,lexical_decision_task_MP_exp2,2020.2.5,Win32,60,m,1,0.59615,,,,,,,,0.59615,1,,,,,,191,WORD,UN,16,absent,STABLE,m,,,,,,-0.134259248,0.237962959,0,0,0,,0,288,288,190,1
,,,,,,,,,,,,,,,,,,5f243ced1993820009875c12,2020-11-25_16h36.09.381,lexical_decision_task_MP_exp2,2020.2.5,Win32,60,z,1,0.590195,,,,,,,,0.590195,1,,,,,,436,NW,UN,16,snapel,FRUTAN,z,,,,,,-0.134259248,0.237962959,0,0,0,,0,289,289,435,1
,,,,,,,,,,,,,,,,,,5f243ced1993820009875c12,2020-11-25_16h36.09.381,lexical_decision_task_MP_exp2,2020.2.5,Win32,60,m,1,0.49711,,,,,,,,0.49711,1,,,,,,38,WORD,"ID",33,powder,POWDER,m,,,,,,-0.134259248,0.237962959,0,0,0,,0,290,290,37,1
,,,,,,,,,,,,,,,,,,5f243ced1993820009875c12,2020-11-25_16h36.09.381,lexical_decision_task_MP_exp2,2020.2.5,Win32,60,m,1,0.519225,,,,,,,,0.519225,1,,,,,,197,WORD,UN,16,wicked,STREAM,m,,,,,,-0.134259248,0.237962959,0,0,0,,0,291,291,196,1
,,,,,,,,,,,,,,,,,,5f243ced1993820009875c12,2020-11-25_16h36.09.381,lexical_decision_task_MP_exp2,2020.2.5,Win32,60,m,1,0.723475,,,,,,,,0.723475,1,,,,,,166,WORD,UN,33,design,STARCH,m,,,,,,-0.134259248,0.237962959,0,0,0,,0,292,292,165,1
,,,,,,,,,,,,,,,,,,5f243ced1993820009875c12,2020-11-25_16h36.09.381,lexical_decision_task_MP_exp2,2020.2.5,Win32,60,z,1,0.650425,,,,,,,,0.650425,1,,,,,,386,NW,UN,33,gronce,ANCUST,z,,,,,,-0.134259248,0.237962959,0,0,0,,0,293,293,385,1
,,,,,,,,,,,,,,,,,,5f243ced1993820009875c12,2020-11-25_16h36.09.381,lexical_decision_task_MP_exp2,2020.2.5,Win32,60,z,1,0.61257,,,,,,,,0.61257,1,,,,,,464,NW,UN,16,whivex,CHAITE,z,,,,,,-0.134259248,0.237962959,0,0,0,,0,294,294,463,1
,,,,,,,,,,,,,,,,,,5f243ced1993820009875c12,2020-11-25_16h36.09.381,lexical_decision_task_MP_exp2,2020.2.5,Win32,60,z,1,0.638535,,,,,,,,0.638535,1,,,,,,358,NW,"ID",16,fleack,FLEACK,z,,,,,,-0.134259248,0.237962959,0,0,0,,0,295,295,357,1
,,,,,,,,,,,,,,,,,,5f243ced1993820009875c12,2020-11-25_16h36.09.381,lexical_decision_task_MP_exp2,2020.2.5,Win32,60,m,0,0.70012,,,,,,,,0.70012,0,,,,,,335,NW,"ID",16,desion,DESION,z,,,,,,-0.134259248,0.237962959,0,0,0,,0,296,296,334,1
,,,,,,,,,,,,,,,,,,5f243ced1993820009875c12,2020-11-25_16h36.09.381,lexical_decision_task_MP_exp2,2020.2.5,Win32,60,m,1,0.646575,,,,,,,,0.646575,1,,,,,,88,WORD,"ID",16,hunger,HUNGER,m,,,,,,-0.134259248,0.237962959,0,0,0,,0,297,297,87,1
,,,,,,,,,,,,,,,,,,5f243ced1993820009875c12,2020-11-25_16h36.09.381,lexical_decision_task_MP_exp2,2020.2.5,Win32,60,z,1,0.554275,,,,,,,,0.554275,1,,,,,,365,NW,UN,33,toshel,GUAIRT,z,,,,,,-0.134259248,0.237962959,0,0,0,,0,298,298,364,1
,,,,,,,,,,,,,,,,,,5f243ced1993820009875c12,2020-11-25_16h36.09.381,lexical_decision_task_MP_exp2,2020.2.5,Win32,60,m,1,0.583945,,,,,,,,0.583945,1,,,,,,35,WORD,"ID",33,socket,SOCKET,m,,,,,,-0.134259248,0.237962959,0,0,0,,0,299,299,34,1
,,,,,,,,,,,,,,,,,,5f243ced1993820009875c12,2020-11-25_16h36.09.381,lexical_decision_task_MP_exp2,2020.2.5,Win32,60,z,1,0.679495,,,,,,,,0.679495,1,,,,,,413,NW,UN,33,serbol,EQUATS,z,,,,,,-0.134259248,0.237962959,0,0,0,,0,300,300,412,1
,,,,,,,,,,,,,,,,,,5f243ced1993820009875c12,2020-11-25_16h36.09.381,lexical_decision_task_MP_exp2,2020.2.5,Win32,60,z,1,0.86276,,,,,,,,0.86276,1,,,,,,435,NW,UN,16,frutan,IMPURB,z,,,,,,-0.134259248,0.237962959,0,0,0,,0,301,301,434,1
,,,,,,,,,,,,,,,,,,5f243ced1993820009875c12,2020-11-25_16h36.09.381,lexical_decision_task_MP_exp2,2020.2.5,Win32,60,z,1,0.92029,,,,,,,,0.92029,1,,,,,,261,NW,"ID",33,stunch,STUNCH,z,,,,,,-0.134259248,0.237962959,0,0,0,,0,302,302,260,1
,,,,,,,,,,,,,,,,,,5f243ced1993820009875c12,2020-11-25_16h36.09.381,lexical_decision_task_MP_exp2,2020.2.5,Win32,60,m,1,0.696465,,,,,,,,0.696465,1,,,,,,156,WORD,UN,33,pastor,CRADLE,m,,,,,,-0.134259248,0.237962959,0,0,0,,0,303,303,155,1
,,,,,,,,,,,,,,,,,,5f243ced1993820009875c12,2020-11-25_16h36.09.381,lexical_decision_task_MP_exp2,2020.2.5,Win32,60,m,1,1.13108,,,,,,,,1.13108,1,,,,,,60,WORD,"ID",33,pencil,PENCIL,m,,,,,,-0.134259248,0.237962959,0,0,0,,0,304,304,59,1
,,,,,,,,,,,,,,,,,,5f243ced1993820009875c12,2020-11-25_16h36.09.381,lexical_decision_task_MP_exp2,2020.2.5,Win32,60,m,1,0.62707,,,,,,,,0.62707,1,,,,,,201,WORD,UN,16,factor,ADMIRE,m,,,,,,-0.134259248,0.237962959,0,0,0,,0,305,305,200,1
,,,,,,,,,,,,,,,,,,5f243ced1993820009875c12,2020-11-25_16h36.09.381,lexical_decision_task_MP_exp2,2020.2.5,Win32,60,m,1,0.50387,,,,,,,,0.50387,1,,,,,,146,WORD,UN,33,garlic,COUPLE,m,,,,,,-0.134259248,0.237962959,0,0,0,,0,306,306,145,1
,,,,,,,,,,,,,,,,,,5f243ced1993820009875c12,2020-11-25_16h36.09.381,lexical_decision_task_MP_exp2,2020.2.5,Win32,60,z,1,0.670235,,,,,,,,0.670235,1,,,,,,257,NW,"ID",33,veniod,VENIOD,z,,,,,,-0.134259248,0.237962959,0,0,0,,0,307,307,256,1
,,,,,,,,,,,,,,,,,,5f243ced1993820009875c12,2020-11-25_16h36.09.381,lexical_decision_task_MP_exp2,2020.2.5,Win32,60,m,1,0.61952,,,,,,,,0.61952,1,,,,,,52,WORD,"ID",33,impose,IMPOSE,m,,,,,,-0.134259248,0.237962959,0,0,0,,0,308,308,51,1
,,,,,,,,,,,,,,,,,,5f243ced1993820009875c12,2020-11-25_16h36.09.381,lexical_decision_task_MP_exp2,2020.2.5,Win32,60,z,1,1.12148,,,,,,,,1.12148,1,,,,,,398,NW,UN,33,fouret,BLUNDE,z,,,,,,-0.134259248,0.237962959,0,0,0,,0,309,309,397,1
,,,,,,,,,,,,,,,,,,5f243ced1993820009875c12,2020-11-25_16h36.09.381,lexical_decision_task_MP_exp2,2020.2.5,Win32,60,m,1,0.754975,,,,,,,,0.754975,1,,,,,,92,WORD,"ID",16,strand,STRAND,m,,,,,,-0.134259248,0.237962959,0,0,0,,0,310,310,91,1
,,,,,,,,,,,,,,,,,,5f243ced1993820009875c12,2020-11-25_16h36.09.381,lexical_decision_task_MP_exp2,2020.2.5,Win32,60,z,1,0.665575,,,,,,,,0.665575,1,,,,,,276,NW,"ID",33,yarmon,YARMON,z,,,,,,-0.134259248,0.237962959,0,0,0,,0,311,311,275,1
,,,,,,,,,,,,,,,,,,5f243ced1993820009875c12,2020-11-25_16h36.09.381,lexical_decision_task_MP_exp2,2020.2.5,Win32,60,m,1,0.614615,,,,,,,,0.614615,1,,,,,,136,WORD,UN,33,finger,BLEACH,m,,,,,,-0.134259248,0.237962959,0,0,0,,0,312,312,135,1
,,,,,,,,,,,,,,,,,,5f243ced1993820009875c12,2020-11-25_16h36.09.381,lexical_decision_task_MP_exp2,2020.2.5,Win32,60,m,1,1.563215,,,,,,,,1.563215,1,,,,,,122,WORD,UN,33,strike,LINGER,m,,,,,,-0.134259248,0.237962959,0,0,0,,0,313,313,121,1
,,,,,,,,,,,,,,,,,,5f243ced1993820009875c12,2020-11-25_16h36.09.381,lexical_decision_task_MP_exp2,2020.2.5,Win32,60,m,1,0.651545,,,,,,,,0.651545,1,,,,,,47,WORD,"ID",33,income,INCOME,m,,,,,,-0.134259248,0.237962959,0,0,0,,0,314,314,46,1
,,,,,,,,,,,,,,,,,,5f243ced1993820009875c12,2020-11-25_16h36.09.381,lexical_decision_task_MP_exp2,2020.2.5,Win32,60,z,1,0.74704,,,,,,,,0.74704,1,,,,,,266,NW,"ID",33,varmit,VARMIT,z,,,,,,-0.134259248,0.237962959,0,0,0,,0,315,315,265,1
,,,,,,,,,,,,,,,,,,5f243ced1993820009875c12,2020-11-25_16h36.09.381,lexical_decision_task_MP_exp2,2020.2.5,Win32,60,m,1,0.533465,,,,,,,,0.533465,1,,,,,,180,WORD,UN,33,thrive,SILENT,m,,,,,,-0.134259248,0.237962959,0,0,0,,0,316,316,179,1
,,,,,,,,,,,,,,,,,,5f243ced1993820009875c12,2020-11-25_16h36.09.381,lexical_decision_task_MP_exp2,2020.2.5,Win32,60,m,1,0.504785,,,,,,,,0.504785,1,,,,,,40,WORD,"ID",33,convey,CONVEY,m,,,,,,-0.134259248,0.237962959,0,0,0,,0,317,317,39,1
,,,,,,,,,,,,,,,,,,5f243ced1993820009875c12,2020-11-25_16h36.09.381,lexical_decision_task_MP_exp2,2020.2.5,Win32,60,z,1,0.95648,,,,,,,,0.95648,1,,,,,,378,NW,UN,33,auting,SHRILE,z,,,,,,-0.134259248,0.237962959,0,0,0,,0,318,318,377,1
,,,,,,,,,,,,,,,,,,5f243ced1993820009875c12,2020-11-25_16h36.09.381,lexical_decision_task_MP_exp2,2020.2.5,Win32,60,m,1,0.58419,,,,,,,,0.58419,1,,,,,,43,WORD,"ID",33,tongue,TONGUE,m,,,,,,-0.134259248,0.237962959,0,0,0,,0,319,319,42,1
,,,,,,,,,,,,,,,,,,5f243ced1993820009875c12,2020-11-25_16h36.09.381,lexical_decision_task_MP_exp2,2020.2.5,Win32,60,z,1,0.929265,,,,,,,,0.929265,1,,,,,,457,NW,UN,16,barcet,WANIGH,z,,,,,,-0.134259248,0.237962959,0,0,0,,0,320,320,456,1
,,,,,,,,,,,,,,,,,,5f243ced1993820009875c12,2020-11-25_16h36.09.381,lexical_decision_task_MP_exp2,2020.2.5,Win32,60,z,1,0.75095,,,,,,,,0.75095,1,,,,,,399,NW,UN,33,wearox,FOURET,z,,,,,,-0.134259248,0.237962959,0,0,0,,0,321,321,398,1
,,,,,,,,,,,,,,,,,,5f243ced1993820009875c12,2020-11-25_16h36.09.381,lexical_decision_task_MP_exp2,2020.2.5,Win32,60,m,1,0.528365,,,,,,,,0.528365,1,,,,,,78,WORD,"ID",16,column,COLUMN,m,,,,,,-0.134259248,0.237962959,0,0,0,,0,322,322,77,1
,,,,,,,,,,,,,,,,,,5f243ced1993820009875c12,2020-11-25_16h36.09.381,lexical_decision_task_MP_exp2,2020.2.5,Win32,60,m,1,0.946185,,,,,,,,0.946185,1,,,,,,49,WORD,"ID",33,survey,SURVEY,m,,,,,,-0.134259248,0.237962959,0,0,0,,0,323,323,48,1
,,,,,,,,,,,,,,,,,,5f243ced1993820009875c12,2020-11-25_16h36.09.381,lexical_decision_task_MP_exp2,2020.2.5,Win32,60,z,1,0.612105,,,,,,,,0.612105,1,,,,,,302,NW,"ID",16,miluer,MILUER,z,,,,,,-0.134259248,0.237962959,0,0,0,,0,324,324,301,1
,,,,,,,,,,,,,,,,,,5f243ced1993820009875c12,2020-11-25_16h36.09.381,lexical_decision_task_MP_exp2,2020.2.5,Win32,60,m,1,0.69659,,,,,,,,0.69659,1,,,,,,33,WORD,"ID",33,butler,BUTLER,m,,,,,,-0.134259248,0.237962959,0,0,0,,0,325,325,32,1
,,,,,,,,,,,,,,,,,,5f243ced1993820009875c12,2020-11-25_16h36.09.381,lexical_decision_task_MP_exp2,2020.2.5,Win32,60,z,1,0.7458,,,,,,,,0.7458,1,,,,,,467,NW,UN,16,wictor,GORBIE,z,,,,,,-0.134259248,0.237962959,0,0,0,,0,326,326,466,1
,,,,,,,,,,,,,,,,,,5f243ced1993820009875c12,2020-11-25_16h36.09.381,lexical_decision_task_MP_exp2,2020.2.5,Win32,60,m,1,0.546215,,,,,,,,0.546215,1,,,,,,232,WORD,UN,16,nature,INJECT,m,,,,,,-0.134259248,0.237962959,0,0,0,,0,327,327,231,1
,,,,,,,,,,,,,,,,,,5f243ced1993820009875c12,2020-11-25_16h36.09.381,lexical_decision_task_MP_exp2,2020.2.5,Win32,60,m,1,0.562825,,,,,,,,0.562825,1,,,,,,102,WORD,"ID",16,direct,DIRECT,m,,,,,,-0.134259248,0.237962959,0,0,0,,0,328,328,101,1
,,,,,,,,,,,,,,,,,,5f243ced1993820009875c12,2020-11-25_16h36.09.381,lexical_decision_task_MP_exp2,2020.2.5,Win32,60,z,0,0.629555,,,,,,,,0.629555,0,,,,,,54,WORD,"ID",33,ramble,RAMBLE,m,,,,,,-0.134259248,0.237962959,0,0,0,,0,329,329,53,1
,,,,,,,,,,,,,,,,,,5f243ced1993820009875c12,2020-11-25_16h36.09.381,lexical_decision_task_MP_exp2,2020.2.5,Win32,60,z,1,0.613265,,,,,,,,0.613265,1,,,,,,405,NW,UN,33,nouply,FLUMNI,z,,,,,,-0.134259248,0.237962959,0,0,0,,0,330,330,404,1
,,,,,,,,,,,,,,,,,,5f243ced1993820009875c12,2020-11-25_16h36.09.381,lexical_decision_task_MP_exp2,2020.2.5,Win32,60,m,1,0.47411,,,,,,,,0.47411,1,,,,,,125,WORD,UN,33,blouse,NICKEL,m,,,,,,-0.134259248,0.237962959,0,0,0,,0,331,331,124,1
,,,,,,,,,,,,,,,,,,5f243ced1993820009875c12,2020-11-25_16h36.09.381,lexical_decision_task_MP_exp2,2020.2.5,Win32,60,z,1,0.73888,,,,,,,,0.73888,1,,,,,,419,NW,UN,33,gushop,SLOUNT,z,,,,,,-0.134259248,0.237962959,0,0,0,,0,332,332,418,1
,,,,,,,,,,,,,,,,,,5f243ced1993820009875c12,2020-11-25_16h36.09.381,lexical_decision_task_MP_exp2,2020.2.5,Win32,60,z,0,0.82883,,,,,,,,0.82883,0,,,,,,220,WORD,UN,16,mascot,VOYAGE,m,,,,,,-0.134259248,0.237962959,0,0,0,,0,333,333,219,1
,,,,,,,,,,,,,,,,,,5f243ced1993820009875c12,2020-11-25_16h36.09.381,lexical_decision_task_MP_exp2,2020.2.5,Win32,60,m,1,1.46268,,,,,,,,1.46268,1,,,,,,181,WORD,UN,16,winter,GLANCE,m,,,,,,-0.134259248,0.237962959,0,0,0,,0,334,334,180,1
,,,,,,,,,,,,,,,,,,5f243ced1993820009875c12,2020-11-25_16h36.09.381,lexical_decision_task_MP_exp2,2020.2.5,Win32,60,m,1,0.730705,,,,,,,,0.730705,1,,,,,,61,WORD,"ID",16,ponder,PONDER,m,,,,,,-0.134259248,0.237962959,0,0,0,,0,335,335,60,1
,,,,,,,,,,,,,,,,,,5f243ced1993820009875c12,2020-11-25_16h36.09.381,lexical_decision_task_MP_exp2,2020.2.5,Win32,60,m,1,0.473245,,,,,,,,0.473245,1,,,,,,39,WORD,"ID",33,insect,INSECT,m,,,,,,-0.134259248,0.237962959,0,0,0,,0,336,336,38,1
,,,,,,,,,,,,,,,,,,5f243ced1993820009875c12,2020-11-25_16h36.09.381,lexical_decision_task_MP_exp2,2020.2.5,Win32,60,m,1,0.534605,,,,,,,,0.534605,1,,,,,,188,WORD,UN,16,censor,SOCIAL,m,,,,,,-0.134259248,0.237962959,0,0,0,,0,337,337,187,1
,,,,,,,,,,,,,,,,,,5f243ced1993820009875c12,2020-11-25_16h36.09.381,lexical_decision_task_MP_exp2,2020.2.5,Win32,60,z,1,0.7122,,,,,,,,0.7122,1,,,,,,248,NW,"ID",33,strole,STROLE,z,,,,,,-0.134259248,0.237962959,0,0,0,,0,338,338,247,1
,,,,,,,,,,,,,,,,,,5f243ced1993820009875c12,2020-11-25_16h36.09.381,lexical_decision_task_MP_exp2,2020.2.5,Win32,60,z,1,0.180355,,,,,,,,0.180355,1,,,,,,370,NW,UN,33,geiloy,SLEACT,z,,,,,,-0.134259248,0.237962959,0,0,0,,0,339,339,369,1
,,,,,,,,,,,,,,,,,,5f243ced1993820009875c12,2020-11-25_16h36.09.381,lexical_decision_task_MP_exp2,2020.2.5,Win32,60,z,0,0.031325,,,,,,,,0.031325,0,,,,,,129,WORD,UN,33,stupid,MARVEL,m,,,,,,-0.134259248,0.237962959,0,0,0,,0,340,340,128,1
,,,,,,,,,,,,,,,,,,5f243ced1993820009875c12,2020-11-25_16h36.09.381,lexical_decision_task_MP_exp2,2020.2.5,Win32,60,z,0,0.053195,,,,,,,,0.053195,0,,,,,,190,WORD,UN,16,stable,BACKUP,m,,,,,,-0.134259248,0.237962959,0,0,0,,0,341,341,189,1
,,,,,,,,,,,,,,,,,,5f243ced1993820009875c12,2020-11-25_16h36.09.381,lexical_decision_task_MP_exp2,2020.2.5,Win32,60,z,1,1.022375,,,,,,,,1.022375,1,,,,,,426,NW,UN,16,frudge,URIVEL,z,,,,,,-0.134259248,0.237962959,0,0,0,,0,342,342,425,1
,,,,,,,,,,,,,,,,,,5f243ced1993820009875c12,2020-11-25_16h36.09.381,lexical_decision_task_MP_exp2,2020.2.5,Win32,60,z,1,0.68154,,,,,,,,0.68154,1,,,,,,393,NW,UN,33,spaqux,GANOUS,z,,,,,,-0.134259248,0.237962959,0,0,0,,0,343,343,392,1
,,,,,,,,,,,,,,,,,,5f243ced1993820009875c12,2020-11-25_16h36.09.381,lexical_decision_task_MP_exp2,2020.2.5,Win32,60,z,1,1.078695,,,,,,,,1.078695,1,,,,,,298,NW,"ID",33,piergy,PIERGY,z,,,,,,-0.134259248,0.237962959,0,0,0,,0,344,344,297,1
,,,,,,,,,,,,,,,,,,5f243ced1993820009875c12,2020-11-25_16h36.09.381,lexical_decision_task_MP_exp2,2020.2.5,Win32,60,m,1,0.53162,,,,,,,,0.53162,1,,,,,,149,WORD,UN,33,random,INVADE,m,,,,,,-0.134259248,0.237962959,0,0,0,,0,345,345,148,1
,,,,,,,,,,,,,,,,,,5f243ced1993820009875c12,2020-11-25_16h36.09.381,lexical_decision_task_MP_exp2,2020.2.5,Win32,60,z,1,1.233105,,,,,,,,1.233105,1,,,,,,418,NW,UN,33,slount,SUIDLE,z,,,,,,-0.134259248,0.237962959,0,0,0,,0,346,346,417,1
,,,,,,,,,,,,,,,,,,5f243ced1993820009875c12,2020-11-25_16h36.09.381,lexical_decision_task_MP_exp2,2020.2.5,Win32,60,m,1,0.587525,,,,,,,,0.587525,1,,,,,,144,WORD,UN,33,parish,SPONGE,m,,,,,,-0.134259248,0.237962959,0,0,0,,0,347,347,143,1
,,,,,,,,,,,,,,,,,,5f243ced1993820009875c12,2020-11-25_16h36.09.381,lexical_decision_task_MP_exp2,2020.2.5,Win32,60,z,1,0.866735,,,,,,,,0.866735,1,,,,,,334,NW,"ID",16,watmeg,WATMEG,z,,,,,,-0.134259248,0.237962959,0,0,0,,0,348,348,333,1
,,,,,,,,,,,,,,,,,,5f243ced1993820009875c12,2020-11-25_16h36.09.381,lexical_decision_task_MP_exp2,2020.2.5,Win32,60,z,1,0.521155,,,,,,,,0.521155,1,,,,,,437,NW,UN,16,baitch,SNAPEL,z,,,,,,-0.134259248,0.237962959,0,0,0,,0,349,349,436,1
,,,,,,,,,,,,,,,,,,5f243ced1993820009875c12,2020-11-25_16h36.09.381,lexical_decision_task_MP_exp2,2020.2.5,Win32,60,z,1,0.57017,,,,,,,,0.57017,1,,,,,,410,NW,UN,33,orchin,TUNORY,z,,,,,,-0.134259248,0.237962959,0,0,0,,0,350,350,409,1
,,,,,,,,,,,,,,,,,,5f243ced1993820009875c12,2020-11-25_16h36.09.381,lexical_decision_task_MP_exp2,2020.2.5,Win32,60,z,0,0.52231,,,,,,,,0.52231,0,,,,,,182,WORD,UN,16,basket,WINTER,m,,,,,,-0.134259248,0.237962959,0,0,0,,0,351,351,181,1
,,,,,,,,,,,,,,,,,,5f243ced1993820009875c12,2020-11-25_16h36.09.381,lexical_decision_task_MP_exp2,2020.2.5,Win32,60,z,1,0.6584,,,,,,,,0.6584,1,,,,,,431,NW,UN,16,lunker,CHRUMS,z,,,,,,-0.134259248,0.237962959,0,0,0,,0,352,352,430,1
,,,,,,,,,,,,,,,,,,5f243ced1993820009875c12,2020-11-25_16h36.09.381,lexical_decision_task_MP_exp2,2020.2.5,Win32,60,z,1,0.726135,,,,,,,,0.726135,1,,,,,,319,NW,"ID",16,zomber,ZOMBER,z,,,,,,-0.134259248,0.237962959,0,0,0,,0,353,353,318,1
,,,,,,,,,,,,,,,,,,5f243ced1993820009875c12,2020-11-25_16h36.09.381,lexical_decision_task_MP_exp2,2020.2.5,Win32,60,z,1,0.62974,,,,,,,,0.62974,1,,,,,,336,NW,"ID",16,ghodus,GHODUS,z,,,,,,-0.134259248,0.237962959,0,0,0,,0,354,354,335,1
,,,,,,,,,,,,,,,,,,5f243ced1993820009875c12,2020-11-25_16h36.09.381,lexical_decision_task_MP_exp2,2020.2.5,Win32,60,m,1,0.53251,,,,,,,,0.53251,1,,,,,,76,WORD,"ID",16,exotic,EXOTIC,m,,,,,,-0.134259248,0.237962959,0,0,0,,0,355,355,75,1
,,,,,,,,,,,,,,,,,,5f243ced1993820009875c12,2020-11-25_16h36.09.381,lexical_decision_task_MP_exp2,2020.2.5,Win32,60,z,1,0.946855,,,,,,,,0.946855,1,,,,,,303,NW,"ID",16,fiream,FIREAM,z,,,,,,-0.134259248,0.237962959,0,0,0,,0,356,356,302,1
,,,,,,,,,,,,,,,,,,5f243ced1993820009875c12,2020-11-25_16h36.09.381,lexical_decision_task_MP_exp2,2020.2.5,Win32,60,z,1,0.886575,,,,,,,,0.886575,1,,,,,,348,NW,"ID",16,dumple,DUMPLE,z,,,,,,-0.134259248,0.237962959,0,0,0,,0,357,357,347,1
,,,,,,,,,,,,,,,,,,5f243ced1993820009875c12,2020-11-25_16h36.09.381,lexical_decision_task_MP_exp2,2020.2.5,Win32,60,z,1,1.05635,,,,,,,,1.05635,1,,,,,,333,NW,"ID",16,catrie,CATRIE,z,,,,,,-0.134259248,0.237962959,0,0,0,,0,358,358,332,1
,,,,,,,,,,,,,,,,,,5f243ced1993820009875c12,2020-11-25_16h36.09.381,lexical_decision_task_MP_exp2,2020.2.5,Win32,60,z,1,0.921835,,,,,,,,0.921835,1,,,,,,409,NW,UN,33,tunory,ELOPIA,z,,,,,,-0.134259248,0.237962959,0,0,0,,0,359,359,408,1
,,,,,,,,,,,,,,,,,,5f243ced1993820009875c12,2020-11-25_16h36.09.381,lexical_decision_task_MP_exp2,2020.2.5,Win32,60,m,1,0.720315,,,,,,,,0.720315,1,,,,,,56,WORD,"ID",33,ambush,AMBUSH,m,,,,,,-0.134259248,0.237962959,0,0,0,,0,360,360,55,1
,,,,,,,,,,,,,,,,,,5f243ced1993820009875c12,2020-11-25_16h36.09.381,lexical_decision_task_MP_exp2,2020.2.5,Win32,60,z,1,0.630215,,,,,,,,0.630215,1,,,,,,340,NW,"ID",16,fiatch,FIATCH,z,,,,,,-0.134259248,0.237962959,0,0,0,,0,361,361,339,1
,,,,,,,,,,,,,,,,,,5f243ced1993820009875c12,2020-11-25_16h36.09.381,lexical_decision_task_MP_exp2,2020.2.5,Win32,60,m,1,0.58229,,,,,,,,0.58229,1,,,,,,204,WORD,UN,16,lounge,BURDEN,m,,,,,,-0.134259248,0.237962959,0,0,0,,0,362,362,203,1
,,,,,,,,,,,,,,,,,,5f243ced1993820009875c12,2020-11-25_16h36.09.381,lexical_decision_task_MP_exp2,2020.2.5,Win32,60,z,1,0.85438,,,,,,,,0.85438,1,,,,,,305,NW,"ID",16,forgle,FORGLE,z,,,,,,-0.134259248,0.237962959,0,0,0,,0,363,363,304,1
,,,,,,,,,,,,,,,,,,5f243ced1993820009875c12,2020-11-25_16h36.09.381,lexical_decision_task_MP_exp2,2020.2.5,Win32,60,m,1,0.798315,,,,,,,,0.798315,1,,,,,,207,WORD,UN,16,hockey,WREATH,m,,,,,,-0.134259248,0.237962959,0,0,0,,0,364,364,206,1
,,,,,,,,,,,,,,,,,,5f243ced1993820009875c12,2020-11-25_16h36.09.381,lexical_decision_task_MP_exp2,2020.2.5,Win32,60,m,1,0.79656,,,,,,,,0.79656,1,,,,,,209,WORD,UN,16,monkey,SEARCH,m,,,,,,-0.134259248,0.237962959,0,0,0,,0,365,365,208,1
,,,,,,,,,,,,,,,,,,5f243ced1993820009875c12,2020-11-25_16h36.09.381,lexical_decision_task_MP_exp2,2020.2.5,Win32,60,z,1,0.71647,,,,,,,,0.71647,1,,,,,,430,NW,UN,16,funtle,CAROEY,z,,,,,,-0.134259248,0.237962959,0,0,0,,0,366,366,429,1
,,,,,,,,,,,,,,,,,,5f243ced1993820009875c12,2020-11-25_16h36.09.381,lexical_decision_task_MP_exp2,2020.2.5,Win32,60,m,1,0.54658,,,,,,,,0.54658,1,,,,,,105,WORD,"ID",16,number,NUMBER,m,,,,,,-0.134259248,0.237962959,0,0,0,,0,367,367,104,1
,,,,,,,,,,,,,,,,,,5f243ced1993820009875c12,2020-11-25_16h36.09.381,lexical_decision_task_MP_exp2,2020.2.5,Win32,60,m,1,0.8461,,,,,,,,0.8461,1,,,,,,2,WORD,"ID",33,bridge,BRIDGE,m,,,,,,-0.134259248,0.237962959,0,0,0,,0,368,368,1,1
,,,,,,,,,,,,,,,,,,5f243ced1993820009875c12,2020-11-25_16h36.09.381,lexical_decision_task_MP_exp2,2020.2.5,Win32,60,z,1,0.962075,,,,,,,,0.962075,1,,,,,,354,NW,"ID",16,virlex,VIRLEX,z,,,,,,-0.134259248,0.237962959,0,0,0,,0,369,369,353,1
,,,,,,,,,,,,,,,,,,5f243ced1993820009875c12,2020-11-25_16h36.09.381,lexical_decision_task_MP_exp2,2020.2.5,Win32,60,z,1,0.812395,,,,,,,,0.812395,1,,,,,,394,NW,UN,33,colury,SPAQUX,z,,,,,,-0.134259248,0.237962959,0,0,0,,0,370,370,393,1
,,,,,,,,,,,,,,,,,,5f243ced1993820009875c12,2020-11-25_16h36.09.381,lexical_decision_task_MP_exp2,2020.2.5,Win32,60,z,1,1.028705,,,,,,,,1.028705,1,,,,,,469,NW,UN,16,crudio,PADIFS,z,,,,,,-0.134259248,0.237962959,0,0,0,,0,371,371,468,1
,,,,,,,,,,,,,,,,,,5f243ced1993820009875c12,2020-11-25_16h36.09.381,lexical_decision_task_MP_exp2,2020.2.5,Win32,60,z,1,1.41791,,,,,,,,1.41791,1,,,,,,451,NW,UN,16,surden,CAINKY,z,,,,,,-0.134259248,0.237962959,0,0,0,,0,372,372,450,1
,,,,,,,,,,,,,,,,,,5f243ced1993820009875c12,2020-11-25_16h36.09.381,lexical_decision_task_MP_exp2,2020.2.5,Win32,60,m,1,1.11258,,,,,,,,1.11258,1,,,,,,234,WORD,UN,16,lumber,CLUMSY,m,,,,,,-0.134259248,0.237962959,0,0,0,,0,373,373,233,1
,,,,,,,,,,,,,,,,,,5f243ced1993820009875c12,2020-11-25_16h36.09.381,lexical_decision_task_MP_exp2,2020.2.5,Win32,60,m,1,0.747855,,,,,,,,0.747855,1,,,,,,159,WORD,UN,33,violet,DETAIL,m,,,,,,-0.134259248,0.237962959,0,0,0,,0,374,374,158,1
,,,,,,,,,,,,,,,,,,5f243ced1993820009875c12,2020-11-25_16h36.09.381,lexical_decision_task_MP_exp2,2020.2.5,Win32,60,z,1,0.95866,,,,,,,,0.95866,1,,,,,,363,NW,UN,33,impote,BREALI,z,,,,,,-0.134259248,0.237962959,0,0,0,,0,375,375,362,1
,,,,,,,,,,,,,,,,,,5f243ced1993820009875c12,2020-11-25_16h36.09.381,lexical_decision_task_MP_exp2,2020.2.5,Win32,60,z,1,1.26231,,,,,,,,1.26231,1,,,,,,442,NW,UN,16,dorsex,ABOUNE,z,,,,,,-0.134259248,0.237962959,0,0,0,,0,376,376,441,1
,,,,,,,,,,,,,,,,,,5f243ced1993820009875c12,2020-11-25_16h36.09.381,lexical_decision_task_MP_exp2,2020.2.5,Win32,60,z,1,1.10342,,,,,,,,1.10342,1,,,,,,455,NW,UN,16,broget,TONDLE,z,,,,,,-0.134259248,0.237962959,0,0,0,,0,377,377,454,1
,,,,,,,,,,,,,,,,,,5f243ced1993820009875c12,2020-11-25_16h36.09.381,lexical_decision_task_MP_exp2,2020.2.5,Win32,60,z,1,0.863565,,,,,,,,0.863565,1,,,,,,373,NW,UN,33,injore,BIGENT,z,,,,,,-0.134259248,0.237962959,0,0,0,,0,378,378,372,1
,,,,,,,,,,,,,,,,,,5f243ced1993820009875c12,2020-11-25_16h36.09.381,lexical_decision_task_MP_exp2,2020.2.5,Win32,60,z,1,0.81355,,,,,,,,0.81355,1,,,,,,362,NW,UN,33,breali,TIREAU,z,,,,,,-0.134259248,0.237962959,0,0,0,,0,379,379,361,1
,,,,,,,,,,,,,,,,,,5f243ced1993820009875c12,2020-11-25_16h36.09.381,lexical_decision_task_MP_exp2,2020.2.5,Win32,60,m,1,0.969345,,,,,,,,0.969345,1,,,,,,194,WORD,UN,16,resign,ABSENT,m,,,,,,-0.134259248,0.237962959,0,0,0,,0,380,380,193,1
,,,,,,,,,,,,,,,,,,5f243ced1993820009875c12,2020-11-25_16h36.09.381,lexical_decision_task_MP_exp2,2020.2.5,Win32,60,m,1,0.96556,,,,,,,,0.96556,1,,,,,,30,WORD,"ID",33,orient,ORIENT,m,,,,,,-0.134259248,0.237962959,0,0,0,,0,381,381,29,1
,,,,,,,,,,,,,,,,,,5f243ced1993820009875c12,2020-11-25_16h36.09.381,lexical_decision_task_MP_exp2,2020.2.5,Win32,60,m,0,1.14549,,,,,,,,1.14549,0,,,,,,244,NW,"ID",33,eatric,EATRIC,z,,,,,,-0.134259248,0.237962959,0,0,0,,0,382,382,243,1
,,,,,,,,,,,,,,,,,,5f243ced1993820009875c12,2020-11-25_16h36.09.381,lexical_decision_task_MP_exp2,2020.2.5,Win32,60,m,1,0.779885,,,,,,,,0.779885,1,,,,,,162,WORD,UN,33,string,CANDLE,m,,,,,,-0.134259248,0.237962959,0,0,0,,0,383,383,161,1
,,,,,,,,,,,,,,,,,,5f243ced1993820009875c12,2020-11-25_16h36.09.381,lexical_decision_task_MP_exp2,2020.2.5,Win32,60,z,1,1.28426,,,,,,,,1.28426,1,,,,,,286,NW,"ID",33,reldon,RELDON,z,,,,,,-0.134259248,0.237962959,0,0,0,,0,384,384,285,1
,,,,,,,,,,,,,,,,,,5f243ced1993820009875c12,2020-11-25_16h36.09.381,lexical_decision_task_MP_exp2,2020.2.5,Win32,60,z,1,0.98418,,,,,,,,0.98418,1,,,,,,453,NW,UN,16,scouge,BOLVIS,z,,,,,,-0.134259248,0.237962959,0,0,0,,0,385,385,452,1
,,,,,,,,,,,,,,,,,,5f243ced1993820009875c12,2020-11-25_16h36.09.381,lexical_decision_task_MP_exp2,2020.2.5,Win32,60,z,1,0.63627,-0.134259248,0.237962959,1,0,0,0.401325,,0.63627,1,,,,,,460,NW,UN,16,justre,MINGAR,z,,,,,,-0.134259248,0.237962959,0,0,0,,0,386,386,459,1
,,,,,,,,,,,,,,,,,,5f243ced1993820009875c12,2020-11-25_16h36.09.381,lexical_decision_task_MP_exp2,2020.2.5,Win32,60,m,1,0.529765,,,,,,,,0.529765,1,,,,,,79,WORD,"ID",16,theory,THEORY,m,,,,,,-0.134259248,0.237962959,0,0,0,,0,387,387,78,1
,,,,,,,,,,,,,,,,,,5f243ced1993820009875c12,2020-11-25_16h36.09.381,lexical_decision_task_MP_exp2,2020.2.5,Win32,60,z,1,0.2839,,,,,,,,0.2839,1,,,,,,423,NW,UN,16,praile,STRELD,z,,,,,,-0.134259248,0.237962959,0,0,0,,0,388,388,422,1
,,,,,,,,,,,,,,,,,,5f243ced1993820009875c12,2020-11-25_16h36.09.381,lexical_decision_task_MP_exp2,2020.2.5,Win32,60,z,1,0.079765,,,,,,,,0.079765,1,,,,,,294,NW,"ID",33,inhort,INHORT,z,,,,,,-0.134259248,0.237962959,0,0,0,,0,389,389,293,1
,,,,,,,,,,,,,,,,,,5f243ced1993820009875c12,2020-11-25_16h36.09.381,lexical_decision_task_MP_exp2,2020.2.5,Win32,60,m,0,0.1225,,,,,,,,0.1225,0,,,,,,403,NW,UN,33,cluirm,BRUATS,z,,,,,,-0.134259248,0.237962959,0,0,0,,0,390,390,402,1
,,,,,,,,,,,,,,,,,,5f243ced1993820009875c12,2020-11-25_16h36.09.381,lexical_decision_task_MP_exp2,2020.2.5,Win32,60,z,1,0.852595,,,,,,,,0.852595,1,,,,,,402,NW,UN,33,bruats,SYNTIC,z,,,,,,-0.134259248,0.237962959,0,0,0,,0,391,391,401,1
,,,,,,,,,,,,,,,,,,5f243ced1993820009875c12,2020-11-25_16h36.09.381,lexical_decision_task_MP_exp2,2020.2.5,Win32,60,m,1,0.6467,,,,,,,,0.6467,1,,,,,,65,WORD,"ID",16,symbol,SYMBOL,m,,,,,,-0.134259248,0.237962959,0,0,0,,0,392,392,64,1
,,,,,,,,,,,,,,,,,,5f243ced1993820009875c12,2020-11-25_16h36.09.381,lexical_decision_task_MP_exp2,2020.2.5,Win32,60,z,1,0.82876,,,,,,,,0.82876,1,,,,,,428,NW,UN,16,chrums,TANDLY,z,,,,,,-0.134259248,0.237962959,0,0,0,,0,393,393,427,1
,,,,,,,,,,,,,,,,,,5f243ced1993820009875c12,2020-11-25_16h36.09.381,lexical_decision_task_MP_exp2,2020.2.5,Win32,60,z,1,0.721325,,,,,,,,0.721325,1,,,,,,272,NW,"ID",33,damilt,DAMILT,z,,,,,,-0.134259248,0.237962959,0,0,0,,0,394,394,271,1
,,,,,,,,,,,,,,,,,,5f243ced1993820009875c12,2020-11-25_16h36.09.381,lexical_decision_task_MP_exp2,2020.2.5,Win32,60,m,1,0.53995,,,,,,,,0.53995,1,,,,,,5,WORD,"ID",33,plunge,PLUNGE,m,,,,,,-0.134259248,0.237962959,0,0,0,,0,395,395,4,1
,,,,,,,,,,,,,,,,,,5f243ced1993820009875c12,2020-11-25_16h36.09.381,lexical_decision_task_MP_exp2,2020.2.5,Win32,60,z,1,0.446455,,,,,,,,0.446455,1,,,,,,417,NW,UN,33,suidle,EAROUD,z,,,,,,-0.134259248,0.237962959,0,0,0,,0,396,396,416,1
,,,,,,,,,,,,,,,,,,5f243ced1993820009875c12,2020-11-25_16h36.09.381,lexical_decision_task_MP_exp2,2020.2.5,Win32,60,m,0,0.2629,,,,,,,,0.2629,0,,,,,,447,NW,UN,16,sadent,GIRCUE,z,,,,,,-0.134259248,0.237962959,0,0,0,,0,397,397,446,1
