counterbalancing_condition,instr_done_keyboard.keys,instr_done_touch.x,instr_done_touch.y,instr_done_touch.leftButton,instr_done_touch.midButton,instr_done_touch.rightButton,instr_done_touch.clicked_name,instruction_pages.thisRepN,instruction_pages.thisTrialN,instruction_pages.thisN,instruction_pages.thisIndex,instruction_pages.ran,pageN,phase,instruct_text,has_image,instruct_image,participant,date,expName,psychopyVersion,OS,frameRate,response.keys,response.corr,touch_resp.x,touch_resp.y,touch_resp.leftButton,touch_resp.midButton,touch_resp.rightButton,touch_resp.time,touch_resp.clicked_name,rt,corr,practice_trials.thisRepN,practice_trials.thisTrialN,practice_trials.thisN,practice_trials.thisIndex,practice_trials.ran,TrialID,StimulusType,Condition,PrimeDuration,Prime,Target,corrAns,end_of_practice_trials_pages.thisRepN,end_of_practice_trials_pages.thisTrialN,end_of_practice_trials_pages.thisN,end_of_practice_trials_pages.thisIndex,end_of_practice_trials_pages.ran,break_done_touch.x,break_done_touch.y,break_done_touch.leftButton,break_done_touch.midButton,break_done_touch.rightButton,break_done_keyboard.keys,experiment_trials.thisRepN,experiment_trials.thisTrialN,experiment_trials.thisN,experiment_trials.thisIndex,experiment_trials.ran,break_done_touch.clicked_name
3,,0.07944333,-0.432542745,1,0,0,instr_done_button,0,0,0,0,1,1,instructions,"INSTRUCTIONS
At the start of each trial, look at the hash marks (######) in the center of the screen. After a moment, a string of letters will appear. Your task is to indicate if the letter string forms a word or not (i.e., if it is a nonword). For example, AUTHOR is a word while AUTHON is a nonword.

Press the space bar or touch the button below to continue.",0,,5f318ffff91fee0689bb3c5c,2020-11-27_15h04.22.200,lexical_decision_task_MP_exp2,2020.2.5,Linux armv8l,60,,,,,,,,,,,,,,,,,,,,,,,,,,,,,,,,,,,,,,,,
,,0.093854738,-0.414745146,1,0,0,instr_done_button,0,1,1,1,1,2,instructions,"If your device has a keyboard, press the 'Z' key for nonwords and the 'M' key for words.





Press the space bar or touch the button below to continue.",1,keyboard-example.gif,5f318ffff91fee0689bb3c5c,2020-11-27_15h04.22.200,lexical_decision_task_MP_exp2,2020.2.5,Linux armv8l,60,,,,,,,,,,,,,,,,,,,,,,,,,,,,,,,,,,,,,,,,
,,0.123707003,-0.40523692,1,0,0,instr_done_button,0,2,2,2,1,3,instructions,"If you are using a touchscreen only device, use the buttons on the screen. Do not use the mouse.





Press the space bar or touch the button below to continue.",1,touchscreen-example.gif,5f318ffff91fee0689bb3c5c,2020-11-27_15h04.22.200,lexical_decision_task_MP_exp2,2020.2.5,Linux armv8l,60,,,,,,,,,,,,,,,,,,,,,,,,,,,,,,,,,,,,,,,,
,,0.092310711,-0.431323672,1,0,0,instr_done_button,0,3,3,3,1,4,instructions,"It is very important that you respond as quickly and accurately as possible, as each letter string will only be on the screen for two seconds. If you do not respond within this time, the message 'Too slow!' will be displayed and the experiment will progress to the next letter string. The first 20 trials will be practice trials and you will receive feedback on your answers. 

Press the space bar or touch the button below to start the practice trials.",0,,5f318ffff91fee0689bb3c5c,2020-11-27_15h04.22.200,lexical_decision_task_MP_exp2,2020.2.5,Linux armv8l,60,,,,,,,,,,,,,,,,,,,,,,,,,,,,,,,,,,,,,,,,
,,,,,,,,,,,,,,,,,,5f318ffff91fee0689bb3c5c,2020-11-27_15h04.22.200,lexical_decision_task_MP_exp2,2020.2.5,Linux armv8l,60,,0,,,,,,,,,-1,0,0,0,15,1,1016,NW,UN,16,mushed,WHAISE,z,,,,,,,,,,,,,,,,,
,,,,,,,,,,,,,,,,,,5f318ffff91fee0689bb3c5c,2020-11-27_15h04.22.200,lexical_decision_task_MP_exp2,2020.2.5,Linux armv8l,60,,0,0.475242393,-0.312835916,1,0,0,0.8508,button_right,0.8508,1,0,1,1,0,1,1001,WORD,"ID",33,utopia,UTOPIA,m,,,,,,,,,,,,,,,,,
,,,,,,,,,,,,,,,,,,5f318ffff91fee0689bb3c5c,2020-11-27_15h04.22.200,lexical_decision_task_MP_exp2,2020.2.5,Linux armv8l,60,,0,0.497888954,-0.320637675,1,0,0,0.5833,button_right,0.5833,1,0,2,2,1,1,1002,WORD,"ID",33,adjust,ADJUST,m,,,,,,,,,,,,,,,,,
,,,,,,,,,,,,,,,,,,5f318ffff91fee0689bb3c5c,2020-11-27_15h04.22.200,lexical_decision_task_MP_exp2,2020.2.5,Linux armv8l,60,,0,0.511785563,-0.309178917,1,0,0,0.5981,button_right,0.5981,1,0,3,3,4,1,1005,WORD,UN,33,abound,SQUEAK,m,,,,,,,,,,,,,,,,,
,,,,,,,,,,,,,,,,,,5f318ffff91fee0689bb3c5c,2020-11-27_15h04.22.200,lexical_decision_task_MP_exp2,2020.2.5,Linux armv8l,60,,0,0.498403605,-0.308447458,1,0,0,0.6166,button_right,0.6166,1,0,4,4,3,1,1004,WORD,"ID",16,matrix,MATRIX,m,,,,,,,,,,,,,,,,,
,,,,,,,,,,,,,,,,,,5f318ffff91fee0689bb3c5c,2020-11-27_15h04.22.200,lexical_decision_task_MP_exp2,2020.2.5,Linux armv8l,60,,0,0.485536298,-0.319906142,1,0,0,0.9192,button_right,0.9192,0,0,5,5,13,1,1014,NW,UN,33,winfer,ROUPET,z,,,,,,,,,,,,,,,,,
,,,,,,,,,,,,,,,,,,5f318ffff91fee0689bb3c5c,2020-11-27_15h04.22.200,lexical_decision_task_MP_exp2,2020.2.5,Linux armv8l,60,,0,-0.497527669,-0.305765689,1,0,0,1.0006,button_left,1.0006,1,0,6,6,11,1,1012,NW,"ID",16,rashet,RASHET,z,,,,,,,,,,,,,,,,,
,,,,,,,,,,,,,,,,,,5f318ffff91fee0689bb3c5c,2020-11-27_15h04.22.200,lexical_decision_task_MP_exp2,2020.2.5,Linux armv8l,60,,0,-0.501645209,-0.27699702,1,0,0,1.0518,button_left,1.0518,1,0,7,7,9,1,1010,NW,"ID",33,fariny,FARINY,z,,,,,,,,,,,,,,,,,
,,,,,,,,,,,,,,,,,,5f318ffff91fee0689bb3c5c,2020-11-27_15h04.22.200,lexical_decision_task_MP_exp2,2020.2.5,Linux armv8l,60,,0,0.455684032,-0.329170746,1,0,0,0.6763,button_right,0.6763,1,0,8,8,6,1,1007,WORD,UN,16,tropic,ZOMBIE,m,,,,,,,,,,,,,,,,,
,,,,,,,,,,,,,,,,,,5f318ffff91fee0689bb3c5c,2020-11-27_15h04.22.200,lexical_decision_task_MP_exp2,2020.2.5,Linux armv8l,60,,0,-0.452234657,-0.294306931,1,0,0,1.0017,button_left,1.0017,1,0,9,9,8,1,1009,NW,"ID",33,aslert,ASLERT,z,,,,,,,,,,,,,,,,,
,,,,,,,,,,,,,,,,,,5f318ffff91fee0689bb3c5c,2020-11-27_15h04.22.200,lexical_decision_task_MP_exp2,2020.2.5,Linux armv8l,60,,0,0.490168451,-0.301133387,1,0,0,0.6164,button_right,0.6164,1,0,10,10,7,1,1008,WORD,UN,16,hurdle,VOLUME,m,,,,,,,,,,,,,,,,,
,,,,,,,,,,,,,,,,,,5f318ffff91fee0689bb3c5c,2020-11-27_15h04.22.200,lexical_decision_task_MP_exp2,2020.2.5,Linux armv8l,60,,0,-0.475910557,-0.29650116,1,0,0,0.7327,button_left,0.7327,1,0,11,11,14,1,1015,NW,UN,16,miaber,THRALE,z,,,,,,,,,,,,,,,,,
,,,,,,,,,,,,,,,,,,5f318ffff91fee0689bb3c5c,2020-11-27_15h04.22.200,lexical_decision_task_MP_exp2,2020.2.5,Linux armv8l,60,,0,0.477301144,-0.332583974,1,0,0,0.9321,button_right,0.9321,1,0,12,12,2,1,1003,WORD,"ID",16,almond,ALMOND,m,,,,,,,,,,,,,,,,,
,,,,,,,,,,,,,,,,,,5f318ffff91fee0689bb3c5c,2020-11-27_15h04.22.200,lexical_decision_task_MP_exp2,2020.2.5,Linux armv8l,60,,0,-0.470763605,-0.283092165,1,0,0,0.9673,button_left,0.9673,1,0,13,13,10,1,1011,NW,"ID",16,inlade,INLADE,z,,,,,,,,,,,,,,,,,
,,,,,,,,,,,,,,,,,,5f318ffff91fee0689bb3c5c,2020-11-27_15h04.22.200,lexical_decision_task_MP_exp2,2020.2.5,Linux armv8l,60,,0,0.45053708,-0.312592145,1,0,0,0.6334,button_right,0.6334,1,0,14,14,5,1,1006,WORD,UN,33,frenzy,OBTAIN,m,,,,,,,,,,,,,,,,,
,,,,,,,,,,,,,,,,,,5f318ffff91fee0689bb3c5c,2020-11-27_15h04.22.200,lexical_decision_task_MP_exp2,2020.2.5,Linux armv8l,60,,0,-0.449661181,-0.303083846,1,0,0,0.7673,button_left,0.7673,1,0,15,15,12,1,1013,NW,UN,33,adveil,SPRINY,z,,,,,,,,,,,,,,,,,
,,0.155617945,-0.383294707,1,0,0,instr_done_button,,,,,,1,end_of_practice,"You have completed the practice trials. During the experimental trials, you will not receive feedback, but it is very important that you respond as quickly and accurately as possible. 
Before you begin, please ensure that you are in a comfortable and quiet location and will not be disturbed for about 15 minutes, as we cannot use your data if you do not complete all the trials. 
There will be opportunities to take breaks at regular intervals during the experiment. When you are ready to start the experimental trials, please press space or touch the button below.",,,5f318ffff91fee0689bb3c5c,2020-11-27_15h04.22.200,lexical_decision_task_MP_exp2,2020.2.5,Linux armv8l,60,,,,,,,,,,,,,,,,,,,,,,,,0,0,0,0,1,,,,,,,,,,,,
,,,,,,,,,,,,,,,,,,5f318ffff91fee0689bb3c5c,2020-11-27_15h04.22.200,lexical_decision_task_MP_exp2,2020.2.5,Linux armv8l,60,,0,0.469580789,-0.297232619,1,0,0,0.9493,button_right,0.9493,1,,,,,,166,WORD,"ID",16,starch,STARCH,m,,,,,,0.469580789,-0.297232619,1,0,0,,0,0,0,105,1,
,,,,,,,,,,,,,,,,,,5f318ffff91fee0689bb3c5c,2020-11-27_15h04.22.200,lexical_decision_task_MP_exp2,2020.2.5,Linux armv8l,60,,0,0.467522038,-0.322100371,1,0,0,0.652,button_right,0.652,0,,,,,,261,NW,UN,16,quilew,STUNCH,z,,,,,,0.467522038,-0.322100371,1,0,0,,0,1,1,440,1,
,,,,,,,,,,,,,,,,,,5f318ffff91fee0689bb3c5c,2020-11-27_15h04.22.200,lexical_decision_task_MP_exp2,2020.2.5,Linux armv8l,60,,0,0.478330594,-0.328439213,1,0,0,0.6339,button_right,0.6339,1,,,,,,26,WORD,UN,16,butler,SPRINT,m,,,,,,0.478330594,-0.328439213,1,0,0,,0,2,2,205,1,
,,,,,,,,,,,,,,,,,,5f318ffff91fee0689bb3c5c,2020-11-27_15h04.22.200,lexical_decision_task_MP_exp2,2020.2.5,Linux armv8l,60,,0,0.470610091,-0.302840001,1,0,0,0.5501,button_right,0.5501,1,,,,,,155,WORD,"ID",16,lizard,LIZARD,m,,,,,,0.470610091,-0.302840001,1,0,0,,0,3,3,94,1,
,,,,,,,,,,,,,,,,,,5f318ffff91fee0689bb3c5c,2020-11-27_15h04.22.200,lexical_decision_task_MP_exp2,2020.2.5,Linux armv8l,60,,0,-0.529953336,-0.295038464,1,0,0,0.8506,button_left,0.8506,1,,,,,,294,NW,UN,16,gleath,INHORT,z,,,,,,-0.529953336,-0.295038464,1,0,0,,0,4,4,473,1,
,,,,,,,,,,,,,,,,,,5f318ffff91fee0689bb3c5c,2020-11-27_15h04.22.200,lexical_decision_task_MP_exp2,2020.2.5,Linux armv8l,60,,0,0.442302074,-0.311860686,1,0,0,0.6363,button_right,0.6363,1,,,,,,148,WORD,"ID",16,custom,CUSTOM,m,,,,,,0.442302074,-0.311860686,1,0,0,,0,5,5,87,1,
,,,,,,,,,,,,,,,,,,5f318ffff91fee0689bb3c5c,2020-11-27_15h04.22.200,lexical_decision_task_MP_exp2,2020.2.5,Linux armv8l,60,,0,0.483992197,-0.292600317,1,0,0,1.168,button_right,1.168,1,,,,,,163,WORD,"ID",16,string,STRING,m,,,,,,0.483992197,-0.292600317,1,0,0,,0,6,6,102,1,
,,,,,,,,,,,,,,,,,,5f318ffff91fee0689bb3c5c,2020-11-27_15h04.22.200,lexical_decision_task_MP_exp2,2020.2.5,Linux armv8l,60,,0,0.481418647,-0.301377232,1,0,0,0.9204,button_right,0.9204,1,,,,,,222,WORD,UN,33,export,HINDER,m,,,,,,0.481418647,-0.301377232,1,0,0,,0,7,7,161,1,
,,,,,,,,,,,,,,,,,,5f318ffff91fee0689bb3c5c,2020-11-27_15h04.22.200,lexical_decision_task_MP_exp2,2020.2.5,Linux armv8l,60,,0,0.45156653,-0.320881371,1,0,0,0.6039,button_right,0.6039,1,,,,,,202,WORD,UN,33,phrase,FACTOR,m,,,,,,0.45156653,-0.320881371,1,0,0,,0,8,8,141,1,
,,,,,,,,,,,,,,,,,,5f318ffff91fee0689bb3c5c,2020-11-27_15h04.22.200,lexical_decision_task_MP_exp2,2020.2.5,Linux armv8l,60,,0,-0.497012981,-0.269926793,1,0,0,0.7858,button_left,0.7858,1,,,,,,424,NW,UN,33,frudge,PRAILE,z,,,,,,-0.497012981,-0.269926793,1,0,0,,0,9,9,363,1,
,,,,,,,,,,,,,,,,,,5f318ffff91fee0689bb3c5c,2020-11-27_15h04.22.200,lexical_decision_task_MP_exp2,2020.2.5,Linux armv8l,60,,0,-0.470248917,-0.310885531,1,0,0,1.3887,button_left,1.3887,1,,,,,,454,NW,UN,33,tondle,SCOUGE,z,,,,,,-0.470248917,-0.310885531,1,0,0,,0,10,10,393,1,
,,,,,,,,,,,,,,,,,,5f318ffff91fee0689bb3c5c,2020-11-27_15h04.22.200,lexical_decision_task_MP_exp2,2020.2.5,Linux armv8l,60,,0,-0.358560507,-0.291868932,1,0,0,1.235,button_left,1.235,1,,,,,,300,NW,UN,16,smenco,YARION,z,,,,,,-0.358560507,-0.291868932,1,0,0,,0,11,11,479,1,
,,,,,,,,,,,,,,,,,,5f318ffff91fee0689bb3c5c,2020-11-27_15h04.22.200,lexical_decision_task_MP_exp2,2020.2.5,Linux armv8l,60,,0,0.464433837,-0.304546615,1,0,0,0.617,button_right,0.617,1,,,,,,197,WORD,UN,33,wicked,STREAM,m,,,,,,0.464433837,-0.304546615,1,0,0,,0,12,12,136,1,
,,,,,,,,,,,,,,,,,,5f318ffff91fee0689bb3c5c,2020-11-27_15h04.22.200,lexical_decision_task_MP_exp2,2020.2.5,Linux armv8l,60,,0,0.480903996,-0.288455704,1,0,0,1.0522,button_right,1.0522,1,,,,,,39,WORD,UN,16,convey,INSECT,m,,,,,,0.480903996,-0.288455704,1,0,0,,0,13,13,218,1,
,,,,,,,,,,,,,,,,,,5f318ffff91fee0689bb3c5c,2020-11-27_15h04.22.200,lexical_decision_task_MP_exp2,2020.2.5,Linux armv8l,60,,0,0.470610091,-0.295769775,1,0,0,1.1202,button_right,1.1202,1,,,,,,160,WORD,"ID",16,violet,VIOLET,m,,,,,,0.470610091,-0.295769775,1,0,0,,0,14,14,99,1,
,,,,,,,,,,,,,,,,,,5f318ffff91fee0689bb3c5c,2020-11-27_15h04.22.200,lexical_decision_task_MP_exp2,2020.2.5,Linux armv8l,60,,0,0.491197901,-0.287968089,1,0,0,0.6003,button_right,0.6003,1,,,,,,171,WORD,"ID",16,depart,DEPART,m,,,,,,0.491197901,-0.287968089,1,0,0,,0,15,15,110,1,
,,,,,,,,,,,,,,,,,,5f318ffff91fee0689bb3c5c,2020-11-27_15h04.22.200,lexical_decision_task_MP_exp2,2020.2.5,Linux armv8l,60,,0,0.492227202,-0.296745078,1,0,0,0.664,button_right,0.664,1,,,,,,70,WORD,"ID",33,square,SQUARE,m,,,,,,0.492227202,-0.296745078,1,0,0,,0,16,16,9,1,
,,,,,,,,,,,,,,,,,,5f318ffff91fee0689bb3c5c,2020-11-27_15h04.22.200,lexical_decision_task_MP_exp2,2020.2.5,Linux armv8l,60,,0,0.439728524,-0.278947404,1,0,0,0.8014,button_right,0.8014,1,,,,,,117,WORD,"ID",33,branch,BRANCH,m,,,,,,0.439728524,-0.278947404,1,0,0,,0,17,17,56,1,
,,,,,,,,,,,,,,,,,,5f318ffff91fee0689bb3c5c,2020-11-27_15h04.22.200,lexical_decision_task_MP_exp2,2020.2.5,Linux armv8l,60,,0,0.434066921,-0.294306931,1,0,0,0.6325,button_right,0.6325,1,,,,,,168,WORD,"ID",16,answer,ANSWER,m,,,,,,0.434066921,-0.294306931,1,0,0,,0,18,18,107,1,
,,,,,,,,,,,,,,,,,,5f318ffff91fee0689bb3c5c,2020-11-27_15h04.22.200,lexical_decision_task_MP_exp2,2020.2.5,Linux armv8l,60,,0,-0.474366457,-0.294550775,1,0,0,0.7314,button_left,0.7314,1,,,,,,474,NW,UN,33,acrise,HABLIN,z,,,,,,-0.474366457,-0.294550775,1,0,0,,0,19,19,413,1,
,,,,,,,,,,,,,,,,,,5f318ffff91fee0689bb3c5c,2020-11-27_15h04.22.200,lexical_decision_task_MP_exp2,2020.2.5,Linux armv8l,60,,0,-0.466646065,-0.319174757,1,0,0,0.6895,button_left,0.6895,1,,,,,,339,NW,"ID",33,fachow,FACHOW,z,,,,,,-0.466646065,-0.319174757,1,0,0,,0,20,20,278,1,
,,,,,,,,,,,,,,,,,,5f318ffff91fee0689bb3c5c,2020-11-27_15h04.22.200,lexical_decision_task_MP_exp2,2020.2.5,Linux armv8l,60,,0,-0.498042357,-0.294794546,1,0,0,0.7708,button_left,0.7708,1,,,,,,285,NW,UN,16,reldon,PRUDGE,z,,,,,,-0.498042357,-0.294794546,1,0,0,,0,21,21,464,1,
,,,,,,,,,,,,,,,,,,5f318ffff91fee0689bb3c5c,2020-11-27_15h04.22.200,lexical_decision_task_MP_exp2,2020.2.5,Linux armv8l,60,,0,-0.490321965,-0.302840001,1,0,0,0.7515,button_left,0.7515,1,,,,,,389,NW,"ID",16,witmer,WITMER,z,,,,,,-0.490321965,-0.302840001,1,0,0,,0,22,22,328,1,
,,,,,,,,,,,,,,,,,,5f318ffff91fee0689bb3c5c,2020-11-27_15h04.22.200,lexical_decision_task_MP_exp2,2020.2.5,Linux armv8l,60,,0,0.453625281,-0.318443372,1,0,0,0.683,button_right,0.683,1,,,,,,157,WORD,"ID",16,dragon,DRAGON,m,,,,,,0.453625281,-0.318443372,1,0,0,,0,23,23,96,1,
,,,,,,,,,,,,,,,,,,5f318ffff91fee0689bb3c5c,2020-11-27_15h04.22.200,lexical_decision_task_MP_exp2,2020.2.5,Linux armv8l,60,,0,-0.490836653,-0.298207774,1,0,0,0.8008,button_left,0.8008,1,,,,,,338,NW,"ID",33,wreash,WREASH,z,,,,,,-0.490836653,-0.298207774,1,0,0,,0,24,24,277,1,
,,,,,,,,,,,,,,,,,,5f318ffff91fee0689bb3c5c,2020-11-27_15h04.22.200,lexical_decision_task_MP_exp2,2020.2.5,Linux armv8l,60,,0,0.478330594,-0.307716073,1,0,0,0.6164,button_right,0.6164,1,,,,,,2,WORD,UN,16,knight,BRIDGE,m,,,,,,0.478330594,-0.307716073,1,0,0,,0,25,25,181,1,
,,,,,,,,,,,,,,,,,,5f318ffff91fee0689bb3c5c,2020-11-27_15h04.22.200,lexical_decision_task_MP_exp2,2020.2.5,Linux armv8l,60,,0,0.475757043,-0.32283183,1,0,0,0.6315,button_right,0.6315,1,,,,,,36,WORD,UN,16,insult,VANISH,m,,,,,,0.475757043,-0.32283183,1,0,0,,0,26,26,215,1,
,,,,,,,,,,,,,,,,,,5f318ffff91fee0689bb3c5c,2020-11-27_15h04.22.200,lexical_decision_task_MP_exp2,2020.2.5,Linux armv8l,60,,0,0.454654731,-0.335997202,1,0,0,0.5987,button_right,0.5987,1,,,,,,182,WORD,UN,33,absent,WINTER,m,,,,,,0.454654731,-0.335997202,1,0,0,,0,27,27,121,1,
,,,,,,,,,,,,,,,,,,5f318ffff91fee0689bb3c5c,2020-11-27_15h04.22.200,lexical_decision_task_MP_exp2,2020.2.5,Linux armv8l,60,,0,0.460316334,-0.319662372,1,0,0,0.595,button_right,0.595,1,,,,,,172,WORD,"ID",16,patrol,PATROL,m,,,,,,0.460316334,-0.319662372,1,0,0,,0,28,28,111,1,
,,,,,,,,,,,,,,,,,,5f318ffff91fee0689bb3c5c,2020-11-27_15h04.22.200,lexical_decision_task_MP_exp2,2020.2.5,Linux armv8l,60,,0,-0.508850912,-0.302596231,1,0,0,0.7848,button_left,0.7848,1,,,,,,255,NW,UN,16,inlors,APIGHT,z,,,,,,-0.508850912,-0.302596231,1,0,0,,0,29,29,434,1,
,,,,,,,,,,,,,,,,,,5f318ffff91fee0689bb3c5c,2020-11-27_15h04.22.200,lexical_decision_task_MP_exp2,2020.2.5,Linux armv8l,60,,0,0.465977937,-0.318443372,1,0,0,0.6324,button_right,0.6324,1,,,,,,4,WORD,UN,16,plunge,TRENCH,m,,,,,,0.465977937,-0.318443372,1,0,0,,0,30,30,183,1,
,,,,,,,,,,,,,,,,,,5f318ffff91fee0689bb3c5c,2020-11-27_15h04.22.200,lexical_decision_task_MP_exp2,2020.2.5,Linux armv8l,60,,0,-0.491351341,-0.316736758,1,0,0,0.7181,button_left,0.7181,1,,,,,,412,NW,"ID",16,jiluer,JILUER,z,,,,,,-0.491351341,-0.316736758,1,0,0,,0,31,31,351,1,
,,,,,,,,,,,,,,,,,,5f318ffff91fee0689bb3c5c,2020-11-27_15h04.22.200,lexical_decision_task_MP_exp2,2020.2.5,Linux armv8l,60,,0,-0.494954193,-0.290649933,1,0,0,0.7182,button_left,0.7182,1,,,,,,479,NW,UN,33,crible,LOBUSH,z,,,,,,-0.494954193,-0.290649933,1,0,0,,0,32,32,418,1,
,,,,,,,,,,,,,,,,,,5f318ffff91fee0689bb3c5c,2020-11-27_15h04.22.200,lexical_decision_task_MP_exp2,2020.2.5,Linux armv8l,60,,0,-0.485175012,-0.299670618,1,0,0,0.6502,button_left,0.6502,1,,,,,,283,NW,UN,16,shaple,VERALF,z,,,,,,-0.485175012,-0.299670618,1,0,0,,0,33,33,462,1,
,,,,,,,,,,,,,,,,,,5f318ffff91fee0689bb3c5c,2020-11-27_15h04.22.200,lexical_decision_task_MP_exp2,2020.2.5,Linux armv8l,60,,0,-0.473337081,-0.316492914,1,0,0,1.1815,button_left,1.1815,1,,,,,,427,NW,UN,33,tandly,SCHIND,z,,,,,,-0.473337081,-0.316492914,1,0,0,,0,34,34,366,1,
,,,,,,,,,,,,,,,,,,5f318ffff91fee0689bb3c5c,2020-11-27_15h04.22.200,lexical_decision_task_MP_exp2,2020.2.5,Linux armv8l,60,,0,-0.483116261,-0.314054915,1,0,0,0.6808,button_left,0.6808,1,,,,,,302,NW,"ID",33,miluer,MILUER,z,,,,,,-0.483116261,-0.314054915,1,0,0,,0,35,35,241,1,
,,,,,,,,,,,,,,,,,,5f318ffff91fee0689bb3c5c,2020-11-27_15h04.22.200,lexical_decision_task_MP_exp2,2020.2.5,Linux armv8l,60,,0,-0.49958642,-0.3242946,1,0,0,0.7874,button_left,0.7874,1,,,,,,409,NW,"ID",16,elopia,ELOPIA,z,,,,,,-0.49958642,-0.3242946,1,0,0,,0,36,36,348,1,
,,,,,,,,,,,,,,,,,,5f318ffff91fee0689bb3c5c,2020-11-27_15h04.22.200,lexical_decision_task_MP_exp2,2020.2.5,Linux armv8l,60,,0,0.441272624,-0.350137655,1,0,0,0.6502,button_right,0.6502,1,,,,,,50,WORD,UN,16,hungry,SNATCH,m,,,,,,0.441272624,-0.350137655,1,0,0,,0,37,37,229,1,
,,,,,,,,,,,,,,,,,,5f318ffff91fee0689bb3c5c,2020-11-27_15h04.22.200,lexical_decision_task_MP_exp2,2020.2.5,Linux armv8l,60,,0,-0.477454621,-0.300158306,1,0,0,0.784,button_left,0.784,1,,,,,,249,NW,UN,16,milted,BATROL,z,,,,,,-0.477454621,-0.300158306,1,0,0,,0,38,38,428,1,
,,,,,,,,,,,,,,,,,,5f318ffff91fee0689bb3c5c,2020-11-27_15h04.22.200,lexical_decision_task_MP_exp2,2020.2.5,Linux armv8l,60,,0,0.447963678,-0.318443372,1,0,0,0.9513,button_right,0.9513,1,,,,,,131,WORD,"ID",16,quench,QUENCH,m,,,,,,0.447963678,-0.318443372,1,0,0,,0,39,39,70,1,
,,,,,,,,,,,,,,,,,,5f318ffff91fee0689bb3c5c,2020-11-27_15h04.22.200,lexical_decision_task_MP_exp2,2020.2.5,Linux armv8l,60,,0,-0.477454621,-0.316736758,1,0,0,0.9028,button_left,0.9028,0,,,,,,144,WORD,"ID",16,sponge,SPONGE,m,,,,,,-0.477454621,-0.316736758,1,0,0,,0,40,40,83,1,
,,,,,,,,,,,,,,,,,,5f318ffff91fee0689bb3c5c,2020-11-27_15h04.22.200,lexical_decision_task_MP_exp2,2020.2.5,Linux armv8l,60,,0,-0.491351341,-0.319662372,1,0,0,0.9008,button_left,0.9008,1,,,,,,467,NW,UN,33,wictor,GORBIE,z,,,,,,-0.491351341,-0.319662372,1,0,0,,0,41,41,406,1,
,,,,,,,,,,,,,,,,,,5f318ffff91fee0689bb3c5c,2020-11-27_15h04.22.200,lexical_decision_task_MP_exp2,2020.2.5,Linux armv8l,60,,0,-0.492895404,-0.322100371,1,0,0,0.851,button_left,0.851,1,,,,,,357,NW,"ID",33,derain,DERAIN,z,,,,,,-0.492895404,-0.322100371,1,0,0,,0,42,42,296,1,
,,,,,,,,,,,,,,,,,,5f318ffff91fee0689bb3c5c,2020-11-27_15h04.22.200,lexical_decision_task_MP_exp2,2020.2.5,Linux armv8l,60,,0,0.431493518,-0.317224447,1,0,0,0.7351,button_right,0.7351,1,,,,,,74,WORD,"ID",33,plaque,PLAQUE,m,,,,,,0.431493518,-0.317224447,1,0,0,,0,43,43,13,1,
,,,,,,,,,,,,,,,,,,5f318ffff91fee0689bb3c5c,2020-11-27_15h04.22.200,lexical_decision_task_MP_exp2,2020.2.5,Linux armv8l,60,,0,-0.473851769,-0.311129301,1,0,0,0.9579,button_left,0.9579,1,,,,,,464,NW,UN,33,whivex,CHAITE,z,,,,,,-0.473851769,-0.311129301,1,0,0,,0,44,44,403,1,
,,,,,,,,,,,,,,,,,,5f318ffff91fee0689bb3c5c,2020-11-27_15h04.22.200,lexical_decision_task_MP_exp2,2020.2.5,Linux armv8l,60,,0,-0.491866028,-0.307716073,1,0,0,0.9017,button_left,0.9017,1,,,,,,316,NW,"ID",33,scregm,SCREGM,z,,,,,,-0.491866028,-0.307716073,1,0,0,,0,45,45,255,1,
,,,,,,,,,,,,,,,,,,5f318ffff91fee0689bb3c5c,2020-11-27_15h04.22.200,lexical_decision_task_MP_exp2,2020.2.5,Linux armv8l,60,,0,-0.500615833,-0.296257389,1,0,0,0.8708,button_left,0.8708,1,,,,,,288,NW,UN,16,starby,YACEUP,z,,,,,,-0.500615833,-0.296257389,1,0,0,,0,46,46,467,1,
,,,,,,,,,,,,,,,,,,5f318ffff91fee0689bb3c5c,2020-11-27_15h04.22.200,lexical_decision_task_MP_exp2,2020.2.5,Linux armv8l,60,,0,-0.489292552,-0.310641687,1,0,0,0.7678,button_left,0.7678,1,,,,,,475,NW,UN,33,josted,PEBRIC,z,,,,,,-0.489292552,-0.310641687,1,0,0,,0,47,47,414,1,
,,,,,,,,,,,,,,,,,,5f318ffff91fee0689bb3c5c,2020-11-27_15h04.22.200,lexical_decision_task_MP_exp2,2020.2.5,Linux armv8l,60,,0,0.443846175,-0.31454253,1,0,0,0.7362,button_right,0.7362,1,,,,,,87,WORD,"ID",33,filter,FILTER,m,,,,,,0.443846175,-0.31454253,1,0,0,,0,48,48,26,1,
,,,,,,,,,,,,,,,,,,5f318ffff91fee0689bb3c5c,2020-11-27_15h04.22.200,lexical_decision_task_MP_exp2,2020.2.5,Linux armv8l,60,,0,-0.506277436,-0.309910302,1,0,0,0.6843,button_left,0.6843,1,,,,,,351,NW,"ID",33,tiesch,TIESCH,z,,,,,,-0.506277436,-0.309910302,1,0,0,,0,49,49,290,1,
,,,,,,,,,,,,,,,,,,5f318ffff91fee0689bb3c5c,2020-11-27_15h04.22.200,lexical_decision_task_MP_exp2,2020.2.5,Linux armv8l,60,,0,-0.462528525,-0.319662372,1,0,0,0.6834,button_left,0.6834,1,,,,,,478,NW,UN,33,pebric,ACRISE,z,,,,,,-0.462528525,-0.319662372,1,0,0,,0,50,50,417,1,
,,,,,,,,,,,,,,,,,,5f318ffff91fee0689bb3c5c,2020-11-27_15h04.22.200,lexical_decision_task_MP_exp2,2020.2.5,Linux armv8l,60,,0,0.432008169,-0.330633441,1,0,0,0.6672,button_right,0.6672,1,,,,,,218,WORD,UN,33,bucket,SHRINK,m,,,,,,0.432008169,-0.330633441,1,0,0,,0,51,51,157,1,
,,,,,,,,,,,,,,,,,,5f318ffff91fee0689bb3c5c,2020-11-27_15h04.22.200,lexical_decision_task_MP_exp2,2020.2.5,Linux armv8l,60,,0,0.470610091,-0.307716073,1,0,0,0.852,button_right,0.852,1,,,,,,187,WORD,UN,33,social,COURSE,m,,,,,,0.470610091,-0.307716073,1,0,0,,0,52,52,126,1,
,,,,,,,,,,,,,,,,,,5f318ffff91fee0689bb3c5c,2020-11-27_15h04.22.200,lexical_decision_task_MP_exp2,2020.2.5,Linux armv8l,60,,0,-0.485175012,-0.316249144,1,0,0,0.7339,button_left,0.7339,1,,,,,,365,NW,"ID",16,guairt,GUAIRT,z,,,,,,-0.485175012,-0.316249144,1,0,0,,0,53,53,304,1,
,,,,,,,,,,,,,,,,,,5f318ffff91fee0689bb3c5c,2020-11-27_15h04.22.200,lexical_decision_task_MP_exp2,2020.2.5,Linux armv8l,60,,0,0.467522038,-0.32283183,1,0,0,0.7287,button_right,0.7287,1,,,,,,236,WORD,UN,33,grumpy,PIRATE,m,,,,,,0.467522038,-0.32283183,1,0,0,,0,54,54,175,1,
,,,,,,,,,,,,,,,,,,5f318ffff91fee0689bb3c5c,2020-11-27_15h04.22.200,lexical_decision_task_MP_exp2,2020.2.5,Linux armv8l,60,,0,-0.470248917,-0.299914388,1,0,0,0.75,button_left,0.75,1,,,,,,416,NW,"ID",16,pathel,PATHEL,z,,,,,,-0.470248917,-0.299914388,1,0,0,,0,55,55,355,1,
,,,,,,,,,,,,,,,,,,5f318ffff91fee0689bb3c5c,2020-11-27_15h04.22.200,lexical_decision_task_MP_exp2,2020.2.5,Linux armv8l,60,,0,-0.487233801,-0.298451692,1,0,0,0.7384,button_left,0.7384,1,,,,,,247,NW,UN,16,strole,BLARGE,z,,,,,,-0.487233801,-0.298451692,1,0,0,,0,56,56,426,1,
,,,,,,,,,,,,,,,,,,5f318ffff91fee0689bb3c5c,2020-11-27_15h04.22.200,lexical_decision_task_MP_exp2,2020.2.5,Linux armv8l,60,,0,0.454654731,-0.333315285,1,0,0,0.6975,button_right,0.6975,1,,,,,,57,WORD,UN,16,danger,CHANGE,m,,,,,,0.454654731,-0.333315285,1,0,0,,0,57,57,236,1,
,,,,,,,,,,,,,,,,,,5f318ffff91fee0689bb3c5c,2020-11-27_15h04.22.200,lexical_decision_task_MP_exp2,2020.2.5,Linux armv8l,60,,0,-0.487748489,-0.299914388,1,0,0,0.6382,button_left,0.6382,1,,,,,,361,NW,"ID",16,pauche,PAUCHE,z,,,,,,-0.487748489,-0.299914388,1,0,0,,0,58,58,300,1,
,,,,,,,,,,,,,,,,,,5f318ffff91fee0689bb3c5c,2020-11-27_15h04.22.200,lexical_decision_task_MP_exp2,2020.2.5,Linux armv8l,60,,0,-0.474366457,-0.318931061,1,0,0,0.7528,button_left,0.7528,1,,,,,,266,NW,UN,16,pasink,VARMIT,z,,,,,,-0.474366457,-0.318931061,1,0,0,,0,59,59,445,1,
,,,,,,,,,,,,,,,,,,5f318ffff91fee0689bb3c5c,2020-11-27_15h04.22.200,lexical_decision_task_MP_exp2,2020.2.5,Linux armv8l,60,,0,0.460830985,-0.315273915,1,0,0,0.6682,button_right,0.6682,1,,,,,,217,WORD,UN,33,shrink,LIQUOR,m,,,,,,0.460830985,-0.315273915,1,0,0,,0,60,60,156,1,
,,,,,,,,,,,,,,,,,,5f318ffff91fee0689bb3c5c,2020-11-27_15h04.22.200,lexical_decision_task_MP_exp2,2020.2.5,Linux armv8l,60,,0,-0.43936735,-0.303083846,1,0,0,0.7033,button_left,0.7033,1,,,,,,442,NW,UN,33,dorsex,ABOUNE,z,,,,,,-0.43936735,-0.303083846,1,0,0,,0,61,61,381,1,
,,,,,,,,,,,,,,,,,,5f318ffff91fee0689bb3c5c,2020-11-27_15h04.22.200,lexical_decision_task_MP_exp2,2020.2.5,Linux armv8l,60,,0,-0.472822393,-0.302352461,1,0,0,0.7159,button_left,0.7159,1,,,,,,280,NW,UN,16,melaty,CURBOL,z,,,,,,-0.472822393,-0.302352461,1,0,0,,0,62,62,459,1,
,,,,,,,,,,,,,,,,,,5f318ffff91fee0689bb3c5c,2020-11-27_15h04.22.200,lexical_decision_task_MP_exp2,2020.2.5,Linux armv8l,60,,0,0.463919186,-0.31454253,1,0,0,0.6989,button_right,0.6989,1,,,,,,164,WORD,"ID",16,market,MARKET,m,,,,,,0.463919186,-0.31454253,1,0,0,,0,63,63,103,1,
,,,,,,,,,,,,,,,,,,5f318ffff91fee0689bb3c5c,2020-11-27_15h04.22.200,lexical_decision_task_MP_exp2,2020.2.5,Linux armv8l,60,,0,0.461860435,-0.311860686,1,0,0,0.6842,button_right,0.6842,1,,,,,,121,WORD,"ID",16,thrive,THRIVE,m,,,,,,0.461860435,-0.311860686,1,0,0,,0,64,64,60,1,
,,,,,,,,,,,,,,,,,,5f318ffff91fee0689bb3c5c,2020-11-27_15h04.22.200,lexical_decision_task_MP_exp2,2020.2.5,Linux armv8l,60,,0,-0.456866885,-0.296988774,1,0,0,0.7827,button_left,0.7827,1,,,,,,322,NW,"ID",33,slanch,SLANCH,z,,,,,,-0.456866885,-0.296988774,1,0,0,,0,65,65,261,1,
,,,,,,,,,,,,,,,,,,5f318ffff91fee0689bb3c5c,2020-11-27_15h04.22.200,lexical_decision_task_MP_exp2,2020.2.5,Linux armv8l,60,,0,-0.458410985,-0.295769775,1,0,0,0.801,button_left,0.801,1,,,,,,461,NW,UN,33,absult,JUSTRE,z,,,,,,-0.458410985,-0.295769775,1,0,0,,0,66,66,400,1,
,,,,,,,,,,,,,,,,,,5f318ffff91fee0689bb3c5c,2020-11-27_15h04.22.200,lexical_decision_task_MP_exp2,2020.2.5,Linux armv8l,60,,0,-0.469734229,-0.296257389,1,0,0,0.7002,button_left,0.7002,1,,,,,,257,NW,UN,16,poluth,VENIOD,z,,,,,,-0.469734229,-0.296257389,1,0,0,,0,67,67,436,1,
,,,,,,,,,,,,,,,,,,5f318ffff91fee0689bb3c5c,2020-11-27_15h04.22.200,lexical_decision_task_MP_exp2,2020.2.5,Linux armv8l,60,,0,-0.424441217,-0.301133387,1,0,0,0.7181,button_left,0.7181,1,,,,,,248,NW,UN,16,batrol,STROLE,z,,,,,,-0.424441217,-0.301133387,1,0,0,,0,68,68,427,1,
,,,,,,,,,,,,,,,,,,5f318ffff91fee0689bb3c5c,2020-11-27_15h04.22.200,lexical_decision_task_MP_exp2,2020.2.5,Linux armv8l,60,,0,-0.440396726,-0.294063161,1,0,0,1.4547,button_left,1.4547,1,,,,,,419,NW,"ID",16,slount,SLOUNT,z,,,,,,-0.440396726,-0.294063161,1,0,0,,0,69,69,358,1,
,,,,,,,,,,,,,,,,,,5f318ffff91fee0689bb3c5c,2020-11-27_15h04.22.200,lexical_decision_task_MP_exp2,2020.2.5,Linux armv8l,60,,0,0.45311063,-0.331121056,1,0,0,0.6653,button_right,0.6653,1,,,,,,146,WORD,"ID",16,couple,COUPLE,m,,,,,,0.45311063,-0.331121056,1,0,0,,0,70,70,85,1,
,,,,,,,,,,,,,,,,,,5f318ffff91fee0689bb3c5c,2020-11-27_15h04.22.200,lexical_decision_task_MP_exp2,2020.2.5,Linux armv8l,60,,0,0.460830985,-0.32331937,1,0,0,0.6517,button_right,0.6517,1,,,,,,18,WORD,UN,16,patron,HUMBLE,m,,,,,,0.460830985,-0.32331937,1,0,0,,0,71,71,197,1,
,,,,,,,,,,,,,,,,,,5f318ffff91fee0689bb3c5c,2020-11-27_15h04.22.200,lexical_decision_task_MP_exp2,2020.2.5,Linux armv8l,60,,0,0.491712552,-0.295526005,1,0,0,0.6349,button_right,0.6349,1,,,,,,33,WORD,UN,16,jungle,BUTLER,m,,,,,,0.491712552,-0.295526005,1,0,0,,0,72,72,212,1,
,,,,,,,,,,,,,,,,,,5f318ffff91fee0689bb3c5c,2020-11-27_15h04.22.200,lexical_decision_task_MP_exp2,2020.2.5,Linux armv8l,60,,0,0.504065208,-0.286261475,1,0,0,0.7612,button_right,0.7612,1,,,,,,213,WORD,UN,33,intake,SQUEAL,m,,,,,,0.504065208,-0.286261475,1,0,0,,0,73,73,152,1,
,,,,,,,,,,,,,,,,,,5f318ffff91fee0689bb3c5c,2020-11-27_15h04.22.200,lexical_decision_task_MP_exp2,2020.2.5,Linux armv8l,60,,0,-0.486719113,-0.297232619,1,0,0,0.7506,button_left,0.7506,1,,,,,,426,NW,UN,33,schind,URIVEL,z,,,,,,-0.486719113,-0.297232619,1,0,0,,0,74,74,365,1,
,,,,,,,,,,,,,,,,,,5f318ffff91fee0689bb3c5c,2020-11-27_15h04.22.200,lexical_decision_task_MP_exp2,2020.2.5,Linux armv8l,60,,0,-0.471793017,-0.299183003,1,0,0,0.698,button_left,0.698,1,,,,,,373,NW,"ID",16,bigent,BIGENT,z,,,,,,-0.471793017,-0.299183003,1,0,0,,0,75,75,312,1,
,,,,,,,,,,,,,,,,,,5f318ffff91fee0689bb3c5c,2020-11-27_15h04.22.200,lexical_decision_task_MP_exp2,2020.2.5,Linux armv8l,60,,0,0.464433837,-0.333315285,1,0,0,0.6668,button_right,0.6668,1,,,,,,34,WORD,UN,16,socket,JUNGLE,m,,,,,,0.464433837,-0.333315285,1,0,0,,0,76,76,213,1,
,,,,,,,,,,,,,,,,,,5f318ffff91fee0689bb3c5c,2020-11-27_15h04.22.200,lexical_decision_task_MP_exp2,2020.2.5,Linux armv8l,60,,0,0.494800753,-0.297720159,1,0,0,0.8173,button_right,0.8173,1,,,,,,161,WORD,"ID",16,pastor,PASTOR,m,,,,,,0.494800753,-0.297720159,1,0,0,,0,77,77,100,1,
,,,,,,,,,,,,,,,,,,5f318ffff91fee0689bb3c5c,2020-11-27_15h04.22.200,lexical_decision_task_MP_exp2,2020.2.5,Linux armv8l,60,,0,-0.460984462,-0.310397991,1,0,0,0.7494,button_left,0.7494,1,,,,,,390,NW,"ID",16,hatrus,HATRUS,z,,,,,,-0.460984462,-0.310397991,1,0,0,,0,78,78,329,1,
,,,,,,,,,,,,,,,,,,5f318ffff91fee0689bb3c5c,2020-11-27_15h04.22.200,lexical_decision_task_MP_exp2,2020.2.5,Linux armv8l,60,,0,0.489139149,-0.310397991,1,0,0,0.6331,button_right,0.6331,1,,,,,,186,WORD,UN,33,course,PORTAL,m,,,,,,0.489139149,-0.310397991,1,0,0,,0,79,79,125,1,
,,,,,,,,,,,,,,,,,,5f318ffff91fee0689bb3c5c,2020-11-27_15h04.22.200,lexical_decision_task_MP_exp2,2020.2.5,Linux armv8l,60,,0,0.484506848,-0.317711988,1,0,0,0.6171,button_right,0.6171,1,,,,,,83,WORD,"ID",33,result,RESULT,m,,,,,,0.484506848,-0.317711988,1,0,0,,0,80,80,22,1,
,,,,,,,,,,,,,,,,,,5f318ffff91fee0689bb3c5c,2020-11-27_15h04.22.200,lexical_decision_task_MP_exp2,2020.2.5,Linux armv8l,60,,0,-0.478483996,-0.301377232,1,0,0,0.7177,button_left,0.7177,1,,,,,,263,NW,UN,16,vackel,DOLICA,z,,,,,,-0.478483996,-0.301377232,1,0,0,,0,81,81,442,1,
,,,,,,,,,,,,,,,,,,5f318ffff91fee0689bb3c5c,2020-11-27_15h04.22.200,lexical_decision_task_MP_exp2,2020.2.5,Linux armv8l,60,,0,0.496859504,-0.304059075,1,0,0,0.6039,button_right,0.6039,1,,,,,,152,WORD,"ID",16,rocket,ROCKET,m,,,,,,0.496859504,-0.304059075,1,0,0,,0,82,82,91,1,
,,,,,,,,,,,,,,,,,,5f318ffff91fee0689bb3c5c,2020-11-27_15h04.22.200,lexical_decision_task_MP_exp2,2020.2.5,Linux armv8l,60,,0,0.497374155,-0.307716073,1,0,0,0.601,button_right,0.601,1,,,,,,31,WORD,UN,16,buckle,WEAPON,m,,,,,,0.497374155,-0.307716073,1,0,0,,0,83,83,210,1,
,,,,,,,,,,,,,,,,,,5f318ffff91fee0689bb3c5c,2020-11-27_15h04.22.200,lexical_decision_task_MP_exp2,2020.2.5,Linux armv8l,60,,0,0.489139149,-0.326732598,1,0,0,0.5497,button_right,0.5497,1,,,,,,105,WORD,"ID",33,number,NUMBER,m,,,,,,0.489139149,-0.326732598,1,0,0,,0,84,84,44,1,
,,,,,,,,,,,,,,,,,,5f318ffff91fee0689bb3c5c,2020-11-27_15h04.22.200,lexical_decision_task_MP_exp2,2020.2.5,Linux armv8l,60,,0,-0.475910557,-0.300402002,1,0,0,0.7006,button_left,0.7006,1,,,,,,431,NW,UN,33,lunker,CHRUMS,z,,,,,,-0.475910557,-0.300402002,1,0,0,,0,85,85,370,1,
,,,,,,,,,,,,,,,,,,5f318ffff91fee0689bb3c5c,2020-11-27_15h04.22.200,lexical_decision_task_MP_exp2,2020.2.5,Linux armv8l,60,,0,0.505094658,-0.32283183,1,0,0,0.5832,button_right,0.5832,1,,,,,,196,WORD,UN,33,stream,CREDIT,m,,,,,,0.505094658,-0.32283183,1,0,0,,0,86,86,135,1,
,,,,,,,,,,,,,,,,,,5f318ffff91fee0689bb3c5c,2020-11-27_15h04.22.200,lexical_decision_task_MP_exp2,2020.2.5,Linux armv8l,60,,0,-0.474881144,-0.287236704,1,0,0,0.6497,button_left,0.6497,1,,,,,,286,NW,UN,16,nymbel,RELDON,z,,,,,,-0.474881144,-0.287236704,1,0,0,,0,87,87,465,1,
,,,,,,,,,,,,,,,,,,5f318ffff91fee0689bb3c5c,2020-11-27_15h04.22.200,lexical_decision_task_MP_exp2,2020.2.5,Linux armv8l,60,,0,-0.453778758,-0.306009459,1,0,0,0.9663,button_left,0.9663,1,,,,,,405,NW,"ID",16,flumni,FLUMNI,z,,,,,,-0.453778758,-0.306009459,1,0,0,,0,88,88,344,1,
,,,,,,,,,,,,,,,,,,5f318ffff91fee0689bb3c5c,2020-11-27_15h04.22.200,lexical_decision_task_MP_exp2,2020.2.5,Linux armv8l,60,,0,-0.45738161,-0.31332353,1,0,0,0.7016,button_left,0.7016,1,,,,,,291,NW,UN,16,ablint,PRETCH,z,,,,,,-0.45738161,-0.31332353,1,0,0,,0,89,89,470,1,
,,,,,,,,,,,,,,,,,,5f318ffff91fee0689bb3c5c,2020-11-27_15h04.22.200,lexical_decision_task_MP_exp2,2020.2.5,Linux armv8l,60,,0,0.451051879,-0.315273915,1,0,0,0.6504,button_right,0.6504,1,,,,,,60,WORD,UN,16,fright,PENCIL,m,,,,,,0.451051879,-0.315273915,1,0,0,,0,90,90,239,1,
,,,,,,,,,,,,,,,,,,5f318ffff91fee0689bb3c5c,2020-11-27_15h04.22.200,lexical_decision_task_MP_exp2,2020.2.5,Linux armv8l,60,,0,0.474727742,-0.296988774,1,0,0,0.6507,button_right,0.6507,1,,,,,,6,WORD,UN,16,anchor,BUNDLE,m,,,,,,0.474727742,-0.296988774,1,0,0,,0,91,91,185,1,
,,,,,,,,,,,,,,,,,,5f318ffff91fee0689bb3c5c,2020-11-27_15h04.22.200,lexical_decision_task_MP_exp2,2020.2.5,Linux armv8l,60,,0,0.505609309,-0.323563215,1,0,0,0.5503,button_right,0.5503,1,,,,,,177,WORD,"ID",16,advent,ADVENT,m,,,,,,0.505609309,-0.323563215,1,0,0,,0,92,92,116,1,
,,,,,,,,,,,,,,,,,,5f318ffff91fee0689bb3c5c,2020-11-27_15h04.22.200,lexical_decision_task_MP_exp2,2020.2.5,Linux armv8l,60,,0,0.512815013,-0.30625323,1,0,0,0.5711,button_right,0.5711,1,,,,,,84,WORD,"ID",33,mortal,MORTAL,m,,,,,,0.512815013,-0.30625323,1,0,0,,0,93,93,23,1,
,,,,,,,,,,,,,,,,,,5f318ffff91fee0689bb3c5c,2020-11-27_15h04.22.200,lexical_decision_task_MP_exp2,2020.2.5,Linux armv8l,60,,0,0.508182711,-0.324782214,1,0,0,0.7521,button_right,0.7521,1,,,,,,169,WORD,"ID",16,genius,GENIUS,m,,,,,,0.508182711,-0.324782214,1,0,0,,0,94,94,108,1,
,,,,,,,,,,,,,,,,,,5f318ffff91fee0689bb3c5c,2020-11-27_15h04.22.200,lexical_decision_task_MP_exp2,2020.2.5,Linux armv8l,60,,0,0.50663861,-0.350137655,1,0,0,0.6657,button_right,0.6657,1,,,,,,201,WORD,UN,33,factor,ADMIRE,m,,,,,,0.50663861,-0.350137655,1,0,0,,0,95,95,140,1,
,,,,,,,,,,,,,,,,,,5f318ffff91fee0689bb3c5c,2020-11-27_15h04.22.200,lexical_decision_task_MP_exp2,2020.2.5,Linux armv8l,60,,0,0.538549627,-0.309666458,1,0,0,0.5496,button_right,0.5496,1,,,,,,22,WORD,UN,16,wealth,JOCKEY,m,,,,,,0.538549627,-0.309666458,1,0,0,,0,96,96,201,1,
,,,,,,,,,,,,,,,,,,5f318ffff91fee0689bb3c5c,2020-11-27_15h04.22.200,lexical_decision_task_MP_exp2,2020.2.5,Linux armv8l,60,,0,0.515388415,-0.326976443,1,0,0,0.6823,button_right,0.6823,1,,,,,,189,WORD,UN,33,backup,CENSOR,m,,,,,,0.515388415,-0.326976443,1,0,0,,0,97,97,128,1,
,,,,,,,,,,,,,,,,,,5f318ffff91fee0689bb3c5c,2020-11-27_15h04.22.200,lexical_decision_task_MP_exp2,2020.2.5,Linux armv8l,60,,0,0.496344853,-0.324538444,1,0,0,0.6047,button_right,0.6047,1,,,,,,118,WORD,"ID",33,flight,FLIGHT,m,,,,,,0.496344853,-0.324538444,1,0,0,,0,98,98,57,1,
,,,,,,,,,,,,,,,,,,5f318ffff91fee0689bb3c5c,2020-11-27_15h04.22.200,lexical_decision_task_MP_exp2,2020.2.5,Linux armv8l,60,,0,-0.500615833,-0.292844161,1,0,0,0.8348,button_left,0.8348,1,,,,,,345,NW,"ID",33,absend,ABSEND,z,,,,,,-0.500615833,-0.292844161,1,0,0,,0,99,99,284,1,
,,,,,,,,,,,,,,,,,,5f318ffff91fee0689bb3c5c,2020-11-27_15h04.22.200,lexical_decision_task_MP_exp2,2020.2.5,Linux armv8l,60,,0,-0.512453764,-0.298207774,1,0,0,0.7002,button_left,0.7002,1,,,,,,421,NW,UN,33,alcoud,KNISMA,z,,,,,,-0.512453764,-0.298207774,1,0,0,,0,100,100,360,1,
,,,,,,,,,,,,,,,,,,5f318ffff91fee0689bb3c5c,2020-11-27_15h04.22.200,lexical_decision_task_MP_exp2,2020.2.5,Linux armv8l,60,,0,0.516932515,-0.306740844,1,0,0,0.6156,button_right,0.6156,1,,,,,,75,WORD,"ID",33,trophy,TROPHY,m,,,,,,0.516932515,-0.306740844,1,0,0,,0,101,101,14,1,
,,,,,,,,,,,,,,,,,,5f318ffff91fee0689bb3c5c,2020-11-27_15h04.22.200,lexical_decision_task_MP_exp2,2020.2.5,Linux armv8l,60,,0,0.515388415,-0.310154072,1,0,0,0.617,button_right,0.617,1,,,,,,43,WORD,UN,16,foster,TONGUE,m,,,,,,0.515388415,-0.310154072,1,0,0,,0,102,102,222,1,
,,,,,,,,,,,,,,,,,,5f318ffff91fee0689bb3c5c,2020-11-27_15h04.22.200,lexical_decision_task_MP_exp2,2020.2.5,Linux armv8l,60,,0,0.52722642,-0.300645847,1,0,0,0.9547,button_right,0.9547,1,,,,,,30,WORD,UN,16,weapon,ORIENT,m,,,,,,0.52722642,-0.300645847,1,0,0,,0,103,103,209,1,
,,,,,,,,,,,,,,,,,,5f318ffff91fee0689bb3c5c,2020-11-27_15h04.22.200,lexical_decision_task_MP_exp2,2020.2.5,Linux armv8l,60,,0,-0.477969309,-0.314298759,1,0,0,0.901,button_left,0.901,1,,,,,,422,NW,UN,33,streld,ALCOUD,z,,,,,,-0.477969309,-0.314298759,1,0,0,,0,104,104,361,1,
,,,,,,,,,,,,,,,,,,5f318ffff91fee0689bb3c5c,2020-11-27_15h04.22.200,lexical_decision_task_MP_exp2,2020.2.5,Linux armv8l,60,,0,0.502006457,-0.332340055,1,0,0,0.6339,button_right,0.6339,1,,,,,,88,WORD,"ID",33,hunger,HUNGER,m,,,,,,0.502006457,-0.332340055,1,0,0,,0,105,105,27,1,
,,,,,,,,,,,,,,,,,,5f318ffff91fee0689bb3c5c,2020-11-27_15h04.22.200,lexical_decision_task_MP_exp2,2020.2.5,Linux armv8l,60,,0,-0.491351341,-0.301621002,1,0,0,0.8347,button_left,0.8347,1,,,,,,275,NW,UN,16,yarmon,SLEIRT,z,,,,,,-0.491351341,-0.301621002,1,0,0,,0,106,106,454,1,
,,,,,,,,,,,,,,,,,,5f318ffff91fee0689bb3c5c,2020-11-27_15h04.22.200,lexical_decision_task_MP_exp2,2020.2.5,Linux armv8l,60,,0,-0.484660325,-0.313079686,1,0,0,0.666,button_left,0.666,1,,,,,,309,NW,"ID",33,amiloy,AMILOY,z,,,,,,-0.484660325,-0.313079686,1,0,0,,0,107,107,248,1,
,,,,,,,,,,,,,,,,,,5f318ffff91fee0689bb3c5c,2020-11-27_15h04.22.200,lexical_decision_task_MP_exp2,2020.2.5,Linux armv8l,60,,0,0.509726811,-0.311860686,1,0,0,0.585,button_right,0.585,1,,,,,,205,WORD,UN,33,tailor,LOUNGE,m,,,,,,0.509726811,-0.311860686,1,0,0,,0,108,108,144,1,
,,,,,,,,,,,,,,,,,,5f318ffff91fee0689bb3c5c,2020-11-27_15h04.22.200,lexical_decision_task_MP_exp2,2020.2.5,Linux armv8l,60,,0,-0.462013837,-0.292844161,1,0,0,0.6843,button_left,0.6843,1,,,,,,298,NW,UN,16,sturch,PIERGY,z,,,,,,-0.462013837,-0.292844161,1,0,0,,0,109,109,477,1,
,,,,,,,,,,,,,,,,,,5f318ffff91fee0689bb3c5c,2020-11-27_15h04.22.200,lexical_decision_task_MP_exp2,2020.2.5,Linux armv8l,60,,0,0.47112489,-0.313079686,1,0,0,0.5664,button_right,0.5664,1,,,,,,102,WORD,"ID",33,direct,DIRECT,m,,,,,,0.47112489,-0.313079686,1,0,0,,0,110,110,41,1,
,,,,,,,,,,,,,,,,,,5f318ffff91fee0689bb3c5c,2020-11-27_15h04.22.200,lexical_decision_task_MP_exp2,2020.2.5,Linux armv8l,60,,0,0.487595049,-0.313079686,1,0,0,0.7504,button_right,0.7504,1,,,,,,184,WORD,UN,33,bother,SLEAZY,m,,,,,,0.487595049,-0.313079686,1,0,0,,0,111,111,123,1,
,,,,,,,,,,,,,,,,,,5f318ffff91fee0689bb3c5c,2020-11-27_15h04.22.200,lexical_decision_task_MP_exp2,2020.2.5,Linux armv8l,60,,0,0.464433837,-0.3147863,1,0,0,0.5148,button_right,0.5148,1,,,,,,238,WORD,UN,33,behalf,FLOWER,m,,,,,,0.464433837,-0.3147863,1,0,0,,0,112,112,177,1,
,,,,,,,,,,,,,,,,,,5f318ffff91fee0689bb3c5c,2020-11-27_15h04.22.200,lexical_decision_task_MP_exp2,2020.2.5,Linux armv8l,60,,0,-0.479513409,-0.299670618,1,0,0,0.6494,button_left,0.6494,1,,,,,,331,NW,"ID",33,gilfew,GILFEW,z,,,,,,-0.479513409,-0.299670618,1,0,0,,0,113,113,270,1,
,,,,,,,,,,,,,,,,,,5f318ffff91fee0689bb3c5c,2020-11-27_15h04.22.200,lexical_decision_task_MP_exp2,2020.2.5,Linux armv8l,60,,0,-0.489292552,-0.292356547,1,0,0,0.6833,button_left,0.6833,1,,,,,,264,NW,UN,16,distar,VACKEL,z,,,,,,-0.489292552,-0.292356547,1,0,0,,0,114,114,443,1,
,,,,,,,,,,,,,,,,,,5f318ffff91fee0689bb3c5c,2020-11-27_15h04.22.200,lexical_decision_task_MP_exp2,2020.2.5,Linux armv8l,60,,0,0.503035758,-0.31454253,1,0,0,0.8302,button_right,0.8302,1,,,,,,203,WORD,UN,33,burden,PHRASE,m,,,,,,0.503035758,-0.31454253,1,0,0,,0,115,115,142,1,
,,,,,,,,,,,,,,,,,,5f318ffff91fee0689bb3c5c,2020-11-27_15h04.22.200,lexical_decision_task_MP_exp2,2020.2.5,Linux armv8l,60,,0,-0.482601573,-0.28553009,1,0,0,0.7176,button_left,0.7176,1,,,,,,417,NW,"ID",16,earoud,EAROUD,z,,,,,,-0.482601573,-0.28553009,1,0,0,,0,116,116,356,1,
,,,,,,,,,,,,,,,,,,5f318ffff91fee0689bb3c5c,2020-11-27_15h04.22.200,lexical_decision_task_MP_exp2,2020.2.5,Linux armv8l,60,,0,0.500977007,-0.326732598,1,0,0,0.6141,button_right,0.6141,1,,,,,,158,WORD,"ID",16,island,ISLAND,m,,,,,,0.500977007,-0.326732598,1,0,0,,0,117,117,97,1,
,,,,,,,,,,,,,,,,,,5f318ffff91fee0689bb3c5c,2020-11-27_15h04.22.200,lexical_decision_task_MP_exp2,2020.2.5,Linux armv8l,60,,0,0.509212161,-0.3242946,1,0,0,0.6692,button_right,0.6692,1,,,,,,223,WORD,UN,33,period,KIDNEY,m,,,,,,0.509212161,-0.3242946,1,0,0,,0,118,118,162,1,
,,,,,,,,,,,,,,,,,,5f318ffff91fee0689bb3c5c,2020-11-27_15h04.22.200,lexical_decision_task_MP_exp2,2020.2.5,Linux armv8l,60,,0,0.508182711,-0.320881371,1,0,0,0.5497,button_right,0.5497,1,,,,,,159,WORD,"ID",16,detail,DETAIL,m,,,,,,0.508182711,-0.320881371,1,0,0,,0,119,119,98,1,
,,,,,,,,,,,,,,,,,,5f318ffff91fee0689bb3c5c,2020-11-27_15h04.22.200,lexical_decision_task_MP_exp2,2020.2.5,Linux armv8l,60,,0,0.535461426,-0.333559055,1,0,0,0.801,button_right,0.801,1,,,,,,66,WORD,"ID",33,gospel,GOSPEL,m,,,,,,0.049591139,-0.391827778,1,0,0,,0,120,120,5,1,break_done_button
,,,,,,,,,,,,,,,,,,5f318ffff91fee0689bb3c5c,2020-11-27_15h04.22.200,lexical_decision_task_MP_exp2,2020.2.5,Linux armv8l,60,,0,-0.526865172,-0.281141633,1,0,0,0.7354,button_left,0.7354,1,,,,,,398,NW,"ID",16,blunde,BLUNDE,z,,,,,,-0.526865172,-0.281141633,1,0,0,,0,121,121,337,1,
,,,,,,,,,,,,,,,,,,5f318ffff91fee0689bb3c5c,2020-11-27_15h04.22.200,lexical_decision_task_MP_exp2,2020.2.5,Linux armv8l,60,,0,0.495315404,-0.284067247,1,0,0,0.6025,button_right,0.6025,1,,,,,,17,WORD,UN,16,humble,CHARGE,m,,,,,,0.495315404,-0.284067247,1,0,0,,0,122,122,196,1,
,,,,,,,,,,,,,,,,,,5f318ffff91fee0689bb3c5c,2020-11-27_15h04.22.200,lexical_decision_task_MP_exp2,2020.2.5,Linux armv8l,60,,0,-0.460984462,-0.288699548,1,0,0,0.7173,button_left,0.7173,1,,,,,,420,NW,"ID",16,gushop,GUSHOP,z,,,,,,-0.460984462,-0.288699548,1,0,0,,0,123,123,359,1,
,,,,,,,,,,,,,,,,,,5f318ffff91fee0689bb3c5c,2020-11-27_15h04.22.200,lexical_decision_task_MP_exp2,2020.2.5,Linux armv8l,60,,0,-0.48157216,-0.298939233,1,0,0,0.6328,button_left,0.6328,1,,,,,,330,NW,"ID",33,kensom,KENSOM,z,,,,,,-0.48157216,-0.298939233,1,0,0,,0,124,124,269,1,
,,,,,,,,,,,,,,,,,,5f318ffff91fee0689bb3c5c,2020-11-27_15h04.22.200,lexical_decision_task_MP_exp2,2020.2.5,Linux armv8l,60,,0,-0.483630949,-0.30625323,1,0,0,0.7009,button_left,0.7009,1,,,,,,386,NW,"ID",16,ancust,ANCUST,z,,,,,,-0.483630949,-0.30625323,1,0,0,,0,125,125,325,1,
,,,,,,,,,,,,,,,,,,5f318ffff91fee0689bb3c5c,2020-11-27_15h04.22.200,lexical_decision_task_MP_exp2,2020.2.5,Linux armv8l,60,,0,-0.498557044,-0.283823476,1,0,0,0.6304,button_left,0.6304,1,,,,,,359,NW,"ID",33,fonver,FONVER,z,,,,,,-0.498557044,-0.283823476,1,0,0,,0,126,126,298,1,
,,,,,,,,,,,,,,,,,,5f318ffff91fee0689bb3c5c,2020-11-27_15h04.22.200,lexical_decision_task_MP_exp2,2020.2.5,Linux armv8l,60,,0,-0.468704853,-0.294794546,1,0,0,1.0017,button_left,1.0017,1,,,,,,355,NW,"ID",33,zingly,ZINGLY,z,,,,,,-0.468704853,-0.294794546,1,0,0,,0,127,127,294,1,
,,,,,,,,,,,,,,,,,,5f318ffff91fee0689bb3c5c,2020-11-27_15h04.22.200,lexical_decision_task_MP_exp2,2020.2.5,Linux armv8l,60,,0,0.482448096,-0.302108617,1,0,0,0.6497,button_right,0.6497,1,,,,,,28,WORD,UN,16,sketch,COMEDY,m,,,,,,0.482448096,-0.302108617,1,0,0,,0,128,128,207,1,
,,,,,,,,,,,,,,,,,,5f318ffff91fee0689bb3c5c,2020-11-27_15h04.22.200,lexical_decision_task_MP_exp2,2020.2.5,Linux armv8l,60,,0,0.507153409,-0.313079686,1,0,0,0.565,button_right,0.565,1,,,,,,71,WORD,"ID",33,garden,GARDEN,m,,,,,,0.507153409,-0.313079686,1,0,0,,0,129,129,10,1,
,,,,,,,,,,,,,,,,,,5f318ffff91fee0689bb3c5c,2020-11-27_15h04.22.200,lexical_decision_task_MP_exp2,2020.2.5,Linux armv8l,60,,0,-0.484660325,-0.287724319,1,0,0,0.8023,button_left,0.8023,1,,,,,,306,NW,"ID",33,sounge,SOUNGE,z,,,,,,-0.484660325,-0.287724319,1,0,0,,0,130,130,245,1,
,,,,,,,,,,,,,,,,,,5f318ffff91fee0689bb3c5c,2020-11-27_15h04.22.200,lexical_decision_task_MP_exp2,2020.2.5,Linux armv8l,60,,0,0.496344853,-0.315030144,1,0,0,0.6532,button_right,0.6532,1,,,,,,135,WORD,"ID",16,import,IMPORT,m,,,,,,0.496344853,-0.315030144,1,0,0,,0,131,131,74,1,
,,,,,,,,,,,,,,,,,,5f318ffff91fee0689bb3c5c,2020-11-27_15h04.22.200,lexical_decision_task_MP_exp2,2020.2.5,Linux armv8l,60,,0,-0.477454621,-0.279922633,1,0,0,0.7166,button_left,0.7166,1,,,,,,256,NW,UN,16,veniod,INLORS,z,,,,,,-0.477454621,-0.279922633,1,0,0,,0,132,132,435,1,
,,,,,,,,,,,,,,,,,,5f318ffff91fee0689bb3c5c,2020-11-27_15h04.22.200,lexical_decision_task_MP_exp2,2020.2.5,Linux armv8l,60,,0,0.491197901,-0.310397991,1,0,0,0.6506,button_right,0.6506,1,,,,,,209,WORD,UN,33,monkey,SEARCH,m,,,,,,0.491197901,-0.310397991,1,0,0,,0,133,133,148,1,
,,,,,,,,,,,,,,,,,,5f318ffff91fee0689bb3c5c,2020-11-27_15h04.22.200,lexical_decision_task_MP_exp2,2020.2.5,Linux armv8l,60,,0,0.423258365,-0.318199528,1,0,0,0.5711,button_right,0.5711,1,,,,,,12,WORD,UN,16,strive,ORANGE,m,,,,,,0.423258365,-0.318199528,1,0,0,,0,134,134,191,1,
,,,,,,,,,,,,,,,,,,5f318ffff91fee0689bb3c5c,2020-11-27_15h04.22.200,lexical_decision_task_MP_exp2,2020.2.5,Linux armv8l,60,,0,-0.460469737,-0.265294492,1,0,0,0.7182,button_left,0.7182,1,,,,,,304,NW,"ID",33,cludie,CLUDIE,z,,,,,,-0.460469737,-0.265294492,1,0,0,,0,135,135,243,1,
,,,,,,,,,,,,,,,,,,5f318ffff91fee0689bb3c5c,2020-11-27_15h04.22.200,lexical_decision_task_MP_exp2,2020.2.5,Linux armv8l,60,,0,-0.463557901,-0.287724319,1,0,0,0.6851,button_left,0.6851,1,,,,,,241,NW,UN,16,unwert,SMENCO,z,,,,,,-0.463557901,-0.287724319,1,0,0,,0,136,136,420,1,
,,,,,,,,,,,,,,,,,,5f318ffff91fee0689bb3c5c,2020-11-27_15h04.22.200,lexical_decision_task_MP_exp2,2020.2.5,Linux armv8l,60,,0,0.467522038,-0.304546615,1,0,0,0.7171,button_right,0.7171,1,,,,,,13,WORD,UN,16,almost,STRIVE,m,,,,,,0.467522038,-0.304546615,1,0,0,,0,137,137,192,1,
,,,,,,,,,,,,,,,,,,5f318ffff91fee0689bb3c5c,2020-11-27_15h04.22.200,lexical_decision_task_MP_exp2,2020.2.5,Linux armv8l,60,,0,-0.462013837,-0.281141633,1,0,0,0.7014,button_left,0.7014,1,,,,,,374,NW,"ID",16,sliant,SLIANT,z,,,,,,-0.462013837,-0.281141633,1,0,0,,0,138,138,313,1,
,,,,,,,,,,,,,,,,,,5f318ffff91fee0689bb3c5c,2020-11-27_15h04.22.200,lexical_decision_task_MP_exp2,2020.2.5,Linux armv8l,60,,0,-0.487233801,-0.282604477,1,0,0,0.7355,button_left,0.7355,1,,,,,,414,NW,"ID",16,serbol,SERBOL,z,,,,,,-0.487233801,-0.282604477,1,0,0,,0,139,139,353,1,
,,,,,,,,,,,,,,,,,,5f318ffff91fee0689bb3c5c,2020-11-27_15h04.22.200,lexical_decision_task_MP_exp2,2020.2.5,Linux armv8l,60,,0,0.499947705,-0.315517833,1,0,0,0.6646,button_right,0.6646,1,,,,,,195,WORD,UN,33,credit,RESIGN,m,,,,,,0.499947705,-0.315517833,1,0,0,,0,140,140,134,1,
,,,,,,,,,,,,,,,,,,5f318ffff91fee0689bb3c5c,2020-11-27_15h04.22.200,lexical_decision_task_MP_exp2,2020.2.5,Linux armv8l,60,,0,0.499947705,-0.303327616,1,0,0,0.6469,button_right,0.6469,1,,,,,,19,WORD,UN,16,breast,PATRON,m,,,,,,0.499947705,-0.303327616,1,0,0,,0,141,141,198,1,
,,,,,,,,,,,,,,,,,,5f318ffff91fee0689bb3c5c,2020-11-27_15h04.22.200,lexical_decision_task_MP_exp2,2020.2.5,Linux armv8l,60,,0,-0.489292552,-0.265050721,1,0,0,0.9733,button_left,0.9733,1,,,,,,335,NW,"ID",33,desion,DESION,z,,,,,,-0.489292552,-0.265050721,1,0,0,,0,142,142,274,1,
,,,,,,,,,,,,,,,,,,5f318ffff91fee0689bb3c5c,2020-11-27_15h04.22.200,lexical_decision_task_MP_exp2,2020.2.5,Linux armv8l,60,,0,-0.476425245,-0.296988774,1,0,0,0.8168,button_left,0.8168,1,,,,,,282,NW,UN,16,veralf,PORLEX,z,,,,,,-0.476425245,-0.296988774,1,0,0,,0,143,143,461,1,
,,,,,,,,,,,,,,,,,,5f318ffff91fee0689bb3c5c,2020-11-27_15h04.22.200,lexical_decision_task_MP_exp2,2020.2.5,Linux armv8l,60,,0,0.493771303,-0.28674909,1,0,0,0.7164,button_right,0.7164,1,,,,,,175,WORD,"ID",16,fabric,FABRIC,m,,,,,,0.493771303,-0.28674909,1,0,0,,0,144,144,114,1,
,,,,,,,,,,,,,,,,,,5f318ffff91fee0689bb3c5c,2020-11-27_15h04.22.200,lexical_decision_task_MP_exp2,2020.2.5,Linux armv8l,60,,0,0.498918256,-0.315761529,1,0,0,0.7477,button_right,0.7477,1,,,,,,165,WORD,"ID",16,invest,INVEST,m,,,,,,0.498918256,-0.315761529,1,0,0,,0,145,145,104,1,
,,,,,,,,,,,,,,,,,,5f318ffff91fee0689bb3c5c,2020-11-27_15h04.22.200,lexical_decision_task_MP_exp2,2020.2.5,Linux armv8l,60,,0,-0.490321965,-0.273340022,1,0,0,0.6468,button_left,0.6468,1,,,,,,326,NW,"ID",33,iguade,IGUADE,z,,,,,,-0.490321965,-0.273340022,1,0,0,,0,146,146,265,1,
,,,,,,,,,,,,,,,,,,5f318ffff91fee0689bb3c5c,2020-11-27_15h04.22.200,lexical_decision_task_MP_exp2,2020.2.5,Linux armv8l,60,,0,-0.501645209,-0.301133387,1,0,0,0.7129,button_left,0.7129,1,,,,,,459,NW,UN,33,mingar,BAFENT,z,,,,,,-0.501645209,-0.301133387,1,0,0,,0,147,147,398,1,
,,,,,,,,,,,,,,,,,,5f318ffff91fee0689bb3c5c,2020-11-27_15h04.22.200,lexical_decision_task_MP_exp2,2020.2.5,Linux armv8l,60,,0,-0.464587313,-0.28528632,1,0,0,0.5839,button_left,0.5839,1,,,,,,463,NW,UN,33,chaite,KISPEL,z,,,,,,-0.464587313,-0.28528632,1,0,0,,0,148,148,402,1,
,,,,,,,,,,,,,,,,,,5f318ffff91fee0689bb3c5c,2020-11-27_15h04.22.200,lexical_decision_task_MP_exp2,2020.2.5,Linux armv8l,60,,0,0.494800753,-0.314298759,1,0,0,0.5963,button_right,0.5963,1,,,,,,77,WORD,"ID",33,racket,RACKET,m,,,,,,0.494800753,-0.314298759,1,0,0,,0,149,149,16,1,
,,,,,,,,,,,,,,,,,,5f318ffff91fee0689bb3c5c,2020-11-27_15h04.22.200,lexical_decision_task_MP_exp2,2020.2.5,Linux armv8l,60,,0,-0.469734229,-0.305765689,1,0,0,0.6694,button_left,0.6694,1,,,,,,332,NW,"ID",33,vangue,VANGUE,z,,,,,,-0.469734229,-0.305765689,1,0,0,,0,150,150,271,1,
,,,,,,,,,,,,,,,,,,5f318ffff91fee0689bb3c5c,2020-11-27_15h04.22.200,lexical_decision_task_MP_exp2,2020.2.5,Linux armv8l,60,,0,0.506123959,-0.315761529,1,0,0,0.6663,button_right,0.6663,1,,,,,,1,WORD,UN,16,ethnic,FRIGHT,m,,,,,,0.506123959,-0.315761529,1,0,0,,0,151,151,180,1,
,,,,,,,,,,,,,,,,,,5f318ffff91fee0689bb3c5c,2020-11-27_15h04.22.200,lexical_decision_task_MP_exp2,2020.2.5,Linux armv8l,60,,0,0.531858574,-0.312835916,1,0,0,0.5854,button_right,0.5854,1,,,,,,188,WORD,UN,33,censor,SOCIAL,m,,,,,,0.531858574,-0.312835916,1,0,0,,0,152,152,127,1,
,,,,,,,,,,,,,,,,,,5f318ffff91fee0689bb3c5c,2020-11-27_15h04.22.200,lexical_decision_task_MP_exp2,2020.2.5,Linux armv8l,60,,0,-0.472307705,-0.305765689,1,0,0,0.7169,button_left,0.7169,1,,,,,,445,NW,UN,33,runamo,MINKEL,z,,,,,,-0.472307705,-0.305765689,1,0,0,,0,153,153,384,1,
,,,,,,,,,,,,,,,,,,5f318ffff91fee0689bb3c5c,2020-11-27_15h04.22.200,lexical_decision_task_MP_exp2,2020.2.5,Linux armv8l,60,,0,-0.489807277,-0.306740844,1,0,0,0.9189,button_left,0.9189,1,,,,,,395,NW,"ID",16,colury,COLURY,z,,,,,,-0.489807277,-0.306740844,1,0,0,,0,154,154,334,1,
,,,,,,,,,,,,,,,,,,5f318ffff91fee0689bb3c5c,2020-11-27_15h04.22.200,lexical_decision_task_MP_exp2,2020.2.5,Linux armv8l,60,,0,0.500462356,-0.33160867,1,0,0,0.6518,button_right,0.6518,1,,,,,,14,WORD,UN,16,orange,ALMOST,m,,,,,,0.500462356,-0.33160867,1,0,0,,0,155,155,193,1,
,,,,,,,,,,,,,,,,,,5f318ffff91fee0689bb3c5c,2020-11-27_15h04.22.200,lexical_decision_task_MP_exp2,2020.2.5,Linux armv8l,60,,0,0.534946775,-0.299183003,1,0,0,0.5508,button_right,0.5508,1,,,,,,143,WORD,"ID",16,reason,REASON,m,,,,,,0.534946775,-0.299183003,1,0,0,,0,156,156,82,1,
,,,,,,,,,,,,,,,,,,5f318ffff91fee0689bb3c5c,2020-11-27_15h04.22.200,lexical_decision_task_MP_exp2,2020.2.5,Linux armv8l,60,,0,-0.478998721,-0.269682949,1,0,0,0.66,button_left,0.66,1,,,,,,348,NW,"ID",33,dumple,DUMPLE,z,,,,,,-0.478998721,-0.269682949,1,0,0,,0,157,157,287,1,
,,,,,,,,,,,,,,,,,,5f318ffff91fee0689bb3c5c,2020-11-27_15h04.22.200,lexical_decision_task_MP_exp2,2020.2.5,Linux armv8l,60,,0,0.521564817,-0.320881371,1,0,0,0.6208,button_right,0.6208,1,,,,,,73,WORD,"ID",33,source,SOURCE,m,,,,,,0.521564817,-0.320881371,1,0,0,,0,158,158,12,1,
,,,,,,,,,,,,,,,,,,5f318ffff91fee0689bb3c5c,2020-11-27_15h04.22.200,lexical_decision_task_MP_exp2,2020.2.5,Linux armv8l,60,,0,-0.474366457,-0.288699548,1,0,0,0.617,button_left,0.617,1,,,,,,428,NW,UN,33,funtle,TANDLY,z,,,,,,-0.474366457,-0.288699548,1,0,0,,0,159,159,367,1,
,,,,,,,,,,,,,,,,,,5f318ffff91fee0689bb3c5c,2020-11-27_15h04.22.200,lexical_decision_task_MP_exp2,2020.2.5,Linux armv8l,60,,0,-0.486719113,-0.284067247,1,0,0,0.6509,button_left,0.6509,1,,,,,,444,NW,UN,33,minkel,JAUNCE,z,,,,,,-0.486719113,-0.284067247,1,0,0,,0,160,160,383,1,
,,,,,,,,,,,,,,,,,,5f318ffff91fee0689bb3c5c,2020-11-27_15h04.22.200,lexical_decision_task_MP_exp2,2020.2.5,Linux armv8l,60,,0,-0.48157216,-0.28528632,1,0,0,0.7683,button_left,0.7683,1,,,,,,268,NW,UN,16,orchet,PACKES,z,,,,,,-0.48157216,-0.28528632,1,0,0,,0,161,161,447,1,
,,,,,,,,,,,,,,,,,,5f318ffff91fee0689bb3c5c,2020-11-27_15h04.22.200,lexical_decision_task_MP_exp2,2020.2.5,Linux armv8l,60,,0,-0.501130521,-0.284067247,1,0,0,0.6145,button_left,0.6145,1,,,,,,411,NW,"ID",16,orchin,ORCHIN,z,,,,,,-0.501130521,-0.284067247,1,0,0,,0,162,162,350,1,
,,,,,,,,,,,,,,,,,,5f318ffff91fee0689bb3c5c,2020-11-27_15h04.22.200,lexical_decision_task_MP_exp2,2020.2.5,Linux armv8l,60,,0,-0.485175012,-0.241889509,1,0,0,0.6984,button_left,0.6984,1,,,,,,372,NW,"ID",16,ramily,RAMILY,z,,,,,,-0.485175012,-0.241889509,1,0,0,,0,163,163,311,1,
,,,,,,,,,,,,,,,,,,5f318ffff91fee0689bb3c5c,2020-11-27_15h04.22.200,lexical_decision_task_MP_exp2,2020.2.5,Linux armv8l,60,,0,-0.488777864,-0.269439253,1,0,0,0.6828,button_left,0.6828,1,,,,,,430,NW,UN,33,chrums,CAROEY,z,,,,,,-0.488777864,-0.269439253,1,0,0,,0,164,164,369,1,
,,,,,,,,,,,,,,,,,,5f318ffff91fee0689bb3c5c,2020-11-27_15h04.22.200,lexical_decision_task_MP_exp2,2020.2.5,Linux armv8l,60,,0,-0.498042357,-0.288699548,1,0,0,0.5976,button_left,0.5976,1,,,,,,353,NW,"ID",33,clurey,CLUREY,z,,,,,,-0.498042357,-0.288699548,1,0,0,,0,165,165,292,1,
,,,,,,,,,,,,,,,,,,5f318ffff91fee0689bb3c5c,2020-11-27_15h04.22.200,lexical_decision_task_MP_exp2,2020.2.5,Linux armv8l,60,,0,-0.494439505,-0.284554861,1,0,0,0.6679,button_left,0.6679,1,,,,,,245,NW,UN,16,piaton,ANOUGS,z,,,,,,-0.494439505,-0.284554861,1,0,0,,0,166,166,424,1,
,,,,,,,,,,,,,,,,,,5f318ffff91fee0689bb3c5c,2020-11-27_15h04.22.200,lexical_decision_task_MP_exp2,2020.2.5,Linux armv8l,60,,0,-0.508336225,-0.309666458,1,0,0,0.6334,button_left,0.6334,1,,,,,,480,NW,UN,33,knisma,ROBULY,z,,,,,,-0.508336225,-0.309666458,1,0,0,,0,167,167,419,1,
,,,,,,,,,,,,,,,,,,5f318ffff91fee0689bb3c5c,2020-11-27_15h04.22.200,lexical_decision_task_MP_exp2,2020.2.5,Linux armv8l,60,,0,-0.525321072,-0.270170564,1,0,0,0.6344,button_left,0.6344,1,,,,,,435,NW,UN,33,frutan,IMPURB,z,,,,,,-0.525321072,-0.270170564,1,0,0,,0,168,168,374,1,
,,,,,,,,,,,,,,,,,,5f318ffff91fee0689bb3c5c,2020-11-27_15h04.22.200,lexical_decision_task_MP_exp2,2020.2.5,Linux armv8l,60,,0,-0.514512516,-0.297476389,1,0,0,0.6672,button_left,0.6672,1,,,,,,243,NW,UN,16,eatric,MUSIED,z,,,,,,-0.514512516,-0.297476389,1,0,0,,0,169,169,422,1,
,,,,,,,,,,,,,,,,,,5f318ffff91fee0689bb3c5c,2020-11-27_15h04.22.200,lexical_decision_task_MP_exp2,2020.2.5,Linux armv8l,60,,0,0.483992197,-0.299670618,1,0,0,0.6523,button_right,0.6523,1,,,,,,51,WORD,UN,16,impose,HUNGRY,m,,,,,,0.483992197,-0.299670618,1,0,0,,0,170,170,230,1,
,,,,,,,,,,,,,,,,,,5f318ffff91fee0689bb3c5c,2020-11-27_15h04.22.200,lexical_decision_task_MP_exp2,2020.2.5,Linux armv8l,60,,0,0.498403605,-0.300645847,1,0,0,0.6855,button_right,0.6855,1,,,,,,98,WORD,"ID",33,belong,BELONG,m,,,,,,0.498403605,-0.300645847,1,0,0,,0,171,171,37,1,
,,,,,,,,,,,,,,,,,,5f318ffff91fee0689bb3c5c,2020-11-27_15h04.22.200,lexical_decision_task_MP_exp2,2020.2.5,Linux armv8l,60,,0,0.513844314,-0.299670618,1,0,0,0.5997,button_right,0.5997,1,,,,,,94,WORD,"ID",33,travel,TRAVEL,m,,,,,,0.513844314,-0.299670618,1,0,0,,0,172,172,33,1,
,,,,,,,,,,,,,,,,,,5f318ffff91fee0689bb3c5c,2020-11-27_15h04.22.200,lexical_decision_task_MP_exp2,2020.2.5,Linux armv8l,60,,0,0.503550557,-0.322587985,1,0,0,0.9843,button_right,0.9843,1,,,,,,212,WORD,UN,33,squeal,VERIFY,m,,,,,,0.503550557,-0.322587985,1,0,0,,0,173,173,151,1,
,,,,,,,,,,,,,,,,,,5f318ffff91fee0689bb3c5c,2020-11-27_15h04.22.200,lexical_decision_task_MP_exp2,2020.2.5,Linux armv8l,60,,0,-0.51760068,-0.30479046,1,0,0,0.7341,button_left,0.7341,1,,,,,,246,NW,UN,16,blarge,PIATON,z,,,,,,-0.51760068,-0.30479046,1,0,0,,0,174,174,425,1,
,,,,,,,,,,,,,,,,,,5f318ffff91fee0689bb3c5c,2020-11-27_15h04.22.200,lexical_decision_task_MP_exp2,2020.2.5,Linux armv8l,60,,0,0.503550557,-0.336728513,1,0,0,0.6999,button_right,0.6999,1,,,,,,191,WORD,UN,33,beacon,STABLE,m,,,,,,0.503550557,-0.336728513,1,0,0,,0,175,175,130,1,
,,,,,,,,,,,,,,,,,,5f318ffff91fee0689bb3c5c,2020-11-27_15h04.22.200,lexical_decision_task_MP_exp2,2020.2.5,Linux armv8l,60,,0,0.496859504,-0.311616916,1,0,0,0.5838,button_right,0.5838,1,,,,,,21,WORD,UN,16,jockey,SIMPLE,m,,,,,,0.496859504,-0.311616916,1,0,0,,0,176,176,200,1,
,,,,,,,,,,,,,,,,,,5f318ffff91fee0689bb3c5c,2020-11-27_15h04.22.200,lexical_decision_task_MP_exp2,2020.2.5,Linux armv8l,60,,0,0.473698292,-0.323563215,1,0,0,0.6005,button_right,0.6005,1,,,,,,150,WORD,"ID",16,random,RANDOM,m,,,,,,0.473698292,-0.323563215,1,0,0,,0,177,177,89,1,
,,,,,,,,,,,,,,,,,,5f318ffff91fee0689bb3c5c,2020-11-27_15h04.22.200,lexical_decision_task_MP_exp2,2020.2.5,Linux armv8l,60,,0,-0.519659468,-0.293575546,1,0,0,0.7171,button_left,0.7171,1,,,,,,311,NW,"ID",33,sproly,SPROLY,z,,,,,,-0.519659468,-0.293575546,1,0,0,,0,178,178,250,1,
,,,,,,,,,,,,,,,,,,5f318ffff91fee0689bb3c5c,2020-11-27_15h04.22.200,lexical_decision_task_MP_exp2,2020.2.5,Linux armv8l,60,,0,-0.518630093,-0.267732639,1,0,0,0.6512,button_left,0.6512,1,,,,,,401,NW,"ID",16,mustil,MUSTIL,z,,,,,,-0.518630093,-0.267732639,1,0,0,,0,179,179,340,1,
,,,,,,,,,,,,,,,,,,5f318ffff91fee0689bb3c5c,2020-11-27_15h04.22.200,lexical_decision_task_MP_exp2,2020.2.5,Linux armv8l,60,,0,-0.482086848,-0.296013545,1,0,0,0.6473,button_left,0.6473,1,,,,,,440,NW,UN,33,rastoe,SARIDE,z,,,,,,-0.482086848,-0.296013545,1,0,0,,0,180,180,379,1,
,,,,,,,,,,,,,,,,,,5f318ffff91fee0689bb3c5c,2020-11-27_15h04.22.200,lexical_decision_task_MP_exp2,2020.2.5,Linux armv8l,60,,0,0.480903996,-0.296745078,1,0,0,0.8502,button_right,0.8502,1,,,,,,145,WORD,"ID",16,parish,PARISH,m,,,,,,0.480903996,-0.296745078,1,0,0,,0,181,181,84,1,
,,,,,,,,,,,,,,,,,,5f318ffff91fee0689bb3c5c,2020-11-27_15h04.22.200,lexical_decision_task_MP_exp2,2020.2.5,Linux armv8l,60,,0,-0.484145637,-0.312835916,1,0,0,0.8671,button_left,0.8671,1,,,,,,450,NW,UN,33,cainky,PHRECT,z,,,,,,-0.484145637,-0.312835916,1,0,0,,0,182,182,389,1,
,,,,,,,,,,,,,,,,,,5f318ffff91fee0689bb3c5c,2020-11-27_15h04.22.200,lexical_decision_task_MP_exp2,2020.2.5,Linux armv8l,60,,0,-0.508336225,-0.299670618,1,0,0,0.8001,button_left,0.8001,1,,,,,,352,NW,"ID",33,tringe,TRINGE,z,,,,,,-0.508336225,-0.299670618,1,0,0,,0,183,183,291,1,
,,,,,,,,,,,,,,,,,,5f318ffff91fee0689bb3c5c,2020-11-27_15h04.22.200,lexical_decision_task_MP_exp2,2020.2.5,Linux armv8l,60,,0,0.477815795,-0.304546615,1,0,0,0.7175,button_right,0.7175,1,,,,,,193,WORD,UN,33,mildew,OBJECT,m,,,,,,0.477815795,-0.304546615,1,0,0,,0,184,184,132,1,
,,,,,,,,,,,,,,,,,,5f318ffff91fee0689bb3c5c,2020-11-27_15h04.22.200,lexical_decision_task_MP_exp2,2020.2.5,Linux armv8l,60,,0,-0.479513409,-0.314298759,1,0,0,0.8331,button_left,0.8331,1,,,,,,244,NW,UN,16,anougs,EATRIC,z,,,,,,-0.479513409,-0.314298759,1,0,0,,0,185,185,423,1,
,,,,,,,,,,,,,,,,,,5f318ffff91fee0689bb3c5c,2020-11-27_15h04.22.200,lexical_decision_task_MP_exp2,2020.2.5,Linux armv8l,60,,0,-0.509880288,-0.308447458,1,0,0,0.6996,button_left,0.6996,1,,,,,,466,NW,UN,33,robuly,HOCITE,z,,,,,,-0.509880288,-0.308447458,1,0,0,,0,186,186,405,1,
,,,,,,,,,,,,,,,,,,5f318ffff91fee0689bb3c5c,2020-11-27_15h04.22.200,lexical_decision_task_MP_exp2,2020.2.5,Linux armv8l,60,,0,-0.513997828,-0.312592145,1,0,0,0.6839,button_left,0.6839,1,,,,,,340,NW,"ID",33,fiatch,FIATCH,z,,,,,,-0.513997828,-0.312592145,1,0,0,,0,187,187,279,1,
,,,,,,,,,,,,,,,,,,5f318ffff91fee0689bb3c5c,2020-11-27_15h04.22.200,lexical_decision_task_MP_exp2,2020.2.5,Linux armv8l,60,,0,-0.523777008,-0.319174757,1,0,0,0.651,button_left,0.651,1,,,,,,279,NW,UN,16,curbol,CELOND,z,,,,,,-0.523777008,-0.319174757,1,0,0,,0,188,188,458,1,
,,,,,,,,,,,,,,,,,,5f318ffff91fee0689bb3c5c,2020-11-27_15h04.22.200,lexical_decision_task_MP_exp2,2020.2.5,Linux armv8l,60,,0,0.483992197,-0.308691377,1,0,0,0.7311,button_right,0.7311,1,,,,,,151,WORD,"ID",16,mystic,MYSTIC,m,,,,,,0.483992197,-0.308691377,1,0,0,,0,189,189,90,1,
,,,,,,,,,,,,,,,,,,5f318ffff91fee0689bb3c5c,2020-11-27_15h04.22.200,lexical_decision_task_MP_exp2,2020.2.5,Linux armv8l,60,,0,-0.500615833,-0.293087932,1,0,0,0.7531,button_left,0.7531,1,,,,,,370,NW,"ID",16,sleact,SLEACT,z,,,,,,-0.500615833,-0.293087932,1,0,0,,0,190,190,309,1,
,,,,,,,,,,,,,,,,,,5f318ffff91fee0689bb3c5c,2020-11-27_15h04.22.200,lexical_decision_task_MP_exp2,2020.2.5,Linux armv8l,60,,0,-0.485175012,-0.278947404,1,0,0,0.6644,button_left,0.6644,1,,,,,,456,NW,UN,33,wanigh,BROGET,z,,,,,,-0.485175012,-0.278947404,1,0,0,,0,191,191,395,1,
,,,,,,,,,,,,,,,,,,5f318ffff91fee0689bb3c5c,2020-11-27_15h04.22.200,lexical_decision_task_MP_exp2,2020.2.5,Linux armv8l,60,,0,0.487080398,-0.287968089,1,0,0,0.6163,button_right,0.6163,1,,,,,,127,WORD,"ID",16,castle,CASTLE,m,,,,,,0.487080398,-0.287968089,1,0,0,,0,192,192,66,1,
,,,,,,,,,,,,,,,,,,5f318ffff91fee0689bb3c5c,2020-11-27_15h04.22.200,lexical_decision_task_MP_exp2,2020.2.5,Linux armv8l,60,,0,-0.473337081,-0.318443372,1,0,0,0.6835,button_left,0.6835,1,,,,,,315,NW,"ID",33,laston,LASTON,z,,,,,,-0.473337081,-0.318443372,1,0,0,,0,193,193,254,1,
,,,,,,,,,,,,,,,,,,5f318ffff91fee0689bb3c5c,2020-11-27_15h04.22.200,lexical_decision_task_MP_exp2,2020.2.5,Linux armv8l,60,,0,0.473698292,-0.295769775,1,0,0,0.7498,button_right,0.7498,1,,,,,,116,WORD,"ID",33,tumble,TUMBLE,m,,,,,,0.473698292,-0.295769775,1,0,0,,0,194,194,55,1,
,,,,,,,,,,,,,,,,,,5f318ffff91fee0689bb3c5c,2020-11-27_15h04.22.200,lexical_decision_task_MP_exp2,2020.2.5,Linux armv8l,60,,0,0.448478328,-0.324050903,1,0,0,1.1213,button_right,1.1213,1,,,,,,220,WORD,UN,33,mascot,VOYAGE,m,,,,,,0.448478328,-0.324050903,1,0,0,,0,195,195,159,1,
,,,,,,,,,,,,,,,,,,5f318ffff91fee0689bb3c5c,2020-11-27_15h04.22.200,lexical_decision_task_MP_exp2,2020.2.5,Linux armv8l,60,,0,-0.456866885,-0.292600317,1,0,0,0.6684,button_left,0.6684,1,,,,,,396,NW,"ID",16,flengy,FLENGY,z,,,,,,-0.456866885,-0.292600317,1,0,0,,0,196,196,335,1,
,,,,,,,,,,,,,,,,,,5f318ffff91fee0689bb3c5c,2020-11-27_15h04.22.200,lexical_decision_task_MP_exp2,2020.2.5,Linux armv8l,60,,0,0.469580789,-0.309178917,1,0,0,0.6489,button_right,0.6489,1,,,,,,3,WORD,UN,16,trench,KNIGHT,m,,,,,,0.469580789,-0.309178917,1,0,0,,0,197,197,182,1,
,,,,,,,,,,,,,,,,,,5f318ffff91fee0689bb3c5c,2020-11-27_15h04.22.200,lexical_decision_task_MP_exp2,2020.2.5,Linux armv8l,60,,0,-0.483630949,-0.279191249,1,0,0,0.7681,button_left,0.7681,1,,,,,,383,NW,"ID",16,aungre,AUNGRE,z,,,,,,-0.483630949,-0.279191249,1,0,0,,0,198,198,322,1,
,,,,,,,,,,,,,,,,,,5f318ffff91fee0689bb3c5c,2020-11-27_15h04.22.200,lexical_decision_task_MP_exp2,2020.2.5,Linux armv8l,60,,0,-0.483630949,-0.289430933,1,0,0,0.6669,button_left,0.6669,1,,,,,,347,NW,"ID",33,kerift,KERIFT,z,,,,,,-0.483630949,-0.289430933,1,0,0,,0,199,199,286,1,
,,,,,,,,,,,,,,,,,,5f318ffff91fee0689bb3c5c,2020-11-27_15h04.22.200,lexical_decision_task_MP_exp2,2020.2.5,Linux armv8l,60,,0,0.463404387,-0.312835916,1,0,0,0.6324,button_right,0.6324,1,,,,,,129,WORD,"ID",16,marvel,MARVEL,m,,,,,,0.463404387,-0.312835916,1,0,0,,0,200,200,68,1,
,,,,,,,,,,,,,,,,,,5f318ffff91fee0689bb3c5c,2020-11-27_15h04.22.200,lexical_decision_task_MP_exp2,2020.2.5,Linux armv8l,60,,0,-0.481057473,-0.270658178,1,0,0,0.6707,button_left,0.6707,1,,,,,,272,NW,UN,16,sortel,DAMILT,z,,,,,,-0.481057473,-0.270658178,1,0,0,,0,201,201,451,1,
,,,,,,,,,,,,,,,,,,5f318ffff91fee0689bb3c5c,2020-11-27_15h04.22.200,lexical_decision_task_MP_exp2,2020.2.5,Linux armv8l,60,,0,0.50663861,-0.312592145,1,0,0,0.5851,button_right,0.5851,1,,,,,,103,WORD,"ID",33,bounce,BOUNCE,m,,,,,,0.50663861,-0.312592145,1,0,0,,0,202,202,42,1,
,,,,,,,,,,,,,,,,,,5f318ffff91fee0689bb3c5c,2020-11-27_15h04.22.200,lexical_decision_task_MP_exp2,2020.2.5,Linux armv8l,60,,0,-0.516571304,-0.261881264,1,0,0,0.6348,button_left,0.6348,1,,,,,,439,NW,UN,33,saride,LIMPOR,z,,,,,,-0.516571304,-0.261881264,1,0,0,,0,203,203,378,1,
,,,,,,,,,,,,,,,,,,5f318ffff91fee0689bb3c5c,2020-11-27_15h04.22.200,lexical_decision_task_MP_exp2,2020.2.5,Linux armv8l,60,,0,-0.514512516,-0.271877178,1,0,0,0.6845,button_left,0.6845,1,,,,,,281,NW,UN,16,porlex,MELATY,z,,,,,,-0.514512516,-0.271877178,1,0,0,,0,204,204,460,1,
,,,,,,,,,,,,,,,,,,5f318ffff91fee0689bb3c5c,2020-11-27_15h04.22.200,lexical_decision_task_MP_exp2,2020.2.5,Linux armv8l,60,,0,-0.515541928,-0.297232619,1,0,0,0.784,button_left,0.784,1,,,,,,290,NW,UN,16,pretch,SPLINO,z,,,,,,-0.515541928,-0.297232619,1,0,0,,0,205,205,469,1,
,,,,,,,,,,,,,,,,,,5f318ffff91fee0689bb3c5c,2020-11-27_15h04.22.200,lexical_decision_task_MP_exp2,2020.2.5,Linux armv8l,60,,0,-0.502674584,-0.285042476,1,0,0,0.7387,button_left,0.7387,1,,,,,,449,NW,UN,33,phrect,BRUNGE,z,,,,,,-0.502674584,-0.285042476,1,0,0,,0,206,206,388,1,
,,,,,,,,,,,,,,,,,,5f318ffff91fee0689bb3c5c,2020-11-27_15h04.22.200,lexical_decision_task_MP_exp2,2020.2.5,Linux armv8l,60,,0,-0.497012981,-0.289187089,1,0,0,0.5999,button_left,0.5999,1,,,,,,269,NW,UN,16,wrimsy,ORCHET,z,,,,,,-0.497012981,-0.289187089,1,0,0,,0,207,207,448,1,
,,,,,,,,,,,,,,,,,,5f318ffff91fee0689bb3c5c,2020-11-27_15h04.22.200,lexical_decision_task_MP_exp2,2020.2.5,Linux armv8l,60,,0,-0.482601573,-0.299183003,1,0,0,0.6489,button_left,0.6489,1,,,,,,250,NW,UN,16,lupict,MILTED,z,,,,,,-0.482601573,-0.299183003,1,0,0,,0,208,208,429,1,
,,,,,,,,,,,,,,,,,,5f318ffff91fee0689bb3c5c,2020-11-27_15h04.22.200,lexical_decision_task_MP_exp2,2020.2.5,Linux armv8l,60,,0,0.495315404,-0.348674811,1,0,0,0.734,button_right,0.734,1,,,,,,125,WORD,"ID",16,nickel,NICKEL,m,,,,,,0.495315404,-0.348674811,1,0,0,,0,209,209,64,1,
,,,,,,,,,,,,,,,,,,5f318ffff91fee0689bb3c5c,2020-11-27_15h04.22.200,lexical_decision_task_MP_exp2,2020.2.5,Linux armv8l,60,,0,-0.517085992,-0.287480475,1,0,0,0.668,button_left,0.668,1,,,,,,312,NW,"ID",33,nerawl,NERAWL,z,,,,,,-0.517085992,-0.287480475,1,0,0,,0,210,210,251,1,
,,,,,,,,,,,,,,,,,,5f318ffff91fee0689bb3c5c,2020-11-27_15h04.22.200,lexical_decision_task_MP_exp2,2020.2.5,Linux armv8l,60,,0,0.474727742,-0.309666458,1,0,0,0.7483,button_right,0.7483,1,,,,,,178,WORD,"ID",16,inform,INFORM,m,,,,,,0.474727742,-0.309666458,1,0,0,,0,211,211,117,1,
,,,,,,,,,,,,,,,,,,5f318ffff91fee0689bb3c5c,2020-11-27_15h04.22.200,lexical_decision_task_MP_exp2,2020.2.5,Linux armv8l,60,,0,0.478330594,-0.314054915,1,0,0,0.7515,button_right,0.7515,1,,,,,,120,WORD,"ID",33,strain,STRAIN,m,,,,,,0.478330594,-0.314054915,1,0,0,,0,212,212,59,1,
,,,,,,,,,,,,,,,,,,5f318ffff91fee0689bb3c5c,2020-11-27_15h04.22.200,lexical_decision_task_MP_exp2,2020.2.5,Linux armv8l,60,,0,-0.521203532,-0.272852481,1,0,0,0.722,button_left,0.722,1,,,,,,387,NW,"ID",16,gronce,GRONCE,z,,,,,,-0.521203532,-0.272852481,1,0,0,,0,213,213,326,1,
,,,,,,,,,,,,,,,,,,5f318ffff91fee0689bb3c5c,2020-11-27_15h04.22.200,lexical_decision_task_MP_exp2,2020.2.5,Linux armv8l,60,,0,-0.53715904,-0.28528632,1,0,0,0.8345,button_left,0.8345,1,,,,,,377,NW,"ID",16,injore,INJORE,z,,,,,,-0.53715904,-0.28528632,1,0,0,,0,214,214,316,1,
,,,,,,,,,,,,,,,,,,5f318ffff91fee0689bb3c5c,2020-11-27_15h04.22.200,lexical_decision_task_MP_exp2,2020.2.5,Linux armv8l,60,,0,0.474212943,-0.333802899,1,0,0,0.6844,button_right,0.6844,1,,,,,,198,WORD,UN,33,invoke,WICKED,m,,,,,,0.474212943,-0.333802899,1,0,0,,0,215,215,137,1,
,,,,,,,,,,,,,,,,,,5f318ffff91fee0689bb3c5c,2020-11-27_15h04.22.200,lexical_decision_task_MP_exp2,2020.2.5,Linux armv8l,60,,0,0.480389345,-0.293087932,1,0,0,0.9703,button_right,0.9703,1,,,,,,104,WORD,"ID",33,studio,STUDIO,m,,,,,,0.480389345,-0.293087932,1,0,0,,0,216,216,43,1,
,,,,,,,,,,,,,,,,,,5f318ffff91fee0689bb3c5c,2020-11-27_15h04.22.200,lexical_decision_task_MP_exp2,2020.2.5,Linux armv8l,60,,0,-0.524806384,-0.276021791,1,0,0,0.8191,button_left,0.8191,1,,,,,,360,NW,"ID",33,desory,DESORY,z,,,,,,-0.524806384,-0.276021791,1,0,0,,0,217,217,299,1,
,,,,,,,,,,,,,,,,,,5f318ffff91fee0689bb3c5c,2020-11-27_15h04.22.200,lexical_decision_task_MP_exp2,2020.2.5,Linux armv8l,60,,0,-0.525835796,-0.283823476,1,0,0,0.9515,button_left,0.9515,1,,,,,,329,NW,"ID",33,yarike,YARIKE,z,,,,,,-0.525835796,-0.283823476,1,0,0,,0,218,218,268,1,
,,,,,,,,,,,,,,,,,,5f318ffff91fee0689bb3c5c,2020-11-27_15h04.22.200,lexical_decision_task_MP_exp2,2020.2.5,Linux armv8l,60,,0,0.467522038,-0.312104605,1,0,0,0.6569,button_right,0.6569,1,,,,,,237,WORD,UN,33,glance,POSTER,m,,,,,,0.467522038,-0.312104605,1,0,0,,0,219,219,176,1,
,,,,,,,,,,,,,,,,,,5f318ffff91fee0689bb3c5c,2020-11-27_15h04.22.200,lexical_decision_task_MP_exp2,2020.2.5,Linux armv8l,60,,0,-0.516571304,-0.3135673,1,0,0,0.7511,button_left,0.7511,1,,,,,,325,NW,"ID",33,thruse,THRUSE,z,,,,,,-0.516571304,-0.3135673,1,0,0,,0,220,220,264,1,
,,,,,,,,,,,,,,,,,,5f318ffff91fee0689bb3c5c,2020-11-27_15h04.22.200,lexical_decision_task_MP_exp2,2020.2.5,Linux armv8l,60,,0,-0.492895404,-0.322100371,1,0,0,0.717,button_left,0.717,1,,,,,,296,NW,UN,16,fertic,BEINCH,z,,,,,,-0.492895404,-0.322100371,1,0,0,,0,221,221,475,1,
,,,,,,,,,,,,,,,,,,5f318ffff91fee0689bb3c5c,2020-11-27_15h04.22.200,lexical_decision_task_MP_exp2,2020.2.5,Linux armv8l,60,,0,0.477815795,-0.297476389,1,0,0,0.6172,button_right,0.6172,1,,,,,,58,WORD,UN,16,splint,FOSTER,m,,,,,,0.477815795,-0.297476389,1,0,0,,0,222,222,237,1,
,,,,,,,,,,,,,,,,,,5f318ffff91fee0689bb3c5c,2020-11-27_15h04.22.200,lexical_decision_task_MP_exp2,2020.2.5,Linux armv8l,60,,0,0.496344853,-0.295038464,1,0,0,0.7174,button_right,0.7174,1,,,,,,115,WORD,"ID",33,guitar,GUITAR,m,,,,,,0.496344853,-0.295038464,1,0,0,,0,223,223,54,1,
,,,,,,,,,,,,,,,,,,5f318ffff91fee0689bb3c5c,2020-11-27_15h04.22.200,lexical_decision_task_MP_exp2,2020.2.5,Linux armv8l,60,,0,0.496344853,-0.295769775,1,0,0,0.7373,button_right,0.7373,1,,,,,,214,WORD,UN,33,phobia,INTAKE,m,,,,,,0.496344853,-0.295769775,1,0,0,,0,224,224,153,1,
,,,,,,,,,,,,,,,,,,5f318ffff91fee0689bb3c5c,2020-11-27_15h04.22.200,lexical_decision_task_MP_exp2,2020.2.5,Linux armv8l,60,,0,0.489139149,-0.277728405,1,0,0,0.649,button_right,0.649,1,,,,,,110,WORD,"ID",33,polite,POLITE,m,,,,,,0.489139149,-0.277728405,1,0,0,,0,225,225,49,1,
,,,,,,,,,,,,,,,,,,5f318ffff91fee0689bb3c5c,2020-11-27_15h04.22.200,lexical_decision_task_MP_exp2,2020.2.5,Linux armv8l,60,,0,0.459801535,-0.29333185,1,0,0,0.5503,button_right,0.5503,1,,,,,,173,WORD,"ID",16,shower,SHOWER,m,,,,,,0.459801535,-0.29333185,1,0,0,,0,226,226,112,1,
,,,,,,,,,,,,,,,,,,5f318ffff91fee0689bb3c5c,2020-11-27_15h04.22.200,lexical_decision_task_MP_exp2,2020.2.5,Linux armv8l,60,,0,0.461345636,-0.328926827,1,0,0,0.7857,button_right,0.7857,1,,,,,,101,WORD,"ID",33,wrench,WRENCH,m,,,,,,0.461345636,-0.328926827,1,0,0,,0,227,227,40,1,
,,,,,,,,,,,,,,,,,,5f318ffff91fee0689bb3c5c,2020-11-27_15h04.22.200,lexical_decision_task_MP_exp2,2020.2.5,Linux armv8l,60,,0,0.47112489,-0.326976443,1,0,0,0.7524,button_right,0.7524,1,,,,,,156,WORD,"ID",16,cradle,CRADLE,m,,,,,,0.47112489,-0.326976443,1,0,0,,0,228,228,95,1,
,,,,,,,,,,,,,,,,,,5f318ffff91fee0689bb3c5c,2020-11-27_15h04.22.200,lexical_decision_task_MP_exp2,2020.2.5,Linux armv8l,60,,0,-0.50370396,-0.283335862,1,0,0,0.734,button_left,0.734,1,,,,,,429,NW,UN,33,caroey,FUNTLE,z,,,,,,-0.50370396,-0.283335862,1,0,0,,0,229,229,368,1,
,,,,,,,,,,,,,,,,,,5f318ffff91fee0689bb3c5c,2020-11-27_15h04.22.200,lexical_decision_task_MP_exp2,2020.2.5,Linux armv8l,60,,0,-0.505762748,-0.307472303,1,0,0,0.7506,button_left,0.7506,1,,,,,,465,NW,UN,33,bafent,WHIVEX,z,,,,,,-0.505762748,-0.307472303,1,0,0,,0,230,230,404,1,
,,,,,,,,,,,,,,,,,,5f318ffff91fee0689bb3c5c,2020-11-27_15h04.22.200,lexical_decision_task_MP_exp2,2020.2.5,Linux armv8l,60,,0,-0.522747632,-0.27724079,1,0,0,0.7011,button_left,0.7011,1,,,,,,258,NW,UN,16,soudal,POLUTH,z,,,,,,-0.522747632,-0.27724079,1,0,0,,0,231,231,437,1,
,,,,,,,,,,,,,,,,,,5f318ffff91fee0689bb3c5c,2020-11-27_15h04.22.200,lexical_decision_task_MP_exp2,2020.2.5,Linux armv8l,60,,0,0.486565599,-0.328683057,1,0,0,0.8968,button_right,0.8968,1,,,,,,111,WORD,"ID",33,induce,INDUCE,m,,,,,,0.486565599,-0.328683057,1,0,0,,0,232,232,50,1,
,,,,,,,,,,,,,,,,,,5f318ffff91fee0689bb3c5c,2020-11-27_15h04.22.200,lexical_decision_task_MP_exp2,2020.2.5,Linux armv8l,60,,0,-0.498557044,-0.311373072,1,0,0,0.751,button_left,0.751,1,,,,,,317,NW,"ID",33,worbal,WORBAL,z,,,,,,-0.498557044,-0.311373072,1,0,0,,0,233,233,256,1,
,,,,,,,,,,,,,,,,,,5f318ffff91fee0689bb3c5c,2020-11-27_15h04.22.200,lexical_decision_task_MP_exp2,2020.2.5,Linux armv8l,60,,0,-0.498042357,-0.275290406,1,0,0,0.8846,button_left,0.8846,1,,,,,,436,NW,UN,33,snapel,FRUTAN,z,,,,,,-0.498042357,-0.275290406,1,0,0,,0,234,234,375,1,
,,,,,,,,,,,,,,,,,,5f318ffff91fee0689bb3c5c,2020-11-27_15h04.22.200,lexical_decision_task_MP_exp2,2020.2.5,Linux armv8l,60,,0,-0.511939077,-0.303571534,1,0,0,0.7678,button_left,0.7678,1,,,,,,369,NW,"ID",16,wronch,WRONCH,z,,,,,,-0.511939077,-0.303571534,1,0,0,,0,235,235,308,1,
,,,,,,,,,,,,,,,,,,5f318ffff91fee0689bb3c5c,2020-11-27_15h04.22.200,lexical_decision_task_MP_exp2,2020.2.5,Linux armv8l,60,,0,-0.506792124,-0.281385551,1,0,0,0.6674,button_left,0.6674,1,,,,,,392,NW,"ID",16,rouncy,ROUNCY,z,,,,,,-0.506792124,-0.281385551,1,0,0,,0,236,236,331,1,
,,,,,,,,,,,,,,,,,,5f318ffff91fee0689bb3c5c,2020-11-27_15h04.22.200,lexical_decision_task_MP_exp2,2020.2.5,Linux armv8l,60,,0,0.494286102,-0.323806985,1,0,0,0.6984,button_right,0.6984,1,,,,,,72,WORD,"ID",33,bright,BRIGHT,m,,,,,,0.494286102,-0.323806985,1,0,0,,0,237,237,11,1,
,,,,,,,,,,,,,,,,,,5f318ffff91fee0689bb3c5c,2020-11-27_15h04.22.200,lexical_decision_task_MP_exp2,2020.2.5,Linux armv8l,60,,0,0.504065208,-0.288943318,1,0,0,1.0356,button_right,1.0356,0,,,,,,413,NW,"ID",16,equats,EQUATS,z,,,,,,0.504065208,-0.288943318,1,0,0,,0,238,238,352,1,
,,,,,,,,,,,,,,,,,,5f318ffff91fee0689bb3c5c,2020-11-27_15h04.22.200,lexical_decision_task_MP_exp2,2020.2.5,Linux armv8l,60,,0,0.485536298,-0.317468143,1,0,0,0.6663,button_right,0.6663,0,,,,,,462,NW,UN,33,kispel,ABSULT,z,,,,,,0.485536298,-0.317468143,1,0,0,,0,239,239,401,1,
,,,,,,,,,,,,,,,,,,5f318ffff91fee0689bb3c5c,2020-11-27_15h04.22.200,lexical_decision_task_MP_exp2,2020.2.5,Linux armv8l,60,,0,0.494800753,-0.30186492,1,0,0,0.8031,button_right,0.8031,1,,,,,,85,WORD,"ID",33,sprawl,SPRAWL,m,,,,,,0.494800753,-0.30186492,1,0,0,,0,240,240,24,1,
,,,,,,,,,,,,,,,,,,5f318ffff91fee0689bb3c5c,2020-11-27_15h04.22.200,lexical_decision_task_MP_exp2,2020.2.5,Linux armv8l,60,,0,-0.504218685,-0.296013545,1,0,0,1.1056,button_left,1.1056,1,,,,,,366,NW,"ID",16,toshel,TOSHEL,z,,,,,,0.07120825,-0.381588093,1,0,0,,0,241,241,305,1,break_done_button
,,,,,,,,,,,,,,,,,,5f318ffff91fee0689bb3c5c,2020-11-27_15h04.22.200,lexical_decision_task_MP_exp2,2020.2.5,Linux armv8l,60,,0,-0.53561494,-0.275046636,1,0,0,0.7008,button_left,0.7008,1,,,,,,356,NW,"ID",33,othnis,OTHNIS,z,,,,,,-0.53561494,-0.275046636,1,0,0,,0,242,242,295,1,
,,,,,,,,,,,,,,,,,,5f318ffff91fee0689bb3c5c,2020-11-27_15h04.22.200,lexical_decision_task_MP_exp2,2020.2.5,Linux armv8l,60,,0,0.461345636,-0.315761529,1,0,0,0.5684,button_right,0.5684,1,,,,,,53,WORD,UN,16,ramble,POLICE,m,,,,,,0.461345636,-0.315761529,1,0,0,,0,243,243,232,1,
,,,,,,,,,,,,,,,,,,5f318ffff91fee0689bb3c5c,2020-11-27_15h04.22.200,lexical_decision_task_MP_exp2,2020.2.5,Linux armv8l,60,,0,0.496344853,-0.307716073,1,0,0,0.6317,button_right,0.6317,1,,,,,,81,WORD,"ID",33,friend,FRIEND,m,,,,,,0.496344853,-0.307716073,1,0,0,,0,244,244,20,1,
,,,,,,,,,,,,,,,,,,5f318ffff91fee0689bb3c5c,2020-11-27_15h04.22.200,lexical_decision_task_MP_exp2,2020.2.5,Linux armv8l,60,,0,0.495830054,-0.322587985,1,0,0,0.5857,button_right,0.5857,1,,,,,,15,WORD,UN,16,faucet,AMOUNT,m,,,,,,0.495830054,-0.322587985,1,0,0,,0,245,245,194,1,
,,,,,,,,,,,,,,,,,,5f318ffff91fee0689bb3c5c,2020-11-27_15h04.22.200,lexical_decision_task_MP_exp2,2020.2.5,Linux armv8l,60,,0,0.486565599,-0.309666458,1,0,0,0.6202,button_right,0.6202,1,,,,,,216,WORD,UN,33,liquor,BEHALF,m,,,,,,0.486565599,-0.309666458,1,0,0,,0,246,246,155,1,
,,,,,,,,,,,,,,,,,,5f318ffff91fee0689bb3c5c,2020-11-27_15h04.22.200,lexical_decision_task_MP_exp2,2020.2.5,Linux armv8l,60,,0,0.478845244,-0.291868932,1,0,0,0.5646,button_right,0.5646,1,,,,,,49,WORD,UN,16,snatch,SURVEY,m,,,,,,0.478845244,-0.291868932,1,0,0,,0,247,247,228,1,
,,,,,,,,,,,,,,,,,,5f318ffff91fee0689bb3c5c,2020-11-27_15h04.22.200,lexical_decision_task_MP_exp2,2020.2.5,Linux armv8l,60,,0,-0.482601573,-0.281141633,1,0,0,0.6845,button_left,0.6845,1,,,,,,262,NW,UN,16,dolica,QUILEW,z,,,,,,-0.482601573,-0.281141633,1,0,0,,0,248,248,441,1,
,,,,,,,,,,,,,,,,,,5f318ffff91fee0689bb3c5c,2020-11-27_15h04.22.200,lexical_decision_task_MP_exp2,2020.2.5,Linux armv8l,60,,0,0.483992197,-0.327951672,1,0,0,0.6336,button_right,0.6336,1,,,,,,64,WORD,"ID",33,throne,THRONE,m,,,,,,0.483992197,-0.327951672,1,0,0,,0,249,249,3,1,
,,,,,,,,,,,,,,,,,,5f318ffff91fee0689bb3c5c,2020-11-27_15h04.22.200,lexical_decision_task_MP_exp2,2020.2.5,Linux armv8l,60,,0,-0.49546888,-0.285042476,1,0,0,0.8698,button_left,0.8698,1,,,,,,253,NW,UN,16,varosh,RESAIT,z,,,,,,-0.49546888,-0.285042476,1,0,0,,0,250,250,432,1,
,,,,,,,,,,,,,,,,,,5f318ffff91fee0689bb3c5c,2020-11-27_15h04.22.200,lexical_decision_task_MP_exp2,2020.2.5,Linux armv8l,60,,0,0.505609309,-0.307472303,1,0,0,0.6048,button_right,0.6048,1,,,,,,149,WORD,"ID",16,invade,INVADE,m,,,,,,0.505609309,-0.307472303,1,0,0,,0,251,251,88,1,
,,,,,,,,,,,,,,,,,,5f318ffff91fee0689bb3c5c,2020-11-27_15h04.22.200,lexical_decision_task_MP_exp2,2020.2.5,Linux armv8l,60,,0,0.487595049,-0.315030144,1,0,0,0.7155,button_right,0.7155,1,,,,,,206,WORD,UN,33,wreath,TAILOR,m,,,,,,0.487595049,-0.315030144,1,0,0,,0,252,252,145,1,
,,,,,,,,,,,,,,,,,,5f318ffff91fee0689bb3c5c,2020-11-27_15h04.22.200,lexical_decision_task_MP_exp2,2020.2.5,Linux armv8l,60,,0,-0.487233801,-0.316005373,1,0,0,0.6666,button_left,0.6666,1,,,,,,342,NW,"ID",33,randow,RANDOW,z,,,,,,-0.487233801,-0.316005373,1,0,0,,0,253,253,281,1,
,,,,,,,,,,,,,,,,,,5f318ffff91fee0689bb3c5c,2020-11-27_15h04.22.200,lexical_decision_task_MP_exp2,2020.2.5,Linux armv8l,60,,0,0.464433837,-0.323563215,1,0,0,0.6197,button_right,0.6197,1,,,,,,230,WORD,UN,33,mother,FRINGE,m,,,,,,0.464433837,-0.323563215,1,0,0,,0,254,254,169,1,
,,,,,,,,,,,,,,,,,,5f318ffff91fee0689bb3c5c,2020-11-27_15h04.22.200,lexical_decision_task_MP_exp2,2020.2.5,Linux armv8l,60,,0,-0.51760068,-0.277728405,1,0,0,0.6673,button_left,0.6673,1,,,,,,385,NW,"ID",16,veigma,VEIGMA,z,,,,,,-0.51760068,-0.277728405,1,0,0,,0,255,255,324,1,
,,,,,,,,,,,,,,,,,,5f318ffff91fee0689bb3c5c,2020-11-27_15h04.22.200,lexical_decision_task_MP_exp2,2020.2.5,Linux armv8l,60,,0,-0.510909664,-0.300645847,1,0,0,0.6812,button_left,0.6812,1,,,,,,408,NW,"ID",16,hurnia,HURNIA,z,,,,,,-0.510909664,-0.300645847,1,0,0,,0,256,256,347,1,
,,,,,,,,,,,,,,,,,,5f318ffff91fee0689bb3c5c,2020-11-27_15h04.22.200,lexical_decision_task_MP_exp2,2020.2.5,Linux armv8l,60,,0,-0.526865172,-0.29528216,1,0,0,0.9543,button_left,0.9543,1,,,,,,278,NW,UN,16,celond,UNIGHS,z,,,,,,-0.526865172,-0.29528216,1,0,0,,0,257,257,457,1,
,,,,,,,,,,,,,,,,,,5f318ffff91fee0689bb3c5c,2020-11-27_15h04.22.200,lexical_decision_task_MP_exp2,2020.2.5,Linux armv8l,60,,0,-0.508850912,-0.293087932,1,0,0,1.2215,button_left,1.2215,1,,,,,,425,NW,UN,33,urivel,FRUDGE,z,,,,,,-0.508850912,-0.293087932,1,0,0,,0,258,258,364,1,
,,,,,,,,,,,,,,,,,,5f318ffff91fee0689bb3c5c,2020-11-27_15h04.22.200,lexical_decision_task_MP_exp2,2020.2.5,Linux armv8l,60,,0,-0.515027241,-0.291381317,1,0,0,0.8038,button_left,0.8038,1,,,,,,367,NW,"ID",16,slique,SLIQUE,z,,,,,,-0.515027241,-0.291381317,1,0,0,,0,259,259,306,1,
,,,,,,,,,,,,,,,,,,5f318ffff91fee0689bb3c5c,2020-11-27_15h04.22.200,lexical_decision_task_MP_exp2,2020.2.5,Linux armv8l,60,,0,0.457228133,-0.310397991,1,0,0,0.7673,button_right,0.7673,1,,,,,,32,WORD,UN,16,scream,BUCKLE,m,,,,,,0.457228133,-0.310397991,1,0,0,,0,260,260,211,1,
,,,,,,,,,,,,,,,,,,5f318ffff91fee0689bb3c5c,2020-11-27_15h04.22.200,lexical_decision_task_MP_exp2,2020.2.5,Linux armv8l,60,,0,0.4881097,-0.309666458,1,0,0,0.6172,button_right,0.6172,1,,,,,,232,WORD,UN,33,nature,INJECT,m,,,,,,0.4881097,-0.309666458,1,0,0,,0,261,261,171,1,
,,,,,,,,,,,,,,,,,,5f318ffff91fee0689bb3c5c,2020-11-27_15h04.22.200,lexical_decision_task_MP_exp2,2020.2.5,Linux armv8l,60,,0,0.488624351,-0.309666458,1,0,0,0.8686,button_right,0.8686,1,,,,,,140,WORD,"ID",16,prince,PRINCE,m,,,,,,0.488624351,-0.309666458,1,0,0,,0,262,262,79,1,
,,,,,,,,,,,,,,,,,,5f318ffff91fee0689bb3c5c,2020-11-27_15h04.22.200,lexical_decision_task_MP_exp2,2020.2.5,Linux armv8l,60,,0,0.507153409,-0.306740844,1,0,0,0.6147,button_right,0.6147,1,,,,,,100,WORD,"ID",33,carbon,CARBON,m,,,,,,0.507153409,-0.306740844,1,0,0,,0,263,263,39,1,
,,,,,,,,,,,,,,,,,,5f318ffff91fee0689bb3c5c,2020-11-27_15h04.22.200,lexical_decision_task_MP_exp2,2020.2.5,Linux armv8l,60,,0,0.500462356,-0.322100371,1,0,0,0.6166,button_right,0.6166,1,,,,,,62,WORD,"ID",33,region,REGION,m,,,,,,0.500462356,-0.322100371,1,0,0,,0,264,264,1,1,
,,,,,,,,,,,,,,,,,,5f318ffff91fee0689bb3c5c,2020-11-27_15h04.22.200,lexical_decision_task_MP_exp2,2020.2.5,Linux armv8l,60,,0,0.540608378,-0.301621002,1,0,0,0.599,button_right,0.599,1,,,,,,112,WORD,"ID",33,breath,BREATH,m,,,,,,0.540608378,-0.301621002,1,0,0,,0,265,265,51,1,
,,,,,,,,,,,,,,,,,,5f318ffff91fee0689bb3c5c,2020-11-27_15h04.22.200,lexical_decision_task_MP_exp2,2020.2.5,Linux armv8l,60,,0,0.527741071,-0.297476389,1,0,0,0.7162,button_right,0.7162,1,,,,,,199,WORD,UN,33,plague,INVOKE,m,,,,,,0.527741071,-0.297476389,1,0,0,,0,266,266,138,1,
,,,,,,,,,,,,,,,,,,5f318ffff91fee0689bb3c5c,2020-11-27_15h04.22.200,lexical_decision_task_MP_exp2,2020.2.5,Linux armv8l,60,,0,-0.530468024,-0.277972323,1,0,0,0.7018,button_left,0.7018,1,,,,,,393,NW,"ID",16,ganous,GANOUS,z,,,,,,-0.530468024,-0.277972323,1,0,0,,0,267,267,332,1,
,,,,,,,,,,,,,,,,,,5f318ffff91fee0689bb3c5c,2020-11-27_15h04.22.200,lexical_decision_task_MP_exp2,2020.2.5,Linux armv8l,60,,0,-0.514512516,-0.305765689,1,0,0,0.8399,button_left,0.8399,1,,,,,,423,NW,UN,33,praile,STRELD,z,,,,,,-0.514512516,-0.305765689,1,0,0,,0,268,268,362,1,
,,,,,,,,,,,,,,,,,,5f318ffff91fee0689bb3c5c,2020-11-27_15h04.22.200,lexical_decision_task_MP_exp2,2020.2.5,Linux armv8l,60,,0,-0.53561494,-0.304059075,1,0,0,1.1673,button_left,1.1673,1,,,,,,303,NW,"ID",33,fiream,FIREAM,z,,,,,,-0.53561494,-0.304059075,1,0,0,,0,269,269,242,1,
,,,,,,,,,,,,,,,,,,5f318ffff91fee0689bb3c5c,2020-11-27_15h04.22.200,lexical_decision_task_MP_exp2,2020.2.5,Linux armv8l,60,,0,0.472154191,-0.306497074,1,0,0,0.8992,button_right,0.8992,1,,,,,,227,WORD,UN,33,master,SELDOM,m,,,,,,0.472154191,-0.306497074,1,0,0,,0,270,270,166,1,
,,,,,,,,,,,,,,,,,,5f318ffff91fee0689bb3c5c,2020-11-27_15h04.22.200,lexical_decision_task_MP_exp2,2020.2.5,Linux armv8l,60,,0,-0.525835796,-0.307472303,1,0,0,0.637,button_left,0.637,1,,,,,,381,NW,"ID",16,huniek,HUNIEK,z,,,,,,-0.525835796,-0.307472303,1,0,0,,0,271,271,320,1,
,,,,,,,,,,,,,,,,,,5f318ffff91fee0689bb3c5c,2020-11-27_15h04.22.200,lexical_decision_task_MP_exp2,2020.2.5,Linux armv8l,60,,0,-0.571128771,-0.287968089,1,0,0,0.6497,button_left,0.6497,1,,,,,,404,NW,"ID",16,cluirm,CLUIRM,z,,,,,,-0.571128771,-0.287968089,1,0,0,,0,272,272,343,1,
,,,,,,,,,,,,,,,,,,5f318ffff91fee0689bb3c5c,2020-11-27_15h04.22.200,lexical_decision_task_MP_exp2,2020.2.5,Linux armv8l,60,,0,-0.557746739,-0.287480475,1,0,0,0.6848,button_left,0.6848,1,,,,,,274,NW,UN,16,sleirt,FUMBLO,z,,,,,,-0.557746739,-0.287480475,1,0,0,,0,273,273,453,1,
,,,,,,,,,,,,,,,,,,5f318ffff91fee0689bb3c5c,2020-11-27_15h04.22.200,lexical_decision_task_MP_exp2,2020.2.5,Linux armv8l,60,,0,-0.529953336,-0.30503423,1,0,0,0.7865,button_left,0.7865,1,,,,,,380,NW,"ID",16,cavory,CAVORY,z,,,,,,-0.529953336,-0.30503423,1,0,0,,0,274,274,319,1,
,,,,,,,,,,,,,,,,,,5f318ffff91fee0689bb3c5c,2020-11-27_15h04.22.200,lexical_decision_task_MP_exp2,2020.2.5,Linux armv8l,60,,0,0.452595831,-0.339654126,1,0,0,0.7845,button_right,0.7845,1,,,,,,40,WORD,UN,16,spring,CONVEY,m,,,,,,0.452595831,-0.339654126,1,0,0,,0,275,275,219,1,
,,,,,,,,,,,,,,,,,,5f318ffff91fee0689bb3c5c,2020-11-27_15h04.22.200,lexical_decision_task_MP_exp2,2020.2.5,Linux armv8l,60,,0,0.482448096,-0.313079686,1,0,0,0.9179,button_right,0.9179,1,,,,,,42,WORD,UN,16,tongue,CHAPEL,m,,,,,,0.482448096,-0.313079686,1,0,0,,0,276,276,221,1,
,,,,,,,,,,,,,,,,,,5f318ffff91fee0689bb3c5c,2020-11-27_15h04.22.200,lexical_decision_task_MP_exp2,2020.2.5,Linux armv8l,60,,0,0.504065208,-0.305521845,1,0,0,0.781,button_right,0.781,1,,,,,,107,WORD,"ID",33,slogan,SLOGAN,m,,,,,,0.504065208,-0.305521845,1,0,0,,0,277,277,46,1,
,,,,,,,,,,,,,,,,,,5f318ffff91fee0689bb3c5c,2020-11-27_15h04.22.200,lexical_decision_task_MP_exp2,2020.2.5,Linux armv8l,60,,0,0.496344853,-0.312835916,1,0,0,0.6855,button_right,0.6855,1,,,,,,7,WORD,UN,16,abrupt,ANCHOR,m,,,,,,0.496344853,-0.312835916,1,0,0,,0,278,278,186,1,
,,,,,,,,,,,,,,,,,,5f318ffff91fee0689bb3c5c,2020-11-27_15h04.22.200,lexical_decision_task_MP_exp2,2020.2.5,Linux armv8l,60,,0,0.500462356,-0.312835916,1,0,0,0.6808,button_right,0.6808,1,,,,,,141,WORD,"ID",16,orphan,ORPHAN,m,,,,,,0.500462356,-0.312835916,1,0,0,,0,279,279,80,1,
,,,,,,,,,,,,,,,,,,5f318ffff91fee0689bb3c5c,2020-11-27_15h04.22.200,lexical_decision_task_MP_exp2,2020.2.5,Linux armv8l,60,,0,-0.518115368,-0.267976335,1,0,0,0.6182,button_left,0.6182,1,,,,,,362,NW,"ID",16,tireau,TIREAU,z,,,,,,-0.518115368,-0.267976335,1,0,0,,0,280,280,301,1,
,,,,,,,,,,,,,,,,,,5f318ffff91fee0689bb3c5c,2020-11-27_15h04.22.200,lexical_decision_task_MP_exp2,2020.2.5,Linux armv8l,60,,0,0.501491806,-0.309422687,1,0,0,0.6513,button_right,0.6513,1,,,,,,132,WORD,"ID",16,strong,STRONG,m,,,,,,0.501491806,-0.309422687,1,0,0,,0,281,281,71,1,
,,,,,,,,,,,,,,,,,,5f318ffff91fee0689bb3c5c,2020-11-27_15h04.22.200,lexical_decision_task_MP_exp2,2020.2.5,Linux armv8l,60,,0,0.50663861,-0.303815231,1,0,0,0.8703,button_right,0.8703,1,,,,,,29,WORD,UN,16,orient,SKETCH,m,,,,,,0.50663861,-0.303815231,1,0,0,,0,282,282,208,1,
,,,,,,,,,,,,,,,,,,5f318ffff91fee0689bb3c5c,2020-11-27_15h04.22.200,lexical_decision_task_MP_exp2,2020.2.5,Linux armv8l,60,,0,0.505609309,-0.306497074,1,0,0,0.7681,button_right,0.7681,1,,,,,,133,WORD,"ID",16,chrome,CHROME,m,,,,,,0.505609309,-0.306497074,1,0,0,,0,283,283,72,1,
,,,,,,,,,,,,,,,,,,5f318ffff91fee0689bb3c5c,2020-11-27_15h04.22.200,lexical_decision_task_MP_exp2,2020.2.5,Linux armv8l,60,,0,-0.534585564,-0.286992934,1,0,0,0.6669,button_left,0.6669,1,,,,,,341,NW,"ID",33,myrtie,MYRTIE,z,,,,,,-0.534585564,-0.286992934,1,0,0,,0,284,284,280,1,
,,,,,,,,,,,,,,,,,,5f318ffff91fee0689bb3c5c,2020-11-27_15h04.22.200,lexical_decision_task_MP_exp2,2020.2.5,Linux armv8l,60,,0,-0.53561494,-0.287236704,1,0,0,0.7518,button_left,0.7518,1,,,,,,477,NW,UN,33,lobush,PHOTIE,z,,,,,,-0.53561494,-0.287236704,1,0,0,,0,285,285,416,1,
,,,,,,,,,,,,,,,,,,5f318ffff91fee0689bb3c5c,2020-11-27_15h04.22.200,lexical_decision_task_MP_exp2,2020.2.5,Linux armv8l,60,,0,-0.510394976,-0.304302845,1,0,0,0.7173,button_left,0.7173,0,,,,,,183,WORD,UN,33,sleazy,MILDEW,m,,,,,,-0.510394976,-0.304302845,1,0,0,,0,286,286,122,1,
,,,,,,,,,,,,,,,,,,5f318ffff91fee0689bb3c5c,2020-11-27_15h04.22.200,lexical_decision_task_MP_exp2,2020.2.5,Linux armv8l,60,,0,-0.550026347,-0.273583792,1,0,0,0.803,button_left,0.803,1,,,,,,299,NW,UN,16,yarion,STURCH,z,,,,,,-0.550026347,-0.273583792,1,0,0,,0,287,287,478,1,
,,,,,,,,,,,,,,,,,,5f318ffff91fee0689bb3c5c,2020-11-27_15h04.22.200,lexical_decision_task_MP_exp2,2020.2.5,Linux armv8l,60,,0,-0.52171822,-0.294550775,1,0,0,0.6685,button_left,0.6685,1,,,,,,441,NW,UN,33,aboune,RASTOE,z,,,,,,-0.52171822,-0.294550775,1,0,0,,0,288,288,380,1,
,,,,,,,,,,,,,,,,,,5f318ffff91fee0689bb3c5c,2020-11-27_15h04.22.200,lexical_decision_task_MP_exp2,2020.2.5,Linux armv8l,60,,0,-0.526350484,-0.298695388,1,0,0,0.8505,button_left,0.8505,1,,,,,,378,NW,"ID",16,shrile,SHRILE,z,,,,,,-0.526350484,-0.298695388,1,0,0,,0,289,289,317,1,
,,,,,,,,,,,,,,,,,,5f318ffff91fee0689bb3c5c,2020-11-27_15h04.22.200,lexical_decision_task_MP_exp2,2020.2.5,Linux armv8l,60,,0,-0.522232945,-0.274802791,1,0,0,0.7342,button_left,0.7342,1,,,,,,354,NW,"ID",33,virlex,VIRLEX,z,,,,,,-0.522232945,-0.274802791,1,0,0,,0,290,290,293,1,
,,,,,,,,,,,,,,,,,,5f318ffff91fee0689bb3c5c,2020-11-27_15h04.22.200,lexical_decision_task_MP_exp2,2020.2.5,Linux armv8l,60,,0,-0.520688844,-0.292112776,1,0,0,0.8317,button_left,0.8317,1,,,,,,432,NW,UN,33,drance,LUNKER,z,,,,,,-0.520688844,-0.292112776,1,0,0,,0,291,291,371,1,
,,,,,,,,,,,,,,,,,,5f318ffff91fee0689bb3c5c,2020-11-27_15h04.22.200,lexical_decision_task_MP_exp2,2020.2.5,Linux armv8l,60,,0,0.45053708,-0.341604585,1,0,0,0.7308,button_right,0.7308,1,,,,,,226,WORD,UN,33,flower,CASINO,m,,,,,,0.45053708,-0.341604585,1,0,0,,0,292,292,165,1,
,,,,,,,,,,,,,,,,,,5f318ffff91fee0689bb3c5c,2020-11-27_15h04.22.200,lexical_decision_task_MP_exp2,2020.2.5,Linux armv8l,60,,0,-0.550026347,-0.291381317,1,0,0,0.6866,button_left,0.6866,1,,,,,,415,NW,"ID",16,higsta,HIGSTA,z,,,,,,-0.550026347,-0.291381317,1,0,0,,0,293,293,354,1,
,,,,,,,,,,,,,,,,,,5f318ffff91fee0689bb3c5c,2020-11-27_15h04.22.200,lexical_decision_task_MP_exp2,2020.2.5,Linux armv8l,60,,0,0.495315404,-0.299183003,1,0,0,0.6715,button_right,0.6715,1,,,,,,52,WORD,UN,16,police,IMPOSE,m,,,,,,0.495315404,-0.299183003,1,0,0,,0,294,294,231,1,
,,,,,,,,,,,,,,,,,,5f318ffff91fee0689bb3c5c,2020-11-27_15h04.22.200,lexical_decision_task_MP_exp2,2020.2.5,Linux armv8l,60,,0,0.496859504,-0.303083846,1,0,0,0.9558,button_right,0.9558,1,,,,,,239,WORD,UN,33,forest,LUMBER,m,,,,,,0.496859504,-0.303083846,1,0,0,,0,295,295,178,1,
,,,,,,,,,,,,,,,,,,5f318ffff91fee0689bb3c5c,2020-11-27_15h04.22.200,lexical_decision_task_MP_exp2,2020.2.5,Linux armv8l,60,,0,0.50766806,-0.297476389,1,0,0,0.7362,button_right,0.7362,1,,,,,,215,WORD,UN,33,lumber,PHOBIA,m,,,,,,0.50766806,-0.297476389,1,0,0,,0,296,296,154,1,
,,,,,,,,,,,,,,,,,,5f318ffff91fee0689bb3c5c,2020-11-27_15h04.22.200,lexical_decision_task_MP_exp2,2020.2.5,Linux armv8l,60,,0,-0.553629199,-0.296988774,1,0,0,0.7013,button_left,0.7013,1,,,,,,453,NW,UN,33,scouge,BOLVIS,z,,,,,,-0.553629199,-0.296988774,1,0,0,,0,297,297,392,1,
,,,,,,,,,,,,,,,,,,5f318ffff91fee0689bb3c5c,2020-11-27_15h04.22.200,lexical_decision_task_MP_exp2,2020.2.5,Linux armv8l,60,,0,0.494800753,-0.308935073,1,0,0,0.6992,button_right,0.6992,1,,,,,,92,WORD,"ID",33,strand,STRAND,m,,,,,,0.494800753,-0.308935073,1,0,0,,0,298,298,31,1,
,,,,,,,,,,,,,,,,,,5f318ffff91fee0689bb3c5c,2020-11-27_15h04.22.200,lexical_decision_task_MP_exp2,2020.2.5,Linux armv8l,60,,0,0.485536298,-0.302840001,1,0,0,1.1849,button_right,1.1849,1,,,,,,134,WORD,"ID",16,staple,STAPLE,m,,,,,,0.485536298,-0.302840001,1,0,0,,0,299,299,73,1,
,,,,,,,,,,,,,,,,,,5f318ffff91fee0689bb3c5c,2020-11-27_15h04.22.200,lexical_decision_task_MP_exp2,2020.2.5,Linux armv8l,60,,0,-0.511939077,-0.269195334,1,0,0,0.6848,button_left,0.6848,1,,,,,,376,NW,"ID",16,iguare,IGUARE,z,,,,,,-0.511939077,-0.269195334,1,0,0,,0,300,300,315,1,
,,,,,,,,,,,,,,,,,,5f318ffff91fee0689bb3c5c,2020-11-27_15h04.22.200,lexical_decision_task_MP_exp2,2020.2.5,Linux armv8l,60,,0,-0.5314974,-0.283579706,1,0,0,0.8689,button_left,0.8689,1,,,,,,314,NW,"ID",33,sprine,SPRINE,z,,,,,,-0.5314974,-0.283579706,1,0,0,,0,301,301,253,1,
,,,,,,,,,,,,,,,,,,5f318ffff91fee0689bb3c5c,2020-11-27_15h04.22.200,lexical_decision_task_MP_exp2,2020.2.5,Linux armv8l,60,,0,-0.541791268,-0.298451692,1,0,0,0.615,button_left,0.615,1,,,,,,384,NW,"ID",16,guesco,GUESCO,z,,,,,,-0.541791268,-0.298451692,1,0,0,,0,302,302,323,1,
,,,,,,,,,,,,,,,,,,5f318ffff91fee0689bb3c5c,2020-11-27_15h04.22.200,lexical_decision_task_MP_exp2,2020.2.5,Linux armv8l,60,,0,0.50663861,-0.303083846,1,0,0,0.6825,button_right,0.6825,1,,,,,,56,WORD,UN,16,change,AMBUSH,m,,,,,,0.50663861,-0.303083846,1,0,0,,0,303,303,235,1,
,,,,,,,,,,,,,,,,,,5f318ffff91fee0689bb3c5c,2020-11-27_15h04.22.200,lexical_decision_task_MP_exp2,2020.2.5,Linux armv8l,60,,0,-0.537673728,-0.305765689,1,0,0,1.0177,button_left,1.0177,1,,,,,,402,NW,"ID",16,syntic,SYNTIC,z,,,,,,-0.537673728,-0.305765689,1,0,0,,0,304,304,341,1,
,,,,,,,,,,,,,,,,,,5f318ffff91fee0689bb3c5c,2020-11-27_15h04.22.200,lexical_decision_task_MP_exp2,2020.2.5,Linux armv8l,60,,0,-0.538188416,-0.303815231,1,0,0,0.7199,button_left,0.7199,1,,,,,,434,NW,UN,33,impurb,PITROM,z,,,,,,-0.538188416,-0.303815231,1,0,0,,0,305,305,373,1,
,,,,,,,,,,,,,,,,,,5f318ffff91fee0689bb3c5c,2020-11-27_15h04.22.200,lexical_decision_task_MP_exp2,2020.2.5,Linux armv8l,60,,0,0.505094658,-0.300158306,1,0,0,0.7,button_right,0.7,1,,,,,,208,WORD,UN,33,search,HOCKEY,m,,,,,,0.505094658,-0.300158306,1,0,0,,0,306,306,147,1,
,,,,,,,,,,,,,,,,,,5f318ffff91fee0689bb3c5c,2020-11-27_15h04.22.200,lexical_decision_task_MP_exp2,2020.2.5,Linux armv8l,60,,0,0.52722642,-0.279678937,1,0,0,0.6354,button_right,0.6354,1,,,,,,180,WORD,"ID",16,silent,SILENT,m,,,,,,0.52722642,-0.279678937,1,0,0,,0,307,307,119,1,
,,,,,,,,,,,,,,,,,,5f318ffff91fee0689bb3c5c,2020-11-27_15h04.22.200,lexical_decision_task_MP_exp2,2020.2.5,Linux armv8l,60,,0,0.501491806,-0.306497074,1,0,0,0.6185,button_right,0.6185,1,,,,,,63,WORD,"ID",33,launch,LAUNCH,m,,,,,,0.501491806,-0.306497074,1,0,0,,0,308,308,2,1,
,,,,,,,,,,,,,,,,,,5f318ffff91fee0689bb3c5c,2020-11-27_15h04.22.200,lexical_decision_task_MP_exp2,2020.2.5,Linux armv8l,60,,0,0.495315404,-0.319418602,1,0,0,0.7015,button_right,0.7015,1,,,,,,41,WORD,UN,16,chapel,SPRING,m,,,,,,0.495315404,-0.319418602,1,0,0,,0,309,309,220,1,
,,,,,,,,,,,,,,,,,,5f318ffff91fee0689bb3c5c,2020-11-27_15h04.22.200,lexical_decision_task_MP_exp2,2020.2.5,Linux armv8l,60,,0,-0.534585564,-0.306740844,1,0,0,0.7679,button_left,0.7679,1,,,,,,328,NW,"ID",33,broake,BROAKE,z,,,,,,-0.534585564,-0.306740844,1,0,0,,0,310,310,267,1,
,,,,,,,,,,,,,,,,,,5f318ffff91fee0689bb3c5c,2020-11-27_15h04.22.200,lexical_decision_task_MP_exp2,2020.2.5,Linux armv8l,60,,0,-0.539217792,-0.273096177,1,0,0,0.6502,button_left,0.6502,1,,,,,,323,NW,"ID",33,rosail,ROSAIL,z,,,,,,-0.539217792,-0.273096177,1,0,0,,0,311,311,262,1,
,,,,,,,,,,,,,,,,,,5f318ffff91fee0689bb3c5c,2020-11-27_15h04.22.200,lexical_decision_task_MP_exp2,2020.2.5,Linux armv8l,60,,0,0.509726811,-0.301133387,1,0,0,0.6511,button_right,0.6511,1,,,,,,108,WORD,"ID",33,reckon,RECKON,m,,,,,,0.509726811,-0.301133387,1,0,0,,0,312,312,47,1,
,,,,,,,,,,,,,,,,,,5f318ffff91fee0689bb3c5c,2020-11-27_15h04.22.200,lexical_decision_task_MP_exp2,2020.2.5,Linux armv8l,60,,0,0.532373373,-0.279191249,1,0,0,0.7841,button_right,0.7841,1,,,,,,99,WORD,"ID",33,fluent,FLUENT,m,,,,,,0.532373373,-0.279191249,1,0,0,,0,313,313,38,1,
,,,,,,,,,,,,,,,,,,5f318ffff91fee0689bb3c5c,2020-11-27_15h04.22.200,lexical_decision_task_MP_exp2,2020.2.5,Linux armv8l,60,,0,0.494800753,-0.323563215,1,0,0,0.6337,button_right,0.6337,1,,,,,,179,WORD,"ID",16,basket,BASKET,m,,,,,,0.494800753,-0.323563215,1,0,0,,0,314,314,118,1,
,,,,,,,,,,,,,,,,,,5f318ffff91fee0689bb3c5c,2020-11-27_15h04.22.200,lexical_decision_task_MP_exp2,2020.2.5,Linux armv8l,60,,0,0.502006457,-0.304546615,1,0,0,0.5671,button_right,0.5671,1,,,,,,95,WORD,"ID",33,thread,THREAD,m,,,,,,0.502006457,-0.304546615,1,0,0,,0,315,315,34,1,
,,,,,,,,,,,,,,,,,,5f318ffff91fee0689bb3c5c,2020-11-27_15h04.22.200,lexical_decision_task_MP_exp2,2020.2.5,Linux armv8l,60,,0,0.440757974,-0.300402002,1,0,0,0.8194,button_right,0.8194,1,,,,,,114,WORD,"ID",33,placid,PLACID,m,,,,,,0.440757974,-0.300402002,1,0,0,,0,316,316,53,1,
,,,,,,,,,,,,,,,,,,5f318ffff91fee0689bb3c5c,2020-11-27_15h04.22.200,lexical_decision_task_MP_exp2,2020.2.5,Linux armv8l,60,,0,-0.501130521,-0.260906182,1,0,0,0.6846,button_left,0.6846,1,,,,,,470,NW,UN,33,nobest,CRUDIO,z,,,,,,-0.501130521,-0.260906182,1,0,0,,0,317,317,409,1,
,,,,,,,,,,,,,,,,,,5f318ffff91fee0689bb3c5c,2020-11-27_15h04.22.200,lexical_decision_task_MP_exp2,2020.2.5,Linux armv8l,60,,0,-0.51348314,-0.287480475,1,0,0,0.6336,button_left,0.6336,1,,,,,,346,NW,"ID",33,saudic,SAUDIC,z,,,,,,-0.51348314,-0.287480475,1,0,0,,0,318,318,285,1,
,,,,,,,,,,,,,,,,,,5f318ffff91fee0689bb3c5c,2020-11-27_15h04.22.200,lexical_decision_task_MP_exp2,2020.2.5,Linux armv8l,60,,0,0.425317116,-0.303083846,1,0,0,1.2848,button_right,1.2848,1,,,,,,10,WORD,UN,16,cruise,ETHNIC,m,,,,,,0.425317116,-0.303083846,1,0,0,,0,319,319,189,1,
,,,,,,,,,,,,,,,,,,5f318ffff91fee0689bb3c5c,2020-11-27_15h04.22.200,lexical_decision_task_MP_exp2,2020.2.5,Linux armv8l,60,,0,-0.505248061,-0.287236704,1,0,0,0.7,button_left,0.7,1,,,,,,406,NW,"ID",16,nouply,NOUPLY,z,,,,,,-0.505248061,-0.287236704,1,0,0,,0,320,320,345,1,
,,,,,,,,,,,,,,,,,,5f318ffff91fee0689bb3c5c,2020-11-27_15h04.22.200,lexical_decision_task_MP_exp2,2020.2.5,Linux armv8l,60,,0,-0.515027241,-0.271389563,1,0,0,0.669,button_left,0.669,1,,,,,,400,NW,"ID",16,wearox,WEAROX,z,,,,,,-0.515027241,-0.271389563,1,0,0,,0,321,321,339,1,
,,,,,,,,,,,,,,,,,,5f318ffff91fee0689bb3c5c,2020-11-27_15h04.22.200,lexical_decision_task_MP_exp2,2020.2.5,Linux armv8l,60,,0,-0.508850912,-0.286261475,1,0,0,0.8165,button_left,0.8165,1,,,,,,476,NW,UN,33,photie,JOSTED,z,,,,,,-0.508850912,-0.286261475,1,0,0,,0,322,322,415,1,
,,,,,,,,,,,,,,,,,,5f318ffff91fee0689bb3c5c,2020-11-27_15h04.22.200,lexical_decision_task_MP_exp2,2020.2.5,Linux armv8l,60,,0,-0.513997828,-0.274802791,1,0,0,0.654,button_left,0.654,1,,,,,,344,NW,"ID",33,scrily,SCRILY,z,,,,,,-0.513997828,-0.274802791,1,0,0,,0,323,323,283,1,
,,,,,,,,,,,,,,,,,,5f318ffff91fee0689bb3c5c,2020-11-27_15h04.22.200,lexical_decision_task_MP_exp2,2020.2.5,Linux armv8l,60,,0,0.487595049,-0.28553009,1,0,0,0.629,button_right,0.629,1,,,,,,96,WORD,"ID",33,ignore,IGNORE,m,,,,,,0.487595049,-0.28553009,1,0,0,,0,324,324,35,1,
,,,,,,,,,,,,,,,,,,5f318ffff91fee0689bb3c5c,2020-11-27_15h04.22.200,lexical_decision_task_MP_exp2,2020.2.5,Linux armv8l,60,,0,0.476271842,-0.292844161,1,0,0,0.6023,button_right,0.6023,1,,,,,,185,WORD,UN,33,portal,BOTHER,m,,,,,,0.476271842,-0.292844161,1,0,0,,0,325,325,124,1,
,,,,,,,,,,,,,,,,,,5f318ffff91fee0689bb3c5c,2020-11-27_15h04.22.200,lexical_decision_task_MP_exp2,2020.2.5,Linux armv8l,60,,0,-0.529953336,-0.274559095,1,0,0,0.6856,button_left,0.6856,1,,,,,,287,NW,UN,16,yaceup,NYMBEL,z,,,,,,-0.529953336,-0.274559095,1,0,0,,0,326,326,466,1,
,,,,,,,,,,,,,,,,,,5f318ffff91fee0689bb3c5c,2020-11-27_15h04.22.200,lexical_decision_task_MP_exp2,2020.2.5,Linux armv8l,60,,0,-0.51914478,-0.294550775,1,0,0,0.9192,button_left,0.9192,1,,,,,,295,NW,UN,16,beinch,GLEATH,z,,,,,,-0.51914478,-0.294550775,1,0,0,,0,327,327,474,1,
,,,,,,,,,,,,,,,,,,5f318ffff91fee0689bb3c5c,2020-11-27_15h04.22.200,lexical_decision_task_MP_exp2,2020.2.5,Linux armv8l,60,,0,0.497374155,-0.299183003,1,0,0,0.6985,button_right,0.6985,1,,,,,,80,WORD,"ID",33,family,FAMILY,m,,,,,,0.497374155,-0.299183003,1,0,0,,0,328,328,19,1,
,,,,,,,,,,,,,,,,,,5f318ffff91fee0689bb3c5c,2020-11-27_15h04.22.200,lexical_decision_task_MP_exp2,2020.2.5,Linux armv8l,60,,0,0.495315404,-0.288455704,1,0,0,0.9017,button_right,0.9017,1,,,,,,23,WORD,UN,16,praise,WEALTH,m,,,,,,0.495315404,-0.288455704,1,0,0,,0,329,329,202,1,
,,,,,,,,,,,,,,,,,,5f318ffff91fee0689bb3c5c,2020-11-27_15h04.22.200,lexical_decision_task_MP_exp2,2020.2.5,Linux armv8l,60,,0,-0.526350484,-0.295769775,1,0,0,0.9146,button_left,0.9146,1,,,,,,397,NW,"ID",16,camble,CAMBLE,z,,,,,,-0.526350484,-0.295769775,1,0,0,,0,330,330,336,1,
,,,,,,,,,,,,,,,,,,5f318ffff91fee0689bb3c5c,2020-11-27_15h04.22.200,lexical_decision_task_MP_exp2,2020.2.5,Linux armv8l,60,,0,-0.505762748,-0.272852481,1,0,0,0.6507,button_left,0.6507,1,,,,,,307,NW,"ID",33,kirafe,KIRAFE,z,,,,,,-0.505762748,-0.272852481,1,0,0,,0,331,331,246,1,
,,,,,,,,,,,,,,,,,,5f318ffff91fee0689bb3c5c,2020-11-27_15h04.22.200,lexical_decision_task_MP_exp2,2020.2.5,Linux armv8l,60,,0,-0.524291696,-0.288699548,1,0,0,0.6318,button_left,0.6318,1,,,,,,407,NW,"ID",16,suiver,SUIVER,z,,,,,,-0.524291696,-0.288699548,1,0,0,,0,332,332,346,1,
,,,,,,,,,,,,,,,,,,5f318ffff91fee0689bb3c5c,2020-11-27_15h04.22.200,lexical_decision_task_MP_exp2,2020.2.5,Linux armv8l,60,,0,0.502521107,-0.302596231,1,0,0,0.6884,button_right,0.6884,1,,,,,,190,WORD,UN,33,stable,BACKUP,m,,,,,,0.502521107,-0.302596231,1,0,0,,0,333,333,129,1,
,,,,,,,,,,,,,,,,,,5f318ffff91fee0689bb3c5c,2020-11-27_15h04.22.200,lexical_decision_task_MP_exp2,2020.2.5,Linux armv8l,60,,0,0.512815013,-0.294063161,1,0,0,1.0041,button_right,1.0041,1,,,,,,45,WORD,UN,16,single,CLERGY,m,,,,,,0.512815013,-0.294063161,1,0,0,,0,334,334,224,1,
