counterbalancing_condition,instr_done_keyboard.keys,instr_done_keyboard.rt,instr_done_touch.x,instr_done_touch.y,instr_done_touch.leftButton,instr_done_touch.midButton,instr_done_touch.rightButton,instruction_pages.thisRepN,instruction_pages.thisTrialN,instruction_pages.thisN,instruction_pages.thisIndex,instruction_pages.ran,pageN,phase,instruct_text,has_image,instruct_image,participant,date,expName,psychopyVersion,OS,frameRate,response.keys,response.corr,response.rt,touch_resp.x,touch_resp.y,touch_resp.leftButton,touch_resp.midButton,touch_resp.rightButton,touch_resp.time,touch_resp.clicked_name,rt,corr,practice_trials.thisRepN,practice_trials.thisTrialN,practice_trials.thisN,practice_trials.thisIndex,practice_trials.ran,TrialID,StimulusType,Condition,PrimeDuration,Prime,Target,corrAns,instr_done_touch.clicked_name,end_of_practice_trials_pages.thisRepN,end_of_practice_trials_pages.thisTrialN,end_of_practice_trials_pages.thisN,end_of_practice_trials_pages.thisIndex,end_of_practice_trials_pages.ran,break_done_touch.x,break_done_touch.y,break_done_touch.leftButton,break_done_touch.midButton,break_done_touch.rightButton,break_done_keyboard.keys,experiment_trials.thisRepN,experiment_trials.thisTrialN,experiment_trials.thisN,experiment_trials.thisIndex,experiment_trials.ran,break_done_keyboard.rt
3,space,10.59784,0.019444472,-0.20925928,0,0,0,0,0,0,0,1,1,instructions,"INSTRUCTIONS
At the start of each trial, look at the hash marks (######) in the center of the screen. After a moment, a string of letters will appear. Your task is to indicate if the letter string forms a word or not (i.e., if it is a nonword). For example, AUTHOR is a word while AUTHON is a nonword.

Press the space bar or touch the button below to continue.",0,,5f3b042dd1a0bd7f377766e9,2020-11-26_15h59.53.574,lexical_decision_task_MP_exp2,2020.2.5,Win32,60,,,,,,,,,,,,,,,,,,,,,,,,,,,,,,,,,,,,,,,,,,
,space,2.082615,0.022222249,-0.008333348,0,0,0,0,1,1,1,1,2,instructions,"If your device has a keyboard, press the 'Z' key for nonwords and the 'M' key for words.





Press the space bar or touch the button below to continue.",1,keyboard-example.gif,5f3b042dd1a0bd7f377766e9,2020-11-26_15h59.53.574,lexical_decision_task_MP_exp2,2020.2.5,Win32,60,,,,,,,,,,,,,,,,,,,,,,,,,,,,,,,,,,,,,,,,,,
,space,1.14929,0.035185269,0.000925911,0,0,0,0,2,2,2,1,3,instructions,"If you are using a touchscreen only device, use the buttons on the screen. Do not use the mouse.





Press the space bar or touch the button below to continue.",1,touchscreen-example.gif,5f3b042dd1a0bd7f377766e9,2020-11-26_15h59.53.574,lexical_decision_task_MP_exp2,2020.2.5,Win32,60,,,,,,,,,,,,,,,,,,,,,,,,,,,,,,,,,,,,,,,,,,
,space,1.549875,0.035185269,0.000925911,0,0,0,0,3,3,3,1,4,instructions,"It is very important that you respond as quickly and accurately as possible, as each letter string will only be on the screen for two seconds. If you do not respond within this time, the message 'Too slow!' will be displayed and the experiment will progress to the next letter string. The first 20 trials will be practice trials and you will receive feedback on your answers. 

Press the space bar or touch the button below to start the practice trials.",0,,5f3b042dd1a0bd7f377766e9,2020-11-26_15h59.53.574,lexical_decision_task_MP_exp2,2020.2.5,Win32,60,,,,,,,,,,,,,,,,,,,,,,,,,,,,,,,,,,,,,,,,,,
,,,,,,,,,,,,,,,,,,5f3b042dd1a0bd7f377766e9,2020-11-26_15h59.53.574,lexical_decision_task_MP_exp2,2020.2.5,Win32,60,z,1,1.74219,,,,,,,,1.74219,1,0,0,0,14,1,1015,NW,UN,16,miaber,THRALE,z,,,,,,,,,,,,,,,,,,
,,,,,,,,,,,,,,,,,,5f3b042dd1a0bd7f377766e9,2020-11-26_15h59.53.574,lexical_decision_task_MP_exp2,2020.2.5,Win32,60,m,1,0.65553,,,,,,,,0.65553,1,0,1,1,2,1,1003,WORD,"ID",16,almond,ALMOND,m,,,,,,,,,,,,,,,,,,
,,,,,,,,,,,,,,,,,,5f3b042dd1a0bd7f377766e9,2020-11-26_15h59.53.574,lexical_decision_task_MP_exp2,2020.2.5,Win32,60,m,0,0.898615,,,,,,,,0.898615,0,0,2,2,11,1,1012,NW,"ID",16,rashet,RASHET,z,,,,,,,,,,,,,,,,,,
,,,,,,,,,,,,,,,,,,5f3b042dd1a0bd7f377766e9,2020-11-26_15h59.53.574,lexical_decision_task_MP_exp2,2020.2.5,Win32,60,z,1,1.01431,,,,,,,,1.01431,1,0,3,3,12,1,1013,NW,UN,33,adveil,SPRINY,z,,,,,,,,,,,,,,,,,,
,,,,,,,,,,,,,,,,,,5f3b042dd1a0bd7f377766e9,2020-11-26_15h59.53.574,lexical_decision_task_MP_exp2,2020.2.5,Win32,60,m,1,0.73884,,,,,,,,0.73884,1,0,4,4,5,1,1006,WORD,UN,33,frenzy,OBTAIN,m,,,,,,,,,,,,,,,,,,
,,,,,,,,,,,,,,,,,,5f3b042dd1a0bd7f377766e9,2020-11-26_15h59.53.574,lexical_decision_task_MP_exp2,2020.2.5,Win32,60,z,0,0.675035,,,,,,,,0.675035,0,0,5,5,6,1,1007,WORD,UN,16,tropic,ZOMBIE,m,,,,,,,,,,,,,,,,,,
,,,,,,,,,,,,,,,,,,5f3b042dd1a0bd7f377766e9,2020-11-26_15h59.53.574,lexical_decision_task_MP_exp2,2020.2.5,Win32,60,m,1,0.6154,,,,,,,,0.6154,1,0,6,6,7,1,1008,WORD,UN,16,hurdle,VOLUME,m,,,,,,,,,,,,,,,,,,
,,,,,,,,,,,,,,,,,,5f3b042dd1a0bd7f377766e9,2020-11-26_15h59.53.574,lexical_decision_task_MP_exp2,2020.2.5,Win32,60,m,1,0.563295,,,,,,,,0.563295,1,0,7,7,4,1,1005,WORD,UN,33,abound,SQUEAK,m,,,,,,,,,,,,,,,,,,
,,,,,,,,,,,,,,,,,,5f3b042dd1a0bd7f377766e9,2020-11-26_15h59.53.574,lexical_decision_task_MP_exp2,2020.2.5,Win32,60,m,1,0.83429,,,,,,,,0.83429,1,0,8,8,0,1,1001,WORD,"ID",33,utopia,UTOPIA,m,,,,,,,,,,,,,,,,,,
,,,,,,,,,,,,,,,,,,5f3b042dd1a0bd7f377766e9,2020-11-26_15h59.53.574,lexical_decision_task_MP_exp2,2020.2.5,Win32,60,m,0,0.784935,,,,,,,,0.784935,0,0,9,9,10,1,1011,NW,"ID",16,inlade,INLADE,z,,,,,,,,,,,,,,,,,,
,,,,,,,,,,,,,,,,,,5f3b042dd1a0bd7f377766e9,2020-11-26_15h59.53.574,lexical_decision_task_MP_exp2,2020.2.5,Win32,60,z,1,0.67092,,,,,,,,0.67092,1,0,10,10,15,1,1016,NW,UN,16,mushed,WHAISE,z,,,,,,,,,,,,,,,,,,
,,,,,,,,,,,,,,,,,,5f3b042dd1a0bd7f377766e9,2020-11-26_15h59.53.574,lexical_decision_task_MP_exp2,2020.2.5,Win32,60,z,1,0.927655,,,,,,,,0.927655,1,0,11,11,8,1,1009,NW,"ID",33,aslert,ASLERT,z,,,,,,,,,,,,,,,,,,
,,,,,,,,,,,,,,,,,,5f3b042dd1a0bd7f377766e9,2020-11-26_15h59.53.574,lexical_decision_task_MP_exp2,2020.2.5,Win32,60,z,1,0.820065,,,,,,,,0.820065,1,0,12,12,9,1,1010,NW,"ID",33,fariny,FARINY,z,,,,,,,,,,,,,,,,,,
,,,,,,,,,,,,,,,,,,5f3b042dd1a0bd7f377766e9,2020-11-26_15h59.53.574,lexical_decision_task_MP_exp2,2020.2.5,Win32,60,m,1,0.566745,,,,,,,,0.566745,1,0,13,13,1,1,1002,WORD,"ID",33,adjust,ADJUST,m,,,,,,,,,,,,,,,,,,
,,,,,,,,,,,,,,,,,,5f3b042dd1a0bd7f377766e9,2020-11-26_15h59.53.574,lexical_decision_task_MP_exp2,2020.2.5,Win32,60,m,1,0.534895,,,,,,,,0.534895,1,0,14,14,3,1,1004,WORD,"ID",16,matrix,MATRIX,m,,,,,,,,,,,,,,,,,,
,,,,,,,,,,,,,,,,,,5f3b042dd1a0bd7f377766e9,2020-11-26_15h59.53.574,lexical_decision_task_MP_exp2,2020.2.5,Win32,60,z,1,0.82279,,,,,,,,0.82279,1,0,15,15,13,1,1014,NW,UN,33,winfer,ROUPET,z,,,,,,,,,,,,,,,,,,
,,,0.064814843,-0.37870373,1,0,0,,,,,,1,end_of_practice,"You have completed the practice trials. During the experimental trials, you will not receive feedback, but it is very important that you respond as quickly and accurately as possible. 
Before you begin, please ensure that you are in a comfortable and quiet location and will not be disturbed for about 15 minutes, as we cannot use your data if you do not complete all the trials. 
There will be opportunities to take breaks at regular intervals during the experiment. When you are ready to start the experimental trials, please press space or touch the button below.",,,5f3b042dd1a0bd7f377766e9,2020-11-26_15h59.53.574,lexical_decision_task_MP_exp2,2020.2.5,Win32,60,,,,,,,,,,,,,,,,,,,,,,,,,instr_done_button,0,0,0,0,1,,,,,,,,,,,,
,,,,,,,,,,,,,,,,,,5f3b042dd1a0bd7f377766e9,2020-11-26_15h59.53.574,lexical_decision_task_MP_exp2,2020.2.5,Win32,60,z,1,1.03332,,,,,,,,1.03332,1,,,,,,372,NW,"ID",16,ramily,RAMILY,z,,,,,,,0.135185216,-0.241666689,0,0,0,,0,0,0,311,1,
,,,,,,,,,,,,,,,,,,5f3b042dd1a0bd7f377766e9,2020-11-26_15h59.53.574,lexical_decision_task_MP_exp2,2020.2.5,Win32,60,z,1,0.769685,,,,,,,,0.769685,1,,,,,,466,NW,UN,33,robuly,HOCITE,z,,,,,,,0.135185216,-0.241666689,0,0,0,,0,1,1,405,1,
,,,,,,,,,,,,,,,,,,5f3b042dd1a0bd7f377766e9,2020-11-26_15h59.53.574,lexical_decision_task_MP_exp2,2020.2.5,Win32,60,m,1,0.650585,,,,,,,,0.650585,1,,,,,,92,WORD,"ID",33,strand,STRAND,m,,,,,,,0.135185216,-0.241666689,0,0,0,,0,2,2,31,1,
,,,,,,,,,,,,,,,,,,5f3b042dd1a0bd7f377766e9,2020-11-26_15h59.53.574,lexical_decision_task_MP_exp2,2020.2.5,Win32,60,z,1,0.80472,,,,,,,,0.80472,1,,,,,,340,NW,"ID",33,fiatch,FIATCH,z,,,,,,,0.135185216,-0.241666689,0,0,0,,0,3,3,279,1,
,,,,,,,,,,,,,,,,,,5f3b042dd1a0bd7f377766e9,2020-11-26_15h59.53.574,lexical_decision_task_MP_exp2,2020.2.5,Win32,60,z,1,1.75005,,,,,,,,1.75005,1,,,,,,400,NW,"ID",16,wearox,WEAROX,z,,,,,,,0.135185216,-0.241666689,0,0,0,,0,4,4,339,1,
,,,,,,,,,,,,,,,,,,5f3b042dd1a0bd7f377766e9,2020-11-26_15h59.53.574,lexical_decision_task_MP_exp2,2020.2.5,Win32,60,m,1,0.55014,,,,,,,,0.55014,1,,,,,,117,WORD,"ID",33,branch,BRANCH,m,,,,,,,0.135185216,-0.241666689,0,0,0,,0,5,5,56,1,
,,,,,,,,,,,,,,,,,,5f3b042dd1a0bd7f377766e9,2020-11-26_15h59.53.574,lexical_decision_task_MP_exp2,2020.2.5,Win32,60,z,1,0.86023,,,,,,,,0.86023,1,,,,,,397,NW,"ID",16,camble,CAMBLE,z,,,,,,,0.135185216,-0.241666689,0,0,0,,0,6,6,336,1,
,,,,,,,,,,,,,,,,,,5f3b042dd1a0bd7f377766e9,2020-11-26_15h59.53.574,lexical_decision_task_MP_exp2,2020.2.5,Win32,60,m,1,0.670685,,,,,,,,0.670685,1,,,,,,60,WORD,UN,16,fright,PENCIL,m,,,,,,,0.135185216,-0.241666689,0,0,0,,0,7,7,239,1,
,,,,,,,,,,,,,,,,,,5f3b042dd1a0bd7f377766e9,2020-11-26_15h59.53.574,lexical_decision_task_MP_exp2,2020.2.5,Win32,60,m,1,0.56212,,,,,,,,0.56212,1,,,,,,116,WORD,"ID",33,tumble,TUMBLE,m,,,,,,,0.135185216,-0.241666689,0,0,0,,0,8,8,55,1,
,,,,,,,,,,,,,,,,,,5f3b042dd1a0bd7f377766e9,2020-11-26_15h59.53.574,lexical_decision_task_MP_exp2,2020.2.5,Win32,60,z,1,0.7005,,,,,,,,0.7005,1,,,,,,318,NW,"ID",33,reagly,REAGLY,z,,,,,,,0.135185216,-0.241666689,0,0,0,,0,9,9,257,1,
,,,,,,,,,,,,,,,,,,5f3b042dd1a0bd7f377766e9,2020-11-26_15h59.53.574,lexical_decision_task_MP_exp2,2020.2.5,Win32,60,m,1,0.63045,,,,,,,,0.63045,1,,,,,,123,WORD,"ID",16,strike,STRIKE,m,,,,,,,0.135185216,-0.241666689,0,0,0,,0,10,10,62,1,
,,,,,,,,,,,,,,,,,,5f3b042dd1a0bd7f377766e9,2020-11-26_15h59.53.574,lexical_decision_task_MP_exp2,2020.2.5,Win32,60,z,1,0.61976,,,,,,,,0.61976,1,,,,,,450,NW,UN,33,cainky,PHRECT,z,,,,,,,0.135185216,-0.241666689,0,0,0,,0,11,11,389,1,
,,,,,,,,,,,,,,,,,,5f3b042dd1a0bd7f377766e9,2020-11-26_15h59.53.574,lexical_decision_task_MP_exp2,2020.2.5,Win32,60,z,1,0.71261,,,,,,,,0.71261,1,,,,,,381,NW,"ID",16,huniek,HUNIEK,z,,,,,,,0.135185216,-0.241666689,0,0,0,,0,12,12,320,1,
,,,,,,,,,,,,,,,,,,5f3b042dd1a0bd7f377766e9,2020-11-26_15h59.53.574,lexical_decision_task_MP_exp2,2020.2.5,Win32,60,z,1,1.86716,,,,,,,,1.86716,1,,,,,,303,NW,"ID",33,fiream,FIREAM,z,,,,,,,0.135185216,-0.241666689,0,0,0,,0,13,13,242,1,
,,,,,,,,,,,,,,,,,,5f3b042dd1a0bd7f377766e9,2020-11-26_15h59.53.574,lexical_decision_task_MP_exp2,2020.2.5,Win32,60,z,1,0.81731,,,,,,,,0.81731,1,,,,,,446,NW,UN,33,gircue,RUNAMO,z,,,,,,,0.135185216,-0.241666689,0,0,0,,0,14,14,385,1,
,,,,,,,,,,,,,,,,,,5f3b042dd1a0bd7f377766e9,2020-11-26_15h59.53.574,lexical_decision_task_MP_exp2,2020.2.5,Win32,60,m,1,0.62537,,,,,,,,0.62537,1,,,,,,121,WORD,"ID",16,thrive,THRIVE,m,,,,,,,0.135185216,-0.241666689,0,0,0,,0,15,15,60,1,
,,,,,,,,,,,,,,,,,,5f3b042dd1a0bd7f377766e9,2020-11-26_15h59.53.574,lexical_decision_task_MP_exp2,2020.2.5,Win32,60,z,1,0.78732,,,,,,,,0.78732,1,,,,,,469,NW,UN,33,crudio,PADIFS,z,,,,,,,0.135185216,-0.241666689,0,0,0,,0,16,16,408,1,
,,,,,,,,,,,,,,,,,,5f3b042dd1a0bd7f377766e9,2020-11-26_15h59.53.574,lexical_decision_task_MP_exp2,2020.2.5,Win32,60,m,1,0.63742,,,,,,,,0.63742,1,,,,,,227,WORD,UN,33,master,SELDOM,m,,,,,,,0.135185216,-0.241666689,0,0,0,,0,17,17,166,1,
,,,,,,,,,,,,,,,,,,5f3b042dd1a0bd7f377766e9,2020-11-26_15h59.53.574,lexical_decision_task_MP_exp2,2020.2.5,Win32,60,m,1,0.708755,,,,,,,,0.708755,1,,,,,,86,WORD,"ID",33,rodent,RODENT,m,,,,,,,0.135185216,-0.241666689,0,0,0,,0,18,18,25,1,
,,,,,,,,,,,,,,,,,,5f3b042dd1a0bd7f377766e9,2020-11-26_15h59.53.574,lexical_decision_task_MP_exp2,2020.2.5,Win32,60,z,1,0.731145,,,,,,,,0.731145,1,,,,,,335,NW,"ID",33,desion,DESION,z,,,,,,,0.135185216,-0.241666689,0,0,0,,0,19,19,274,1,
,,,,,,,,,,,,,,,,,,5f3b042dd1a0bd7f377766e9,2020-11-26_15h59.53.574,lexical_decision_task_MP_exp2,2020.2.5,Win32,60,z,1,0.6331,,,,,,,,0.6331,1,,,,,,307,NW,"ID",33,kirafe,KIRAFE,z,,,,,,,0.135185216,-0.241666689,0,0,0,,0,20,20,246,1,
,,,,,,,,,,,,,,,,,,5f3b042dd1a0bd7f377766e9,2020-11-26_15h59.53.574,lexical_decision_task_MP_exp2,2020.2.5,Win32,60,m,1,0.64527,,,,,,,,0.64527,1,,,,,,127,WORD,"ID",16,castle,CASTLE,m,,,,,,,0.135185216,-0.241666689,0,0,0,,0,21,21,66,1,
,,,,,,,,,,,,,,,,,,5f3b042dd1a0bd7f377766e9,2020-11-26_15h59.53.574,lexical_decision_task_MP_exp2,2020.2.5,Win32,60,m,1,0.80263,,,,,,,,0.80263,1,,,,,,184,WORD,UN,33,bother,SLEAZY,m,,,,,,,0.135185216,-0.241666689,0,0,0,,0,22,22,123,1,
,,,,,,,,,,,,,,,,,,5f3b042dd1a0bd7f377766e9,2020-11-26_15h59.53.574,lexical_decision_task_MP_exp2,2020.2.5,Win32,60,m,1,0.56344,,,,,,,,0.56344,1,,,,,,154,WORD,"ID",16,author,AUTHOR,m,,,,,,,0.135185216,-0.241666689,0,0,0,,0,23,23,93,1,
,,,,,,,,,,,,,,,,,,5f3b042dd1a0bd7f377766e9,2020-11-26_15h59.53.574,lexical_decision_task_MP_exp2,2020.2.5,Win32,60,m,1,0.562555,,,,,,,,0.562555,1,,,,,,232,WORD,UN,33,nature,INJECT,m,,,,,,,0.135185216,-0.241666689,0,0,0,,0,24,24,171,1,
,,,,,,,,,,,,,,,,,,5f3b042dd1a0bd7f377766e9,2020-11-26_15h59.53.574,lexical_decision_task_MP_exp2,2020.2.5,Win32,60,m,1,0.494425,,,,,,,,0.494425,1,,,,,,99,WORD,"ID",33,fluent,FLUENT,m,,,,,,,0.135185216,-0.241666689,0,0,0,,0,25,25,38,1,
,,,,,,,,,,,,,,,,,,5f3b042dd1a0bd7f377766e9,2020-11-26_15h59.53.574,lexical_decision_task_MP_exp2,2020.2.5,Win32,60,z,1,0.89063,,,,,,,,0.89063,1,,,,,,477,NW,UN,33,lobush,PHOTIE,z,,,,,,,0.135185216,-0.241666689,0,0,0,,0,26,26,416,1,
,,,,,,,,,,,,,,,,,,5f3b042dd1a0bd7f377766e9,2020-11-26_15h59.53.574,lexical_decision_task_MP_exp2,2020.2.5,Win32,60,z,1,0.76284,,,,,,,,0.76284,1,,,,,,279,NW,UN,16,curbol,CELOND,z,,,,,,,0.135185216,-0.241666689,0,0,0,,0,27,27,458,1,
,,,,,,,,,,,,,,,,,,5f3b042dd1a0bd7f377766e9,2020-11-26_15h59.53.574,lexical_decision_task_MP_exp2,2020.2.5,Win32,60,z,1,0.82831,,,,,,,,0.82831,1,,,,,,338,NW,"ID",33,wreash,WREASH,z,,,,,,,0.135185216,-0.241666689,0,0,0,,0,28,28,277,1,
,,,,,,,,,,,,,,,,,,5f3b042dd1a0bd7f377766e9,2020-11-26_15h59.53.574,lexical_decision_task_MP_exp2,2020.2.5,Win32,60,m,1,0.567085,,,,,,,,0.567085,1,,,,,,168,WORD,"ID",16,answer,ANSWER,m,,,,,,,0.135185216,-0.241666689,0,0,0,,0,29,29,107,1,
,,,,,,,,,,,,,,,,,,5f3b042dd1a0bd7f377766e9,2020-11-26_15h59.53.574,lexical_decision_task_MP_exp2,2020.2.5,Win32,60,z,1,0.82295,,,,,,,,0.82295,1,,,,,,332,NW,"ID",33,vangue,VANGUE,z,,,,,,,0.135185216,-0.241666689,0,0,0,,0,30,30,271,1,
,,,,,,,,,,,,,,,,,,5f3b042dd1a0bd7f377766e9,2020-11-26_15h59.53.574,lexical_decision_task_MP_exp2,2020.2.5,Win32,60,z,1,0.733625,,,,,,,,0.733625,1,,,,,,304,NW,"ID",33,cludie,CLUDIE,z,,,,,,,0.135185216,-0.241666689,0,0,0,,0,31,31,243,1,
,,,,,,,,,,,,,,,,,,5f3b042dd1a0bd7f377766e9,2020-11-26_15h59.53.574,lexical_decision_task_MP_exp2,2020.2.5,Win32,60,z,1,0.636565,,,,,,,,0.636565,1,,,,,,290,NW,UN,16,pretch,SPLINO,z,,,,,,,0.135185216,-0.241666689,0,0,0,,0,32,32,469,1,
,,,,,,,,,,,,,,,,,,5f3b042dd1a0bd7f377766e9,2020-11-26_15h59.53.574,lexical_decision_task_MP_exp2,2020.2.5,Win32,60,m,1,0.705325,,,,,,,,0.705325,1,,,,,,229,WORD,UN,33,fringe,MOTHER,m,,,,,,,0.135185216,-0.241666689,0,0,0,,0,33,33,168,1,
,,,,,,,,,,,,,,,,,,5f3b042dd1a0bd7f377766e9,2020-11-26_15h59.53.574,lexical_decision_task_MP_exp2,2020.2.5,Win32,60,z,1,0.75731,,,,,,,,0.75731,1,,,,,,342,NW,"ID",33,randow,RANDOW,z,,,,,,,0.135185216,-0.241666689,0,0,0,,0,34,34,281,1,
,,,,,,,,,,,,,,,,,,5f3b042dd1a0bd7f377766e9,2020-11-26_15h59.53.574,lexical_decision_task_MP_exp2,2020.2.5,Win32,60,z,1,0.774395,,,,,,,,0.774395,1,,,,,,370,NW,"ID",16,sleact,SLEACT,z,,,,,,,0.135185216,-0.241666689,0,0,0,,0,35,35,309,1,
,,,,,,,,,,,,,,,,,,5f3b042dd1a0bd7f377766e9,2020-11-26_15h59.53.574,lexical_decision_task_MP_exp2,2020.2.5,Win32,60,z,1,0.590525,,,,,,,,0.590525,1,,,,,,390,NW,"ID",16,hatrus,HATRUS,z,,,,,,,0.135185216,-0.241666689,0,0,0,,0,36,36,329,1,
,,,,,,,,,,,,,,,,,,5f3b042dd1a0bd7f377766e9,2020-11-26_15h59.53.574,lexical_decision_task_MP_exp2,2020.2.5,Win32,60,m,1,0.73772,,,,,,,,0.73772,1,,,,,,119,WORD,"ID",33,spider,SPIDER,m,,,,,,,0.135185216,-0.241666689,0,0,0,,0,37,37,58,1,
,,,,,,,,,,,,,,,,,,5f3b042dd1a0bd7f377766e9,2020-11-26_15h59.53.574,lexical_decision_task_MP_exp2,2020.2.5,Win32,60,m,1,1.23352,,,,,,,,1.23352,1,,,,,,87,WORD,"ID",33,filter,FILTER,m,,,,,,,0.135185216,-0.241666689,0,0,0,,0,38,38,26,1,
,,,,,,,,,,,,,,,,,,5f3b042dd1a0bd7f377766e9,2020-11-26_15h59.53.574,lexical_decision_task_MP_exp2,2020.2.5,Win32,60,z,1,0.75021,,,,,,,,0.75021,1,,,,,,398,NW,"ID",16,blunde,BLUNDE,z,,,,,,,0.135185216,-0.241666689,0,0,0,,0,39,39,337,1,
,,,,,,,,,,,,,,,,,,5f3b042dd1a0bd7f377766e9,2020-11-26_15h59.53.574,lexical_decision_task_MP_exp2,2020.2.5,Win32,60,z,1,0.63125,,,,,,,,0.63125,1,,,,,,273,NW,UN,16,fumblo,SORTEL,z,,,,,,,0.135185216,-0.241666689,0,0,0,,0,40,40,452,1,
,,,,,,,,,,,,,,,,,,5f3b042dd1a0bd7f377766e9,2020-11-26_15h59.53.574,lexical_decision_task_MP_exp2,2020.2.5,Win32,60,m,1,0.607615,,,,,,,,0.607615,1,,,,,,135,WORD,"ID",16,import,IMPORT,m,,,,,,,0.135185216,-0.241666689,0,0,0,,0,41,41,74,1,
,,,,,,,,,,,,,,,,,,5f3b042dd1a0bd7f377766e9,2020-11-26_15h59.53.574,lexical_decision_task_MP_exp2,2020.2.5,Win32,60,z,1,0.56157,,,,,,,,0.56157,1,,,,,,438,NW,UN,33,limpor,BAITCH,z,,,,,,,0.135185216,-0.241666689,0,0,0,,0,42,42,377,1,
,,,,,,,,,,,,,,,,,,5f3b042dd1a0bd7f377766e9,2020-11-26_15h59.53.574,lexical_decision_task_MP_exp2,2020.2.5,Win32,60,z,1,1.02616,,,,,,,,1.02616,1,,,,,,433,NW,UN,33,pitrom,DRANCE,z,,,,,,,0.135185216,-0.241666689,0,0,0,,0,43,43,372,1,
,,,,,,,,,,,,,,,,,,5f3b042dd1a0bd7f377766e9,2020-11-26_15h59.53.574,lexical_decision_task_MP_exp2,2020.2.5,Win32,60,m,1,0.86904,,,,,,,,0.86904,1,,,,,,122,WORD,"ID",16,linger,LINGER,m,,,,,,,0.135185216,-0.241666689,0,0,0,,0,44,44,61,1,
,,,,,,,,,,,,,,,,,,5f3b042dd1a0bd7f377766e9,2020-11-26_15h59.53.574,lexical_decision_task_MP_exp2,2020.2.5,Win32,60,z,1,0.65981,,,,,,,,0.65981,1,,,,,,410,NW,"ID",16,tunory,TUNORY,z,,,,,,,0.135185216,-0.241666689,0,0,0,,0,45,45,349,1,
,,,,,,,,,,,,,,,,,,5f3b042dd1a0bd7f377766e9,2020-11-26_15h59.53.574,lexical_decision_task_MP_exp2,2020.2.5,Win32,60,m,0,1.547355,,,,,,,,1.547355,0,,,,,,250,NW,UN,16,lupict,MILTED,z,,,,,,,0.135185216,-0.241666689,0,0,0,,0,46,46,429,1,
,,,,,,,,,,,,,,,,,,5f3b042dd1a0bd7f377766e9,2020-11-26_15h59.53.574,lexical_decision_task_MP_exp2,2020.2.5,Win32,60,m,1,0.976965,,,,,,,,0.976965,1,,,,,,8,WORD,UN,16,hustle,ABRUPT,m,,,,,,,0.135185216,-0.241666689,0,0,0,,0,47,47,187,1,
,,,,,,,,,,,,,,,,,,5f3b042dd1a0bd7f377766e9,2020-11-26_15h59.53.574,lexical_decision_task_MP_exp2,2020.2.5,Win32,60,,0,,,,,,,,,0.976965,-1,,,,,,403,NW,"ID",16,bruats,BRUATS,z,,,,,,,0.135185216,-0.241666689,0,0,0,,0,48,48,342,1,
,,,,,,,,,,,,,,,,,,5f3b042dd1a0bd7f377766e9,2020-11-26_15h59.53.574,lexical_decision_task_MP_exp2,2020.2.5,Win32,60,z,1,1.44522,,,,,,,,1.44522,1,,,,,,447,NW,UN,33,sadent,GIRCUE,z,,,,,,,0.136111142,-0.233333355,0,0,0,,0,49,49,386,1,
,,,,,,,,,,,,,,,,,,5f3b042dd1a0bd7f377766e9,2020-11-26_15h59.53.574,lexical_decision_task_MP_exp2,2020.2.5,Win32,60,z,1,0.972915,,,,,,,,0.972915,1,,,,,,309,NW,"ID",33,amiloy,AMILOY,z,,,,,,,0.130555586,-0.235185264,0,0,0,,0,50,50,248,1,
,,,,,,,,,,,,,,,,,,5f3b042dd1a0bd7f377766e9,2020-11-26_15h59.53.574,lexical_decision_task_MP_exp2,2020.2.5,Win32,60,z,1,0.644515,,,,,,,,0.644515,1,,,,,,331,NW,"ID",33,gilfew,GILFEW,z,,,,,,,0.130555586,-0.235185264,0,0,0,,0,51,51,270,1,
,,,,,,,,,,,,,,,,,,5f3b042dd1a0bd7f377766e9,2020-11-26_15h59.53.574,lexical_decision_task_MP_exp2,2020.2.5,Win32,60,m,1,0.596385,,,,,,,,0.596385,1,,,,,,112,WORD,"ID",33,breath,BREATH,m,,,,,,,0.130555586,-0.235185264,0,0,0,,0,52,52,51,1,
,,,,,,,,,,,,,,,,,,5f3b042dd1a0bd7f377766e9,2020-11-26_15h59.53.574,lexical_decision_task_MP_exp2,2020.2.5,Win32,60,m,1,0.639695,,,,,,,,0.639695,1,,,,,,233,WORD,UN,33,clumsy,NATURE,m,,,,,,,0.130555586,-0.235185264,0,0,0,,0,53,53,172,1,
,,,,,,,,,,,,,,,,,,5f3b042dd1a0bd7f377766e9,2020-11-26_15h59.53.574,lexical_decision_task_MP_exp2,2020.2.5,Win32,60,m,1,0.57463,,,,,,,,0.57463,1,,,,,,198,WORD,UN,33,invoke,WICKED,m,,,,,,,0.130555586,-0.235185264,0,0,0,,0,54,54,137,1,
,,,,,,,,,,,,,,,,,,5f3b042dd1a0bd7f377766e9,2020-11-26_15h59.53.574,lexical_decision_task_MP_exp2,2020.2.5,Win32,60,m,1,0.577815,,,,,,,,0.577815,1,,,,,,31,WORD,UN,16,buckle,WEAPON,m,,,,,,,0.130555586,-0.235185264,0,0,0,,0,55,55,210,1,
,,,,,,,,,,,,,,,,,,5f3b042dd1a0bd7f377766e9,2020-11-26_15h59.53.574,lexical_decision_task_MP_exp2,2020.2.5,Win32,60,z,1,0.840595,,,,,,,,0.840595,1,,,,,,457,NW,UN,33,barcet,WANIGH,z,,,,,,,0.130555586,-0.235185264,0,0,0,,0,56,56,396,1,
,,,,,,,,,,,,,,,,,,5f3b042dd1a0bd7f377766e9,2020-11-26_15h59.53.574,lexical_decision_task_MP_exp2,2020.2.5,Win32,60,m,1,0.75589,,,,,,,,0.75589,1,,,,,,236,WORD,UN,33,grumpy,PIRATE,m,,,,,,,0.130555586,-0.235185264,0,0,0,,0,57,57,175,1,
,,,,,,,,,,,,,,,,,,5f3b042dd1a0bd7f377766e9,2020-11-26_15h59.53.574,lexical_decision_task_MP_exp2,2020.2.5,Win32,60,z,1,0.73307,,,,,,,,0.73307,1,,,,,,275,NW,UN,16,yarmon,SLEIRT,z,,,,,,,0.130555586,-0.235185264,0,0,0,,0,58,58,454,1,
,,,,,,,,,,,,,,,,,,5f3b042dd1a0bd7f377766e9,2020-11-26_15h59.53.574,lexical_decision_task_MP_exp2,2020.2.5,Win32,60,z,1,0.650085,,,,,,,,0.650085,1,,,,,,405,NW,"ID",16,flumni,FLUMNI,z,,,,,,,0.130555586,-0.235185264,0,0,0,,0,59,59,344,1,
,,,,,,,,,,,,,,,,,,5f3b042dd1a0bd7f377766e9,2020-11-26_15h59.53.574,lexical_decision_task_MP_exp2,2020.2.5,Win32,60,z,1,1.58575,,,,,,,,1.58575,1,,,,,,326,NW,"ID",33,iguade,IGUADE,z,,,,,,,0.130555586,-0.235185264,0,0,0,,0,60,60,265,1,
,,,,,,,,,,,,,,,,,,5f3b042dd1a0bd7f377766e9,2020-11-26_15h59.53.574,lexical_decision_task_MP_exp2,2020.2.5,Win32,60,z,1,0.775365,,,,,,,,0.775365,1,,,,,,272,NW,UN,16,sortel,DAMILT,z,,,,,,,0.130555586,-0.235185264,0,0,0,,0,61,61,451,1,
,,,,,,,,,,,,,,,,,,5f3b042dd1a0bd7f377766e9,2020-11-26_15h59.53.574,lexical_decision_task_MP_exp2,2020.2.5,Win32,60,m,1,0.536825,,,,,,,,0.536825,1,,,,,,136,WORD,"ID",16,bleach,BLEACH,m,,,,,,,0.130555586,-0.235185264,0,0,0,,0,62,62,75,1,
,,,,,,,,,,,,,,,,,,5f3b042dd1a0bd7f377766e9,2020-11-26_15h59.53.574,lexical_decision_task_MP_exp2,2020.2.5,Win32,60,z,1,0.60595,,,,,,,,0.60595,1,,,,,,251,NW,UN,16,stapod,LUPICT,z,,,,,,,0.130555586,-0.235185264,0,0,0,,0,63,63,430,1,
,,,,,,,,,,,,,,,,,,5f3b042dd1a0bd7f377766e9,2020-11-26_15h59.53.574,lexical_decision_task_MP_exp2,2020.2.5,Win32,60,m,1,0.67321,,,,,,,,0.67321,1,,,,,,167,WORD,"ID",16,design,DESIGN,m,,,,,,,0.130555586,-0.235185264,0,0,0,,0,64,64,106,1,
,,,,,,,,,,,,,,,,,,5f3b042dd1a0bd7f377766e9,2020-11-26_15h59.53.574,lexical_decision_task_MP_exp2,2020.2.5,Win32,60,m,1,0.754555,,,,,,,,0.754555,1,,,,,,188,WORD,UN,33,censor,SOCIAL,m,,,,,,,0.130555586,-0.235185264,0,0,0,,0,65,65,127,1,
,,,,,,,,,,,,,,,,,,5f3b042dd1a0bd7f377766e9,2020-11-26_15h59.53.574,lexical_decision_task_MP_exp2,2020.2.5,Win32,60,z,1,0.819415,,,,,,,,0.819415,1,,,,,,367,NW,"ID",16,slique,SLIQUE,z,,,,,,,0.130555586,-0.235185264,0,0,0,,0,66,66,306,1,
,,,,,,,,,,,,,,,,,,5f3b042dd1a0bd7f377766e9,2020-11-26_15h59.53.574,lexical_decision_task_MP_exp2,2020.2.5,Win32,60,m,0,0.83362,,,,,,,,0.83362,0,,,,,,345,NW,"ID",33,absend,ABSEND,z,,,,,,,0.130555586,-0.235185264,0,0,0,,0,67,67,284,1,
,,,,,,,,,,,,,,,,,,5f3b042dd1a0bd7f377766e9,2020-11-26_15h59.53.574,lexical_decision_task_MP_exp2,2020.2.5,Win32,60,m,1,0.753115,,,,,,,,0.753115,1,,,,,,85,WORD,"ID",33,sprawl,SPRAWL,m,,,,,,,0.130555586,-0.235185264,0,0,0,,0,68,68,24,1,
,,,,,,,,,,,,,,,,,,5f3b042dd1a0bd7f377766e9,2020-11-26_15h59.53.574,lexical_decision_task_MP_exp2,2020.2.5,Win32,60,m,1,0.55004,,,,,,,,0.55004,1,,,,,,2,WORD,UN,16,knight,BRIDGE,m,,,,,,,0.130555586,-0.235185264,0,0,0,,0,69,69,181,1,
,,,,,,,,,,,,,,,,,,5f3b042dd1a0bd7f377766e9,2020-11-26_15h59.53.574,lexical_decision_task_MP_exp2,2020.2.5,Win32,60,z,1,0.82447,,,,,,,,0.82447,1,,,,,,460,NW,UN,33,justre,MINGAR,z,,,,,,,0.130555586,-0.235185264,0,0,0,,0,70,70,399,1,
,,,,,,,,,,,,,,,,,,5f3b042dd1a0bd7f377766e9,2020-11-26_15h59.53.574,lexical_decision_task_MP_exp2,2020.2.5,Win32,60,z,1,0.76689,,,,,,,,0.76689,1,,,,,,473,NW,UN,33,hablin,CRIBLE,z,,,,,,,0.130555586,-0.235185264,0,0,0,,0,71,71,412,1,
,,,,,,,,,,,,,,,,,,5f3b042dd1a0bd7f377766e9,2020-11-26_15h59.53.574,lexical_decision_task_MP_exp2,2020.2.5,Win32,60,m,1,0.53862,,,,,,,,0.53862,1,,,,,,173,WORD,"ID",16,shower,SHOWER,m,,,,,,,0.130555586,-0.235185264,0,0,0,,0,72,72,112,1,
,,,,,,,,,,,,,,,,,,5f3b042dd1a0bd7f377766e9,2020-11-26_15h59.53.574,lexical_decision_task_MP_exp2,2020.2.5,Win32,60,z,1,0.61349,,,,,,,,0.61349,1,,,,,,373,NW,"ID",16,bigent,BIGENT,z,,,,,,,0.130555586,-0.235185264,0,0,0,,0,73,73,312,1,
,,,,,,,,,,,,,,,,,,5f3b042dd1a0bd7f377766e9,2020-11-26_15h59.53.574,lexical_decision_task_MP_exp2,2020.2.5,Win32,60,m,1,0.83043,,,,,,,,0.83043,1,,,,,,16,WORD,UN,16,charge,FAUCET,m,,,,,,,0.130555586,-0.235185264,0,0,0,,0,74,74,195,1,
,,,,,,,,,,,,,,,,,,5f3b042dd1a0bd7f377766e9,2020-11-26_15h59.53.574,lexical_decision_task_MP_exp2,2020.2.5,Win32,60,z,1,1.42946,,,,,,,,1.42946,1,,,,,,471,NW,UN,33,cigney,NOBEST,z,,,,,,,0.130555586,-0.235185264,0,0,0,,0,75,75,410,1,
,,,,,,,,,,,,,,,,,,5f3b042dd1a0bd7f377766e9,2020-11-26_15h59.53.574,lexical_decision_task_MP_exp2,2020.2.5,Win32,60,m,1,0.696865,,,,,,,,0.696865,1,,,,,,138,WORD,"ID",16,melody,MELODY,m,,,,,,,0.130555586,-0.235185264,0,0,0,,0,76,76,77,1,
,,,,,,,,,,,,,,,,,,5f3b042dd1a0bd7f377766e9,2020-11-26_15h59.53.574,lexical_decision_task_MP_exp2,2020.2.5,Win32,60,m,1,0.552385,,,,,,,,0.552385,1,,,,,,175,WORD,"ID",16,fabric,FABRIC,m,,,,,,,0.130555586,-0.235185264,0,0,0,,0,77,77,114,1,
,,,,,,,,,,,,,,,,,,5f3b042dd1a0bd7f377766e9,2020-11-26_15h59.53.574,lexical_decision_task_MP_exp2,2020.2.5,Win32,60,m,1,0.59224,,,,,,,,0.59224,1,,,,,,50,WORD,UN,16,hungry,SNATCH,m,,,,,,,0.130555586,-0.235185264,0,0,0,,0,78,78,229,1,
,,,,,,,,,,,,,,,,,,5f3b042dd1a0bd7f377766e9,2020-11-26_15h59.53.574,lexical_decision_task_MP_exp2,2020.2.5,Win32,60,z,1,0.69805,,,,,,,,0.69805,1,,,,,,480,NW,UN,33,knisma,ROBULY,z,,,,,,,0.130555586,-0.235185264,0,0,0,,0,79,79,419,1,
,,,,,,,,,,,,,,,,,,5f3b042dd1a0bd7f377766e9,2020-11-26_15h59.53.574,lexical_decision_task_MP_exp2,2020.2.5,Win32,60,m,1,0.669185,,,,,,,,0.669185,1,,,,,,24,WORD,UN,16,domain,PRAISE,m,,,,,,,0.130555586,-0.235185264,0,0,0,,0,80,80,203,1,
,,,,,,,,,,,,,,,,,,5f3b042dd1a0bd7f377766e9,2020-11-26_15h59.53.574,lexical_decision_task_MP_exp2,2020.2.5,Win32,60,z,1,0.634895,,,,,,,,0.634895,1,,,,,,383,NW,"ID",16,aungre,AUNGRE,z,,,,,,,0.130555586,-0.235185264,0,0,0,,0,81,81,322,1,
,,,,,,,,,,,,,,,,,,5f3b042dd1a0bd7f377766e9,2020-11-26_15h59.53.574,lexical_decision_task_MP_exp2,2020.2.5,Win32,60,m,1,0.67211,,,,,,,,0.67211,1,,,,,,17,WORD,UN,16,humble,CHARGE,m,,,,,,,0.130555586,-0.235185264,0,0,0,,0,82,82,196,1,
,,,,,,,,,,,,,,,,,,5f3b042dd1a0bd7f377766e9,2020-11-26_15h59.53.574,lexical_decision_task_MP_exp2,2020.2.5,Win32,60,,0,,,,,,,,,0.67211,-1,,,,,,45,WORD,UN,16,single,CLERGY,m,,,,,,,0.130555586,-0.235185264,0,0,0,,0,83,83,224,1,
,,,,,,,,,,,,,,,,,,5f3b042dd1a0bd7f377766e9,2020-11-26_15h59.53.574,lexical_decision_task_MP_exp2,2020.2.5,Win32,60,m,1,0.869665,,,,,,,,0.869665,1,,,,,,110,WORD,"ID",33,polite,POLITE,m,,,,,,,0.130555586,-0.235185264,0,0,0,,0,84,84,49,1,
,,,,,,,,,,,,,,,,,,5f3b042dd1a0bd7f377766e9,2020-11-26_15h59.53.574,lexical_decision_task_MP_exp2,2020.2.5,Win32,60,z,1,0.817115,,,,,,,,0.817115,1,,,,,,339,NW,"ID",33,fachow,FACHOW,z,,,,,,,0.130555586,-0.235185264,0,0,0,,0,85,85,278,1,
,,,,,,,,,,,,,,,,,,5f3b042dd1a0bd7f377766e9,2020-11-26_15h59.53.574,lexical_decision_task_MP_exp2,2020.2.5,Win32,60,z,1,0.57734,,,,,,,,0.57734,1,,,,,,361,NW,"ID",16,pauche,PAUCHE,z,,,,,,,0.130555586,-0.235185264,0,0,0,,0,86,86,300,1,
,,,,,,,,,,,,,,,,,,5f3b042dd1a0bd7f377766e9,2020-11-26_15h59.53.574,lexical_decision_task_MP_exp2,2020.2.5,Win32,60,m,1,0.493235,,,,,,,,0.493235,1,,,,,,239,WORD,UN,33,forest,LUMBER,m,,,,,,,0.130555586,-0.235185264,0,0,0,,0,87,87,178,1,
,,,,,,,,,,,,,,,,,,5f3b042dd1a0bd7f377766e9,2020-11-26_15h59.53.574,lexical_decision_task_MP_exp2,2020.2.5,Win32,60,m,1,0.947335,,,,,,,,0.947335,1,,,,,,21,WORD,UN,16,jockey,SIMPLE,m,,,,,,,0.130555586,-0.235185264,0,0,0,,0,88,88,200,1,
,,,,,,,,,,,,,,,,,,5f3b042dd1a0bd7f377766e9,2020-11-26_15h59.53.574,lexical_decision_task_MP_exp2,2020.2.5,Win32,60,m,1,0.800225,,,,,,,,0.800225,1,,,,,,63,WORD,"ID",33,launch,LAUNCH,m,,,,,,,0.130555586,-0.235185264,0,0,0,,0,89,89,2,1,
,,,,,,,,,,,,,,,,,,5f3b042dd1a0bd7f377766e9,2020-11-26_15h59.53.574,lexical_decision_task_MP_exp2,2020.2.5,Win32,60,m,1,0.60916,,,,,,,,0.60916,1,,,,,,97,WORD,"ID",33,client,CLIENT,m,,,,,,,0.130555586,-0.235185264,0,0,0,,0,90,90,36,1,
,,,,,,,,,,,,,,,,,,5f3b042dd1a0bd7f377766e9,2020-11-26_15h59.53.574,lexical_decision_task_MP_exp2,2020.2.5,Win32,60,z,1,0.8239,,,,,,,,0.8239,1,,,,,,364,NW,"ID",16,impote,IMPOTE,z,,,,,,,0.130555586,-0.235185264,0,0,0,,0,91,91,303,1,
,,,,,,,,,,,,,,,,,,5f3b042dd1a0bd7f377766e9,2020-11-26_15h59.53.574,lexical_decision_task_MP_exp2,2020.2.5,Win32,60,z,1,1.025555,,,,,,,,1.025555,1,,,,,,334,NW,"ID",33,watmeg,WATMEG,z,,,,,,,0.130555586,-0.235185264,0,0,0,,0,92,92,273,1,
,,,,,,,,,,,,,,,,,,5f3b042dd1a0bd7f377766e9,2020-11-26_15h59.53.574,lexical_decision_task_MP_exp2,2020.2.5,Win32,60,m,1,0.787235,,,,,,,,0.787235,1,,,,,,78,WORD,"ID",33,column,COLUMN,m,,,,,,,0.130555586,-0.235185264,0,0,0,,0,93,93,17,1,
,,,,,,,,,,,,,,,,,,5f3b042dd1a0bd7f377766e9,2020-11-26_15h59.53.574,lexical_decision_task_MP_exp2,2020.2.5,Win32,60,m,1,0.53119,,,,,,,,0.53119,1,,,,,,159,WORD,"ID",16,detail,DETAIL,m,,,,,,,0.130555586,-0.235185264,0,0,0,,0,94,94,98,1,
,,,,,,,,,,,,,,,,,,5f3b042dd1a0bd7f377766e9,2020-11-26_15h59.53.574,lexical_decision_task_MP_exp2,2020.2.5,Win32,60,m,1,0.533525,,,,,,,,0.533525,1,,,,,,214,WORD,UN,33,phobia,INTAKE,m,,,,,,,0.130555586,-0.235185264,0,0,0,,0,95,95,153,1,
,,,,,,,,,,,,,,,,,,5f3b042dd1a0bd7f377766e9,2020-11-26_15h59.53.574,lexical_decision_task_MP_exp2,2020.2.5,Win32,60,m,1,0.590995,,,,,,,,0.590995,1,,,,,,177,WORD,"ID",16,advent,ADVENT,m,,,,,,,0.130555586,-0.235185264,0,0,0,,0,96,96,116,1,
,,,,,,,,,,,,,,,,,,5f3b042dd1a0bd7f377766e9,2020-11-26_15h59.53.574,lexical_decision_task_MP_exp2,2020.2.5,Win32,60,z,1,0.81365,,,,,,,,0.81365,1,,,,,,319,NW,"ID",33,zomber,ZOMBER,z,,,,,,,0.130555586,-0.235185264,0,0,0,,0,97,97,258,1,
,,,,,,,,,,,,,,,,,,5f3b042dd1a0bd7f377766e9,2020-11-26_15h59.53.574,lexical_decision_task_MP_exp2,2020.2.5,Win32,60,z,1,0.994165,,,,,,,,0.994165,1,,,,,,277,NW,UN,16,unighs,PETAIN,z,,,,,,,0.130555586,-0.235185264,0,0,0,,0,98,98,456,1,
,,,,,,,,,,,,,,,,,,5f3b042dd1a0bd7f377766e9,2020-11-26_15h59.53.574,lexical_decision_task_MP_exp2,2020.2.5,Win32,60,m,1,0.757285,,,,,,,,0.757285,1,,,,,,141,WORD,"ID",16,orphan,ORPHAN,m,,,,,,,0.130555586,-0.235185264,0,0,0,,0,99,99,80,1,
,,,,,,,,,,,,,,,,,,5f3b042dd1a0bd7f377766e9,2020-11-26_15h59.53.574,lexical_decision_task_MP_exp2,2020.2.5,Win32,60,m,1,0.500245,,,,,,,,0.500245,1,,,,,,26,WORD,UN,16,butler,SPRINT,m,,,,,,,0.130555586,-0.235185264,0,0,0,,0,100,100,205,1,
,,,,,,,,,,,,,,,,,,5f3b042dd1a0bd7f377766e9,2020-11-26_15h59.53.574,lexical_decision_task_MP_exp2,2020.2.5,Win32,60,z,0,0.75781,,,,,,,,0.75781,0,,,,,,176,WORD,"ID",16,strife,STRIFE,m,,,,,,,0.130555586,-0.235185264,0,0,0,,0,101,101,115,1,
,,,,,,,,,,,,,,,,,,5f3b042dd1a0bd7f377766e9,2020-11-26_15h59.53.574,lexical_decision_task_MP_exp2,2020.2.5,Win32,60,z,1,0.96283,,,,,,,,0.96283,1,,,,,,369,NW,"ID",16,wronch,WRONCH,z,,,,,,,0.130555586,-0.235185264,0,0,0,,0,102,102,308,1,
,,,,,,,,,,,,,,,,,,5f3b042dd1a0bd7f377766e9,2020-11-26_15h59.53.574,lexical_decision_task_MP_exp2,2020.2.5,Win32,60,z,1,0.643965,,,,,,,,0.643965,1,,,,,,464,NW,UN,33,whivex,CHAITE,z,,,,,,,0.130555586,-0.235185264,0,0,0,,0,103,103,403,1,
,,,,,,,,,,,,,,,,,,5f3b042dd1a0bd7f377766e9,2020-11-26_15h59.53.574,lexical_decision_task_MP_exp2,2020.2.5,Win32,60,m,1,0.64562,,,,,,,,0.64562,1,,,,,,171,WORD,"ID",16,depart,DEPART,m,,,,,,,0.130555586,-0.235185264,0,0,0,,0,104,104,110,1,
,,,,,,,,,,,,,,,,,,5f3b042dd1a0bd7f377766e9,2020-11-26_15h59.53.574,lexical_decision_task_MP_exp2,2020.2.5,Win32,60,z,1,0.98343,,,,,,,,0.98343,1,,,,,,289,NW,UN,16,splino,STARBY,z,,,,,,,0.130555586,-0.235185264,0,0,0,,0,105,105,468,1,
,,,,,,,,,,,,,,,,,,5f3b042dd1a0bd7f377766e9,2020-11-26_15h59.53.574,lexical_decision_task_MP_exp2,2020.2.5,Win32,60,z,1,0.714165,,,,,,,,0.714165,1,,,,,,333,NW,"ID",33,catrie,CATRIE,z,,,,,,,0.130555586,-0.235185264,0,0,0,,0,106,106,272,1,
,,,,,,,,,,,,,,,,,,5f3b042dd1a0bd7f377766e9,2020-11-26_15h59.53.574,lexical_decision_task_MP_exp2,2020.2.5,Win32,60,m,1,0.76035,,,,,,,,0.76035,1,,,,,,77,WORD,"ID",33,racket,RACKET,m,,,,,,,0.130555586,-0.235185264,0,0,0,,0,107,107,16,1,
,,,,,,,,,,,,,,,,,,5f3b042dd1a0bd7f377766e9,2020-11-26_15h59.53.574,lexical_decision_task_MP_exp2,2020.2.5,Win32,60,m,1,0.557015,,,,,,,,0.557015,1,,,,,,145,WORD,"ID",16,parish,PARISH,m,,,,,,,0.130555586,-0.235185264,0,0,0,,0,108,108,84,1,
,,,,,,,,,,,,,,,,,,5f3b042dd1a0bd7f377766e9,2020-11-26_15h59.53.574,lexical_decision_task_MP_exp2,2020.2.5,Win32,60,m,1,0.599755,,,,,,,,0.599755,1,,,,,,206,WORD,UN,33,wreath,TAILOR,m,,,,,,,0.130555586,-0.235185264,0,0,0,,0,109,109,145,1,
,,,,,,,,,,,,,,,,,,5f3b042dd1a0bd7f377766e9,2020-11-26_15h59.53.574,lexical_decision_task_MP_exp2,2020.2.5,Win32,60,z,1,0.79047,,,,,,,,0.79047,1,,,,,,317,NW,"ID",33,worbal,WORBAL,z,,,,,,,0.130555586,-0.235185264,0,0,0,,0,110,110,256,1,
,,,,,,,,,,,,,,,,,,5f3b042dd1a0bd7f377766e9,2020-11-26_15h59.53.574,lexical_decision_task_MP_exp2,2020.2.5,Win32,60,z,1,0.628215,,,,,,,,0.628215,1,,,,,,254,NW,UN,16,apight,VAROSH,z,,,,,,,0.130555586,-0.235185264,0,0,0,,0,111,111,433,1,
,,,,,,,,,,,,,,,,,,5f3b042dd1a0bd7f377766e9,2020-11-26_15h59.53.574,lexical_decision_task_MP_exp2,2020.2.5,Win32,60,z,1,0.65021,,,,,,,,0.65021,1,,,,,,421,NW,UN,33,alcoud,KNISMA,z,,,,,,,0.130555586,-0.235185264,0,0,0,,0,112,112,360,1,
,,,,,,,,,,,,,,,,,,5f3b042dd1a0bd7f377766e9,2020-11-26_15h59.53.574,lexical_decision_task_MP_exp2,2020.2.5,Win32,60,z,1,0.780805,,,,,,,,0.780805,1,,,,,,320,NW,"ID",33,jockal,JOCKAL,z,,,,,,,0.130555586,-0.235185264,0,0,0,,0,113,113,259,1,
,,,,,,,,,,,,,,,,,,5f3b042dd1a0bd7f377766e9,2020-11-26_15h59.53.574,lexical_decision_task_MP_exp2,2020.2.5,Win32,60,m,1,0.53132,,,,,,,,0.53132,1,,,,,,18,WORD,UN,16,patron,HUMBLE,m,,,,,,,0.130555586,-0.235185264,0,0,0,,0,114,114,197,1,
,,,,,,,,,,,,,,,,,,5f3b042dd1a0bd7f377766e9,2020-11-26_15h59.53.574,lexical_decision_task_MP_exp2,2020.2.5,Win32,60,z,1,0.650205,,,,,,,,0.650205,1,,,,,,362,NW,"ID",16,tireau,TIREAU,z,,,,,,,0.130555586,-0.235185264,0,0,0,,0,115,115,301,1,
,,,,,,,,,,,,,,,,,,5f3b042dd1a0bd7f377766e9,2020-11-26_15h59.53.574,lexical_decision_task_MP_exp2,2020.2.5,Win32,60,m,1,0.541335,,,,,,,,0.541335,1,,,,,,46,WORD,UN,16,income,SINGLE,m,,,,,,,0.130555586,-0.235185264,0,0,0,,0,116,116,225,1,
,,,,,,,,,,,,,,,,,,5f3b042dd1a0bd7f377766e9,2020-11-26_15h59.53.574,lexical_decision_task_MP_exp2,2020.2.5,Win32,60,m,1,0.78849,,,,,,,,0.78849,1,,,,,,35,WORD,UN,16,vanish,SOCKET,m,,,,,,,0.130555586,-0.235185264,0,0,0,,0,117,117,214,1,
,,,,,,,,,,,,,,,,,,5f3b042dd1a0bd7f377766e9,2020-11-26_15h59.53.574,lexical_decision_task_MP_exp2,2020.2.5,Win32,60,z,1,0.620855,,,,,,,,0.620855,1,,,,,,377,NW,"ID",16,injore,INJORE,z,,,,,,,0.130555586,-0.235185264,0,0,0,,0,118,118,316,1,
,,,,,,,,,,,,,,,,,,5f3b042dd1a0bd7f377766e9,2020-11-26_15h59.53.574,lexical_decision_task_MP_exp2,2020.2.5,Win32,60,m,1,0.451865,,,,,,,,0.451865,1,,,,,,47,WORD,UN,16,walnut,INCOME,m,,,,,,,0.130555586,-0.235185264,0,0,0,,0,119,119,226,1,
,,,,,,,,,,,,,,,,,,5f3b042dd1a0bd7f377766e9,2020-11-26_15h59.53.574,lexical_decision_task_MP_exp2,2020.2.5,Win32,60,z,1,0.52998,,,,,,,,0.52998,1,,,,,,375,NW,"ID",16,yorque,YORQUE,z,,,,,,,0.130555586,-0.235185264,0,0,0,space,0,120,120,314,1,2.888195
,,,,,,,,,,,,,,,,,,5f3b042dd1a0bd7f377766e9,2020-11-26_15h59.53.574,lexical_decision_task_MP_exp2,2020.2.5,Win32,60,m,1,1.300205,,,,,,,,1.300205,1,,,,,,124,WORD,"ID",16,blouse,BLOUSE,m,,,,,,,0.130555586,-0.235185264,0,0,0,,0,121,121,63,1,
,,,,,,,,,,,,,,,,,,5f3b042dd1a0bd7f377766e9,2020-11-26_15h59.53.574,lexical_decision_task_MP_exp2,2020.2.5,Win32,60,z,1,0.76685,,,,,,,,0.76685,1,,,,,,242,NW,UN,16,musied,UNWERT,z,,,,,,,0.130555586,-0.235185264,0,0,0,,0,122,122,421,1,
,,,,,,,,,,,,,,,,,,5f3b042dd1a0bd7f377766e9,2020-11-26_15h59.53.574,lexical_decision_task_MP_exp2,2020.2.5,Win32,60,m,1,0.68815,,,,,,,,0.68815,1,,,,,,10,WORD,UN,16,cruise,ETHNIC,m,,,,,,,0.130555586,-0.235185264,0,0,0,,0,123,123,189,1,
,,,,,,,,,,,,,,,,,,5f3b042dd1a0bd7f377766e9,2020-11-26_15h59.53.574,lexical_decision_task_MP_exp2,2020.2.5,Win32,60,m,1,0.541355,,,,,,,,0.541355,1,,,,,,217,WORD,UN,33,shrink,LIQUOR,m,,,,,,,0.130555586,-0.235185264,0,0,0,,0,124,124,156,1,
,,,,,,,,,,,,,,,,,,5f3b042dd1a0bd7f377766e9,2020-11-26_15h59.53.574,lexical_decision_task_MP_exp2,2020.2.5,Win32,60,m,1,0.51652,,,,,,,,0.51652,1,,,,,,4,WORD,UN,16,plunge,TRENCH,m,,,,,,,0.130555586,-0.235185264,0,0,0,,0,125,125,183,1,
,,,,,,,,,,,,,,,,,,5f3b042dd1a0bd7f377766e9,2020-11-26_15h59.53.574,lexical_decision_task_MP_exp2,2020.2.5,Win32,60,m,1,0.51258,,,,,,,,0.51258,1,,,,,,54,WORD,UN,16,stroke,RAMBLE,m,,,,,,,0.130555586,-0.235185264,0,0,0,,0,126,126,233,1,
,,,,,,,,,,,,,,,,,,5f3b042dd1a0bd7f377766e9,2020-11-26_15h59.53.574,lexical_decision_task_MP_exp2,2020.2.5,Win32,60,m,1,0.49676,,,,,,,,0.49676,1,,,,,,9,WORD,UN,16,bridge,HUSTLE,m,,,,,,,0.130555586,-0.235185264,0,0,0,,0,127,127,188,1,
,,,,,,,,,,,,,,,,,,5f3b042dd1a0bd7f377766e9,2020-11-26_15h59.53.574,lexical_decision_task_MP_exp2,2020.2.5,Win32,60,m,1,0.656835,,,,,,,,0.656835,1,,,,,,151,WORD,"ID",16,mystic,MYSTIC,m,,,,,,,0.130555586,-0.235185264,0,0,0,,0,128,128,90,1,
,,,,,,,,,,,,,,,,,,5f3b042dd1a0bd7f377766e9,2020-11-26_15h59.53.574,lexical_decision_task_MP_exp2,2020.2.5,Win32,60,z,1,0.666915,,,,,,,,0.666915,1,,,,,,270,NW,UN,16,aubrid,WRIMSY,z,,,,,,,0.130555586,-0.235185264,0,0,0,,0,129,129,449,1,
,,,,,,,,,,,,,,,,,,5f3b042dd1a0bd7f377766e9,2020-11-26_15h59.53.574,lexical_decision_task_MP_exp2,2020.2.5,Win32,60,z,1,0.55888,,,,,,,,0.55888,1,,,,,,423,NW,UN,33,praile,STRELD,z,,,,,,,0.130555586,-0.235185264,0,0,0,,0,130,130,362,1,
,,,,,,,,,,,,,,,,,,5f3b042dd1a0bd7f377766e9,2020-11-26_15h59.53.574,lexical_decision_task_MP_exp2,2020.2.5,Win32,60,z,1,0.60673,,,,,,,,0.60673,1,,,,,,395,NW,"ID",16,colury,COLURY,z,,,,,,,0.130555586,-0.235185264,0,0,0,,0,131,131,334,1,
,,,,,,,,,,,,,,,,,,5f3b042dd1a0bd7f377766e9,2020-11-26_15h59.53.574,lexical_decision_task_MP_exp2,2020.2.5,Win32,60,z,1,0.574175,,,,,,,,0.574175,1,,,,,,281,NW,UN,16,porlex,MELATY,z,,,,,,,0.130555586,-0.235185264,0,0,0,,0,132,132,460,1,
,,,,,,,,,,,,,,,,,,5f3b042dd1a0bd7f377766e9,2020-11-26_15h59.53.574,lexical_decision_task_MP_exp2,2020.2.5,Win32,60,m,0,0.65905,,,,,,,,0.65905,0,,,,,,432,NW,UN,33,drance,LUNKER,z,,,,,,,0.130555586,-0.235185264,0,0,0,,0,133,133,371,1,
,,,,,,,,,,,,,,,,,,5f3b042dd1a0bd7f377766e9,2020-11-26_15h59.53.574,lexical_decision_task_MP_exp2,2020.2.5,Win32,60,z,0,0.83993,,,,,,,,0.83993,0,,,,,,234,WORD,UN,33,poster,CLUMSY,m,,,,,,,0.130555586,-0.235185264,0,0,0,,0,134,134,173,1,
,,,,,,,,,,,,,,,,,,5f3b042dd1a0bd7f377766e9,2020-11-26_15h59.53.574,lexical_decision_task_MP_exp2,2020.2.5,Win32,60,z,1,0.7431,,,,,,,,0.7431,1,,,,,,453,NW,UN,33,scouge,BOLVIS,z,,,,,,,0.130555586,-0.235185264,0,0,0,,0,135,135,392,1,
,,,,,,,,,,,,,,,,,,5f3b042dd1a0bd7f377766e9,2020-11-26_15h59.53.574,lexical_decision_task_MP_exp2,2020.2.5,Win32,60,m,1,0.494745,,,,,,,,0.494745,1,,,,,,189,WORD,UN,33,backup,CENSOR,m,,,,,,,0.130555586,-0.235185264,0,0,0,,0,136,136,128,1,
,,,,,,,,,,,,,,,,,,5f3b042dd1a0bd7f377766e9,2020-11-26_15h59.53.574,lexical_decision_task_MP_exp2,2020.2.5,Win32,60,m,1,0.57436,,,,,,,,0.57436,1,,,,,,192,WORD,UN,33,object,PLAGUE,m,,,,,,,0.130555586,-0.235185264,0,0,0,,0,137,137,131,1,
,,,,,,,,,,,,,,,,,,5f3b042dd1a0bd7f377766e9,2020-11-26_15h59.53.574,lexical_decision_task_MP_exp2,2020.2.5,Win32,60,z,1,0.567235,,,,,,,,0.567235,1,,,,,,329,NW,"ID",33,yarike,YARIKE,z,,,,,,,0.130555586,-0.235185264,0,0,0,,0,138,138,268,1,
,,,,,,,,,,,,,,,,,,5f3b042dd1a0bd7f377766e9,2020-11-26_15h59.53.574,lexical_decision_task_MP_exp2,2020.2.5,Win32,60,m,1,0.450155,,,,,,,,0.450155,1,,,,,,44,WORD,UN,16,clergy,DANGER,m,,,,,,,0.130555586,-0.235185264,0,0,0,,0,139,139,223,1,
,,,,,,,,,,,,,,,,,,5f3b042dd1a0bd7f377766e9,2020-11-26_15h59.53.574,lexical_decision_task_MP_exp2,2020.2.5,Win32,60,z,1,0.552065,,,,,,,,0.552065,1,,,,,,300,NW,UN,16,smenco,YARION,z,,,,,,,0.130555586,-0.235185264,0,0,0,,0,140,140,479,1,
,,,,,,,,,,,,,,,,,,5f3b042dd1a0bd7f377766e9,2020-11-26_15h59.53.574,lexical_decision_task_MP_exp2,2020.2.5,Win32,60,z,1,0.63368,,,,,,,,0.63368,1,,,,,,302,NW,"ID",33,miluer,MILUER,z,,,,,,,0.130555586,-0.235185264,0,0,0,,0,141,141,241,1,
,,,,,,,,,,,,,,,,,,5f3b042dd1a0bd7f377766e9,2020-11-26_15h59.53.574,lexical_decision_task_MP_exp2,2020.2.5,Win32,60,m,1,0.502785,,,,,,,,0.502785,1,,,,,,53,WORD,UN,16,ramble,POLICE,m,,,,,,,0.130555586,-0.235185264,0,0,0,,0,142,142,232,1,
,,,,,,,,,,,,,,,,,,5f3b042dd1a0bd7f377766e9,2020-11-26_15h59.53.574,lexical_decision_task_MP_exp2,2020.2.5,Win32,60,m,1,0.597905,,,,,,,,0.597905,1,,,,,,224,WORD,UN,33,vulgar,PERIOD,m,,,,,,,0.130555586,-0.235185264,0,0,0,,0,143,143,163,1,
,,,,,,,,,,,,,,,,,,5f3b042dd1a0bd7f377766e9,2020-11-26_15h59.53.574,lexical_decision_task_MP_exp2,2020.2.5,Win32,60,z,1,0.50065,,,,,,,,0.50065,1,,,,,,427,NW,UN,33,tandly,SCHIND,z,,,,,,,0.130555586,-0.235185264,0,0,0,,0,144,144,366,1,
,,,,,,,,,,,,,,,,,,5f3b042dd1a0bd7f377766e9,2020-11-26_15h59.53.574,lexical_decision_task_MP_exp2,2020.2.5,Win32,60,m,1,0.517065,,,,,,,,0.517065,1,,,,,,218,WORD,UN,33,bucket,SHRINK,m,,,,,,,0.130555586,-0.235185264,0,0,0,,0,145,145,157,1,
,,,,,,,,,,,,,,,,,,5f3b042dd1a0bd7f377766e9,2020-11-26_15h59.53.574,lexical_decision_task_MP_exp2,2020.2.5,Win32,60,z,1,0.47896,,,,,,,,0.47896,1,,,,,,417,NW,"ID",16,earoud,EAROUD,z,,,,,,,0.130555586,-0.235185264,0,0,0,,0,146,146,356,1,
,,,,,,,,,,,,,,,,,,5f3b042dd1a0bd7f377766e9,2020-11-26_15h59.53.574,lexical_decision_task_MP_exp2,2020.2.5,Win32,60,z,1,0.56941,,,,,,,,0.56941,1,,,,,,285,NW,UN,16,reldon,PRUDGE,z,,,,,,,0.130555586,-0.235185264,0,0,0,,0,147,147,464,1,
,,,,,,,,,,,,,,,,,,5f3b042dd1a0bd7f377766e9,2020-11-26_15h59.53.574,lexical_decision_task_MP_exp2,2020.2.5,Win32,60,z,1,0.79283,,,,,,,,0.79283,1,,,,,,437,NW,UN,33,baitch,SNAPEL,z,,,,,,,0.130555586,-0.235185264,0,0,0,,0,148,148,376,1,
,,,,,,,,,,,,,,,,,,5f3b042dd1a0bd7f377766e9,2020-11-26_15h59.53.574,lexical_decision_task_MP_exp2,2020.2.5,Win32,60,m,1,0.69286,,,,,,,,0.69286,1,,,,,,32,WORD,UN,16,scream,BUCKLE,m,,,,,,,0.130555586,-0.235185264,0,0,0,,0,149,149,211,1,
,,,,,,,,,,,,,,,,,,5f3b042dd1a0bd7f377766e9,2020-11-26_15h59.53.574,lexical_decision_task_MP_exp2,2020.2.5,Win32,60,m,1,0.866395,,,,,,,,0.866395,1,,,,,,111,WORD,"ID",33,induce,INDUCE,m,,,,,,,0.130555586,-0.235185264,0,0,0,,0,150,150,50,1,
,,,,,,,,,,,,,,,,,,5f3b042dd1a0bd7f377766e9,2020-11-26_15h59.53.574,lexical_decision_task_MP_exp2,2020.2.5,Win32,60,m,1,0.61083,,,,,,,,0.61083,1,,,,,,107,WORD,"ID",33,slogan,SLOGAN,m,,,,,,,0.130555586,-0.235185264,0,0,0,,0,151,151,46,1,
,,,,,,,,,,,,,,,,,,5f3b042dd1a0bd7f377766e9,2020-11-26_15h59.53.574,lexical_decision_task_MP_exp2,2020.2.5,Win32,60,m,1,0.524135,,,,,,,,0.524135,1,,,,,,146,WORD,"ID",16,couple,COUPLE,m,,,,,,,0.130555586,-0.235185264,0,0,0,,0,152,152,85,1,
,,,,,,,,,,,,,,,,,,5f3b042dd1a0bd7f377766e9,2020-11-26_15h59.53.574,lexical_decision_task_MP_exp2,2020.2.5,Win32,60,m,1,0.71675,,,,,,,,0.71675,1,,,,,,129,WORD,"ID",16,marvel,MARVEL,m,,,,,,,0.130555586,-0.235185264,0,0,0,,0,153,153,68,1,
,,,,,,,,,,,,,,,,,,5f3b042dd1a0bd7f377766e9,2020-11-26_15h59.53.574,lexical_decision_task_MP_exp2,2020.2.5,Win32,60,z,1,1.144015,,,,,,,,1.144015,1,,,,,,478,NW,UN,33,pebric,ACRISE,z,,,,,,,0.130555586,-0.235185264,0,0,0,,0,154,154,417,1,
,,,,,,,,,,,,,,,,,,5f3b042dd1a0bd7f377766e9,2020-11-26_15h59.53.574,lexical_decision_task_MP_exp2,2020.2.5,Win32,60,z,1,0.716845,,,,,,,,0.716845,1,,,,,,284,NW,UN,16,prudge,SHAPLE,z,,,,,,,0.130555586,-0.235185264,0,0,0,,0,155,155,463,1,
,,,,,,,,,,,,,,,,,,5f3b042dd1a0bd7f377766e9,2020-11-26_15h59.53.574,lexical_decision_task_MP_exp2,2020.2.5,Win32,60,z,1,0.75909,,,,,,,,0.75909,1,,,,,,429,NW,UN,33,caroey,FUNTLE,z,,,,,,,0.130555586,-0.235185264,0,0,0,,0,156,156,368,1,
,,,,,,,,,,,,,,,,,,5f3b042dd1a0bd7f377766e9,2020-11-26_15h59.53.574,lexical_decision_task_MP_exp2,2020.2.5,Win32,60,m,1,0.636445,,,,,,,,0.636445,1,,,,,,75,WORD,"ID",33,trophy,TROPHY,m,,,,,,,0.130555586,-0.235185264,0,0,0,,0,157,157,14,1,
,,,,,,,,,,,,,,,,,,5f3b042dd1a0bd7f377766e9,2020-11-26_15h59.53.574,lexical_decision_task_MP_exp2,2020.2.5,Win32,60,m,1,0.584225,,,,,,,,0.584225,1,,,,,,225,WORD,UN,33,casino,VULGAR,m,,,,,,,0.130555586,-0.235185264,0,0,0,,0,158,158,164,1,
,,,,,,,,,,,,,,,,,,5f3b042dd1a0bd7f377766e9,2020-11-26_15h59.53.574,lexical_decision_task_MP_exp2,2020.2.5,Win32,60,m,1,0.587695,,,,,,,,0.587695,1,,,,,,41,WORD,UN,16,chapel,SPRING,m,,,,,,,0.130555586,-0.235185264,0,0,0,,0,159,159,220,1,
,,,,,,,,,,,,,,,,,,5f3b042dd1a0bd7f377766e9,2020-11-26_15h59.53.574,lexical_decision_task_MP_exp2,2020.2.5,Win32,60,z,1,0.816925,,,,,,,,0.816925,1,,,,,,452,NW,UN,33,bolvis,SURDEN,z,,,,,,,0.130555586,-0.235185264,0,0,0,,0,160,160,391,1,
,,,,,,,,,,,,,,,,,,5f3b042dd1a0bd7f377766e9,2020-11-26_15h59.53.574,lexical_decision_task_MP_exp2,2020.2.5,Win32,60,z,1,0.68338,,,,,,,,0.68338,1,,,,,,247,NW,UN,16,strole,BLARGE,z,,,,,,,0.130555586,-0.235185264,0,0,0,,0,161,161,426,1,
,,,,,,,,,,,,,,,,,,5f3b042dd1a0bd7f377766e9,2020-11-26_15h59.53.574,lexical_decision_task_MP_exp2,2020.2.5,Win32,60,m,0,0.464275,,,,,,,,0.464275,0,,,,,,401,NW,"ID",16,mustil,MUSTIL,z,,,,,,,0.130555586,-0.235185264,0,0,0,,0,162,162,340,1,
,,,,,,,,,,,,,,,,,,5f3b042dd1a0bd7f377766e9,2020-11-26_15h59.53.574,lexical_decision_task_MP_exp2,2020.2.5,Win32,60,m,1,0.627765,,,,,,,,0.627765,1,,,,,,100,WORD,"ID",33,carbon,CARBON,m,,,,,,,0.130555586,-0.235185264,0,0,0,,0,163,163,39,1,
,,,,,,,,,,,,,,,,,,5f3b042dd1a0bd7f377766e9,2020-11-26_15h59.53.574,lexical_decision_task_MP_exp2,2020.2.5,Win32,60,m,1,0.587385,,,,,,,,0.587385,1,,,,,,197,WORD,UN,33,wicked,STREAM,m,,,,,,,0.130555586,-0.235185264,0,0,0,,0,164,164,136,1,
,,,,,,,,,,,,,,,,,,5f3b042dd1a0bd7f377766e9,2020-11-26_15h59.53.574,lexical_decision_task_MP_exp2,2020.2.5,Win32,60,z,1,0.638875,,,,,,,,0.638875,1,,,,,,436,NW,UN,33,snapel,FRUTAN,z,,,,,,,0.130555586,-0.235185264,0,0,0,,0,165,165,375,1,
,,,,,,,,,,,,,,,,,,5f3b042dd1a0bd7f377766e9,2020-11-26_15h59.53.574,lexical_decision_task_MP_exp2,2020.2.5,Win32,60,z,1,0.685275,,,,,,,,0.685275,1,,,,,,475,NW,UN,33,josted,PEBRIC,z,,,,,,,0.130555586,-0.235185264,0,0,0,,0,166,166,414,1,
,,,,,,,,,,,,,,,,,,5f3b042dd1a0bd7f377766e9,2020-11-26_15h59.53.574,lexical_decision_task_MP_exp2,2020.2.5,Win32,60,m,1,0.55236,,,,,,,,0.55236,1,,,,,,205,WORD,UN,33,tailor,LOUNGE,m,,,,,,,0.130555586,-0.235185264,0,0,0,,0,167,167,144,1,
,,,,,,,,,,,,,,,,,,5f3b042dd1a0bd7f377766e9,2020-11-26_15h59.53.574,lexical_decision_task_MP_exp2,2020.2.5,Win32,60,z,1,0.58377,,,,,,,,0.58377,1,,,,,,271,NW,UN,16,damilt,AUBRID,z,,,,,,,0.130555586,-0.235185264,0,0,0,,0,168,168,450,1,
,,,,,,,,,,,,,,,,,,5f3b042dd1a0bd7f377766e9,2020-11-26_15h59.53.574,lexical_decision_task_MP_exp2,2020.2.5,Win32,60,z,1,0.592305,,,,,,,,0.592305,1,,,,,,382,NW,"ID",16,sarley,SARLEY,z,,,,,,,0.130555586,-0.235185264,0,0,0,,0,169,169,321,1,
,,,,,,,,,,,,,,,,,,5f3b042dd1a0bd7f377766e9,2020-11-26_15h59.53.574,lexical_decision_task_MP_exp2,2020.2.5,Win32,60,m,1,0.5168,,,,,,,,0.5168,1,,,,,,157,WORD,"ID",16,dragon,DRAGON,m,,,,,,,0.130555586,-0.235185264,0,0,0,,0,170,170,96,1,
,,,,,,,,,,,,,,,,,,5f3b042dd1a0bd7f377766e9,2020-11-26_15h59.53.574,lexical_decision_task_MP_exp2,2020.2.5,Win32,60,m,1,0.45391,,,,,,,,0.45391,1,,,,,,240,WORD,UN,33,seldom,FOREST,m,,,,,,,0.130555586,-0.235185264,0,0,0,,0,171,171,179,1,
,,,,,,,,,,,,,,,,,,5f3b042dd1a0bd7f377766e9,2020-11-26_15h59.53.574,lexical_decision_task_MP_exp2,2020.2.5,Win32,60,z,1,0.64065,,,,,,,,0.64065,1,,,,,,323,NW,"ID",33,rosail,ROSAIL,z,,,,,,,0.130555586,-0.235185264,0,0,0,,0,172,172,262,1,
,,,,,,,,,,,,,,,,,,5f3b042dd1a0bd7f377766e9,2020-11-26_15h59.53.574,lexical_decision_task_MP_exp2,2020.2.5,Win32,60,z,1,0.600025,,,,,,,,0.600025,1,,,,,,406,NW,"ID",16,nouply,NOUPLY,z,,,,,,,0.130555586,-0.235185264,0,0,0,,0,173,173,345,1,
,,,,,,,,,,,,,,,,,,5f3b042dd1a0bd7f377766e9,2020-11-26_15h59.53.574,lexical_decision_task_MP_exp2,2020.2.5,Win32,60,z,1,0.561065,,,,,,,,0.561065,1,,,,,,422,NW,UN,33,streld,ALCOUD,z,,,,,,,0.130555586,-0.235185264,0,0,0,,0,174,174,361,1,
,,,,,,,,,,,,,,,,,,5f3b042dd1a0bd7f377766e9,2020-11-26_15h59.53.574,lexical_decision_task_MP_exp2,2020.2.5,Win32,60,z,0,0.53449,,,,,,,,0.53449,0,,,,,,7,WORD,UN,16,abrupt,ANCHOR,m,,,,,,,0.130555586,-0.235185264,0,0,0,,0,175,175,186,1,
,,,,,,,,,,,,,,,,,,5f3b042dd1a0bd7f377766e9,2020-11-26_15h59.53.574,lexical_decision_task_MP_exp2,2020.2.5,Win32,60,m,1,0.48948,,,,,,,,0.48948,1,,,,,,216,WORD,UN,33,liquor,BEHALF,m,,,,,,,0.130555586,-0.235185264,0,0,0,,0,176,176,155,1,
,,,,,,,,,,,,,,,,,,5f3b042dd1a0bd7f377766e9,2020-11-26_15h59.53.574,lexical_decision_task_MP_exp2,2020.2.5,Win32,60,m,1,0.440735,,,,,,,,0.440735,1,,,,,,12,WORD,UN,16,strive,ORANGE,m,,,,,,,0.130555586,-0.235185264,0,0,0,,0,177,177,191,1,
,,,,,,,,,,,,,,,,,,5f3b042dd1a0bd7f377766e9,2020-11-26_15h59.53.574,lexical_decision_task_MP_exp2,2020.2.5,Win32,60,z,1,0.778275,,,,,,,,0.778275,1,,,,,,455,NW,UN,33,broget,TONDLE,z,,,,,,,0.130555586,-0.235185264,0,0,0,,0,178,178,394,1,
,,,,,,,,,,,,,,,,,,5f3b042dd1a0bd7f377766e9,2020-11-26_15h59.53.574,lexical_decision_task_MP_exp2,2020.2.5,Win32,60,m,1,0.820885,,,,,,,,0.820885,1,,,,,,181,WORD,UN,33,winter,GLANCE,m,,,,,,,0.130555586,-0.235185264,0,0,0,,0,179,179,120,1,
,,,,,,,,,,,,,,,,,,5f3b042dd1a0bd7f377766e9,2020-11-26_15h59.53.574,lexical_decision_task_MP_exp2,2020.2.5,Win32,60,m,1,0.562665,,,,,,,,0.562665,1,,,,,,213,WORD,UN,33,intake,SQUEAL,m,,,,,,,0.130555586,-0.235185264,0,0,0,,0,180,180,152,1,
,,,,,,,,,,,,,,,,,,5f3b042dd1a0bd7f377766e9,2020-11-26_15h59.53.574,lexical_decision_task_MP_exp2,2020.2.5,Win32,60,m,1,0.650225,,,,,,,,0.650225,1,,,,,,199,WORD,UN,33,plague,INVOKE,m,,,,,,,0.130555586,-0.235185264,0,0,0,,0,181,181,138,1,
,,,,,,,,,,,,,,,,,,5f3b042dd1a0bd7f377766e9,2020-11-26_15h59.53.574,lexical_decision_task_MP_exp2,2020.2.5,Win32,60,z,1,0.587515,,,,,,,,0.587515,1,,,,,,262,NW,UN,16,dolica,QUILEW,z,,,,,,,0.130555586,-0.235185264,0,0,0,,0,182,182,441,1,
,,,,,,,,,,,,,,,,,,5f3b042dd1a0bd7f377766e9,2020-11-26_15h59.53.574,lexical_decision_task_MP_exp2,2020.2.5,Win32,60,z,1,0.6187,,,,,,,,0.6187,1,,,,,,245,NW,UN,16,piaton,ANOUGS,z,,,,,,,0.130555586,-0.235185264,0,0,0,,0,183,183,424,1,
,,,,,,,,,,,,,,,,,,5f3b042dd1a0bd7f377766e9,2020-11-26_15h59.53.574,lexical_decision_task_MP_exp2,2020.2.5,Win32,60,m,1,0.563445,,,,,,,,0.563445,1,,,,,,185,WORD,UN,33,portal,BOTHER,m,,,,,,,0.130555586,-0.235185264,0,0,0,,0,184,184,124,1,
,,,,,,,,,,,,,,,,,,5f3b042dd1a0bd7f377766e9,2020-11-26_15h59.53.574,lexical_decision_task_MP_exp2,2020.2.5,Win32,60,m,1,0.47398,,,,,,,,0.47398,1,,,,,,33,WORD,UN,16,jungle,BUTLER,m,,,,,,,0.130555586,-0.235185264,0,0,0,,0,185,185,212,1,
,,,,,,,,,,,,,,,,,,5f3b042dd1a0bd7f377766e9,2020-11-26_15h59.53.574,lexical_decision_task_MP_exp2,2020.2.5,Win32,60,m,1,0.524555,,,,,,,,0.524555,1,,,,,,37,WORD,UN,16,powder,INSULT,m,,,,,,,0.130555586,-0.235185264,0,0,0,,0,186,186,216,1,
,,,,,,,,,,,,,,,,,,5f3b042dd1a0bd7f377766e9,2020-11-26_15h59.53.574,lexical_decision_task_MP_exp2,2020.2.5,Win32,60,z,1,0.516745,,,,,,,,0.516745,1,,,,,,282,NW,UN,16,veralf,PORLEX,z,,,,,,,0.130555586,-0.235185264,0,0,0,,0,187,187,461,1,
,,,,,,,,,,,,,,,,,,5f3b042dd1a0bd7f377766e9,2020-11-26_15h59.53.574,lexical_decision_task_MP_exp2,2020.2.5,Win32,60,z,1,0.600525,,,,,,,,0.600525,1,,,,,,328,NW,"ID",33,broake,BROAKE,z,,,,,,,0.130555586,-0.235185264,0,0,0,,0,188,188,267,1,
,,,,,,,,,,,,,,,,,,5f3b042dd1a0bd7f377766e9,2020-11-26_15h59.53.574,lexical_decision_task_MP_exp2,2020.2.5,Win32,60,z,1,0.620915,,,,,,,,0.620915,1,,,,,,363,NW,"ID",16,breali,BREALI,z,,,,,,,0.130555586,-0.235185264,0,0,0,,0,189,189,302,1,
,,,,,,,,,,,,,,,,,,5f3b042dd1a0bd7f377766e9,2020-11-26_15h59.53.574,lexical_decision_task_MP_exp2,2020.2.5,Win32,60,z,1,0.750305,,,,,,,,0.750305,1,,,,,,286,NW,UN,16,nymbel,RELDON,z,,,,,,,0.130555586,-0.235185264,0,0,0,,0,190,190,465,1,
,,,,,,,,,,,,,,,,,,5f3b042dd1a0bd7f377766e9,2020-11-26_15h59.53.574,lexical_decision_task_MP_exp2,2020.2.5,Win32,60,m,1,0.716505,,,,,,,,0.716505,1,,,,,,160,WORD,"ID",16,violet,VIOLET,m,,,,,,,0.130555586,-0.235185264,0,0,0,,0,191,191,99,1,
,,,,,,,,,,,,,,,,,,5f3b042dd1a0bd7f377766e9,2020-11-26_15h59.53.574,lexical_decision_task_MP_exp2,2020.2.5,Win32,60,z,0,0.580695,,,,,,,,0.580695,0,,,,,,114,WORD,"ID",33,placid,PLACID,m,,,,,,,0.130555586,-0.235185264,0,0,0,,0,192,192,53,1,
,,,,,,,,,,,,,,,,,,5f3b042dd1a0bd7f377766e9,2020-11-26_15h59.53.574,lexical_decision_task_MP_exp2,2020.2.5,Win32,60,m,1,0.672225,,,,,,,,0.672225,1,,,,,,170,WORD,"ID",16,pounce,POUNCE,m,,,,,,,0.130555586,-0.235185264,0,0,0,,0,193,193,109,1,
,,,,,,,,,,,,,,,,,,5f3b042dd1a0bd7f377766e9,2020-11-26_15h59.53.574,lexical_decision_task_MP_exp2,2020.2.5,Win32,60,z,1,0.70012,,,,,,,,0.70012,1,,,,,,261,NW,UN,16,quilew,STUNCH,z,,,,,,,0.130555586,-0.235185264,0,0,0,,0,194,194,440,1,
,,,,,,,,,,,,,,,,,,5f3b042dd1a0bd7f377766e9,2020-11-26_15h59.53.574,lexical_decision_task_MP_exp2,2020.2.5,Win32,60,z,1,0.83584,,,,,,,,0.83584,1,,,,,,407,NW,"ID",16,suiver,SUIVER,z,,,,,,,0.130555586,-0.235185264,0,0,0,,0,195,195,346,1,
,,,,,,,,,,,,,,,,,,5f3b042dd1a0bd7f377766e9,2020-11-26_15h59.53.574,lexical_decision_task_MP_exp2,2020.2.5,Win32,60,z,1,1.283385,,,,,,,,1.283385,1,,,,,,315,NW,"ID",33,laston,LASTON,z,,,,,,,0.130555586,-0.235185264,0,0,0,,0,196,196,254,1,
,,,,,,,,,,,,,,,,,,5f3b042dd1a0bd7f377766e9,2020-11-26_15h59.53.574,lexical_decision_task_MP_exp2,2020.2.5,Win32,60,z,1,0.617035,,,,,,,,0.617035,1,,,,,,442,NW,UN,33,dorsex,ABOUNE,z,,,,,,,0.130555586,-0.235185264,0,0,0,,0,197,197,381,1,
,,,,,,,,,,,,,,,,,,5f3b042dd1a0bd7f377766e9,2020-11-26_15h59.53.574,lexical_decision_task_MP_exp2,2020.2.5,Win32,60,m,1,0.63733,,,,,,,,0.63733,1,,,,,,237,WORD,UN,33,glance,POSTER,m,,,,,,,0.130555586,-0.235185264,0,0,0,,0,198,198,176,1,
,,,,,,,,,,,,,,,,,,5f3b042dd1a0bd7f377766e9,2020-11-26_15h59.53.574,lexical_decision_task_MP_exp2,2020.2.5,Win32,60,m,1,0.583475,,,,,,,,0.583475,1,,,,,,200,WORD,UN,33,admire,BEACON,m,,,,,,,0.130555586,-0.235185264,0,0,0,,0,199,199,139,1,
,,,,,,,,,,,,,,,,,,5f3b042dd1a0bd7f377766e9,2020-11-26_15h59.53.574,lexical_decision_task_MP_exp2,2020.2.5,Win32,60,z,1,0.566865,,,,,,,,0.566865,1,,,,,,350,NW,"ID",33,nagurs,NAGURS,z,,,,,,,0.130555586,-0.235185264,0,0,0,,0,200,200,289,1,
,,,,,,,,,,,,,,,,,,5f3b042dd1a0bd7f377766e9,2020-11-26_15h59.53.574,lexical_decision_task_MP_exp2,2020.2.5,Win32,60,z,1,0.67024,,,,,,,,0.67024,1,,,,,,283,NW,UN,16,shaple,VERALF,z,,,,,,,0.130555586,-0.235185264,0,0,0,,0,201,201,462,1,
,,,,,,,,,,,,,,,,,,5f3b042dd1a0bd7f377766e9,2020-11-26_15h59.53.574,lexical_decision_task_MP_exp2,2020.2.5,Win32,60,z,1,0.601065,,,,,,,,0.601065,1,,,,,,387,NW,"ID",16,gronce,GRONCE,z,,,,,,,0.130555586,-0.235185264,0,0,0,,0,202,202,326,1,
,,,,,,,,,,,,,,,,,,5f3b042dd1a0bd7f377766e9,2020-11-26_15h59.53.574,lexical_decision_task_MP_exp2,2020.2.5,Win32,60,m,1,0.510535,,,,,,,,0.510535,1,,,,,,58,WORD,UN,16,splint,FOSTER,m,,,,,,,0.130555586,-0.235185264,0,0,0,,0,203,203,237,1,
,,,,,,,,,,,,,,,,,,5f3b042dd1a0bd7f377766e9,2020-11-26_15h59.53.574,lexical_decision_task_MP_exp2,2020.2.5,Win32,60,z,1,0.494995,,,,,,,,0.494995,1,,,,,,336,NW,"ID",33,ghodus,GHODUS,z,,,,,,,0.130555586,-0.235185264,0,0,0,,0,204,204,275,1,
,,,,,,,,,,,,,,,,,,5f3b042dd1a0bd7f377766e9,2020-11-26_15h59.53.574,lexical_decision_task_MP_exp2,2020.2.5,Win32,60,m,1,0.60021,,,,,,,,0.60021,1,,,,,,147,WORD,"ID",16,garlic,GARLIC,m,,,,,,,0.130555586,-0.235185264,0,0,0,,0,205,205,86,1,
,,,,,,,,,,,,,,,,,,5f3b042dd1a0bd7f377766e9,2020-11-26_15h59.53.574,lexical_decision_task_MP_exp2,2020.2.5,Win32,60,z,1,0.56972,,,,,,,,0.56972,1,,,,,,461,NW,UN,33,absult,JUSTRE,z,,,,,,,0.130555586,-0.235185264,0,0,0,,0,206,206,400,1,
,,,,,,,,,,,,,,,,,,5f3b042dd1a0bd7f377766e9,2020-11-26_15h59.53.574,lexical_decision_task_MP_exp2,2020.2.5,Win32,60,m,1,0.567055,,,,,,,,0.567055,1,,,,,,153,WORD,"ID",16,behold,BEHOLD,m,,,,,,,0.130555586,-0.235185264,0,0,0,,0,207,207,92,1,
,,,,,,,,,,,,,,,,,,5f3b042dd1a0bd7f377766e9,2020-11-26_15h59.53.574,lexical_decision_task_MP_exp2,2020.2.5,Win32,60,z,1,0.53629,,,,,,,,0.53629,1,,,,,,327,NW,"ID",33,plenac,PLENAC,z,,,,,,,0.130555586,-0.235185264,0,0,0,,0,208,208,266,1,
,,,,,,,,,,,,,,,,,,5f3b042dd1a0bd7f377766e9,2020-11-26_15h59.53.574,lexical_decision_task_MP_exp2,2020.2.5,Win32,60,m,1,0.666835,,,,,,,,0.666835,1,,,,,,131,WORD,"ID",16,quench,QUENCH,m,,,,,,,0.130555586,-0.235185264,0,0,0,,0,209,209,70,1,
,,,,,,,,,,,,,,,,,,5f3b042dd1a0bd7f377766e9,2020-11-26_15h59.53.574,lexical_decision_task_MP_exp2,2020.2.5,Win32,60,z,1,0.549765,,,,,,,,0.549765,1,,,,,,263,NW,UN,16,vackel,DOLICA,z,,,,,,,0.130555586,-0.235185264,0,0,0,,0,210,210,442,1,
,,,,,,,,,,,,,,,,,,5f3b042dd1a0bd7f377766e9,2020-11-26_15h59.53.574,lexical_decision_task_MP_exp2,2020.2.5,Win32,60,z,1,0.64332,,,,,,,,0.64332,1,,,,,,366,NW,"ID",16,toshel,TOSHEL,z,,,,,,,0.130555586,-0.235185264,0,0,0,,0,211,211,305,1,
,,,,,,,,,,,,,,,,,,5f3b042dd1a0bd7f377766e9,2020-11-26_15h59.53.574,lexical_decision_task_MP_exp2,2020.2.5,Win32,60,m,1,0.56956,,,,,,,,0.56956,1,,,,,,238,WORD,UN,33,behalf,FLOWER,m,,,,,,,0.130555586,-0.235185264,0,0,0,,0,212,212,177,1,
,,,,,,,,,,,,,,,,,,5f3b042dd1a0bd7f377766e9,2020-11-26_15h59.53.574,lexical_decision_task_MP_exp2,2020.2.5,Win32,60,z,1,0.502375,,,,,,,,0.502375,1,,,,,,241,NW,UN,16,unwert,SMENCO,z,,,,,,,0.130555586,-0.235185264,0,0,0,,0,213,213,420,1,
,,,,,,,,,,,,,,,,,,5f3b042dd1a0bd7f377766e9,2020-11-26_15h59.53.574,lexical_decision_task_MP_exp2,2020.2.5,Win32,60,z,1,0.50319,,,,,,,,0.50319,1,,,,,,402,NW,"ID",16,syntic,SYNTIC,z,,,,,,,0.130555586,-0.235185264,0,0,0,,0,214,214,341,1,
,,,,,,,,,,,,,,,,,,5f3b042dd1a0bd7f377766e9,2020-11-26_15h59.53.574,lexical_decision_task_MP_exp2,2020.2.5,Win32,60,m,1,0.57425,,,,,,,,0.57425,1,,,,,,55,WORD,UN,16,ambush,STROKE,m,,,,,,,0.130555586,-0.235185264,0,0,0,,0,215,215,234,1,
,,,,,,,,,,,,,,,,,,5f3b042dd1a0bd7f377766e9,2020-11-26_15h59.53.574,lexical_decision_task_MP_exp2,2020.2.5,Win32,60,z,1,0.720345,,,,,,,,0.720345,1,,,,,,248,NW,UN,16,batrol,STROLE,z,,,,,,,0.130555586,-0.235185264,0,0,0,,0,216,216,427,1,
,,,,,,,,,,,,,,,,,,5f3b042dd1a0bd7f377766e9,2020-11-26_15h59.53.574,lexical_decision_task_MP_exp2,2020.2.5,Win32,60,z,1,0.85017,,,,,,,,0.85017,1,,,,,,439,NW,UN,33,saride,LIMPOR,z,,,,,,,0.130555586,-0.235185264,0,0,0,,0,217,217,378,1,
,,,,,,,,,,,,,,,,,,5f3b042dd1a0bd7f377766e9,2020-11-26_15h59.53.574,lexical_decision_task_MP_exp2,2020.2.5,Win32,60,z,1,1.28443,,,,,,,,1.28443,1,,,,,,266,NW,UN,16,pasink,VARMIT,z,,,,,,,0.130555586,-0.235185264,0,0,0,,0,218,218,445,1,
,,,,,,,,,,,,,,,,,,5f3b042dd1a0bd7f377766e9,2020-11-26_15h59.53.574,lexical_decision_task_MP_exp2,2020.2.5,Win32,60,z,1,0.71874,,,,,,,,0.71874,1,,,,,,297,NW,UN,16,piergy,FERTIC,z,,,,,,,0.130555586,-0.235185264,0,0,0,,0,219,219,476,1,
,,,,,,,,,,,,,,,,,,5f3b042dd1a0bd7f377766e9,2020-11-26_15h59.53.574,lexical_decision_task_MP_exp2,2020.2.5,Win32,60,m,1,0.60953,,,,,,,,0.60953,1,,,,,,201,WORD,UN,33,factor,ADMIRE,m,,,,,,,0.130555586,-0.235185264,0,0,0,,0,220,220,140,1,
,,,,,,,,,,,,,,,,,,5f3b042dd1a0bd7f377766e9,2020-11-26_15h59.53.574,lexical_decision_task_MP_exp2,2020.2.5,Win32,60,m,1,0.5669,,,,,,,,0.5669,1,,,,,,15,WORD,UN,16,faucet,AMOUNT,m,,,,,,,0.130555586,-0.235185264,0,0,0,,0,221,221,194,1,
,,,,,,,,,,,,,,,,,,5f3b042dd1a0bd7f377766e9,2020-11-26_15h59.53.574,lexical_decision_task_MP_exp2,2020.2.5,Win32,60,m,0,0.83357,,,,,,,,0.83357,0,,,,,,425,NW,UN,33,urivel,FRUDGE,z,,,,,,,0.130555586,-0.235185264,0,0,0,,0,222,222,364,1,
,,,,,,,,,,,,,,,,,,5f3b042dd1a0bd7f377766e9,2020-11-26_15h59.53.574,lexical_decision_task_MP_exp2,2020.2.5,Win32,60,z,1,0.683505,,,,,,,,0.683505,1,,,,,,413,NW,"ID",16,equats,EQUATS,z,,,,,,,0.130555586,-0.235185264,0,0,0,,0,223,223,352,1,
,,,,,,,,,,,,,,,,,,5f3b042dd1a0bd7f377766e9,2020-11-26_15h59.53.574,lexical_decision_task_MP_exp2,2020.2.5,Win32,60,m,1,0.699725,,,,,,,,0.699725,1,,,,,,223,WORD,UN,33,period,KIDNEY,m,,,,,,,0.130555586,-0.235185264,0,0,0,,0,224,224,162,1,
,,,,,,,,,,,,,,,,,,5f3b042dd1a0bd7f377766e9,2020-11-26_15h59.53.574,lexical_decision_task_MP_exp2,2020.2.5,Win32,60,m,1,0.523395,,,,,,,,0.523395,1,,,,,,120,WORD,"ID",33,strain,STRAIN,m,,,,,,,0.130555586,-0.235185264,0,0,0,,0,225,225,59,1,
,,,,,,,,,,,,,,,,,,5f3b042dd1a0bd7f377766e9,2020-11-26_15h59.53.574,lexical_decision_task_MP_exp2,2020.2.5,Win32,60,z,1,0.72824,,,,,,,,0.72824,1,,,,,,462,NW,UN,33,kispel,ABSULT,z,,,,,,,0.130555586,-0.235185264,0,0,0,,0,226,226,401,1,
,,,,,,,,,,,,,,,,,,5f3b042dd1a0bd7f377766e9,2020-11-26_15h59.53.574,lexical_decision_task_MP_exp2,2020.2.5,Win32,60,m,1,0.58347,,,,,,,,0.58347,1,,,,,,65,WORD,"ID",33,symbol,SYMBOL,m,,,,,,,0.130555586,-0.235185264,0,0,0,,0,227,227,4,1,
,,,,,,,,,,,,,,,,,,5f3b042dd1a0bd7f377766e9,2020-11-26_15h59.53.574,lexical_decision_task_MP_exp2,2020.2.5,Win32,60,m,0,0.548165,,,,,,,,0.548165,0,,,,,,479,NW,UN,33,crible,LOBUSH,z,,,,,,,0.130555586,-0.235185264,0,0,0,,0,228,228,418,1,
,,,,,,,,,,,,,,,,,,5f3b042dd1a0bd7f377766e9,2020-11-26_15h59.53.574,lexical_decision_task_MP_exp2,2020.2.5,Win32,60,z,0,0.47525,,,,,,,,0.47525,0,,,,,,204,WORD,UN,33,lounge,BURDEN,m,,,,,,,0.130555586,-0.235185264,0,0,0,,0,229,229,143,1,
,,,,,,,,,,,,,,,,,,5f3b042dd1a0bd7f377766e9,2020-11-26_15h59.53.574,lexical_decision_task_MP_exp2,2020.2.5,Win32,60,z,1,0.896505,,,,,,,,0.896505,1,,,,,,305,NW,"ID",33,forgle,FORGLE,z,,,,,,,0.130555586,-0.235185264,0,0,0,,0,230,230,244,1,
,,,,,,,,,,,,,,,,,,5f3b042dd1a0bd7f377766e9,2020-11-26_15h59.53.574,lexical_decision_task_MP_exp2,2020.2.5,Win32,60,z,1,0.702675,,,,,,,,0.702675,1,,,,,,454,NW,UN,33,tondle,SCOUGE,z,,,,,,,0.130555586,-0.235185264,0,0,0,,0,231,231,393,1,
,,,,,,,,,,,,,,,,,,5f3b042dd1a0bd7f377766e9,2020-11-26_15h59.53.574,lexical_decision_task_MP_exp2,2020.2.5,Win32,60,z,1,0.77375,,,,,,,,0.77375,1,,,,,,322,NW,"ID",33,slanch,SLANCH,z,,,,,,,0.130555586,-0.235185264,0,0,0,,0,232,232,261,1,
,,,,,,,,,,,,,,,,,,5f3b042dd1a0bd7f377766e9,2020-11-26_15h59.53.574,lexical_decision_task_MP_exp2,2020.2.5,Win32,60,z,1,0.66166,,,,,,,,0.66166,1,,,,,,298,NW,UN,16,sturch,PIERGY,z,,,,,,,0.130555586,-0.235185264,0,0,0,,0,233,233,477,1,
,,,,,,,,,,,,,,,,,,5f3b042dd1a0bd7f377766e9,2020-11-26_15h59.53.574,lexical_decision_task_MP_exp2,2020.2.5,Win32,60,m,1,0.63116,,,,,,,,0.63116,1,,,,,,73,WORD,"ID",33,source,SOURCE,m,,,,,,,0.130555586,-0.235185264,0,0,0,,0,234,234,12,1,
,,,,,,,,,,,,,,,,,,5f3b042dd1a0bd7f377766e9,2020-11-26_15h59.53.574,lexical_decision_task_MP_exp2,2020.2.5,Win32,60,m,1,0.440815,,,,,,,,0.440815,1,,,,,,28,WORD,UN,16,sketch,COMEDY,m,,,,,,,0.130555586,-0.235185264,0,0,0,,0,235,235,207,1,
,,,,,,,,,,,,,,,,,,5f3b042dd1a0bd7f377766e9,2020-11-26_15h59.53.574,lexical_decision_task_MP_exp2,2020.2.5,Win32,60,z,1,0.841085,,,,,,,,0.841085,1,,,,,,380,NW,"ID",16,cavory,CAVORY,z,,,,,,,0.130555586,-0.235185264,0,0,0,,0,236,236,319,1,
,,,,,,,,,,,,,,,,,,5f3b042dd1a0bd7f377766e9,2020-11-26_15h59.53.574,lexical_decision_task_MP_exp2,2020.2.5,Win32,60,m,1,0.5503,,,,,,,,0.5503,1,,,,,,143,WORD,"ID",16,reason,REASON,m,,,,,,,0.130555586,-0.235185264,0,0,0,,0,237,237,82,1,
,,,,,,,,,,,,,,,,,,5f3b042dd1a0bd7f377766e9,2020-11-26_15h59.53.574,lexical_decision_task_MP_exp2,2020.2.5,Win32,60,m,1,0.53347,,,,,,,,0.53347,1,,,,,,80,WORD,"ID",33,family,FAMILY,m,,,,,,,0.130555586,-0.235185264,0,0,0,,0,238,238,19,1,
,,,,,,,,,,,,,,,,,,5f3b042dd1a0bd7f377766e9,2020-11-26_15h59.53.574,lexical_decision_task_MP_exp2,2020.2.5,Win32,60,m,1,0.43985,,,,,,,,0.43985,1,,,,,,81,WORD,"ID",33,friend,FRIEND,m,,,,,,,0.130555586,-0.235185264,0,0,0,,0,239,239,20,1,
,,,,,,,,,,,,,,,,,,5f3b042dd1a0bd7f377766e9,2020-11-26_15h59.53.574,lexical_decision_task_MP_exp2,2020.2.5,Win32,60,z,1,0.66137,,,,,,,,0.66137,1,,,,,,344,NW,"ID",33,scrily,SCRILY,z,,,,,,,0.130555586,-0.235185264,0,0,0,,0,240,240,283,1,
,,,,,,,,,,,,,,,,,,5f3b042dd1a0bd7f377766e9,2020-11-26_15h59.53.574,lexical_decision_task_MP_exp2,2020.2.5,Win32,60,z,1,0.708355,,,,,,,,0.708355,1,,,,,,265,NW,UN,16,varmit,DISTAR,z,,,,,,,0.130555586,-0.235185264,0,0,0,space,0,241,241,444,1,1.408785
,,,,,,,,,,,,,,,,,,5f3b042dd1a0bd7f377766e9,2020-11-26_15h59.53.574,lexical_decision_task_MP_exp2,2020.2.5,Win32,60,m,1,1.600135,,,,,,,,1.600135,1,,,,,,207,WORD,UN,33,hockey,WREATH,m,,,,,,,0.130555586,-0.235185264,0,0,0,,0,242,242,146,1,
,,,,,,,,,,,,,,,,,,5f3b042dd1a0bd7f377766e9,2020-11-26_15h59.53.574,lexical_decision_task_MP_exp2,2020.2.5,Win32,60,m,1,0.608995,,,,,,,,0.608995,1,,,,,,30,WORD,UN,16,weapon,ORIENT,m,,,,,,,0.130555586,-0.235185264,0,0,0,,0,243,243,209,1,
,,,,,,,,,,,,,,,,,,5f3b042dd1a0bd7f377766e9,2020-11-26_15h59.53.574,lexical_decision_task_MP_exp2,2020.2.5,Win32,60,z,1,0.661555,,,,,,,,0.661555,1,,,,,,301,NW,"ID",33,fainch,FAINCH,z,,,,,,,0.130555586,-0.235185264,0,0,0,,0,244,244,240,1,
,,,,,,,,,,,,,,,,,,5f3b042dd1a0bd7f377766e9,2020-11-26_15h59.53.574,lexical_decision_task_MP_exp2,2020.2.5,Win32,60,z,1,0.933455,,,,,,,,0.933455,1,,,,,,356,NW,"ID",33,othnis,OTHNIS,z,,,,,,,0.130555586,-0.235185264,0,0,0,,0,245,245,295,1,
,,,,,,,,,,,,,,,,,,5f3b042dd1a0bd7f377766e9,2020-11-26_15h59.53.574,lexical_decision_task_MP_exp2,2020.2.5,Win32,60,z,1,0.63394,,,,,,,,0.63394,1,,,,,,249,NW,UN,16,milted,BATROL,z,,,,,,,0.130555586,-0.235185264,0,0,0,,0,246,246,428,1,
,,,,,,,,,,,,,,,,,,5f3b042dd1a0bd7f377766e9,2020-11-26_15h59.53.574,lexical_decision_task_MP_exp2,2020.2.5,Win32,60,m,1,0.700235,,,,,,,,0.700235,1,,,,,,178,WORD,"ID",16,inform,INFORM,m,,,,,,,0.130555586,-0.235185264,0,0,0,,0,247,247,117,1,
,,,,,,,,,,,,,,,,,,5f3b042dd1a0bd7f377766e9,2020-11-26_15h59.53.574,lexical_decision_task_MP_exp2,2020.2.5,Win32,60,z,1,0.86691,,,,,,,,0.86691,1,,,,,,244,NW,UN,16,anougs,EATRIC,z,,,,,,,0.130555586,-0.235185264,0,0,0,,0,248,248,423,1,
,,,,,,,,,,,,,,,,,,5f3b042dd1a0bd7f377766e9,2020-11-26_15h59.53.574,lexical_decision_task_MP_exp2,2020.2.5,Win32,60,z,1,1.08296,,,,,,,,1.08296,1,,,,,,368,NW,"ID",16,hornal,HORNAL,z,,,,,,,0.130555586,-0.235185264,0,0,0,,0,249,249,307,1,
,,,,,,,,,,,,,,,,,,5f3b042dd1a0bd7f377766e9,2020-11-26_15h59.53.574,lexical_decision_task_MP_exp2,2020.2.5,Win32,60,z,1,0.633155,,,,,,,,0.633155,1,,,,,,474,NW,UN,33,acrise,HABLIN,z,,,,,,,0.130555586,-0.235185264,0,0,0,,0,250,250,413,1,
,,,,,,,,,,,,,,,,,,5f3b042dd1a0bd7f377766e9,2020-11-26_15h59.53.574,lexical_decision_task_MP_exp2,2020.2.5,Win32,60,m,1,0.46768,,,,,,,,0.46768,1,,,,,,66,WORD,"ID",33,gospel,GOSPEL,m,,,,,,,0.130555586,-0.235185264,0,0,0,,0,251,251,5,1,
,,,,,,,,,,,,,,,,,,5f3b042dd1a0bd7f377766e9,2020-11-26_15h59.53.574,lexical_decision_task_MP_exp2,2020.2.5,Win32,60,z,1,0.63891,,,,,,,,0.63891,1,,,,,,351,NW,"ID",33,tiesch,TIESCH,z,,,,,,,0.130555586,-0.235185264,0,0,0,,0,252,252,290,1,
,,,,,,,,,,,,,,,,,,5f3b042dd1a0bd7f377766e9,2020-11-26_15h59.53.574,lexical_decision_task_MP_exp2,2020.2.5,Win32,60,m,1,0.507085,,,,,,,,0.507085,1,,,,,,130,WORD,"ID",16,stupid,STUPID,m,,,,,,,0.130555586,-0.235185264,0,0,0,,0,253,253,69,1,
,,,,,,,,,,,,,,,,,,5f3b042dd1a0bd7f377766e9,2020-11-26_15h59.53.574,lexical_decision_task_MP_exp2,2020.2.5,Win32,60,m,1,0.55021,,,,,,,,0.55021,1,,,,,,125,WORD,"ID",16,nickel,NICKEL,m,,,,,,,0.130555586,-0.235185264,0,0,0,,0,254,254,64,1,
,,,,,,,,,,,,,,,,,,5f3b042dd1a0bd7f377766e9,2020-11-26_15h59.53.574,lexical_decision_task_MP_exp2,2020.2.5,Win32,60,m,1,0.527055,,,,,,,,0.527055,1,,,,,,193,WORD,UN,33,mildew,OBJECT,m,,,,,,,0.130555586,-0.235185264,0,0,0,,0,255,255,132,1,
,,,,,,,,,,,,,,,,,,5f3b042dd1a0bd7f377766e9,2020-11-26_15h59.53.574,lexical_decision_task_MP_exp2,2020.2.5,Win32,60,z,1,0.676265,,,,,,,,0.676265,1,,,,,,404,NW,"ID",16,cluirm,CLUIRM,z,,,,,,,0.130555586,-0.235185264,0,0,0,,0,256,256,343,1,
,,,,,,,,,,,,,,,,,,5f3b042dd1a0bd7f377766e9,2020-11-26_15h59.53.574,lexical_decision_task_MP_exp2,2020.2.5,Win32,60,m,1,0.578655,,,,,,,,0.578655,1,,,,,,140,WORD,"ID",16,prince,PRINCE,m,,,,,,,0.130555586,-0.235185264,0,0,0,,0,257,257,79,1,
,,,,,,,,,,,,,,,,,,5f3b042dd1a0bd7f377766e9,2020-11-26_15h59.53.574,lexical_decision_task_MP_exp2,2020.2.5,Win32,60,m,1,0.673515,,,,,,,,0.673515,1,,,,,,219,WORD,UN,33,voyage,BUCKET,m,,,,,,,0.130555586,-0.235185264,0,0,0,,0,258,258,158,1,
,,,,,,,,,,,,,,,,,,5f3b042dd1a0bd7f377766e9,2020-11-26_15h59.53.574,lexical_decision_task_MP_exp2,2020.2.5,Win32,60,z,1,0.69532,,,,,,,,0.69532,1,,,,,,287,NW,UN,16,yaceup,NYMBEL,z,,,,,,,0.130555586,-0.235185264,0,0,0,,0,259,259,466,1,
,,,,,,,,,,,,,,,,,,5f3b042dd1a0bd7f377766e9,2020-11-26_15h59.53.574,lexical_decision_task_MP_exp2,2020.2.5,Win32,60,m,1,0.539495,,,,,,,,0.539495,1,,,,,,203,WORD,UN,33,burden,PHRASE,m,,,,,,,0.130555586,-0.235185264,0,0,0,,0,260,260,142,1,
,,,,,,,,,,,,,,,,,,5f3b042dd1a0bd7f377766e9,2020-11-26_15h59.53.574,lexical_decision_task_MP_exp2,2020.2.5,Win32,60,m,1,0.60026,,,,,,,,0.60026,1,,,,,,57,WORD,UN,16,danger,CHANGE,m,,,,,,,0.130555586,-0.235185264,0,0,0,,0,261,261,236,1,
,,,,,,,,,,,,,,,,,,5f3b042dd1a0bd7f377766e9,2020-11-26_15h59.53.574,lexical_decision_task_MP_exp2,2020.2.5,Win32,60,z,1,0.53146,,,,,,,,0.53146,1,,,,,,399,NW,"ID",16,fouret,FOURET,z,,,,,,,0.130555586,-0.235185264,0,0,0,,0,262,262,338,1,
,,,,,,,,,,,,,,,,,,5f3b042dd1a0bd7f377766e9,2020-11-26_15h59.53.574,lexical_decision_task_MP_exp2,2020.2.5,Win32,60,z,1,1.075955,,,,,,,,1.075955,1,,,,,,409,NW,"ID",16,elopia,ELOPIA,z,,,,,,,0.130555586,-0.235185264,0,0,0,,0,263,263,348,1,
,,,,,,,,,,,,,,,,,,5f3b042dd1a0bd7f377766e9,2020-11-26_15h59.53.574,lexical_decision_task_MP_exp2,2020.2.5,Win32,60,m,1,0.45844,,,,,,,,0.45844,1,,,,,,144,WORD,"ID",16,sponge,SPONGE,m,,,,,,,0.130555586,-0.235185264,0,0,0,,0,264,264,83,1,
,,,,,,,,,,,,,,,,,,5f3b042dd1a0bd7f377766e9,2020-11-26_15h59.53.574,lexical_decision_task_MP_exp2,2020.2.5,Win32,60,m,1,0.53924,,,,,,,,0.53924,1,,,,,,52,WORD,UN,16,police,IMPOSE,m,,,,,,,0.130555586,-0.235185264,0,0,0,,0,265,265,231,1,
,,,,,,,,,,,,,,,,,,5f3b042dd1a0bd7f377766e9,2020-11-26_15h59.53.574,lexical_decision_task_MP_exp2,2020.2.5,Win32,60,z,1,0.58969,,,,,,,,0.58969,1,,,,,,378,NW,"ID",16,shrile,SHRILE,z,,,,,,,0.130555586,-0.235185264,0,0,0,,0,266,266,317,1,
,,,,,,,,,,,,,,,,,,5f3b042dd1a0bd7f377766e9,2020-11-26_15h59.53.574,lexical_decision_task_MP_exp2,2020.2.5,Win32,60,m,1,0.564985,,,,,,,,0.564985,1,,,,,,139,WORD,"ID",16,debris,DEBRIS,m,,,,,,,0.130555586,-0.235185264,0,0,0,,0,267,267,78,1,
,,,,,,,,,,,,,,,,,,5f3b042dd1a0bd7f377766e9,2020-11-26_15h59.53.574,lexical_decision_task_MP_exp2,2020.2.5,Win32,60,z,1,0.68467,,,,,,,,0.68467,1,,,,,,310,NW,"ID",33,daniet,DANIET,z,,,,,,,0.130555586,-0.235185264,0,0,0,,0,268,268,249,1,
,,,,,,,,,,,,,,,,,,5f3b042dd1a0bd7f377766e9,2020-11-26_15h59.53.574,lexical_decision_task_MP_exp2,2020.2.5,Win32,60,m,1,0.507315,,,,,,,,0.507315,1,,,,,,36,WORD,UN,16,insult,VANISH,m,,,,,,,0.130555586,-0.235185264,0,0,0,,0,269,269,215,1,
,,,,,,,,,,,,,,,,,,5f3b042dd1a0bd7f377766e9,2020-11-26_15h59.53.574,lexical_decision_task_MP_exp2,2020.2.5,Win32,60,m,1,0.606975,,,,,,,,0.606975,1,,,,,,84,WORD,"ID",33,mortal,MORTAL,m,,,,,,,0.130555586,-0.235185264,0,0,0,,0,270,270,23,1,
,,,,,,,,,,,,,,,,,,5f3b042dd1a0bd7f377766e9,2020-11-26_15h59.53.574,lexical_decision_task_MP_exp2,2020.2.5,Win32,60,z,1,1.263075,,,,,,,,1.263075,1,,,,,,353,NW,"ID",33,clurey,CLUREY,z,,,,,,,0.130555586,-0.235185264,0,0,0,,0,271,271,292,1,
,,,,,,,,,,,,,,,,,,5f3b042dd1a0bd7f377766e9,2020-11-26_15h59.53.574,lexical_decision_task_MP_exp2,2020.2.5,Win32,60,m,0,0.51702,,,,,,,,0.51702,0,,,,,,458,NW,UN,33,hocite,BARCET,z,,,,,,,0.130555586,-0.235185264,0,0,0,,0,272,272,397,1,
,,,,,,,,,,,,,,,,,,5f3b042dd1a0bd7f377766e9,2020-11-26_15h59.53.574,lexical_decision_task_MP_exp2,2020.2.5,Win32,60,m,1,0.7339,,,,,,,,0.7339,1,,,,,,142,WORD,"ID",16,spruce,SPRUCE,m,,,,,,,0.130555586,-0.235185264,0,0,0,,0,273,273,81,1,
,,,,,,,,,,,,,,,,,,5f3b042dd1a0bd7f377766e9,2020-11-26_15h59.53.574,lexical_decision_task_MP_exp2,2020.2.5,Win32,60,z,1,1.53345,,,,,,,,1.53345,1,,,,,,467,NW,UN,33,wictor,GORBIE,z,,,,,,,0.130555586,-0.235185264,0,0,0,,0,274,274,406,1,
,,,,,,,,,,,,,,,,,,5f3b042dd1a0bd7f377766e9,2020-11-26_15h59.53.574,lexical_decision_task_MP_exp2,2020.2.5,Win32,60,z,1,1.0393,,,,,,,,1.0393,1,,,,,,424,NW,UN,33,frudge,PRAILE,z,,,,,,,0.130555586,-0.235185264,0,0,0,,0,275,275,363,1,
,,,,,,,,,,,,,,,,,,5f3b042dd1a0bd7f377766e9,2020-11-26_15h59.53.574,lexical_decision_task_MP_exp2,2020.2.5,Win32,60,m,1,0.54463,,,,,,,,0.54463,1,,,,,,149,WORD,"ID",16,invade,INVADE,m,,,,,,,0.130555586,-0.235185264,0,0,0,,0,276,276,88,1,
,,,,,,,,,,,,,,,,,,5f3b042dd1a0bd7f377766e9,2020-11-26_15h59.53.574,lexical_decision_task_MP_exp2,2020.2.5,Win32,60,z,1,0.674655,,,,,,,,0.674655,1,,,,,,252,NW,UN,16,resait,STAPOD,z,,,,,,,0.130555586,-0.235185264,0,0,0,,0,277,277,431,1,
,,,,,,,,,,,,,,,,,,5f3b042dd1a0bd7f377766e9,2020-11-26_15h59.53.574,lexical_decision_task_MP_exp2,2020.2.5,Win32,60,z,1,0.53355,,,,,,,,0.53355,1,,,,,,360,NW,"ID",33,desory,DESORY,z,,,,,,,0.130555586,-0.235185264,0,0,0,,0,278,278,299,1,
,,,,,,,,,,,,,,,,,,5f3b042dd1a0bd7f377766e9,2020-11-26_15h59.53.574,lexical_decision_task_MP_exp2,2020.2.5,Win32,60,z,1,0.6044,,,,,,,,0.6044,1,,,,,,253,NW,UN,16,varosh,RESAIT,z,,,,,,,0.130555586,-0.235185264,0,0,0,,0,279,279,432,1,
,,,,,,,,,,,,,,,,,,5f3b042dd1a0bd7f377766e9,2020-11-26_15h59.53.574,lexical_decision_task_MP_exp2,2020.2.5,Win32,60,z,1,0.5784,,,,,,,,0.5784,1,,,,,,278,NW,UN,16,celond,UNIGHS,z,,,,,,,0.130555586,-0.235185264,0,0,0,,0,280,280,457,1,
,,,,,,,,,,,,,,,,,,5f3b042dd1a0bd7f377766e9,2020-11-26_15h59.53.574,lexical_decision_task_MP_exp2,2020.2.5,Win32,60,m,1,0.592225,,,,,,,,0.592225,1,,,,,,6,WORD,UN,16,anchor,BUNDLE,m,,,,,,,0.130555586,-0.235185264,0,0,0,,0,281,281,185,1,
,,,,,,,,,,,,,,,,,,5f3b042dd1a0bd7f377766e9,2020-11-26_15h59.53.574,lexical_decision_task_MP_exp2,2020.2.5,Win32,60,m,1,0.586365,,,,,,,,0.586365,1,,,,,,215,WORD,UN,33,lumber,PHOBIA,m,,,,,,,0.130555586,-0.235185264,0,0,0,,0,282,282,154,1,
,,,,,,,,,,,,,,,,,,5f3b042dd1a0bd7f377766e9,2020-11-26_15h59.53.574,lexical_decision_task_MP_exp2,2020.2.5,Win32,60,z,0,0.550185,,,,,,,,0.550185,0,,,,,,226,WORD,UN,33,flower,CASINO,m,,,,,,,0.130555586,-0.235185264,0,0,0,,0,283,283,165,1,
,,,,,,,,,,,,,,,,,,5f3b042dd1a0bd7f377766e9,2020-11-26_15h59.53.574,lexical_decision_task_MP_exp2,2020.2.5,Win32,60,z,1,0.628725,,,,,,,,0.628725,1,,,,,,463,NW,UN,33,chaite,KISPEL,z,,,,,,,0.130555586,-0.235185264,0,0,0,,0,284,284,402,1,
,,,,,,,,,,,,,,,,,,5f3b042dd1a0bd7f377766e9,2020-11-26_15h59.53.574,lexical_decision_task_MP_exp2,2020.2.5,Win32,60,m,1,0.88758,,,,,,,,0.88758,1,,,,,,118,WORD,"ID",33,flight,FLIGHT,m,,,,,,,0.130555586,-0.235185264,0,0,0,,0,285,285,57,1,
,,,,,,,,,,,,,,,,,,5f3b042dd1a0bd7f377766e9,2020-11-26_15h59.53.574,lexical_decision_task_MP_exp2,2020.2.5,Win32,60,m,1,0.467225,,,,,,,,0.467225,1,,,,,,59,WORD,UN,16,pencil,SPLINT,m,,,,,,,0.130555586,-0.235185264,0,0,0,,0,286,286,238,1,
,,,,,,,,,,,,,,,,,,5f3b042dd1a0bd7f377766e9,2020-11-26_15h59.53.574,lexical_decision_task_MP_exp2,2020.2.5,Win32,60,z,1,0.627125,,,,,,,,0.627125,1,,,,,,306,NW,"ID",33,sounge,SOUNGE,z,,,,,,,0.130555586,-0.235185264,0,0,0,,0,287,287,245,1,
,,,,,,,,,,,,,,,,,,5f3b042dd1a0bd7f377766e9,2020-11-26_15h59.53.574,lexical_decision_task_MP_exp2,2020.2.5,Win32,60,z,1,0.85369,,,,,,,,0.85369,1,,,,,,291,NW,UN,16,ablint,PRETCH,z,,,,,,,0.130555586,-0.235185264,0,0,0,,0,288,288,470,1,
,,,,,,,,,,,,,,,,,,5f3b042dd1a0bd7f377766e9,2020-11-26_15h59.53.574,lexical_decision_task_MP_exp2,2020.2.5,Win32,60,m,1,0.50487,,,,,,,,0.50487,1,,,,,,169,WORD,"ID",16,genius,GENIUS,m,,,,,,,0.130555586,-0.235185264,0,0,0,,0,289,289,108,1,
,,,,,,,,,,,,,,,,,,5f3b042dd1a0bd7f377766e9,2020-11-26_15h59.53.574,lexical_decision_task_MP_exp2,2020.2.5,Win32,60,m,1,0.77037,,,,,,,,0.77037,1,,,,,,228,WORD,UN,33,kidney,MASTER,m,,,,,,,0.130555586,-0.235185264,0,0,0,,0,290,290,167,1,
,,,,,,,,,,,,,,,,,,5f3b042dd1a0bd7f377766e9,2020-11-26_15h59.53.574,lexical_decision_task_MP_exp2,2020.2.5,Win32,60,m,1,0.583735,,,,,,,,0.583735,1,,,,,,23,WORD,UN,16,praise,WEALTH,m,,,,,,,0.130555586,-0.235185264,0,0,0,,0,291,291,202,1,
,,,,,,,,,,,,,,,,,,5f3b042dd1a0bd7f377766e9,2020-11-26_15h59.53.574,lexical_decision_task_MP_exp2,2020.2.5,Win32,60,m,1,0.511545,,,,,,,,0.511545,1,,,,,,3,WORD,UN,16,trench,KNIGHT,m,,,,,,,0.130555586,-0.235185264,0,0,0,,0,292,292,182,1,
,,,,,,,,,,,,,,,,,,5f3b042dd1a0bd7f377766e9,2020-11-26_15h59.53.574,lexical_decision_task_MP_exp2,2020.2.5,Win32,60,m,1,0.533625,,,,,,,,0.533625,1,,,,,,70,WORD,"ID",33,square,SQUARE,m,,,,,,,0.130555586,-0.235185264,0,0,0,,0,293,293,9,1,
,,,,,,,,,,,,,,,,,,5f3b042dd1a0bd7f377766e9,2020-11-26_15h59.53.574,lexical_decision_task_MP_exp2,2020.2.5,Win32,60,z,1,0.58128,,,,,,,,0.58128,1,,,,,,311,NW,"ID",33,sproly,SPROLY,z,,,,,,,0.130555586,-0.235185264,0,0,0,,0,294,294,250,1,
,,,,,,,,,,,,,,,,,,5f3b042dd1a0bd7f377766e9,2020-11-26_15h59.53.574,lexical_decision_task_MP_exp2,2020.2.5,Win32,60,m,1,0.54469,,,,,,,,0.54469,1,,,,,,179,WORD,"ID",16,basket,BASKET,m,,,,,,,0.130555586,-0.235185264,0,0,0,,0,295,295,118,1,
,,,,,,,,,,,,,,,,,,5f3b042dd1a0bd7f377766e9,2020-11-26_15h59.53.574,lexical_decision_task_MP_exp2,2020.2.5,Win32,60,m,0,0.50692,,,,,,,,0.50692,0,,,,,,352,NW,"ID",33,tringe,TRINGE,z,,,,,,,0.130555586,-0.235185264,0,0,0,,0,296,296,291,1,
,,,,,,,,,,,,,,,,,,5f3b042dd1a0bd7f377766e9,2020-11-26_15h59.53.574,lexical_decision_task_MP_exp2,2020.2.5,Win32,60,z,1,0.60323,,,,,,,,0.60323,1,,,,,,349,NW,"ID",33,asylen,ASYLEN,z,,,,,,,0.130555586,-0.235185264,0,0,0,,0,297,297,288,1,
,,,,,,,,,,,,,,,,,,5f3b042dd1a0bd7f377766e9,2020-11-26_15h59.53.574,lexical_decision_task_MP_exp2,2020.2.5,Win32,60,z,1,0.651425,,,,,,,,0.651425,1,,,,,,414,NW,"ID",16,serbol,SERBOL,z,,,,,,,0.130555586,-0.235185264,0,0,0,,0,298,298,353,1,
,,,,,,,,,,,,,,,,,,5f3b042dd1a0bd7f377766e9,2020-11-26_15h59.53.574,lexical_decision_task_MP_exp2,2020.2.5,Win32,60,m,1,0.68351,,,,,,,,0.68351,1,,,,,,113,WORD,"ID",33,chorus,CHORUS,m,,,,,,,0.130555586,-0.235185264,0,0,0,,0,299,299,52,1,
,,,,,,,,,,,,,,,,,,5f3b042dd1a0bd7f377766e9,2020-11-26_15h59.53.574,lexical_decision_task_MP_exp2,2020.2.5,Win32,60,z,1,0.68309,,,,,,,,0.68309,1,,,,,,419,NW,"ID",16,slount,SLOUNT,z,,,,,,,0.130555586,-0.235185264,0,0,0,,0,300,300,358,1,
,,,,,,,,,,,,,,,,,,5f3b042dd1a0bd7f377766e9,2020-11-26_15h59.53.574,lexical_decision_task_MP_exp2,2020.2.5,Win32,60,m,1,0.54461,,,,,,,,0.54461,1,,,,,,25,WORD,UN,16,sprint,DOMAIN,m,,,,,,,0.130555586,-0.235185264,0,0,0,,0,301,301,204,1,
,,,,,,,,,,,,,,,,,,5f3b042dd1a0bd7f377766e9,2020-11-26_15h59.53.574,lexical_decision_task_MP_exp2,2020.2.5,Win32,60,m,1,0.786565,,,,,,,,0.786565,1,,,,,,49,WORD,UN,16,snatch,SURVEY,m,,,,,,,0.130555586,-0.235185264,0,0,0,,0,302,302,228,1,
,,,,,,,,,,,,,,,,,,5f3b042dd1a0bd7f377766e9,2020-11-26_15h59.53.574,lexical_decision_task_MP_exp2,2020.2.5,Win32,60,z,1,0.56271,,,,,,,,0.56271,1,,,,,,354,NW,"ID",33,virlex,VIRLEX,z,,,,,,,0.130555586,-0.235185264,0,0,0,,0,303,303,293,1,
,,,,,,,,,,,,,,,,,,5f3b042dd1a0bd7f377766e9,2020-11-26_15h59.53.574,lexical_decision_task_MP_exp2,2020.2.5,Win32,60,m,1,0.67008,,,,,,,,0.67008,1,,,,,,222,WORD,UN,33,export,HINDER,m,,,,,,,0.130555586,-0.235185264,0,0,0,,0,304,304,161,1,
,,,,,,,,,,,,,,,,,,5f3b042dd1a0bd7f377766e9,2020-11-26_15h59.53.574,lexical_decision_task_MP_exp2,2020.2.5,Win32,60,z,1,0.5679,,,,,,,,0.5679,1,,,,,,312,NW,"ID",33,nerawl,NERAWL,z,,,,,,,0.130555586,-0.235185264,0,0,0,,0,305,305,251,1,
,,,,,,,,,,,,,,,,,,5f3b042dd1a0bd7f377766e9,2020-11-26_15h59.53.574,lexical_decision_task_MP_exp2,2020.2.5,Win32,60,m,1,0.53465,,,,,,,,0.53465,1,,,,,,202,WORD,UN,33,phrase,FACTOR,m,,,,,,,0.130555586,-0.235185264,0,0,0,,0,306,306,141,1,
,,,,,,,,,,,,,,,,,,5f3b042dd1a0bd7f377766e9,2020-11-26_15h59.53.574,lexical_decision_task_MP_exp2,2020.2.5,Win32,60,m,1,0.47978,,,,,,,,0.47978,1,,,,,,88,WORD,"ID",33,hunger,HUNGER,m,,,,,,,0.130555586,-0.235185264,0,0,0,,0,307,307,27,1,
,,,,,,,,,,,,,,,,,,5f3b042dd1a0bd7f377766e9,2020-11-26_15h59.53.574,lexical_decision_task_MP_exp2,2020.2.5,Win32,60,z,1,0.551685,,,,,,,,0.551685,1,,,,,,308,NW,"ID",33,psetch,PSETCH,z,,,,,,,0.130555586,-0.235185264,0,0,0,,0,308,308,247,1,
,,,,,,,,,,,,,,,,,,5f3b042dd1a0bd7f377766e9,2020-11-26_15h59.53.574,lexical_decision_task_MP_exp2,2020.2.5,Win32,60,m,1,0.485145,,,,,,,,0.485145,1,,,,,,27,WORD,UN,16,comedy,SCREAM,m,,,,,,,0.130555586,-0.235185264,0,0,0,,0,309,309,206,1,
,,,,,,,,,,,,,,,,,,5f3b042dd1a0bd7f377766e9,2020-11-26_15h59.53.574,lexical_decision_task_MP_exp2,2020.2.5,Win32,60,m,1,0.446935,,,,,,,,0.446935,1,,,,,,71,WORD,"ID",33,garden,GARDEN,m,,,,,,,0.130555586,-0.235185264,0,0,0,,0,310,310,10,1,
,,,,,,,,,,,,,,,,,,5f3b042dd1a0bd7f377766e9,2020-11-26_15h59.53.574,lexical_decision_task_MP_exp2,2020.2.5,Win32,60,m,1,0.435025,,,,,,,,0.435025,1,,,,,,91,WORD,"ID",33,expand,EXPAND,m,,,,,,,0.130555586,-0.235185264,0,0,0,,0,311,311,30,1,
,,,,,,,,,,,,,,,,,,5f3b042dd1a0bd7f377766e9,2020-11-26_15h59.53.574,lexical_decision_task_MP_exp2,2020.2.5,Win32,60,z,1,0.54413,,,,,,,,0.54413,1,,,,,,428,NW,UN,33,funtle,TANDLY,z,,,,,,,0.130555586,-0.235185264,0,0,0,,0,312,312,367,1,
,,,,,,,,,,,,,,,,,,5f3b042dd1a0bd7f377766e9,2020-11-26_15h59.53.574,lexical_decision_task_MP_exp2,2020.2.5,Win32,60,z,1,0.57648,,,,,,,,0.57648,1,,,,,,448,NW,UN,33,brunge,SADENT,z,,,,,,,0.130555586,-0.235185264,0,0,0,,0,313,313,387,1,
,,,,,,,,,,,,,,,,,,5f3b042dd1a0bd7f377766e9,2020-11-26_15h59.53.574,lexical_decision_task_MP_exp2,2020.2.5,Win32,60,m,1,0.45516,,,,,,,,0.45516,1,,,,,,210,WORD,UN,33,infect,MONKEY,m,,,,,,,0.130555586,-0.235185264,0,0,0,,0,314,314,149,1,
,,,,,,,,,,,,,,,,,,5f3b042dd1a0bd7f377766e9,2020-11-26_15h59.53.574,lexical_decision_task_MP_exp2,2020.2.5,Win32,60,m,1,0.56676,,,,,,,,0.56676,1,,,,,,76,WORD,"ID",33,exotic,EXOTIC,m,,,,,,,0.130555586,-0.235185264,0,0,0,,0,315,315,15,1,
,,,,,,,,,,,,,,,,,,5f3b042dd1a0bd7f377766e9,2020-11-26_15h59.53.574,lexical_decision_task_MP_exp2,2020.2.5,Win32,60,z,1,0.593615,,,,,,,,0.593615,1,,,,,,459,NW,UN,33,mingar,BAFENT,z,,,,,,,0.130555586,-0.235185264,0,0,0,,0,316,316,398,1,
,,,,,,,,,,,,,,,,,,5f3b042dd1a0bd7f377766e9,2020-11-26_15h59.53.574,lexical_decision_task_MP_exp2,2020.2.5,Win32,60,m,1,0.44511,,,,,,,,0.44511,1,,,,,,39,WORD,UN,16,convey,INSECT,m,,,,,,,0.130555586,-0.235185264,0,0,0,,0,317,317,218,1,
,,,,,,,,,,,,,,,,,,5f3b042dd1a0bd7f377766e9,2020-11-26_15h59.53.574,lexical_decision_task_MP_exp2,2020.2.5,Win32,60,m,1,0.529415,,,,,,,,0.529415,1,,,,,,194,WORD,UN,33,resign,ABSENT,m,,,,,,,0.130555586,-0.235185264,0,0,0,,0,318,318,133,1,
,,,,,,,,,,,,,,,,,,5f3b042dd1a0bd7f377766e9,2020-11-26_15h59.53.574,lexical_decision_task_MP_exp2,2020.2.5,Win32,60,z,1,0.697565,,,,,,,,0.697565,1,,,,,,449,NW,UN,33,phrect,BRUNGE,z,,,,,,,0.130555586,-0.235185264,0,0,0,,0,319,319,388,1,
,,,,,,,,,,,,,,,,,,5f3b042dd1a0bd7f377766e9,2020-11-26_15h59.53.574,lexical_decision_task_MP_exp2,2020.2.5,Win32,60,z,1,0.65743,,,,,,,,0.65743,1,,,,,,358,NW,"ID",33,fleack,FLEACK,z,,,,,,,0.130555586,-0.235185264,0,0,0,,0,320,320,297,1,
,,,,,,,,,,,,,,,,,,5f3b042dd1a0bd7f377766e9,2020-11-26_15h59.53.574,lexical_decision_task_MP_exp2,2020.2.5,Win32,60,z,1,0.61853,,,,,,,,0.61853,1,,,,,,267,NW,UN,16,packes,PASINK,z,,,,,,,0.130555586,-0.235185264,0,0,0,,0,321,321,446,1,
,,,,,,,,,,,,,,,,,,5f3b042dd1a0bd7f377766e9,2020-11-26_15h59.53.574,lexical_decision_task_MP_exp2,2020.2.5,Win32,60,z,1,0.569305,,,,,,,,0.569305,1,,,,,,394,NW,"ID",16,spaqux,SPAQUX,z,,,,,,,0.130555586,-0.235185264,0,0,0,,0,322,322,333,1,
,,,,,,,,,,,,,,,,,,5f3b042dd1a0bd7f377766e9,2020-11-26_15h59.53.574,lexical_decision_task_MP_exp2,2020.2.5,Win32,60,z,1,0.5234,,,,,,,,0.5234,1,,,,,,389,NW,"ID",16,witmer,WITMER,z,,,,,,,0.130555586,-0.235185264,0,0,0,,0,323,323,328,1,
,,,,,,,,,,,,,,,,,,5f3b042dd1a0bd7f377766e9,2020-11-26_15h59.53.574,lexical_decision_task_MP_exp2,2020.2.5,Win32,60,m,0,0.49724,,,,,,,,0.49724,0,,,,,,431,NW,UN,33,lunker,CHRUMS,z,,,,,,,0.130555586,-0.235185264,0,0,0,,0,324,324,370,1,
,,,,,,,,,,,,,,,,,,5f3b042dd1a0bd7f377766e9,2020-11-26_15h59.53.574,lexical_decision_task_MP_exp2,2020.2.5,Win32,60,z,1,0.60712,,,,,,,,0.60712,1,,,,,,269,NW,UN,16,wrimsy,ORCHET,z,,,,,,,0.130555586,-0.235185264,0,0,0,,0,325,325,448,1,
,,,,,,,,,,,,,,,,,,5f3b042dd1a0bd7f377766e9,2020-11-26_15h59.53.574,lexical_decision_task_MP_exp2,2020.2.5,Win32,60,m,1,0.577125,,,,,,,,0.577125,1,,,,,,56,WORD,UN,16,change,AMBUSH,m,,,,,,,0.130555586,-0.235185264,0,0,0,,0,326,326,235,1,
,,,,,,,,,,,,,,,,,,5f3b042dd1a0bd7f377766e9,2020-11-26_15h59.53.574,lexical_decision_task_MP_exp2,2020.2.5,Win32,60,m,1,0.493045,,,,,,,,0.493045,1,,,,,,96,WORD,"ID",33,ignore,IGNORE,m,,,,,,,0.130555586,-0.235185264,0,0,0,,0,327,327,35,1,
,,,,,,,,,,,,,,,,,,5f3b042dd1a0bd7f377766e9,2020-11-26_15h59.53.574,lexical_decision_task_MP_exp2,2020.2.5,Win32,60,m,1,0.54088,,,,,,,,0.54088,1,,,,,,126,WORD,"ID",16,enough,ENOUGH,m,,,,,,,0.130555586,-0.235185264,0,0,0,,0,328,328,65,1,
,,,,,,,,,,,,,,,,,,5f3b042dd1a0bd7f377766e9,2020-11-26_15h59.53.574,lexical_decision_task_MP_exp2,2020.2.5,Win32,60,m,1,0.64954,,,,,,,,0.64954,1,,,,,,196,WORD,UN,33,stream,CREDIT,m,,,,,,,0.130555586,-0.235185264,0,0,0,,0,329,329,135,1,
,,,,,,,,,,,,,,,,,,5f3b042dd1a0bd7f377766e9,2020-11-26_15h59.53.574,lexical_decision_task_MP_exp2,2020.2.5,Win32,60,z,1,0.63652,,,,,,,,0.63652,1,,,,,,472,NW,UN,33,gorbie,CIGNEY,z,,,,,,,0.130555586,-0.235185264,0,0,0,,0,330,330,411,1,
,,,,,,,,,,,,,,,,,,5f3b042dd1a0bd7f377766e9,2020-11-26_15h59.53.574,lexical_decision_task_MP_exp2,2020.2.5,Win32,60,m,1,1.07344,,,,,,,,1.07344,1,,,,,,162,WORD,"ID",16,candle,CANDLE,m,,,,,,,0.130555586,-0.235185264,0,0,0,,0,331,331,101,1,
,,,,,,,,,,,,,,,,,,5f3b042dd1a0bd7f377766e9,2020-11-26_15h59.53.574,lexical_decision_task_MP_exp2,2020.2.5,Win32,60,z,0,0.616835,,,,,,,,0.616835,0,,,,,,183,WORD,UN,33,sleazy,MILDEW,m,,,,,,,0.130555586,-0.235185264,0,0,0,,0,332,332,122,1,
,,,,,,,,,,,,,,,,,,5f3b042dd1a0bd7f377766e9,2020-11-26_15h59.53.574,lexical_decision_task_MP_exp2,2020.2.5,Win32,60,m,1,0.529755,,,,,,,,0.529755,1,,,,,,48,WORD,UN,16,survey,WALNUT,m,,,,,,,0.130555586,-0.235185264,0,0,0,,0,333,333,227,1,
,,,,,,,,,,,,,,,,,,5f3b042dd1a0bd7f377766e9,2020-11-26_15h59.53.574,lexical_decision_task_MP_exp2,2020.2.5,Win32,60,z,1,0.84173,,,,,,,,0.84173,1,,,,,,288,NW,UN,16,starby,YACEUP,z,,,,,,,0.130555586,-0.235185264,0,0,0,,0,334,334,467,1,
,,,,,,,,,,,,,,,,,,5f3b042dd1a0bd7f377766e9,2020-11-26_15h59.53.574,lexical_decision_task_MP_exp2,2020.2.5,Win32,60,m,1,0.59432,,,,,,,,0.59432,1,,,,,,95,WORD,"ID",33,thread,THREAD,m,,,,,,,0.130555586,-0.235185264,0,0,0,,0,335,335,34,1,
,,,,,,,,,,,,,,,,,,5f3b042dd1a0bd7f377766e9,2020-11-26_15h59.53.574,lexical_decision_task_MP_exp2,2020.2.5,Win32,60,z,1,0.60617,,,,,,,,0.60617,1,,,,,,264,NW,UN,16,distar,VACKEL,z,,,,,,,0.130555586,-0.235185264,0,0,0,,0,336,336,443,1,
,,,,,,,,,,,,,,,,,,5f3b042dd1a0bd7f377766e9,2020-11-26_15h59.53.574,lexical_decision_task_MP_exp2,2020.2.5,Win32,60,m,1,0.480615,,,,,,,,0.480615,1,,,,,,191,WORD,UN,33,beacon,STABLE,m,,,,,,,0.130555586,-0.235185264,0,0,0,,0,337,337,130,1,
,,,,,,,,,,,,,,,,,,5f3b042dd1a0bd7f377766e9,2020-11-26_15h59.53.574,lexical_decision_task_MP_exp2,2020.2.5,Win32,60,m,1,0.65036,,,,,,,,0.65036,1,,,,,,11,WORD,UN,16,amount,CRUISE,m,,,,,,,0.130555586,-0.235185264,0,0,0,,0,338,338,190,1,
,,,,,,,,,,,,,,,,,,5f3b042dd1a0bd7f377766e9,2020-11-26_15h59.53.574,lexical_decision_task_MP_exp2,2020.2.5,Win32,60,z,1,0.68834,,,,,,,,0.68834,1,,,,,,379,NW,"ID",16,auting,AUTING,z,,,,,,,0.130555586,-0.235185264,0,0,0,,0,339,339,318,1,
,,,,,,,,,,,,,,,,,,5f3b042dd1a0bd7f377766e9,2020-11-26_15h59.53.574,lexical_decision_task_MP_exp2,2020.2.5,Win32,60,m,1,0.590425,,,,,,,,0.590425,1,,,,,,208,WORD,UN,33,search,HOCKEY,m,,,,,,,0.130555586,-0.235185264,0,0,0,,0,340,340,147,1,
,,,,,,,,,,,,,,,,,,5f3b042dd1a0bd7f377766e9,2020-11-26_15h59.53.574,lexical_decision_task_MP_exp2,2020.2.5,Win32,60,z,1,0.540025,,,,,,,,0.540025,1,,,,,,426,NW,UN,33,schind,URIVEL,z,,,,,,,0.130555586,-0.235185264,0,0,0,,0,341,341,365,1,
,,,,,,,,,,,,,,,,,,5f3b042dd1a0bd7f377766e9,2020-11-26_15h59.53.574,lexical_decision_task_MP_exp2,2020.2.5,Win32,60,m,1,0.63357,,,,,,,,0.63357,1,,,,,,102,WORD,"ID",33,direct,DIRECT,m,,,,,,,0.130555586,-0.235185264,0,0,0,,0,342,342,41,1,
,,,,,,,,,,,,,,,,,,5f3b042dd1a0bd7f377766e9,2020-11-26_15h59.53.574,lexical_decision_task_MP_exp2,2020.2.5,Win32,60,z,1,0.67792,,,,,,,,0.67792,1,,,,,,391,NW,"ID",16,theldy,THELDY,z,,,,,,,0.130555586,-0.235185264,0,0,0,,0,343,343,330,1,
,,,,,,,,,,,,,,,,,,5f3b042dd1a0bd7f377766e9,2020-11-26_15h59.53.574,lexical_decision_task_MP_exp2,2020.2.5,Win32,60,z,1,1.107025,,,,,,,,1.107025,1,,,,,,392,NW,"ID",16,rouncy,ROUNCY,z,,,,,,,0.130555586,-0.235185264,0,0,0,,0,344,344,331,1,
,,,,,,,,,,,,,,,,,,5f3b042dd1a0bd7f377766e9,2020-11-26_15h59.53.574,lexical_decision_task_MP_exp2,2020.2.5,Win32,60,z,1,0.94457,,,,,,,,0.94457,1,,,,,,359,NW,"ID",33,fonver,FONVER,z,,,,,,,0.130555586,-0.235185264,0,0,0,,0,345,345,298,1,
,,,,,,,,,,,,,,,,,,5f3b042dd1a0bd7f377766e9,2020-11-26_15h59.53.574,lexical_decision_task_MP_exp2,2020.2.5,Win32,60,z,1,0.633545,,,,,,,,0.633545,1,,,,,,325,NW,"ID",33,thruse,THRUSE,z,,,,,,,0.130555586,-0.235185264,0,0,0,,0,346,346,264,1,
,,,,,,,,,,,,,,,,,,5f3b042dd1a0bd7f377766e9,2020-11-26_15h59.53.574,lexical_decision_task_MP_exp2,2020.2.5,Win32,60,z,1,0.55852,,,,,,,,0.55852,1,,,,,,415,NW,"ID",16,higsta,HIGSTA,z,,,,,,,0.130555586,-0.235185264,0,0,0,,0,347,347,354,1,
,,,,,,,,,,,,,,,,,,5f3b042dd1a0bd7f377766e9,2020-11-26_15h59.53.574,lexical_decision_task_MP_exp2,2020.2.5,Win32,60,m,1,0.73564,,,,,,,,0.73564,1,,,,,,134,WORD,"ID",16,staple,STAPLE,m,,,,,,,0.130555586,-0.235185264,0,0,0,,0,348,348,73,1,
,,,,,,,,,,,,,,,,,,5f3b042dd1a0bd7f377766e9,2020-11-26_15h59.53.574,lexical_decision_task_MP_exp2,2020.2.5,Win32,60,m,1,0.525665,,,,,,,,0.525665,1,,,,,,164,WORD,"ID",16,market,MARKET,m,,,,,,,0.130555586,-0.235185264,0,0,0,,0,349,349,103,1,
,,,,,,,,,,,,,,,,,,5f3b042dd1a0bd7f377766e9,2020-11-26_15h59.53.574,lexical_decision_task_MP_exp2,2020.2.5,Win32,60,z,1,0.602425,,,,,,,,0.602425,1,,,,,,435,NW,UN,33,frutan,IMPURB,z,,,,,,,0.130555586,-0.235185264,0,0,0,,0,350,350,374,1,
,,,,,,,,,,,,,,,,,,5f3b042dd1a0bd7f377766e9,2020-11-26_15h59.53.574,lexical_decision_task_MP_exp2,2020.2.5,Win32,60,z,1,0.589015,,,,,,,,0.589015,1,,,,,,346,NW,"ID",33,saudic,SAUDIC,z,,,,,,,0.130555586,-0.235185264,0,0,0,,0,351,351,285,1,
,,,,,,,,,,,,,,,,,,5f3b042dd1a0bd7f377766e9,2020-11-26_15h59.53.574,lexical_decision_task_MP_exp2,2020.2.5,Win32,60,m,1,0.542665,,,,,,,,0.542665,1,,,,,,163,WORD,"ID",16,string,STRING,m,,,,,,,0.130555586,-0.235185264,0,0,0,,0,352,352,102,1,
,,,,,,,,,,,,,,,,,,5f3b042dd1a0bd7f377766e9,2020-11-26_15h59.53.574,lexical_decision_task_MP_exp2,2020.2.5,Win32,60,z,0,0.583795,,,,,,,,0.583795,0,,,,,,83,WORD,"ID",33,result,RESULT,m,,,,,,,0.130555586,-0.235185264,0,0,0,,0,353,353,22,1,
,,,,,,,,,,,,,,,,,,5f3b042dd1a0bd7f377766e9,2020-11-26_15h59.53.574,lexical_decision_task_MP_exp2,2020.2.5,Win32,60,z,1,0.624665,,,,,,,,0.624665,1,,,,,,299,NW,UN,16,yarion,STURCH,z,,,,,,,0.130555586,-0.235185264,0,0,0,,0,354,354,478,1,
,,,,,,,,,,,,,,,,,,5f3b042dd1a0bd7f377766e9,2020-11-26_15h59.53.574,lexical_decision_task_MP_exp2,2020.2.5,Win32,60,m,1,0.67593,,,,,,,,0.67593,1,,,,,,230,WORD,UN,33,mother,FRINGE,m,,,,,,,0.130555586,-0.235185264,0,0,0,,0,355,355,169,1,
,,,,,,,,,,,,,,,,,,5f3b042dd1a0bd7f377766e9,2020-11-26_15h59.53.574,lexical_decision_task_MP_exp2,2020.2.5,Win32,60,z,1,0.57591,,,,,,,,0.57591,1,,,,,,294,NW,UN,16,gleath,INHORT,z,,,,,,,0.130555586,-0.235185264,0,0,0,,0,356,356,473,1,
,,,,,,,,,,,,,,,,,,5f3b042dd1a0bd7f377766e9,2020-11-26_15h59.53.574,lexical_decision_task_MP_exp2,2020.2.5,Win32,60,z,1,0.663475,,,,,,,,0.663475,1,,,,,,374,NW,"ID",16,sliant,SLIANT,z,,,,,,,0.130555586,-0.235185264,0,0,0,,0,357,357,313,1,
,,,,,,,,,,,,,,,,,,5f3b042dd1a0bd7f377766e9,2020-11-26_15h59.53.574,lexical_decision_task_MP_exp2,2020.2.5,Win32,60,z,1,0.566875,,,,,,,,0.566875,1,,,,,,384,NW,"ID",16,guesco,GUESCO,z,,,,,,,0.130555586,-0.235185264,0,0,0,,0,358,358,323,1,
,,,,,,,,,,,,,,,,,,5f3b042dd1a0bd7f377766e9,2020-11-26_15h59.53.574,lexical_decision_task_MP_exp2,2020.2.5,Win32,60,z,1,0.57301,,,,,,,,0.57301,1,,,,,,393,NW,"ID",16,ganous,GANOUS,z,,,,,,,0.130555586,-0.235185264,0,0,0,,0,359,359,332,1,
,,,,,,,,,,,,,,,,,,5f3b042dd1a0bd7f377766e9,2020-11-26_15h59.53.574,lexical_decision_task_MP_exp2,2020.2.5,Win32,60,z,1,0.62456,,,,,,,,0.62456,1,,,,,,276,NW,UN,16,petain,YARMON,z,,,,,,,0.130555586,-0.235185264,0,0,0,,0,360,360,455,1,
,,,,,,,,,,,,,,,,,,5f3b042dd1a0bd7f377766e9,2020-11-26_15h59.53.574,lexical_decision_task_MP_exp2,2020.2.5,Win32,60,z,1,0.579235,,,,,,,,0.579235,1,,,,,,365,NW,"ID",16,guairt,GUAIRT,z,,,,,,,0.130555586,-0.235185264,0,0,0,,0,361,361,304,1,
,,,,,,,,,,,,,,,,,,5f3b042dd1a0bd7f377766e9,2020-11-26_15h59.53.574,lexical_decision_task_MP_exp2,2020.2.5,Win32,60,z,1,0.5305,,,,,,,,0.5305,1,,,,,,246,NW,UN,16,blarge,PIATON,z,,,,,,,0.130555586,-0.235185264,0,0,0,space,0,362,362,425,1,2.38261
,,,,,,,,,,,,,,,,,,5f3b042dd1a0bd7f377766e9,2020-11-26_15h59.53.574,lexical_decision_task_MP_exp2,2020.2.5,Win32,60,m,1,0.79458,,,,,,,,0.79458,1,,,,,,72,WORD,"ID",33,bright,BRIGHT,m,,,,,,,0.130555586,-0.235185264,0,0,0,,0,363,363,11,1,
,,,,,,,,,,,,,,,,,,5f3b042dd1a0bd7f377766e9,2020-11-26_15h59.53.574,lexical_decision_task_MP_exp2,2020.2.5,Win32,60,z,1,0.533565,,,,,,,,0.533565,1,,,,,,337,NW,"ID",33,rejols,REJOLS,z,,,,,,,0.130555586,-0.235185264,0,0,0,,0,364,364,276,1,
,,,,,,,,,,,,,,,,,,5f3b042dd1a0bd7f377766e9,2020-11-26_15h59.53.574,lexical_decision_task_MP_exp2,2020.2.5,Win32,60,z,1,0.587785,,,,,,,,0.587785,1,,,,,,256,NW,UN,16,veniod,INLORS,z,,,,,,,0.130555586,-0.235185264,0,0,0,,0,365,365,435,1,
,,,,,,,,,,,,,,,,,,5f3b042dd1a0bd7f377766e9,2020-11-26_15h59.53.574,lexical_decision_task_MP_exp2,2020.2.5,Win32,60,z,1,0.503725,,,,,,,,0.503725,1,,,,,,343,NW,"ID",33,aimosy,AIMOSY,z,,,,,,,0.130555586,-0.235185264,0,0,0,,0,366,366,282,1,
,,,,,,,,,,,,,,,,,,5f3b042dd1a0bd7f377766e9,2020-11-26_15h59.53.574,lexical_decision_task_MP_exp2,2020.2.5,Win32,60,m,1,0.55692,,,,,,,,0.55692,1,,,,,,132,WORD,"ID",16,strong,STRONG,m,,,,,,,0.130555586,-0.235185264,0,0,0,,0,367,367,71,1,
,,,,,,,,,,,,,,,,,,5f3b042dd1a0bd7f377766e9,2020-11-26_15h59.53.574,lexical_decision_task_MP_exp2,2020.2.5,Win32,60,m,1,0.53762,,,,,,,,0.53762,1,,,,,,1,WORD,UN,16,ethnic,FRIGHT,m,,,,,,,0.130555586,-0.235185264,0,0,0,,0,368,368,180,1,
,,,,,,,,,,,,,,,,,,5f3b042dd1a0bd7f377766e9,2020-11-26_15h59.53.574,lexical_decision_task_MP_exp2,2020.2.5,Win32,60,z,1,0.52512,,,,,,,,0.52512,1,,,,,,441,NW,UN,33,aboune,RASTOE,z,,,,,,,0.130555586,-0.235185264,0,0,0,,0,369,369,380,1,
,,,,,,,,,,,,,,,,,,5f3b042dd1a0bd7f377766e9,2020-11-26_15h59.53.574,lexical_decision_task_MP_exp2,2020.2.5,Win32,60,z,1,0.55562,,,,,,,,0.55562,1,,,,,,293,NW,UN,16,inhort,SWANCE,z,,,,,,,0.130555586,-0.235185264,0,0,0,,0,370,370,472,1,
,,,,,,,,,,,,,,,,,,5f3b042dd1a0bd7f377766e9,2020-11-26_15h59.53.574,lexical_decision_task_MP_exp2,2020.2.5,Win32,60,m,1,0.592515,,,,,,,,0.592515,1,,,,,,195,WORD,UN,33,credit,RESIGN,m,,,,,,,0.130555586,-0.235185264,0,0,0,,0,371,371,134,1,
,,,,,,,,,,,,,,,,,,5f3b042dd1a0bd7f377766e9,2020-11-26_15h59.53.574,lexical_decision_task_MP_exp2,2020.2.5,Win32,60,m,1,0.479635,,,,,,,,0.479635,1,,,,,,20,WORD,UN,16,simple,BREAST,m,,,,,,,0.130555586,-0.235185264,0,0,0,,0,372,372,199,1,
,,,,,,,,,,,,,,,,,,5f3b042dd1a0bd7f377766e9,2020-11-26_15h59.53.574,lexical_decision_task_MP_exp2,2020.2.5,Win32,60,m,1,0.620485,,,,,,,,0.620485,1,,,,,,43,WORD,UN,16,foster,TONGUE,m,,,,,,,0.130555586,-0.235185264,0,0,0,,0,373,373,222,1,
,,,,,,,,,,,,,,,,,,5f3b042dd1a0bd7f377766e9,2020-11-26_15h59.53.574,lexical_decision_task_MP_exp2,2020.2.5,Win32,60,m,1,0.579225,,,,,,,,0.579225,1,,,,,,182,WORD,UN,33,absent,WINTER,m,,,,,,,0.130555586,-0.235185264,0,0,0,,0,374,374,121,1,
,,,,,,,,,,,,,,,,,,5f3b042dd1a0bd7f377766e9,2020-11-26_15h59.53.574,lexical_decision_task_MP_exp2,2020.2.5,Win32,60,z,1,0.69373,,,,,,,,0.69373,1,,,,,,386,NW,"ID",16,ancust,ANCUST,z,,,,,,,0.130555586,-0.235185264,0,0,0,,0,375,375,325,1,
,,,,,,,,,,,,,,,,,,5f3b042dd1a0bd7f377766e9,2020-11-26_15h59.53.574,lexical_decision_task_MP_exp2,2020.2.5,Win32,60,m,1,0.46673,,,,,,,,0.46673,1,,,,,,158,WORD,"ID",16,island,ISLAND,m,,,,,,,0.130555586,-0.235185264,0,0,0,,0,376,376,97,1,
,,,,,,,,,,,,,,,,,,5f3b042dd1a0bd7f377766e9,2020-11-26_15h59.53.574,lexical_decision_task_MP_exp2,2020.2.5,Win32,60,m,1,0.51028,,,,,,,,0.51028,1,,,,,,180,WORD,"ID",16,silent,SILENT,m,,,,,,,0.130555586,-0.235185264,0,0,0,,0,377,377,119,1,
,,,,,,,,,,,,,,,,,,5f3b042dd1a0bd7f377766e9,2020-11-26_15h59.53.574,lexical_decision_task_MP_exp2,2020.2.5,Win32,60,m,1,0.66927,,,,,,,,0.66927,1,,,,,,128,WORD,"ID",16,senior,SENIOR,m,,,,,,,0.130555586,-0.235185264,0,0,0,,0,378,378,67,1,
,,,,,,,,,,,,,,,,,,5f3b042dd1a0bd7f377766e9,2020-11-26_15h59.53.574,lexical_decision_task_MP_exp2,2020.2.5,Win32,60,z,1,0.580025,,,,,,,,0.580025,1,,,,,,445,NW,UN,33,runamo,MINKEL,z,,,,,,,0.130555586,-0.235185264,0,0,0,,0,379,379,384,1,
,,,,,,,,,,,,,,,,,,5f3b042dd1a0bd7f377766e9,2020-11-26_15h59.53.574,lexical_decision_task_MP_exp2,2020.2.5,Win32,60,m,0,0.44684,,,,,,,,0.44684,0,,,,,,316,NW,"ID",33,scregm,SCREGM,z,,,,,,,0.130555586,-0.235185264,0,0,0,,0,380,380,255,1,
,,,,,,,,,,,,,,,,,,5f3b042dd1a0bd7f377766e9,2020-11-26_15h59.53.574,lexical_decision_task_MP_exp2,2020.2.5,Win32,60,m,1,0.626005,,,,,,,,0.626005,1,,,,,,156,WORD,"ID",16,cradle,CRADLE,m,,,,,,,0.130555586,-0.235185264,0,0,0,,0,381,381,95,1,
,,,,,,,,,,,,,,,,,,5f3b042dd1a0bd7f377766e9,2020-11-26_15h59.53.574,lexical_decision_task_MP_exp2,2020.2.5,Win32,60,z,1,0.550265,,,,,,,,0.550265,1,,,,,,258,NW,UN,16,soudal,POLUTH,z,,,,,,,0.130555586,-0.235185264,0,0,0,,0,382,382,437,1,
,,,,,,,,,,,,,,,,,,5f3b042dd1a0bd7f377766e9,2020-11-26_15h59.53.574,lexical_decision_task_MP_exp2,2020.2.5,Win32,60,m,1,0.549955,,,,,,,,0.549955,1,,,,,,90,WORD,"ID",33,relish,RELISH,m,,,,,,,0.130555586,-0.235185264,0,0,0,,0,383,383,29,1,
,,,,,,,,,,,,,,,,,,5f3b042dd1a0bd7f377766e9,2020-11-26_15h59.53.574,lexical_decision_task_MP_exp2,2020.2.5,Win32,60,z,1,0.58491,,,,,,,,0.58491,1,,,,,,434,NW,UN,33,impurb,PITROM,z,,,,,,,0.130555586,-0.235185264,0,0,0,,0,384,384,373,1,
,,,,,,,,,,,,,,,,,,5f3b042dd1a0bd7f377766e9,2020-11-26_15h59.53.574,lexical_decision_task_MP_exp2,2020.2.5,Win32,60,m,1,0.52654,,,,,,,,0.52654,1,,,,,,69,WORD,"ID",33,plenty,PLENTY,m,,,,,,,0.130555586,-0.235185264,0,0,0,,0,385,385,8,1,
,,,,,,,,,,,,,,,,,,5f3b042dd1a0bd7f377766e9,2020-11-26_15h59.53.574,lexical_decision_task_MP_exp2,2020.2.5,Win32,60,z,1,0.56166,,,,,,,,0.56166,1,,,,,,274,NW,UN,16,sleirt,FUMBLO,z,,,,,,,0.130555586,-0.235185264,0,0,0,,0,386,386,453,1,
,,,,,,,,,,,,,,,,,,5f3b042dd1a0bd7f377766e9,2020-11-26_15h59.53.574,lexical_decision_task_MP_exp2,2020.2.5,Win32,60,m,1,0.42315,,,,,,,,0.42315,1,,,,,,62,WORD,"ID",33,region,REGION,m,,,,,,,0.130555586,-0.235185264,0,0,0,,0,387,387,1,1,
,,,,,,,,,,,,,,,,,,5f3b042dd1a0bd7f377766e9,2020-11-26_15h59.53.574,lexical_decision_task_MP_exp2,2020.2.5,Win32,60,z,1,0.54458,,,,,,,,0.54458,1,,,,,,280,NW,UN,16,melaty,CURBOL,z,,,,,,,0.130555586,-0.235185264,0,0,0,,0,388,388,459,1,
,,,,,,,,,,,,,,,,,,5f3b042dd1a0bd7f377766e9,2020-11-26_15h59.53.574,lexical_decision_task_MP_exp2,2020.2.5,Win32,60,m,0,0.36694,,,,,,,,0.36694,0,,,,,,324,NW,"ID",33,steikh,STEIKH,z,,,,,,,0.130555586,-0.235185264,0,0,0,,0,389,389,263,1,
,,,,,,,,,,,,,,,,,,5f3b042dd1a0bd7f377766e9,2020-11-26_15h59.53.574,lexical_decision_task_MP_exp2,2020.2.5,Win32,60,m,1,0.502135,,,,,,,,0.502135,1,,,,,,51,WORD,UN,16,impose,HUNGRY,m,,,,,,,0.130555586,-0.235185264,0,0,0,,0,390,390,230,1,
,,,,,,,,,,,,,,,,,,5f3b042dd1a0bd7f377766e9,2020-11-26_15h59.53.574,lexical_decision_task_MP_exp2,2020.2.5,Win32,60,m,1,0.660565,,,,,,,,0.660565,1,,,,,,19,WORD,UN,16,breast,PATRON,m,,,,,,,0.130555586,-0.235185264,0,0,0,,0,391,391,198,1,
,,,,,,,,,,,,,,,,,,5f3b042dd1a0bd7f377766e9,2020-11-26_15h59.53.574,lexical_decision_task_MP_exp2,2020.2.5,Win32,60,m,1,0.47983,,,,,,,,0.47983,1,,,,,,187,WORD,UN,33,social,COURSE,m,,,,,,,0.130555586,-0.235185264,0,0,0,,0,392,392,126,1,
,,,,,,,,,,,,,,,,,,5f3b042dd1a0bd7f377766e9,2020-11-26_15h59.53.574,lexical_decision_task_MP_exp2,2020.2.5,Win32,60,z,1,0.56376,,,,,,,,0.56376,1,,,,,,443,NW,UN,33,jaunce,DORSEX,z,,,,,,,0.130555586,-0.235185264,0,0,0,,0,393,393,382,1,
