counterbalancing_condition,instr_done_keyboard.keys,instr_done_keyboard.rt,instr_done_touch.x,instr_done_touch.y,instr_done_touch.leftButton,instr_done_touch.midButton,instr_done_touch.rightButton,instruction_pages.thisRepN,instruction_pages.thisTrialN,instruction_pages.thisN,instruction_pages.thisIndex,instruction_pages.ran,pageN,phase,instruct_text,has_image,instruct_image,participant,date,expName,psychopyVersion,OS,frameRate,response.keys,response.corr,response.rt,touch_resp.x,touch_resp.y,touch_resp.leftButton,touch_resp.midButton,touch_resp.rightButton,touch_resp.time,touch_resp.clicked_name,rt,corr,practice_trials.thisRepN,practice_trials.thisTrialN,practice_trials.thisN,practice_trials.thisIndex,practice_trials.ran,TrialID,StimulusType,Condition,PrimeDuration,Prime,Target,corrAns,end_of_practice_trials_pages.thisRepN,end_of_practice_trials_pages.thisTrialN,end_of_practice_trials_pages.thisN,end_of_practice_trials_pages.thisIndex,end_of_practice_trials_pages.ran,break_done_touch.x,break_done_touch.y,break_done_touch.leftButton,break_done_touch.midButton,break_done_touch.rightButton,break_done_keyboard.keys,experiment_trials.thisRepN,experiment_trials.thisTrialN,experiment_trials.thisN,experiment_trials.thisIndex,experiment_trials.ran,break_done_keyboard.rt
2,space,27.36246,0.174074074,-0.10462963,0,0,0,0,0,0,0,1,1,instructions,"INSTRUCTIONS
At the start of each trial, look at the hash marks (######) in the center of the screen. After a moment, a string of letters will appear. Your task is to indicate if the letter string forms a word or not (i.e., if it is a nonword). For example, AUTHOR is a word while AUTHON is a nonword.

Press the space bar or touch the button below to continue.",0,,5f4e0155cf03293db269f873,2020-11-26_17h10.10.057,lexical_decision_task_MP_exp2,2020.2.5,Win32,60,,,,,,,,,,,,,,,,,,,,,,,,,,,,,,,,,,,,,,,,,
,space,6.60757,0.174074074,-0.10462963,0,0,0,0,1,1,1,1,2,instructions,"If your device has a keyboard, press the 'Z' key for nonwords and the 'M' key for words.





Press the space bar or touch the button below to continue.",1,keyboard-example.gif,5f4e0155cf03293db269f873,2020-11-26_17h10.10.057,lexical_decision_task_MP_exp2,2020.2.5,Win32,60,,,,,,,,,,,,,,,,,,,,,,,,,,,,,,,,,,,,,,,,,
,space,2.18973,0.174074074,-0.10462963,0,0,0,0,2,2,2,1,3,instructions,"If you are using a touchscreen only device, use the buttons on the screen. Do not use the mouse.





Press the space bar or touch the button below to continue.",1,touchscreen-example.gif,5f4e0155cf03293db269f873,2020-11-26_17h10.10.057,lexical_decision_task_MP_exp2,2020.2.5,Win32,60,,,,,,,,,,,,,,,,,,,,,,,,,,,,,,,,,,,,,,,,,
,space,6.82286,0.174074074,-0.10462963,0,0,0,0,3,3,3,1,4,instructions,"It is very important that you respond as quickly and accurately as possible, as each letter string will only be on the screen for two seconds. If you do not respond within this time, the message 'Too slow!' will be displayed and the experiment will progress to the next letter string. The first 20 trials will be practice trials and you will receive feedback on your answers. 

Press the space bar or touch the button below to start the practice trials.",0,,5f4e0155cf03293db269f873,2020-11-26_17h10.10.057,lexical_decision_task_MP_exp2,2020.2.5,Win32,60,,,,,,,,,,,,,,,,,,,,,,,,,,,,,,,,,,,,,,,,,
,,,,,,,,,,,,,,,,,,5f4e0155cf03293db269f873,2020-11-26_17h10.10.057,lexical_decision_task_MP_exp2,2020.2.5,Win32,60,m,1,1.390005,,,,,,,,1.390005,1,0,0,0,7,1,1008,WORD,UN,16,hurdle,VOLUME,m,,,,,,,,,,,,,,,,,
,,,,,,,,,,,,,,,,,,5f4e0155cf03293db269f873,2020-11-26_17h10.10.057,lexical_decision_task_MP_exp2,2020.2.5,Win32,60,z,1,0.687055,,,,,,,,0.687055,1,0,1,1,15,1,1016,NW,UN,16,mushed,WHAISE,z,,,,,,,,,,,,,,,,,
,,,,,,,,,,,,,,,,,,5f4e0155cf03293db269f873,2020-11-26_17h10.10.057,lexical_decision_task_MP_exp2,2020.2.5,Win32,60,m,0,0.690545,,,,,,,,0.690545,0,0,2,2,9,1,1010,NW,"ID",33,fariny,FARINY,z,,,,,,,,,,,,,,,,,
,,,,,,,,,,,,,,,,,,5f4e0155cf03293db269f873,2020-11-26_17h10.10.057,lexical_decision_task_MP_exp2,2020.2.5,Win32,60,m,1,0.703105,,,,,,,,0.703105,1,0,3,3,0,1,1001,WORD,"ID",33,utopia,UTOPIA,m,,,,,,,,,,,,,,,,,
,,,,,,,,,,,,,,,,,,5f4e0155cf03293db269f873,2020-11-26_17h10.10.057,lexical_decision_task_MP_exp2,2020.2.5,Win32,60,z,1,0.85248,,,,,,,,0.85248,1,0,4,4,8,1,1009,NW,"ID",33,aslert,ASLERT,z,,,,,,,,,,,,,,,,,
,,,,,,,,,,,,,,,,,,5f4e0155cf03293db269f873,2020-11-26_17h10.10.057,lexical_decision_task_MP_exp2,2020.2.5,Win32,60,z,1,0.634195,,,,,,,,0.634195,1,0,5,5,14,1,1015,NW,UN,16,miaber,THRALE,z,,,,,,,,,,,,,,,,,
,,,,,,,,,,,,,,,,,,5f4e0155cf03293db269f873,2020-11-26_17h10.10.057,lexical_decision_task_MP_exp2,2020.2.5,Win32,60,m,1,0.68453,,,,,,,,0.68453,1,0,6,6,6,1,1007,WORD,UN,16,tropic,ZOMBIE,m,,,,,,,,,,,,,,,,,
,,,,,,,,,,,,,,,,,,5f4e0155cf03293db269f873,2020-11-26_17h10.10.057,lexical_decision_task_MP_exp2,2020.2.5,Win32,60,m,1,0.584695,,,,,,,,0.584695,1,0,7,7,1,1,1002,WORD,"ID",33,adjust,ADJUST,m,,,,,,,,,,,,,,,,,
,,,,,,,,,,,,,,,,,,5f4e0155cf03293db269f873,2020-11-26_17h10.10.057,lexical_decision_task_MP_exp2,2020.2.5,Win32,60,m,1,0.618495,,,,,,,,0.618495,1,0,8,8,2,1,1003,WORD,"ID",16,almond,ALMOND,m,,,,,,,,,,,,,,,,,
,,,,,,,,,,,,,,,,,,5f4e0155cf03293db269f873,2020-11-26_17h10.10.057,lexical_decision_task_MP_exp2,2020.2.5,Win32,60,m,1,0.55495,,,,,,,,0.55495,1,0,9,9,5,1,1006,WORD,UN,33,frenzy,OBTAIN,m,,,,,,,,,,,,,,,,,
,,,,,,,,,,,,,,,,,,5f4e0155cf03293db269f873,2020-11-26_17h10.10.057,lexical_decision_task_MP_exp2,2020.2.5,Win32,60,m,1,0.592165,,,,,,,,0.592165,1,0,10,10,4,1,1005,WORD,UN,33,abound,SQUEAK,m,,,,,,,,,,,,,,,,,
,,,,,,,,,,,,,,,,,,5f4e0155cf03293db269f873,2020-11-26_17h10.10.057,lexical_decision_task_MP_exp2,2020.2.5,Win32,60,z,1,0.651955,,,,,,,,0.651955,1,0,11,11,13,1,1014,NW,UN,33,winfer,ROUPET,z,,,,,,,,,,,,,,,,,
,,,,,,,,,,,,,,,,,,5f4e0155cf03293db269f873,2020-11-26_17h10.10.057,lexical_decision_task_MP_exp2,2020.2.5,Win32,60,z,1,0.725815,,,,,,,,0.725815,1,0,12,12,11,1,1012,NW,"ID",16,rashet,RASHET,z,,,,,,,,,,,,,,,,,
,,,,,,,,,,,,,,,,,,5f4e0155cf03293db269f873,2020-11-26_17h10.10.057,lexical_decision_task_MP_exp2,2020.2.5,Win32,60,m,1,0.601045,,,,,,,,0.601045,1,0,13,13,3,1,1004,WORD,"ID",16,matrix,MATRIX,m,,,,,,,,,,,,,,,,,
,,,,,,,,,,,,,,,,,,5f4e0155cf03293db269f873,2020-11-26_17h10.10.057,lexical_decision_task_MP_exp2,2020.2.5,Win32,60,z,1,0.78505,,,,,,,,0.78505,1,0,14,14,12,1,1013,NW,UN,33,adveil,SPRINY,z,,,,,,,,,,,,,,,,,
,,,,,,,,,,,,,,,,,,5f4e0155cf03293db269f873,2020-11-26_17h10.10.057,lexical_decision_task_MP_exp2,2020.2.5,Win32,60,z,1,0.5723,,,,,,,,0.5723,1,0,15,15,10,1,1011,NW,"ID",16,inlade,INLADE,z,,,,,,,,,,,,,,,,,
,space,6.79203,0.174074074,-0.10462963,0,0,0,,,,,,1,end_of_practice,"You have completed the practice trials. During the experimental trials, you will not receive feedback, but it is very important that you respond as quickly and accurately as possible. 
Before you begin, please ensure that you are in a comfortable and quiet location and will not be disturbed for about 15 minutes, as we cannot use your data if you do not complete all the trials. 
There will be opportunities to take breaks at regular intervals during the experiment. When you are ready to start the experimental trials, please press space or touch the button below.",,,5f4e0155cf03293db269f873,2020-11-26_17h10.10.057,lexical_decision_task_MP_exp2,2020.2.5,Win32,60,,,,,,,,,,,,,,,,,,,,,,,,,0,0,0,0,1,,,,,,,,,,,,
,,,,,,,,,,,,,,,,,,5f4e0155cf03293db269f873,2020-11-26_17h10.10.057,lexical_decision_task_MP_exp2,2020.2.5,Win32,60,z,1,0.667425,,,,,,,,0.667425,1,,,,,,395,NW,"ID",16,colury,COLURY,z,,,,,,0.174074074,-0.10462963,0,0,0,,0,0,0,334,1,
,,,,,,,,,,,,,,,,,,5f4e0155cf03293db269f873,2020-11-26_17h10.10.057,lexical_decision_task_MP_exp2,2020.2.5,Win32,60,z,1,0.74219,,,,,,,,0.74219,1,,,,,,449,NW,UN,33,phrect,BRUNGE,z,,,,,,0.174074074,-0.10462963,0,0,0,,0,1,1,388,1,
,,,,,,,,,,,,,,,,,,5f4e0155cf03293db269f873,2020-11-26_17h10.10.057,lexical_decision_task_MP_exp2,2020.2.5,Win32,60,m,1,0.664945,,,,,,,,0.664945,1,,,,,,200,WORD,UN,33,admire,BEACON,m,,,,,,0.174074074,-0.10462963,0,0,0,,0,2,2,139,1,
,,,,,,,,,,,,,,,,,,5f4e0155cf03293db269f873,2020-11-26_17h10.10.057,lexical_decision_task_MP_exp2,2020.2.5,Win32,60,z,1,0.76426,,,,,,,,0.76426,1,,,,,,308,NW,"ID",33,psetch,PSETCH,z,,,,,,0.174074074,-0.10462963,0,0,0,,0,3,3,247,1,
,,,,,,,,,,,,,,,,,,5f4e0155cf03293db269f873,2020-11-26_17h10.10.057,lexical_decision_task_MP_exp2,2020.2.5,Win32,60,m,1,0.61586,,,,,,,,0.61586,1,,,,,,229,WORD,UN,33,fringe,MOTHER,m,,,,,,0.174074074,-0.10462963,0,0,0,,0,4,4,168,1,
,,,,,,,,,,,,,,,,,,5f4e0155cf03293db269f873,2020-11-26_17h10.10.057,lexical_decision_task_MP_exp2,2020.2.5,Win32,60,m,1,0.65079,,,,,,,,0.65079,1,,,,,,223,WORD,UN,33,period,KIDNEY,m,,,,,,0.174074074,-0.10462963,0,0,0,,0,5,5,162,1,
,,,,,,,,,,,,,,,,,,5f4e0155cf03293db269f873,2020-11-26_17h10.10.057,lexical_decision_task_MP_exp2,2020.2.5,Win32,60,m,1,0.54719,,,,,,,,0.54719,1,,,,,,147,WORD,"ID",16,garlic,GARLIC,m,,,,,,0.174074074,-0.10462963,0,0,0,,0,6,6,86,1,
,,,,,,,,,,,,,,,,,,5f4e0155cf03293db269f873,2020-11-26_17h10.10.057,lexical_decision_task_MP_exp2,2020.2.5,Win32,60,z,1,0.81207,,,,,,,,0.81207,1,,,,,,420,NW,"ID",16,gushop,GUSHOP,z,,,,,,0.174074074,-0.10462963,0,0,0,,0,7,7,359,1,
,,,,,,,,,,,,,,,,,,5f4e0155cf03293db269f873,2020-11-26_17h10.10.057,lexical_decision_task_MP_exp2,2020.2.5,Win32,60,m,1,0.550595,,,,,,,,0.550595,1,,,,,,93,WORD,"ID",33,public,PUBLIC,m,,,,,,0.174074074,-0.10462963,0,0,0,,0,8,8,32,1,
,,,,,,,,,,,,,,,,,,5f4e0155cf03293db269f873,2020-11-26_17h10.10.057,lexical_decision_task_MP_exp2,2020.2.5,Win32,60,z,1,1.10133,,,,,,,,1.10133,1,,,,,,251,NW,UN,16,stapod,LUPICT,z,,,,,,0.174074074,-0.10462963,0,0,0,,0,9,9,430,1,
,,,,,,,,,,,,,,,,,,5f4e0155cf03293db269f873,2020-11-26_17h10.10.057,lexical_decision_task_MP_exp2,2020.2.5,Win32,60,m,1,0.634175,,,,,,,,0.634175,1,,,,,,23,WORD,UN,16,praise,WEALTH,m,,,,,,0.174074074,-0.10462963,0,0,0,,0,10,10,202,1,
,,,,,,,,,,,,,,,,,,5f4e0155cf03293db269f873,2020-11-26_17h10.10.057,lexical_decision_task_MP_exp2,2020.2.5,Win32,60,m,1,1.00716,,,,,,,,1.00716,1,,,,,,87,WORD,"ID",33,filter,FILTER,m,,,,,,0.174074074,-0.10462963,0,0,0,,0,11,11,26,1,
,,,,,,,,,,,,,,,,,,5f4e0155cf03293db269f873,2020-11-26_17h10.10.057,lexical_decision_task_MP_exp2,2020.2.5,Win32,60,m,1,0.692145,,,,,,,,0.692145,1,,,,,,227,WORD,UN,33,master,SELDOM,m,,,,,,0.174074074,-0.10462963,0,0,0,,0,12,12,166,1,
,,,,,,,,,,,,,,,,,,5f4e0155cf03293db269f873,2020-11-26_17h10.10.057,lexical_decision_task_MP_exp2,2020.2.5,Win32,60,z,1,0.778795,,,,,,,,0.778795,1,,,,,,406,NW,"ID",16,nouply,NOUPLY,z,,,,,,0.174074074,-0.10462963,0,0,0,,0,13,13,345,1,
,,,,,,,,,,,,,,,,,,5f4e0155cf03293db269f873,2020-11-26_17h10.10.057,lexical_decision_task_MP_exp2,2020.2.5,Win32,60,m,1,0.567695,,,,,,,,0.567695,1,,,,,,63,WORD,"ID",33,launch,LAUNCH,m,,,,,,0.174074074,-0.10462963,0,0,0,,0,14,14,2,1,
,,,,,,,,,,,,,,,,,,5f4e0155cf03293db269f873,2020-11-26_17h10.10.057,lexical_decision_task_MP_exp2,2020.2.5,Win32,60,z,1,0.90624,,,,,,,,0.90624,1,,,,,,445,NW,UN,33,runamo,MINKEL,z,,,,,,0.174074074,-0.10462963,0,0,0,,0,15,15,384,1,
,,,,,,,,,,,,,,,,,,5f4e0155cf03293db269f873,2020-11-26_17h10.10.057,lexical_decision_task_MP_exp2,2020.2.5,Win32,60,z,1,0.88474,,,,,,,,0.88474,1,,,,,,302,NW,"ID",33,miluer,MILUER,z,,,,,,0.174074074,-0.10462963,0,0,0,,0,16,16,241,1,
,,,,,,,,,,,,,,,,,,5f4e0155cf03293db269f873,2020-11-26_17h10.10.057,lexical_decision_task_MP_exp2,2020.2.5,Win32,60,z,1,0.99045,,,,,,,,0.99045,1,,,,,,474,NW,UN,33,acrise,HABLIN,z,,,,,,0.174074074,-0.10462963,0,0,0,,0,17,17,413,1,
,,,,,,,,,,,,,,,,,,5f4e0155cf03293db269f873,2020-11-26_17h10.10.057,lexical_decision_task_MP_exp2,2020.2.5,Win32,60,m,1,0.501035,,,,,,,,0.501035,1,,,,,,41,WORD,UN,16,chapel,SPRING,m,,,,,,0.174074074,-0.10462963,0,0,0,,0,18,18,220,1,
,,,,,,,,,,,,,,,,,,5f4e0155cf03293db269f873,2020-11-26_17h10.10.057,lexical_decision_task_MP_exp2,2020.2.5,Win32,60,m,1,0.5688,,,,,,,,0.5688,1,,,,,,122,WORD,"ID",16,linger,LINGER,m,,,,,,0.174074074,-0.10462963,0,0,0,,0,19,19,61,1,
,,,,,,,,,,,,,,,,,,5f4e0155cf03293db269f873,2020-11-26_17h10.10.057,lexical_decision_task_MP_exp2,2020.2.5,Win32,60,m,1,0.56869,,,,,,,,0.56869,1,,,,,,170,WORD,"ID",16,pounce,POUNCE,m,,,,,,0.174074074,-0.10462963,0,0,0,,0,20,20,109,1,
,,,,,,,,,,,,,,,,,,5f4e0155cf03293db269f873,2020-11-26_17h10.10.057,lexical_decision_task_MP_exp2,2020.2.5,Win32,60,m,0,0.681305,,,,,,,,0.681305,0,,,,,,319,NW,"ID",33,zomber,ZOMBER,z,,,,,,0.174074074,-0.10462963,0,0,0,,0,21,21,258,1,
,,,,,,,,,,,,,,,,,,5f4e0155cf03293db269f873,2020-11-26_17h10.10.057,lexical_decision_task_MP_exp2,2020.2.5,Win32,60,m,1,0.745485,,,,,,,,0.745485,1,,,,,,148,WORD,"ID",16,custom,CUSTOM,m,,,,,,0.174074074,-0.10462963,0,0,0,,0,22,22,87,1,
,,,,,,,,,,,,,,,,,,5f4e0155cf03293db269f873,2020-11-26_17h10.10.057,lexical_decision_task_MP_exp2,2020.2.5,Win32,60,m,1,0.6546,,,,,,,,0.6546,1,,,,,,171,WORD,"ID",16,depart,DEPART,m,,,,,,0.174074074,-0.10462963,0,0,0,,0,23,23,110,1,
,,,,,,,,,,,,,,,,,,5f4e0155cf03293db269f873,2020-11-26_17h10.10.057,lexical_decision_task_MP_exp2,2020.2.5,Win32,60,,0,,,,,,,,,0.6546,-1,,,,,,367,NW,"ID",16,slique,SLIQUE,z,,,,,,0.174074074,-0.10462963,0,0,0,,0,24,24,306,1,
,,,,,,,,,,,,,,,,,,5f4e0155cf03293db269f873,2020-11-26_17h10.10.057,lexical_decision_task_MP_exp2,2020.2.5,Win32,60,m,1,0.500555,,,,,,,,0.500555,1,,,,,,9,WORD,UN,16,bridge,HUSTLE,m,,,,,,0.174074074,-0.10462963,0,0,0,,0,25,25,188,1,
,,,,,,,,,,,,,,,,,,5f4e0155cf03293db269f873,2020-11-26_17h10.10.057,lexical_decision_task_MP_exp2,2020.2.5,Win32,60,m,0,0.852245,,,,,,,,0.852245,0,,,,,,431,NW,UN,33,lunker,CHRUMS,z,,,,,,0.174074074,-0.10462963,0,0,0,,0,26,26,370,1,
,,,,,,,,,,,,,,,,,,5f4e0155cf03293db269f873,2020-11-26_17h10.10.057,lexical_decision_task_MP_exp2,2020.2.5,Win32,60,z,1,0.884335,,,,,,,,0.884335,1,,,,,,357,NW,"ID",33,derain,DERAIN,z,,,,,,0.174074074,-0.10462963,0,0,0,,0,27,27,296,1,
,,,,,,,,,,,,,,,,,,5f4e0155cf03293db269f873,2020-11-26_17h10.10.057,lexical_decision_task_MP_exp2,2020.2.5,Win32,60,m,1,0.602,,,,,,,,0.602,1,,,,,,108,WORD,"ID",33,reckon,RECKON,m,,,,,,0.174074074,-0.10462963,0,0,0,,0,28,28,47,1,
,,,,,,,,,,,,,,,,,,5f4e0155cf03293db269f873,2020-11-26_17h10.10.057,lexical_decision_task_MP_exp2,2020.2.5,Win32,60,m,1,1.018115,,,,,,,,1.018115,1,,,,,,140,WORD,"ID",16,prince,PRINCE,m,,,,,,0.174074074,-0.10462963,0,0,0,,0,29,29,79,1,
,,,,,,,,,,,,,,,,,,5f4e0155cf03293db269f873,2020-11-26_17h10.10.057,lexical_decision_task_MP_exp2,2020.2.5,Win32,60,m,1,0.56756,,,,,,,,0.56756,1,,,,,,158,WORD,"ID",16,island,ISLAND,m,,,,,,0.174074074,-0.10462963,0,0,0,,0,30,30,97,1,
,,,,,,,,,,,,,,,,,,5f4e0155cf03293db269f873,2020-11-26_17h10.10.057,lexical_decision_task_MP_exp2,2020.2.5,Win32,60,m,0,0.65063,,,,,,,,0.65063,0,,,,,,250,NW,UN,16,lupict,MILTED,z,,,,,,0.174074074,-0.10462963,0,0,0,,0,31,31,429,1,
,,,,,,,,,,,,,,,,,,5f4e0155cf03293db269f873,2020-11-26_17h10.10.057,lexical_decision_task_MP_exp2,2020.2.5,Win32,60,m,0,0.928975,,,,,,,,0.928975,0,,,,,,425,NW,UN,33,urivel,FRUDGE,z,,,,,,0.174074074,-0.10462963,0,0,0,,0,32,32,364,1,
,,,,,,,,,,,,,,,,,,5f4e0155cf03293db269f873,2020-11-26_17h10.10.057,lexical_decision_task_MP_exp2,2020.2.5,Win32,60,z,1,0.9589,,,,,,,,0.9589,1,,,,,,396,NW,"ID",16,flengy,FLENGY,z,,,,,,0.174074074,-0.10462963,0,0,0,,0,33,33,335,1,
,,,,,,,,,,,,,,,,,,5f4e0155cf03293db269f873,2020-11-26_17h10.10.057,lexical_decision_task_MP_exp2,2020.2.5,Win32,60,z,1,0.618055,,,,,,,,0.618055,1,,,,,,456,NW,UN,33,wanigh,BROGET,z,,,,,,0.174074074,-0.10462963,0,0,0,,0,34,34,395,1,
,,,,,,,,,,,,,,,,,,5f4e0155cf03293db269f873,2020-11-26_17h10.10.057,lexical_decision_task_MP_exp2,2020.2.5,Win32,60,m,0,0.91941,,,,,,,,0.91941,0,,,,,,433,NW,UN,33,pitrom,DRANCE,z,,,,,,0.174074074,-0.10462963,0,0,0,,0,35,35,372,1,
,,,,,,,,,,,,,,,,,,5f4e0155cf03293db269f873,2020-11-26_17h10.10.057,lexical_decision_task_MP_exp2,2020.2.5,Win32,60,z,1,0.952195,,,,,,,,0.952195,1,,,,,,453,NW,UN,33,scouge,BOLVIS,z,,,,,,0.174074074,-0.10462963,0,0,0,,0,36,36,392,1,
,,,,,,,,,,,,,,,,,,5f4e0155cf03293db269f873,2020-11-26_17h10.10.057,lexical_decision_task_MP_exp2,2020.2.5,Win32,60,z,1,0.855895,,,,,,,,0.855895,1,,,,,,306,NW,"ID",33,sounge,SOUNGE,z,,,,,,0.174074074,-0.10462963,0,0,0,,0,37,37,245,1,
,,,,,,,,,,,,,,,,,,5f4e0155cf03293db269f873,2020-11-26_17h10.10.057,lexical_decision_task_MP_exp2,2020.2.5,Win32,60,m,1,0.63435,,,,,,,,0.63435,1,,,,,,134,WORD,"ID",16,staple,STAPLE,m,,,,,,0.174074074,-0.10462963,0,0,0,,0,38,38,73,1,
,,,,,,,,,,,,,,,,,,5f4e0155cf03293db269f873,2020-11-26_17h10.10.057,lexical_decision_task_MP_exp2,2020.2.5,Win32,60,z,1,0.634515,,,,,,,,0.634515,1,,,,,,276,NW,UN,16,petain,YARMON,z,,,,,,0.174074074,-0.10462963,0,0,0,,0,39,39,455,1,
,,,,,,,,,,,,,,,,,,5f4e0155cf03293db269f873,2020-11-26_17h10.10.057,lexical_decision_task_MP_exp2,2020.2.5,Win32,60,z,1,0.75253,,,,,,,,0.75253,1,,,,,,339,NW,"ID",33,fachow,FACHOW,z,,,,,,0.174074074,-0.10462963,0,0,0,,0,40,40,278,1,
,,,,,,,,,,,,,,,,,,5f4e0155cf03293db269f873,2020-11-26_17h10.10.057,lexical_decision_task_MP_exp2,2020.2.5,Win32,60,m,1,0.70204,,,,,,,,0.70204,1,,,,,,136,WORD,"ID",16,bleach,BLEACH,m,,,,,,0.174074074,-0.10462963,0,0,0,,0,41,41,75,1,
,,,,,,,,,,,,,,,,,,5f4e0155cf03293db269f873,2020-11-26_17h10.10.057,lexical_decision_task_MP_exp2,2020.2.5,Win32,60,z,1,0.751395,,,,,,,,0.751395,1,,,,,,436,NW,UN,33,snapel,FRUTAN,z,,,,,,0.174074074,-0.10462963,0,0,0,,0,42,42,375,1,
,,,,,,,,,,,,,,,,,,5f4e0155cf03293db269f873,2020-11-26_17h10.10.057,lexical_decision_task_MP_exp2,2020.2.5,Win32,60,m,1,0.49971,,,,,,,,0.49971,1,,,,,,115,WORD,"ID",33,guitar,GUITAR,m,,,,,,0.174074074,-0.10462963,0,0,0,,0,43,43,54,1,
,,,,,,,,,,,,,,,,,,5f4e0155cf03293db269f873,2020-11-26_17h10.10.057,lexical_decision_task_MP_exp2,2020.2.5,Win32,60,m,0,0.62878,,,,,,,,0.62878,0,,,,,,297,NW,UN,16,piergy,FERTIC,z,,,,,,0.174074074,-0.10462963,0,0,0,,0,44,44,476,1,
,,,,,,,,,,,,,,,,,,5f4e0155cf03293db269f873,2020-11-26_17h10.10.057,lexical_decision_task_MP_exp2,2020.2.5,Win32,60,z,1,0.84227,,,,,,,,0.84227,1,,,,,,370,NW,"ID",16,sleact,SLEACT,z,,,,,,0.174074074,-0.10462963,0,0,0,,0,45,45,309,1,
,,,,,,,,,,,,,,,,,,5f4e0155cf03293db269f873,2020-11-26_17h10.10.057,lexical_decision_task_MP_exp2,2020.2.5,Win32,60,m,1,0.575245,,,,,,,,0.575245,1,,,,,,72,WORD,"ID",33,bright,BRIGHT,m,,,,,,0.174074074,-0.10462963,0,0,0,,0,46,46,11,1,
,,,,,,,,,,,,,,,,,,5f4e0155cf03293db269f873,2020-11-26_17h10.10.057,lexical_decision_task_MP_exp2,2020.2.5,Win32,60,z,1,0.706565,,,,,,,,0.706565,1,,,,,,443,NW,UN,33,jaunce,DORSEX,z,,,,,,0.174074074,-0.10462963,0,0,0,,0,47,47,382,1,
,,,,,,,,,,,,,,,,,,5f4e0155cf03293db269f873,2020-11-26_17h10.10.057,lexical_decision_task_MP_exp2,2020.2.5,Win32,60,m,1,0.77477,,,,,,,,0.77477,1,,,,,,196,WORD,UN,33,stream,CREDIT,m,,,,,,0.174074074,-0.10462963,0,0,0,,0,48,48,135,1,
,,,,,,,,,,,,,,,,,,5f4e0155cf03293db269f873,2020-11-26_17h10.10.057,lexical_decision_task_MP_exp2,2020.2.5,Win32,60,m,1,1.01903,,,,,,,,1.01903,1,,,,,,106,WORD,"ID",33,ransom,RANSOM,m,,,,,,0.174074074,-0.10462963,0,0,0,,0,49,49,45,1,
,,,,,,,,,,,,,,,,,,5f4e0155cf03293db269f873,2020-11-26_17h10.10.057,lexical_decision_task_MP_exp2,2020.2.5,Win32,60,z,1,0.75259,,,,,,,,0.75259,1,,,,,,334,NW,"ID",33,watmeg,WATMEG,z,,,,,,0.174074074,-0.10462963,0,0,0,,0,50,50,273,1,
,,,,,,,,,,,,,,,,,,5f4e0155cf03293db269f873,2020-11-26_17h10.10.057,lexical_decision_task_MP_exp2,2020.2.5,Win32,60,z,1,1.0021,,,,,,,,1.0021,1,,,,,,457,NW,UN,33,barcet,WANIGH,z,,,,,,0.174074074,-0.10462963,0,0,0,,0,51,51,396,1,
,,,,,,,,,,,,,,,,,,5f4e0155cf03293db269f873,2020-11-26_17h10.10.057,lexical_decision_task_MP_exp2,2020.2.5,Win32,60,m,1,0.70093,,,,,,,,0.70093,1,,,,,,48,WORD,UN,16,survey,WALNUT,m,,,,,,0.174074074,-0.10462963,0,0,0,,0,52,52,227,1,
,,,,,,,,,,,,,,,,,,5f4e0155cf03293db269f873,2020-11-26_17h10.10.057,lexical_decision_task_MP_exp2,2020.2.5,Win32,60,z,1,0.78525,,,,,,,,0.78525,1,,,,,,355,NW,"ID",33,zingly,ZINGLY,z,,,,,,0.174074074,-0.10462963,0,0,0,,0,53,53,294,1,
,,,,,,,,,,,,,,,,,,5f4e0155cf03293db269f873,2020-11-26_17h10.10.057,lexical_decision_task_MP_exp2,2020.2.5,Win32,60,m,1,0.651325,,,,,,,,0.651325,1,,,,,,198,WORD,UN,33,invoke,WICKED,m,,,,,,0.174074074,-0.10462963,0,0,0,,0,54,54,137,1,
,,,,,,,,,,,,,,,,,,5f4e0155cf03293db269f873,2020-11-26_17h10.10.057,lexical_decision_task_MP_exp2,2020.2.5,Win32,60,m,1,0.71851,,,,,,,,0.71851,1,,,,,,232,WORD,UN,33,nature,INJECT,m,,,,,,0.174074074,-0.10462963,0,0,0,,0,55,55,171,1,
,,,,,,,,,,,,,,,,,,5f4e0155cf03293db269f873,2020-11-26_17h10.10.057,lexical_decision_task_MP_exp2,2020.2.5,Win32,60,z,1,0.90219,,,,,,,,0.90219,1,,,,,,313,NW,"ID",33,paurse,PAURSE,z,,,,,,0.174074074,-0.10462963,0,0,0,,0,56,56,252,1,
,,,,,,,,,,,,,,,,,,5f4e0155cf03293db269f873,2020-11-26_17h10.10.057,lexical_decision_task_MP_exp2,2020.2.5,Win32,60,z,1,0.9841,,,,,,,,0.9841,1,,,,,,352,NW,"ID",33,tringe,TRINGE,z,,,,,,0.174074074,-0.10462963,0,0,0,,0,57,57,291,1,
,,,,,,,,,,,,,,,,,,5f4e0155cf03293db269f873,2020-11-26_17h10.10.057,lexical_decision_task_MP_exp2,2020.2.5,Win32,60,m,1,0.61777,,,,,,,,0.61777,1,,,,,,95,WORD,"ID",33,thread,THREAD,m,,,,,,0.174074074,-0.10462963,0,0,0,,0,58,58,34,1,
,,,,,,,,,,,,,,,,,,5f4e0155cf03293db269f873,2020-11-26_17h10.10.057,lexical_decision_task_MP_exp2,2020.2.5,Win32,60,m,1,0.618175,,,,,,,,0.618175,1,,,,,,3,WORD,UN,16,trench,KNIGHT,m,,,,,,0.174074074,-0.10462963,0,0,0,,0,59,59,182,1,
,,,,,,,,,,,,,,,,,,5f4e0155cf03293db269f873,2020-11-26_17h10.10.057,lexical_decision_task_MP_exp2,2020.2.5,Win32,60,z,0,0.784975,,,,,,,,0.784975,0,,,,,,111,WORD,"ID",33,induce,INDUCE,m,,,,,,0.174074074,-0.10462963,0,0,0,,0,60,60,50,1,
,,,,,,,,,,,,,,,,,,5f4e0155cf03293db269f873,2020-11-26_17h10.10.057,lexical_decision_task_MP_exp2,2020.2.5,Win32,60,m,1,0.902015,,,,,,,,0.902015,1,,,,,,77,WORD,"ID",33,racket,RACKET,m,,,,,,0.174074074,-0.10462963,0,0,0,,0,61,61,16,1,
,,,,,,,,,,,,,,,,,,5f4e0155cf03293db269f873,2020-11-26_17h10.10.057,lexical_decision_task_MP_exp2,2020.2.5,Win32,60,z,1,0.68494,,,,,,,,0.68494,1,,,,,,446,NW,UN,33,gircue,RUNAMO,z,,,,,,0.174074074,-0.10462963,0,0,0,,0,62,62,385,1,
,,,,,,,,,,,,,,,,,,5f4e0155cf03293db269f873,2020-11-26_17h10.10.057,lexical_decision_task_MP_exp2,2020.2.5,Win32,60,z,1,1.10177,,,,,,,,1.10177,1,,,,,,365,NW,"ID",16,guairt,GUAIRT,z,,,,,,0.174074074,-0.10462963,0,0,0,,0,63,63,304,1,
,,,,,,,,,,,,,,,,,,5f4e0155cf03293db269f873,2020-11-26_17h10.10.057,lexical_decision_task_MP_exp2,2020.2.5,Win32,60,z,1,0.685235,,,,,,,,0.685235,1,,,,,,385,NW,"ID",16,veigma,VEIGMA,z,,,,,,0.174074074,-0.10462963,0,0,0,,0,64,64,324,1,
,,,,,,,,,,,,,,,,,,5f4e0155cf03293db269f873,2020-11-26_17h10.10.057,lexical_decision_task_MP_exp2,2020.2.5,Win32,60,m,1,0.65097,,,,,,,,0.65097,1,,,,,,221,WORD,UN,33,hinder,MASCOT,m,,,,,,0.174074074,-0.10462963,0,0,0,,0,65,65,160,1,
,,,,,,,,,,,,,,,,,,5f4e0155cf03293db269f873,2020-11-26_17h10.10.057,lexical_decision_task_MP_exp2,2020.2.5,Win32,60,z,1,0.80049,,,,,,,,0.80049,1,,,,,,258,NW,UN,16,soudal,POLUTH,z,,,,,,0.174074074,-0.10462963,0,0,0,,0,66,66,437,1,
,,,,,,,,,,,,,,,,,,5f4e0155cf03293db269f873,2020-11-26_17h10.10.057,lexical_decision_task_MP_exp2,2020.2.5,Win32,60,z,1,0.718985,,,,,,,,0.718985,1,,,,,,321,NW,"ID",33,miator,MIATOR,z,,,,,,0.174074074,-0.10462963,0,0,0,,0,67,67,260,1,
,,,,,,,,,,,,,,,,,,5f4e0155cf03293db269f873,2020-11-26_17h10.10.057,lexical_decision_task_MP_exp2,2020.2.5,Win32,60,m,1,0.90292,,,,,,,,0.90292,1,,,,,,231,WORD,UN,33,inject,EXPORT,m,,,,,,0.174074074,-0.10462963,0,0,0,,0,68,68,170,1,
,,,,,,,,,,,,,,,,,,5f4e0155cf03293db269f873,2020-11-26_17h10.10.057,lexical_decision_task_MP_exp2,2020.2.5,Win32,60,z,1,0.85255,,,,,,,,0.85255,1,,,,,,271,NW,UN,16,damilt,AUBRID,z,,,,,,0.174074074,-0.10462963,0,0,0,,0,69,69,450,1,
,,,,,,,,,,,,,,,,,,5f4e0155cf03293db269f873,2020-11-26_17h10.10.057,lexical_decision_task_MP_exp2,2020.2.5,Win32,60,m,1,0.66765,,,,,,,,0.66765,1,,,,,,174,WORD,"ID",16,turkey,TURKEY,m,,,,,,0.174074074,-0.10462963,0,0,0,,0,70,70,113,1,
,,,,,,,,,,,,,,,,,,5f4e0155cf03293db269f873,2020-11-26_17h10.10.057,lexical_decision_task_MP_exp2,2020.2.5,Win32,60,z,1,0.71788,,,,,,,,0.71788,1,,,,,,404,NW,"ID",16,cluirm,CLUIRM,z,,,,,,0.174074074,-0.10462963,0,0,0,,0,71,71,343,1,
,,,,,,,,,,,,,,,,,,5f4e0155cf03293db269f873,2020-11-26_17h10.10.057,lexical_decision_task_MP_exp2,2020.2.5,Win32,60,z,1,1.068935,,,,,,,,1.068935,1,,,,,,389,NW,"ID",16,witmer,WITMER,z,,,,,,0.174074074,-0.10462963,0,0,0,,0,72,72,328,1,
,,,,,,,,,,,,,,,,,,5f4e0155cf03293db269f873,2020-11-26_17h10.10.057,lexical_decision_task_MP_exp2,2020.2.5,Win32,60,m,1,0.61808,,,,,,,,0.61808,1,,,,,,28,WORD,UN,16,sketch,COMEDY,m,,,,,,0.174074074,-0.10462963,0,0,0,,0,73,73,207,1,
,,,,,,,,,,,,,,,,,,5f4e0155cf03293db269f873,2020-11-26_17h10.10.057,lexical_decision_task_MP_exp2,2020.2.5,Win32,60,z,1,1.28446,,,,,,,,1.28446,1,,,,,,407,NW,"ID",16,suiver,SUIVER,z,,,,,,0.174074074,-0.10462963,0,0,0,,0,74,74,346,1,
,,,,,,,,,,,,,,,,,,5f4e0155cf03293db269f873,2020-11-26_17h10.10.057,lexical_decision_task_MP_exp2,2020.2.5,Win32,60,z,1,1.50292,,,,,,,,1.50292,1,,,,,,314,NW,"ID",33,sprine,SPRINE,z,,,,,,0.174074074,-0.10462963,0,0,0,,0,75,75,253,1,
,,,,,,,,,,,,,,,,,,5f4e0155cf03293db269f873,2020-11-26_17h10.10.057,lexical_decision_task_MP_exp2,2020.2.5,Win32,60,m,1,0.6528,,,,,,,,0.6528,1,,,,,,167,WORD,"ID",16,design,DESIGN,m,,,,,,0.174074074,-0.10462963,0,0,0,,0,76,76,106,1,
,,,,,,,,,,,,,,,,,,5f4e0155cf03293db269f873,2020-11-26_17h10.10.057,lexical_decision_task_MP_exp2,2020.2.5,Win32,60,z,1,0.812815,,,,,,,,0.812815,1,,,,,,364,NW,"ID",16,impote,IMPOTE,z,,,,,,0.174074074,-0.10462963,0,0,0,,0,77,77,303,1,
,,,,,,,,,,,,,,,,,,5f4e0155cf03293db269f873,2020-11-26_17h10.10.057,lexical_decision_task_MP_exp2,2020.2.5,Win32,60,z,1,0.74009,,,,,,,,0.74009,1,,,,,,438,NW,UN,33,limpor,BAITCH,z,,,,,,0.174074074,-0.10462963,0,0,0,,0,78,78,377,1,
,,,,,,,,,,,,,,,,,,5f4e0155cf03293db269f873,2020-11-26_17h10.10.057,lexical_decision_task_MP_exp2,2020.2.5,Win32,60,m,1,0.656145,,,,,,,,0.656145,1,,,,,,125,WORD,"ID",16,nickel,NICKEL,m,,,,,,0.174074074,-0.10462963,0,0,0,,0,79,79,64,1,
,,,,,,,,,,,,,,,,,,5f4e0155cf03293db269f873,2020-11-26_17h10.10.057,lexical_decision_task_MP_exp2,2020.2.5,Win32,60,z,1,0.75404,,,,,,,,0.75404,1,,,,,,275,NW,UN,16,yarmon,SLEIRT,z,,,,,,0.174074074,-0.10462963,0,0,0,,0,80,80,454,1,
,,,,,,,,,,,,,,,,,,5f4e0155cf03293db269f873,2020-11-26_17h10.10.057,lexical_decision_task_MP_exp2,2020.2.5,Win32,60,z,1,1.039775,,,,,,,,1.039775,1,,,,,,479,NW,UN,33,crible,LOBUSH,z,,,,,,0.174074074,-0.10462963,0,0,0,,0,81,81,418,1,
,,,,,,,,,,,,,,,,,,5f4e0155cf03293db269f873,2020-11-26_17h10.10.057,lexical_decision_task_MP_exp2,2020.2.5,Win32,60,m,1,1.001285,,,,,,,,1.001285,1,,,,,,184,WORD,UN,33,bother,SLEAZY,m,,,,,,0.174074074,-0.10462963,0,0,0,,0,82,82,123,1,
,,,,,,,,,,,,,,,,,,5f4e0155cf03293db269f873,2020-11-26_17h10.10.057,lexical_decision_task_MP_exp2,2020.2.5,Win32,60,z,1,0.77175,,,,,,,,0.77175,1,,,,,,324,NW,"ID",33,steikh,STEIKH,z,,,,,,0.174074074,-0.10462963,0,0,0,,0,83,83,263,1,
,,,,,,,,,,,,,,,,,,5f4e0155cf03293db269f873,2020-11-26_17h10.10.057,lexical_decision_task_MP_exp2,2020.2.5,Win32,60,m,1,0.7183,,,,,,,,0.7183,1,,,,,,90,WORD,"ID",33,relish,RELISH,m,,,,,,0.174074074,-0.10462963,0,0,0,,0,84,84,29,1,
,,,,,,,,,,,,,,,,,,5f4e0155cf03293db269f873,2020-11-26_17h10.10.057,lexical_decision_task_MP_exp2,2020.2.5,Win32,60,m,1,1.185315,,,,,,,,1.185315,1,,,,,,143,WORD,"ID",16,reason,REASON,m,,,,,,0.174074074,-0.10462963,0,0,0,,0,85,85,82,1,
,,,,,,,,,,,,,,,,,,5f4e0155cf03293db269f873,2020-11-26_17h10.10.057,lexical_decision_task_MP_exp2,2020.2.5,Win32,60,m,1,0.68531,,,,,,,,0.68531,1,,,,,,220,WORD,UN,33,mascot,VOYAGE,m,,,,,,0.174074074,-0.10462963,0,0,0,,0,86,86,159,1,
,,,,,,,,,,,,,,,,,,5f4e0155cf03293db269f873,2020-11-26_17h10.10.057,lexical_decision_task_MP_exp2,2020.2.5,Win32,60,m,1,0.66758,,,,,,,,0.66758,1,,,,,,166,WORD,"ID",16,starch,STARCH,m,,,,,,0.174074074,-0.10462963,0,0,0,,0,87,87,105,1,
,,,,,,,,,,,,,,,,,,5f4e0155cf03293db269f873,2020-11-26_17h10.10.057,lexical_decision_task_MP_exp2,2020.2.5,Win32,60,z,1,0.857155,,,,,,,,0.857155,1,,,,,,256,NW,UN,16,veniod,INLORS,z,,,,,,0.174074074,-0.10462963,0,0,0,,0,88,88,435,1,
,,,,,,,,,,,,,,,,,,5f4e0155cf03293db269f873,2020-11-26_17h10.10.057,lexical_decision_task_MP_exp2,2020.2.5,Win32,60,m,1,0.74159,,,,,,,,0.74159,1,,,,,,135,WORD,"ID",16,import,IMPORT,m,,,,,,0.174074074,-0.10462963,0,0,0,,0,89,89,74,1,
,,,,,,,,,,,,,,,,,,5f4e0155cf03293db269f873,2020-11-26_17h10.10.057,lexical_decision_task_MP_exp2,2020.2.5,Win32,60,z,1,0.652535,,,,,,,,0.652535,1,,,,,,464,NW,UN,33,whivex,CHAITE,z,,,,,,0.174074074,-0.10462963,0,0,0,,0,90,90,403,1,
,,,,,,,,,,,,,,,,,,5f4e0155cf03293db269f873,2020-11-26_17h10.10.057,lexical_decision_task_MP_exp2,2020.2.5,Win32,60,m,1,0.604985,,,,,,,,0.604985,1,,,,,,202,WORD,UN,33,phrase,FACTOR,m,,,,,,0.174074074,-0.10462963,0,0,0,,0,91,91,141,1,
,,,,,,,,,,,,,,,,,,5f4e0155cf03293db269f873,2020-11-26_17h10.10.057,lexical_decision_task_MP_exp2,2020.2.5,Win32,60,m,1,0.75176,,,,,,,,0.75176,1,,,,,,209,WORD,UN,33,monkey,SEARCH,m,,,,,,0.174074074,-0.10462963,0,0,0,,0,92,92,148,1,
,,,,,,,,,,,,,,,,,,5f4e0155cf03293db269f873,2020-11-26_17h10.10.057,lexical_decision_task_MP_exp2,2020.2.5,Win32,60,z,1,0.87085,,,,,,,,0.87085,1,,,,,,455,NW,UN,33,broget,TONDLE,z,,,,,,0.174074074,-0.10462963,0,0,0,,0,93,93,394,1,
,,,,,,,,,,,,,,,,,,5f4e0155cf03293db269f873,2020-11-26_17h10.10.057,lexical_decision_task_MP_exp2,2020.2.5,Win32,60,m,0,0.771255,,,,,,,,0.771255,0,,,,,,266,NW,UN,16,pasink,VARMIT,z,,,,,,0.174074074,-0.10462963,0,0,0,,0,94,94,445,1,
,,,,,,,,,,,,,,,,,,5f4e0155cf03293db269f873,2020-11-26_17h10.10.057,lexical_decision_task_MP_exp2,2020.2.5,Win32,60,m,0,0.6402,,,,,,,,0.6402,0,,,,,,304,NW,"ID",33,cludie,CLUDIE,z,,,,,,0.174074074,-0.10462963,0,0,0,,0,95,95,243,1,
,,,,,,,,,,,,,,,,,,5f4e0155cf03293db269f873,2020-11-26_17h10.10.057,lexical_decision_task_MP_exp2,2020.2.5,Win32,60,z,1,0.91815,,,,,,,,0.91815,1,,,,,,394,NW,"ID",16,spaqux,SPAQUX,z,,,,,,0.174074074,-0.10462963,0,0,0,,0,96,96,333,1,
,,,,,,,,,,,,,,,,,,5f4e0155cf03293db269f873,2020-11-26_17h10.10.057,lexical_decision_task_MP_exp2,2020.2.5,Win32,60,m,0,0.801595,,,,,,,,0.801595,0,,,,,,303,NW,"ID",33,fiream,FIREAM,z,,,,,,0.174074074,-0.10462963,0,0,0,,0,97,97,242,1,
,,,,,,,,,,,,,,,,,,5f4e0155cf03293db269f873,2020-11-26_17h10.10.057,lexical_decision_task_MP_exp2,2020.2.5,Win32,60,m,1,0.65087,,,,,,,,0.65087,1,,,,,,15,WORD,UN,16,faucet,AMOUNT,m,,,,,,0.174074074,-0.10462963,0,0,0,,0,98,98,194,1,
,,,,,,,,,,,,,,,,,,5f4e0155cf03293db269f873,2020-11-26_17h10.10.057,lexical_decision_task_MP_exp2,2020.2.5,Win32,60,z,1,0.885475,,,,,,,,0.885475,1,,,,,,426,NW,UN,33,schind,URIVEL,z,,,,,,0.174074074,-0.10462963,0,0,0,,0,99,99,365,1,
,,,,,,,,,,,,,,,,,,5f4e0155cf03293db269f873,2020-11-26_17h10.10.057,lexical_decision_task_MP_exp2,2020.2.5,Win32,60,z,1,1.102435,,,,,,,,1.102435,1,,,,,,265,NW,UN,16,varmit,DISTAR,z,,,,,,0.174074074,-0.10462963,0,0,0,,0,100,100,444,1,
,,,,,,,,,,,,,,,,,,5f4e0155cf03293db269f873,2020-11-26_17h10.10.057,lexical_decision_task_MP_exp2,2020.2.5,Win32,60,m,1,1.136685,,,,,,,,1.136685,1,,,,,,142,WORD,"ID",16,spruce,SPRUCE,m,,,,,,0.174074074,-0.10462963,0,0,0,,0,101,101,81,1,
,,,,,,,,,,,,,,,,,,5f4e0155cf03293db269f873,2020-11-26_17h10.10.057,lexical_decision_task_MP_exp2,2020.2.5,Win32,60,z,1,1.401415,,,,,,,,1.401415,1,,,,,,333,NW,"ID",33,catrie,CATRIE,z,,,,,,0.174074074,-0.10462963,0,0,0,,0,102,102,272,1,
,,,,,,,,,,,,,,,,,,5f4e0155cf03293db269f873,2020-11-26_17h10.10.057,lexical_decision_task_MP_exp2,2020.2.5,Win32,60,z,1,0.858085,,,,,,,,0.858085,1,,,,,,298,NW,UN,16,sturch,PIERGY,z,,,,,,0.174074074,-0.10462963,0,0,0,,0,103,103,477,1,
,,,,,,,,,,,,,,,,,,5f4e0155cf03293db269f873,2020-11-26_17h10.10.057,lexical_decision_task_MP_exp2,2020.2.5,Win32,60,z,1,0.935095,,,,,,,,0.935095,1,,,,,,282,NW,UN,16,veralf,PORLEX,z,,,,,,0.174074074,-0.10462963,0,0,0,,0,104,104,461,1,
,,,,,,,,,,,,,,,,,,5f4e0155cf03293db269f873,2020-11-26_17h10.10.057,lexical_decision_task_MP_exp2,2020.2.5,Win32,60,z,1,0.985715,,,,,,,,0.985715,1,,,,,,283,NW,UN,16,shaple,VERALF,z,,,,,,0.174074074,-0.10462963,0,0,0,,0,105,105,462,1,
,,,,,,,,,,,,,,,,,,5f4e0155cf03293db269f873,2020-11-26_17h10.10.057,lexical_decision_task_MP_exp2,2020.2.5,Win32,60,m,1,0.968,,,,,,,,0.968,1,,,,,,199,WORD,UN,33,plague,INVOKE,m,,,,,,0.174074074,-0.10462963,0,0,0,,0,106,106,138,1,
,,,,,,,,,,,,,,,,,,5f4e0155cf03293db269f873,2020-11-26_17h10.10.057,lexical_decision_task_MP_exp2,2020.2.5,Win32,60,m,1,0.76903,,,,,,,,0.76903,1,,,,,,121,WORD,"ID",16,thrive,THRIVE,m,,,,,,0.174074074,-0.10462963,0,0,0,,0,107,107,60,1,
,,,,,,,,,,,,,,,,,,5f4e0155cf03293db269f873,2020-11-26_17h10.10.057,lexical_decision_task_MP_exp2,2020.2.5,Win32,60,z,1,1.001475,,,,,,,,1.001475,1,,,,,,410,NW,"ID",16,tunory,TUNORY,z,,,,,,0.174074074,-0.10462963,0,0,0,,0,108,108,349,1,
,,,,,,,,,,,,,,,,,,5f4e0155cf03293db269f873,2020-11-26_17h10.10.057,lexical_decision_task_MP_exp2,2020.2.5,Win32,60,m,1,0.647355,,,,,,,,0.647355,1,,,,,,21,WORD,UN,16,jockey,SIMPLE,m,,,,,,0.174074074,-0.10462963,0,0,0,,0,109,109,200,1,
,,,,,,,,,,,,,,,,,,5f4e0155cf03293db269f873,2020-11-26_17h10.10.057,lexical_decision_task_MP_exp2,2020.2.5,Win32,60,z,1,0.70546,,,,,,,,0.70546,1,,,,,,326,NW,"ID",33,iguade,IGUADE,z,,,,,,0.174074074,-0.10462963,0,0,0,,0,110,110,265,1,
,,,,,,,,,,,,,,,,,,5f4e0155cf03293db269f873,2020-11-26_17h10.10.057,lexical_decision_task_MP_exp2,2020.2.5,Win32,60,m,1,0.65459,,,,,,,,0.65459,1,,,,,,51,WORD,UN,16,impose,HUNGRY,m,,,,,,0.174074074,-0.10462963,0,0,0,,0,111,111,230,1,
,,,,,,,,,,,,,,,,,,5f4e0155cf03293db269f873,2020-11-26_17h10.10.057,lexical_decision_task_MP_exp2,2020.2.5,Win32,60,z,1,1.010335,,,,,,,,1.010335,1,,,,,,268,NW,UN,16,orchet,PACKES,z,,,,,,0.174074074,-0.10462963,0,0,0,,0,112,112,447,1,
,,,,,,,,,,,,,,,,,,5f4e0155cf03293db269f873,2020-11-26_17h10.10.057,lexical_decision_task_MP_exp2,2020.2.5,Win32,60,m,1,0.92258,,,,,,,,0.92258,1,,,,,,120,WORD,"ID",33,strain,STRAIN,m,,,,,,0.174074074,-0.10462963,0,0,0,,0,113,113,59,1,
,,,,,,,,,,,,,,,,,,5f4e0155cf03293db269f873,2020-11-26_17h10.10.057,lexical_decision_task_MP_exp2,2020.2.5,Win32,60,m,1,0.676195,,,,,,,,0.676195,1,,,,,,66,WORD,"ID",33,gospel,GOSPEL,m,,,,,,0.174074074,-0.10462963,0,0,0,,0,114,114,5,1,
,,,,,,,,,,,,,,,,,,5f4e0155cf03293db269f873,2020-11-26_17h10.10.057,lexical_decision_task_MP_exp2,2020.2.5,Win32,60,m,1,1.01858,,,,,,,,1.01858,1,,,,,,127,WORD,"ID",16,castle,CASTLE,m,,,,,,0.174074074,-0.10462963,0,0,0,,0,115,115,66,1,
,,,,,,,,,,,,,,,,,,5f4e0155cf03293db269f873,2020-11-26_17h10.10.057,lexical_decision_task_MP_exp2,2020.2.5,Win32,60,m,1,0.618255,,,,,,,,0.618255,1,,,,,,98,WORD,"ID",33,belong,BELONG,m,,,,,,0.174074074,-0.10462963,0,0,0,,0,116,116,37,1,
,,,,,,,,,,,,,,,,,,5f4e0155cf03293db269f873,2020-11-26_17h10.10.057,lexical_decision_task_MP_exp2,2020.2.5,Win32,60,z,1,0.82341,,,,,,,,0.82341,1,,,,,,403,NW,"ID",16,bruats,BRUATS,z,,,,,,0.174074074,-0.10462963,0,0,0,,0,117,117,342,1,
,,,,,,,,,,,,,,,,,,5f4e0155cf03293db269f873,2020-11-26_17h10.10.057,lexical_decision_task_MP_exp2,2020.2.5,Win32,60,z,1,0.934645,,,,,,,,0.934645,1,,,,,,381,NW,"ID",16,huniek,HUNIEK,z,,,,,,0.174074074,-0.10462963,0,0,0,,0,118,118,320,1,
,,,,,,,,,,,,,,,,,,5f4e0155cf03293db269f873,2020-11-26_17h10.10.057,lexical_decision_task_MP_exp2,2020.2.5,Win32,60,m,1,0.81801,,,,,,,,0.81801,1,,,,,,235,WORD,UN,33,pirate,GRUMPY,m,,,,,,0.174074074,-0.10462963,0,0,0,,0,119,119,174,1,
,,,,,,,,,,,,,,,,,,5f4e0155cf03293db269f873,2020-11-26_17h10.10.057,lexical_decision_task_MP_exp2,2020.2.5,Win32,60,z,1,0.78615,,,,,,,,0.78615,1,,,,,,340,NW,"ID",33,fiatch,FIATCH,z,,,,,,0.174074074,-0.10462963,0,0,0,space,0,120,120,279,1,3.72089
,,,,,,,,,,,,,,,,,,5f4e0155cf03293db269f873,2020-11-26_17h10.10.057,lexical_decision_task_MP_exp2,2020.2.5,Win32,60,m,1,0.701735,,,,,,,,0.701735,1,,,,,,20,WORD,UN,16,simple,BREAST,m,,,,,,0.174074074,-0.10462963,0,0,0,,0,121,121,199,1,
,,,,,,,,,,,,,,,,,,5f4e0155cf03293db269f873,2020-11-26_17h10.10.057,lexical_decision_task_MP_exp2,2020.2.5,Win32,60,z,1,0.718225,,,,,,,,0.718225,1,,,,,,245,NW,UN,16,piaton,ANOUGS,z,,,,,,0.174074074,-0.10462963,0,0,0,,0,122,122,424,1,
,,,,,,,,,,,,,,,,,,5f4e0155cf03293db269f873,2020-11-26_17h10.10.057,lexical_decision_task_MP_exp2,2020.2.5,Win32,60,m,1,0.667695,,,,,,,,0.667695,1,,,,,,181,WORD,UN,33,winter,GLANCE,m,,,,,,0.174074074,-0.10462963,0,0,0,,0,123,123,120,1,
,,,,,,,,,,,,,,,,,,5f4e0155cf03293db269f873,2020-11-26_17h10.10.057,lexical_decision_task_MP_exp2,2020.2.5,Win32,60,m,1,0.75175,,,,,,,,0.75175,1,,,,,,131,WORD,"ID",16,quench,QUENCH,m,,,,,,0.174074074,-0.10462963,0,0,0,,0,124,124,70,1,
,,,,,,,,,,,,,,,,,,5f4e0155cf03293db269f873,2020-11-26_17h10.10.057,lexical_decision_task_MP_exp2,2020.2.5,Win32,60,z,1,0.76822,,,,,,,,0.76822,1,,,,,,328,NW,"ID",33,broake,BROAKE,z,,,,,,0.174074074,-0.10462963,0,0,0,,0,125,125,267,1,
,,,,,,,,,,,,,,,,,,5f4e0155cf03293db269f873,2020-11-26_17h10.10.057,lexical_decision_task_MP_exp2,2020.2.5,Win32,60,m,1,0.785605,,,,,,,,0.785605,1,,,,,,164,WORD,"ID",16,market,MARKET,m,,,,,,0.174074074,-0.10462963,0,0,0,,0,126,126,103,1,
,,,,,,,,,,,,,,,,,,5f4e0155cf03293db269f873,2020-11-26_17h10.10.057,lexical_decision_task_MP_exp2,2020.2.5,Win32,60,m,1,0.634285,,,,,,,,0.634285,1,,,,,,78,WORD,"ID",33,column,COLUMN,m,,,,,,0.174074074,-0.10462963,0,0,0,,0,127,127,17,1,
,,,,,,,,,,,,,,,,,,5f4e0155cf03293db269f873,2020-11-26_17h10.10.057,lexical_decision_task_MP_exp2,2020.2.5,Win32,60,m,1,1.03435,,,,,,,,1.03435,1,,,,,,189,WORD,UN,33,backup,CENSOR,m,,,,,,0.174074074,-0.10462963,0,0,0,,0,128,128,128,1,
,,,,,,,,,,,,,,,,,,5f4e0155cf03293db269f873,2020-11-26_17h10.10.057,lexical_decision_task_MP_exp2,2020.2.5,Win32,60,m,1,0.735225,,,,,,,,0.735225,1,,,,,,56,WORD,UN,16,change,AMBUSH,m,,,,,,0.174074074,-0.10462963,0,0,0,,0,129,129,235,1,
,,,,,,,,,,,,,,,,,,5f4e0155cf03293db269f873,2020-11-26_17h10.10.057,lexical_decision_task_MP_exp2,2020.2.5,Win32,60,m,0,0.98559,,,,,,,,0.98559,0,,,,,,408,NW,"ID",16,hurnia,HURNIA,z,,,,,,0.174074074,-0.10462963,0,0,0,,0,130,130,347,1,
,,,,,,,,,,,,,,,,,,5f4e0155cf03293db269f873,2020-11-26_17h10.10.057,lexical_decision_task_MP_exp2,2020.2.5,Win32,60,m,0,1.237035,,,,,,,,1.237035,0,,,,,,413,NW,"ID",16,equats,EQUATS,z,,,,,,0.174074074,-0.10462963,0,0,0,,0,131,131,352,1,
,,,,,,,,,,,,,,,,,,5f4e0155cf03293db269f873,2020-11-26_17h10.10.057,lexical_decision_task_MP_exp2,2020.2.5,Win32,60,z,1,0.81913,,,,,,,,0.81913,1,,,,,,316,NW,"ID",33,scregm,SCREGM,z,,,,,,0.174074074,-0.10462963,0,0,0,,0,132,132,255,1,
,,,,,,,,,,,,,,,,,,5f4e0155cf03293db269f873,2020-11-26_17h10.10.057,lexical_decision_task_MP_exp2,2020.2.5,Win32,60,m,1,1.001755,,,,,,,,1.001755,1,,,,,,73,WORD,"ID",33,source,SOURCE,m,,,,,,0.174074074,-0.10462963,0,0,0,,0,133,133,12,1,
,,,,,,,,,,,,,,,,,,5f4e0155cf03293db269f873,2020-11-26_17h10.10.057,lexical_decision_task_MP_exp2,2020.2.5,Win32,60,m,1,0.98488,,,,,,,,0.98488,1,,,,,,185,WORD,UN,33,portal,BOTHER,m,,,,,,0.174074074,-0.10462963,0,0,0,,0,134,134,124,1,
,,,,,,,,,,,,,,,,,,5f4e0155cf03293db269f873,2020-11-26_17h10.10.057,lexical_decision_task_MP_exp2,2020.2.5,Win32,60,z,1,0.935555,,,,,,,,0.935555,1,,,,,,274,NW,UN,16,sleirt,FUMBLO,z,,,,,,0.174074074,-0.10462963,0,0,0,,0,135,135,453,1,
,,,,,,,,,,,,,,,,,,5f4e0155cf03293db269f873,2020-11-26_17h10.10.057,lexical_decision_task_MP_exp2,2020.2.5,Win32,60,z,1,1.201315,,,,,,,,1.201315,1,,,,,,338,NW,"ID",33,wreash,WREASH,z,,,,,,0.174074074,-0.10462963,0,0,0,,0,136,136,277,1,
,,,,,,,,,,,,,,,,,,5f4e0155cf03293db269f873,2020-11-26_17h10.10.057,lexical_decision_task_MP_exp2,2020.2.5,Win32,60,m,1,0.801595,,,,,,,,0.801595,1,,,,,,110,WORD,"ID",33,polite,POLITE,m,,,,,,0.174074074,-0.10462963,0,0,0,,0,137,137,49,1,
,,,,,,,,,,,,,,,,,,5f4e0155cf03293db269f873,2020-11-26_17h10.10.057,lexical_decision_task_MP_exp2,2020.2.5,Win32,60,z,1,0.818235,,,,,,,,0.818235,1,,,,,,368,NW,"ID",16,hornal,HORNAL,z,,,,,,0.174074074,-0.10462963,0,0,0,,0,138,138,307,1,
,,,,,,,,,,,,,,,,,,5f4e0155cf03293db269f873,2020-11-26_17h10.10.057,lexical_decision_task_MP_exp2,2020.2.5,Win32,60,z,1,0.700785,,,,,,,,0.700785,1,,,,,,288,NW,UN,16,starby,YACEUP,z,,,,,,0.174074074,-0.10462963,0,0,0,,0,139,139,467,1,
,,,,,,,,,,,,,,,,,,5f4e0155cf03293db269f873,2020-11-26_17h10.10.057,lexical_decision_task_MP_exp2,2020.2.5,Win32,60,z,1,1.018395,,,,,,,,1.018395,1,,,,,,458,NW,UN,33,hocite,BARCET,z,,,,,,0.174074074,-0.10462963,0,0,0,,0,140,140,397,1,
,,,,,,,,,,,,,,,,,,5f4e0155cf03293db269f873,2020-11-26_17h10.10.057,lexical_decision_task_MP_exp2,2020.2.5,Win32,60,m,1,0.63519,,,,,,,,0.63519,1,,,,,,104,WORD,"ID",33,studio,STUDIO,m,,,,,,0.174074074,-0.10462963,0,0,0,,0,141,141,43,1,
,,,,,,,,,,,,,,,,,,5f4e0155cf03293db269f873,2020-11-26_17h10.10.057,lexical_decision_task_MP_exp2,2020.2.5,Win32,60,m,1,0.90189,,,,,,,,0.90189,1,,,,,,19,WORD,UN,16,breast,PATRON,m,,,,,,0.174074074,-0.10462963,0,0,0,,0,142,142,198,1,
,,,,,,,,,,,,,,,,,,5f4e0155cf03293db269f873,2020-11-26_17h10.10.057,lexical_decision_task_MP_exp2,2020.2.5,Win32,60,z,1,0.851315,,,,,,,,0.851315,1,,,,,,470,NW,UN,33,nobest,CRUDIO,z,,,,,,0.174074074,-0.10462963,0,0,0,,0,143,143,409,1,
,,,,,,,,,,,,,,,,,,5f4e0155cf03293db269f873,2020-11-26_17h10.10.057,lexical_decision_task_MP_exp2,2020.2.5,Win32,60,z,1,1.27107,,,,,,,,1.27107,1,,,,,,427,NW,UN,33,tandly,SCHIND,z,,,,,,0.174074074,-0.10462963,0,0,0,,0,144,144,366,1,
,,,,,,,,,,,,,,,,,,5f4e0155cf03293db269f873,2020-11-26_17h10.10.057,lexical_decision_task_MP_exp2,2020.2.5,Win32,60,m,1,0.6517,,,,,,,,0.6517,1,,,,,,65,WORD,"ID",33,symbol,SYMBOL,m,,,,,,0.174074074,-0.10462963,0,0,0,,0,145,145,4,1,
,,,,,,,,,,,,,,,,,,5f4e0155cf03293db269f873,2020-11-26_17h10.10.057,lexical_decision_task_MP_exp2,2020.2.5,Win32,60,z,1,0.870695,,,,,,,,0.870695,1,,,,,,356,NW,"ID",33,othnis,OTHNIS,z,,,,,,0.174074074,-0.10462963,0,0,0,,0,146,146,295,1,
,,,,,,,,,,,,,,,,,,5f4e0155cf03293db269f873,2020-11-26_17h10.10.057,lexical_decision_task_MP_exp2,2020.2.5,Win32,60,z,1,0.988065,,,,,,,,0.988065,1,,,,,,414,NW,"ID",16,serbol,SERBOL,z,,,,,,0.174074074,-0.10462963,0,0,0,,0,147,147,353,1,
,,,,,,,,,,,,,,,,,,5f4e0155cf03293db269f873,2020-11-26_17h10.10.057,lexical_decision_task_MP_exp2,2020.2.5,Win32,60,z,1,1.035235,,,,,,,,1.035235,1,,,,,,310,NW,"ID",33,daniet,DANIET,z,,,,,,0.174074074,-0.10462963,0,0,0,,0,148,148,249,1,
,,,,,,,,,,,,,,,,,,5f4e0155cf03293db269f873,2020-11-26_17h10.10.057,lexical_decision_task_MP_exp2,2020.2.5,Win32,60,m,0,0.701415,,,,,,,,0.701415,0,,,,,,417,NW,"ID",16,earoud,EAROUD,z,,,,,,0.174074074,-0.10462963,0,0,0,,0,149,149,356,1,
,,,,,,,,,,,,,,,,,,5f4e0155cf03293db269f873,2020-11-26_17h10.10.057,lexical_decision_task_MP_exp2,2020.2.5,Win32,60,m,0,1.28662,,,,,,,,1.28662,0,,,,,,285,NW,UN,16,reldon,PRUDGE,z,,,,,,0.174074074,-0.10462963,0,0,0,,0,150,150,464,1,
,,,,,,,,,,,,,,,,,,5f4e0155cf03293db269f873,2020-11-26_17h10.10.057,lexical_decision_task_MP_exp2,2020.2.5,Win32,60,m,1,0.669115,,,,,,,,0.669115,1,,,,,,210,WORD,UN,33,infect,MONKEY,m,,,,,,0.174074074,-0.10462963,0,0,0,,0,151,151,149,1,
,,,,,,,,,,,,,,,,,,5f4e0155cf03293db269f873,2020-11-26_17h10.10.057,lexical_decision_task_MP_exp2,2020.2.5,Win32,60,z,1,0.83373,,,,,,,,0.83373,1,,,,,,393,NW,"ID",16,ganous,GANOUS,z,,,,,,0.174074074,-0.10462963,0,0,0,,0,152,152,332,1,
,,,,,,,,,,,,,,,,,,5f4e0155cf03293db269f873,2020-11-26_17h10.10.057,lexical_decision_task_MP_exp2,2020.2.5,Win32,60,z,1,1.086185,,,,,,,,1.086185,1,,,,,,372,NW,"ID",16,ramily,RAMILY,z,,,,,,0.174074074,-0.10462963,0,0,0,,0,153,153,311,1,
,,,,,,,,,,,,,,,,,,5f4e0155cf03293db269f873,2020-11-26_17h10.10.057,lexical_decision_task_MP_exp2,2020.2.5,Win32,60,m,1,0.871035,,,,,,,,0.871035,1,,,,,,69,WORD,"ID",33,plenty,PLENTY,m,,,,,,0.174074074,-0.10462963,0,0,0,,0,154,154,8,1,
,,,,,,,,,,,,,,,,,,5f4e0155cf03293db269f873,2020-11-26_17h10.10.057,lexical_decision_task_MP_exp2,2020.2.5,Win32,60,z,1,0.735105,,,,,,,,0.735105,1,,,,,,437,NW,UN,33,baitch,SNAPEL,z,,,,,,0.174074074,-0.10462963,0,0,0,,0,155,155,376,1,
,,,,,,,,,,,,,,,,,,5f4e0155cf03293db269f873,2020-11-26_17h10.10.057,lexical_decision_task_MP_exp2,2020.2.5,Win32,60,m,1,0.70036,,,,,,,,0.70036,1,,,,,,4,WORD,UN,16,plunge,TRENCH,m,,,,,,0.174074074,-0.10462963,0,0,0,,0,156,156,183,1,
,,,,,,,,,,,,,,,,,,5f4e0155cf03293db269f873,2020-11-26_17h10.10.057,lexical_decision_task_MP_exp2,2020.2.5,Win32,60,m,1,0.75168,,,,,,,,0.75168,1,,,,,,214,WORD,UN,33,phobia,INTAKE,m,,,,,,0.174074074,-0.10462963,0,0,0,,0,157,157,153,1,
,,,,,,,,,,,,,,,,,,5f4e0155cf03293db269f873,2020-11-26_17h10.10.057,lexical_decision_task_MP_exp2,2020.2.5,Win32,60,z,1,0.752535,,,,,,,,0.752535,1,,,,,,320,NW,"ID",33,jockal,JOCKAL,z,,,,,,0.174074074,-0.10462963,0,0,0,,0,158,158,259,1,
,,,,,,,,,,,,,,,,,,5f4e0155cf03293db269f873,2020-11-26_17h10.10.057,lexical_decision_task_MP_exp2,2020.2.5,Win32,60,z,1,0.80284,,,,,,,,0.80284,1,,,,,,269,NW,UN,16,wrimsy,ORCHET,z,,,,,,0.174074074,-0.10462963,0,0,0,,0,159,159,448,1,
,,,,,,,,,,,,,,,,,,5f4e0155cf03293db269f873,2020-11-26_17h10.10.057,lexical_decision_task_MP_exp2,2020.2.5,Win32,60,z,1,0.934275,,,,,,,,0.934275,1,,,,,,460,NW,UN,33,justre,MINGAR,z,,,,,,0.174074074,-0.10462963,0,0,0,,0,160,160,399,1,
,,,,,,,,,,,,,,,,,,5f4e0155cf03293db269f873,2020-11-26_17h10.10.057,lexical_decision_task_MP_exp2,2020.2.5,Win32,60,m,1,0.668025,,,,,,,,0.668025,1,,,,,,109,WORD,"ID",33,wonder,WONDER,m,,,,,,0.174074074,-0.10462963,0,0,0,,0,161,161,48,1,
,,,,,,,,,,,,,,,,,,5f4e0155cf03293db269f873,2020-11-26_17h10.10.057,lexical_decision_task_MP_exp2,2020.2.5,Win32,60,m,1,0.69804,,,,,,,,0.69804,1,,,,,,150,WORD,"ID",16,random,RANDOM,m,,,,,,0.174074074,-0.10462963,0,0,0,,0,162,162,89,1,
,,,,,,,,,,,,,,,,,,5f4e0155cf03293db269f873,2020-11-26_17h10.10.057,lexical_decision_task_MP_exp2,2020.2.5,Win32,60,m,1,0.703235,,,,,,,,0.703235,1,,,,,,169,WORD,"ID",16,genius,GENIUS,m,,,,,,0.174074074,-0.10462963,0,0,0,,0,163,163,108,1,
,,,,,,,,,,,,,,,,,,5f4e0155cf03293db269f873,2020-11-26_17h10.10.057,lexical_decision_task_MP_exp2,2020.2.5,Win32,60,m,1,0.76037,,,,,,,,0.76037,1,,,,,,225,WORD,UN,33,casino,VULGAR,m,,,,,,0.174074074,-0.10462963,0,0,0,,0,164,164,164,1,
,,,,,,,,,,,,,,,,,,5f4e0155cf03293db269f873,2020-11-26_17h10.10.057,lexical_decision_task_MP_exp2,2020.2.5,Win32,60,m,1,0.756585,,,,,,,,0.756585,1,,,,,,230,WORD,UN,33,mother,FRINGE,m,,,,,,0.174074074,-0.10462963,0,0,0,,0,165,165,169,1,
,,,,,,,,,,,,,,,,,,5f4e0155cf03293db269f873,2020-11-26_17h10.10.057,lexical_decision_task_MP_exp2,2020.2.5,Win32,60,m,1,0.63971,,,,,,,,0.63971,1,,,,,,61,WORD,"ID",33,ponder,PONDER,m,,,,,,0.174074074,-0.10462963,0,0,0,,0,166,166,0,1,
,,,,,,,,,,,,,,,,,,5f4e0155cf03293db269f873,2020-11-26_17h10.10.057,lexical_decision_task_MP_exp2,2020.2.5,Win32,60,m,1,0.603925,,,,,,,,0.603925,1,,,,,,74,WORD,"ID",33,plaque,PLAQUE,m,,,,,,0.174074074,-0.10462963,0,0,0,,0,167,167,13,1,
,,,,,,,,,,,,,,,,,,5f4e0155cf03293db269f873,2020-11-26_17h10.10.057,lexical_decision_task_MP_exp2,2020.2.5,Win32,60,m,1,0.819375,,,,,,,,0.819375,1,,,,,,236,WORD,UN,33,grumpy,PIRATE,m,,,,,,0.174074074,-0.10462963,0,0,0,,0,168,168,175,1,
,,,,,,,,,,,,,,,,,,5f4e0155cf03293db269f873,2020-11-26_17h10.10.057,lexical_decision_task_MP_exp2,2020.2.5,Win32,60,m,1,0.65151,,,,,,,,0.65151,1,,,,,,60,WORD,UN,16,fright,PENCIL,m,,,,,,0.174074074,-0.10462963,0,0,0,,0,169,169,239,1,
,,,,,,,,,,,,,,,,,,5f4e0155cf03293db269f873,2020-11-26_17h10.10.057,lexical_decision_task_MP_exp2,2020.2.5,Win32,60,m,0,0.685235,,,,,,,,0.685235,0,,,,,,345,NW,"ID",33,absend,ABSEND,z,,,,,,0.174074074,-0.10462963,0,0,0,,0,170,170,284,1,
,,,,,,,,,,,,,,,,,,5f4e0155cf03293db269f873,2020-11-26_17h10.10.057,lexical_decision_task_MP_exp2,2020.2.5,Win32,60,m,1,0.70164,,,,,,,,0.70164,1,,,,,,113,WORD,"ID",33,chorus,CHORUS,m,,,,,,0.174074074,-0.10462963,0,0,0,,0,171,171,52,1,
,,,,,,,,,,,,,,,,,,5f4e0155cf03293db269f873,2020-11-26_17h10.10.057,lexical_decision_task_MP_exp2,2020.2.5,Win32,60,z,1,1.452485,,,,,,,,1.452485,1,,,,,,255,NW,UN,16,inlors,APIGHT,z,,,,,,0.174074074,-0.10462963,0,0,0,,0,172,172,434,1,
,,,,,,,,,,,,,,,,,,5f4e0155cf03293db269f873,2020-11-26_17h10.10.057,lexical_decision_task_MP_exp2,2020.2.5,Win32,60,z,1,0.910925,,,,,,,,0.910925,1,,,,,,351,NW,"ID",33,tiesch,TIESCH,z,,,,,,0.174074074,-0.10462963,0,0,0,,0,173,173,290,1,
,,,,,,,,,,,,,,,,,,5f4e0155cf03293db269f873,2020-11-26_17h10.10.057,lexical_decision_task_MP_exp2,2020.2.5,Win32,60,m,0,0.68182,,,,,,,,0.68182,0,,,,,,380,NW,"ID",16,cavory,CAVORY,z,,,,,,0.174074074,-0.10462963,0,0,0,,0,174,174,319,1,
,,,,,,,,,,,,,,,,,,5f4e0155cf03293db269f873,2020-11-26_17h10.10.057,lexical_decision_task_MP_exp2,2020.2.5,Win32,60,z,1,0.6601,,,,,,,,0.6601,1,,,,,,435,NW,UN,33,frutan,IMPURB,z,,,,,,0.174074074,-0.10462963,0,0,0,,0,175,175,374,1,
,,,,,,,,,,,,,,,,,,5f4e0155cf03293db269f873,2020-11-26_17h10.10.057,lexical_decision_task_MP_exp2,2020.2.5,Win32,60,z,0,0.73478,,,,,,,,0.73478,0,,,,,,212,WORD,UN,33,squeal,VERIFY,m,,,,,,0.174074074,-0.10462963,0,0,0,,0,176,176,151,1,
,,,,,,,,,,,,,,,,,,5f4e0155cf03293db269f873,2020-11-26_17h10.10.057,lexical_decision_task_MP_exp2,2020.2.5,Win32,60,m,1,0.77431,,,,,,,,0.77431,1,,,,,,107,WORD,"ID",33,slogan,SLOGAN,m,,,,,,0.174074074,-0.10462963,0,0,0,,0,177,177,46,1,
,,,,,,,,,,,,,,,,,,5f4e0155cf03293db269f873,2020-11-26_17h10.10.057,lexical_decision_task_MP_exp2,2020.2.5,Win32,60,z,1,0.734605,,,,,,,,0.734605,1,,,,,,383,NW,"ID",16,aungre,AUNGRE,z,,,,,,0.174074074,-0.10462963,0,0,0,,0,178,178,322,1,
,,,,,,,,,,,,,,,,,,5f4e0155cf03293db269f873,2020-11-26_17h10.10.057,lexical_decision_task_MP_exp2,2020.2.5,Win32,60,m,1,0.65042,,,,,,,,0.65042,1,,,,,,178,WORD,"ID",16,inform,INFORM,m,,,,,,0.174074074,-0.10462963,0,0,0,,0,179,179,117,1,
,,,,,,,,,,,,,,,,,,5f4e0155cf03293db269f873,2020-11-26_17h10.10.057,lexical_decision_task_MP_exp2,2020.2.5,Win32,60,m,1,0.737365,,,,,,,,0.737365,1,,,,,,32,WORD,UN,16,scream,BUCKLE,m,,,,,,0.174074074,-0.10462963,0,0,0,,0,180,180,211,1,
,,,,,,,,,,,,,,,,,,5f4e0155cf03293db269f873,2020-11-26_17h10.10.057,lexical_decision_task_MP_exp2,2020.2.5,Win32,60,z,1,0.934605,,,,,,,,0.934605,1,,,,,,467,NW,UN,33,wictor,GORBIE,z,,,,,,0.174074074,-0.10462963,0,0,0,,0,181,181,406,1,
,,,,,,,,,,,,,,,,,,5f4e0155cf03293db269f873,2020-11-26_17h10.10.057,lexical_decision_task_MP_exp2,2020.2.5,Win32,60,z,1,1.06884,,,,,,,,1.06884,1,,,,,,359,NW,"ID",33,fonver,FONVER,z,,,,,,0.174074074,-0.10462963,0,0,0,,0,182,182,298,1,
,,,,,,,,,,,,,,,,,,5f4e0155cf03293db269f873,2020-11-26_17h10.10.057,lexical_decision_task_MP_exp2,2020.2.5,Win32,60,z,1,0.919315,,,,,,,,0.919315,1,,,,,,341,NW,"ID",33,myrtie,MYRTIE,z,,,,,,0.174074074,-0.10462963,0,0,0,,0,183,183,280,1,
,,,,,,,,,,,,,,,,,,5f4e0155cf03293db269f873,2020-11-26_17h10.10.057,lexical_decision_task_MP_exp2,2020.2.5,Win32,60,m,1,0.81869,,,,,,,,0.81869,1,,,,,,129,WORD,"ID",16,marvel,MARVEL,m,,,,,,0.174074074,-0.10462963,0,0,0,,0,184,184,68,1,
,,,,,,,,,,,,,,,,,,5f4e0155cf03293db269f873,2020-11-26_17h10.10.057,lexical_decision_task_MP_exp2,2020.2.5,Win32,60,z,1,1.18432,,,,,,,,1.18432,1,,,,,,391,NW,"ID",16,theldy,THELDY,z,,,,,,0.174074074,-0.10462963,0,0,0,,0,185,185,330,1,
,,,,,,,,,,,,,,,,,,5f4e0155cf03293db269f873,2020-11-26_17h10.10.057,lexical_decision_task_MP_exp2,2020.2.5,Win32,60,m,1,0.73056,,,,,,,,0.73056,1,,,,,,222,WORD,UN,33,export,HINDER,m,,,,,,0.174074074,-0.10462963,0,0,0,,0,186,186,161,1,
,,,,,,,,,,,,,,,,,,5f4e0155cf03293db269f873,2020-11-26_17h10.10.057,lexical_decision_task_MP_exp2,2020.2.5,Win32,60,m,1,0.63472,,,,,,,,0.63472,1,,,,,,240,WORD,UN,33,seldom,FOREST,m,,,,,,0.174074074,-0.10462963,0,0,0,,0,187,187,179,1,
,,,,,,,,,,,,,,,,,,5f4e0155cf03293db269f873,2020-11-26_17h10.10.057,lexical_decision_task_MP_exp2,2020.2.5,Win32,60,m,1,0.57483,,,,,,,,0.57483,1,,,,,,105,WORD,"ID",33,number,NUMBER,m,,,,,,0.174074074,-0.10462963,0,0,0,,0,188,188,44,1,
,,,,,,,,,,,,,,,,,,5f4e0155cf03293db269f873,2020-11-26_17h10.10.057,lexical_decision_task_MP_exp2,2020.2.5,Win32,60,z,1,0.668215,,,,,,,,0.668215,1,,,,,,362,NW,"ID",16,tireau,TIREAU,z,,,,,,0.174074074,-0.10462963,0,0,0,,0,189,189,301,1,
,,,,,,,,,,,,,,,,,,5f4e0155cf03293db269f873,2020-11-26_17h10.10.057,lexical_decision_task_MP_exp2,2020.2.5,Win32,60,m,1,0.891825,,,,,,,,0.891825,1,,,,,,68,WORD,"ID",33,fumble,FUMBLE,m,,,,,,0.174074074,-0.10462963,0,0,0,,0,190,190,7,1,
,,,,,,,,,,,,,,,,,,5f4e0155cf03293db269f873,2020-11-26_17h10.10.057,lexical_decision_task_MP_exp2,2020.2.5,Win32,60,m,1,0.786305,,,,,,,,0.786305,1,,,,,,133,WORD,"ID",16,chrome,CHROME,m,,,,,,0.174074074,-0.10462963,0,0,0,,0,191,191,72,1,
,,,,,,,,,,,,,,,,,,5f4e0155cf03293db269f873,2020-11-26_17h10.10.057,lexical_decision_task_MP_exp2,2020.2.5,Win32,60,z,1,0.919015,,,,,,,,0.919015,1,,,,,,257,NW,UN,16,poluth,VENIOD,z,,,,,,0.174074074,-0.10462963,0,0,0,,0,192,192,436,1,
,,,,,,,,,,,,,,,,,,5f4e0155cf03293db269f873,2020-11-26_17h10.10.057,lexical_decision_task_MP_exp2,2020.2.5,Win32,60,m,1,0.58491,,,,,,,,0.58491,1,,,,,,124,WORD,"ID",16,blouse,BLOUSE,m,,,,,,0.174074074,-0.10462963,0,0,0,,0,193,193,63,1,
,,,,,,,,,,,,,,,,,,5f4e0155cf03293db269f873,2020-11-26_17h10.10.057,lexical_decision_task_MP_exp2,2020.2.5,Win32,60,z,1,0.78453,,,,,,,,0.78453,1,,,,,,373,NW,"ID",16,bigent,BIGENT,z,,,,,,0.174074074,-0.10462963,0,0,0,,0,194,194,312,1,
,,,,,,,,,,,,,,,,,,5f4e0155cf03293db269f873,2020-11-26_17h10.10.057,lexical_decision_task_MP_exp2,2020.2.5,Win32,60,z,1,0.82665,,,,,,,,0.82665,1,,,,,,241,NW,UN,16,unwert,SMENCO,z,,,,,,0.174074074,-0.10462963,0,0,0,,0,195,195,420,1,
,,,,,,,,,,,,,,,,,,5f4e0155cf03293db269f873,2020-11-26_17h10.10.057,lexical_decision_task_MP_exp2,2020.2.5,Win32,60,m,1,0.58571,,,,,,,,0.58571,1,,,,,,1,WORD,UN,16,ethnic,FRIGHT,m,,,,,,0.174074074,-0.10462963,0,0,0,,0,196,196,180,1,
,,,,,,,,,,,,,,,,,,5f4e0155cf03293db269f873,2020-11-26_17h10.10.057,lexical_decision_task_MP_exp2,2020.2.5,Win32,60,m,1,0.617755,,,,,,,,0.617755,1,,,,,,218,WORD,UN,33,bucket,SHRINK,m,,,,,,0.174074074,-0.10462963,0,0,0,,0,197,197,157,1,
,,,,,,,,,,,,,,,,,,5f4e0155cf03293db269f873,2020-11-26_17h10.10.057,lexical_decision_task_MP_exp2,2020.2.5,Win32,60,z,1,0.905655,,,,,,,,0.905655,1,,,,,,343,NW,"ID",33,aimosy,AIMOSY,z,,,,,,0.174074074,-0.10462963,0,0,0,,0,198,198,282,1,
,,,,,,,,,,,,,,,,,,5f4e0155cf03293db269f873,2020-11-26_17h10.10.057,lexical_decision_task_MP_exp2,2020.2.5,Win32,60,m,1,0.65392,,,,,,,,0.65392,1,,,,,,215,WORD,UN,33,lumber,PHOBIA,m,,,,,,0.174074074,-0.10462963,0,0,0,,0,199,199,154,1,
,,,,,,,,,,,,,,,,,,5f4e0155cf03293db269f873,2020-11-26_17h10.10.057,lexical_decision_task_MP_exp2,2020.2.5,Win32,60,z,1,0.97283,,,,,,,,0.97283,1,,,,,,360,NW,"ID",33,desory,DESORY,z,,,,,,0.174074074,-0.10462963,0,0,0,,0,200,200,299,1,
,,,,,,,,,,,,,,,,,,5f4e0155cf03293db269f873,2020-11-26_17h10.10.057,lexical_decision_task_MP_exp2,2020.2.5,Win32,60,m,1,0.540255,,,,,,,,0.540255,1,,,,,,177,WORD,"ID",16,advent,ADVENT,m,,,,,,0.174074074,-0.10462963,0,0,0,,0,201,201,116,1,
,,,,,,,,,,,,,,,,,,5f4e0155cf03293db269f873,2020-11-26_17h10.10.057,lexical_decision_task_MP_exp2,2020.2.5,Win32,60,m,1,0.55704,,,,,,,,0.55704,1,,,,,,112,WORD,"ID",33,breath,BREATH,m,,,,,,0.174074074,-0.10462963,0,0,0,,0,202,202,51,1,
,,,,,,,,,,,,,,,,,,5f4e0155cf03293db269f873,2020-11-26_17h10.10.057,lexical_decision_task_MP_exp2,2020.2.5,Win32,60,m,1,0.568735,,,,,,,,0.568735,1,,,,,,86,WORD,"ID",33,rodent,RODENT,m,,,,,,0.174074074,-0.10462963,0,0,0,,0,203,203,25,1,
,,,,,,,,,,,,,,,,,,5f4e0155cf03293db269f873,2020-11-26_17h10.10.057,lexical_decision_task_MP_exp2,2020.2.5,Win32,60,m,1,0.53936,,,,,,,,0.53936,1,,,,,,34,WORD,UN,16,socket,JUNGLE,m,,,,,,0.174074074,-0.10462963,0,0,0,,0,204,204,213,1,
,,,,,,,,,,,,,,,,,,5f4e0155cf03293db269f873,2020-11-26_17h10.10.057,lexical_decision_task_MP_exp2,2020.2.5,Win32,60,m,1,0.63573,,,,,,,,0.63573,1,,,,,,141,WORD,"ID",16,orphan,ORPHAN,m,,,,,,0.174074074,-0.10462963,0,0,0,,0,205,205,80,1,
,,,,,,,,,,,,,,,,,,5f4e0155cf03293db269f873,2020-11-26_17h10.10.057,lexical_decision_task_MP_exp2,2020.2.5,Win32,60,z,1,0.66755,,,,,,,,0.66755,1,,,,,,377,NW,"ID",16,injore,INJORE,z,,,,,,0.174074074,-0.10462963,0,0,0,,0,206,206,316,1,
,,,,,,,,,,,,,,,,,,5f4e0155cf03293db269f873,2020-11-26_17h10.10.057,lexical_decision_task_MP_exp2,2020.2.5,Win32,60,m,1,0.56732,,,,,,,,0.56732,1,,,,,,53,WORD,UN,16,ramble,POLICE,m,,,,,,0.174074074,-0.10462963,0,0,0,,0,207,207,232,1,
,,,,,,,,,,,,,,,,,,5f4e0155cf03293db269f873,2020-11-26_17h10.10.057,lexical_decision_task_MP_exp2,2020.2.5,Win32,60,z,0,0.7695,,,,,,,,0.7695,0,,,,,,183,WORD,UN,33,sleazy,MILDEW,m,,,,,,0.174074074,-0.10462963,0,0,0,,0,208,208,122,1,
,,,,,,,,,,,,,,,,,,5f4e0155cf03293db269f873,2020-11-26_17h10.10.057,lexical_decision_task_MP_exp2,2020.2.5,Win32,60,m,1,1.33582,,,,,,,,1.33582,1,,,,,,10,WORD,UN,16,cruise,ETHNIC,m,,,,,,0.174074074,-0.10462963,0,0,0,,0,209,209,189,1,
,,,,,,,,,,,,,,,,,,5f4e0155cf03293db269f873,2020-11-26_17h10.10.057,lexical_decision_task_MP_exp2,2020.2.5,Win32,60,m,1,0.535885,,,,,,,,0.535885,1,,,,,,163,WORD,"ID",16,string,STRING,m,,,,,,0.174074074,-0.10462963,0,0,0,,0,210,210,102,1,
,,,,,,,,,,,,,,,,,,5f4e0155cf03293db269f873,2020-11-26_17h10.10.057,lexical_decision_task_MP_exp2,2020.2.5,Win32,60,z,1,0.80144,,,,,,,,0.80144,1,,,,,,400,NW,"ID",16,wearox,WEAROX,z,,,,,,0.174074074,-0.10462963,0,0,0,,0,211,211,339,1,
,,,,,,,,,,,,,,,,,,5f4e0155cf03293db269f873,2020-11-26_17h10.10.057,lexical_decision_task_MP_exp2,2020.2.5,Win32,60,m,1,0.70154,,,,,,,,0.70154,1,,,,,,16,WORD,UN,16,charge,FAUCET,m,,,,,,0.174074074,-0.10462963,0,0,0,,0,212,212,195,1,
,,,,,,,,,,,,,,,,,,5f4e0155cf03293db269f873,2020-11-26_17h10.10.057,lexical_decision_task_MP_exp2,2020.2.5,Win32,60,m,1,0.634415,,,,,,,,0.634415,1,,,,,,46,WORD,UN,16,income,SINGLE,m,,,,,,0.174074074,-0.10462963,0,0,0,,0,213,213,225,1,
,,,,,,,,,,,,,,,,,,5f4e0155cf03293db269f873,2020-11-26_17h10.10.057,lexical_decision_task_MP_exp2,2020.2.5,Win32,60,z,1,0.733765,,,,,,,,0.733765,1,,,,,,315,NW,"ID",33,laston,LASTON,z,,,,,,0.174074074,-0.10462963,0,0,0,,0,214,214,254,1,
,,,,,,,,,,,,,,,,,,5f4e0155cf03293db269f873,2020-11-26_17h10.10.057,lexical_decision_task_MP_exp2,2020.2.5,Win32,60,m,1,0.701445,,,,,,,,0.701445,1,,,,,,205,WORD,UN,33,tailor,LOUNGE,m,,,,,,0.174074074,-0.10462963,0,0,0,,0,215,215,144,1,
,,,,,,,,,,,,,,,,,,5f4e0155cf03293db269f873,2020-11-26_17h10.10.057,lexical_decision_task_MP_exp2,2020.2.5,Win32,60,z,1,1.23641,,,,,,,,1.23641,1,,,,,,463,NW,UN,33,chaite,KISPEL,z,,,,,,0.174074074,-0.10462963,0,0,0,,0,216,216,402,1,
,,,,,,,,,,,,,,,,,,5f4e0155cf03293db269f873,2020-11-26_17h10.10.057,lexical_decision_task_MP_exp2,2020.2.5,Win32,60,m,1,0.534655,,,,,,,,0.534655,1,,,,,,80,WORD,"ID",33,family,FAMILY,m,,,,,,0.174074074,-0.10462963,0,0,0,,0,217,217,19,1,
,,,,,,,,,,,,,,,,,,5f4e0155cf03293db269f873,2020-11-26_17h10.10.057,lexical_decision_task_MP_exp2,2020.2.5,Win32,60,m,1,0.585485,,,,,,,,0.585485,1,,,,,,38,WORD,UN,16,insect,POWDER,m,,,,,,0.174074074,-0.10462963,0,0,0,,0,218,218,217,1,
,,,,,,,,,,,,,,,,,,5f4e0155cf03293db269f873,2020-11-26_17h10.10.057,lexical_decision_task_MP_exp2,2020.2.5,Win32,60,m,1,0.80261,,,,,,,,0.80261,1,,,,,,190,WORD,UN,33,stable,BACKUP,m,,,,,,0.174074074,-0.10462963,0,0,0,,0,219,219,129,1,
,,,,,,,,,,,,,,,,,,5f4e0155cf03293db269f873,2020-11-26_17h10.10.057,lexical_decision_task_MP_exp2,2020.2.5,Win32,60,m,1,0.617825,,,,,,,,0.617825,1,,,,,,76,WORD,"ID",33,exotic,EXOTIC,m,,,,,,0.174074074,-0.10462963,0,0,0,,0,220,220,15,1,
,,,,,,,,,,,,,,,,,,5f4e0155cf03293db269f873,2020-11-26_17h10.10.057,lexical_decision_task_MP_exp2,2020.2.5,Win32,60,m,1,0.702205,,,,,,,,0.702205,1,,,,,,62,WORD,"ID",33,region,REGION,m,,,,,,0.174074074,-0.10462963,0,0,0,,0,221,221,1,1,
,,,,,,,,,,,,,,,,,,5f4e0155cf03293db269f873,2020-11-26_17h10.10.057,lexical_decision_task_MP_exp2,2020.2.5,Win32,60,z,1,1.085015,,,,,,,,1.085015,1,,,,,,480,NW,UN,33,knisma,ROBULY,z,,,,,,0.174074074,-0.10462963,0,0,0,,0,222,222,419,1,
,,,,,,,,,,,,,,,,,,5f4e0155cf03293db269f873,2020-11-26_17h10.10.057,lexical_decision_task_MP_exp2,2020.2.5,Win32,60,z,1,0.751645,,,,,,,,0.751645,1,,,,,,472,NW,UN,33,gorbie,CIGNEY,z,,,,,,0.174074074,-0.10462963,0,0,0,,0,223,223,411,1,
,,,,,,,,,,,,,,,,,,5f4e0155cf03293db269f873,2020-11-26_17h10.10.057,lexical_decision_task_MP_exp2,2020.2.5,Win32,60,z,0,0.7012,,,,,,,,0.7012,0,,,,,,45,WORD,UN,16,single,CLERGY,m,,,,,,0.174074074,-0.10462963,0,0,0,,0,224,224,224,1,
,,,,,,,,,,,,,,,,,,5f4e0155cf03293db269f873,2020-11-26_17h10.10.057,lexical_decision_task_MP_exp2,2020.2.5,Win32,60,z,1,1.06782,,,,,,,,1.06782,1,,,,,,465,NW,UN,33,bafent,WHIVEX,z,,,,,,0.174074074,-0.10462963,0,0,0,,0,225,225,404,1,
,,,,,,,,,,,,,,,,,,5f4e0155cf03293db269f873,2020-11-26_17h10.10.057,lexical_decision_task_MP_exp2,2020.2.5,Win32,60,z,1,1.60256,,,,,,,,1.60256,1,,,,,,440,NW,UN,33,rastoe,SARIDE,z,,,,,,0.174074074,-0.10462963,0,0,0,,0,226,226,379,1,
,,,,,,,,,,,,,,,,,,5f4e0155cf03293db269f873,2020-11-26_17h10.10.057,lexical_decision_task_MP_exp2,2020.2.5,Win32,60,m,1,0.618825,,,,,,,,0.618825,1,,,,,,57,WORD,UN,16,danger,CHANGE,m,,,,,,0.174074074,-0.10462963,0,0,0,,0,227,227,236,1,
,,,,,,,,,,,,,,,,,,5f4e0155cf03293db269f873,2020-11-26_17h10.10.057,lexical_decision_task_MP_exp2,2020.2.5,Win32,60,z,1,0.83651,,,,,,,,0.83651,1,,,,,,390,NW,"ID",16,hatrus,HATRUS,z,,,,,,0.174074074,-0.10462963,0,0,0,,0,228,228,329,1,
,,,,,,,,,,,,,,,,,,5f4e0155cf03293db269f873,2020-11-26_17h10.10.057,lexical_decision_task_MP_exp2,2020.2.5,Win32,60,m,0,1.302575,,,,,,,,1.302575,0,,,,,,454,NW,UN,33,tondle,SCOUGE,z,,,,,,0.174074074,-0.10462963,0,0,0,,0,229,229,393,1,
,,,,,,,,,,,,,,,,,,5f4e0155cf03293db269f873,2020-11-26_17h10.10.057,lexical_decision_task_MP_exp2,2020.2.5,Win32,60,m,0,0.73419,,,,,,,,0.73419,0,,,,,,261,NW,UN,16,quilew,STUNCH,z,,,,,,0.174074074,-0.10462963,0,0,0,,0,230,230,440,1,
,,,,,,,,,,,,,,,,,,5f4e0155cf03293db269f873,2020-11-26_17h10.10.057,lexical_decision_task_MP_exp2,2020.2.5,Win32,60,m,1,0.735405,,,,,,,,0.735405,1,,,,,,26,WORD,UN,16,butler,SPRINT,m,,,,,,0.174074074,-0.10462963,0,0,0,,0,231,231,205,1,
,,,,,,,,,,,,,,,,,,5f4e0155cf03293db269f873,2020-11-26_17h10.10.057,lexical_decision_task_MP_exp2,2020.2.5,Win32,60,m,1,0.71844,,,,,,,,0.71844,1,,,,,,130,WORD,"ID",16,stupid,STUPID,m,,,,,,0.174074074,-0.10462963,0,0,0,,0,232,232,69,1,
,,,,,,,,,,,,,,,,,,5f4e0155cf03293db269f873,2020-11-26_17h10.10.057,lexical_decision_task_MP_exp2,2020.2.5,Win32,60,z,1,1.135355,,,,,,,,1.135355,1,,,,,,291,NW,UN,16,ablint,PRETCH,z,,,,,,0.174074074,-0.10462963,0,0,0,,0,233,233,470,1,
,,,,,,,,,,,,,,,,,,5f4e0155cf03293db269f873,2020-11-26_17h10.10.057,lexical_decision_task_MP_exp2,2020.2.5,Win32,60,m,1,0.602185,,,,,,,,0.602185,1,,,,,,191,WORD,UN,33,beacon,STABLE,m,,,,,,0.174074074,-0.10462963,0,0,0,,0,234,234,130,1,
,,,,,,,,,,,,,,,,,,5f4e0155cf03293db269f873,2020-11-26_17h10.10.057,lexical_decision_task_MP_exp2,2020.2.5,Win32,60,z,1,0.885065,,,,,,,,0.885065,1,,,,,,286,NW,UN,16,nymbel,RELDON,z,,,,,,0.174074074,-0.10462963,0,0,0,,0,235,235,465,1,
,,,,,,,,,,,,,,,,,,5f4e0155cf03293db269f873,2020-11-26_17h10.10.057,lexical_decision_task_MP_exp2,2020.2.5,Win32,60,m,1,1.01907,,,,,,,,1.01907,1,,,,,,17,WORD,UN,16,humble,CHARGE,m,,,,,,0.174074074,-0.10462963,0,0,0,,0,236,236,196,1,
,,,,,,,,,,,,,,,,,,5f4e0155cf03293db269f873,2020-11-26_17h10.10.057,lexical_decision_task_MP_exp2,2020.2.5,Win32,60,m,1,0.601005,,,,,,,,0.601005,1,,,,,,44,WORD,UN,16,clergy,DANGER,m,,,,,,0.174074074,-0.10462963,0,0,0,,0,237,237,223,1,
,,,,,,,,,,,,,,,,,,5f4e0155cf03293db269f873,2020-11-26_17h10.10.057,lexical_decision_task_MP_exp2,2020.2.5,Win32,60,m,1,0.701795,,,,,,,,0.701795,1,,,,,,102,WORD,"ID",33,direct,DIRECT,m,,,,,,0.174074074,-0.10462963,0,0,0,,0,238,238,41,1,
,,,,,,,,,,,,,,,,,,5f4e0155cf03293db269f873,2020-11-26_17h10.10.057,lexical_decision_task_MP_exp2,2020.2.5,Win32,60,z,1,0.81718,,,,,,,,0.81718,1,,,,,,293,NW,UN,16,inhort,SWANCE,z,,,,,,0.174074074,-0.10462963,0,0,0,,0,239,239,472,1,
,,,,,,,,,,,,,,,,,,5f4e0155cf03293db269f873,2020-11-26_17h10.10.057,lexical_decision_task_MP_exp2,2020.2.5,Win32,60,z,1,1.168895,,,,,,,,1.168895,1,,,,,,418,NW,"ID",16,suidle,SUIDLE,z,,,,,,0.174074074,-0.10462963,0,0,0,,0,240,240,357,1,
,,,,,,,,,,,,,,,,,,5f4e0155cf03293db269f873,2020-11-26_17h10.10.057,lexical_decision_task_MP_exp2,2020.2.5,Win32,60,m,1,0.68426,,,,,,,,0.68426,1,,,,,,118,WORD,"ID",33,flight,FLIGHT,m,,,,,,0.174074074,-0.10462963,0,0,0,space,0,241,241,57,1,1.469285
,,,,,,,,,,,,,,,,,,5f4e0155cf03293db269f873,2020-11-26_17h10.10.057,lexical_decision_task_MP_exp2,2020.2.5,Win32,60,z,1,0.752125,,,,,,,,0.752125,1,,,,,,461,NW,UN,33,absult,JUSTRE,z,,,,,,0.174074074,-0.10462963,0,0,0,,0,242,242,400,1,
,,,,,,,,,,,,,,,,,,5f4e0155cf03293db269f873,2020-11-26_17h10.10.057,lexical_decision_task_MP_exp2,2020.2.5,Win32,60,m,1,0.65052,,,,,,,,0.65052,1,,,,,,81,WORD,"ID",33,friend,FRIEND,m,,,,,,0.174074074,-0.10462963,0,0,0,,0,243,243,20,1,
,,,,,,,,,,,,,,,,,,5f4e0155cf03293db269f873,2020-11-26_17h10.10.057,lexical_decision_task_MP_exp2,2020.2.5,Win32,60,z,0,0.901615,,,,,,,,0.901615,0,,,,,,40,WORD,UN,16,spring,CONVEY,m,,,,,,0.174074074,-0.10462963,0,0,0,,0,244,244,219,1,
,,,,,,,,,,,,,,,,,,5f4e0155cf03293db269f873,2020-11-26_17h10.10.057,lexical_decision_task_MP_exp2,2020.2.5,Win32,60,z,1,0.619785,,,,,,,,0.619785,1,,,,,,267,NW,UN,16,packes,PASINK,z,,,,,,0.174074074,-0.10462963,0,0,0,,0,245,245,446,1,
,,,,,,,,,,,,,,,,,,5f4e0155cf03293db269f873,2020-11-26_17h10.10.057,lexical_decision_task_MP_exp2,2020.2.5,Win32,60,m,1,0.584985,,,,,,,,0.584985,1,,,,,,233,WORD,UN,33,clumsy,NATURE,m,,,,,,0.174074074,-0.10462963,0,0,0,,0,246,246,172,1,
,,,,,,,,,,,,,,,,,,5f4e0155cf03293db269f873,2020-11-26_17h10.10.057,lexical_decision_task_MP_exp2,2020.2.5,Win32,60,m,1,0.56873,,,,,,,,0.56873,1,,,,,,91,WORD,"ID",33,expand,EXPAND,m,,,,,,0.174074074,-0.10462963,0,0,0,,0,247,247,30,1,
,,,,,,,,,,,,,,,,,,5f4e0155cf03293db269f873,2020-11-26_17h10.10.057,lexical_decision_task_MP_exp2,2020.2.5,Win32,60,z,1,0.70633,,,,,,,,0.70633,1,,,,,,405,NW,"ID",16,flumni,FLUMNI,z,,,,,,0.174074074,-0.10462963,0,0,0,,0,248,248,344,1,
,,,,,,,,,,,,,,,,,,5f4e0155cf03293db269f873,2020-11-26_17h10.10.057,lexical_decision_task_MP_exp2,2020.2.5,Win32,60,z,1,1.152665,,,,,,,,1.152665,1,,,,,,399,NW,"ID",16,fouret,FOURET,z,,,,,,0.174074074,-0.10462963,0,0,0,,0,249,249,338,1,
,,,,,,,,,,,,,,,,,,5f4e0155cf03293db269f873,2020-11-26_17h10.10.057,lexical_decision_task_MP_exp2,2020.2.5,Win32,60,z,1,0.868635,,,,,,,,0.868635,1,,,,,,311,NW,"ID",33,sproly,SPROLY,z,,,,,,0.174074074,-0.10462963,0,0,0,,0,250,250,250,1,
,,,,,,,,,,,,,,,,,,5f4e0155cf03293db269f873,2020-11-26_17h10.10.057,lexical_decision_task_MP_exp2,2020.2.5,Win32,60,z,1,0.785065,,,,,,,,0.785065,1,,,,,,434,NW,UN,33,impurb,PITROM,z,,,,,,0.174074074,-0.10462963,0,0,0,,0,251,251,373,1,
,,,,,,,,,,,,,,,,,,5f4e0155cf03293db269f873,2020-11-26_17h10.10.057,lexical_decision_task_MP_exp2,2020.2.5,Win32,60,m,1,0.6688,,,,,,,,0.6688,1,,,,,,96,WORD,"ID",33,ignore,IGNORE,m,,,,,,0.174074074,-0.10462963,0,0,0,,0,252,252,35,1,
,,,,,,,,,,,,,,,,,,5f4e0155cf03293db269f873,2020-11-26_17h10.10.057,lexical_decision_task_MP_exp2,2020.2.5,Win32,60,z,1,0.884975,,,,,,,,0.884975,1,,,,,,299,NW,UN,16,yarion,STURCH,z,,,,,,0.174074074,-0.10462963,0,0,0,,0,253,253,478,1,
,,,,,,,,,,,,,,,,,,5f4e0155cf03293db269f873,2020-11-26_17h10.10.057,lexical_decision_task_MP_exp2,2020.2.5,Win32,60,z,1,0.901105,,,,,,,,0.901105,1,,,,,,347,NW,"ID",33,kerift,KERIFT,z,,,,,,0.174074074,-0.10462963,0,0,0,,0,254,254,286,1,
,,,,,,,,,,,,,,,,,,5f4e0155cf03293db269f873,2020-11-26_17h10.10.057,lexical_decision_task_MP_exp2,2020.2.5,Win32,60,m,1,0.684795,,,,,,,,0.684795,1,,,,,,161,WORD,"ID",16,pastor,PASTOR,m,,,,,,0.174074074,-0.10462963,0,0,0,,0,255,255,100,1,
,,,,,,,,,,,,,,,,,,5f4e0155cf03293db269f873,2020-11-26_17h10.10.057,lexical_decision_task_MP_exp2,2020.2.5,Win32,60,m,1,0.66874,,,,,,,,0.66874,1,,,,,,175,WORD,"ID",16,fabric,FABRIC,m,,,,,,0.174074074,-0.10462963,0,0,0,,0,256,256,114,1,
,,,,,,,,,,,,,,,,,,5f4e0155cf03293db269f873,2020-11-26_17h10.10.057,lexical_decision_task_MP_exp2,2020.2.5,Win32,60,z,1,0.78507,,,,,,,,0.78507,1,,,,,,421,NW,UN,33,alcoud,KNISMA,z,,,,,,0.174074074,-0.10462963,0,0,0,,0,257,257,360,1,
,,,,,,,,,,,,,,,,,,5f4e0155cf03293db269f873,2020-11-26_17h10.10.057,lexical_decision_task_MP_exp2,2020.2.5,Win32,60,m,1,0.73476,,,,,,,,0.73476,1,,,,,,117,WORD,"ID",33,branch,BRANCH,m,,,,,,0.174074074,-0.10462963,0,0,0,,0,258,258,56,1,
,,,,,,,,,,,,,,,,,,5f4e0155cf03293db269f873,2020-11-26_17h10.10.057,lexical_decision_task_MP_exp2,2020.2.5,Win32,60,z,1,0.86877,,,,,,,,0.86877,1,,,,,,309,NW,"ID",33,amiloy,AMILOY,z,,,,,,0.174074074,-0.10462963,0,0,0,,0,259,259,248,1,
,,,,,,,,,,,,,,,,,,5f4e0155cf03293db269f873,2020-11-26_17h10.10.057,lexical_decision_task_MP_exp2,2020.2.5,Win32,60,z,1,1.11801,,,,,,,,1.11801,1,,,,,,468,NW,UN,33,padifs,WICTOR,z,,,,,,0.174074074,-0.10462963,0,0,0,,0,260,260,407,1,
,,,,,,,,,,,,,,,,,,5f4e0155cf03293db269f873,2020-11-26_17h10.10.057,lexical_decision_task_MP_exp2,2020.2.5,Win32,60,z,1,0.80161,,,,,,,,0.80161,1,,,,,,273,NW,UN,16,fumblo,SORTEL,z,,,,,,0.174074074,-0.10462963,0,0,0,,0,261,261,452,1,
,,,,,,,,,,,,,,,,,,5f4e0155cf03293db269f873,2020-11-26_17h10.10.057,lexical_decision_task_MP_exp2,2020.2.5,Win32,60,m,1,1.1842,,,,,,,,1.1842,1,,,,,,137,WORD,"ID",16,finger,FINGER,m,,,,,,0.174074074,-0.10462963,0,0,0,,0,262,262,76,1,
,,,,,,,,,,,,,,,,,,5f4e0155cf03293db269f873,2020-11-26_17h10.10.057,lexical_decision_task_MP_exp2,2020.2.5,Win32,60,m,1,0.650815,,,,,,,,0.650815,1,,,,,,160,WORD,"ID",16,violet,VIOLET,m,,,,,,0.174074074,-0.10462963,0,0,0,,0,263,263,99,1,
,,,,,,,,,,,,,,,,,,5f4e0155cf03293db269f873,2020-11-26_17h10.10.057,lexical_decision_task_MP_exp2,2020.2.5,Win32,60,m,1,0.668425,,,,,,,,0.668425,1,,,,,,89,WORD,"ID",33,permit,PERMIT,m,,,,,,0.174074074,-0.10462963,0,0,0,,0,264,264,28,1,
,,,,,,,,,,,,,,,,,,5f4e0155cf03293db269f873,2020-11-26_17h10.10.057,lexical_decision_task_MP_exp2,2020.2.5,Win32,60,m,1,1.30295,,,,,,,,1.30295,1,,,,,,30,WORD,UN,16,weapon,ORIENT,m,,,,,,0.174074074,-0.10462963,0,0,0,,0,265,265,209,1,
,,,,,,,,,,,,,,,,,,5f4e0155cf03293db269f873,2020-11-26_17h10.10.057,lexical_decision_task_MP_exp2,2020.2.5,Win32,60,z,1,0.751535,,,,,,,,0.751535,1,,,,,,344,NW,"ID",33,scrily,SCRILY,z,,,,,,0.174074074,-0.10462963,0,0,0,,0,266,266,283,1,
,,,,,,,,,,,,,,,,,,5f4e0155cf03293db269f873,2020-11-26_17h10.10.057,lexical_decision_task_MP_exp2,2020.2.5,Win32,60,z,1,0.717775,,,,,,,,0.717775,1,,,,,,416,NW,"ID",16,pathel,PATHEL,z,,,,,,0.174074074,-0.10462963,0,0,0,,0,267,267,355,1,
,,,,,,,,,,,,,,,,,,5f4e0155cf03293db269f873,2020-11-26_17h10.10.057,lexical_decision_task_MP_exp2,2020.2.5,Win32,60,m,1,0.6023,,,,,,,,0.6023,1,,,,,,228,WORD,UN,33,kidney,MASTER,m,,,,,,0.174074074,-0.10462963,0,0,0,,0,268,268,167,1,
,,,,,,,,,,,,,,,,,,5f4e0155cf03293db269f873,2020-11-26_17h10.10.057,lexical_decision_task_MP_exp2,2020.2.5,Win32,60,m,1,0.584525,,,,,,,,0.584525,1,,,,,,123,WORD,"ID",16,strike,STRIKE,m,,,,,,0.174074074,-0.10462963,0,0,0,,0,269,269,62,1,
,,,,,,,,,,,,,,,,,,5f4e0155cf03293db269f873,2020-11-26_17h10.10.057,lexical_decision_task_MP_exp2,2020.2.5,Win32,60,m,1,0.835165,,,,,,,,0.835165,1,,,,,,52,WORD,UN,16,police,IMPOSE,m,,,,,,0.174074074,-0.10462963,0,0,0,,0,270,270,231,1,
,,,,,,,,,,,,,,,,,,5f4e0155cf03293db269f873,2020-11-26_17h10.10.057,lexical_decision_task_MP_exp2,2020.2.5,Win32,60,z,1,0.783835,,,,,,,,0.783835,1,,,,,,363,NW,"ID",16,breali,BREALI,z,,,,,,0.174074074,-0.10462963,0,0,0,,0,271,271,302,1,
,,,,,,,,,,,,,,,,,,5f4e0155cf03293db269f873,2020-11-26_17h10.10.057,lexical_decision_task_MP_exp2,2020.2.5,Win32,60,m,1,0.65103,,,,,,,,0.65103,1,,,,,,18,WORD,UN,16,patron,HUMBLE,m,,,,,,0.174074074,-0.10462963,0,0,0,,0,272,272,197,1,
,,,,,,,,,,,,,,,,,,5f4e0155cf03293db269f873,2020-11-26_17h10.10.057,lexical_decision_task_MP_exp2,2020.2.5,Win32,60,z,1,1.11822,,,,,,,,1.11822,1,,,,,,342,NW,"ID",33,randow,RANDOW,z,,,,,,0.174074074,-0.10462963,0,0,0,,0,273,273,281,1,
,,,,,,,,,,,,,,,,,,5f4e0155cf03293db269f873,2020-11-26_17h10.10.057,lexical_decision_task_MP_exp2,2020.2.5,Win32,60,z,1,0.80626,,,,,,,,0.80626,1,,,,,,374,NW,"ID",16,sliant,SLIANT,z,,,,,,0.174074074,-0.10462963,0,0,0,,0,274,274,313,1,
,,,,,,,,,,,,,,,,,,5f4e0155cf03293db269f873,2020-11-26_17h10.10.057,lexical_decision_task_MP_exp2,2020.2.5,Win32,60,z,1,0.75981,,,,,,,,0.75981,1,,,,,,371,NW,"ID",16,geiloy,GEILOY,z,,,,,,0.174074074,-0.10462963,0,0,0,,0,275,275,310,1,
,,,,,,,,,,,,,,,,,,5f4e0155cf03293db269f873,2020-11-26_17h10.10.057,lexical_decision_task_MP_exp2,2020.2.5,Win32,60,m,1,0.640075,,,,,,,,0.640075,1,,,,,,27,WORD,UN,16,comedy,SCREAM,m,,,,,,0.174074074,-0.10462963,0,0,0,,0,276,276,206,1,
,,,,,,,,,,,,,,,,,,5f4e0155cf03293db269f873,2020-11-26_17h10.10.057,lexical_decision_task_MP_exp2,2020.2.5,Win32,60,m,1,0.65563,,,,,,,,0.65563,1,,,,,,33,WORD,UN,16,jungle,BUTLER,m,,,,,,0.174074074,-0.10462963,0,0,0,,0,277,277,212,1,
,,,,,,,,,,,,,,,,,,5f4e0155cf03293db269f873,2020-11-26_17h10.10.057,lexical_decision_task_MP_exp2,2020.2.5,Win32,60,z,1,0.84248,,,,,,,,0.84248,1,,,,,,448,NW,UN,33,brunge,SADENT,z,,,,,,0.174074074,-0.10462963,0,0,0,,0,278,278,387,1,
,,,,,,,,,,,,,,,,,,5f4e0155cf03293db269f873,2020-11-26_17h10.10.057,lexical_decision_task_MP_exp2,2020.2.5,Win32,60,z,1,0.839,,,,,,,,0.839,1,,,,,,375,NW,"ID",16,yorque,YORQUE,z,,,,,,0.174074074,-0.10462963,0,0,0,,0,279,279,314,1,
,,,,,,,,,,,,,,,,,,5f4e0155cf03293db269f873,2020-11-26_17h10.10.057,lexical_decision_task_MP_exp2,2020.2.5,Win32,60,m,1,0.55336,,,,,,,,0.55336,1,,,,,,126,WORD,"ID",16,enough,ENOUGH,m,,,,,,0.174074074,-0.10462963,0,0,0,,0,280,280,65,1,
,,,,,,,,,,,,,,,,,,5f4e0155cf03293db269f873,2020-11-26_17h10.10.057,lexical_decision_task_MP_exp2,2020.2.5,Win32,60,z,1,0.701805,,,,,,,,0.701805,1,,,,,,478,NW,UN,33,pebric,ACRISE,z,,,,,,0.174074074,-0.10462963,0,0,0,,0,281,281,417,1,
,,,,,,,,,,,,,,,,,,5f4e0155cf03293db269f873,2020-11-26_17h10.10.057,lexical_decision_task_MP_exp2,2020.2.5,Win32,60,m,1,0.66856,,,,,,,,0.66856,1,,,,,,114,WORD,"ID",33,placid,PLACID,m,,,,,,0.174074074,-0.10462963,0,0,0,,0,282,282,53,1,
,,,,,,,,,,,,,,,,,,5f4e0155cf03293db269f873,2020-11-26_17h10.10.057,lexical_decision_task_MP_exp2,2020.2.5,Win32,60,z,1,0.834975,,,,,,,,0.834975,1,,,,,,277,NW,UN,16,unighs,PETAIN,z,,,,,,0.174074074,-0.10462963,0,0,0,,0,283,283,456,1,
,,,,,,,,,,,,,,,,,,5f4e0155cf03293db269f873,2020-11-26_17h10.10.057,lexical_decision_task_MP_exp2,2020.2.5,Win32,60,z,1,0.719045,,,,,,,,0.719045,1,,,,,,447,NW,UN,33,sadent,GIRCUE,z,,,,,,0.174074074,-0.10462963,0,0,0,,0,284,284,386,1,
,,,,,,,,,,,,,,,,,,5f4e0155cf03293db269f873,2020-11-26_17h10.10.057,lexical_decision_task_MP_exp2,2020.2.5,Win32,60,z,1,1.101225,,,,,,,,1.101225,1,,,,,,322,NW,"ID",33,slanch,SLANCH,z,,,,,,0.174074074,-0.10462963,0,0,0,,0,285,285,261,1,
,,,,,,,,,,,,,,,,,,5f4e0155cf03293db269f873,2020-11-26_17h10.10.057,lexical_decision_task_MP_exp2,2020.2.5,Win32,60,z,1,0.898505,,,,,,,,0.898505,1,,,,,,376,NW,"ID",16,iguare,IGUARE,z,,,,,,0.174074074,-0.10462963,0,0,0,,0,286,286,315,1,
,,,,,,,,,,,,,,,,,,5f4e0155cf03293db269f873,2020-11-26_17h10.10.057,lexical_decision_task_MP_exp2,2020.2.5,Win32,60,m,1,0.57743,,,,,,,,0.57743,1,,,,,,157,WORD,"ID",16,dragon,DRAGON,m,,,,,,0.174074074,-0.10462963,0,0,0,,0,287,287,96,1,
,,,,,,,,,,,,,,,,,,5f4e0155cf03293db269f873,2020-11-26_17h10.10.057,lexical_decision_task_MP_exp2,2020.2.5,Win32,60,z,1,0.718025,,,,,,,,0.718025,1,,,,,,307,NW,"ID",33,kirafe,KIRAFE,z,,,,,,0.174074074,-0.10462963,0,0,0,,0,288,288,246,1,
,,,,,,,,,,,,,,,,,,5f4e0155cf03293db269f873,2020-11-26_17h10.10.057,lexical_decision_task_MP_exp2,2020.2.5,Win32,60,z,1,1.168405,,,,,,,,1.168405,1,,,,,,253,NW,UN,16,varosh,RESAIT,z,,,,,,0.174074074,-0.10462963,0,0,0,,0,289,289,432,1,
,,,,,,,,,,,,,,,,,,5f4e0155cf03293db269f873,2020-11-26_17h10.10.057,lexical_decision_task_MP_exp2,2020.2.5,Win32,60,m,1,1.302445,,,,,,,,1.302445,1,,,,,,176,WORD,"ID",16,strife,STRIFE,m,,,,,,0.174074074,-0.10462963,0,0,0,,0,290,290,115,1,
,,,,,,,,,,,,,,,,,,5f4e0155cf03293db269f873,2020-11-26_17h10.10.057,lexical_decision_task_MP_exp2,2020.2.5,Win32,60,m,1,0.851435,,,,,,,,0.851435,1,,,,,,156,WORD,"ID",16,cradle,CRADLE,m,,,,,,0.174074074,-0.10462963,0,0,0,,0,291,291,95,1,
,,,,,,,,,,,,,,,,,,5f4e0155cf03293db269f873,2020-11-26_17h10.10.057,lexical_decision_task_MP_exp2,2020.2.5,Win32,60,z,1,0.869135,,,,,,,,0.869135,1,,,,,,412,NW,"ID",16,jiluer,JILUER,z,,,,,,0.174074074,-0.10462963,0,0,0,,0,292,292,351,1,
,,,,,,,,,,,,,,,,,,5f4e0155cf03293db269f873,2020-11-26_17h10.10.057,lexical_decision_task_MP_exp2,2020.2.5,Win32,60,m,1,0.650945,,,,,,,,0.650945,1,,,,,,100,WORD,"ID",33,carbon,CARBON,m,,,,,,0.178703704,-0.096296296,0,0,0,,0,293,293,39,1,
,,,,,,,,,,,,,,,,,,5f4e0155cf03293db269f873,2020-11-26_17h10.10.057,lexical_decision_task_MP_exp2,2020.2.5,Win32,60,m,1,0.61778,,,,,,,,0.61778,1,,,,,,67,WORD,"ID",33,policy,POLICY,m,,,,,,0.178703704,-0.096296296,0,0,0,,0,294,294,6,1,
,,,,,,,,,,,,,,,,,,5f4e0155cf03293db269f873,2020-11-26_17h10.10.057,lexical_decision_task_MP_exp2,2020.2.5,Win32,60,z,1,0.785705,,,,,,,,0.785705,1,,,,,,317,NW,"ID",33,worbal,WORBAL,z,,,,,,0.178703704,-0.096296296,0,0,0,,0,295,295,256,1,
,,,,,,,,,,,,,,,,,,5f4e0155cf03293db269f873,2020-11-26_17h10.10.057,lexical_decision_task_MP_exp2,2020.2.5,Win32,60,z,1,0.752205,,,,,,,,0.752205,1,,,,,,300,NW,UN,16,smenco,YARION,z,,,,,,0.178703704,-0.096296296,0,0,0,,0,296,296,479,1,
,,,,,,,,,,,,,,,,,,5f4e0155cf03293db269f873,2020-11-26_17h10.10.057,lexical_decision_task_MP_exp2,2020.2.5,Win32,60,z,1,0.8858,,,,,,,,0.8858,1,,,,,,451,NW,UN,33,surden,CAINKY,z,,,,,,0.178703704,-0.096296296,0,0,0,,0,297,297,390,1,
,,,,,,,,,,,,,,,,,,5f4e0155cf03293db269f873,2020-11-26_17h10.10.057,lexical_decision_task_MP_exp2,2020.2.5,Win32,60,z,1,1.10196,,,,,,,,1.10196,1,,,,,,471,NW,UN,33,cigney,NOBEST,z,,,,,,0.178703704,-0.096296296,0,0,0,,0,298,298,410,1,
,,,,,,,,,,,,,,,,,,5f4e0155cf03293db269f873,2020-11-26_17h10.10.057,lexical_decision_task_MP_exp2,2020.2.5,Win32,60,z,1,0.76932,,,,,,,,0.76932,1,,,,,,294,NW,UN,16,gleath,INHORT,z,,,,,,0.178703704,-0.096296296,0,0,0,,0,299,299,473,1,
,,,,,,,,,,,,,,,,,,5f4e0155cf03293db269f873,2020-11-26_17h10.10.057,lexical_decision_task_MP_exp2,2020.2.5,Win32,60,m,1,0.635065,,,,,,,,0.635065,1,,,,,,216,WORD,UN,33,liquor,BEHALF,m,,,,,,0.178703704,-0.096296296,0,0,0,,0,300,300,155,1,
,,,,,,,,,,,,,,,,,,5f4e0155cf03293db269f873,2020-11-26_17h10.10.057,lexical_decision_task_MP_exp2,2020.2.5,Win32,60,z,1,0.985485,,,,,,,,0.985485,1,,,,,,361,NW,"ID",16,pauche,PAUCHE,z,,,,,,0.178703704,-0.096296296,0,0,0,,0,301,301,300,1,
,,,,,,,,,,,,,,,,,,5f4e0155cf03293db269f873,2020-11-26_17h10.10.057,lexical_decision_task_MP_exp2,2020.2.5,Win32,60,m,1,0.60221,,,,,,,,0.60221,1,,,,,,84,WORD,"ID",33,mortal,MORTAL,m,,,,,,0.178703704,-0.096296296,0,0,0,,0,302,302,23,1,
,,,,,,,,,,,,,,,,,,5f4e0155cf03293db269f873,2020-11-26_17h10.10.057,lexical_decision_task_MP_exp2,2020.2.5,Win32,60,m,1,0.619615,,,,,,,,0.619615,1,,,,,,5,WORD,UN,16,bundle,PLUNGE,m,,,,,,0.178703704,-0.096296296,0,0,0,,0,303,303,184,1,
,,,,,,,,,,,,,,,,,,5f4e0155cf03293db269f873,2020-11-26_17h10.10.057,lexical_decision_task_MP_exp2,2020.2.5,Win32,60,z,1,0.952075,,,,,,,,0.952075,1,,,,,,409,NW,"ID",16,elopia,ELOPIA,z,,,,,,0.178703704,-0.096296296,0,0,0,,0,304,304,348,1,
,,,,,,,,,,,,,,,,,,5f4e0155cf03293db269f873,2020-11-26_17h10.10.057,lexical_decision_task_MP_exp2,2020.2.5,Win32,60,z,1,0.73525,,,,,,,,0.73525,1,,,,,,331,NW,"ID",33,gilfew,GILFEW,z,,,,,,0.178703704,-0.096296296,0,0,0,,0,305,305,270,1,
,,,,,,,,,,,,,,,,,,5f4e0155cf03293db269f873,2020-11-26_17h10.10.057,lexical_decision_task_MP_exp2,2020.2.5,Win32,60,z,1,0.668305,,,,,,,,0.668305,1,,,,,,262,NW,UN,16,dolica,QUILEW,z,,,,,,0.178703704,-0.096296296,0,0,0,,0,306,306,441,1,
,,,,,,,,,,,,,,,,,,5f4e0155cf03293db269f873,2020-11-26_17h10.10.057,lexical_decision_task_MP_exp2,2020.2.5,Win32,60,m,1,0.618305,,,,,,,,0.618305,1,,,,,,197,WORD,UN,33,wicked,STREAM,m,,,,,,0.178703704,-0.096296296,0,0,0,,0,307,307,136,1,
,,,,,,,,,,,,,,,,,,5f4e0155cf03293db269f873,2020-11-26_17h10.10.057,lexical_decision_task_MP_exp2,2020.2.5,Win32,60,m,1,0.63441,,,,,,,,0.63441,1,,,,,,7,WORD,UN,16,abrupt,ANCHOR,m,,,,,,0.178703704,-0.096296296,0,0,0,,0,308,308,186,1,
,,,,,,,,,,,,,,,,,,5f4e0155cf03293db269f873,2020-11-26_17h10.10.057,lexical_decision_task_MP_exp2,2020.2.5,Win32,60,m,1,0.768595,,,,,,,,0.768595,1,,,,,,36,WORD,UN,16,insult,VANISH,m,,,,,,0.178703704,-0.096296296,0,0,0,,0,309,309,215,1,
,,,,,,,,,,,,,,,,,,5f4e0155cf03293db269f873,2020-11-26_17h10.10.057,lexical_decision_task_MP_exp2,2020.2.5,Win32,60,m,1,0.567985,,,,,,,,0.567985,1,,,,,,83,WORD,"ID",33,result,RESULT,m,,,,,,0.178703704,-0.096296296,0,0,0,,0,310,310,22,1,
,,,,,,,,,,,,,,,,,,5f4e0155cf03293db269f873,2020-11-26_17h10.10.057,lexical_decision_task_MP_exp2,2020.2.5,Win32,60,m,1,0.76904,,,,,,,,0.76904,1,,,,,,182,WORD,UN,33,absent,WINTER,m,,,,,,0.178703704,-0.096296296,0,0,0,,0,311,311,121,1,
,,,,,,,,,,,,,,,,,,5f4e0155cf03293db269f873,2020-11-26_17h10.10.057,lexical_decision_task_MP_exp2,2020.2.5,Win32,60,z,1,0.767645,,,,,,,,0.767645,1,,,,,,439,NW,UN,33,saride,LIMPOR,z,,,,,,0.178703704,-0.096296296,0,0,0,,0,312,312,378,1,
,,,,,,,,,,,,,,,,,,5f4e0155cf03293db269f873,2020-11-26_17h10.10.057,lexical_decision_task_MP_exp2,2020.2.5,Win32,60,m,1,0.601445,,,,,,,,0.601445,1,,,,,,138,WORD,"ID",16,melody,MELODY,m,,,,,,0.178703704,-0.096296296,0,0,0,,0,313,313,77,1,
,,,,,,,,,,,,,,,,,,5f4e0155cf03293db269f873,2020-11-26_17h10.10.057,lexical_decision_task_MP_exp2,2020.2.5,Win32,60,m,1,0.76884,,,,,,,,0.76884,1,,,,,,128,WORD,"ID",16,senior,SENIOR,m,,,,,,0.178703704,-0.096296296,0,0,0,,0,314,314,67,1,
,,,,,,,,,,,,,,,,,,5f4e0155cf03293db269f873,2020-11-26_17h10.10.057,lexical_decision_task_MP_exp2,2020.2.5,Win32,60,m,1,0.58474,,,,,,,,0.58474,1,,,,,,179,WORD,"ID",16,basket,BASKET,m,,,,,,0.178703704,-0.096296296,0,0,0,,0,315,315,118,1,
,,,,,,,,,,,,,,,,,,5f4e0155cf03293db269f873,2020-11-26_17h10.10.057,lexical_decision_task_MP_exp2,2020.2.5,Win32,60,m,1,0.51759,,,,,,,,0.51759,1,,,,,,168,WORD,"ID",16,answer,ANSWER,m,,,,,,0.178703704,-0.096296296,0,0,0,,0,316,316,107,1,
,,,,,,,,,,,,,,,,,,5f4e0155cf03293db269f873,2020-11-26_17h10.10.057,lexical_decision_task_MP_exp2,2020.2.5,Win32,60,m,1,0.66762,,,,,,,,0.66762,1,,,,,,162,WORD,"ID",16,candle,CANDLE,m,,,,,,0.178703704,-0.096296296,0,0,0,,0,317,317,101,1,
,,,,,,,,,,,,,,,,,,5f4e0155cf03293db269f873,2020-11-26_17h10.10.057,lexical_decision_task_MP_exp2,2020.2.5,Win32,60,z,1,0.918195,,,,,,,,0.918195,1,,,,,,353,NW,"ID",33,clurey,CLUREY,z,,,,,,0.178703704,-0.096296296,0,0,0,,0,318,318,292,1,
,,,,,,,,,,,,,,,,,,5f4e0155cf03293db269f873,2020-11-26_17h10.10.057,lexical_decision_task_MP_exp2,2020.2.5,Win32,60,z,1,0.96849,,,,,,,,0.96849,1,,,,,,349,NW,"ID",33,asylen,ASYLEN,z,,,,,,0.178703704,-0.096296296,0,0,0,,0,319,319,288,1,
,,,,,,,,,,,,,,,,,,5f4e0155cf03293db269f873,2020-11-26_17h10.10.057,lexical_decision_task_MP_exp2,2020.2.5,Win32,60,m,1,0.616135,,,,,,,,0.616135,1,,,,,,116,WORD,"ID",33,tumble,TUMBLE,m,,,,,,0.178703704,-0.096296296,0,0,0,,0,320,320,55,1,
,,,,,,,,,,,,,,,,,,5f4e0155cf03293db269f873,2020-11-26_17h10.10.057,lexical_decision_task_MP_exp2,2020.2.5,Win32,60,m,1,0.723385,,,,,,,,0.723385,1,,,,,,43,WORD,UN,16,foster,TONGUE,m,,,,,,0.178703704,-0.096296296,0,0,0,,0,321,321,222,1,
,,,,,,,,,,,,,,,,,,5f4e0155cf03293db269f873,2020-11-26_17h10.10.057,lexical_decision_task_MP_exp2,2020.2.5,Win32,60,m,0,1.01526,,,,,,,,1.01526,0,,,,,,422,NW,UN,33,streld,ALCOUD,z,,,,,,0.178703704,-0.096296296,0,0,0,,0,322,322,361,1,
,,,,,,,,,,,,,,,,,,5f4e0155cf03293db269f873,2020-11-26_17h10.10.057,lexical_decision_task_MP_exp2,2020.2.5,Win32,60,z,0,0.6114,,,,,,,,0.6114,0,,,,,,103,WORD,"ID",33,bounce,BOUNCE,m,,,,,,0.178703704,-0.096296296,0,0,0,,0,323,323,42,1,
,,,,,,,,,,,,,,,,,,5f4e0155cf03293db269f873,2020-11-26_17h10.10.057,lexical_decision_task_MP_exp2,2020.2.5,Win32,60,z,1,0.741105,,,,,,,,0.741105,1,,,,,,366,NW,"ID",16,toshel,TOSHEL,z,,,,,,0.178703704,-0.096296296,0,0,0,,0,324,324,305,1,
,,,,,,,,,,,,,,,,,,5f4e0155cf03293db269f873,2020-11-26_17h10.10.057,lexical_decision_task_MP_exp2,2020.2.5,Win32,60,z,1,0.718815,,,,,,,,0.718815,1,,,,,,346,NW,"ID",33,saudic,SAUDIC,z,,,,,,0.178703704,-0.096296296,0,0,0,,0,325,325,285,1,
,,,,,,,,,,,,,,,,,,5f4e0155cf03293db269f873,2020-11-26_17h10.10.057,lexical_decision_task_MP_exp2,2020.2.5,Win32,60,m,1,0.69248,,,,,,,,0.69248,1,,,,,,82,WORD,"ID",33,stigma,STIGMA,m,,,,,,0.178703704,-0.096296296,0,0,0,,0,326,326,21,1,
,,,,,,,,,,,,,,,,,,5f4e0155cf03293db269f873,2020-11-26_17h10.10.057,lexical_decision_task_MP_exp2,2020.2.5,Win32,60,z,1,0.75785,,,,,,,,0.75785,1,,,,,,402,NW,"ID",16,syntic,SYNTIC,z,,,,,,0.178703704,-0.096296296,0,0,0,,0,327,327,341,1,
,,,,,,,,,,,,,,,,,,5f4e0155cf03293db269f873,2020-11-26_17h10.10.057,lexical_decision_task_MP_exp2,2020.2.5,Win32,60,m,0,0.6854,,,,,,,,0.6854,0,,,,,,444,NW,UN,33,minkel,JAUNCE,z,,,,,,0.178703704,-0.096296296,0,0,0,,0,328,328,383,1,
,,,,,,,,,,,,,,,,,,5f4e0155cf03293db269f873,2020-11-26_17h10.10.057,lexical_decision_task_MP_exp2,2020.2.5,Win32,60,m,1,0.551165,,,,,,,,0.551165,1,,,,,,206,WORD,UN,33,wreath,TAILOR,m,,,,,,0.178703704,-0.096296296,0,0,0,,0,329,329,145,1,
,,,,,,,,,,,,,,,,,,5f4e0155cf03293db269f873,2020-11-26_17h10.10.057,lexical_decision_task_MP_exp2,2020.2.5,Win32,60,z,1,0.784075,,,,,,,,0.784075,1,,,,,,280,NW,UN,16,melaty,CURBOL,z,,,,,,0.178703704,-0.096296296,0,0,0,,0,330,330,459,1,
,,,,,,,,,,,,,,,,,,5f4e0155cf03293db269f873,2020-11-26_17h10.10.057,lexical_decision_task_MP_exp2,2020.2.5,Win32,60,m,1,0.61839,,,,,,,,0.61839,1,,,,,,92,WORD,"ID",33,strand,STRAND,m,,,,,,0.178703704,-0.096296296,0,0,0,,0,331,331,31,1,
,,,,,,,,,,,,,,,,,,5f4e0155cf03293db269f873,2020-11-26_17h10.10.057,lexical_decision_task_MP_exp2,2020.2.5,Win32,60,m,1,0.55831,,,,,,,,0.55831,1,,,,,,54,WORD,UN,16,stroke,RAMBLE,m,,,,,,0.178703704,-0.096296296,0,0,0,,0,332,332,233,1,
,,,,,,,,,,,,,,,,,,5f4e0155cf03293db269f873,2020-11-26_17h10.10.057,lexical_decision_task_MP_exp2,2020.2.5,Win32,60,z,1,0.81933,,,,,,,,0.81933,1,,,,,,369,NW,"ID",16,wronch,WRONCH,z,,,,,,0.178703704,-0.096296296,0,0,0,,0,333,333,308,1,
,,,,,,,,,,,,,,,,,,5f4e0155cf03293db269f873,2020-11-26_17h10.10.057,lexical_decision_task_MP_exp2,2020.2.5,Win32,60,z,1,0.65041,,,,,,,,0.65041,1,,,,,,430,NW,UN,33,chrums,CAROEY,z,,,,,,0.178703704,-0.096296296,0,0,0,,0,334,334,369,1,
,,,,,,,,,,,,,,,,,,5f4e0155cf03293db269f873,2020-11-26_17h10.10.057,lexical_decision_task_MP_exp2,2020.2.5,Win32,60,m,1,0.584185,,,,,,,,0.584185,1,,,,,,132,WORD,"ID",16,strong,STRONG,m,,,,,,0.178703704,-0.096296296,0,0,0,,0,335,335,71,1,
,,,,,,,,,,,,,,,,,,5f4e0155cf03293db269f873,2020-11-26_17h10.10.057,lexical_decision_task_MP_exp2,2020.2.5,Win32,60,m,1,0.584805,,,,,,,,0.584805,1,,,,,,155,WORD,"ID",16,lizard,LIZARD,m,,,,,,0.178703704,-0.096296296,0,0,0,,0,336,336,94,1,
,,,,,,,,,,,,,,,,,,5f4e0155cf03293db269f873,2020-11-26_17h10.10.057,lexical_decision_task_MP_exp2,2020.2.5,Win32,60,z,1,0.73473,,,,,,,,0.73473,1,,,,,,378,NW,"ID",16,shrile,SHRILE,z,,,,,,0.178703704,-0.096296296,0,0,0,,0,337,337,317,1,
,,,,,,,,,,,,,,,,,,5f4e0155cf03293db269f873,2020-11-26_17h10.10.057,lexical_decision_task_MP_exp2,2020.2.5,Win32,60,m,0,0.751255,,,,,,,,0.751255,0,,,,,,473,NW,UN,33,hablin,CRIBLE,z,,,,,,0.178703704,-0.096296296,0,0,0,,0,338,338,412,1,
,,,,,,,,,,,,,,,,,,5f4e0155cf03293db269f873,2020-11-26_17h10.10.057,lexical_decision_task_MP_exp2,2020.2.5,Win32,60,m,1,0.50134,,,,,,,,0.50134,1,,,,,,146,WORD,"ID",16,couple,COUPLE,m,,,,,,0.178703704,-0.096296296,0,0,0,,0,339,339,85,1,
,,,,,,,,,,,,,,,,,,5f4e0155cf03293db269f873,2020-11-26_17h10.10.057,lexical_decision_task_MP_exp2,2020.2.5,Win32,60,z,0,0.7351,,,,,,,,0.7351,0,,,,,,187,WORD,UN,33,social,COURSE,m,,,,,,0.178703704,-0.096296296,0,0,0,,0,340,340,126,1,
,,,,,,,,,,,,,,,,,,5f4e0155cf03293db269f873,2020-11-26_17h10.10.057,lexical_decision_task_MP_exp2,2020.2.5,Win32,60,m,1,0.667615,,,,,,,,0.667615,1,,,,,,165,WORD,"ID",16,invest,INVEST,m,,,,,,0.178703704,-0.096296296,0,0,0,,0,341,341,104,1,
,,,,,,,,,,,,,,,,,,5f4e0155cf03293db269f873,2020-11-26_17h10.10.057,lexical_decision_task_MP_exp2,2020.2.5,Win32,60,z,1,0.668905,,,,,,,,0.668905,1,,,,,,243,NW,UN,16,eatric,MUSIED,z,,,,,,0.178703704,-0.096296296,0,0,0,,0,342,342,422,1,
,,,,,,,,,,,,,,,,,,5f4e0155cf03293db269f873,2020-11-26_17h10.10.057,lexical_decision_task_MP_exp2,2020.2.5,Win32,60,m,1,0.586045,,,,,,,,0.586045,1,,,,,,42,WORD,UN,16,tongue,CHAPEL,m,,,,,,0.178703704,-0.096296296,0,0,0,,0,343,343,221,1,
,,,,,,,,,,,,,,,,,,5f4e0155cf03293db269f873,2020-11-26_17h10.10.057,lexical_decision_task_MP_exp2,2020.2.5,Win32,60,z,1,0.701975,,,,,,,,0.701975,1,,,,,,259,NW,UN,16,unject,SOUDAL,z,,,,,,0.178703704,-0.096296296,0,0,0,,0,344,344,438,1,
,,,,,,,,,,,,,,,,,,5f4e0155cf03293db269f873,2020-11-26_17h10.10.057,lexical_decision_task_MP_exp2,2020.2.5,Win32,60,z,1,1.018885,,,,,,,,1.018885,1,,,,,,305,NW,"ID",33,forgle,FORGLE,z,,,,,,0.178703704,-0.096296296,0,0,0,,0,345,345,244,1,
,,,,,,,,,,,,,,,,,,5f4e0155cf03293db269f873,2020-11-26_17h10.10.057,lexical_decision_task_MP_exp2,2020.2.5,Win32,60,m,1,0.583745,,,,,,,,0.583745,1,,,,,,149,WORD,"ID",16,invade,INVADE,m,,,,,,0.178703704,-0.096296296,0,0,0,,0,346,346,88,1,
,,,,,,,,,,,,,,,,,,5f4e0155cf03293db269f873,2020-11-26_17h10.10.057,lexical_decision_task_MP_exp2,2020.2.5,Win32,60,m,1,0.835465,,,,,,,,0.835465,1,,,,,,75,WORD,"ID",33,trophy,TROPHY,m,,,,,,0.178703704,-0.096296296,0,0,0,,0,347,347,14,1,
,,,,,,,,,,,,,,,,,,5f4e0155cf03293db269f873,2020-11-26_17h10.10.057,lexical_decision_task_MP_exp2,2020.2.5,Win32,60,z,1,0.634785,,,,,,,,0.634785,1,,,,,,254,NW,UN,16,apight,VAROSH,z,,,,,,0.178703704,-0.096296296,0,0,0,,0,348,348,433,1,
,,,,,,,,,,,,,,,,,,5f4e0155cf03293db269f873,2020-11-26_17h10.10.057,lexical_decision_task_MP_exp2,2020.2.5,Win32,60,z,1,0.86845,,,,,,,,0.86845,1,,,,,,459,NW,UN,33,mingar,BAFENT,z,,,,,,0.178703704,-0.096296296,0,0,0,,0,349,349,398,1,
,,,,,,,,,,,,,,,,,,5f4e0155cf03293db269f873,2020-11-26_17h10.10.057,lexical_decision_task_MP_exp2,2020.2.5,Win32,60,z,1,0.77003,,,,,,,,0.77003,1,,,,,,281,NW,UN,16,porlex,MELATY,z,,,,,,0.178703704,-0.096296296,0,0,0,,0,350,350,460,1,
,,,,,,,,,,,,,,,,,,5f4e0155cf03293db269f873,2020-11-26_17h10.10.057,lexical_decision_task_MP_exp2,2020.2.5,Win32,60,m,1,0.621035,,,,,,,,0.621035,1,,,,,,211,WORD,UN,33,verify,INFECT,m,,,,,,0.178703704,-0.096296296,0,0,0,,0,351,351,150,1,
,,,,,,,,,,,,,,,,,,5f4e0155cf03293db269f873,2020-11-26_17h10.10.057,lexical_decision_task_MP_exp2,2020.2.5,Win32,60,m,1,0.501175,,,,,,,,0.501175,1,,,,,,70,WORD,"ID",33,square,SQUARE,m,,,,,,0.178703704,-0.096296296,0,0,0,,0,352,352,9,1,
,,,,,,,,,,,,,,,,,,5f4e0155cf03293db269f873,2020-11-26_17h10.10.057,lexical_decision_task_MP_exp2,2020.2.5,Win32,60,z,1,0.67156,,,,,,,,0.67156,1,,,,,,312,NW,"ID",33,nerawl,NERAWL,z,,,,,,0.178703704,-0.096296296,0,0,0,,0,353,353,251,1,
,,,,,,,,,,,,,,,,,,5f4e0155cf03293db269f873,2020-11-26_17h10.10.057,lexical_decision_task_MP_exp2,2020.2.5,Win32,60,z,1,0.88451,,,,,,,,0.88451,1,,,,,,292,NW,UN,16,swance,ABLINT,z,,,,,,0.178703704,-0.096296296,0,0,0,,0,354,354,471,1,
,,,,,,,,,,,,,,,,,,5f4e0155cf03293db269f873,2020-11-26_17h10.10.057,lexical_decision_task_MP_exp2,2020.2.5,Win32,60,m,1,0.61813,,,,,,,,0.61813,1,,,,,,22,WORD,UN,16,wealth,JOCKEY,m,,,,,,0.178703704,-0.096296296,0,0,0,,0,355,355,201,1,
,,,,,,,,,,,,,,,,,,5f4e0155cf03293db269f873,2020-11-26_17h10.10.057,lexical_decision_task_MP_exp2,2020.2.5,Win32,60,m,1,0.58505,,,,,,,,0.58505,1,,,,,,207,WORD,UN,33,hockey,WREATH,m,,,,,,0.178703704,-0.096296296,0,0,0,,0,356,356,146,1,
,,,,,,,,,,,,,,,,,,5f4e0155cf03293db269f873,2020-11-26_17h10.10.057,lexical_decision_task_MP_exp2,2020.2.5,Win32,60,m,1,0.518975,,,,,,,,0.518975,1,,,,,,119,WORD,"ID",33,spider,SPIDER,m,,,,,,0.178703704,-0.096296296,0,0,0,,0,357,357,58,1,
,,,,,,,,,,,,,,,,,,5f4e0155cf03293db269f873,2020-11-26_17h10.10.057,lexical_decision_task_MP_exp2,2020.2.5,Win32,60,m,0,0.602095,,,,,,,,0.602095,0,,,,,,348,NW,"ID",33,dumple,DUMPLE,z,,,,,,0.178703704,-0.096296296,0,0,0,,0,358,358,287,1,
,,,,,,,,,,,,,,,,,,5f4e0155cf03293db269f873,2020-11-26_17h10.10.057,lexical_decision_task_MP_exp2,2020.2.5,Win32,60,m,1,0.735755,,,,,,,,0.735755,1,,,,,,59,WORD,UN,16,pencil,SPLINT,m,,,,,,0.178703704,-0.096296296,0,0,0,,0,359,359,238,1,
,,,,,,,,,,,,,,,,,,5f4e0155cf03293db269f873,2020-11-26_17h10.10.057,lexical_decision_task_MP_exp2,2020.2.5,Win32,60,m,1,0.533895,,,,,,,,0.533895,1,,,,,,49,WORD,UN,16,snatch,SURVEY,m,,,,,,0.178703704,-0.096296296,0,0,0,,0,360,360,228,1,
,,,,,,,,,,,,,,,,,,5f4e0155cf03293db269f873,2020-11-26_17h10.10.057,lexical_decision_task_MP_exp2,2020.2.5,Win32,60,m,1,0.618655,,,,,,,,0.618655,1,,,,,,29,WORD,UN,16,orient,SKETCH,m,,,,,,0.178703704,-0.096296296,0,0,0,,0,361,361,208,1,
,,,,,,,,,,,,,,,,,,5f4e0155cf03293db269f873,2020-11-26_17h10.10.057,lexical_decision_task_MP_exp2,2020.2.5,Win32,60,m,1,0.568425,,,,,,,,0.568425,1,,,,,,194,WORD,UN,33,resign,ABSENT,m,,,,,,0.178703704,-0.096296296,0,0,0,space,0,362,362,133,1,2.169535
,,,,,,,,,,,,,,,,,,5f4e0155cf03293db269f873,2020-11-26_17h10.10.057,lexical_decision_task_MP_exp2,2020.2.5,Win32,60,z,1,0.834955,,,,,,,,0.834955,1,,,,,,323,NW,"ID",33,rosail,ROSAIL,z,,,,,,0.178703704,-0.096296296,0,0,0,,0,363,363,262,1,
,,,,,,,,,,,,,,,,,,5f4e0155cf03293db269f873,2020-11-26_17h10.10.057,lexical_decision_task_MP_exp2,2020.2.5,Win32,60,z,1,1.28656,,,,,,,,1.28656,1,,,,,,466,NW,UN,33,robuly,HOCITE,z,,,,,,0.178703704,-0.096296296,0,0,0,,0,364,364,405,1,
,,,,,,,,,,,,,,,,,,5f4e0155cf03293db269f873,2020-11-26_17h10.10.057,lexical_decision_task_MP_exp2,2020.2.5,Win32,60,z,1,0.801185,,,,,,,,0.801185,1,,,,,,388,NW,"ID",16,cragin,CRAGIN,z,,,,,,0.178703704,-0.096296296,0,0,0,,0,365,365,327,1,
,,,,,,,,,,,,,,,,,,5f4e0155cf03293db269f873,2020-11-26_17h10.10.057,lexical_decision_task_MP_exp2,2020.2.5,Win32,60,m,1,0.709705,,,,,,,,0.709705,1,,,,,,239,WORD,UN,33,forest,LUMBER,m,,,,,,0.178703704,-0.096296296,0,0,0,,0,366,366,178,1,
,,,,,,,,,,,,,,,,,,5f4e0155cf03293db269f873,2020-11-26_17h10.10.057,lexical_decision_task_MP_exp2,2020.2.5,Win32,60,z,1,0.61387,,,,,,,,0.61387,1,,,,,,278,NW,UN,16,celond,UNIGHS,z,,,,,,0.178703704,-0.096296296,0,0,0,,0,367,367,457,1,
,,,,,,,,,,,,,,,,,,5f4e0155cf03293db269f873,2020-11-26_17h10.10.057,lexical_decision_task_MP_exp2,2020.2.5,Win32,60,m,1,0.562475,,,,,,,,0.562475,1,,,,,,2,WORD,UN,16,knight,BRIDGE,m,,,,,,0.178703704,-0.096296296,0,0,0,,0,368,368,181,1,
,,,,,,,,,,,,,,,,,,5f4e0155cf03293db269f873,2020-11-26_17h10.10.057,lexical_decision_task_MP_exp2,2020.2.5,Win32,60,z,1,0.86226,,,,,,,,0.86226,1,,,,,,476,NW,UN,33,photie,JOSTED,z,,,,,,0.178703704,-0.096296296,0,0,0,,0,369,369,415,1,
,,,,,,,,,,,,,,,,,,5f4e0155cf03293db269f873,2020-11-26_17h10.10.057,lexical_decision_task_MP_exp2,2020.2.5,Win32,60,m,0,0.551685,,,,,,,,0.551685,0,,,,,,398,NW,"ID",16,blunde,BLUNDE,z,,,,,,0.178703704,-0.096296296,0,0,0,,0,370,370,337,1,
,,,,,,,,,,,,,,,,,,5f4e0155cf03293db269f873,2020-11-26_17h10.10.057,lexical_decision_task_MP_exp2,2020.2.5,Win32,60,m,1,0.71353,,,,,,,,0.71353,1,,,,,,237,WORD,UN,33,glance,POSTER,m,,,,,,0.178703704,-0.096296296,0,0,0,,0,371,371,176,1,
,,,,,,,,,,,,,,,,,,5f4e0155cf03293db269f873,2020-11-26_17h10.10.057,lexical_decision_task_MP_exp2,2020.2.5,Win32,60,m,1,0.574445,,,,,,,,0.574445,1,,,,,,94,WORD,"ID",33,travel,TRAVEL,m,,,,,,0.178703704,-0.096296296,0,0,0,,0,372,372,33,1,
,,,,,,,,,,,,,,,,,,5f4e0155cf03293db269f873,2020-11-26_17h10.10.057,lexical_decision_task_MP_exp2,2020.2.5,Win32,60,m,1,0.767815,,,,,,,,0.767815,1,,,,,,208,WORD,UN,33,search,HOCKEY,m,,,,,,0.178703704,-0.096296296,0,0,0,,0,373,373,147,1,
,,,,,,,,,,,,,,,,,,5f4e0155cf03293db269f873,2020-11-26_17h10.10.057,lexical_decision_task_MP_exp2,2020.2.5,Win32,60,z,1,0.75208,,,,,,,,0.75208,1,,,,,,272,NW,UN,16,sortel,DAMILT,z,,,,,,0.178703704,-0.096296296,0,0,0,,0,374,374,451,1,
,,,,,,,,,,,,,,,,,,5f4e0155cf03293db269f873,2020-11-26_17h10.10.057,lexical_decision_task_MP_exp2,2020.2.5,Win32,60,z,1,1.31895,,,,,,,,1.31895,1,,,,,,415,NW,"ID",16,higsta,HIGSTA,z,,,,,,0.178703704,-0.096296296,0,0,0,,0,375,375,354,1,
,,,,,,,,,,,,,,,,,,5f4e0155cf03293db269f873,2020-11-26_17h10.10.057,lexical_decision_task_MP_exp2,2020.2.5,Win32,60,m,1,0.618845,,,,,,,,0.618845,1,,,,,,47,WORD,UN,16,walnut,INCOME,m,,,,,,0.178703704,-0.096296296,0,0,0,,0,376,376,226,1,
,,,,,,,,,,,,,,,,,,5f4e0155cf03293db269f873,2020-11-26_17h10.10.057,lexical_decision_task_MP_exp2,2020.2.5,Win32,60,m,1,0.73486,,,,,,,,0.73486,1,,,,,,159,WORD,"ID",16,detail,DETAIL,m,,,,,,0.178703704,-0.096296296,0,0,0,,0,377,377,98,1,
,,,,,,,,,,,,,,,,,,5f4e0155cf03293db269f873,2020-11-26_17h10.10.057,lexical_decision_task_MP_exp2,2020.2.5,Win32,60,z,1,1.035315,,,,,,,,1.035315,1,,,,,,329,NW,"ID",33,yarike,YARIKE,z,,,,,,0.178703704,-0.096296296,0,0,0,,0,378,378,268,1,
,,,,,,,,,,,,,,,,,,5f4e0155cf03293db269f873,2020-11-26_17h10.10.057,lexical_decision_task_MP_exp2,2020.2.5,Win32,60,z,1,1.06921,,,,,,,,1.06921,1,,,,,,411,NW,"ID",16,orchin,ORCHIN,z,,,,,,0.178703704,-0.096296296,0,0,0,,0,379,379,350,1,
,,,,,,,,,,,,,,,,,,5f4e0155cf03293db269f873,2020-11-26_17h10.10.057,lexical_decision_task_MP_exp2,2020.2.5,Win32,60,m,1,0.852925,,,,,,,,0.852925,1,,,,,,14,WORD,UN,16,orange,ALMOST,m,,,,,,0.178703704,-0.096296296,0,0,0,,0,380,380,193,1,
,,,,,,,,,,,,,,,,,,5f4e0155cf03293db269f873,2020-11-26_17h10.10.057,lexical_decision_task_MP_exp2,2020.2.5,Win32,60,m,0,0.836375,,,,,,,,0.836375,0,,,,,,260,NW,UN,16,stunch,UNJECT,z,,,,,,0.178703704,-0.096296296,0,0,0,,0,381,381,439,1,
,,,,,,,,,,,,,,,,,,5f4e0155cf03293db269f873,2020-11-26_17h10.10.057,lexical_decision_task_MP_exp2,2020.2.5,Win32,60,z,1,0.93435,,,,,,,,0.93435,1,,,,,,332,NW,"ID",33,vangue,VANGUE,z,,,,,,0.178703704,-0.096296296,0,0,0,,0,382,382,271,1,
,,,,,,,,,,,,,,,,,,5f4e0155cf03293db269f873,2020-11-26_17h10.10.057,lexical_decision_task_MP_exp2,2020.2.5,Win32,60,m,1,0.56846,,,,,,,,0.56846,1,,,,,,71,WORD,"ID",33,garden,GARDEN,m,,,,,,0.178703704,-0.096296296,0,0,0,,0,383,383,10,1,
,,,,,,,,,,,,,,,,,,5f4e0155cf03293db269f873,2020-11-26_17h10.10.057,lexical_decision_task_MP_exp2,2020.2.5,Win32,60,m,1,0.55187,,,,,,,,0.55187,1,,,,,,213,WORD,UN,33,intake,SQUEAL,m,,,,,,0.178703704,-0.096296296,0,0,0,,0,384,384,152,1,
,,,,,,,,,,,,,,,,,,5f4e0155cf03293db269f873,2020-11-26_17h10.10.057,lexical_decision_task_MP_exp2,2020.2.5,Win32,60,m,1,0.601355,,,,,,,,0.601355,1,,,,,,79,WORD,"ID",33,theory,THEORY,m,,,,,,0.178703704,-0.096296296,0,0,0,,0,385,385,18,1,
,,,,,,,,,,,,,,,,,,5f4e0155cf03293db269f873,2020-11-26_17h10.10.057,lexical_decision_task_MP_exp2,2020.2.5,Win32,60,m,1,0.68523,,,,,,,,0.68523,1,,,,,,97,WORD,"ID",33,client,CLIENT,m,,,,,,0.178703704,-0.096296296,0,0,0,,0,386,386,36,1,
,,,,,,,,,,,,,,,,,,5f4e0155cf03293db269f873,2020-11-26_17h10.10.057,lexical_decision_task_MP_exp2,2020.2.5,Win32,60,z,1,0.75119,,,,,,,,0.75119,1,,,,,,330,NW,"ID",33,kensom,KENSOM,z,,,,,,0.178703704,-0.096296296,0,0,0,,0,387,387,269,1,
,,,,,,,,,,,,,,,,,,5f4e0155cf03293db269f873,2020-11-26_17h10.10.057,lexical_decision_task_MP_exp2,2020.2.5,Win32,60,z,1,0.83533,,,,,,,,0.83533,1,,,,,,469,NW,UN,33,crudio,PADIFS,z,,,,,,0.178703704,-0.096296296,0,0,0,,0,388,388,408,1,
,,,,,,,,,,,,,,,,,,5f4e0155cf03293db269f873,2020-11-26_17h10.10.057,lexical_decision_task_MP_exp2,2020.2.5,Win32,60,m,1,0.802355,,,,,,,,0.802355,1,,,,,,25,WORD,UN,16,sprint,DOMAIN,m,,,,,,0.178703704,-0.096296296,0,0,0,,0,389,389,204,1,
,,,,,,,,,,,,,,,,,,5f4e0155cf03293db269f873,2020-11-26_17h10.10.057,lexical_decision_task_MP_exp2,2020.2.5,Win32,60,m,1,0.880485,,,,,,,,0.880485,1,,,,,,172,WORD,"ID",16,patrol,PATROL,m,,,,,,0.178703704,-0.096296296,0,0,0,,0,390,390,111,1,
,,,,,,,,,,,,,,,,,,5f4e0155cf03293db269f873,2020-11-26_17h10.10.057,lexical_decision_task_MP_exp2,2020.2.5,Win32,60,z,1,1.064735,,,,,,,,1.064735,1,,,,,,475,NW,UN,33,josted,PEBRIC,z,,,,,,0.178703704,-0.096296296,0,0,0,,0,391,391,414,1,
,,,,,,,,,,,,,,,,,,5f4e0155cf03293db269f873,2020-11-26_17h10.10.057,lexical_decision_task_MP_exp2,2020.2.5,Win32,60,z,1,0.958995,,,,,,,,0.958995,1,,,,,,249,NW,UN,16,milted,BATROL,z,,,,,,0.178703704,-0.096296296,0,0,0,,0,392,392,428,1,
,,,,,,,,,,,,,,,,,,5f4e0155cf03293db269f873,2020-11-26_17h10.10.057,lexical_decision_task_MP_exp2,2020.2.5,Win32,60,z,1,0.70213,,,,,,,,0.70213,1,,,,,,354,NW,"ID",33,virlex,VIRLEX,z,,,,,,0.178703704,-0.096296296,0,0,0,,0,393,393,293,1,
,,,,,,,,,,,,,,,,,,5f4e0155cf03293db269f873,2020-11-26_17h10.10.057,lexical_decision_task_MP_exp2,2020.2.5,Win32,60,z,1,0.809135,,,,,,,,0.809135,1,,,,,,432,NW,UN,33,drance,LUNKER,z,,,,,,0.178703704,-0.096296296,0,0,0,,0,394,394,371,1,
,,,,,,,,,,,,,,,,,,5f4e0155cf03293db269f873,2020-11-26_17h10.10.057,lexical_decision_task_MP_exp2,2020.2.5,Win32,60,z,1,0.601035,,,,,,,,0.601035,1,,,,,,387,NW,"ID",16,gronce,GRONCE,z,,,,,,0.178703704,-0.096296296,0,0,0,,0,395,395,326,1,
