counterbalancing_condition,instr_done_keyboard.keys,instr_done_keyboard.rt,instr_done_touch.x,instr_done_touch.y,instr_done_touch.leftButton,instr_done_touch.midButton,instr_done_touch.rightButton,instruction_pages.thisRepN,instruction_pages.thisTrialN,instruction_pages.thisN,instruction_pages.thisIndex,instruction_pages.ran,pageN,phase,instruct_text,has_image,instruct_image,participant,date,expName,psychopyVersion,OS,frameRate,response.keys,response.corr,response.rt,touch_resp.x,touch_resp.y,touch_resp.leftButton,touch_resp.midButton,touch_resp.rightButton,touch_resp.time,touch_resp.clicked_name,rt,corr,practice_trials.thisRepN,practice_trials.thisTrialN,practice_trials.thisN,practice_trials.thisIndex,practice_trials.ran,TrialID,StimulusType,Condition,PrimeDuration,Prime,Target,corrAns,end_of_practice_trials_pages.thisRepN,end_of_practice_trials_pages.thisTrialN,end_of_practice_trials_pages.thisN,end_of_practice_trials_pages.thisIndex,end_of_practice_trials_pages.ran,break_done_touch.x,break_done_touch.y,break_done_touch.leftButton,break_done_touch.midButton,break_done_touch.rightButton,break_done_keyboard.keys,experiment_trials.thisRepN,experiment_trials.thisTrialN,experiment_trials.thisN,experiment_trials.thisIndex,experiment_trials.ran,break_done_keyboard.rt
1,space,13.895095,0.544444632,-0.322222322,0,0,0,0,0,0,0,1,1,instructions,"INSTRUCTIONS
At the start of each trial, look at the hash marks (######) in the center of the screen. After a moment, a string of letters will appear. Your task is to indicate if the letter string forms a word or not (i.e., if it is a nonword). For example, AUTHOR is a word while AUTHON is a nonword.

Press the space bar or touch the button below to continue.",0,,5f50f0ce14987328c134c530,2020-11-26_15h59.05.049,lexical_decision_task_MP_exp2,2020.2.5,Win32,60,,,,,,,,,,,,,,,,,,,,,,,,,,,,,,,,,,,,,,,,,
,space,11.81573,0.544444632,-0.322222322,0,0,0,0,1,1,1,1,2,instructions,"If your device has a keyboard, press the 'Z' key for nonwords and the 'M' key for words.





Press the space bar or touch the button below to continue.",1,keyboard-example.gif,5f50f0ce14987328c134c530,2020-11-26_15h59.05.049,lexical_decision_task_MP_exp2,2020.2.5,Win32,60,,,,,,,,,,,,,,,,,,,,,,,,,,,,,,,,,,,,,,,,,
,space,1.90133,0.544444632,-0.322222322,0,0,0,0,2,2,2,1,3,instructions,"If you are using a touchscreen only device, use the buttons on the screen. Do not use the mouse.





Press the space bar or touch the button below to continue.",1,touchscreen-example.gif,5f50f0ce14987328c134c530,2020-11-26_15h59.05.049,lexical_decision_task_MP_exp2,2020.2.5,Win32,60,,,,,,,,,,,,,,,,,,,,,,,,,,,,,,,,,,,,,,,,,
,space,13.786125,0.544444632,-0.322222322,0,0,0,0,3,3,3,1,4,instructions,"It is very important that you respond as quickly and accurately as possible, as each letter string will only be on the screen for two seconds. If you do not respond within this time, the message 'Too slow!' will be displayed and the experiment will progress to the next letter string. The first 20 trials will be practice trials and you will receive feedback on your answers. 

Press the space bar or touch the button below to start the practice trials.",0,,5f50f0ce14987328c134c530,2020-11-26_15h59.05.049,lexical_decision_task_MP_exp2,2020.2.5,Win32,60,,,,,,,,,,,,,,,,,,,,,,,,,,,,,,,,,,,,,,,,,
,,,,,,,,,,,,,,,,,,5f50f0ce14987328c134c530,2020-11-26_15h59.05.049,lexical_decision_task_MP_exp2,2020.2.5,Win32,60,m,1,1.079505,,,,,,,,1.079505,1,0,0,0,4,1,1005,WORD,UN,33,abound,SQUEAK,m,,,,,,,,,,,,,,,,,
,,,,,,,,,,,,,,,,,,5f50f0ce14987328c134c530,2020-11-26_15h59.05.049,lexical_decision_task_MP_exp2,2020.2.5,Win32,60,z,0,0.043685,,,,,,,,0.043685,0,0,1,1,1,1,1002,WORD,"ID",33,adjust,ADJUST,m,,,,,,,,,,,,,,,,,
,,,,,,,,,,,,,,,,,,5f50f0ce14987328c134c530,2020-11-26_15h59.05.049,lexical_decision_task_MP_exp2,2020.2.5,Win32,60,z,1,0.808455,,,,,,,,0.808455,1,0,2,2,9,1,1010,NW,"ID",33,fariny,FARINY,z,,,,,,,,,,,,,,,,,
,,,,,,,,,,,,,,,,,,5f50f0ce14987328c134c530,2020-11-26_15h59.05.049,lexical_decision_task_MP_exp2,2020.2.5,Win32,60,m,1,0.601325,,,,,,,,0.601325,1,0,3,3,2,1,1003,WORD,"ID",16,almond,ALMOND,m,,,,,,,,,,,,,,,,,
,,,,,,,,,,,,,,,,,,5f50f0ce14987328c134c530,2020-11-26_15h59.05.049,lexical_decision_task_MP_exp2,2020.2.5,Win32,60,z,1,1.150445,,,,,,,,1.150445,1,0,4,4,14,1,1015,NW,UN,16,miaber,THRALE,z,,,,,,,,,,,,,,,,,
,,,,,,,,,,,,,,,,,,5f50f0ce14987328c134c530,2020-11-26_15h59.05.049,lexical_decision_task_MP_exp2,2020.2.5,Win32,60,z,1,0.98362,,,,,,,,0.98362,1,0,5,5,15,1,1016,NW,UN,16,mushed,WHAISE,z,,,,,,,,,,,,,,,,,
,,,,,,,,,,,,,,,,,,5f50f0ce14987328c134c530,2020-11-26_15h59.05.049,lexical_decision_task_MP_exp2,2020.2.5,Win32,60,z,1,0.73911,,,,,,,,0.73911,1,0,6,6,12,1,1013,NW,UN,33,adveil,SPRINY,z,,,,,,,,,,,,,,,,,
,,,,,,,,,,,,,,,,,,5f50f0ce14987328c134c530,2020-11-26_15h59.05.049,lexical_decision_task_MP_exp2,2020.2.5,Win32,60,m,0,0.967765,,,,,,,,0.967765,0,0,7,7,10,1,1011,NW,"ID",16,inlade,INLADE,z,,,,,,,,,,,,,,,,,
,,,,,,,,,,,,,,,,,,5f50f0ce14987328c134c530,2020-11-26_15h59.05.049,lexical_decision_task_MP_exp2,2020.2.5,Win32,60,z,1,0.805685,,,,,,,,0.805685,1,0,8,8,11,1,1012,NW,"ID",16,rashet,RASHET,z,,,,,,,,,,,,,,,,,
,,,,,,,,,,,,,,,,,,5f50f0ce14987328c134c530,2020-11-26_15h59.05.049,lexical_decision_task_MP_exp2,2020.2.5,Win32,60,m,1,0.67021,,,,,,,,0.67021,1,0,9,9,5,1,1006,WORD,UN,33,frenzy,OBTAIN,m,,,,,,,,,,,,,,,,,
,,,,,,,,,,,,,,,,,,5f50f0ce14987328c134c530,2020-11-26_15h59.05.049,lexical_decision_task_MP_exp2,2020.2.5,Win32,60,z,1,0.83403,,,,,,,,0.83403,1,0,10,10,8,1,1009,NW,"ID",33,aslert,ASLERT,z,,,,,,,,,,,,,,,,,
,,,,,,,,,,,,,,,,,,5f50f0ce14987328c134c530,2020-11-26_15h59.05.049,lexical_decision_task_MP_exp2,2020.2.5,Win32,60,m,1,0.76997,,,,,,,,0.76997,1,0,11,11,3,1,1004,WORD,"ID",16,matrix,MATRIX,m,,,,,,,,,,,,,,,,,
,,,,,,,,,,,,,,,,,,5f50f0ce14987328c134c530,2020-11-26_15h59.05.049,lexical_decision_task_MP_exp2,2020.2.5,Win32,60,m,1,0.759335,,,,,,,,0.759335,1,0,12,12,0,1,1001,WORD,"ID",33,utopia,UTOPIA,m,,,,,,,,,,,,,,,,,
,,,,,,,,,,,,,,,,,,5f50f0ce14987328c134c530,2020-11-26_15h59.05.049,lexical_decision_task_MP_exp2,2020.2.5,Win32,60,m,1,0.59038,,,,,,,,0.59038,1,0,13,13,6,1,1007,WORD,UN,16,tropic,ZOMBIE,m,,,,,,,,,,,,,,,,,
,,,,,,,,,,,,,,,,,,5f50f0ce14987328c134c530,2020-11-26_15h59.05.049,lexical_decision_task_MP_exp2,2020.2.5,Win32,60,m,1,0.601935,,,,,,,,0.601935,1,0,14,14,7,1,1008,WORD,UN,16,hurdle,VOLUME,m,,,,,,,,,,,,,,,,,
,,,,,,,,,,,,,,,,,,5f50f0ce14987328c134c530,2020-11-26_15h59.05.049,lexical_decision_task_MP_exp2,2020.2.5,Win32,60,z,1,0.85393,,,,,,,,0.85393,1,0,15,15,13,1,1014,NW,UN,33,winfer,ROUPET,z,,,,,,,,,,,,,,,,,
,space,10.60971,0.544444632,-0.322222322,0,0,0,,,,,,1,end_of_practice,"You have completed the practice trials. During the experimental trials, you will not receive feedback, but it is very important that you respond as quickly and accurately as possible. 
Before you begin, please ensure that you are in a comfortable and quiet location and will not be disturbed for about 15 minutes, as we cannot use your data if you do not complete all the trials. 
There will be opportunities to take breaks at regular intervals during the experiment. When you are ready to start the experimental trials, please press space or touch the button below.",,,5f50f0ce14987328c134c530,2020-11-26_15h59.05.049,lexical_decision_task_MP_exp2,2020.2.5,Win32,60,,,,,,,,,,,,,,,,,,,,,,,,,0,0,0,0,1,,,,,,,,,,,,
,,,,,,,,,,,,,,,,,,5f50f0ce14987328c134c530,2020-11-26_15h59.05.049,lexical_decision_task_MP_exp2,2020.2.5,Win32,60,z,1,0.75248,,,,,,,,0.75248,1,,,,,,306,NW,"ID",16,sounge,SOUNGE,z,,,,,,0.544444632,-0.322222322,0,0,0,,0,0,0,305,1,
,,,,,,,,,,,,,,,,,,5f50f0ce14987328c134c530,2020-11-26_15h59.05.049,lexical_decision_task_MP_exp2,2020.2.5,Win32,60,m,1,0.61557,,,,,,,,0.61557,1,,,,,,196,WORD,UN,16,stream,CREDIT,m,,,,,,0.544444632,-0.322222322,0,0,0,,0,1,1,195,1,
,,,,,,,,,,,,,,,,,,5f50f0ce14987328c134c530,2020-11-26_15h59.05.049,lexical_decision_task_MP_exp2,2020.2.5,Win32,60,m,1,0.563855,,,,,,,,0.563855,1,,,,,,173,WORD,UN,33,turkey,SHOWER,m,,,,,,0.544444632,-0.322222322,0,0,0,,0,2,2,172,1,
,,,,,,,,,,,,,,,,,,5f50f0ce14987328c134c530,2020-11-26_15h59.05.049,lexical_decision_task_MP_exp2,2020.2.5,Win32,60,m,1,1.028405,,,,,,,,1.028405,1,,,,,,187,WORD,UN,16,social,COURSE,m,,,,,,0.544444632,-0.322222322,0,0,0,,0,3,3,186,1,
,,,,,,,,,,,,,,,,,,5f50f0ce14987328c134c530,2020-11-26_15h59.05.049,lexical_decision_task_MP_exp2,2020.2.5,Win32,60,m,1,0.586295,,,,,,,,0.586295,1,,,,,,205,WORD,UN,16,tailor,LOUNGE,m,,,,,,0.544444632,-0.322222322,0,0,0,,0,4,4,204,1,
,,,,,,,,,,,,,,,,,,5f50f0ce14987328c134c530,2020-11-26_15h59.05.049,lexical_decision_task_MP_exp2,2020.2.5,Win32,60,z,1,0.6138,,,,,,,,0.6138,1,,,,,,394,NW,UN,33,colury,SPAQUX,z,,,,,,0.544444632,-0.322222322,0,0,0,,0,5,5,393,1,
,,,,,,,,,,,,,,,,,,5f50f0ce14987328c134c530,2020-11-26_15h59.05.049,lexical_decision_task_MP_exp2,2020.2.5,Win32,60,m,1,0.712575,,,,,,,,0.712575,1,,,,,,160,WORD,UN,33,dragon,VIOLET,m,,,,,,0.544444632,-0.322222322,0,0,0,,0,6,6,159,1,
,,,,,,,,,,,,,,,,,,5f50f0ce14987328c134c530,2020-11-26_15h59.05.049,lexical_decision_task_MP_exp2,2020.2.5,Win32,60,m,1,0.65402,,,,,,,,0.65402,1,,,,,,59,WORD,"ID",33,splint,SPLINT,m,,,,,,0.544444632,-0.322222322,0,0,0,,0,7,7,58,1,
,,,,,,,,,,,,,,,,,,5f50f0ce14987328c134c530,2020-11-26_15h59.05.049,lexical_decision_task_MP_exp2,2020.2.5,Win32,60,m,0,0.79616,,,,,,,,0.79616,0,,,,,,368,NW,UN,33,wronch,HORNAL,z,,,,,,0.544444632,-0.322222322,0,0,0,,0,8,8,367,1,
,,,,,,,,,,,,,,,,,,5f50f0ce14987328c134c530,2020-11-26_15h59.05.049,lexical_decision_task_MP_exp2,2020.2.5,Win32,60,m,1,0.61888,,,,,,,,0.61888,1,,,,,,34,WORD,"ID",33,jungle,JUNGLE,m,,,,,,0.544444632,-0.322222322,0,0,0,,0,9,9,33,1,
,,,,,,,,,,,,,,,,,,5f50f0ce14987328c134c530,2020-11-26_15h59.05.049,lexical_decision_task_MP_exp2,2020.2.5,Win32,60,z,1,0.80584,,,,,,,,0.80584,1,,,,,,400,NW,UN,33,mustil,WEAROX,z,,,,,,0.544444632,-0.322222322,0,0,0,,0,10,10,399,1,
,,,,,,,,,,,,,,,,,,5f50f0ce14987328c134c530,2020-11-26_15h59.05.049,lexical_decision_task_MP_exp2,2020.2.5,Win32,60,z,1,0.77403,,,,,,,,0.77403,1,,,,,,314,NW,"ID",16,sprine,SPRINE,z,,,,,,0.544444632,-0.322222322,0,0,0,,0,11,11,313,1,
,,,,,,,,,,,,,,,,,,5f50f0ce14987328c134c530,2020-11-26_15h59.05.049,lexical_decision_task_MP_exp2,2020.2.5,Win32,60,m,1,0.730995,,,,,,,,0.730995,1,,,,,,75,WORD,"ID",16,trophy,TROPHY,m,,,,,,0.544444632,-0.322222322,0,0,0,,0,12,12,74,1,
,,,,,,,,,,,,,,,,,,5f50f0ce14987328c134c530,2020-11-26_15h59.05.049,lexical_decision_task_MP_exp2,2020.2.5,Win32,60,m,1,0.674265,,,,,,,,0.674265,1,,,,,,93,WORD,"ID",16,public,PUBLIC,m,,,,,,0.544444632,-0.322222322,0,0,0,,0,13,13,92,1,
,,,,,,,,,,,,,,,,,,5f50f0ce14987328c134c530,2020-11-26_15h59.05.049,lexical_decision_task_MP_exp2,2020.2.5,Win32,60,m,1,0.79632,,,,,,,,0.79632,1,,,,,,184,WORD,UN,16,bother,SLEAZY,m,,,,,,0.544444632,-0.322222322,0,0,0,,0,14,14,183,1,
,,,,,,,,,,,,,,,,,,5f50f0ce14987328c134c530,2020-11-26_15h59.05.049,lexical_decision_task_MP_exp2,2020.2.5,Win32,60,m,1,0.938665,,,,,,,,0.938665,1,,,,,,157,WORD,UN,33,island,DRAGON,m,,,,,,0.544444632,-0.322222322,0,0,0,,0,15,15,156,1,
,,,,,,,,,,,,,,,,,,5f50f0ce14987328c134c530,2020-11-26_15h59.05.049,lexical_decision_task_MP_exp2,2020.2.5,Win32,60,m,1,0.588,,,,,,,,0.588,1,,,,,,20,WORD,"ID",33,breast,BREAST,m,,,,,,0.544444632,-0.322222322,0,0,0,,0,16,16,19,1,
,,,,,,,,,,,,,,,,,,5f50f0ce14987328c134c530,2020-11-26_15h59.05.049,lexical_decision_task_MP_exp2,2020.2.5,Win32,60,z,1,0.73328,,,,,,,,0.73328,1,,,,,,457,NW,UN,16,barcet,WANIGH,z,,,,,,0.544444632,-0.322222322,0,0,0,,0,17,17,456,1,
,,,,,,,,,,,,,,,,,,5f50f0ce14987328c134c530,2020-11-26_15h59.05.049,lexical_decision_task_MP_exp2,2020.2.5,Win32,60,m,1,0.598295,,,,,,,,0.598295,1,,,,,,39,WORD,"ID",33,insect,INSECT,m,,,,,,0.544444632,-0.322222322,0,0,0,,0,18,18,38,1,
,,,,,,,,,,,,,,,,,,5f50f0ce14987328c134c530,2020-11-26_15h59.05.049,lexical_decision_task_MP_exp2,2020.2.5,Win32,60,z,0,0.919465,,,,,,,,0.919465,0,,,,,,111,WORD,"ID",16,induce,INDUCE,m,,,,,,0.544444632,-0.322222322,0,0,0,,0,19,19,110,1,
,,,,,,,,,,,,,,,,,,5f50f0ce14987328c134c530,2020-11-26_15h59.05.049,lexical_decision_task_MP_exp2,2020.2.5,Win32,60,z,1,1.012765,,,,,,,,1.012765,1,,,,,,433,NW,UN,16,pitrom,DRANCE,z,,,,,,0.544444632,-0.322222322,0,0,0,,0,20,20,432,1,
,,,,,,,,,,,,,,,,,,5f50f0ce14987328c134c530,2020-11-26_15h59.05.049,lexical_decision_task_MP_exp2,2020.2.5,Win32,60,m,1,0.670285,,,,,,,,0.670285,1,,,,,,48,WORD,"ID",33,walnut,WALNUT,m,,,,,,0.544444632,-0.322222322,0,0,0,,0,21,21,47,1,
,,,,,,,,,,,,,,,,,,5f50f0ce14987328c134c530,2020-11-26_15h59.05.049,lexical_decision_task_MP_exp2,2020.2.5,Win32,60,z,1,0.969655,,,,,,,,0.969655,1,,,,,,448,NW,UN,16,brunge,SADENT,z,,,,,,0.544444632,-0.322222322,0,0,0,,0,22,22,447,1,
,,,,,,,,,,,,,,,,,,5f50f0ce14987328c134c530,2020-11-26_15h59.05.049,lexical_decision_task_MP_exp2,2020.2.5,Win32,60,m,1,0.73369,,,,,,,,0.73369,1,,,,,,32,WORD,"ID",33,buckle,BUCKLE,m,,,,,,0.544444632,-0.322222322,0,0,0,,0,23,23,31,1,
,,,,,,,,,,,,,,,,,,5f50f0ce14987328c134c530,2020-11-26_15h59.05.049,lexical_decision_task_MP_exp2,2020.2.5,Win32,60,m,1,0.73481,,,,,,,,0.73481,1,,,,,,137,WORD,UN,33,melody,FINGER,m,,,,,,0.544444632,-0.322222322,0,0,0,,0,24,24,136,1,
,,,,,,,,,,,,,,,,,,5f50f0ce14987328c134c530,2020-11-26_15h59.05.049,lexical_decision_task_MP_exp2,2020.2.5,Win32,60,m,1,0.60167,,,,,,,,0.60167,1,,,,,,129,WORD,UN,33,stupid,MARVEL,m,,,,,,0.544444632,-0.322222322,0,0,0,,0,25,25,128,1,
,,,,,,,,,,,,,,,,,,5f50f0ce14987328c134c530,2020-11-26_15h59.05.049,lexical_decision_task_MP_exp2,2020.2.5,Win32,60,z,1,0.733605,,,,,,,,0.733605,1,,,,,,308,NW,"ID",16,psetch,PSETCH,z,,,,,,0.544444632,-0.322222322,0,0,0,,0,26,26,307,1,
,,,,,,,,,,,,,,,,,,5f50f0ce14987328c134c530,2020-11-26_15h59.05.049,lexical_decision_task_MP_exp2,2020.2.5,Win32,60,m,1,0.655185,,,,,,,,0.655185,1,,,,,,30,WORD,"ID",33,orient,ORIENT,m,,,,,,0.544444632,-0.322222322,0,0,0,,0,27,27,29,1,
,,,,,,,,,,,,,,,,,,5f50f0ce14987328c134c530,2020-11-26_15h59.05.049,lexical_decision_task_MP_exp2,2020.2.5,Win32,60,m,1,0.57254,,,,,,,,0.57254,1,,,,,,152,WORD,UN,33,behold,ROCKET,m,,,,,,0.544444632,-0.322222322,0,0,0,,0,28,28,151,1,
,,,,,,,,,,,,,,,,,,5f50f0ce14987328c134c530,2020-11-26_15h59.05.049,lexical_decision_task_MP_exp2,2020.2.5,Win32,60,z,1,0.766405,,,,,,,,0.766405,1,,,,,,275,NW,"ID",33,sleirt,SLEIRT,z,,,,,,0.544444632,-0.322222322,0,0,0,,0,29,29,274,1,
,,,,,,,,,,,,,,,,,,5f50f0ce14987328c134c530,2020-11-26_15h59.05.049,lexical_decision_task_MP_exp2,2020.2.5,Win32,60,z,1,0.874325,,,,,,,,0.874325,1,,,,,,284,NW,"ID",33,shaple,SHAPLE,z,,,,,,0.544444632,-0.322222322,0,0,0,,0,30,30,283,1,
,,,,,,,,,,,,,,,,,,5f50f0ce14987328c134c530,2020-11-26_15h59.05.049,lexical_decision_task_MP_exp2,2020.2.5,Win32,60,m,1,0.60204,,,,,,,,0.60204,1,,,,,,197,WORD,UN,16,wicked,STREAM,m,,,,,,0.544444632,-0.322222322,0,0,0,,0,31,31,196,1,
,,,,,,,,,,,,,,,,,,5f50f0ce14987328c134c530,2020-11-26_15h59.05.049,lexical_decision_task_MP_exp2,2020.2.5,Win32,60,m,1,0.61633,,,,,,,,0.61633,1,,,,,,181,WORD,UN,16,winter,GLANCE,m,,,,,,0.544444632,-0.322222322,0,0,0,,0,32,32,180,1,
,,,,,,,,,,,,,,,,,,5f50f0ce14987328c134c530,2020-11-26_15h59.05.049,lexical_decision_task_MP_exp2,2020.2.5,Win32,60,m,1,0.56621,,,,,,,,0.56621,1,,,,,,25,WORD,"ID",33,domain,DOMAIN,m,,,,,,0.544444632,-0.322222322,0,0,0,,0,33,33,24,1,
,,,,,,,,,,,,,,,,,,5f50f0ce14987328c134c530,2020-11-26_15h59.05.049,lexical_decision_task_MP_exp2,2020.2.5,Win32,60,z,1,1.163685,,,,,,,,1.163685,1,,,,,,372,NW,UN,33,bigent,RAMILY,z,,,,,,0.544444632,-0.322222322,0,0,0,,0,34,34,371,1,
,,,,,,,,,,,,,,,,,,5f50f0ce14987328c134c530,2020-11-26_15h59.05.049,lexical_decision_task_MP_exp2,2020.2.5,Win32,60,z,1,0.830915,,,,,,,,0.830915,1,,,,,,471,NW,UN,16,cigney,NOBEST,z,,,,,,0.544444632,-0.322222322,0,0,0,,0,35,35,470,1,
,,,,,,,,,,,,,,,,,,5f50f0ce14987328c134c530,2020-11-26_15h59.05.049,lexical_decision_task_MP_exp2,2020.2.5,Win32,60,z,1,0.60636,,,,,,,,0.60636,1,,,,,,339,NW,"ID",16,fachow,FACHOW,z,,,,,,0.544444632,-0.322222322,0,0,0,,0,36,36,338,1,
,,,,,,,,,,,,,,,,,,5f50f0ce14987328c134c530,2020-11-26_15h59.05.049,lexical_decision_task_MP_exp2,2020.2.5,Win32,60,m,1,0.604955,,,,,,,,0.604955,1,,,,,,153,WORD,UN,33,author,BEHOLD,m,,,,,,0.544444632,-0.322222322,0,0,0,,0,37,37,152,1,
,,,,,,,,,,,,,,,,,,5f50f0ce14987328c134c530,2020-11-26_15h59.05.049,lexical_decision_task_MP_exp2,2020.2.5,Win32,60,m,1,0.68431,,,,,,,,0.68431,1,,,,,,95,WORD,"ID",16,thread,THREAD,m,,,,,,0.544444632,-0.322222322,0,0,0,,0,38,38,94,1,
,,,,,,,,,,,,,,,,,,5f50f0ce14987328c134c530,2020-11-26_15h59.05.049,lexical_decision_task_MP_exp2,2020.2.5,Win32,60,z,1,0.585875,,,,,,,,0.585875,1,,,,,,351,NW,"ID",16,tiesch,TIESCH,z,,,,,,0.544444632,-0.322222322,0,0,0,,0,39,39,350,1,
,,,,,,,,,,,,,,,,,,5f50f0ce14987328c134c530,2020-11-26_15h59.05.049,lexical_decision_task_MP_exp2,2020.2.5,Win32,60,z,1,0.57468,,,,,,,,0.57468,1,,,,,,290,NW,"ID",33,splino,SPLINO,z,,,,,,0.544444632,-0.322222322,0,0,0,,0,40,40,289,1,
,,,,,,,,,,,,,,,,,,5f50f0ce14987328c134c530,2020-11-26_15h59.05.049,lexical_decision_task_MP_exp2,2020.2.5,Win32,60,z,1,0.86874,,,,,,,,0.86874,1,,,,,,297,NW,"ID",33,fertic,FERTIC,z,,,,,,0.544444632,-0.322222322,0,0,0,,0,41,41,296,1,
,,,,,,,,,,,,,,,,,,5f50f0ce14987328c134c530,2020-11-26_15h59.05.049,lexical_decision_task_MP_exp2,2020.2.5,Win32,60,z,1,0.71797,,,,,,,,0.71797,1,,,,,,328,NW,"ID",16,broake,BROAKE,z,,,,,,0.544444632,-0.322222322,0,0,0,,0,42,42,327,1,
,,,,,,,,,,,,,,,,,,5f50f0ce14987328c134c530,2020-11-26_15h59.05.049,lexical_decision_task_MP_exp2,2020.2.5,Win32,60,m,1,0.60089,,,,,,,,0.60089,1,,,,,,15,WORD,"ID",33,amount,AMOUNT,m,,,,,,0.544444632,-0.322222322,0,0,0,,0,43,43,14,1,
,,,,,,,,,,,,,,,,,,5f50f0ce14987328c134c530,2020-11-26_15h59.05.049,lexical_decision_task_MP_exp2,2020.2.5,Win32,60,z,1,0.568755,,,,,,,,0.568755,1,,,,,,291,NW,"ID",33,pretch,PRETCH,z,,,,,,0.544444632,-0.322222322,0,0,0,,0,44,44,290,1,
,,,,,,,,,,,,,,,,,,5f50f0ce14987328c134c530,2020-11-26_15h59.05.049,lexical_decision_task_MP_exp2,2020.2.5,Win32,60,m,1,0.6011,,,,,,,,0.6011,1,,,,,,51,WORD,"ID",33,hungry,HUNGRY,m,,,,,,0.544444632,-0.322222322,0,0,0,,0,45,45,50,1,
,,,,,,,,,,,,,,,,,,5f50f0ce14987328c134c530,2020-11-26_15h59.05.049,lexical_decision_task_MP_exp2,2020.2.5,Win32,60,z,1,0.910885,,,,,,,,0.910885,1,,,,,,298,NW,"ID",33,piergy,PIERGY,z,,,,,,0.544444632,-0.322222322,0,0,0,,0,46,46,297,1,
,,,,,,,,,,,,,,,,,,5f50f0ce14987328c134c530,2020-11-26_15h59.05.049,lexical_decision_task_MP_exp2,2020.2.5,Win32,60,m,1,0.591205,,,,,,,,0.591205,1,,,,,,53,WORD,"ID",33,police,POLICE,m,,,,,,0.544444632,-0.322222322,0,0,0,,0,47,47,52,1,
,,,,,,,,,,,,,,,,,,5f50f0ce14987328c134c530,2020-11-26_15h59.05.049,lexical_decision_task_MP_exp2,2020.2.5,Win32,60,z,1,0.71801,,,,,,,,0.71801,1,,,,,,281,NW,"ID",33,melaty,MELATY,z,,,,,,0.544444632,-0.322222322,0,0,0,,0,48,48,280,1,
,,,,,,,,,,,,,,,,,,5f50f0ce14987328c134c530,2020-11-26_15h59.05.049,lexical_decision_task_MP_exp2,2020.2.5,Win32,60,z,1,0.654665,,,,,,,,0.654665,1,,,,,,391,NW,UN,33,rouncy,THELDY,z,,,,,,0.544444632,-0.322222322,0,0,0,,0,49,49,390,1,
,,,,,,,,,,,,,,,,,,5f50f0ce14987328c134c530,2020-11-26_15h59.05.049,lexical_decision_task_MP_exp2,2020.2.5,Win32,60,m,1,0.5693,,,,,,,,0.5693,1,,,,,,237,WORD,UN,16,seldom,POSTER,m,,,,,,0.544444632,-0.322222322,0,0,0,,0,50,50,236,1,
,,,,,,,,,,,,,,,,,,5f50f0ce14987328c134c530,2020-11-26_15h59.05.049,lexical_decision_task_MP_exp2,2020.2.5,Win32,60,z,1,0.82093,,,,,,,,0.82093,1,,,,,,380,NW,UN,33,huniek,CAVORY,z,,,,,,0.544444632,-0.322222322,0,0,0,,0,51,51,379,1,
,,,,,,,,,,,,,,,,,,5f50f0ce14987328c134c530,2020-11-26_15h59.05.049,lexical_decision_task_MP_exp2,2020.2.5,Win32,60,m,1,0.753225,,,,,,,,0.753225,1,,,,,,16,WORD,"ID",33,faucet,FAUCET,m,,,,,,0.544444632,-0.322222322,0,0,0,,0,52,52,15,1,
,,,,,,,,,,,,,,,,,,5f50f0ce14987328c134c530,2020-11-26_15h59.05.049,lexical_decision_task_MP_exp2,2020.2.5,Win32,60,z,1,0.7182,,,,,,,,0.7182,1,,,,,,309,NW,"ID",16,amiloy,AMILOY,z,,,,,,0.544444632,-0.322222322,0,0,0,,0,53,53,308,1,
,,,,,,,,,,,,,,,,,,5f50f0ce14987328c134c530,2020-11-26_15h59.05.049,lexical_decision_task_MP_exp2,2020.2.5,Win32,60,z,1,1.02376,,,,,,,,1.02376,1,,,,,,269,NW,"ID",33,orchet,ORCHET,z,,,,,,0.544444632,-0.322222322,0,0,0,,0,54,54,268,1,
,,,,,,,,,,,,,,,,,,5f50f0ce14987328c134c530,2020-11-26_15h59.05.049,lexical_decision_task_MP_exp2,2020.2.5,Win32,60,z,1,0.59234,,,,,,,,0.59234,1,,,,,,359,NW,"ID",16,fonver,FONVER,z,,,,,,0.544444632,-0.322222322,0,0,0,,0,55,55,358,1,
,,,,,,,,,,,,,,,,,,5f50f0ce14987328c134c530,2020-11-26_15h59.05.049,lexical_decision_task_MP_exp2,2020.2.5,Win32,60,z,1,0.62513,,,,,,,,0.62513,1,,,,,,440,NW,UN,16,cainky,SARIDE,z,,,,,,0.544444632,-0.322222322,0,0,0,,0,56,56,439,1,
,,,,,,,,,,,,,,,,,,5f50f0ce14987328c134c530,2020-11-26_15h59.05.049,lexical_decision_task_MP_exp2,2020.2.5,Win32,60,m,0,0.651935,,,,,,,,0.651935,0,,,,,,303,NW,"ID",16,fiream,FIREAM,z,,,,,,0.544444632,-0.322222322,0,0,0,,0,57,57,302,1,
,,,,,,,,,,,,,,,,,,5f50f0ce14987328c134c530,2020-11-26_15h59.05.049,lexical_decision_task_MP_exp2,2020.2.5,Win32,60,m,1,0.80915,,,,,,,,0.80915,1,,,,,,194,WORD,UN,16,resign,ABSENT,m,,,,,,0.544444632,-0.322222322,0,0,0,,0,58,58,193,1,
,,,,,,,,,,,,,,,,,,5f50f0ce14987328c134c530,2020-11-26_15h59.05.049,lexical_decision_task_MP_exp2,2020.2.5,Win32,60,z,1,1.13287,,,,,,,,1.13287,1,,,,,,271,NW,"ID",33,aubrid,AUBRID,z,,,,,,0.544444632,-0.322222322,0,0,0,,0,59,59,270,1,
,,,,,,,,,,,,,,,,,,5f50f0ce14987328c134c530,2020-11-26_15h59.05.049,lexical_decision_task_MP_exp2,2020.2.5,Win32,60,m,1,0.63609,,,,,,,,0.63609,1,,,,,,185,WORD,UN,16,portal,BOTHER,m,,,,,,0.544444632,-0.322222322,0,0,0,,0,60,60,184,1,
,,,,,,,,,,,,,,,,,,5f50f0ce14987328c134c530,2020-11-26_15h59.05.049,lexical_decision_task_MP_exp2,2020.2.5,Win32,60,m,1,0.79143,,,,,,,,0.79143,1,,,,,,5,WORD,"ID",33,plunge,PLUNGE,m,,,,,,0.544444632,-0.322222322,0,0,0,,0,61,61,4,1,
,,,,,,,,,,,,,,,,,,5f50f0ce14987328c134c530,2020-11-26_15h59.05.049,lexical_decision_task_MP_exp2,2020.2.5,Win32,60,z,1,1.13743,,,,,,,,1.13743,1,,,,,,280,NW,"ID",33,curbol,CURBOL,z,,,,,,0.544444632,-0.322222322,0,0,0,,0,62,62,279,1,
,,,,,,,,,,,,,,,,,,5f50f0ce14987328c134c530,2020-11-26_15h59.05.049,lexical_decision_task_MP_exp2,2020.2.5,Win32,60,m,1,0.584685,,,,,,,,0.584685,1,,,,,,224,WORD,UN,16,vulgar,PERIOD,m,,,,,,0.544444632,-0.322222322,0,0,0,,0,63,63,223,1,
,,,,,,,,,,,,,,,,,,5f50f0ce14987328c134c530,2020-11-26_15h59.05.049,lexical_decision_task_MP_exp2,2020.2.5,Win32,60,m,1,0.734845,,,,,,,,0.734845,1,,,,,,50,WORD,"ID",33,snatch,SNATCH,m,,,,,,0.544444632,-0.322222322,0,0,0,,0,64,64,49,1,
,,,,,,,,,,,,,,,,,,5f50f0ce14987328c134c530,2020-11-26_15h59.05.049,lexical_decision_task_MP_exp2,2020.2.5,Win32,60,m,1,0.533795,,,,,,,,0.533795,1,,,,,,130,WORD,UN,33,quench,STUPID,m,,,,,,0.544444632,-0.322222322,0,0,0,,0,65,65,129,1,
,,,,,,,,,,,,,,,,,,5f50f0ce14987328c134c530,2020-11-26_15h59.05.049,lexical_decision_task_MP_exp2,2020.2.5,Win32,60,z,1,0.704485,,,,,,,,0.704485,1,,,,,,386,NW,UN,33,gronce,ANCUST,z,,,,,,0.544444632,-0.322222322,0,0,0,,0,66,66,385,1,
,,,,,,,,,,,,,,,,,,5f50f0ce14987328c134c530,2020-11-26_15h59.05.049,lexical_decision_task_MP_exp2,2020.2.5,Win32,60,z,1,0.7909,,,,,,,,0.7909,1,,,,,,355,NW,"ID",16,zingly,ZINGLY,z,,,,,,0.544444632,-0.322222322,0,0,0,,0,67,67,354,1,
,,,,,,,,,,,,,,,,,,5f50f0ce14987328c134c530,2020-11-26_15h59.05.049,lexical_decision_task_MP_exp2,2020.2.5,Win32,60,m,1,0.667955,,,,,,,,0.667955,1,,,,,,81,WORD,"ID",16,friend,FRIEND,m,,,,,,0.544444632,-0.322222322,0,0,0,,0,68,68,80,1,
,,,,,,,,,,,,,,,,,,5f50f0ce14987328c134c530,2020-11-26_15h59.05.049,lexical_decision_task_MP_exp2,2020.2.5,Win32,60,m,0,0.854825,,,,,,,,0.854825,0,,,,,,424,NW,UN,16,urivel,PRAILE,z,,,,,,0.544444632,-0.322222322,0,0,0,,0,69,69,423,1,
,,,,,,,,,,,,,,,,,,5f50f0ce14987328c134c530,2020-11-26_15h59.05.049,lexical_decision_task_MP_exp2,2020.2.5,Win32,60,m,1,0.650735,,,,,,,,0.650735,1,,,,,,60,WORD,"ID",33,pencil,PENCIL,m,,,,,,0.544444632,-0.322222322,0,0,0,,0,70,70,59,1,
,,,,,,,,,,,,,,,,,,5f50f0ce14987328c134c530,2020-11-26_15h59.05.049,lexical_decision_task_MP_exp2,2020.2.5,Win32,60,z,1,0.710945,,,,,,,,0.710945,1,,,,,,467,NW,UN,16,wictor,GORBIE,z,,,,,,0.544444632,-0.322222322,0,0,0,,0,71,71,466,1,
,,,,,,,,,,,,,,,,,,5f50f0ce14987328c134c530,2020-11-26_15h59.05.049,lexical_decision_task_MP_exp2,2020.2.5,Win32,60,m,1,0.736085,,,,,,,,0.736085,1,,,,,,146,WORD,UN,33,garlic,COUPLE,m,,,,,,0.544444632,-0.322222322,0,0,0,,0,72,72,145,1,
,,,,,,,,,,,,,,,,,,5f50f0ce14987328c134c530,2020-11-26_15h59.05.049,lexical_decision_task_MP_exp2,2020.2.5,Win32,60,z,1,0.674355,,,,,,,,0.674355,1,,,,,,416,NW,UN,33,earoud,PATHEL,z,,,,,,0.544444632,-0.322222322,0,0,0,,0,73,73,415,1,
,,,,,,,,,,,,,,,,,,5f50f0ce14987328c134c530,2020-11-26_15h59.05.049,lexical_decision_task_MP_exp2,2020.2.5,Win32,60,m,1,0.61716,,,,,,,,0.61716,1,,,,,,63,WORD,"ID",16,launch,LAUNCH,m,,,,,,0.544444632,-0.322222322,0,0,0,,0,74,74,62,1,
,,,,,,,,,,,,,,,,,,5f50f0ce14987328c134c530,2020-11-26_15h59.05.049,lexical_decision_task_MP_exp2,2020.2.5,Win32,60,z,1,0.642305,,,,,,,,0.642305,1,,,,,,356,NW,"ID",16,othnis,OTHNIS,z,,,,,,0.544444632,-0.322222322,0,0,0,,0,75,75,355,1,
,,,,,,,,,,,,,,,,,,5f50f0ce14987328c134c530,2020-11-26_15h59.05.049,lexical_decision_task_MP_exp2,2020.2.5,Win32,60,m,0,0.64035,,,,,,,,0.64035,0,,,,,,333,NW,"ID",16,catrie,CATRIE,z,,,,,,0.544444632,-0.322222322,0,0,0,,0,76,76,332,1,
,,,,,,,,,,,,,,,,,,5f50f0ce14987328c134c530,2020-11-26_15h59.05.049,lexical_decision_task_MP_exp2,2020.2.5,Win32,60,m,1,0.766905,,,,,,,,0.766905,1,,,,,,127,WORD,UN,33,senior,CASTLE,m,,,,,,0.544444632,-0.322222322,0,0,0,,0,77,77,126,1,
,,,,,,,,,,,,,,,,,,5f50f0ce14987328c134c530,2020-11-26_15h59.05.049,lexical_decision_task_MP_exp2,2020.2.5,Win32,60,z,1,0.57323,,,,,,,,0.57323,1,,,,,,282,NW,"ID",33,porlex,PORLEX,z,,,,,,0.544444632,-0.322222322,0,0,0,,0,78,78,281,1,
,,,,,,,,,,,,,,,,,,5f50f0ce14987328c134c530,2020-11-26_15h59.05.049,lexical_decision_task_MP_exp2,2020.2.5,Win32,60,m,1,0.621935,,,,,,,,0.621935,1,,,,,,41,WORD,"ID",33,spring,SPRING,m,,,,,,0.544444632,-0.322222322,0,0,0,,0,79,79,40,1,
,,,,,,,,,,,,,,,,,,5f50f0ce14987328c134c530,2020-11-26_15h59.05.049,lexical_decision_task_MP_exp2,2020.2.5,Win32,60,m,1,0.57771,,,,,,,,0.57771,1,,,,,,100,WORD,"ID",16,carbon,CARBON,m,,,,,,0.544444632,-0.322222322,0,0,0,,0,80,80,99,1,
,,,,,,,,,,,,,,,,,,5f50f0ce14987328c134c530,2020-11-26_15h59.05.049,lexical_decision_task_MP_exp2,2020.2.5,Win32,60,z,1,0.71778,,,,,,,,0.71778,1,,,,,,335,NW,"ID",16,desion,DESION,z,,,,,,0.544444632,-0.322222322,0,0,0,,0,81,81,334,1,
,,,,,,,,,,,,,,,,,,5f50f0ce14987328c134c530,2020-11-26_15h59.05.049,lexical_decision_task_MP_exp2,2020.2.5,Win32,60,z,1,0.56085,,,,,,,,0.56085,1,,,,,,256,NW,"ID",33,inlors,INLORS,z,,,,,,0.544444632,-0.322222322,0,0,0,,0,82,82,255,1,
,,,,,,,,,,,,,,,,,,5f50f0ce14987328c134c530,2020-11-26_15h59.05.049,lexical_decision_task_MP_exp2,2020.2.5,Win32,60,z,1,0.68849,,,,,,,,0.68849,1,,,,,,337,NW,"ID",16,rejols,REJOLS,z,,,,,,0.544444632,-0.322222322,0,0,0,,0,83,83,336,1,
,,,,,,,,,,,,,,,,,,5f50f0ce14987328c134c530,2020-11-26_15h59.05.049,lexical_decision_task_MP_exp2,2020.2.5,Win32,60,m,1,0.60606,,,,,,,,0.60606,1,,,,,,117,WORD,"ID",16,branch,BRANCH,m,,,,,,0.544444632,-0.322222322,0,0,0,,0,84,84,116,1,
,,,,,,,,,,,,,,,,,,5f50f0ce14987328c134c530,2020-11-26_15h59.05.049,lexical_decision_task_MP_exp2,2020.2.5,Win32,60,m,1,0.55163,,,,,,,,0.55163,1,,,,,,229,WORD,UN,16,fringe,MOTHER,m,,,,,,0.544444632,-0.322222322,0,0,0,,0,85,85,228,1,
,,,,,,,,,,,,,,,,,,5f50f0ce14987328c134c530,2020-11-26_15h59.05.049,lexical_decision_task_MP_exp2,2020.2.5,Win32,60,m,1,0.535185,,,,,,,,0.535185,1,,,,,,191,WORD,UN,16,absent,STABLE,m,,,,,,0.544444632,-0.322222322,0,0,0,,0,86,86,190,1,
,,,,,,,,,,,,,,,,,,5f50f0ce14987328c134c530,2020-11-26_15h59.05.049,lexical_decision_task_MP_exp2,2020.2.5,Win32,60,m,1,0.70175,,,,,,,,0.70175,1,,,,,,144,WORD,UN,33,parish,SPONGE,m,,,,,,0.544444632,-0.322222322,0,0,0,,0,87,87,143,1,
,,,,,,,,,,,,,,,,,,5f50f0ce14987328c134c530,2020-11-26_15h59.05.049,lexical_decision_task_MP_exp2,2020.2.5,Win32,60,m,1,0.535015,,,,,,,,0.535015,1,,,,,,65,WORD,"ID",16,symbol,SYMBOL,m,,,,,,0.544444632,-0.322222322,0,0,0,,0,88,88,64,1,
,,,,,,,,,,,,,,,,,,5f50f0ce14987328c134c530,2020-11-26_15h59.05.049,lexical_decision_task_MP_exp2,2020.2.5,Win32,60,m,1,0.76592,,,,,,,,0.76592,1,,,,,,170,WORD,UN,33,depart,POUNCE,m,,,,,,0.544444632,-0.322222322,0,0,0,,0,89,89,169,1,
,,,,,,,,,,,,,,,,,,5f50f0ce14987328c134c530,2020-11-26_15h59.05.049,lexical_decision_task_MP_exp2,2020.2.5,Win32,60,z,1,0.60273,,,,,,,,0.60273,1,,,,,,371,NW,UN,33,ramily,GEILOY,z,,,,,,0.544444632,-0.322222322,0,0,0,,0,90,90,370,1,
,,,,,,,,,,,,,,,,,,5f50f0ce14987328c134c530,2020-11-26_15h59.05.049,lexical_decision_task_MP_exp2,2020.2.5,Win32,60,z,1,0.68455,,,,,,,,0.68455,1,,,,,,388,NW,UN,33,witmer,CRAGIN,z,,,,,,0.544444632,-0.322222322,0,0,0,,0,91,91,387,1,
,,,,,,,,,,,,,,,,,,5f50f0ce14987328c134c530,2020-11-26_15h59.05.049,lexical_decision_task_MP_exp2,2020.2.5,Win32,60,m,1,0.669955,,,,,,,,0.669955,1,,,,,,222,WORD,UN,16,casino,HINDER,m,,,,,,0.544444632,-0.322222322,0,0,0,,0,92,92,221,1,
,,,,,,,,,,,,,,,,,,5f50f0ce14987328c134c530,2020-11-26_15h59.05.049,lexical_decision_task_MP_exp2,2020.2.5,Win32,60,m,1,0.71997,,,,,,,,0.71997,1,,,,,,180,WORD,UN,33,thrive,SILENT,m,,,,,,0.544444632,-0.322222322,0,0,0,,0,93,93,179,1,
,,,,,,,,,,,,,,,,,,5f50f0ce14987328c134c530,2020-11-26_15h59.05.049,lexical_decision_task_MP_exp2,2020.2.5,Win32,60,z,1,0.667305,,,,,,,,0.667305,1,,,,,,311,NW,"ID",16,sproly,SPROLY,z,,,,,,0.544444632,-0.322222322,0,0,0,,0,94,94,310,1,
,,,,,,,,,,,,,,,,,,5f50f0ce14987328c134c530,2020-11-26_15h59.05.049,lexical_decision_task_MP_exp2,2020.2.5,Win32,60,m,1,0.557185,,,,,,,,0.557185,1,,,,,,22,WORD,"ID",33,jockey,JOCKEY,m,,,,,,0.544444632,-0.322222322,0,0,0,,0,95,95,21,1,
,,,,,,,,,,,,,,,,,,5f50f0ce14987328c134c530,2020-11-26_15h59.05.049,lexical_decision_task_MP_exp2,2020.2.5,Win32,60,z,1,0.734405,,,,,,,,0.734405,1,,,,,,393,NW,UN,33,spaqux,GANOUS,z,,,,,,0.544444632,-0.322222322,0,0,0,,0,96,96,392,1,
,,,,,,,,,,,,,,,,,,5f50f0ce14987328c134c530,2020-11-26_15h59.05.049,lexical_decision_task_MP_exp2,2020.2.5,Win32,60,z,1,0.621775,,,,,,,,0.621775,1,,,,,,258,NW,"ID",33,poluth,POLUTH,z,,,,,,0.544444632,-0.322222322,0,0,0,,0,97,97,257,1,
,,,,,,,,,,,,,,,,,,5f50f0ce14987328c134c530,2020-11-26_15h59.05.049,lexical_decision_task_MP_exp2,2020.2.5,Win32,60,z,0,1.10014,,,,,,,,1.10014,0,,,,,,236,WORD,UN,16,poster,PIRATE,m,,,,,,0.544444632,-0.322222322,0,0,0,,0,98,98,235,1,
,,,,,,,,,,,,,,,,,,5f50f0ce14987328c134c530,2020-11-26_15h59.05.049,lexical_decision_task_MP_exp2,2020.2.5,Win32,60,z,1,0.8504,,,,,,,,0.8504,1,,,,,,438,NW,UN,16,limpor,BAITCH,z,,,,,,0.544444632,-0.322222322,0,0,0,,0,99,99,437,1,
,,,,,,,,,,,,,,,,,,5f50f0ce14987328c134c530,2020-11-26_15h59.05.049,lexical_decision_task_MP_exp2,2020.2.5,Win32,60,z,1,0.733475,,,,,,,,0.733475,1,,,,,,374,NW,UN,33,yorque,SLIANT,z,,,,,,0.544444632,-0.322222322,0,0,0,,0,100,100,373,1,
,,,,,,,,,,,,,,,,,,5f50f0ce14987328c134c530,2020-11-26_15h59.05.049,lexical_decision_task_MP_exp2,2020.2.5,Win32,60,m,1,0.52269,,,,,,,,0.52269,1,,,,,,233,WORD,UN,16,clumsy,NATURE,m,,,,,,0.544444632,-0.322222322,0,0,0,,0,101,101,232,1,
,,,,,,,,,,,,,,,,,,5f50f0ce14987328c134c530,2020-11-26_15h59.05.049,lexical_decision_task_MP_exp2,2020.2.5,Win32,60,z,1,0.739195,,,,,,,,0.739195,1,,,,,,437,NW,UN,16,baitch,SNAPEL,z,,,,,,0.544444632,-0.322222322,0,0,0,,0,102,102,436,1,
,,,,,,,,,,,,,,,,,,5f50f0ce14987328c134c530,2020-11-26_15h59.05.049,lexical_decision_task_MP_exp2,2020.2.5,Win32,60,m,1,0.81832,,,,,,,,0.81832,1,,,,,,47,WORD,"ID",33,income,INCOME,m,,,,,,0.544444632,-0.322222322,0,0,0,,0,103,103,46,1,
,,,,,,,,,,,,,,,,,,5f50f0ce14987328c134c530,2020-11-26_15h59.05.049,lexical_decision_task_MP_exp2,2020.2.5,Win32,60,m,1,0.65338,,,,,,,,0.65338,1,,,,,,89,WORD,"ID",16,permit,PERMIT,m,,,,,,0.544444632,-0.322222322,0,0,0,,0,104,104,88,1,
,,,,,,,,,,,,,,,,,,5f50f0ce14987328c134c530,2020-11-26_15h59.05.049,lexical_decision_task_MP_exp2,2020.2.5,Win32,60,z,1,0.66746,,,,,,,,0.66746,1,,,,,,272,NW,"ID",33,damilt,DAMILT,z,,,,,,0.544444632,-0.322222322,0,0,0,,0,105,105,271,1,
,,,,,,,,,,,,,,,,,,5f50f0ce14987328c134c530,2020-11-26_15h59.05.049,lexical_decision_task_MP_exp2,2020.2.5,Win32,60,z,1,0.65074,,,,,,,,0.65074,1,,,,,,461,NW,UN,16,absult,JUSTRE,z,,,,,,0.544444632,-0.322222322,0,0,0,,0,106,106,460,1,
,,,,,,,,,,,,,,,,,,5f50f0ce14987328c134c530,2020-11-26_15h59.05.049,lexical_decision_task_MP_exp2,2020.2.5,Win32,60,z,1,0.66709,,,,,,,,0.66709,1,,,,,,364,NW,UN,33,guairt,IMPOTE,z,,,,,,0.544444632,-0.322222322,0,0,0,,0,107,107,363,1,
,,,,,,,,,,,,,,,,,,5f50f0ce14987328c134c530,2020-11-26_15h59.05.049,lexical_decision_task_MP_exp2,2020.2.5,Win32,60,z,1,0.49346,,,,,,,,0.49346,1,,,,,,367,NW,UN,33,hornal,SLIQUE,z,,,,,,0.544444632,-0.322222322,0,0,0,,0,108,108,366,1,
,,,,,,,,,,,,,,,,,,5f50f0ce14987328c134c530,2020-11-26_15h59.05.049,lexical_decision_task_MP_exp2,2020.2.5,Win32,60,z,1,0.536255,,,,,,,,0.536255,1,,,,,,435,NW,UN,16,frutan,IMPURB,z,,,,,,0.544444632,-0.322222322,0,0,0,,0,109,109,434,1,
,,,,,,,,,,,,,,,,,,5f50f0ce14987328c134c530,2020-11-26_15h59.05.049,lexical_decision_task_MP_exp2,2020.2.5,Win32,60,z,1,0.55136,,,,,,,,0.55136,1,,,,,,421,NW,UN,16,alcoud,KNISMA,z,,,,,,0.544444632,-0.322222322,0,0,0,,0,110,110,420,1,
,,,,,,,,,,,,,,,,,,5f50f0ce14987328c134c530,2020-11-26_15h59.05.049,lexical_decision_task_MP_exp2,2020.2.5,Win32,60,m,1,0.70098,,,,,,,,0.70098,1,,,,,,175,WORD,UN,33,strife,FABRIC,m,,,,,,0.544444632,-0.322222322,0,0,0,,0,111,111,174,1,
,,,,,,,,,,,,,,,,,,5f50f0ce14987328c134c530,2020-11-26_15h59.05.049,lexical_decision_task_MP_exp2,2020.2.5,Win32,60,m,1,0.634045,,,,,,,,0.634045,1,,,,,,134,WORD,UN,33,import,STAPLE,m,,,,,,0.544444632,-0.322222322,0,0,0,,0,112,112,133,1,
,,,,,,,,,,,,,,,,,,5f50f0ce14987328c134c530,2020-11-26_15h59.05.049,lexical_decision_task_MP_exp2,2020.2.5,Win32,60,z,1,0.794405,,,,,,,,0.794405,1,,,,,,474,NW,UN,16,gorbie,HABLIN,z,,,,,,0.544444632,-0.322222322,0,0,0,,0,113,113,473,1,
,,,,,,,,,,,,,,,,,,5f50f0ce14987328c134c530,2020-11-26_15h59.05.049,lexical_decision_task_MP_exp2,2020.2.5,Win32,60,m,1,0.7506,,,,,,,,0.7506,1,,,,,,167,WORD,UN,33,answer,DESIGN,m,,,,,,0.544444632,-0.322222322,0,0,0,,0,114,114,166,1,
,,,,,,,,,,,,,,,,,,5f50f0ce14987328c134c530,2020-11-26_15h59.05.049,lexical_decision_task_MP_exp2,2020.2.5,Win32,60,m,1,0.600295,,,,,,,,0.600295,1,,,,,,231,WORD,UN,16,mother,EXPORT,m,,,,,,0.544444632,-0.322222322,0,0,0,,0,115,115,230,1,
,,,,,,,,,,,,,,,,,,5f50f0ce14987328c134c530,2020-11-26_15h59.05.049,lexical_decision_task_MP_exp2,2020.2.5,Win32,60,m,0,0.74053,,,,,,,,0.74053,0,,,,,,398,NW,UN,33,fouret,BLUNDE,z,,,,,,0.544444632,-0.322222322,0,0,0,,0,116,116,397,1,
,,,,,,,,,,,,,,,,,,5f50f0ce14987328c134c530,2020-11-26_15h59.05.049,lexical_decision_task_MP_exp2,2020.2.5,Win32,60,z,1,0.64146,,,,,,,,0.64146,1,,,,,,395,NW,UN,33,flengy,COLURY,z,,,,,,0.544444632,-0.322222322,0,0,0,,0,117,117,394,1,
,,,,,,,,,,,,,,,,,,5f50f0ce14987328c134c530,2020-11-26_15h59.05.049,lexical_decision_task_MP_exp2,2020.2.5,Win32,60,m,1,0.767485,,,,,,,,0.767485,1,,,,,,115,WORD,"ID",16,guitar,GUITAR,m,,,,,,0.544444632,-0.322222322,0,0,0,,0,118,118,114,1,
,,,,,,,,,,,,,,,,,,5f50f0ce14987328c134c530,2020-11-26_15h59.05.049,lexical_decision_task_MP_exp2,2020.2.5,Win32,60,m,1,0.78412,,,,,,,,0.78412,1,,,,,,74,WORD,"ID",16,plaque,PLAQUE,m,,,,,,0.544444632,-0.322222322,0,0,0,,0,119,119,73,1,
,,,,,,,,,,,,,,,,,,5f50f0ce14987328c134c530,2020-11-26_15h59.05.049,lexical_decision_task_MP_exp2,2020.2.5,Win32,60,z,1,0.752375,,,,,,,,0.752375,1,,,,,,342,NW,"ID",16,randow,RANDOW,z,,,,,,0.544444632,-0.322222322,0,0,0,space,0,120,120,341,1,19.61637
,,,,,,,,,,,,,,,,,,5f50f0ce14987328c134c530,2020-11-26_15h59.05.049,lexical_decision_task_MP_exp2,2020.2.5,Win32,60,z,1,0.72101,,,,,,,,0.72101,1,,,,,,447,NW,UN,16,sadent,GIRCUE,z,,,,,,0.544444632,-0.322222322,0,0,0,,0,121,121,446,1,
,,,,,,,,,,,,,,,,,,5f50f0ce14987328c134c530,2020-11-26_15h59.05.049,lexical_decision_task_MP_exp2,2020.2.5,Win32,60,m,1,0.513605,,,,,,,,0.513605,1,,,,,,109,WORD,"ID",16,wonder,WONDER,m,,,,,,0.544444632,-0.322222322,0,0,0,,0,122,122,108,1,
,,,,,,,,,,,,,,,,,,5f50f0ce14987328c134c530,2020-11-26_15h59.05.049,lexical_decision_task_MP_exp2,2020.2.5,Win32,60,m,1,0.63654,,,,,,,,0.63654,1,,,,,,1,WORD,"ID",33,fright,FRIGHT,m,,,,,,0.544444632,-0.322222322,0,0,0,,0,123,123,0,1,
,,,,,,,,,,,,,,,,,,5f50f0ce14987328c134c530,2020-11-26_15h59.05.049,lexical_decision_task_MP_exp2,2020.2.5,Win32,60,m,0,0.685965,,,,,,,,0.685965,0,,,,,,449,NW,UN,16,phrect,BRUNGE,z,,,,,,0.544444632,-0.322222322,0,0,0,,0,124,124,448,1,
,,,,,,,,,,,,,,,,,,5f50f0ce14987328c134c530,2020-11-26_15h59.05.049,lexical_decision_task_MP_exp2,2020.2.5,Win32,60,z,1,0.603425,,,,,,,,0.603425,1,,,,,,324,NW,"ID",16,steikh,STEIKH,z,,,,,,0.544444632,-0.322222322,0,0,0,,0,125,125,323,1,
,,,,,,,,,,,,,,,,,,5f50f0ce14987328c134c530,2020-11-26_15h59.05.049,lexical_decision_task_MP_exp2,2020.2.5,Win32,60,m,1,0.699885,,,,,,,,0.699885,1,,,,,,107,WORD,"ID",16,slogan,SLOGAN,m,,,,,,0.544444632,-0.322222322,0,0,0,,0,126,126,106,1,
,,,,,,,,,,,,,,,,,,5f50f0ce14987328c134c530,2020-11-26_15h59.05.049,lexical_decision_task_MP_exp2,2020.2.5,Win32,60,z,1,0.535035,,,,,,,,0.535035,1,,,,,,361,NW,UN,33,tireau,PAUCHE,z,,,,,,0.544444632,-0.322222322,0,0,0,,0,127,127,360,1,
,,,,,,,,,,,,,,,,,,5f50f0ce14987328c134c530,2020-11-26_15h59.05.049,lexical_decision_task_MP_exp2,2020.2.5,Win32,60,m,1,0.58913,,,,,,,,0.58913,1,,,,,,35,WORD,"ID",33,socket,SOCKET,m,,,,,,0.544444632,-0.322222322,0,0,0,,0,128,128,34,1,
,,,,,,,,,,,,,,,,,,5f50f0ce14987328c134c530,2020-11-26_15h59.05.049,lexical_decision_task_MP_exp2,2020.2.5,Win32,60,m,1,0.61795,,,,,,,,0.61795,1,,,,,,232,WORD,UN,16,nature,INJECT,m,,,,,,0.544444632,-0.322222322,0,0,0,,0,129,129,231,1,
,,,,,,,,,,,,,,,,,,5f50f0ce14987328c134c530,2020-11-26_15h59.05.049,lexical_decision_task_MP_exp2,2020.2.5,Win32,60,z,1,0.68398,,,,,,,,0.68398,1,,,,,,244,NW,"ID",33,eatric,EATRIC,z,,,,,,0.544444632,-0.322222322,0,0,0,,0,130,130,243,1,
,,,,,,,,,,,,,,,,,,5f50f0ce14987328c134c530,2020-11-26_15h59.05.049,lexical_decision_task_MP_exp2,2020.2.5,Win32,60,m,1,0.602905,,,,,,,,0.602905,1,,,,,,188,WORD,UN,16,censor,SOCIAL,m,,,,,,0.544444632,-0.322222322,0,0,0,,0,131,131,187,1,
,,,,,,,,,,,,,,,,,,5f50f0ce14987328c134c530,2020-11-26_15h59.05.049,lexical_decision_task_MP_exp2,2020.2.5,Win32,60,m,1,0.696605,,,,,,,,0.696605,1,,,,,,31,WORD,"ID",33,weapon,WEAPON,m,,,,,,0.544444632,-0.322222322,0,0,0,,0,132,132,30,1,
,,,,,,,,,,,,,,,,,,5f50f0ce14987328c134c530,2020-11-26_15h59.05.049,lexical_decision_task_MP_exp2,2020.2.5,Win32,60,m,1,0.666275,,,,,,,,0.666275,1,,,,,,125,WORD,UN,33,blouse,NICKEL,m,,,,,,0.544444632,-0.322222322,0,0,0,,0,133,133,124,1,
,,,,,,,,,,,,,,,,,,5f50f0ce14987328c134c530,2020-11-26_15h59.05.049,lexical_decision_task_MP_exp2,2020.2.5,Win32,60,z,1,0.63378,,,,,,,,0.63378,1,,,,,,274,NW,"ID",33,fumblo,FUMBLO,z,,,,,,0.544444632,-0.322222322,0,0,0,,0,134,134,273,1,
,,,,,,,,,,,,,,,,,,5f50f0ce14987328c134c530,2020-11-26_15h59.05.049,lexical_decision_task_MP_exp2,2020.2.5,Win32,60,m,0,0.651915,,,,,,,,0.651915,0,,,,,,296,NW,"ID",33,beinch,BEINCH,z,,,,,,0.544444632,-0.322222322,0,0,0,,0,135,135,295,1,
,,,,,,,,,,,,,,,,,,5f50f0ce14987328c134c530,2020-11-26_15h59.05.049,lexical_decision_task_MP_exp2,2020.2.5,Win32,60,m,1,0.99642,,,,,,,,0.99642,1,,,,,,135,WORD,UN,33,chrome,IMPORT,m,,,,,,0.544444632,-0.322222322,0,0,0,,0,136,136,134,1,
,,,,,,,,,,,,,,,,,,5f50f0ce14987328c134c530,2020-11-26_15h59.05.049,lexical_decision_task_MP_exp2,2020.2.5,Win32,60,m,1,0.61551,,,,,,,,0.61551,1,,,,,,128,WORD,UN,33,marvel,SENIOR,m,,,,,,0.544444632,-0.322222322,0,0,0,,0,137,137,127,1,
,,,,,,,,,,,,,,,,,,5f50f0ce14987328c134c530,2020-11-26_15h59.05.049,lexical_decision_task_MP_exp2,2020.2.5,Win32,60,m,1,0.497235,,,,,,,,0.497235,1,,,,,,2,WORD,"ID",33,bridge,BRIDGE,m,,,,,,0.544444632,-0.322222322,0,0,0,,0,138,138,1,1,
,,,,,,,,,,,,,,,,,,5f50f0ce14987328c134c530,2020-11-26_15h59.05.049,lexical_decision_task_MP_exp2,2020.2.5,Win32,60,m,1,0.57396,,,,,,,,0.57396,1,,,,,,102,WORD,"ID",16,direct,DIRECT,m,,,,,,0.544444632,-0.322222322,0,0,0,,0,139,139,101,1,
,,,,,,,,,,,,,,,,,,5f50f0ce14987328c134c530,2020-11-26_15h59.05.049,lexical_decision_task_MP_exp2,2020.2.5,Win32,60,z,1,0.61791,,,,,,,,0.61791,1,,,,,,375,NW,UN,33,iguare,YORQUE,z,,,,,,0.544444632,-0.322222322,0,0,0,,0,140,140,374,1,
,,,,,,,,,,,,,,,,,,5f50f0ce14987328c134c530,2020-11-26_15h59.05.049,lexical_decision_task_MP_exp2,2020.2.5,Win32,60,m,1,0.614615,,,,,,,,0.614615,1,,,,,,182,WORD,UN,16,basket,WINTER,m,,,,,,0.544444632,-0.322222322,0,0,0,,0,141,141,181,1,
,,,,,,,,,,,,,,,,,,5f50f0ce14987328c134c530,2020-11-26_15h59.05.049,lexical_decision_task_MP_exp2,2020.2.5,Win32,60,z,1,0.8711,,,,,,,,0.8711,1,,,,,,316,NW,"ID",16,scregm,SCREGM,z,,,,,,0.544444632,-0.322222322,0,0,0,,0,142,142,315,1,
,,,,,,,,,,,,,,,,,,5f50f0ce14987328c134c530,2020-11-26_15h59.05.049,lexical_decision_task_MP_exp2,2020.2.5,Win32,60,m,1,0.686685,,,,,,,,0.686685,1,,,,,,67,WORD,"ID",16,policy,POLICY,m,,,,,,0.544444632,-0.322222322,0,0,0,,0,143,143,66,1,
,,,,,,,,,,,,,,,,,,5f50f0ce14987328c134c530,2020-11-26_15h59.05.049,lexical_decision_task_MP_exp2,2020.2.5,Win32,60,z,1,0.954105,,,,,,,,0.954105,1,,,,,,353,NW,"ID",16,clurey,CLUREY,z,,,,,,0.544444632,-0.322222322,0,0,0,,0,144,144,352,1,
,,,,,,,,,,,,,,,,,,5f50f0ce14987328c134c530,2020-11-26_15h59.05.049,lexical_decision_task_MP_exp2,2020.2.5,Win32,60,z,1,0.756245,,,,,,,,0.756245,1,,,,,,257,NW,"ID",33,veniod,VENIOD,z,,,,,,0.544444632,-0.322222322,0,0,0,,0,145,145,256,1,
,,,,,,,,,,,,,,,,,,5f50f0ce14987328c134c530,2020-11-26_15h59.05.049,lexical_decision_task_MP_exp2,2020.2.5,Win32,60,z,0,0.836105,,,,,,,,0.836105,0,,,,,,68,WORD,"ID",16,fumble,FUMBLE,m,,,,,,0.544444632,-0.322222322,0,0,0,,0,146,146,67,1,
,,,,,,,,,,,,,,,,,,5f50f0ce14987328c134c530,2020-11-26_15h59.05.049,lexical_decision_task_MP_exp2,2020.2.5,Win32,60,z,1,0.66294,,,,,,,,0.66294,1,,,,,,470,NW,UN,16,nobest,CRUDIO,z,,,,,,0.544444632,-0.322222322,0,0,0,,0,147,147,469,1,
,,,,,,,,,,,,,,,,,,5f50f0ce14987328c134c530,2020-11-26_15h59.05.049,lexical_decision_task_MP_exp2,2020.2.5,Win32,60,m,1,0.650415,,,,,,,,0.650415,1,,,,,,219,WORD,UN,16,voyage,BUCKET,m,,,,,,0.544444632,-0.322222322,0,0,0,,0,148,148,218,1,
,,,,,,,,,,,,,,,,,,5f50f0ce14987328c134c530,2020-11-26_15h59.05.049,lexical_decision_task_MP_exp2,2020.2.5,Win32,60,z,1,0.79596,,,,,,,,0.79596,1,,,,,,392,NW,UN,33,ganous,ROUNCY,z,,,,,,0.544444632,-0.322222322,0,0,0,,0,149,149,391,1,
,,,,,,,,,,,,,,,,,,5f50f0ce14987328c134c530,2020-11-26_15h59.05.049,lexical_decision_task_MP_exp2,2020.2.5,Win32,60,z,1,0.629475,,,,,,,,0.629475,1,,,,,,396,NW,UN,33,camble,FLENGY,z,,,,,,0.544444632,-0.322222322,0,0,0,,0,150,150,395,1,
,,,,,,,,,,,,,,,,,,5f50f0ce14987328c134c530,2020-11-26_15h59.05.049,lexical_decision_task_MP_exp2,2020.2.5,Win32,60,m,1,0.600145,,,,,,,,0.600145,1,,,,,,77,WORD,"ID",16,racket,RACKET,m,,,,,,0.544444632,-0.322222322,0,0,0,,0,151,151,76,1,
,,,,,,,,,,,,,,,,,,5f50f0ce14987328c134c530,2020-11-26_15h59.05.049,lexical_decision_task_MP_exp2,2020.2.5,Win32,60,m,1,0.54701,,,,,,,,0.54701,1,,,,,,208,WORD,UN,16,search,HOCKEY,m,,,,,,0.544444632,-0.322222322,0,0,0,,0,152,152,207,1,
,,,,,,,,,,,,,,,,,,5f50f0ce14987328c134c530,2020-11-26_15h59.05.049,lexical_decision_task_MP_exp2,2020.2.5,Win32,60,m,1,0.630315,,,,,,,,0.630315,1,,,,,,86,WORD,"ID",16,rodent,RODENT,m,,,,,,0.544444632,-0.322222322,0,0,0,,0,153,153,85,1,
,,,,,,,,,,,,,,,,,,5f50f0ce14987328c134c530,2020-11-26_15h59.05.049,lexical_decision_task_MP_exp2,2020.2.5,Win32,60,m,1,0.74703,,,,,,,,0.74703,1,,,,,,186,WORD,UN,16,course,PORTAL,m,,,,,,0.544444632,-0.322222322,0,0,0,,0,154,154,185,1,
,,,,,,,,,,,,,,,,,,5f50f0ce14987328c134c530,2020-11-26_15h59.05.049,lexical_decision_task_MP_exp2,2020.2.5,Win32,60,m,1,0.57494,,,,,,,,0.57494,1,,,,,,12,WORD,"ID",33,orange,ORANGE,m,,,,,,0.544444632,-0.322222322,0,0,0,,0,155,155,11,1,
,,,,,,,,,,,,,,,,,,5f50f0ce14987328c134c530,2020-11-26_15h59.05.049,lexical_decision_task_MP_exp2,2020.2.5,Win32,60,m,1,0.799055,,,,,,,,0.799055,1,,,,,,45,WORD,"ID",33,clergy,CLERGY,m,,,,,,0.544444632,-0.322222322,0,0,0,,0,156,156,44,1,
,,,,,,,,,,,,,,,,,,5f50f0ce14987328c134c530,2020-11-26_15h59.05.049,lexical_decision_task_MP_exp2,2020.2.5,Win32,60,m,1,0.65393,,,,,,,,0.65393,1,,,,,,54,WORD,"ID",33,ramble,RAMBLE,m,,,,,,0.544444632,-0.322222322,0,0,0,,0,157,157,53,1,
,,,,,,,,,,,,,,,,,,5f50f0ce14987328c134c530,2020-11-26_15h59.05.049,lexical_decision_task_MP_exp2,2020.2.5,Win32,60,m,1,0.60022,,,,,,,,0.60022,1,,,,,,132,WORD,UN,33,bleach,STRONG,m,,,,,,0.544444632,-0.322222322,0,0,0,,0,158,158,131,1,
,,,,,,,,,,,,,,,,,,5f50f0ce14987328c134c530,2020-11-26_15h59.05.049,lexical_decision_task_MP_exp2,2020.2.5,Win32,60,z,1,1.393205,,,,,,,,1.393205,1,,,,,,293,NW,"ID",33,swance,SWANCE,z,,,,,,0.544444632,-0.322222322,0,0,0,,0,159,159,292,1,
,,,,,,,,,,,,,,,,,,5f50f0ce14987328c134c530,2020-11-26_15h59.05.049,lexical_decision_task_MP_exp2,2020.2.5,Win32,60,m,1,0.55062,,,,,,,,0.55062,1,,,,,,83,WORD,"ID",16,result,RESULT,m,,,,,,0.544444632,-0.322222322,0,0,0,,0,160,160,82,1,
,,,,,,,,,,,,,,,,,,5f50f0ce14987328c134c530,2020-11-26_15h59.05.049,lexical_decision_task_MP_exp2,2020.2.5,Win32,60,m,1,0.834535,,,,,,,,0.834535,1,,,,,,121,WORD,UN,33,linger,THRIVE,m,,,,,,0.544444632,-0.322222322,0,0,0,,0,161,161,120,1,
,,,,,,,,,,,,,,,,,,5f50f0ce14987328c134c530,2020-11-26_15h59.05.049,lexical_decision_task_MP_exp2,2020.2.5,Win32,60,m,1,0.549855,,,,,,,,0.549855,1,,,,,,87,WORD,"ID",16,filter,FILTER,m,,,,,,0.544444632,-0.322222322,0,0,0,,0,162,162,86,1,
,,,,,,,,,,,,,,,,,,5f50f0ce14987328c134c530,2020-11-26_15h59.05.049,lexical_decision_task_MP_exp2,2020.2.5,Win32,60,z,1,0.682835,,,,,,,,0.682835,1,,,,,,317,NW,"ID",16,worbal,WORBAL,z,,,,,,0.544444632,-0.322222322,0,0,0,,0,163,163,316,1,
,,,,,,,,,,,,,,,,,,5f50f0ce14987328c134c530,2020-11-26_15h59.05.049,lexical_decision_task_MP_exp2,2020.2.5,Win32,60,m,1,0.704125,,,,,,,,0.704125,1,,,,,,98,WORD,"ID",16,belong,BELONG,m,,,,,,0.544444632,-0.322222322,0,0,0,,0,164,164,97,1,
,,,,,,,,,,,,,,,,,,5f50f0ce14987328c134c530,2020-11-26_15h59.05.049,lexical_decision_task_MP_exp2,2020.2.5,Win32,60,m,1,0.64741,,,,,,,,0.64741,1,,,,,,106,WORD,"ID",16,ransom,RANSOM,m,,,,,,0.544444632,-0.322222322,0,0,0,,0,165,165,105,1,
,,,,,,,,,,,,,,,,,,5f50f0ce14987328c134c530,2020-11-26_15h59.05.049,lexical_decision_task_MP_exp2,2020.2.5,Win32,60,z,1,0.646855,,,,,,,,0.646855,1,,,,,,451,NW,UN,16,surden,CAINKY,z,,,,,,0.544444632,-0.322222322,0,0,0,,0,166,166,450,1,
,,,,,,,,,,,,,,,,,,5f50f0ce14987328c134c530,2020-11-26_15h59.05.049,lexical_decision_task_MP_exp2,2020.2.5,Win32,60,m,1,0.77992,,,,,,,,0.77992,1,,,,,,136,WORD,UN,33,finger,BLEACH,m,,,,,,0.544444632,-0.322222322,0,0,0,,0,167,167,135,1,
,,,,,,,,,,,,,,,,,,5f50f0ce14987328c134c530,2020-11-26_15h59.05.049,lexical_decision_task_MP_exp2,2020.2.5,Win32,60,m,1,0.89081,,,,,,,,0.89081,1,,,,,,139,WORD,UN,33,prince,DEBRIS,m,,,,,,0.544444632,-0.322222322,0,0,0,,0,168,168,138,1,
,,,,,,,,,,,,,,,,,,5f50f0ce14987328c134c530,2020-11-26_15h59.05.049,lexical_decision_task_MP_exp2,2020.2.5,Win32,60,z,1,0.5789,,,,,,,,0.5789,1,,,,,,300,NW,"ID",33,yarion,YARION,z,,,,,,0.544444632,-0.322222322,0,0,0,,0,169,169,299,1,
,,,,,,,,,,,,,,,,,,5f50f0ce14987328c134c530,2020-11-26_15h59.05.049,lexical_decision_task_MP_exp2,2020.2.5,Win32,60,z,1,0.979475,,,,,,,,0.979475,1,,,,,,354,NW,"ID",16,virlex,VIRLEX,z,,,,,,0.544444632,-0.322222322,0,0,0,,0,170,170,353,1,
,,,,,,,,,,,,,,,,,,5f50f0ce14987328c134c530,2020-11-26_15h59.05.049,lexical_decision_task_MP_exp2,2020.2.5,Win32,60,m,1,0.62053,,,,,,,,0.62053,1,,,,,,99,WORD,"ID",16,fluent,FLUENT,m,,,,,,0.544444632,-0.322222322,0,0,0,,0,171,171,98,1,
,,,,,,,,,,,,,,,,,,5f50f0ce14987328c134c530,2020-11-26_15h59.05.049,lexical_decision_task_MP_exp2,2020.2.5,Win32,60,z,1,1.02951,,,,,,,,1.02951,1,,,,,,276,NW,"ID",33,yarmon,YARMON,z,,,,,,0.544444632,-0.322222322,0,0,0,,0,172,172,275,1,
,,,,,,,,,,,,,,,,,,5f50f0ce14987328c134c530,2020-11-26_15h59.05.049,lexical_decision_task_MP_exp2,2020.2.5,Win32,60,z,1,0.708175,,,,,,,,0.708175,1,,,,,,243,NW,"ID",33,musied,MUSIED,z,,,,,,0.544444632,-0.322222322,0,0,0,,0,173,173,242,1,
,,,,,,,,,,,,,,,,,,5f50f0ce14987328c134c530,2020-11-26_15h59.05.049,lexical_decision_task_MP_exp2,2020.2.5,Win32,60,m,1,0.61943,,,,,,,,0.61943,1,,,,,,42,WORD,"ID",33,chapel,CHAPEL,m,,,,,,0.544444632,-0.322222322,0,0,0,,0,174,174,41,1,
,,,,,,,,,,,,,,,,,,5f50f0ce14987328c134c530,2020-11-26_15h59.05.049,lexical_decision_task_MP_exp2,2020.2.5,Win32,60,m,1,0.633385,,,,,,,,0.633385,1,,,,,,178,WORD,UN,33,mildew,INFORM,m,,,,,,0.544444632,-0.322222322,0,0,0,,0,175,175,177,1,
,,,,,,,,,,,,,,,,,,5f50f0ce14987328c134c530,2020-11-26_15h59.05.049,lexical_decision_task_MP_exp2,2020.2.5,Win32,60,m,1,0.669545,,,,,,,,0.669545,1,,,,,,10,WORD,"ID",33,ethnic,ETHNIC,m,,,,,,0.544444632,-0.322222322,0,0,0,,0,176,176,9,1,
,,,,,,,,,,,,,,,,,,5f50f0ce14987328c134c530,2020-11-26_15h59.05.049,lexical_decision_task_MP_exp2,2020.2.5,Win32,60,m,0,0.59587,,,,,,,,0.59587,0,,,,,,475,NW,UN,16,robuly,PEBRIC,z,,,,,,0.544444632,-0.322222322,0,0,0,,0,177,177,474,1,
,,,,,,,,,,,,,,,,,,5f50f0ce14987328c134c530,2020-11-26_15h59.05.049,lexical_decision_task_MP_exp2,2020.2.5,Win32,60,m,1,0.551115,,,,,,,,0.551115,1,,,,,,56,WORD,"ID",33,ambush,AMBUSH,m,,,,,,0.544444632,-0.322222322,0,0,0,,0,178,178,55,1,
,,,,,,,,,,,,,,,,,,5f50f0ce14987328c134c530,2020-11-26_15h59.05.049,lexical_decision_task_MP_exp2,2020.2.5,Win32,60,z,1,0.7976,,,,,,,,0.7976,1,,,,,,413,NW,UN,33,serbol,EQUATS,z,,,,,,0.544444632,-0.322222322,0,0,0,,0,179,179,412,1,
,,,,,,,,,,,,,,,,,,5f50f0ce14987328c134c530,2020-11-26_15h59.05.049,lexical_decision_task_MP_exp2,2020.2.5,Win32,60,z,1,0.650595,,,,,,,,0.650595,1,,,,,,455,NW,UN,16,broget,TONDLE,z,,,,,,0.544444632,-0.322222322,0,0,0,,0,180,180,454,1,
,,,,,,,,,,,,,,,,,,5f50f0ce14987328c134c530,2020-11-26_15h59.05.049,lexical_decision_task_MP_exp2,2020.2.5,Win32,60,z,1,0.90317,,,,,,,,0.90317,1,,,,,,341,NW,"ID",16,myrtie,MYRTIE,z,,,,,,0.544444632,-0.322222322,0,0,0,,0,181,181,340,1,
,,,,,,,,,,,,,,,,,,5f50f0ce14987328c134c530,2020-11-26_15h59.05.049,lexical_decision_task_MP_exp2,2020.2.5,Win32,60,z,1,0.616605,,,,,,,,0.616605,1,,,,,,266,NW,"ID",33,varmit,VARMIT,z,,,,,,0.544444632,-0.322222322,0,0,0,,0,182,182,265,1,
,,,,,,,,,,,,,,,,,,5f50f0ce14987328c134c530,2020-11-26_15h59.05.049,lexical_decision_task_MP_exp2,2020.2.5,Win32,60,z,1,0.667615,,,,,,,,0.667615,1,,,,,,283,NW,"ID",33,veralf,VERALF,z,,,,,,0.544444632,-0.322222322,0,0,0,,0,183,183,282,1,
,,,,,,,,,,,,,,,,,,5f50f0ce14987328c134c530,2020-11-26_15h59.05.049,lexical_decision_task_MP_exp2,2020.2.5,Win32,60,z,1,0.96661,,,,,,,,0.96661,1,,,,,,294,NW,"ID",33,inhort,INHORT,z,,,,,,0.544444632,-0.322222322,0,0,0,,0,184,184,293,1,
,,,,,,,,,,,,,,,,,,5f50f0ce14987328c134c530,2020-11-26_15h59.05.049,lexical_decision_task_MP_exp2,2020.2.5,Win32,60,z,1,0.580095,,,,,,,,0.580095,1,,,,,,414,NW,UN,33,higsta,SERBOL,z,,,,,,0.544444632,-0.322222322,0,0,0,,0,185,185,413,1,
,,,,,,,,,,,,,,,,,,5f50f0ce14987328c134c530,2020-11-26_15h59.05.049,lexical_decision_task_MP_exp2,2020.2.5,Win32,60,m,1,0.587735,,,,,,,,0.587735,1,,,,,,118,WORD,"ID",16,flight,FLIGHT,m,,,,,,0.544444632,-0.322222322,0,0,0,,0,186,186,117,1,
,,,,,,,,,,,,,,,,,,5f50f0ce14987328c134c530,2020-11-26_15h59.05.049,lexical_decision_task_MP_exp2,2020.2.5,Win32,60,m,1,0.53893,,,,,,,,0.53893,1,,,,,,169,WORD,UN,33,pounce,GENIUS,m,,,,,,0.544444632,-0.322222322,0,0,0,,0,187,187,168,1,
,,,,,,,,,,,,,,,,,,5f50f0ce14987328c134c530,2020-11-26_15h59.05.049,lexical_decision_task_MP_exp2,2020.2.5,Win32,60,z,1,0.637325,,,,,,,,0.637325,1,,,,,,264,NW,"ID",33,vackel,VACKEL,z,,,,,,0.544444632,-0.322222322,0,0,0,,0,188,188,263,1,
,,,,,,,,,,,,,,,,,,5f50f0ce14987328c134c530,2020-11-26_15h59.05.049,lexical_decision_task_MP_exp2,2020.2.5,Win32,60,z,1,0.684095,,,,,,,,0.684095,1,,,,,,263,NW,"ID",33,dolica,DOLICA,z,,,,,,0.544444632,-0.322222322,0,0,0,,0,189,189,262,1,
,,,,,,,,,,,,,,,,,,5f50f0ce14987328c134c530,2020-11-26_15h59.05.049,lexical_decision_task_MP_exp2,2020.2.5,Win32,60,z,1,0.898355,,,,,,,,0.898355,1,,,,,,428,NW,UN,16,chrums,TANDLY,z,,,,,,0.544444632,-0.322222322,0,0,0,,0,190,190,427,1,
,,,,,,,,,,,,,,,,,,5f50f0ce14987328c134c530,2020-11-26_15h59.05.049,lexical_decision_task_MP_exp2,2020.2.5,Win32,60,m,1,0.703535,,,,,,,,0.703535,1,,,,,,26,WORD,"ID",33,sprint,SPRINT,m,,,,,,0.544444632,-0.322222322,0,0,0,,0,191,191,25,1,
,,,,,,,,,,,,,,,,,,5f50f0ce14987328c134c530,2020-11-26_15h59.05.049,lexical_decision_task_MP_exp2,2020.2.5,Win32,60,z,1,0.615865,,,,,,,,0.615865,1,,,,,,453,NW,UN,16,scouge,BOLVIS,z,,,,,,0.544444632,-0.322222322,0,0,0,,0,192,192,452,1,
,,,,,,,,,,,,,,,,,,5f50f0ce14987328c134c530,2020-11-26_15h59.05.049,lexical_decision_task_MP_exp2,2020.2.5,Win32,60,z,1,0.68227,,,,,,,,0.68227,1,,,,,,432,NW,UN,16,drance,LUNKER,z,,,,,,0.544444632,-0.322222322,0,0,0,,0,193,193,431,1,
,,,,,,,,,,,,,,,,,,5f50f0ce14987328c134c530,2020-11-26_15h59.05.049,lexical_decision_task_MP_exp2,2020.2.5,Win32,60,z,1,0.81484,,,,,,,,0.81484,1,,,,,,285,NW,"ID",33,prudge,PRUDGE,z,,,,,,0.544444632,-0.322222322,0,0,0,,0,194,194,284,1,
,,,,,,,,,,,,,,,,,,5f50f0ce14987328c134c530,2020-11-26_15h59.05.049,lexical_decision_task_MP_exp2,2020.2.5,Win32,60,z,1,0.58039,,,,,,,,0.58039,1,,,,,,301,NW,"ID",16,fainch,FAINCH,z,,,,,,0.544444632,-0.322222322,0,0,0,,0,195,195,300,1,
,,,,,,,,,,,,,,,,,,5f50f0ce14987328c134c530,2020-11-26_15h59.05.049,lexical_decision_task_MP_exp2,2020.2.5,Win32,60,z,1,0.668525,,,,,,,,0.668525,1,,,,,,295,NW,"ID",33,gleath,GLEATH,z,,,,,,0.544444632,-0.322222322,0,0,0,,0,196,196,294,1,
,,,,,,,,,,,,,,,,,,5f50f0ce14987328c134c530,2020-11-26_15h59.05.049,lexical_decision_task_MP_exp2,2020.2.5,Win32,60,z,1,0.520345,,,,,,,,0.520345,1,,,,,,286,NW,"ID",33,reldon,RELDON,z,,,,,,0.544444632,-0.322222322,0,0,0,,0,197,197,285,1,
,,,,,,,,,,,,,,,,,,5f50f0ce14987328c134c530,2020-11-26_15h59.05.049,lexical_decision_task_MP_exp2,2020.2.5,Win32,60,m,1,0.612815,,,,,,,,0.612815,1,,,,,,84,WORD,"ID",16,mortal,MORTAL,m,,,,,,0.544444632,-0.322222322,0,0,0,,0,198,198,83,1,
,,,,,,,,,,,,,,,,,,5f50f0ce14987328c134c530,2020-11-26_15h59.05.049,lexical_decision_task_MP_exp2,2020.2.5,Win32,60,z,1,0.70523,,,,,,,,0.70523,1,,,,,,478,NW,UN,16,lobush,ACRISE,z,,,,,,0.544444632,-0.322222322,0,0,0,,0,199,199,477,1,
,,,,,,,,,,,,,,,,,,5f50f0ce14987328c134c530,2020-11-26_15h59.05.049,lexical_decision_task_MP_exp2,2020.2.5,Win32,60,z,1,0.650485,,,,,,,,0.650485,1,,,,,,366,NW,UN,33,slique,TOSHEL,z,,,,,,0.544444632,-0.322222322,0,0,0,,0,200,200,365,1,
,,,,,,,,,,,,,,,,,,5f50f0ce14987328c134c530,2020-11-26_15h59.05.049,lexical_decision_task_MP_exp2,2020.2.5,Win32,60,m,1,0.633955,,,,,,,,0.633955,1,,,,,,126,WORD,UN,33,castle,ENOUGH,m,,,,,,0.544444632,-0.322222322,0,0,0,,0,201,201,125,1,
,,,,,,,,,,,,,,,,,,5f50f0ce14987328c134c530,2020-11-26_15h59.05.049,lexical_decision_task_MP_exp2,2020.2.5,Win32,60,m,1,0.766085,,,,,,,,0.766085,1,,,,,,69,WORD,"ID",16,plenty,PLENTY,m,,,,,,0.544444632,-0.322222322,0,0,0,,0,202,202,68,1,
,,,,,,,,,,,,,,,,,,5f50f0ce14987328c134c530,2020-11-26_15h59.05.049,lexical_decision_task_MP_exp2,2020.2.5,Win32,60,m,1,0.636985,,,,,,,,0.636985,1,,,,,,23,WORD,"ID",33,wealth,WEALTH,m,,,,,,0.544444632,-0.322222322,0,0,0,,0,203,203,22,1,
,,,,,,,,,,,,,,,,,,5f50f0ce14987328c134c530,2020-11-26_15h59.05.049,lexical_decision_task_MP_exp2,2020.2.5,Win32,60,m,1,0.596775,,,,,,,,0.596775,1,,,,,,217,WORD,UN,16,shrink,LIQUOR,m,,,,,,0.544444632,-0.322222322,0,0,0,,0,204,204,216,1,
,,,,,,,,,,,,,,,,,,5f50f0ce14987328c134c530,2020-11-26_15h59.05.049,lexical_decision_task_MP_exp2,2020.2.5,Win32,60,m,1,0.667815,,,,,,,,0.667815,1,,,,,,66,WORD,"ID",16,gospel,GOSPEL,m,,,,,,0.544444632,-0.322222322,0,0,0,,0,205,205,65,1,
,,,,,,,,,,,,,,,,,,5f50f0ce14987328c134c530,2020-11-26_15h59.05.049,lexical_decision_task_MP_exp2,2020.2.5,Win32,60,z,1,0.58925,,,,,,,,0.58925,1,,,,,,270,NW,"ID",33,wrimsy,WRIMSY,z,,,,,,0.544444632,-0.322222322,0,0,0,,0,206,206,269,1,
,,,,,,,,,,,,,,,,,,5f50f0ce14987328c134c530,2020-11-26_15h59.05.049,lexical_decision_task_MP_exp2,2020.2.5,Win32,60,z,1,0.58399,,,,,,,,0.58399,1,,,,,,385,NW,UN,33,ancust,VEIGMA,z,,,,,,0.544444632,-0.322222322,0,0,0,,0,207,207,384,1,
,,,,,,,,,,,,,,,,,,5f50f0ce14987328c134c530,2020-11-26_15h59.05.049,lexical_decision_task_MP_exp2,2020.2.5,Win32,60,m,1,0.6241,,,,,,,,0.6241,1,,,,,,112,WORD,"ID",16,breath,BREATH,m,,,,,,0.544444632,-0.322222322,0,0,0,,0,208,208,111,1,
,,,,,,,,,,,,,,,,,,5f50f0ce14987328c134c530,2020-11-26_15h59.05.049,lexical_decision_task_MP_exp2,2020.2.5,Win32,60,m,1,0.56416,,,,,,,,0.56416,1,,,,,,17,WORD,"ID",33,charge,CHARGE,m,,,,,,0.544444632,-0.322222322,0,0,0,,0,209,209,16,1,
,,,,,,,,,,,,,,,,,,5f50f0ce14987328c134c530,2020-11-26_15h59.05.049,lexical_decision_task_MP_exp2,2020.2.5,Win32,60,m,1,0.496905,,,,,,,,0.496905,1,,,,,,82,WORD,"ID",16,stigma,STIGMA,m,,,,,,0.544444632,-0.322222322,0,0,0,,0,210,210,81,1,
,,,,,,,,,,,,,,,,,,5f50f0ce14987328c134c530,2020-11-26_15h59.05.049,lexical_decision_task_MP_exp2,2020.2.5,Win32,60,z,1,0.62916,,,,,,,,0.62916,1,,,,,,334,NW,"ID",16,watmeg,WATMEG,z,,,,,,0.544444632,-0.322222322,0,0,0,,0,211,211,333,1,
,,,,,,,,,,,,,,,,,,5f50f0ce14987328c134c530,2020-11-26_15h59.05.049,lexical_decision_task_MP_exp2,2020.2.5,Win32,60,m,1,0.61269,,,,,,,,0.61269,1,,,,,,200,WORD,UN,16,admire,BEACON,m,,,,,,0.544444632,-0.322222322,0,0,0,,0,212,212,199,1,
,,,,,,,,,,,,,,,,,,5f50f0ce14987328c134c530,2020-11-26_15h59.05.049,lexical_decision_task_MP_exp2,2020.2.5,Win32,60,m,1,0.7035,,,,,,,,0.7035,1,,,,,,147,WORD,UN,33,custom,GARLIC,m,,,,,,0.544444632,-0.322222322,0,0,0,,0,213,213,146,1,
,,,,,,,,,,,,,,,,,,5f50f0ce14987328c134c530,2020-11-26_15h59.05.049,lexical_decision_task_MP_exp2,2020.2.5,Win32,60,z,1,0.445835,,,,,,,,0.445835,1,,,,,,382,NW,UN,33,aungre,SARLEY,z,,,,,,0.544444632,-0.322222322,0,0,0,,0,214,214,381,1,
,,,,,,,,,,,,,,,,,,5f50f0ce14987328c134c530,2020-11-26_15h59.05.049,lexical_decision_task_MP_exp2,2020.2.5,Win32,60,m,1,0.518535,,,,,,,,0.518535,1,,,,,,114,WORD,"ID",16,placid,PLACID,m,,,,,,0.544444632,-0.322222322,0,0,0,,0,215,215,113,1,
,,,,,,,,,,,,,,,,,,5f50f0ce14987328c134c530,2020-11-26_15h59.05.049,lexical_decision_task_MP_exp2,2020.2.5,Win32,60,z,1,0.570285,,,,,,,,0.570285,1,,,,,,288,NW,"ID",33,yaceup,YACEUP,z,,,,,,0.544444632,-0.322222322,0,0,0,,0,216,216,287,1,
,,,,,,,,,,,,,,,,,,5f50f0ce14987328c134c530,2020-11-26_15h59.05.049,lexical_decision_task_MP_exp2,2020.2.5,Win32,60,m,1,0.567245,,,,,,,,0.567245,1,,,,,,73,WORD,"ID",16,source,SOURCE,m,,,,,,0.544444632,-0.322222322,0,0,0,,0,217,217,72,1,
,,,,,,,,,,,,,,,,,,5f50f0ce14987328c134c530,2020-11-26_15h59.05.049,lexical_decision_task_MP_exp2,2020.2.5,Win32,60,m,1,0.5557,,,,,,,,0.5557,1,,,,,,8,WORD,"ID",33,abrupt,ABRUPT,m,,,,,,0.544444632,-0.322222322,0,0,0,,0,218,218,7,1,
,,,,,,,,,,,,,,,,,,5f50f0ce14987328c134c530,2020-11-26_15h59.05.049,lexical_decision_task_MP_exp2,2020.2.5,Win32,60,m,1,0.58387,,,,,,,,0.58387,1,,,,,,195,WORD,UN,16,credit,RESIGN,m,,,,,,0.544444632,-0.322222322,0,0,0,,0,219,219,194,1,
,,,,,,,,,,,,,,,,,,5f50f0ce14987328c134c530,2020-11-26_15h59.05.049,lexical_decision_task_MP_exp2,2020.2.5,Win32,60,z,1,0.752665,,,,,,,,0.752665,1,,,,,,320,NW,"ID",16,jockal,JOCKAL,z,,,,,,0.544444632,-0.322222322,0,0,0,,0,220,220,319,1,
,,,,,,,,,,,,,,,,,,5f50f0ce14987328c134c530,2020-11-26_15h59.05.049,lexical_decision_task_MP_exp2,2020.2.5,Win32,60,z,1,0.55207,,,,,,,,0.55207,1,,,,,,384,NW,UN,33,veigma,GUESCO,z,,,,,,0.544444632,-0.322222322,0,0,0,,0,221,221,383,1,
,,,,,,,,,,,,,,,,,,5f50f0ce14987328c134c530,2020-11-26_15h59.05.049,lexical_decision_task_MP_exp2,2020.2.5,Win32,60,m,1,0.56857,,,,,,,,0.56857,1,,,,,,145,WORD,UN,33,couple,PARISH,m,,,,,,0.544444632,-0.322222322,0,0,0,,0,222,222,144,1,
,,,,,,,,,,,,,,,,,,5f50f0ce14987328c134c530,2020-11-26_15h59.05.049,lexical_decision_task_MP_exp2,2020.2.5,Win32,60,z,1,0.625305,,,,,,,,0.625305,1,,,,,,249,NW,"ID",33,batrol,BATROL,z,,,,,,0.544444632,-0.322222322,0,0,0,,0,223,223,248,1,
,,,,,,,,,,,,,,,,,,5f50f0ce14987328c134c530,2020-11-26_15h59.05.049,lexical_decision_task_MP_exp2,2020.2.5,Win32,60,m,0,0.634855,,,,,,,,0.634855,0,,,,,,345,NW,"ID",16,absend,ABSEND,z,,,,,,0.544444632,-0.322222322,0,0,0,,0,224,224,344,1,
,,,,,,,,,,,,,,,,,,5f50f0ce14987328c134c530,2020-11-26_15h59.05.049,lexical_decision_task_MP_exp2,2020.2.5,Win32,60,z,1,0.507135,,,,,,,,0.507135,1,,,,,,287,NW,"ID",33,nymbel,NYMBEL,z,,,,,,0.544444632,-0.322222322,0,0,0,,0,225,225,286,1,
,,,,,,,,,,,,,,,,,,5f50f0ce14987328c134c530,2020-11-26_15h59.05.049,lexical_decision_task_MP_exp2,2020.2.5,Win32,60,z,1,0.62121,,,,,,,,0.62121,1,,,,,,343,NW,"ID",16,aimosy,AIMOSY,z,,,,,,0.544444632,-0.322222322,0,0,0,,0,226,226,342,1,
,,,,,,,,,,,,,,,,,,5f50f0ce14987328c134c530,2020-11-26_15h59.05.049,lexical_decision_task_MP_exp2,2020.2.5,Win32,60,z,1,0.47255,,,,,,,,0.47255,1,,,,,,362,NW,UN,33,breali,TIREAU,z,,,,,,0.544444632,-0.322222322,0,0,0,,0,227,227,361,1,
,,,,,,,,,,,,,,,,,,5f50f0ce14987328c134c530,2020-11-26_15h59.05.049,lexical_decision_task_MP_exp2,2020.2.5,Win32,60,z,1,0.606495,,,,,,,,0.606495,1,,,,,,445,NW,UN,16,runamo,MINKEL,z,,,,,,0.544444632,-0.322222322,0,0,0,,0,228,228,444,1,
,,,,,,,,,,,,,,,,,,5f50f0ce14987328c134c530,2020-11-26_15h59.05.049,lexical_decision_task_MP_exp2,2020.2.5,Win32,60,z,1,0.51097,,,,,,,,0.51097,1,,,,,,326,NW,"ID",16,iguade,IGUADE,z,,,,,,0.544444632,-0.322222322,0,0,0,,0,229,229,325,1,
,,,,,,,,,,,,,,,,,,5f50f0ce14987328c134c530,2020-11-26_15h59.05.049,lexical_decision_task_MP_exp2,2020.2.5,Win32,60,m,1,0.52547,,,,,,,,0.52547,1,,,,,,138,WORD,UN,33,staple,MELODY,m,,,,,,0.544444632,-0.322222322,0,0,0,,0,230,230,137,1,
,,,,,,,,,,,,,,,,,,5f50f0ce14987328c134c530,2020-11-26_15h59.05.049,lexical_decision_task_MP_exp2,2020.2.5,Win32,60,m,1,0.518805,,,,,,,,0.518805,1,,,,,,142,WORD,UN,33,orphan,SPRUCE,m,,,,,,0.544444632,-0.322222322,0,0,0,,0,231,231,141,1,
,,,,,,,,,,,,,,,,,,5f50f0ce14987328c134c530,2020-11-26_15h59.05.049,lexical_decision_task_MP_exp2,2020.2.5,Win32,60,m,1,0.675095,,,,,,,,0.675095,1,,,,,,6,WORD,"ID",33,bundle,BUNDLE,m,,,,,,0.544444632,-0.322222322,0,0,0,,0,232,232,5,1,
,,,,,,,,,,,,,,,,,,5f50f0ce14987328c134c530,2020-11-26_15h59.05.049,lexical_decision_task_MP_exp2,2020.2.5,Win32,60,z,1,0.60481,,,,,,,,0.60481,1,,,,,,350,NW,"ID",16,nagurs,NAGURS,z,,,,,,0.544444632,-0.322222322,0,0,0,,0,233,233,349,1,
,,,,,,,,,,,,,,,,,,5f50f0ce14987328c134c530,2020-11-26_15h59.05.049,lexical_decision_task_MP_exp2,2020.2.5,Win32,60,m,1,0.616645,,,,,,,,0.616645,1,,,,,,36,WORD,"ID",33,vanish,VANISH,m,,,,,,0.544444632,-0.322222322,0,0,0,,0,234,234,35,1,
,,,,,,,,,,,,,,,,,,5f50f0ce14987328c134c530,2020-11-26_15h59.05.049,lexical_decision_task_MP_exp2,2020.2.5,Win32,60,m,1,0.528025,,,,,,,,0.528025,1,,,,,,55,WORD,"ID",33,stroke,STROKE,m,,,,,,0.544444632,-0.322222322,0,0,0,,0,235,235,54,1,
,,,,,,,,,,,,,,,,,,5f50f0ce14987328c134c530,2020-11-26_15h59.05.049,lexical_decision_task_MP_exp2,2020.2.5,Win32,60,m,1,0.471,,,,,,,,0.471,1,,,,,,235,WORD,UN,16,pirate,GRUMPY,m,,,,,,0.544444632,-0.322222322,0,0,0,,0,236,236,234,1,
,,,,,,,,,,,,,,,,,,5f50f0ce14987328c134c530,2020-11-26_15h59.05.049,lexical_decision_task_MP_exp2,2020.2.5,Win32,60,m,1,0.554065,,,,,,,,0.554065,1,,,,,,57,WORD,"ID",33,change,CHANGE,m,,,,,,0.544444632,-0.322222322,0,0,0,,0,237,237,56,1,
,,,,,,,,,,,,,,,,,,5f50f0ce14987328c134c530,2020-11-26_15h59.05.049,lexical_decision_task_MP_exp2,2020.2.5,Win32,60,m,1,0.60811,,,,,,,,0.60811,1,,,,,,234,WORD,UN,16,lumber,CLUMSY,m,,,,,,0.544444632,-0.322222322,0,0,0,,0,238,238,233,1,
,,,,,,,,,,,,,,,,,,5f50f0ce14987328c134c530,2020-11-26_15h59.05.049,lexical_decision_task_MP_exp2,2020.2.5,Win32,60,m,1,0.5508,,,,,,,,0.5508,1,,,,,,202,WORD,UN,16,phrase,FACTOR,m,,,,,,0.544444632,-0.322222322,0,0,0,,0,239,239,201,1,
,,,,,,,,,,,,,,,,,,5f50f0ce14987328c134c530,2020-11-26_15h59.05.049,lexical_decision_task_MP_exp2,2020.2.5,Win32,60,z,1,0.902785,,,,,,,,0.902785,1,,,,,,443,NW,UN,16,jaunce,DORSEX,z,,,,,,0.544444632,-0.322222322,0,0,0,,0,240,240,442,1,
,,,,,,,,,,,,,,,,,,5f50f0ce14987328c134c530,2020-11-26_15h59.05.049,lexical_decision_task_MP_exp2,2020.2.5,Win32,60,m,1,1.15287,,,,,,,,1.15287,1,,,,,,239,WORD,UN,16,forest,LUMBER,m,,,,,,0.544444632,-0.322222322,0,0,0,space,0,241,241,238,1,15.337345
,,,,,,,,,,,,,,,,,,5f50f0ce14987328c134c530,2020-11-26_15h59.05.049,lexical_decision_task_MP_exp2,2020.2.5,Win32,60,z,1,0.704475,,,,,,,,0.704475,1,,,,,,346,NW,"ID",16,saudic,SAUDIC,z,,,,,,0.544444632,-0.322222322,0,0,0,,0,242,242,345,1,
,,,,,,,,,,,,,,,,,,5f50f0ce14987328c134c530,2020-11-26_15h59.05.049,lexical_decision_task_MP_exp2,2020.2.5,Win32,60,z,1,0.534895,,,,,,,,0.534895,1,,,,,,321,NW,"ID",16,miator,MIATOR,z,,,,,,0.544444632,-0.322222322,0,0,0,,0,243,243,320,1,
,,,,,,,,,,,,,,,,,,5f50f0ce14987328c134c530,2020-11-26_15h59.05.049,lexical_decision_task_MP_exp2,2020.2.5,Win32,60,z,1,0.50255,,,,,,,,0.50255,1,,,,,,434,NW,UN,16,impurb,PITROM,z,,,,,,0.544444632,-0.322222322,0,0,0,,0,244,244,433,1,
,,,,,,,,,,,,,,,,,,5f50f0ce14987328c134c530,2020-11-26_15h59.05.049,lexical_decision_task_MP_exp2,2020.2.5,Win32,60,m,1,0.681545,,,,,,,,0.681545,1,,,,,,85,WORD,"ID",16,sprawl,SPRAWL,m,,,,,,0.544444632,-0.322222322,0,0,0,,0,245,245,84,1,
,,,,,,,,,,,,,,,,,,5f50f0ce14987328c134c530,2020-11-26_15h59.05.049,lexical_decision_task_MP_exp2,2020.2.5,Win32,60,z,1,0.65645,,,,,,,,0.65645,1,,,,,,247,NW,"ID",33,blarge,BLARGE,z,,,,,,0.544444632,-0.322222322,0,0,0,,0,246,246,246,1,
,,,,,,,,,,,,,,,,,,5f50f0ce14987328c134c530,2020-11-26_15h59.05.049,lexical_decision_task_MP_exp2,2020.2.5,Win32,60,m,1,0.589655,,,,,,,,0.589655,1,,,,,,90,WORD,"ID",16,relish,RELISH,m,,,,,,0.544444632,-0.322222322,0,0,0,,0,247,247,89,1,
,,,,,,,,,,,,,,,,,,5f50f0ce14987328c134c530,2020-11-26_15h59.05.049,lexical_decision_task_MP_exp2,2020.2.5,Win32,60,z,1,1.10055,,,,,,,,1.10055,1,,,,,,429,NW,UN,16,caroey,FUNTLE,z,,,,,,0.544444632,-0.322222322,0,0,0,,0,248,248,428,1,
,,,,,,,,,,,,,,,,,,5f50f0ce14987328c134c530,2020-11-26_15h59.05.049,lexical_decision_task_MP_exp2,2020.2.5,Win32,60,m,1,0.63748,,,,,,,,0.63748,1,,,,,,37,WORD,"ID",33,insult,INSULT,m,,,,,,0.544444632,-0.322222322,0,0,0,,0,249,249,36,1,
,,,,,,,,,,,,,,,,,,5f50f0ce14987328c134c530,2020-11-26_15h59.05.049,lexical_decision_task_MP_exp2,2020.2.5,Win32,60,z,1,0.851295,,,,,,,,0.851295,1,,,,,,452,NW,UN,16,bolvis,SURDEN,z,,,,,,0.544444632,-0.322222322,0,0,0,,0,250,250,451,1,
,,,,,,,,,,,,,,,,,,5f50f0ce14987328c134c530,2020-11-26_15h59.05.049,lexical_decision_task_MP_exp2,2020.2.5,Win32,60,m,1,0.75133,,,,,,,,0.75133,1,,,,,,179,WORD,UN,33,silent,BASKET,m,,,,,,0.544444632,-0.322222322,0,0,0,,0,251,251,178,1,
,,,,,,,,,,,,,,,,,,5f50f0ce14987328c134c530,2020-11-26_15h59.05.049,lexical_decision_task_MP_exp2,2020.2.5,Win32,60,m,1,0.53728,,,,,,,,0.53728,1,,,,,,163,WORD,UN,33,market,STRING,m,,,,,,0.544444632,-0.322222322,0,0,0,,0,252,252,162,1,
,,,,,,,,,,,,,,,,,,5f50f0ce14987328c134c530,2020-11-26_15h59.05.049,lexical_decision_task_MP_exp2,2020.2.5,Win32,60,z,1,0.715525,,,,,,,,0.715525,1,,,,,,479,NW,UN,16,josted,LOBUSH,z,,,,,,0.544444632,-0.322222322,0,0,0,,0,253,253,478,1,
,,,,,,,,,,,,,,,,,,5f50f0ce14987328c134c530,2020-11-26_15h59.05.049,lexical_decision_task_MP_exp2,2020.2.5,Win32,60,z,1,0.716925,,,,,,,,0.716925,1,,,,,,401,NW,UN,33,elopia,MUSTIL,z,,,,,,0.544444632,-0.322222322,0,0,0,,0,254,254,400,1,
,,,,,,,,,,,,,,,,,,5f50f0ce14987328c134c530,2020-11-26_15h59.05.049,lexical_decision_task_MP_exp2,2020.2.5,Win32,60,m,1,0.61573,,,,,,,,0.61573,1,,,,,,189,WORD,UN,16,backup,CENSOR,m,,,,,,0.544444632,-0.322222322,0,0,0,,0,255,255,188,1,
,,,,,,,,,,,,,,,,,,5f50f0ce14987328c134c530,2020-11-26_15h59.05.049,lexical_decision_task_MP_exp2,2020.2.5,Win32,60,m,1,0.46841,,,,,,,,0.46841,1,,,,,,21,WORD,"ID",33,simple,SIMPLE,m,,,,,,0.544444632,-0.322222322,0,0,0,,0,256,256,20,1,
,,,,,,,,,,,,,,,,,,5f50f0ce14987328c134c530,2020-11-26_15h59.05.049,lexical_decision_task_MP_exp2,2020.2.5,Win32,60,z,1,0.722,,,,,,,,0.722,1,,,,,,412,NW,UN,33,equats,JILUER,z,,,,,,0.544444632,-0.322222322,0,0,0,,0,257,257,411,1,
,,,,,,,,,,,,,,,,,,5f50f0ce14987328c134c530,2020-11-26_15h59.05.049,lexical_decision_task_MP_exp2,2020.2.5,Win32,60,z,1,0.68421,,,,,,,,0.68421,1,,,,,,376,NW,UN,33,sliant,IGUARE,z,,,,,,0.544444632,-0.322222322,0,0,0,,0,258,258,375,1,
,,,,,,,,,,,,,,,,,,5f50f0ce14987328c134c530,2020-11-26_15h59.05.049,lexical_decision_task_MP_exp2,2020.2.5,Win32,60,z,1,0.65794,,,,,,,,0.65794,1,,,,,,411,NW,UN,33,jiluer,ORCHIN,z,,,,,,0.544444632,-0.322222322,0,0,0,,0,259,259,410,1,
,,,,,,,,,,,,,,,,,,5f50f0ce14987328c134c530,2020-11-26_15h59.05.049,lexical_decision_task_MP_exp2,2020.2.5,Win32,60,m,1,0.733735,,,,,,,,0.733735,1,,,,,,119,WORD,"ID",16,spider,SPIDER,m,,,,,,0.544444632,-0.322222322,0,0,0,,0,260,260,118,1,
,,,,,,,,,,,,,,,,,,5f50f0ce14987328c134c530,2020-11-26_15h59.05.049,lexical_decision_task_MP_exp2,2020.2.5,Win32,60,z,1,0.726205,,,,,,,,0.726205,1,,,,,,397,NW,UN,33,blunde,CAMBLE,z,,,,,,0.544444632,-0.322222322,0,0,0,,0,261,261,396,1,
,,,,,,,,,,,,,,,,,,5f50f0ce14987328c134c530,2020-11-26_15h59.05.049,lexical_decision_task_MP_exp2,2020.2.5,Win32,60,z,1,0.7373,,,,,,,,0.7373,1,,,,,,390,NW,UN,33,theldy,HATRUS,z,,,,,,0.544444632,-0.322222322,0,0,0,,0,262,262,389,1,
,,,,,,,,,,,,,,,,,,5f50f0ce14987328c134c530,2020-11-26_15h59.05.049,lexical_decision_task_MP_exp2,2020.2.5,Win32,60,z,1,0.90378,,,,,,,,0.90378,1,,,,,,348,NW,"ID",16,dumple,DUMPLE,z,,,,,,0.544444632,-0.322222322,0,0,0,,0,263,263,347,1,
,,,,,,,,,,,,,,,,,,5f50f0ce14987328c134c530,2020-11-26_15h59.05.049,lexical_decision_task_MP_exp2,2020.2.5,Win32,60,z,1,0.577765,,,,,,,,0.577765,1,,,,,,344,NW,"ID",16,scrily,SCRILY,z,,,,,,0.544444632,-0.322222322,0,0,0,,0,264,264,343,1,
,,,,,,,,,,,,,,,,,,5f50f0ce14987328c134c530,2020-11-26_15h59.05.049,lexical_decision_task_MP_exp2,2020.2.5,Win32,60,z,1,0.542165,,,,,,,,0.542165,1,,,,,,477,NW,UN,16,acrise,PHOTIE,z,,,,,,0.544444632,-0.322222322,0,0,0,,0,265,265,476,1,
,,,,,,,,,,,,,,,,,,5f50f0ce14987328c134c530,2020-11-26_15h59.05.049,lexical_decision_task_MP_exp2,2020.2.5,Win32,60,m,1,0.82368,,,,,,,,0.82368,1,,,,,,177,WORD,UN,33,inform,ADVENT,m,,,,,,0.544444632,-0.322222322,0,0,0,,0,266,266,176,1,
,,,,,,,,,,,,,,,,,,5f50f0ce14987328c134c530,2020-11-26_15h59.05.049,lexical_decision_task_MP_exp2,2020.2.5,Win32,60,z,1,0.672215,,,,,,,,0.672215,1,,,,,,389,NW,UN,33,hatrus,WITMER,z,,,,,,0.544444632,-0.322222322,0,0,0,,0,267,267,388,1,
,,,,,,,,,,,,,,,,,,5f50f0ce14987328c134c530,2020-11-26_15h59.05.049,lexical_decision_task_MP_exp2,2020.2.5,Win32,60,z,1,0.58726,,,,,,,,0.58726,1,,,,,,436,NW,UN,16,snapel,FRUTAN,z,,,,,,0.544444632,-0.322222322,0,0,0,,0,268,268,435,1,
,,,,,,,,,,,,,,,,,,5f50f0ce14987328c134c530,2020-11-26_15h59.05.049,lexical_decision_task_MP_exp2,2020.2.5,Win32,60,z,1,0.64079,,,,,,,,0.64079,1,,,,,,327,NW,"ID",16,plenac,PLENAC,z,,,,,,0.544444632,-0.322222322,0,0,0,,0,269,269,326,1,
,,,,,,,,,,,,,,,,,,5f50f0ce14987328c134c530,2020-11-26_15h59.05.049,lexical_decision_task_MP_exp2,2020.2.5,Win32,60,m,0,0.584145,,,,,,,,0.584145,0,,,,,,260,NW,"ID",33,unject,UNJECT,z,,,,,,0.544444632,-0.322222322,0,0,0,,0,270,270,259,1,
,,,,,,,,,,,,,,,,,,5f50f0ce14987328c134c530,2020-11-26_15h59.05.049,lexical_decision_task_MP_exp2,2020.2.5,Win32,60,m,1,0.68482,,,,,,,,0.68482,1,,,,,,216,WORD,UN,16,liquor,BEHALF,m,,,,,,0.544444632,-0.322222322,0,0,0,,0,271,271,215,1,
,,,,,,,,,,,,,,,,,,5f50f0ce14987328c134c530,2020-11-26_15h59.05.049,lexical_decision_task_MP_exp2,2020.2.5,Win32,60,m,1,0.572215,,,,,,,,0.572215,1,,,,,,104,WORD,"ID",16,studio,STUDIO,m,,,,,,0.544444632,-0.322222322,0,0,0,,0,272,272,103,1,
,,,,,,,,,,,,,,,,,,5f50f0ce14987328c134c530,2020-11-26_15h59.05.049,lexical_decision_task_MP_exp2,2020.2.5,Win32,60,m,1,0.60813,,,,,,,,0.60813,1,,,,,,207,WORD,UN,16,hockey,WREATH,m,,,,,,0.544444632,-0.322222322,0,0,0,,0,273,273,206,1,
,,,,,,,,,,,,,,,,,,5f50f0ce14987328c134c530,2020-11-26_15h59.05.049,lexical_decision_task_MP_exp2,2020.2.5,Win32,60,m,1,0.524745,,,,,,,,0.524745,1,,,,,,72,WORD,"ID",16,bright,BRIGHT,m,,,,,,0.544444632,-0.322222322,0,0,0,,0,274,274,71,1,
,,,,,,,,,,,,,,,,,,5f50f0ce14987328c134c530,2020-11-26_15h59.05.049,lexical_decision_task_MP_exp2,2020.2.5,Win32,60,z,1,0.5918,,,,,,,,0.5918,1,,,,,,331,NW,"ID",16,gilfew,GILFEW,z,,,,,,0.544444632,-0.322222322,0,0,0,,0,275,275,330,1,
,,,,,,,,,,,,,,,,,,5f50f0ce14987328c134c530,2020-11-26_15h59.05.049,lexical_decision_task_MP_exp2,2020.2.5,Win32,60,m,1,0.639665,,,,,,,,0.639665,1,,,,,,140,WORD,UN,33,reason,PRINCE,m,,,,,,0.544444632,-0.322222322,0,0,0,,0,276,276,139,1,
,,,,,,,,,,,,,,,,,,5f50f0ce14987328c134c530,2020-11-26_15h59.05.049,lexical_decision_task_MP_exp2,2020.2.5,Win32,60,z,1,0.967565,,,,,,,,0.967565,1,,,,,,454,NW,UN,16,tondle,SCOUGE,z,,,,,,0.544444632,-0.322222322,0,0,0,,0,277,277,453,1,
,,,,,,,,,,,,,,,,,,5f50f0ce14987328c134c530,2020-11-26_15h59.05.049,lexical_decision_task_MP_exp2,2020.2.5,Win32,60,m,1,0.6227,,,,,,,,0.6227,1,,,,,,62,WORD,"ID",16,region,REGION,m,,,,,,0.544444632,-0.322222322,0,0,0,,0,278,278,61,1,
,,,,,,,,,,,,,,,,,,5f50f0ce14987328c134c530,2020-11-26_15h59.05.049,lexical_decision_task_MP_exp2,2020.2.5,Win32,60,z,1,0.68413,,,,,,,,0.68413,1,,,,,,469,NW,UN,16,crudio,PADIFS,z,,,,,,0.544444632,-0.322222322,0,0,0,,0,279,279,468,1,
,,,,,,,,,,,,,,,,,,5f50f0ce14987328c134c530,2020-11-26_15h59.05.049,lexical_decision_task_MP_exp2,2020.2.5,Win32,60,m,1,0.65265,,,,,,,,0.65265,1,,,,,,71,WORD,"ID",16,garden,GARDEN,m,,,,,,0.544444632,-0.322222322,0,0,0,,0,280,280,70,1,
,,,,,,,,,,,,,,,,,,5f50f0ce14987328c134c530,2020-11-26_15h59.05.049,lexical_decision_task_MP_exp2,2020.2.5,Win32,60,m,1,0.651145,,,,,,,,0.651145,1,,,,,,225,WORD,UN,16,kidney,VULGAR,m,,,,,,0.544444632,-0.322222322,0,0,0,,0,281,281,224,1,
,,,,,,,,,,,,,,,,,,5f50f0ce14987328c134c530,2020-11-26_15h59.05.049,lexical_decision_task_MP_exp2,2020.2.5,Win32,60,z,1,0.567325,,,,,,,,0.567325,1,,,,,,463,NW,UN,16,bafent,KISPEL,z,,,,,,0.544444632,-0.322222322,0,0,0,,0,282,282,462,1,
,,,,,,,,,,,,,,,,,,5f50f0ce14987328c134c530,2020-11-26_15h59.05.049,lexical_decision_task_MP_exp2,2020.2.5,Win32,60,m,1,0.62421,,,,,,,,0.62421,1,,,,,,206,WORD,UN,16,wreath,TAILOR,m,,,,,,0.544444632,-0.322222322,0,0,0,,0,283,283,205,1,
,,,,,,,,,,,,,,,,,,5f50f0ce14987328c134c530,2020-11-26_15h59.05.049,lexical_decision_task_MP_exp2,2020.2.5,Win32,60,m,1,0.56102,,,,,,,,0.56102,1,,,,,,159,WORD,UN,33,violet,DETAIL,m,,,,,,0.544444632,-0.322222322,0,0,0,,0,284,284,158,1,
,,,,,,,,,,,,,,,,,,5f50f0ce14987328c134c530,2020-11-26_15h59.05.049,lexical_decision_task_MP_exp2,2020.2.5,Win32,60,m,0,0.673285,,,,,,,,0.673285,0,,,,,,358,NW,"ID",16,fleack,FLEACK,z,,,,,,0.544444632,-0.322222322,0,0,0,,0,285,285,357,1,
,,,,,,,,,,,,,,,,,,5f50f0ce14987328c134c530,2020-11-26_15h59.05.049,lexical_decision_task_MP_exp2,2020.2.5,Win32,60,m,1,0.53563,,,,,,,,0.53563,1,,,,,,27,WORD,"ID",33,scream,SCREAM,m,,,,,,0.544444632,-0.322222322,0,0,0,,0,286,286,26,1,
,,,,,,,,,,,,,,,,,,5f50f0ce14987328c134c530,2020-11-26_15h59.05.049,lexical_decision_task_MP_exp2,2020.2.5,Win32,60,m,1,0.60073,,,,,,,,0.60073,1,,,,,,88,WORD,"ID",16,hunger,HUNGER,m,,,,,,0.544444632,-0.322222322,0,0,0,,0,287,287,87,1,
,,,,,,,,,,,,,,,,,,5f50f0ce14987328c134c530,2020-11-26_15h59.05.049,lexical_decision_task_MP_exp2,2020.2.5,Win32,60,m,1,0.586985,,,,,,,,0.586985,1,,,,,,7,WORD,"ID",33,anchor,ANCHOR,m,,,,,,0.544444632,-0.322222322,0,0,0,,0,288,288,6,1,
,,,,,,,,,,,,,,,,,,5f50f0ce14987328c134c530,2020-11-26_15h59.05.049,lexical_decision_task_MP_exp2,2020.2.5,Win32,60,z,1,0.817955,,,,,,,,0.817955,1,,,,,,319,NW,"ID",16,zomber,ZOMBER,z,,,,,,0.544444632,-0.322222322,0,0,0,,0,289,289,318,1,
,,,,,,,,,,,,,,,,,,5f50f0ce14987328c134c530,2020-11-26_15h59.05.049,lexical_decision_task_MP_exp2,2020.2.5,Win32,60,m,1,0.784025,,,,,,,,0.784025,1,,,,,,240,WORD,UN,16,glance,FOREST,m,,,,,,0.544444632,-0.322222322,0,0,0,,0,290,290,239,1,
,,,,,,,,,,,,,,,,,,5f50f0ce14987328c134c530,2020-11-26_15h59.05.049,lexical_decision_task_MP_exp2,2020.2.5,Win32,60,m,1,0.556805,,,,,,,,0.556805,1,,,,,,223,WORD,UN,16,period,KIDNEY,m,,,,,,0.544444632,-0.322222322,0,0,0,,0,291,291,222,1,
,,,,,,,,,,,,,,,,,,5f50f0ce14987328c134c530,2020-11-26_15h59.05.049,lexical_decision_task_MP_exp2,2020.2.5,Win32,60,z,1,0.68478,,,,,,,,0.68478,1,,,,,,255,NW,"ID",33,apight,APIGHT,z,,,,,,0.544444632,-0.322222322,0,0,0,,0,292,292,254,1,
,,,,,,,,,,,,,,,,,,5f50f0ce14987328c134c530,2020-11-26_15h59.05.049,lexical_decision_task_MP_exp2,2020.2.5,Win32,60,z,1,0.69897,,,,,,,,0.69897,1,,,,,,330,NW,"ID",16,kensom,KENSOM,z,,,,,,0.544444632,-0.322222322,0,0,0,,0,293,293,329,1,
,,,,,,,,,,,,,,,,,,5f50f0ce14987328c134c530,2020-11-26_15h59.05.049,lexical_decision_task_MP_exp2,2020.2.5,Win32,60,m,1,0.516905,,,,,,,,0.516905,1,,,,,,190,WORD,UN,16,stable,BACKUP,m,,,,,,0.544444632,-0.322222322,0,0,0,,0,294,294,189,1,
,,,,,,,,,,,,,,,,,,5f50f0ce14987328c134c530,2020-11-26_15h59.05.049,lexical_decision_task_MP_exp2,2020.2.5,Win32,60,z,1,0.735175,,,,,,,,0.735175,1,,,,,,289,NW,"ID",33,starby,STARBY,z,,,,,,0.544444632,-0.322222322,0,0,0,,0,295,295,288,1,
,,,,,,,,,,,,,,,,,,5f50f0ce14987328c134c530,2020-11-26_15h59.05.049,lexical_decision_task_MP_exp2,2020.2.5,Win32,60,z,1,0.66017,,,,,,,,0.66017,1,,,,,,340,NW,"ID",16,fiatch,FIATCH,z,,,,,,0.544444632,-0.322222322,0,0,0,,0,296,296,339,1,
,,,,,,,,,,,,,,,,,,5f50f0ce14987328c134c530,2020-11-26_15h59.05.049,lexical_decision_task_MP_exp2,2020.2.5,Win32,60,z,1,0.68494,,,,,,,,0.68494,1,,,,,,430,NW,UN,16,funtle,CAROEY,z,,,,,,0.544444632,-0.322222322,0,0,0,,0,297,297,429,1,
,,,,,,,,,,,,,,,,,,5f50f0ce14987328c134c530,2020-11-26_15h59.05.049,lexical_decision_task_MP_exp2,2020.2.5,Win32,60,z,1,0.637335,,,,,,,,0.637335,1,,,,,,441,NW,UN,16,aboune,RASTOE,z,,,,,,0.544444632,-0.322222322,0,0,0,,0,298,298,440,1,
,,,,,,,,,,,,,,,,,,5f50f0ce14987328c134c530,2020-11-26_15h59.05.049,lexical_decision_task_MP_exp2,2020.2.5,Win32,60,m,1,0.607465,,,,,,,,0.607465,1,,,,,,29,WORD,"ID",33,sketch,SKETCH,m,,,,,,0.544444632,-0.322222322,0,0,0,,0,299,299,28,1,
,,,,,,,,,,,,,,,,,,5f50f0ce14987328c134c530,2020-11-26_15h59.05.049,lexical_decision_task_MP_exp2,2020.2.5,Win32,60,m,0,1.021605,,,,,,,,1.021605,0,,,,,,427,NW,UN,16,tandly,SCHIND,z,,,,,,0.544444632,-0.322222322,0,0,0,,0,300,300,426,1,
,,,,,,,,,,,,,,,,,,5f50f0ce14987328c134c530,2020-11-26_15h59.05.049,lexical_decision_task_MP_exp2,2020.2.5,Win32,60,m,1,0.741815,,,,,,,,0.741815,1,,,,,,33,WORD,"ID",33,butler,BUTLER,m,,,,,,0.544444632,-0.322222322,0,0,0,,0,301,301,32,1,
,,,,,,,,,,,,,,,,,,5f50f0ce14987328c134c530,2020-11-26_15h59.05.049,lexical_decision_task_MP_exp2,2020.2.5,Win32,60,m,1,0.579565,,,,,,,,0.579565,1,,,,,,210,WORD,UN,16,infect,MONKEY,m,,,,,,0.544444632,-0.322222322,0,0,0,,0,302,302,209,1,
,,,,,,,,,,,,,,,,,,5f50f0ce14987328c134c530,2020-11-26_15h59.05.049,lexical_decision_task_MP_exp2,2020.2.5,Win32,60,m,1,0.83029,,,,,,,,0.83029,1,,,,,,46,WORD,"ID",33,single,SINGLE,m,,,,,,0.544444632,-0.322222322,0,0,0,,0,303,303,45,1,
,,,,,,,,,,,,,,,,,,5f50f0ce14987328c134c530,2020-11-26_15h59.05.049,lexical_decision_task_MP_exp2,2020.2.5,Win32,60,m,1,0.499845,,,,,,,,0.499845,1,,,,,,64,WORD,"ID",16,throne,THRONE,m,,,,,,0.544444632,-0.322222322,0,0,0,,0,304,304,63,1,
,,,,,,,,,,,,,,,,,,5f50f0ce14987328c134c530,2020-11-26_15h59.05.049,lexical_decision_task_MP_exp2,2020.2.5,Win32,60,m,1,0.490785,,,,,,,,0.490785,1,,,,,,4,WORD,"ID",33,trench,TRENCH,m,,,,,,0.544444632,-0.322222322,0,0,0,,0,305,305,3,1,
,,,,,,,,,,,,,,,,,,5f50f0ce14987328c134c530,2020-11-26_15h59.05.049,lexical_decision_task_MP_exp2,2020.2.5,Win32,60,z,1,0.654805,,,,,,,,0.654805,1,,,,,,399,NW,UN,33,wearox,FOURET,z,,,,,,0.544444632,-0.322222322,0,0,0,,0,306,306,398,1,
,,,,,,,,,,,,,,,,,,5f50f0ce14987328c134c530,2020-11-26_15h59.05.049,lexical_decision_task_MP_exp2,2020.2.5,Win32,60,m,1,0.534285,,,,,,,,0.534285,1,,,,,,124,WORD,UN,33,nickel,BLOUSE,m,,,,,,0.544444632,-0.322222322,0,0,0,,0,307,307,123,1,
,,,,,,,,,,,,,,,,,,5f50f0ce14987328c134c530,2020-11-26_15h59.05.049,lexical_decision_task_MP_exp2,2020.2.5,Win32,60,m,1,0.549785,,,,,,,,0.549785,1,,,,,,11,WORD,"ID",33,cruise,CRUISE,m,,,,,,0.544444632,-0.322222322,0,0,0,,0,308,308,10,1,
,,,,,,,,,,,,,,,,,,5f50f0ce14987328c134c530,2020-11-26_15h59.05.049,lexical_decision_task_MP_exp2,2020.2.5,Win32,60,z,1,0.53646,,,,,,,,0.53646,1,,,,,,241,NW,"ID",33,smenco,SMENCO,z,,,,,,0.544444632,-0.322222322,0,0,0,,0,309,309,240,1,
,,,,,,,,,,,,,,,,,,5f50f0ce14987328c134c530,2020-11-26_15h59.05.049,lexical_decision_task_MP_exp2,2020.2.5,Win32,60,z,0,0.719815,,,,,,,,0.719815,0,,,,,,176,WORD,UN,33,advent,STRIFE,m,,,,,,0.544444632,-0.322222322,0,0,0,,0,310,310,175,1,
,,,,,,,,,,,,,,,,,,5f50f0ce14987328c134c530,2020-11-26_15h59.05.049,lexical_decision_task_MP_exp2,2020.2.5,Win32,60,m,1,0.782345,,,,,,,,0.782345,1,,,,,,212,WORD,UN,16,squeal,VERIFY,m,,,,,,0.544444632,-0.322222322,0,0,0,,0,311,311,211,1,
,,,,,,,,,,,,,,,,,,5f50f0ce14987328c134c530,2020-11-26_15h59.05.049,lexical_decision_task_MP_exp2,2020.2.5,Win32,60,z,1,0.57991,,,,,,,,0.57991,1,,,,,,278,NW,"ID",33,unighs,UNIGHS,z,,,,,,0.544444632,-0.322222322,0,0,0,,0,312,312,277,1,
,,,,,,,,,,,,,,,,,,5f50f0ce14987328c134c530,2020-11-26_15h59.05.049,lexical_decision_task_MP_exp2,2020.2.5,Win32,60,m,1,0.88676,,,,,,,,0.88676,1,,,,,,171,WORD,UN,33,patrol,DEPART,m,,,,,,0.544444632,-0.322222322,0,0,0,,0,313,313,170,1,
,,,,,,,,,,,,,,,,,,5f50f0ce14987328c134c530,2020-11-26_15h59.05.049,lexical_decision_task_MP_exp2,2020.2.5,Win32,60,z,1,0.565305,,,,,,,,0.565305,1,,,,,,322,NW,"ID",16,slanch,SLANCH,z,,,,,,0.544444632,-0.322222322,0,0,0,,0,314,314,321,1,
,,,,,,,,,,,,,,,,,,5f50f0ce14987328c134c530,2020-11-26_15h59.05.049,lexical_decision_task_MP_exp2,2020.2.5,Win32,60,z,1,1.02118,,,,,,,,1.02118,1,,,,,,431,NW,UN,16,lunker,CHRUMS,z,,,,,,0.544444632,-0.322222322,0,0,0,,0,315,315,430,1,
,,,,,,,,,,,,,,,,,,5f50f0ce14987328c134c530,2020-11-26_15h59.05.049,lexical_decision_task_MP_exp2,2020.2.5,Win32,60,m,1,0.581255,,,,,,,,0.581255,1,,,,,,133,WORD,UN,33,debris,CHROME,m,,,,,,0.544444632,-0.322222322,0,0,0,,0,316,316,132,1,
,,,,,,,,,,,,,,,,,,5f50f0ce14987328c134c530,2020-11-26_15h59.05.049,lexical_decision_task_MP_exp2,2020.2.5,Win32,60,z,1,0.613715,,,,,,,,0.613715,1,,,,,,464,NW,UN,16,whivex,CHAITE,z,,,,,,0.544444632,-0.322222322,0,0,0,,0,317,317,463,1,
,,,,,,,,,,,,,,,,,,5f50f0ce14987328c134c530,2020-11-26_15h59.05.049,lexical_decision_task_MP_exp2,2020.2.5,Win32,60,z,1,0.73527,,,,,,,,0.73527,1,,,,,,422,NW,UN,16,streld,ALCOUD,z,,,,,,0.544444632,-0.322222322,0,0,0,,0,318,318,421,1,
,,,,,,,,,,,,,,,,,,5f50f0ce14987328c134c530,2020-11-26_15h59.05.049,lexical_decision_task_MP_exp2,2020.2.5,Win32,60,m,1,0.599715,,,,,,,,0.599715,1,,,,,,120,WORD,"ID",16,strain,STRAIN,m,,,,,,0.544444632,-0.322222322,0,0,0,,0,319,319,119,1,
,,,,,,,,,,,,,,,,,,5f50f0ce14987328c134c530,2020-11-26_15h59.05.049,lexical_decision_task_MP_exp2,2020.2.5,Win32,60,z,1,0.77916,,,,,,,,0.77916,1,,,,,,370,NW,UN,33,geiloy,SLEACT,z,,,,,,0.544444632,-0.322222322,0,0,0,,0,320,320,369,1,
,,,,,,,,,,,,,,,,,,5f50f0ce14987328c134c530,2020-11-26_15h59.05.049,lexical_decision_task_MP_exp2,2020.2.5,Win32,60,z,1,0.64086,,,,,,,,0.64086,1,,,,,,442,NW,UN,16,dorsex,ABOUNE,z,,,,,,0.544444632,-0.322222322,0,0,0,,0,321,321,441,1,
,,,,,,,,,,,,,,,,,,5f50f0ce14987328c134c530,2020-11-26_15h59.05.049,lexical_decision_task_MP_exp2,2020.2.5,Win32,60,z,1,0.53237,,,,,,,,0.53237,1,,,,,,418,NW,UN,33,slount,SUIDLE,z,,,,,,0.544444632,-0.322222322,0,0,0,,0,322,322,417,1,
,,,,,,,,,,,,,,,,,,5f50f0ce14987328c134c530,2020-11-26_15h59.05.049,lexical_decision_task_MP_exp2,2020.2.5,Win32,60,z,1,0.70625,,,,,,,,0.70625,1,,,,,,332,NW,"ID",16,vangue,VANGUE,z,,,,,,0.544444632,-0.322222322,0,0,0,,0,323,323,331,1,
,,,,,,,,,,,,,,,,,,5f50f0ce14987328c134c530,2020-11-26_15h59.05.049,lexical_decision_task_MP_exp2,2020.2.5,Win32,60,m,1,0.53878,,,,,,,,0.53878,1,,,,,,18,WORD,"ID",33,humble,HUMBLE,m,,,,,,0.544444632,-0.322222322,0,0,0,,0,324,324,17,1,
,,,,,,,,,,,,,,,,,,5f50f0ce14987328c134c530,2020-11-26_15h59.05.049,lexical_decision_task_MP_exp2,2020.2.5,Win32,60,m,1,0.601045,,,,,,,,0.601045,1,,,,,,101,WORD,"ID",16,wrench,WRENCH,m,,,,,,0.544444632,-0.322222322,0,0,0,,0,325,325,100,1,
,,,,,,,,,,,,,,,,,,5f50f0ce14987328c134c530,2020-11-26_15h59.05.049,lexical_decision_task_MP_exp2,2020.2.5,Win32,60,z,1,0.629835,,,,,,,,0.629835,1,,,,,,387,NW,UN,33,cragin,GRONCE,z,,,,,,0.544444632,-0.322222322,0,0,0,,0,326,326,386,1,
,,,,,,,,,,,,,,,,,,5f50f0ce14987328c134c530,2020-11-26_15h59.05.049,lexical_decision_task_MP_exp2,2020.2.5,Win32,60,m,1,0.68365,,,,,,,,0.68365,1,,,,,,97,WORD,"ID",16,client,CLIENT,m,,,,,,0.544444632,-0.322222322,0,0,0,,0,327,327,96,1,
,,,,,,,,,,,,,,,,,,5f50f0ce14987328c134c530,2020-11-26_15h59.05.049,lexical_decision_task_MP_exp2,2020.2.5,Win32,60,z,1,0.969415,,,,,,,,0.969415,1,,,,,,310,NW,"ID",16,daniet,DANIET,z,,,,,,0.544444632,-0.322222322,0,0,0,,0,328,328,309,1,
,,,,,,,,,,,,,,,,,,5f50f0ce14987328c134c530,2020-11-26_15h59.05.049,lexical_decision_task_MP_exp2,2020.2.5,Win32,60,m,1,0.611275,,,,,,,,0.611275,1,,,,,,58,WORD,"ID",33,foster,FOSTER,m,,,,,,0.544444632,-0.322222322,0,0,0,,0,329,329,57,1,
,,,,,,,,,,,,,,,,,,5f50f0ce14987328c134c530,2020-11-26_15h59.05.049,lexical_decision_task_MP_exp2,2020.2.5,Win32,60,z,1,0.735765,,,,,,,,0.735765,1,,,,,,450,NW,UN,16,rastoe,PHRECT,z,,,,,,0.544444632,-0.322222322,0,0,0,,0,330,330,449,1,
,,,,,,,,,,,,,,,,,,5f50f0ce14987328c134c530,2020-11-26_15h59.05.049,lexical_decision_task_MP_exp2,2020.2.5,Win32,60,m,1,0.6662,,,,,,,,0.6662,1,,,,,,192,WORD,UN,16,object,PLAGUE,m,,,,,,0.544444632,-0.322222322,0,0,0,,0,331,331,191,1,
,,,,,,,,,,,,,,,,,,5f50f0ce14987328c134c530,2020-11-26_15h59.05.049,lexical_decision_task_MP_exp2,2020.2.5,Win32,60,z,1,0.55106,,,,,,,,0.55106,1,,,,,,459,NW,UN,16,mingar,BAFENT,z,,,,,,0.544444632,-0.322222322,0,0,0,,0,332,332,458,1,
,,,,,,,,,,,,,,,,,,5f50f0ce14987328c134c530,2020-11-26_15h59.05.049,lexical_decision_task_MP_exp2,2020.2.5,Win32,60,z,1,1.034305,,,,,,,,1.034305,1,,,,,,417,NW,UN,33,suidle,EAROUD,z,,,,,,0.544444632,-0.322222322,0,0,0,,0,333,333,416,1,
,,,,,,,,,,,,,,,,,,5f50f0ce14987328c134c530,2020-11-26_15h59.05.049,lexical_decision_task_MP_exp2,2020.2.5,Win32,60,z,1,0.982355,,,,,,,,0.982355,1,,,,,,338,NW,"ID",16,wreash,WREASH,z,,,,,,0.544444632,-0.322222322,0,0,0,,0,334,334,337,1,
,,,,,,,,,,,,,,,,,,5f50f0ce14987328c134c530,2020-11-26_15h59.05.049,lexical_decision_task_MP_exp2,2020.2.5,Win32,60,m,1,0.551455,,,,,,,,0.551455,1,,,,,,158,WORD,UN,33,detail,ISLAND,m,,,,,,0.544444632,-0.322222322,0,0,0,,0,335,335,157,1,
,,,,,,,,,,,,,,,,,,5f50f0ce14987328c134c530,2020-11-26_15h59.05.049,lexical_decision_task_MP_exp2,2020.2.5,Win32,60,m,1,0.832725,,,,,,,,0.832725,1,,,,,,199,WORD,UN,16,beacon,INVOKE,m,,,,,,0.544444632,-0.322222322,0,0,0,,0,336,336,198,1,
,,,,,,,,,,,,,,,,,,5f50f0ce14987328c134c530,2020-11-26_15h59.05.049,lexical_decision_task_MP_exp2,2020.2.5,Win32,60,z,1,0.611855,,,,,,,,0.611855,1,,,,,,347,NW,"ID",16,kerift,KERIFT,z,,,,,,0.544444632,-0.322222322,0,0,0,,0,337,337,346,1,
,,,,,,,,,,,,,,,,,,5f50f0ce14987328c134c530,2020-11-26_15h59.05.049,lexical_decision_task_MP_exp2,2020.2.5,Win32,60,z,1,0.679805,,,,,,,,0.679805,1,,,,,,245,NW,"ID",33,anougs,ANOUGS,z,,,,,,0.544444632,-0.322222322,0,0,0,,0,338,338,244,1,
,,,,,,,,,,,,,,,,,,5f50f0ce14987328c134c530,2020-11-26_15h59.05.049,lexical_decision_task_MP_exp2,2020.2.5,Win32,60,z,1,0.66826,,,,,,,,0.66826,1,,,,,,444,NW,UN,16,minkel,JAUNCE,z,,,,,,0.544444632,-0.322222322,0,0,0,,0,339,339,443,1,
,,,,,,,,,,,,,,,,,,5f50f0ce14987328c134c530,2020-11-26_15h59.05.049,lexical_decision_task_MP_exp2,2020.2.5,Win32,60,z,1,0.69617,,,,,,,,0.69617,1,,,,,,250,NW,"ID",33,milted,MILTED,z,,,,,,0.544444632,-0.322222322,0,0,0,,0,340,340,249,1,
,,,,,,,,,,,,,,,,,,5f50f0ce14987328c134c530,2020-11-26_15h59.05.049,lexical_decision_task_MP_exp2,2020.2.5,Win32,60,z,1,0.60418,,,,,,,,0.60418,1,,,,,,313,NW,"ID",16,paurse,PAURSE,z,,,,,,0.544444632,-0.322222322,0,0,0,,0,341,341,312,1,
,,,,,,,,,,,,,,,,,,5f50f0ce14987328c134c530,2020-11-26_15h59.05.049,lexical_decision_task_MP_exp2,2020.2.5,Win32,60,m,1,0.528095,,,,,,,,0.528095,1,,,,,,80,WORD,"ID",16,family,FAMILY,m,,,,,,0.544444632,-0.322222322,0,0,0,,0,342,342,79,1,
,,,,,,,,,,,,,,,,,,5f50f0ce14987328c134c530,2020-11-26_15h59.05.049,lexical_decision_task_MP_exp2,2020.2.5,Win32,60,z,1,0.664465,,,,,,,,0.664465,1,,,,,,415,NW,UN,33,pathel,HIGSTA,z,,,,,,0.544444632,-0.322222322,0,0,0,,0,343,343,414,1,
,,,,,,,,,,,,,,,,,,5f50f0ce14987328c134c530,2020-11-26_15h59.05.049,lexical_decision_task_MP_exp2,2020.2.5,Win32,60,m,1,0.668225,,,,,,,,0.668225,1,,,,,,108,WORD,"ID",16,reckon,RECKON,m,,,,,,0.544444632,-0.322222322,0,0,0,,0,344,344,107,1,
,,,,,,,,,,,,,,,,,,5f50f0ce14987328c134c530,2020-11-26_15h59.05.049,lexical_decision_task_MP_exp2,2020.2.5,Win32,60,z,1,0.746685,,,,,,,,0.746685,1,,,,,,248,NW,"ID",33,strole,STROLE,z,,,,,,0.544444632,-0.322222322,0,0,0,,0,345,345,247,1,
,,,,,,,,,,,,,,,,,,5f50f0ce14987328c134c530,2020-11-26_15h59.05.049,lexical_decision_task_MP_exp2,2020.2.5,Win32,60,m,1,0.489985,,,,,,,,0.489985,1,,,,,,174,WORD,UN,33,fabric,TURKEY,m,,,,,,0.544444632,-0.322222322,0,0,0,,0,346,346,173,1,
,,,,,,,,,,,,,,,,,,5f50f0ce14987328c134c530,2020-11-26_15h59.05.049,lexical_decision_task_MP_exp2,2020.2.5,Win32,60,z,1,0.564185,,,,,,,,0.564185,1,,,,,,246,NW,"ID",33,piaton,PIATON,z,,,,,,0.544444632,-0.322222322,0,0,0,,0,347,347,245,1,
,,,,,,,,,,,,,,,,,,5f50f0ce14987328c134c530,2020-11-26_15h59.05.049,lexical_decision_task_MP_exp2,2020.2.5,Win32,60,m,1,0.605565,,,,,,,,0.605565,1,,,,,,215,WORD,UN,16,behalf,PHOBIA,m,,,,,,0.544444632,-0.322222322,0,0,0,,0,348,348,214,1,
,,,,,,,,,,,,,,,,,,5f50f0ce14987328c134c530,2020-11-26_15h59.05.049,lexical_decision_task_MP_exp2,2020.2.5,Win32,60,z,1,0.51936,,,,,,,,0.51936,1,,,,,,323,NW,"ID",16,rosail,ROSAIL,z,,,,,,0.544444632,-0.322222322,0,0,0,,0,349,349,322,1,
,,,,,,,,,,,,,,,,,,5f50f0ce14987328c134c530,2020-11-26_15h59.05.049,lexical_decision_task_MP_exp2,2020.2.5,Win32,60,m,1,0.89739,,,,,,,,0.89739,1,,,,,,156,WORD,UN,33,pastor,CRADLE,m,,,,,,0.544444632,-0.322222322,0,0,0,,0,350,350,155,1,
,,,,,,,,,,,,,,,,,,5f50f0ce14987328c134c530,2020-11-26_15h59.05.049,lexical_decision_task_MP_exp2,2020.2.5,Win32,60,z,1,0.542025,,,,,,,,0.542025,1,,,,,,383,NW,UN,33,guesco,AUNGRE,z,,,,,,0.544444632,-0.322222322,0,0,0,,0,351,351,382,1,
,,,,,,,,,,,,,,,,,,5f50f0ce14987328c134c530,2020-11-26_15h59.05.049,lexical_decision_task_MP_exp2,2020.2.5,Win32,60,z,1,0.560765,,,,,,,,0.560765,1,,,,,,402,NW,UN,33,bruats,SYNTIC,z,,,,,,0.544444632,-0.322222322,0,0,0,,0,352,352,401,1,
,,,,,,,,,,,,,,,,,,5f50f0ce14987328c134c530,2020-11-26_15h59.05.049,lexical_decision_task_MP_exp2,2020.2.5,Win32,60,m,1,0.550095,,,,,,,,0.550095,1,,,,,,13,WORD,"ID",33,strive,STRIVE,m,,,,,,0.544444632,-0.322222322,0,0,0,,0,353,353,12,1,
,,,,,,,,,,,,,,,,,,5f50f0ce14987328c134c530,2020-11-26_15h59.05.049,lexical_decision_task_MP_exp2,2020.2.5,Win32,60,m,1,0.48431,,,,,,,,0.48431,1,,,,,,214,WORD,UN,16,phobia,INTAKE,m,,,,,,0.544444632,-0.322222322,0,0,0,,0,354,354,213,1,
,,,,,,,,,,,,,,,,,,5f50f0ce14987328c134c530,2020-11-26_15h59.05.049,lexical_decision_task_MP_exp2,2020.2.5,Win32,60,z,1,0.554165,,,,,,,,0.554165,1,,,,,,363,NW,UN,33,impote,BREALI,z,,,,,,0.544444632,-0.322222322,0,0,0,,0,355,355,362,1,
,,,,,,,,,,,,,,,,,,5f50f0ce14987328c134c530,2020-11-26_15h59.05.049,lexical_decision_task_MP_exp2,2020.2.5,Win32,60,z,1,0.71818,,,,,,,,0.71818,1,,,,,,468,NW,UN,16,padifs,WICTOR,z,,,,,,0.544444632,-0.322222322,0,0,0,,0,356,356,467,1,
,,,,,,,,,,,,,,,,,,5f50f0ce14987328c134c530,2020-11-26_15h59.05.049,lexical_decision_task_MP_exp2,2020.2.5,Win32,60,z,1,0.666935,,,,,,,,0.666935,1,,,,,,439,NW,UN,16,saride,LIMPOR,z,,,,,,0.544444632,-0.322222322,0,0,0,,0,357,357,438,1,
,,,,,,,,,,,,,,,,,,5f50f0ce14987328c134c530,2020-11-26_15h59.05.049,lexical_decision_task_MP_exp2,2020.2.5,Win32,60,z,0,0.558445,,,,,,,,0.558445,0,,,,,,19,WORD,"ID",33,patron,PATRON,m,,,,,,0.544444632,-0.322222322,0,0,0,,0,358,358,18,1,
,,,,,,,,,,,,,,,,,,5f50f0ce14987328c134c530,2020-11-26_15h59.05.049,lexical_decision_task_MP_exp2,2020.2.5,Win32,60,m,0,0.509515,,,,,,,,0.509515,0,,,,,,360,NW,"ID",16,desory,DESORY,z,,,,,,0.544444632,-0.322222322,0,0,0,,0,359,359,359,1,
,,,,,,,,,,,,,,,,,,5f50f0ce14987328c134c530,2020-11-26_15h59.05.049,lexical_decision_task_MP_exp2,2020.2.5,Win32,60,z,1,1.150395,,,,,,,,1.150395,1,,,,,,268,NW,"ID",33,packes,PACKES,z,,,,,,0.544444632,-0.322222322,0,0,0,,0,360,360,267,1,
,,,,,,,,,,,,,,,,,,5f50f0ce14987328c134c530,2020-11-26_15h59.05.049,lexical_decision_task_MP_exp2,2020.2.5,Win32,60,m,1,0.61726,,,,,,,,0.61726,1,,,,,,183,WORD,UN,16,sleazy,MILDEW,m,,,,,,0.544444632,-0.322222322,0,0,0,,0,361,361,182,1,
,,,,,,,,,,,,,,,,,,5f50f0ce14987328c134c530,2020-11-26_15h59.05.049,lexical_decision_task_MP_exp2,2020.2.5,Win32,60,z,1,0.668735,,,,,,,,0.668735,1,,,,,,423,NW,UN,16,praile,STRELD,z,,,,,,0.544444632,-0.322222322,0,0,0,space,0,362,362,422,1,16.067035
,,,,,,,,,,,,,,,,,,5f50f0ce14987328c134c530,2020-11-26_15h59.05.049,lexical_decision_task_MP_exp2,2020.2.5,Win32,60,z,1,0.784585,,,,,,,,0.784585,1,,,,,,404,NW,UN,33,syntic,CLUIRM,z,,,,,,0.544444632,-0.322222322,0,0,0,,0,363,363,403,1,
,,,,,,,,,,,,,,,,,,5f50f0ce14987328c134c530,2020-11-26_15h59.05.049,lexical_decision_task_MP_exp2,2020.2.5,Win32,60,z,1,0.511335,,,,,,,,0.511335,1,,,,,,259,NW,"ID",33,soudal,SOUDAL,z,,,,,,0.544444632,-0.322222322,0,0,0,,0,364,364,258,1,
,,,,,,,,,,,,,,,,,,5f50f0ce14987328c134c530,2020-11-26_15h59.05.049,lexical_decision_task_MP_exp2,2020.2.5,Win32,60,z,1,0.501245,,,,,,,,0.501245,1,,,,,,403,NW,UN,33,cluirm,BRUATS,z,,,,,,0.544444632,-0.322222322,0,0,0,,0,365,365,402,1,
,,,,,,,,,,,,,,,,,,5f50f0ce14987328c134c530,2020-11-26_15h59.05.049,lexical_decision_task_MP_exp2,2020.2.5,Win32,60,m,1,0.526595,,,,,,,,0.526595,1,,,,,,76,WORD,"ID",16,exotic,EXOTIC,m,,,,,,0.544444632,-0.322222322,0,0,0,,0,366,366,75,1,
,,,,,,,,,,,,,,,,,,5f50f0ce14987328c134c530,2020-11-26_15h59.05.049,lexical_decision_task_MP_exp2,2020.2.5,Win32,60,m,1,0.55145,,,,,,,,0.55145,1,,,,,,78,WORD,"ID",16,column,COLUMN,m,,,,,,0.544444632,-0.322222322,0,0,0,,0,367,367,77,1,
,,,,,,,,,,,,,,,,,,5f50f0ce14987328c134c530,2020-11-26_15h59.05.049,lexical_decision_task_MP_exp2,2020.2.5,Win32,60,m,1,0.5543,,,,,,,,0.5543,1,,,,,,143,WORD,UN,33,sponge,REASON,m,,,,,,0.544444632,-0.322222322,0,0,0,,0,368,368,142,1,
,,,,,,,,,,,,,,,,,,5f50f0ce14987328c134c530,2020-11-26_15h59.05.049,lexical_decision_task_MP_exp2,2020.2.5,Win32,60,m,1,0.53402,,,,,,,,0.53402,1,,,,,,3,WORD,"ID",33,knight,KNIGHT,m,,,,,,0.544444632,-0.322222322,0,0,0,,0,369,369,2,1,
,,,,,,,,,,,,,,,,,,5f50f0ce14987328c134c530,2020-11-26_15h59.05.049,lexical_decision_task_MP_exp2,2020.2.5,Win32,60,m,1,0.851035,,,,,,,,0.851035,1,,,,,,161,WORD,UN,33,candle,PASTOR,m,,,,,,0.544444632,-0.322222322,0,0,0,,0,370,370,160,1,
,,,,,,,,,,,,,,,,,,5f50f0ce14987328c134c530,2020-11-26_15h59.05.049,lexical_decision_task_MP_exp2,2020.2.5,Win32,60,m,0,0.692465,,,,,,,,0.692465,0,,,,,,425,NW,UN,16,schind,FRUDGE,z,,,,,,0.544444632,-0.322222322,0,0,0,,0,371,371,424,1,
,,,,,,,,,,,,,,,,,,5f50f0ce14987328c134c530,2020-11-26_15h59.05.049,lexical_decision_task_MP_exp2,2020.2.5,Win32,60,m,1,0.61736,,,,,,,,0.61736,1,,,,,,52,WORD,"ID",33,impose,IMPOSE,m,,,,,,0.544444632,-0.322222322,0,0,0,,0,372,372,51,1,
,,,,,,,,,,,,,,,,,,5f50f0ce14987328c134c530,2020-11-26_15h59.05.049,lexical_decision_task_MP_exp2,2020.2.5,Win32,60,m,1,0.53589,,,,,,,,0.53589,1,,,,,,204,WORD,UN,16,lounge,BURDEN,m,,,,,,0.544444632,-0.322222322,0,0,0,,0,373,373,203,1,
,,,,,,,,,,,,,,,,,,5f50f0ce14987328c134c530,2020-11-26_15h59.05.049,lexical_decision_task_MP_exp2,2020.2.5,Win32,60,z,1,0.62034,,,,,,,,0.62034,1,,,,,,381,NW,UN,33,sarley,HUNIEK,z,,,,,,0.544444632,-0.322222322,0,0,0,,0,374,374,380,1,
,,,,,,,,,,,,,,,,,,5f50f0ce14987328c134c530,2020-11-26_15h59.05.049,lexical_decision_task_MP_exp2,2020.2.5,Win32,60,m,1,0.63587,,,,,,,,0.63587,1,,,,,,28,WORD,"ID",33,comedy,COMEDY,m,,,,,,0.544444632,-0.322222322,0,0,0,,0,375,375,27,1,
,,,,,,,,,,,,,,,,,,5f50f0ce14987328c134c530,2020-11-26_15h59.05.049,lexical_decision_task_MP_exp2,2020.2.5,Win32,60,m,1,0.617855,,,,,,,,0.617855,1,,,,,,131,WORD,UN,33,strong,QUENCH,m,,,,,,0.544444632,-0.322222322,0,0,0,,0,376,376,130,1,
,,,,,,,,,,,,,,,,,,5f50f0ce14987328c134c530,2020-11-26_15h59.05.049,lexical_decision_task_MP_exp2,2020.2.5,Win32,60,z,1,0.617735,,,,,,,,0.617735,1,,,,,,292,NW,"ID",33,ablint,ABLINT,z,,,,,,0.544444632,-0.322222322,0,0,0,,0,377,377,291,1,
,,,,,,,,,,,,,,,,,,5f50f0ce14987328c134c530,2020-11-26_15h59.05.049,lexical_decision_task_MP_exp2,2020.2.5,Win32,60,z,1,0.584685,,,,,,,,0.584685,1,,,,,,336,NW,"ID",16,ghodus,GHODUS,z,,,,,,0.544444632,-0.322222322,0,0,0,,0,378,378,335,1,
,,,,,,,,,,,,,,,,,,5f50f0ce14987328c134c530,2020-11-26_15h59.05.049,lexical_decision_task_MP_exp2,2020.2.5,Win32,60,z,1,0.61841,,,,,,,,0.61841,1,,,,,,273,NW,"ID",33,sortel,SORTEL,z,,,,,,0.544444632,-0.322222322,0,0,0,,0,379,379,272,1,
,,,,,,,,,,,,,,,,,,5f50f0ce14987328c134c530,2020-11-26_15h59.05.049,lexical_decision_task_MP_exp2,2020.2.5,Win32,60,z,1,0.568315,,,,,,,,0.568315,1,,,,,,307,NW,"ID",16,kirafe,KIRAFE,z,,,,,,0.544444632,-0.322222322,0,0,0,,0,380,380,306,1,
,,,,,,,,,,,,,,,,,,5f50f0ce14987328c134c530,2020-11-26_15h59.05.049,lexical_decision_task_MP_exp2,2020.2.5,Win32,60,m,1,0.572,,,,,,,,0.572,1,,,,,,228,WORD,UN,16,inject,MASTER,m,,,,,,0.544444632,-0.322222322,0,0,0,,0,381,381,227,1,
,,,,,,,,,,,,,,,,,,5f50f0ce14987328c134c530,2020-11-26_15h59.05.049,lexical_decision_task_MP_exp2,2020.2.5,Win32,60,z,1,0.54408,,,,,,,,0.54408,1,,,,,,405,NW,UN,33,nouply,FLUMNI,z,,,,,,0.544444632,-0.322222322,0,0,0,,0,382,382,404,1,
,,,,,,,,,,,,,,,,,,5f50f0ce14987328c134c530,2020-11-26_15h59.05.049,lexical_decision_task_MP_exp2,2020.2.5,Win32,60,m,0,0.75221,,,,,,,,0.75221,0,,,,,,305,NW,"ID",16,forgle,FORGLE,z,,,,,,0.544444632,-0.322222322,0,0,0,,0,383,383,304,1,
,,,,,,,,,,,,,,,,,,5f50f0ce14987328c134c530,2020-11-26_15h59.05.049,lexical_decision_task_MP_exp2,2020.2.5,Win32,60,m,1,0.624495,,,,,,,,0.624495,1,,,,,,113,WORD,"ID",16,chorus,CHORUS,m,,,,,,0.544444632,-0.322222322,0,0,0,,0,384,384,112,1,
,,,,,,,,,,,,,,,,,,5f50f0ce14987328c134c530,2020-11-26_15h59.05.049,lexical_decision_task_MP_exp2,2020.2.5,Win32,60,m,1,0.607125,,,,,,,,0.607125,1,,,,,,201,WORD,UN,16,factor,ADMIRE,m,,,,,,0.544444632,-0.322222322,0,0,0,,0,385,385,200,1,
,,,,,,,,,,,,,,,,,,5f50f0ce14987328c134c530,2020-11-26_15h59.05.049,lexical_decision_task_MP_exp2,2020.2.5,Win32,60,m,1,0.68429,,,,,,,,0.68429,1,,,,,,116,WORD,"ID",16,tumble,TUMBLE,m,,,,,,0.544444632,-0.322222322,0,0,0,,0,386,386,115,1,
,,,,,,,,,,,,,,,,,,5f50f0ce14987328c134c530,2020-11-26_15h59.05.049,lexical_decision_task_MP_exp2,2020.2.5,Win32,60,z,1,0.57361,,,,,,,,0.57361,1,,,,,,242,NW,"ID",33,unwert,UNWERT,z,,,,,,0.544444632,-0.322222322,0,0,0,,0,387,387,241,1,
,,,,,,,,,,,,,,,,,,5f50f0ce14987328c134c530,2020-11-26_15h59.05.049,lexical_decision_task_MP_exp2,2020.2.5,Win32,60,z,1,0.52517,,,,,,,,0.52517,1,,,,,,407,NW,UN,33,hurnia,SUIVER,z,,,,,,0.544444632,-0.322222322,0,0,0,,0,388,388,406,1,
,,,,,,,,,,,,,,,,,,5f50f0ce14987328c134c530,2020-11-26_15h59.05.049,lexical_decision_task_MP_exp2,2020.2.5,Win32,60,m,1,0.591425,,,,,,,,0.591425,1,,,,,,218,WORD,UN,16,bucket,SHRINK,m,,,,,,0.544444632,-0.322222322,0,0,0,,0,389,389,217,1,
,,,,,,,,,,,,,,,,,,5f50f0ce14987328c134c530,2020-11-26_15h59.05.049,lexical_decision_task_MP_exp2,2020.2.5,Win32,60,m,1,0.542485,,,,,,,,0.542485,1,,,,,,203,WORD,UN,16,burden,PHRASE,m,,,,,,0.544444632,-0.322222322,0,0,0,,0,390,390,202,1,
,,,,,,,,,,,,,,,,,,5f50f0ce14987328c134c530,2020-11-26_15h59.05.049,lexical_decision_task_MP_exp2,2020.2.5,Win32,60,z,1,0.63575,,,,,,,,0.63575,1,,,,,,357,NW,"ID",16,derain,DERAIN,z,,,,,,0.544444632,-0.322222322,0,0,0,,0,391,391,356,1,
,,,,,,,,,,,,,,,,,,5f50f0ce14987328c134c530,2020-11-26_15h59.05.049,lexical_decision_task_MP_exp2,2020.2.5,Win32,60,z,1,0.571195,,,,,,,,0.571195,1,,,,,,406,NW,UN,33,suiver,NOUPLY,z,,,,,,0.544444632,-0.322222322,0,0,0,,0,392,392,405,1,
,,,,,,,,,,,,,,,,,,5f50f0ce14987328c134c530,2020-11-26_15h59.05.049,lexical_decision_task_MP_exp2,2020.2.5,Win32,60,z,1,1.223345,,,,,,,,1.223345,1,,,,,,473,NW,UN,16,hablin,CRIBLE,z,,,,,,0.544444632,-0.322222322,0,0,0,,0,393,393,472,1,
,,,,,,,,,,,,,,,,,,5f50f0ce14987328c134c530,2020-11-26_15h59.05.049,lexical_decision_task_MP_exp2,2020.2.5,Win32,60,z,1,0.577595,,,,,,,,0.577595,1,,,,,,446,NW,UN,16,gircue,RUNAMO,z,,,,,,0.544444632,-0.322222322,0,0,0,,0,394,394,445,1,
