counterbalancing_condition,instr_done_keyboard.keys,instr_done_touch.x,instr_done_touch.y,instr_done_touch.leftButton,instr_done_touch.midButton,instr_done_touch.rightButton,instr_done_touch.clicked_name,instruction_pages.thisRepN,instruction_pages.thisTrialN,instruction_pages.thisN,instruction_pages.thisIndex,instruction_pages.ran,pageN,phase,instruct_text,has_image,instruct_image,participant,date,expName,psychopyVersion,OS,frameRate,response.keys,response.corr,response.rt,touch_resp.x,touch_resp.y,touch_resp.leftButton,touch_resp.midButton,touch_resp.rightButton,touch_resp.time,touch_resp.clicked_name,rt,corr,practice_trials.thisRepN,practice_trials.thisTrialN,practice_trials.thisN,practice_trials.thisIndex,practice_trials.ran,TrialID,StimulusType,Condition,PrimeDuration,Prime,Target,corrAns,end_of_practice_trials_pages.thisRepN,end_of_practice_trials_pages.thisTrialN,end_of_practice_trials_pages.thisN,end_of_practice_trials_pages.thisIndex,end_of_practice_trials_pages.ran,break_done_touch.x,break_done_touch.y,break_done_touch.leftButton,break_done_touch.midButton,break_done_touch.rightButton,break_done_keyboard.keys,experiment_trials.thisRepN,experiment_trials.thisTrialN,experiment_trials.thisN,experiment_trials.thisIndex,experiment_trials.ran,break_done_keyboard.rt,break_done_touch.clicked_name
3,,0.026367188,-0.416992188,1,0,0,instr_done_button,0,0,0,0,1,1,instructions,"INSTRUCTIONS
At the start of each trial, look at the hash marks (######) in the center of the screen. After a moment, a string of letters will appear. Your task is to indicate if the letter string forms a word or not (i.e., if it is a nonword). For example, AUTHOR is a word while AUTHON is a nonword.

Press the space bar or touch the button below to continue.",0,,5f522c40069004482b3af322,2020-11-27_15h09.29.123,lexical_decision_task_MP_exp2,2020.2.5,Win32,60,,,,,,,,,,,,,,,,,,,,,,,,,,,,,,,,,,,,,,,,,,
,,-0.000976563,-0.393554688,1,0,0,instr_done_button,0,1,1,1,1,2,instructions,"If your device has a keyboard, press the 'Z' key for nonwords and the 'M' key for words.





Press the space bar or touch the button below to continue.",1,keyboard-example.gif,5f522c40069004482b3af322,2020-11-27_15h09.29.123,lexical_decision_task_MP_exp2,2020.2.5,Win32,60,,,,,,,,,,,,,,,,,,,,,,,,,,,,,,,,,,,,,,,,,,
,,-0.04296875,-0.395507813,1,0,0,instr_done_button,0,2,2,2,1,3,instructions,"If you are using a touchscreen only device, use the buttons on the screen. Do not use the mouse.





Press the space bar or touch the button below to continue.",1,touchscreen-example.gif,5f522c40069004482b3af322,2020-11-27_15h09.29.123,lexical_decision_task_MP_exp2,2020.2.5,Win32,60,,,,,,,,,,,,,,,,,,,,,,,,,,,,,,,,,,,,,,,,,,
,,-0.015625,-0.375976563,1,0,0,instr_done_button,0,3,3,3,1,4,instructions,"It is very important that you respond as quickly and accurately as possible, as each letter string will only be on the screen for two seconds. If you do not respond within this time, the message 'Too slow!' will be displayed and the experiment will progress to the next letter string. The first 20 trials will be practice trials and you will receive feedback on your answers. 

Press the space bar or touch the button below to start the practice trials.",0,,5f522c40069004482b3af322,2020-11-27_15h09.29.123,lexical_decision_task_MP_exp2,2020.2.5,Win32,60,,,,,,,,,,,,,,,,,,,,,,,,,,,,,,,,,,,,,,,,,,
,,,,,,,,,,,,,,,,,,5f522c40069004482b3af322,2020-11-27_15h09.29.123,lexical_decision_task_MP_exp2,2020.2.5,Win32,60,m,0,1.402755,,,,,,,,1.402755,0,0,0,0,15,1,1016,NW,UN,16,mushed,WHAISE,z,,,,,,,,,,,,,,,,,,
,,,,,,,,,,,,,,,,,,5f522c40069004482b3af322,2020-11-27_15h09.29.123,lexical_decision_task_MP_exp2,2020.2.5,Win32,60,z,1,1.078945,,,,,,,,1.078945,1,0,1,1,13,1,1014,NW,UN,33,winfer,ROUPET,z,,,,,,,,,,,,,,,,,,
,,,,,,,,,,,,,,,,,,5f522c40069004482b3af322,2020-11-27_15h09.29.123,lexical_decision_task_MP_exp2,2020.2.5,Win32,60,z,0,0.57115,,,,,,,,0.57115,0,0,2,2,0,1,1001,WORD,"ID",33,utopia,UTOPIA,m,,,,,,,,,,,,,,,,,,
,,,,,,,,,,,,,,,,,,5f522c40069004482b3af322,2020-11-27_15h09.29.123,lexical_decision_task_MP_exp2,2020.2.5,Win32,60,m,1,0.715015,,,,,,,,0.715015,1,0,3,3,1,1,1002,WORD,"ID",33,adjust,ADJUST,m,,,,,,,,,,,,,,,,,,
,,,,,,,,,,,,,,,,,,5f522c40069004482b3af322,2020-11-27_15h09.29.123,lexical_decision_task_MP_exp2,2020.2.5,Win32,60,m,1,0.830965,,,,,,,,0.830965,1,0,4,4,5,1,1006,WORD,UN,33,frenzy,OBTAIN,m,,,,,,,,,,,,,,,,,,
,,,,,,,,,,,,,,,,,,5f522c40069004482b3af322,2020-11-27_15h09.29.123,lexical_decision_task_MP_exp2,2020.2.5,Win32,60,m,1,0.91997,,,,,,,,0.91997,1,0,5,5,4,1,1005,WORD,UN,33,abound,SQUEAK,m,,,,,,,,,,,,,,,,,,
,,,,,,,,,,,,,,,,,,5f522c40069004482b3af322,2020-11-27_15h09.29.123,lexical_decision_task_MP_exp2,2020.2.5,Win32,60,m,0,0.741045,,,,,,,,0.741045,0,0,6,6,9,1,1010,NW,"ID",33,fariny,FARINY,z,,,,,,,,,,,,,,,,,,
,,,,,,,,,,,,,,,,,,5f522c40069004482b3af322,2020-11-27_15h09.29.123,lexical_decision_task_MP_exp2,2020.2.5,Win32,60,m,1,0.633285,,,,,,,,0.633285,1,0,7,7,7,1,1008,WORD,UN,16,hurdle,VOLUME,m,,,,,,,,,,,,,,,,,,
,,,,,,,,,,,,,,,,,,5f522c40069004482b3af322,2020-11-27_15h09.29.123,lexical_decision_task_MP_exp2,2020.2.5,Win32,60,m,1,0.728585,,,,,,,,0.728585,1,0,8,8,2,1,1003,WORD,"ID",16,almond,ALMOND,m,,,,,,,,,,,,,,,,,,
,,,,,,,,,,,,,,,,,,5f522c40069004482b3af322,2020-11-27_15h09.29.123,lexical_decision_task_MP_exp2,2020.2.5,Win32,60,m,0,0.95376,,,,,,,,0.95376,0,0,9,9,14,1,1015,NW,UN,16,miaber,THRALE,z,,,,,,,,,,,,,,,,,,
,,,,,,,,,,,,,,,,,,5f522c40069004482b3af322,2020-11-27_15h09.29.123,lexical_decision_task_MP_exp2,2020.2.5,Win32,60,m,1,0.797405,,,,,,,,0.797405,1,0,10,10,3,1,1004,WORD,"ID",16,matrix,MATRIX,m,,,,,,,,,,,,,,,,,,
,,,,,,,,,,,,,,,,,,5f522c40069004482b3af322,2020-11-27_15h09.29.123,lexical_decision_task_MP_exp2,2020.2.5,Win32,60,z,1,1.04617,,,,,,,,1.04617,1,0,11,11,10,1,1011,NW,"ID",16,inlade,INLADE,z,,,,,,,,,,,,,,,,,,
,,,,,,,,,,,,,,,,,,5f522c40069004482b3af322,2020-11-27_15h09.29.123,lexical_decision_task_MP_exp2,2020.2.5,Win32,60,z,1,1.089825,,,,,,,,1.089825,1,0,12,12,12,1,1013,NW,UN,33,adveil,SPRINY,z,,,,,,,,,,,,,,,,,,
,,,,,,,,,,,,,,,,,,5f522c40069004482b3af322,2020-11-27_15h09.29.123,lexical_decision_task_MP_exp2,2020.2.5,Win32,60,z,1,0.904525,,,,,,,,0.904525,1,0,13,13,8,1,1009,NW,"ID",33,aslert,ASLERT,z,,,,,,,,,,,,,,,,,,
,,,,,,,,,,,,,,,,,,5f522c40069004482b3af322,2020-11-27_15h09.29.123,lexical_decision_task_MP_exp2,2020.2.5,Win32,60,z,1,0.86333,,,,,,,,0.86333,1,0,14,14,11,1,1012,NW,"ID",16,rashet,RASHET,z,,,,,,,,,,,,,,,,,,
,,,,,,,,,,,,,,,,,,5f522c40069004482b3af322,2020-11-27_15h09.29.123,lexical_decision_task_MP_exp2,2020.2.5,Win32,60,m,1,0.815605,,,,,,,,0.815605,1,0,15,15,6,1,1007,WORD,UN,16,tropic,ZOMBIE,m,,,,,,,,,,,,,,,,,,
,,-0.043945313,-0.395507813,1,0,0,instr_done_button,,,,,,1,end_of_practice,"You have completed the practice trials. During the experimental trials, you will not receive feedback, but it is very important that you respond as quickly and accurately as possible. 
Before you begin, please ensure that you are in a comfortable and quiet location and will not be disturbed for about 15 minutes, as we cannot use your data if you do not complete all the trials. 
There will be opportunities to take breaks at regular intervals during the experiment. When you are ready to start the experimental trials, please press space or touch the button below.",,,5f522c40069004482b3af322,2020-11-27_15h09.29.123,lexical_decision_task_MP_exp2,2020.2.5,Win32,60,,,,,,,,,,,,,,,,,,,,,,,,,0,0,0,0,1,,,,,,,,,,,,,
,,,,,,,,,,,,,,,,,,5f522c40069004482b3af322,2020-11-27_15h09.29.123,lexical_decision_task_MP_exp2,2020.2.5,Win32,60,,0,,,,,,,,,0.815605,-1,,,,,,93,WORD,"ID",33,public,PUBLIC,m,,,,,,-0.043945313,-0.395507813,0,0,0,,0,0,0,32,1,,
,,,,,,,,,,,,,,,,,,5f522c40069004482b3af322,2020-11-27_15h09.29.123,lexical_decision_task_MP_exp2,2020.2.5,Win32,60,z,0,0.869405,,,,,,,,0.869405,0,,,,,,215,WORD,UN,33,lumber,PHOBIA,m,,,,,,-0.043945313,-0.395507813,0,0,0,,0,1,1,154,1,,
,,,,,,,,,,,,,,,,,,5f522c40069004482b3af322,2020-11-27_15h09.29.123,lexical_decision_task_MP_exp2,2020.2.5,Win32,60,m,1,1.132105,,,,,,,,1.132105,1,,,,,,188,WORD,UN,33,censor,SOCIAL,m,,,,,,-0.043945313,-0.395507813,0,0,0,,0,2,2,127,1,,
,,,,,,,,,,,,,,,,,,5f522c40069004482b3af322,2020-11-27_15h09.29.123,lexical_decision_task_MP_exp2,2020.2.5,Win32,60,m,1,1.098695,,,,,,,,1.098695,1,,,,,,47,WORD,UN,16,walnut,INCOME,m,,,,,,-0.043945313,-0.395507813,0,0,0,,0,3,3,226,1,,
,,,,,,,,,,,,,,,,,,5f522c40069004482b3af322,2020-11-27_15h09.29.123,lexical_decision_task_MP_exp2,2020.2.5,Win32,60,m,1,1.34002,-0.024414063,-0.30078125,1,0,0,0.716645,,1.34002,1,,,,,,106,WORD,"ID",33,ransom,RANSOM,m,,,,,,-0.024414063,-0.30078125,0,0,0,,0,4,4,45,1,,
,,,,,,,,,,,,,,,,,,5f522c40069004482b3af322,2020-11-27_15h09.29.123,lexical_decision_task_MP_exp2,2020.2.5,Win32,60,z,1,0.480745,,,,,,,,0.480745,1,,,,,,426,NW,UN,33,schind,URIVEL,z,,,,,,-0.024414063,-0.30078125,0,0,0,,0,5,5,365,1,,
,,,,,,,,,,,,,,,,,,5f522c40069004482b3af322,2020-11-27_15h09.29.123,lexical_decision_task_MP_exp2,2020.2.5,Win32,60,m,1,0.96729,,,,,,,,0.96729,1,,,,,,141,WORD,"ID",16,orphan,ORPHAN,m,,,,,,-0.024414063,-0.30078125,0,0,0,,0,6,6,80,1,,
,,,,,,,,,,,,,,,,,,5f522c40069004482b3af322,2020-11-27_15h09.29.123,lexical_decision_task_MP_exp2,2020.2.5,Win32,60,m,0,0.9485,,,,,,,,0.9485,0,,,,,,281,NW,UN,16,porlex,MELATY,z,,,,,,-0.024414063,-0.30078125,0,0,0,,0,7,7,460,1,,
,,,,,,,,,,,,,,,,,,5f522c40069004482b3af322,2020-11-27_15h09.29.123,lexical_decision_task_MP_exp2,2020.2.5,Win32,60,m,0,1.15977,,,,,,,,1.15977,0,,,,,,438,NW,UN,33,limpor,BAITCH,z,,,,,,-0.024414063,-0.30078125,0,0,0,,0,8,8,377,1,,
,,,,,,,,,,,,,,,,,,5f522c40069004482b3af322,2020-11-27_15h09.29.123,lexical_decision_task_MP_exp2,2020.2.5,Win32,60,m,1,1.059235,,,,,,,,1.059235,1,,,,,,99,WORD,"ID",33,fluent,FLUENT,m,,,,,,-0.024414063,-0.30078125,0,0,0,,0,9,9,38,1,,
,,,,,,,,,,,,,,,,,,5f522c40069004482b3af322,2020-11-27_15h09.29.123,lexical_decision_task_MP_exp2,2020.2.5,Win32,60,z,1,0.867515,,,,,,,,0.867515,1,,,,,,314,NW,"ID",33,sprine,SPRINE,z,,,,,,-0.024414063,-0.30078125,0,0,0,,0,10,10,253,1,,
,,,,,,,,,,,,,,,,,,5f522c40069004482b3af322,2020-11-27_15h09.29.123,lexical_decision_task_MP_exp2,2020.2.5,Win32,60,z,1,0.89938,,,,,,,,0.89938,1,,,,,,335,NW,"ID",33,desion,DESION,z,,,,,,-0.024414063,-0.30078125,0,0,0,,0,11,11,274,1,,
,,,,,,,,,,,,,,,,,,5f522c40069004482b3af322,2020-11-27_15h09.29.123,lexical_decision_task_MP_exp2,2020.2.5,Win32,60,m,0,0.82451,,,,,,,,0.82451,0,,,,,,306,NW,"ID",33,sounge,SOUNGE,z,,,,,,-0.024414063,-0.30078125,0,0,0,,0,12,12,245,1,,
,,,,,,,,,,,,,,,,,,5f522c40069004482b3af322,2020-11-27_15h09.29.123,lexical_decision_task_MP_exp2,2020.2.5,Win32,60,m,1,0.98993,,,,,,,,0.98993,1,,,,,,131,WORD,"ID",16,quench,QUENCH,m,,,,,,-0.024414063,-0.30078125,0,0,0,,0,13,13,70,1,,
,,,,,,,,,,,,,,,,,,5f522c40069004482b3af322,2020-11-27_15h09.29.123,lexical_decision_task_MP_exp2,2020.2.5,Win32,60,z,1,1.15387,,,,,,,,1.15387,1,,,,,,292,NW,UN,16,swance,ABLINT,z,,,,,,-0.024414063,-0.30078125,0,0,0,,0,14,14,471,1,,
,,,,,,,,,,,,,,,,,,5f522c40069004482b3af322,2020-11-27_15h09.29.123,lexical_decision_task_MP_exp2,2020.2.5,Win32,60,z,1,1.183865,,,,,,,,1.183865,1,,,,,,365,NW,"ID",16,guairt,GUAIRT,z,,,,,,-0.024414063,-0.30078125,0,0,0,,0,15,15,304,1,,
,,,,,,,,,,,,,,,,,,5f522c40069004482b3af322,2020-11-27_15h09.29.123,lexical_decision_task_MP_exp2,2020.2.5,Win32,60,z,1,0.98577,,,,,,,,0.98577,1,,,,,,331,NW,"ID",33,gilfew,GILFEW,z,,,,,,-0.024414063,-0.30078125,0,0,0,,0,16,16,270,1,,
,,,,,,,,,,,,,,,,,,5f522c40069004482b3af322,2020-11-27_15h09.29.123,lexical_decision_task_MP_exp2,2020.2.5,Win32,60,m,1,0.916225,,,,,,,,0.916225,1,,,,,,235,WORD,UN,33,pirate,GRUMPY,m,,,,,,-0.024414063,-0.30078125,0,0,0,,0,17,17,174,1,,
,,,,,,,,,,,,,,,,,,5f522c40069004482b3af322,2020-11-27_15h09.29.123,lexical_decision_task_MP_exp2,2020.2.5,Win32,60,m,1,0.934635,,,,,,,,0.934635,1,,,,,,229,WORD,UN,33,fringe,MOTHER,m,,,,,,-0.024414063,-0.30078125,0,0,0,,0,18,18,168,1,,
,,,,,,,,,,,,,,,,,,5f522c40069004482b3af322,2020-11-27_15h09.29.123,lexical_decision_task_MP_exp2,2020.2.5,Win32,60,z,1,1.449885,,,,,,,,1.449885,1,,,,,,444,NW,UN,33,minkel,JAUNCE,z,,,,,,-0.024414063,-0.30078125,0,0,0,,0,19,19,383,1,,
,,,,,,,,,,,,,,,,,,5f522c40069004482b3af322,2020-11-27_15h09.29.123,lexical_decision_task_MP_exp2,2020.2.5,Win32,60,z,1,0.89909,,,,,,,,0.89909,1,,,,,,304,NW,"ID",33,cludie,CLUDIE,z,,,,,,-0.024414063,-0.30078125,0,0,0,,0,20,20,243,1,,
,,,,,,,,,,,,,,,,,,5f522c40069004482b3af322,2020-11-27_15h09.29.123,lexical_decision_task_MP_exp2,2020.2.5,Win32,60,z,1,0.7831,,,,,,,,0.7831,1,,,,,,423,NW,UN,33,praile,STRELD,z,,,,,,-0.024414063,-0.30078125,0,0,0,,0,21,21,362,1,,
,,,,,,,,,,,,,,,,,,5f522c40069004482b3af322,2020-11-27_15h09.29.123,lexical_decision_task_MP_exp2,2020.2.5,Win32,60,z,1,0.71045,,,,,,,,0.71045,1,,,,,,280,NW,UN,16,melaty,CURBOL,z,,,,,,-0.024414063,-0.30078125,0,0,0,,0,22,22,459,1,,
,,,,,,,,,,,,,,,,,,5f522c40069004482b3af322,2020-11-27_15h09.29.123,lexical_decision_task_MP_exp2,2020.2.5,Win32,60,z,0,1.222375,,,,,,,,1.222375,0,,,,,,90,WORD,"ID",33,relish,RELISH,m,,,,,,-0.024414063,-0.30078125,0,0,0,,0,23,23,29,1,,
,,,,,,,,,,,,,,,,,,5f522c40069004482b3af322,2020-11-27_15h09.29.123,lexical_decision_task_MP_exp2,2020.2.5,Win32,60,m,1,1.0701,,,,,,,,1.0701,1,,,,,,124,WORD,"ID",16,blouse,BLOUSE,m,,,,,,-0.024414063,-0.30078125,0,0,0,,0,24,24,63,1,,
,,,,,,,,,,,,,,,,,,5f522c40069004482b3af322,2020-11-27_15h09.29.123,lexical_decision_task_MP_exp2,2020.2.5,Win32,60,z,1,1.250345,,,,,,,,1.250345,1,,,,,,412,NW,"ID",16,jiluer,JILUER,z,,,,,,-0.024414063,-0.30078125,0,0,0,,0,25,25,351,1,,
,,,,,,,,,,,,,,,,,,5f522c40069004482b3af322,2020-11-27_15h09.29.123,lexical_decision_task_MP_exp2,2020.2.5,Win32,60,m,0,0.92381,,,,,,,,0.92381,0,,,,,,397,NW,"ID",16,camble,CAMBLE,z,,,,,,-0.024414063,-0.30078125,0,0,0,,0,26,26,336,1,,
,,,,,,,,,,,,,,,,,,5f522c40069004482b3af322,2020-11-27_15h09.29.123,lexical_decision_task_MP_exp2,2020.2.5,Win32,60,m,1,0.65811,,,,,,,,0.65811,1,,,,,,238,WORD,UN,33,behalf,FLOWER,m,,,,,,-0.024414063,-0.30078125,0,0,0,,0,27,27,177,1,,
,,,,,,,,,,,,,,,,,,5f522c40069004482b3af322,2020-11-27_15h09.29.123,lexical_decision_task_MP_exp2,2020.2.5,Win32,60,m,1,0.66558,,,,,,,,0.66558,1,,,,,,63,WORD,"ID",33,launch,LAUNCH,m,,,,,,-0.024414063,-0.30078125,0,0,0,,0,28,28,2,1,,
,,,,,,,,,,,,,,,,,,5f522c40069004482b3af322,2020-11-27_15h09.29.123,lexical_decision_task_MP_exp2,2020.2.5,Win32,60,m,1,1.08075,,,,,,,,1.08075,1,,,,,,24,WORD,UN,16,domain,PRAISE,m,,,,,,-0.024414063,-0.30078125,0,0,0,,0,29,29,203,1,,
,,,,,,,,,,,,,,,,,,5f522c40069004482b3af322,2020-11-27_15h09.29.123,lexical_decision_task_MP_exp2,2020.2.5,Win32,60,z,1,0.829895,,,,,,,,0.829895,1,,,,,,336,NW,"ID",33,ghodus,GHODUS,z,,,,,,-0.024414063,-0.30078125,0,0,0,,0,30,30,275,1,,
,,,,,,,,,,,,,,,,,,5f522c40069004482b3af322,2020-11-27_15h09.29.123,lexical_decision_task_MP_exp2,2020.2.5,Win32,60,m,1,0.936775,,,,,,,,0.936775,1,,,,,,197,WORD,UN,33,wicked,STREAM,m,,,,,,-0.024414063,-0.30078125,0,0,0,,0,31,31,136,1,,
,,,,,,,,,,,,,,,,,,5f522c40069004482b3af322,2020-11-27_15h09.29.123,lexical_decision_task_MP_exp2,2020.2.5,Win32,60,m,1,1.067765,,,,,,,,1.067765,1,,,,,,236,WORD,UN,33,grumpy,PIRATE,m,,,,,,-0.024414063,-0.30078125,0,0,0,,0,32,32,175,1,,
,,,,,,,,,,,,,,,,,,5f522c40069004482b3af322,2020-11-27_15h09.29.123,lexical_decision_task_MP_exp2,2020.2.5,Win32,60,m,1,1.066645,,,,,,,,1.066645,1,,,,,,110,WORD,"ID",33,polite,POLITE,m,,,,,,-0.024414063,-0.30078125,0,0,0,,0,33,33,49,1,,
,,,,,,,,,,,,,,,,,,5f522c40069004482b3af322,2020-11-27_15h09.29.123,lexical_decision_task_MP_exp2,2020.2.5,Win32,60,z,1,1.152915,,,,,,,,1.152915,1,,,,,,271,NW,UN,16,damilt,AUBRID,z,,,,,,-0.024414063,-0.30078125,0,0,0,,0,34,34,450,1,,
,,,,,,,,,,,,,,,,,,5f522c40069004482b3af322,2020-11-27_15h09.29.123,lexical_decision_task_MP_exp2,2020.2.5,Win32,60,m,1,0.749725,,,,,,,,0.749725,1,,,,,,154,WORD,"ID",16,author,AUTHOR,m,,,,,,-0.024414063,-0.30078125,0,0,0,,0,35,35,93,1,,
,,,,,,,,,,,,,,,,,,5f522c40069004482b3af322,2020-11-27_15h09.29.123,lexical_decision_task_MP_exp2,2020.2.5,Win32,60,z,1,1.14763,,,,,,,,1.14763,1,,,,,,375,NW,"ID",16,yorque,YORQUE,z,,,,,,-0.024414063,-0.30078125,0,0,0,,0,36,36,314,1,,
,,,,,,,,,,,,,,,,,,5f522c40069004482b3af322,2020-11-27_15h09.29.123,lexical_decision_task_MP_exp2,2020.2.5,Win32,60,m,1,0.766055,,,,,,,,0.766055,1,,,,,,91,WORD,"ID",33,expand,EXPAND,m,,,,,,-0.024414063,-0.30078125,0,0,0,,0,37,37,30,1,,
,,,,,,,,,,,,,,,,,,5f522c40069004482b3af322,2020-11-27_15h09.29.123,lexical_decision_task_MP_exp2,2020.2.5,Win32,60,m,1,0.76123,,,,,,,,0.76123,1,,,,,,44,WORD,UN,16,clergy,DANGER,m,,,,,,-0.024414063,-0.30078125,0,0,0,,0,38,38,223,1,,
,,,,,,,,,,,,,,,,,,5f522c40069004482b3af322,2020-11-27_15h09.29.123,lexical_decision_task_MP_exp2,2020.2.5,Win32,60,m,1,0.93446,,,,,,,,0.93446,1,,,,,,8,WORD,UN,16,hustle,ABRUPT,m,,,,,,-0.024414063,-0.30078125,0,0,0,,0,39,39,187,1,,
,,,,,,,,,,,,,,,,,,5f522c40069004482b3af322,2020-11-27_15h09.29.123,lexical_decision_task_MP_exp2,2020.2.5,Win32,60,m,1,0.80118,,,,,,,,0.80118,1,,,,,,25,WORD,UN,16,sprint,DOMAIN,m,,,,,,-0.024414063,-0.30078125,0,0,0,,0,40,40,204,1,,
,,,,,,,,,,,,,,,,,,5f522c40069004482b3af322,2020-11-27_15h09.29.123,lexical_decision_task_MP_exp2,2020.2.5,Win32,60,m,1,0.85914,,,,,,,,0.85914,1,,,,,,32,WORD,UN,16,scream,BUCKLE,m,,,,,,-0.024414063,-0.30078125,0,0,0,,0,41,41,211,1,,
,,,,,,,,,,,,,,,,,,5f522c40069004482b3af322,2020-11-27_15h09.29.123,lexical_decision_task_MP_exp2,2020.2.5,Win32,60,m,1,1.131885,,,,,,,,1.131885,1,,,,,,134,WORD,"ID",16,staple,STAPLE,m,,,,,,-0.024414063,-0.30078125,0,0,0,,0,42,42,73,1,,
,,,,,,,,,,,,,,,,,,5f522c40069004482b3af322,2020-11-27_15h09.29.123,lexical_decision_task_MP_exp2,2020.2.5,Win32,60,m,1,1.183265,,,,,,,,1.183265,1,,,,,,41,WORD,UN,16,chapel,SPRING,m,,,,,,-0.024414063,-0.30078125,0,0,0,,0,43,43,220,1,,
,,,,,,,,,,,,,,,,,,5f522c40069004482b3af322,2020-11-27_15h09.29.123,lexical_decision_task_MP_exp2,2020.2.5,Win32,60,z,1,0.882805,,,,,,,,0.882805,1,,,,,,250,NW,UN,16,lupict,MILTED,z,,,,,,-0.024414063,-0.30078125,0,0,0,,0,44,44,429,1,,
,,,,,,,,,,,,,,,,,,5f522c40069004482b3af322,2020-11-27_15h09.29.123,lexical_decision_task_MP_exp2,2020.2.5,Win32,60,m,1,0.954125,,,,,,,,0.954125,1,,,,,,126,WORD,"ID",16,enough,ENOUGH,m,,,,,,-0.024414063,-0.30078125,0,0,0,,0,45,45,65,1,,
,,,,,,,,,,,,,,,,,,5f522c40069004482b3af322,2020-11-27_15h09.29.123,lexical_decision_task_MP_exp2,2020.2.5,Win32,60,z,1,1.28273,,,,,,,,1.28273,1,,,,,,403,NW,"ID",16,bruats,BRUATS,z,,,,,,-0.024414063,-0.30078125,0,0,0,,0,46,46,342,1,,
,,,,,,,,,,,,,,,,,,5f522c40069004482b3af322,2020-11-27_15h09.29.123,lexical_decision_task_MP_exp2,2020.2.5,Win32,60,z,1,1.22221,,,,,,,,1.22221,1,,,,,,447,NW,UN,33,sadent,GIRCUE,z,,,,,,-0.024414063,-0.30078125,0,0,0,,0,47,47,386,1,,
,,,,,,,,,,,,,,,,,,5f522c40069004482b3af322,2020-11-27_15h09.29.123,lexical_decision_task_MP_exp2,2020.2.5,Win32,60,m,1,0.901565,,,,,,,,0.901565,1,,,,,,143,WORD,"ID",16,reason,REASON,m,,,,,,-0.024414063,-0.30078125,0,0,0,,0,48,48,82,1,,
,,,,,,,,,,,,,,,,,,5f522c40069004482b3af322,2020-11-27_15h09.29.123,lexical_decision_task_MP_exp2,2020.2.5,Win32,60,m,1,0.865025,,,,,,,,0.865025,1,,,,,,58,WORD,UN,16,splint,FOSTER,m,,,,,,-0.024414063,-0.30078125,0,0,0,,0,49,49,237,1,,
,,,,,,,,,,,,,,,,,,5f522c40069004482b3af322,2020-11-27_15h09.29.123,lexical_decision_task_MP_exp2,2020.2.5,Win32,60,m,1,1.122965,,,,,,,,1.122965,1,,,,,,10,WORD,UN,16,cruise,ETHNIC,m,,,,,,-0.024414063,-0.30078125,0,0,0,,0,50,50,189,1,,
,,,,,,,,,,,,,,,,,,5f522c40069004482b3af322,2020-11-27_15h09.29.123,lexical_decision_task_MP_exp2,2020.2.5,Win32,60,z,1,0.937555,,,,,,,,0.937555,1,,,,,,432,NW,UN,33,drance,LUNKER,z,,,,,,-0.024414063,-0.30078125,0,0,0,,0,51,51,371,1,,
,,,,,,,,,,,,,,,,,,5f522c40069004482b3af322,2020-11-27_15h09.29.123,lexical_decision_task_MP_exp2,2020.2.5,Win32,60,z,1,0.66306,,,,,,,,0.66306,1,,,,,,288,NW,UN,16,starby,YACEUP,z,,,,,,-0.024414063,-0.30078125,0,0,0,,0,52,52,467,1,,
,,,,,,,,,,,,,,,,,,5f522c40069004482b3af322,2020-11-27_15h09.29.123,lexical_decision_task_MP_exp2,2020.2.5,Win32,60,z,1,0.966215,,,,,,,,0.966215,1,,,,,,274,NW,UN,16,sleirt,FUMBLO,z,,,,,,-0.024414063,-0.30078125,0,0,0,,0,53,53,453,1,,
,,,,,,,,,,,,,,,,,,5f522c40069004482b3af322,2020-11-27_15h09.29.123,lexical_decision_task_MP_exp2,2020.2.5,Win32,60,z,1,1.472945,,,,,,,,1.472945,1,,,,,,389,NW,"ID",16,witmer,WITMER,z,,,,,,-0.024414063,-0.30078125,0,0,0,,0,54,54,328,1,,
,,,,,,,,,,,,,,,,,,5f522c40069004482b3af322,2020-11-27_15h09.29.123,lexical_decision_task_MP_exp2,2020.2.5,Win32,60,m,1,1.18044,,,,,,,,1.18044,1,,,,,,227,WORD,UN,33,master,SELDOM,m,,,,,,-0.024414063,-0.30078125,0,0,0,,0,55,55,166,1,,
,,,,,,,,,,,,,,,,,,5f522c40069004482b3af322,2020-11-27_15h09.29.123,lexical_decision_task_MP_exp2,2020.2.5,Win32,60,z,0,0.901125,,,,,,,,0.901125,0,,,,,,74,WORD,"ID",33,plaque,PLAQUE,m,,,,,,-0.024414063,-0.30078125,0,0,0,,0,56,56,13,1,,
,,,,,,,,,,,,,,,,,,5f522c40069004482b3af322,2020-11-27_15h09.29.123,lexical_decision_task_MP_exp2,2020.2.5,Win32,60,z,1,1.163815,,,,,,,,1.163815,1,,,,,,373,NW,"ID",16,bigent,BIGENT,z,,,,,,-0.024414063,-0.30078125,0,0,0,,0,57,57,312,1,,
,,,,,,,,,,,,,,,,,,5f522c40069004482b3af322,2020-11-27_15h09.29.123,lexical_decision_task_MP_exp2,2020.2.5,Win32,60,z,1,1.232705,,,,,,,,1.232705,1,,,,,,380,NW,"ID",16,cavory,CAVORY,z,,,,,,-0.024414063,-0.30078125,0,0,0,,0,58,58,319,1,,
,,,,,,,,,,,,,,,,,,5f522c40069004482b3af322,2020-11-27_15h09.29.123,lexical_decision_task_MP_exp2,2020.2.5,Win32,60,z,0,1.099215,,,,,,,,1.099215,0,,,,,,225,WORD,UN,33,casino,VULGAR,m,,,,,,-0.024414063,-0.30078125,0,0,0,,0,59,59,164,1,,
,,,,,,,,,,,,,,,,,,5f522c40069004482b3af322,2020-11-27_15h09.29.123,lexical_decision_task_MP_exp2,2020.2.5,Win32,60,z,0,1.10783,,,,,,,,1.10783,0,,,,,,185,WORD,UN,33,portal,BOTHER,m,,,,,,-0.024414063,-0.30078125,0,0,0,,0,60,60,124,1,,
,,,,,,,,,,,,,,,,,,5f522c40069004482b3af322,2020-11-27_15h09.29.123,lexical_decision_task_MP_exp2,2020.2.5,Win32,60,z,1,1.33297,,,,,,,,1.33297,1,,,,,,465,NW,UN,33,bafent,WHIVEX,z,,,,,,-0.024414063,-0.30078125,0,0,0,,0,61,61,404,1,,
,,,,,,,,,,,,,,,,,,5f522c40069004482b3af322,2020-11-27_15h09.29.123,lexical_decision_task_MP_exp2,2020.2.5,Win32,60,z,1,1.254105,,,,,,,,1.254105,1,,,,,,310,NW,"ID",33,daniet,DANIET,z,,,,,,-0.024414063,-0.30078125,0,0,0,,0,62,62,249,1,,
,,,,,,,,,,,,,,,,,,5f522c40069004482b3af322,2020-11-27_15h09.29.123,lexical_decision_task_MP_exp2,2020.2.5,Win32,60,z,1,1.48002,,,,,,,,1.48002,1,,,,,,272,NW,UN,16,sortel,DAMILT,z,,,,,,-0.024414063,-0.30078125,0,0,0,,0,63,63,451,1,,
,,,,,,,,,,,,,,,,,,5f522c40069004482b3af322,2020-11-27_15h09.29.123,lexical_decision_task_MP_exp2,2020.2.5,Win32,60,m,1,1.085605,,,,,,,,1.085605,1,,,,,,210,WORD,UN,33,infect,MONKEY,m,,,,,,-0.024414063,-0.30078125,0,0,0,,0,64,64,149,1,,
,,,,,,,,,,,,,,,,,,5f522c40069004482b3af322,2020-11-27_15h09.29.123,lexical_decision_task_MP_exp2,2020.2.5,Win32,60,z,1,1.01569,,,,,,,,1.01569,1,,,,,,354,NW,"ID",33,virlex,VIRLEX,z,,,,,,-0.024414063,-0.30078125,0,0,0,,0,65,65,293,1,,
,,,,,,,,,,,,,,,,,,5f522c40069004482b3af322,2020-11-27_15h09.29.123,lexical_decision_task_MP_exp2,2020.2.5,Win32,60,z,0,1.58506,,,,,,,,1.58506,0,,,,,,207,WORD,UN,33,hockey,WREATH,m,,,,,,-0.024414063,-0.30078125,0,0,0,,0,66,66,146,1,,
,,,,,,,,,,,,,,,,,,5f522c40069004482b3af322,2020-11-27_15h09.29.123,lexical_decision_task_MP_exp2,2020.2.5,Win32,60,z,1,1.27011,,,,,,,,1.27011,1,,,,,,303,NW,"ID",33,fiream,FIREAM,z,,,,,,-0.024414063,-0.30078125,0,0,0,,0,67,67,242,1,,
,,,,,,,,,,,,,,,,,,5f522c40069004482b3af322,2020-11-27_15h09.29.123,lexical_decision_task_MP_exp2,2020.2.5,Win32,60,z,1,1.449335,,,,,,,,1.449335,1,,,,,,351,NW,"ID",33,tiesch,TIESCH,z,,,,,,-0.024414063,-0.30078125,0,0,0,,0,68,68,290,1,,
,,,,,,,,,,,,,,,,,,5f522c40069004482b3af322,2020-11-27_15h09.29.123,lexical_decision_task_MP_exp2,2020.2.5,Win32,60,z,1,1.1655,,,,,,,,1.1655,1,,,,,,461,NW,UN,33,absult,JUSTRE,z,,,,,,-0.024414063,-0.30078125,0,0,0,,0,69,69,400,1,,
,,,,,,,,,,,,,,,,,,5f522c40069004482b3af322,2020-11-27_15h09.29.123,lexical_decision_task_MP_exp2,2020.2.5,Win32,60,m,1,0.871915,,,,,,,,0.871915,1,,,,,,144,WORD,"ID",16,sponge,SPONGE,m,,,,,,-0.024414063,-0.30078125,0,0,0,,0,70,70,83,1,,
,,,,,,,,,,,,,,,,,,5f522c40069004482b3af322,2020-11-27_15h09.29.123,lexical_decision_task_MP_exp2,2020.2.5,Win32,60,z,1,0.992175,,,,,,,,0.992175,1,,,,,,457,NW,UN,33,barcet,WANIGH,z,,,,,,-0.024414063,-0.30078125,0,0,0,,0,71,71,396,1,,
,,,,,,,,,,,,,,,,,,5f522c40069004482b3af322,2020-11-27_15h09.29.123,lexical_decision_task_MP_exp2,2020.2.5,Win32,60,z,1,1.13316,,,,,,,,1.13316,1,,,,,,421,NW,UN,33,alcoud,KNISMA,z,,,,,,-0.024414063,-0.30078125,0,0,0,,0,72,72,360,1,,
,,,,,,,,,,,,,,,,,,5f522c40069004482b3af322,2020-11-27_15h09.29.123,lexical_decision_task_MP_exp2,2020.2.5,Win32,60,m,1,0.899665,,,,,,,,0.899665,1,,,,,,217,WORD,UN,33,shrink,LIQUOR,m,,,,,,-0.024414063,-0.30078125,0,0,0,,0,73,73,156,1,,
,,,,,,,,,,,,,,,,,,5f522c40069004482b3af322,2020-11-27_15h09.29.123,lexical_decision_task_MP_exp2,2020.2.5,Win32,60,m,1,1.204975,,,,,,,,1.204975,1,,,,,,87,WORD,"ID",33,filter,FILTER,m,,,,,,-0.024414063,-0.30078125,0,0,0,,0,74,74,26,1,,
,,,,,,,,,,,,,,,,,,5f522c40069004482b3af322,2020-11-27_15h09.29.123,lexical_decision_task_MP_exp2,2020.2.5,Win32,60,z,1,1.06571,,,,,,,,1.06571,1,,,,,,356,NW,"ID",33,othnis,OTHNIS,z,,,,,,-0.024414063,-0.30078125,0,0,0,,0,75,75,295,1,,
,,,,,,,,,,,,,,,,,,5f522c40069004482b3af322,2020-11-27_15h09.29.123,lexical_decision_task_MP_exp2,2020.2.5,Win32,60,z,1,1.169935,,,,,,,,1.169935,1,,,,,,367,NW,"ID",16,slique,SLIQUE,z,,,,,,-0.024414063,-0.30078125,0,0,0,,0,76,76,306,1,,
,,,,,,,,,,,,,,,,,,5f522c40069004482b3af322,2020-11-27_15h09.29.123,lexical_decision_task_MP_exp2,2020.2.5,Win32,60,z,1,1.31809,,,,,,,,1.31809,1,,,,,,371,NW,"ID",16,geiloy,GEILOY,z,,,,,,-0.024414063,-0.30078125,0,0,0,,0,77,77,310,1,,
,,,,,,,,,,,,,,,,,,5f522c40069004482b3af322,2020-11-27_15h09.29.123,lexical_decision_task_MP_exp2,2020.2.5,Win32,60,z,1,1.663125,,,,,,,,1.663125,1,,,,,,325,NW,"ID",33,thruse,THRUSE,z,,,,,,-0.024414063,-0.30078125,0,0,0,,0,78,78,264,1,,
,,,,,,,,,,,,,,,,,,5f522c40069004482b3af322,2020-11-27_15h09.29.123,lexical_decision_task_MP_exp2,2020.2.5,Win32,60,z,1,1.30309,,,,,,,,1.30309,1,,,,,,468,NW,UN,33,padifs,WICTOR,z,,,,,,-0.024414063,-0.30078125,0,0,0,,0,79,79,407,1,,
,,,,,,,,,,,,,,,,,,5f522c40069004482b3af322,2020-11-27_15h09.29.123,lexical_decision_task_MP_exp2,2020.2.5,Win32,60,m,1,1.2719,,,,,,,,1.2719,1,,,,,,59,WORD,UN,16,pencil,SPLINT,m,,,,,,-0.024414063,-0.30078125,0,0,0,,0,80,80,238,1,,
,,,,,,,,,,,,,,,,,,5f522c40069004482b3af322,2020-11-27_15h09.29.123,lexical_decision_task_MP_exp2,2020.2.5,Win32,60,z,1,1.047085,,,,,,,,1.047085,1,,,,,,455,NW,UN,33,broget,TONDLE,z,,,,,,-0.024414063,-0.30078125,0,0,0,,0,81,81,394,1,,
,,,,,,,,,,,,,,,,,,5f522c40069004482b3af322,2020-11-27_15h09.29.123,lexical_decision_task_MP_exp2,2020.2.5,Win32,60,z,1,1.50139,,,,,,,,1.50139,1,,,,,,295,NW,UN,16,beinch,GLEATH,z,,,,,,-0.024414063,-0.30078125,0,0,0,,0,82,82,474,1,,
,,,,,,,,,,,,,,,,,,5f522c40069004482b3af322,2020-11-27_15h09.29.123,lexical_decision_task_MP_exp2,2020.2.5,Win32,60,z,1,1.64853,,,,,,,,1.64853,1,,,,,,309,NW,"ID",33,amiloy,AMILOY,z,,,,,,-0.024414063,-0.30078125,0,0,0,,0,83,83,248,1,,
,,,,,,,,,,,,,,,,,,5f522c40069004482b3af322,2020-11-27_15h09.29.123,lexical_decision_task_MP_exp2,2020.2.5,Win32,60,z,1,1.265425,,,,,,,,1.265425,1,,,,,,307,NW,"ID",33,kirafe,KIRAFE,z,,,,,,-0.024414063,-0.30078125,0,0,0,,0,84,84,246,1,,
,,,,,,,,,,,,,,,,,,5f522c40069004482b3af322,2020-11-27_15h09.29.123,lexical_decision_task_MP_exp2,2020.2.5,Win32,60,z,1,1.864885,,,,,,,,1.864885,1,,,,,,388,NW,"ID",16,cragin,CRAGIN,z,,,,,,-0.024414063,-0.30078125,0,0,0,,0,85,85,327,1,,
,,,,,,,,,,,,,,,,,,5f522c40069004482b3af322,2020-11-27_15h09.29.123,lexical_decision_task_MP_exp2,2020.2.5,Win32,60,z,1,1.468425,,,,,,,,1.468425,1,,,,,,395,NW,"ID",16,colury,COLURY,z,,,,,,-0.024414063,-0.30078125,0,0,0,,0,86,86,334,1,,
,,,,,,,,,,,,,,,,,,5f522c40069004482b3af322,2020-11-27_15h09.29.123,lexical_decision_task_MP_exp2,2020.2.5,Win32,60,z,1,1.68108,,,,,,,,1.68108,1,,,,,,377,NW,"ID",16,injore,INJORE,z,,,,,,-0.024414063,-0.30078125,0,0,0,,0,87,87,316,1,,
,,,,,,,,,,,,,,,,,,5f522c40069004482b3af322,2020-11-27_15h09.29.123,lexical_decision_task_MP_exp2,2020.2.5,Win32,60,m,1,1.872555,,,,,,,,1.872555,1,,,,,,120,WORD,"ID",33,strain,STRAIN,m,,,,,,-0.024414063,-0.30078125,0,0,0,,0,88,88,59,1,,
,,,,,,,,,,,,,,,,,,5f522c40069004482b3af322,2020-11-27_15h09.29.123,lexical_decision_task_MP_exp2,2020.2.5,Win32,60,m,1,0.720615,,,,,,,,0.720615,1,,,,,,148,WORD,"ID",16,custom,CUSTOM,m,,,,,,-0.024414063,-0.30078125,0,0,0,,0,89,89,87,1,,
,,,,,,,,,,,,,,,,,,5f522c40069004482b3af322,2020-11-27_15h09.29.123,lexical_decision_task_MP_exp2,2020.2.5,Win32,60,z,1,1.78894,,,,,,,,1.78894,1,,,,,,293,NW,UN,16,inhort,SWANCE,z,,,,,,-0.024414063,-0.30078125,0,0,0,,0,90,90,472,1,,
,,,,,,,,,,,,,,,,,,5f522c40069004482b3af322,2020-11-27_15h09.29.123,lexical_decision_task_MP_exp2,2020.2.5,Win32,60,m,1,1.315215,,,,,,,,1.315215,1,,,,,,51,WORD,UN,16,impose,HUNGRY,m,,,,,,-0.024414063,-0.30078125,0,0,0,,0,91,91,230,1,,
,,,,,,,,,,,,,,,,,,5f522c40069004482b3af322,2020-11-27_15h09.29.123,lexical_decision_task_MP_exp2,2020.2.5,Win32,60,z,1,1.206465,,,,,,,,1.206465,1,,,,,,327,NW,"ID",33,plenac,PLENAC,z,,,,,,-0.024414063,-0.30078125,0,0,0,,0,92,92,266,1,,
,,,,,,,,,,,,,,,,,,5f522c40069004482b3af322,2020-11-27_15h09.29.123,lexical_decision_task_MP_exp2,2020.2.5,Win32,60,m,1,1.334775,,,,,,,,1.334775,1,,,,,,23,WORD,UN,16,praise,WEALTH,m,,,,,,-0.024414063,-0.30078125,0,0,0,,0,93,93,202,1,,
,,,,,,,,,,,,,,,,,,5f522c40069004482b3af322,2020-11-27_15h09.29.123,lexical_decision_task_MP_exp2,2020.2.5,Win32,60,z,0,1.466915,,,,,,,,1.466915,0,,,,,,139,WORD,"ID",16,debris,DEBRIS,m,,,,,,-0.024414063,-0.30078125,0,0,0,,0,94,94,78,1,,
,,,,,,,,,,,,,,,,,,5f522c40069004482b3af322,2020-11-27_15h09.29.123,lexical_decision_task_MP_exp2,2020.2.5,Win32,60,z,1,0.91669,,,,,,,,0.91669,1,,,,,,329,NW,"ID",33,yarike,YARIKE,z,,,,,,-0.024414063,-0.30078125,0,0,0,,0,95,95,268,1,,
,,,,,,,,,,,,,,,,,,5f522c40069004482b3af322,2020-11-27_15h09.29.123,lexical_decision_task_MP_exp2,2020.2.5,Win32,60,z,1,1.10022,,,,,,,,1.10022,1,,,,,,300,NW,UN,16,smenco,YARION,z,,,,,,-0.024414063,-0.30078125,0,0,0,,0,96,96,479,1,,
,,,,,,,,,,,,,,,,,,5f522c40069004482b3af322,2020-11-27_15h09.29.123,lexical_decision_task_MP_exp2,2020.2.5,Win32,60,m,1,1.31991,,,,,,,,1.31991,1,,,,,,102,WORD,"ID",33,direct,DIRECT,m,,,,,,-0.024414063,-0.30078125,0,0,0,,0,97,97,41,1,,
,,,,,,,,,,,,,,,,,,5f522c40069004482b3af322,2020-11-27_15h09.29.123,lexical_decision_task_MP_exp2,2020.2.5,Win32,60,,0,,,,,,,,,1.31991,-1,,,,,,456,NW,UN,33,wanigh,BROGET,z,,,,,,-0.024414063,-0.30078125,0,0,0,,0,98,98,395,1,,
,,,,,,,,,,,,,,,,,,5f522c40069004482b3af322,2020-11-27_15h09.29.123,lexical_decision_task_MP_exp2,2020.2.5,Win32,60,m,1,1.048205,,,,,,,,1.048205,1,,,,,,19,WORD,UN,16,breast,PATRON,m,,,,,,-0.024414063,-0.30078125,0,0,0,,0,99,99,198,1,,
,,,,,,,,,,,,,,,,,,5f522c40069004482b3af322,2020-11-27_15h09.29.123,lexical_decision_task_MP_exp2,2020.2.5,Win32,60,z,1,0.860785,,,,,,,,0.860785,1,,,,,,466,NW,UN,33,robuly,HOCITE,z,,,,,,-0.024414063,-0.30078125,0,0,0,,0,100,100,405,1,,
,,,,,,,,,,,,,,,,,,5f522c40069004482b3af322,2020-11-27_15h09.29.123,lexical_decision_task_MP_exp2,2020.2.5,Win32,60,z,1,1.317195,,,,,,,,1.317195,1,,,,,,424,NW,UN,33,frudge,PRAILE,z,,,,,,-0.024414063,-0.30078125,0,0,0,,0,101,101,363,1,,
,,,,,,,,,,,,,,,,,,5f522c40069004482b3af322,2020-11-27_15h09.29.123,lexical_decision_task_MP_exp2,2020.2.5,Win32,60,z,1,0.857335,,,,,,,,0.857335,1,,,,,,326,NW,"ID",33,iguade,IGUADE,z,,,,,,-0.024414063,-0.30078125,0,0,0,,0,102,102,265,1,,
,,,,,,,,,,,,,,,,,,5f522c40069004482b3af322,2020-11-27_15h09.29.123,lexical_decision_task_MP_exp2,2020.2.5,Win32,60,z,1,1.04828,,,,,,,,1.04828,1,,,,,,406,NW,"ID",16,nouply,NOUPLY,z,,,,,,-0.024414063,-0.30078125,0,0,0,,0,103,103,345,1,,
,,,,,,,,,,,,,,,,,,5f522c40069004482b3af322,2020-11-27_15h09.29.123,lexical_decision_task_MP_exp2,2020.2.5,Win32,60,m,1,1.07539,,,,,,,,1.07539,1,,,,,,6,WORD,UN,16,anchor,BUNDLE,m,,,,,,-0.024414063,-0.30078125,0,0,0,,0,104,104,185,1,,
,,,,,,,,,,,,,,,,,,5f522c40069004482b3af322,2020-11-27_15h09.29.123,lexical_decision_task_MP_exp2,2020.2.5,Win32,60,m,0,1.17646,,,,,,,,1.17646,0,,,,,,374,NW,"ID",16,sliant,SLIANT,z,,,,,,-0.024414063,-0.30078125,0,0,0,,0,105,105,313,1,,
,,,,,,,,,,,,,,,,,,5f522c40069004482b3af322,2020-11-27_15h09.29.123,lexical_decision_task_MP_exp2,2020.2.5,Win32,60,m,1,0.87491,,,,,,,,0.87491,1,,,,,,17,WORD,UN,16,humble,CHARGE,m,,,,,,-0.024414063,-0.30078125,0,0,0,,0,106,106,196,1,,
,,,,,,,,,,,,,,,,,,5f522c40069004482b3af322,2020-11-27_15h09.29.123,lexical_decision_task_MP_exp2,2020.2.5,Win32,60,m,1,0.70686,,,,,,,,0.70686,1,,,,,,193,WORD,UN,33,mildew,OBJECT,m,,,,,,-0.024414063,-0.30078125,0,0,0,,0,107,107,132,1,,
,,,,,,,,,,,,,,,,,,5f522c40069004482b3af322,2020-11-27_15h09.29.123,lexical_decision_task_MP_exp2,2020.2.5,Win32,60,m,1,1.0159,,,,,,,,1.0159,1,,,,,,2,WORD,UN,16,knight,BRIDGE,m,,,,,,-0.024414063,-0.30078125,0,0,0,,0,108,108,181,1,,
,,,,,,,,,,,,,,,,,,5f522c40069004482b3af322,2020-11-27_15h09.29.123,lexical_decision_task_MP_exp2,2020.2.5,Win32,60,z,1,0.78087,,,,,,,,0.78087,1,,,,,,276,NW,UN,16,petain,YARMON,z,,,,,,-0.024414063,-0.30078125,0,0,0,,0,109,109,455,1,,
,,,,,,,,,,,,,,,,,,5f522c40069004482b3af322,2020-11-27_15h09.29.123,lexical_decision_task_MP_exp2,2020.2.5,Win32,60,z,1,0.90869,,,,,,,,0.90869,1,,,,,,343,NW,"ID",33,aimosy,AIMOSY,z,,,,,,-0.024414063,-0.30078125,0,0,0,,0,110,110,282,1,,
,,,,,,,,,,,,,,,,,,5f522c40069004482b3af322,2020-11-27_15h09.29.123,lexical_decision_task_MP_exp2,2020.2.5,Win32,60,z,1,1.299975,,,,,,,,1.299975,1,,,,,,312,NW,"ID",33,nerawl,NERAWL,z,,,,,,-0.024414063,-0.30078125,0,0,0,,0,111,111,251,1,,
,,,,,,,,,,,,,,,,,,5f522c40069004482b3af322,2020-11-27_15h09.29.123,lexical_decision_task_MP_exp2,2020.2.5,Win32,60,m,1,1.34434,,,,,,,,1.34434,1,,,,,,13,WORD,UN,16,almost,STRIVE,m,,,,,,-0.024414063,-0.30078125,0,0,0,,0,112,112,192,1,,
,,,,,,,,,,,,,,,,,,5f522c40069004482b3af322,2020-11-27_15h09.29.123,lexical_decision_task_MP_exp2,2020.2.5,Win32,60,z,1,1.02067,,,,,,,,1.02067,1,,,,,,393,NW,"ID",16,ganous,GANOUS,z,,,,,,-0.024414063,-0.30078125,0,0,0,,0,113,113,332,1,,
,,,,,,,,,,,,,,,,,,5f522c40069004482b3af322,2020-11-27_15h09.29.123,lexical_decision_task_MP_exp2,2020.2.5,Win32,60,z,1,0.837685,,,,,,,,0.837685,1,,,,,,264,NW,UN,16,distar,VACKEL,z,,,,,,-0.024414063,-0.30078125,0,0,0,,0,114,114,443,1,,
,,,,,,,,,,,,,,,,,,5f522c40069004482b3af322,2020-11-27_15h09.29.123,lexical_decision_task_MP_exp2,2020.2.5,Win32,60,z,1,1.351625,,,,,,,,1.351625,1,,,,,,338,NW,"ID",33,wreash,WREASH,z,,,,,,-0.024414063,-0.30078125,0,0,0,,0,115,115,277,1,,
,,,,,,,,,,,,,,,,,,5f522c40069004482b3af322,2020-11-27_15h09.29.123,lexical_decision_task_MP_exp2,2020.2.5,Win32,60,z,1,1.026105,,,,,,,,1.026105,1,,,,,,420,NW,"ID",16,gushop,GUSHOP,z,,,,,,-0.024414063,-0.30078125,0,0,0,,0,116,116,359,1,,
,,,,,,,,,,,,,,,,,,5f522c40069004482b3af322,2020-11-27_15h09.29.123,lexical_decision_task_MP_exp2,2020.2.5,Win32,60,z,1,1.067185,,,,,,,,1.067185,1,,,,,,269,NW,UN,16,wrimsy,ORCHET,z,,,,,,-0.024414063,-0.30078125,0,0,0,,0,117,117,448,1,,
,,,,,,,,,,,,,,,,,,5f522c40069004482b3af322,2020-11-27_15h09.29.123,lexical_decision_task_MP_exp2,2020.2.5,Win32,60,z,1,1.099765,,,,,,,,1.099765,1,,,,,,370,NW,"ID",16,sleact,SLEACT,z,,,,,,-0.024414063,-0.30078125,0,0,0,,0,118,118,309,1,,
,,,,,,,,,,,,,,,,,,5f522c40069004482b3af322,2020-11-27_15h09.29.123,lexical_decision_task_MP_exp2,2020.2.5,Win32,60,m,1,0.882345,,,,,,,,0.882345,1,,,,,,202,WORD,UN,33,phrase,FACTOR,m,,,,,,-0.024414063,-0.30078125,0,0,0,,0,119,119,141,1,,
,,,,,,,,,,,,,,,,,,5f522c40069004482b3af322,2020-11-27_15h09.29.123,lexical_decision_task_MP_exp2,2020.2.5,Win32,60,m,0,0.916085,,,,,,,,0.916085,0,,,,,,357,NW,"ID",33,derain,DERAIN,z,,,,,,-0.024414063,-0.30078125,0,0,0,space,0,120,120,296,1,7.734305,
,,,,,,,,,,,,,,,,,,5f522c40069004482b3af322,2020-11-27_15h09.29.123,lexical_decision_task_MP_exp2,2020.2.5,Win32,60,z,1,0.64269,,,,,,,,0.64269,1,,,,,,255,NW,UN,16,inlors,APIGHT,z,,,,,,-0.024414063,-0.30078125,0,0,0,,0,121,121,434,1,,
,,,,,,,,,,,,,,,,,,5f522c40069004482b3af322,2020-11-27_15h09.29.123,lexical_decision_task_MP_exp2,2020.2.5,Win32,60,m,1,0.98276,,,,,,,,0.98276,1,,,,,,232,WORD,UN,33,nature,INJECT,m,,,,,,-0.024414063,-0.30078125,0,0,0,,0,122,122,171,1,,
,,,,,,,,,,,,,,,,,,5f522c40069004482b3af322,2020-11-27_15h09.29.123,lexical_decision_task_MP_exp2,2020.2.5,Win32,60,z,1,0.830485,,,,,,,,0.830485,1,,,,,,429,NW,UN,33,caroey,FUNTLE,z,,,,,,-0.024414063,-0.30078125,0,0,0,,0,123,123,368,1,,
,,,,,,,,,,,,,,,,,,5f522c40069004482b3af322,2020-11-27_15h09.29.123,lexical_decision_task_MP_exp2,2020.2.5,Win32,60,m,1,0.84882,,,,,,,,0.84882,1,,,,,,136,WORD,"ID",16,bleach,BLEACH,m,,,,,,-0.024414063,-0.30078125,0,0,0,,0,124,124,75,1,,
,,,,,,,,,,,,,,,,,,5f522c40069004482b3af322,2020-11-27_15h09.29.123,lexical_decision_task_MP_exp2,2020.2.5,Win32,60,m,1,1.06431,,,,,,,,1.06431,1,,,,,,50,WORD,UN,16,hungry,SNATCH,m,,,,,,-0.024414063,-0.30078125,0,0,0,,0,125,125,229,1,,
,,,,,,,,,,,,,,,,,,5f522c40069004482b3af322,2020-11-27_15h09.29.123,lexical_decision_task_MP_exp2,2020.2.5,Win32,60,z,1,1.035615,,,,,,,,1.035615,1,,,,,,436,NW,UN,33,snapel,FRUTAN,z,,,,,,-0.024414063,-0.30078125,0,0,0,,0,126,126,375,1,,
,,,,,,,,,,,,,,,,,,5f522c40069004482b3af322,2020-11-27_15h09.29.123,lexical_decision_task_MP_exp2,2020.2.5,Win32,60,m,1,0.97307,,,,,,,,0.97307,1,,,,,,115,WORD,"ID",33,guitar,GUITAR,m,,,,,,-0.024414063,-0.30078125,0,0,0,,0,127,127,54,1,,
,,,,,,,,,,,,,,,,,,5f522c40069004482b3af322,2020-11-27_15h09.29.123,lexical_decision_task_MP_exp2,2020.2.5,Win32,60,m,0,1.364445,,,,,,,,1.364445,0,,,,,,315,NW,"ID",33,laston,LASTON,z,,,,,,-0.024414063,-0.30078125,0,0,0,,0,128,128,254,1,,
,,,,,,,,,,,,,,,,,,5f522c40069004482b3af322,2020-11-27_15h09.29.123,lexical_decision_task_MP_exp2,2020.2.5,Win32,60,m,0,1.53424,,,,,,,,1.53424,0,,,,,,328,NW,"ID",33,broake,BROAKE,z,,,,,,-0.024414063,-0.30078125,0,0,0,,0,129,129,267,1,,
,,,,,,,,,,,,,,,,,,5f522c40069004482b3af322,2020-11-27_15h09.29.123,lexical_decision_task_MP_exp2,2020.2.5,Win32,60,z,0,1.072025,,,,,,,,1.072025,0,,,,,,142,WORD,"ID",16,spruce,SPRUCE,m,,,,,,-0.024414063,-0.30078125,0,0,0,,0,130,130,81,1,,
,,,,,,,,,,,,,,,,,,5f522c40069004482b3af322,2020-11-27_15h09.29.123,lexical_decision_task_MP_exp2,2020.2.5,Win32,60,z,1,1.232115,,,,,,,,1.232115,1,,,,,,332,NW,"ID",33,vangue,VANGUE,z,,,,,,-0.024414063,-0.30078125,0,0,0,,0,131,131,271,1,,
,,,,,,,,,,,,,,,,,,5f522c40069004482b3af322,2020-11-27_15h09.29.123,lexical_decision_task_MP_exp2,2020.2.5,Win32,60,z,1,1.21428,,,,,,,,1.21428,1,,,,,,450,NW,UN,33,cainky,PHRECT,z,,,,,,-0.024414063,-0.30078125,0,0,0,,0,132,132,389,1,,
,,,,,,,,,,,,,,,,,,5f522c40069004482b3af322,2020-11-27_15h09.29.123,lexical_decision_task_MP_exp2,2020.2.5,Win32,60,z,1,1.466275,,,,,,,,1.466275,1,,,,,,415,NW,"ID",16,higsta,HIGSTA,z,,,,,,-0.024414063,-0.30078125,0,0,0,,0,133,133,354,1,,
,,,,,,,,,,,,,,,,,,5f522c40069004482b3af322,2020-11-27_15h09.29.123,lexical_decision_task_MP_exp2,2020.2.5,Win32,60,z,1,1.46461,,,,,,,,1.46461,1,,,,,,286,NW,UN,16,nymbel,RELDON,z,,,,,,-0.024414063,-0.30078125,0,0,0,,0,134,134,465,1,,
,,,,,,,,,,,,,,,,,,5f522c40069004482b3af322,2020-11-27_15h09.29.123,lexical_decision_task_MP_exp2,2020.2.5,Win32,60,z,0,0.890855,,,,,,,,0.890855,0,,,,,,68,WORD,"ID",33,fumble,FUMBLE,m,,,,,,-0.024414063,-0.30078125,0,0,0,,0,135,135,7,1,,
,,,,,,,,,,,,,,,,,,5f522c40069004482b3af322,2020-11-27_15h09.29.123,lexical_decision_task_MP_exp2,2020.2.5,Win32,60,m,1,1.28192,,,,,,,,1.28192,1,,,,,,156,WORD,"ID",16,cradle,CRADLE,m,,,,,,-0.024414063,-0.30078125,0,0,0,,0,136,136,95,1,,
,,,,,,,,,,,,,,,,,,5f522c40069004482b3af322,2020-11-27_15h09.29.123,lexical_decision_task_MP_exp2,2020.2.5,Win32,60,m,1,0.941735,,,,,,,,0.941735,1,,,,,,166,WORD,"ID",16,starch,STARCH,m,,,,,,-0.024414063,-0.30078125,0,0,0,,0,137,137,105,1,,
,,,,,,,,,,,,,,,,,,5f522c40069004482b3af322,2020-11-27_15h09.29.123,lexical_decision_task_MP_exp2,2020.2.5,Win32,60,m,1,1.401915,,,,,,,,1.401915,1,,,,,,95,WORD,"ID",33,thread,THREAD,m,,,,,,-0.024414063,-0.30078125,0,0,0,,0,138,138,34,1,,
,,,,,,,,,,,,,,,,,,5f522c40069004482b3af322,2020-11-27_15h09.29.123,lexical_decision_task_MP_exp2,2020.2.5,Win32,60,z,1,1.283565,,,,,,,,1.283565,1,,,,,,261,NW,UN,16,quilew,STUNCH,z,,,,,,-0.024414063,-0.30078125,0,0,0,,0,139,139,440,1,,
,,,,,,,,,,,,,,,,,,5f522c40069004482b3af322,2020-11-27_15h09.29.123,lexical_decision_task_MP_exp2,2020.2.5,Win32,60,m,1,1.116255,,,,,,,,1.116255,1,,,,,,221,WORD,UN,33,hinder,MASCOT,m,,,,,,-0.024414063,-0.30078125,0,0,0,,0,140,140,160,1,,
,,,,,,,,,,,,,,,,,,5f522c40069004482b3af322,2020-11-27_15h09.29.123,lexical_decision_task_MP_exp2,2020.2.5,Win32,60,m,1,1.04666,,,,,,,,1.04666,1,,,,,,21,WORD,UN,16,jockey,SIMPLE,m,,,,,,-0.024414063,-0.30078125,0,0,0,,0,141,141,200,1,,
,,,,,,,,,,,,,,,,,,5f522c40069004482b3af322,2020-11-27_15h09.29.123,lexical_decision_task_MP_exp2,2020.2.5,Win32,60,z,1,1.34893,,,,,,,,1.34893,1,,,,,,439,NW,UN,33,saride,LIMPOR,z,,,,,,-0.024414063,-0.30078125,0,0,0,,0,142,142,378,1,,
,,,,,,,,,,,,,,,,,,5f522c40069004482b3af322,2020-11-27_15h09.29.123,lexical_decision_task_MP_exp2,2020.2.5,Win32,60,z,1,0.95045,,,,,,,,0.95045,1,,,,,,419,NW,"ID",16,slount,SLOUNT,z,,,,,,-0.024414063,-0.30078125,0,0,0,,0,143,143,358,1,,
,,,,,,,,,,,,,,,,,,5f522c40069004482b3af322,2020-11-27_15h09.29.123,lexical_decision_task_MP_exp2,2020.2.5,Win32,60,z,1,1.225215,,,,,,,,1.225215,1,,,,,,353,NW,"ID",33,clurey,CLUREY,z,,,,,,-0.024414063,-0.30078125,0,0,0,,0,144,144,292,1,,
,,,,,,,,,,,,,,,,,,5f522c40069004482b3af322,2020-11-27_15h09.29.123,lexical_decision_task_MP_exp2,2020.2.5,Win32,60,m,1,1.30828,,,,,,,,1.30828,1,,,,,,20,WORD,UN,16,simple,BREAST,m,,,,,,-0.024414063,-0.30078125,0,0,0,,0,145,145,199,1,,
,,,,,,,,,,,,,,,,,,5f522c40069004482b3af322,2020-11-27_15h09.29.123,lexical_decision_task_MP_exp2,2020.2.5,Win32,60,z,1,0.79966,,,,,,,,0.79966,1,,,,,,364,NW,"ID",16,impote,IMPOTE,z,,,,,,-0.024414063,-0.30078125,0,0,0,,0,146,146,303,1,,
,,,,,,,,,,,,,,,,,,5f522c40069004482b3af322,2020-11-27_15h09.29.123,lexical_decision_task_MP_exp2,2020.2.5,Win32,60,m,1,1.38303,,,,,,,,1.38303,1,,,,,,179,WORD,"ID",16,basket,BASKET,m,,,,,,-0.024414063,-0.30078125,0,0,0,,0,147,147,118,1,,
,,,,,,,,,,,,,,,,,,5f522c40069004482b3af322,2020-11-27_15h09.29.123,lexical_decision_task_MP_exp2,2020.2.5,Win32,60,m,0,1.416275,,,,,,,,1.416275,0,,,,,,321,NW,"ID",33,miator,MIATOR,z,,,,,,-0.024414063,-0.30078125,0,0,0,,0,148,148,260,1,,
,,,,,,,,,,,,,,,,,,5f522c40069004482b3af322,2020-11-27_15h09.29.123,lexical_decision_task_MP_exp2,2020.2.5,Win32,60,m,1,0.77401,,,,,,,,0.77401,1,,,,,,14,WORD,UN,16,orange,ALMOST,m,,,,,,-0.024414063,-0.30078125,0,0,0,,0,149,149,193,1,,
,,,,,,,,,,,,,,,,,,5f522c40069004482b3af322,2020-11-27_15h09.29.123,lexical_decision_task_MP_exp2,2020.2.5,Win32,60,m,0,1.31592,,,,,,,,1.31592,0,,,,,,260,NW,UN,16,stunch,UNJECT,z,,,,,,-0.024414063,-0.30078125,0,0,0,,0,150,150,439,1,,
,,,,,,,,,,,,,,,,,,5f522c40069004482b3af322,2020-11-27_15h09.29.123,lexical_decision_task_MP_exp2,2020.2.5,Win32,60,m,1,1.049715,,,,,,,,1.049715,1,,,,,,35,WORD,UN,16,vanish,SOCKET,m,,,,,,-0.024414063,-0.30078125,0,0,0,,0,151,151,214,1,,
,,,,,,,,,,,,,,,,,,5f522c40069004482b3af322,2020-11-27_15h09.29.123,lexical_decision_task_MP_exp2,2020.2.5,Win32,60,m,1,1.03001,,,,,,,,1.03001,1,,,,,,4,WORD,UN,16,plunge,TRENCH,m,,,,,,-0.024414063,-0.30078125,0,0,0,,0,152,152,183,1,,
,,,,,,,,,,,,,,,,,,5f522c40069004482b3af322,2020-11-27_15h09.29.123,lexical_decision_task_MP_exp2,2020.2.5,Win32,60,z,1,1.162815,,,,,,,,1.162815,1,,,,,,460,NW,UN,33,justre,MINGAR,z,,,,,,-0.024414063,-0.30078125,0,0,0,,0,153,153,399,1,,
,,,,,,,,,,,,,,,,,,5f522c40069004482b3af322,2020-11-27_15h09.29.123,lexical_decision_task_MP_exp2,2020.2.5,Win32,60,z,0,1.481545,,,,,,,,1.481545,0,,,,,,213,WORD,UN,33,intake,SQUEAL,m,,,,,,-0.024414063,-0.30078125,0,0,0,,0,154,154,152,1,,
,,,,,,,,,,,,,,,,,,5f522c40069004482b3af322,2020-11-27_15h09.29.123,lexical_decision_task_MP_exp2,2020.2.5,Win32,60,z,1,0.95565,,,,,,,,0.95565,1,,,,,,445,NW,UN,33,runamo,MINKEL,z,,,,,,-0.024414063,-0.30078125,0,0,0,,0,155,155,384,1,,
,,,,,,,,,,,,,,,,,,5f522c40069004482b3af322,2020-11-27_15h09.29.123,lexical_decision_task_MP_exp2,2020.2.5,Win32,60,m,1,1.098205,,,,,,,,1.098205,1,,,,,,211,WORD,UN,33,verify,INFECT,m,,,,,,-0.024414063,-0.30078125,0,0,0,,0,156,156,150,1,,
,,,,,,,,,,,,,,,,,,5f522c40069004482b3af322,2020-11-27_15h09.29.123,lexical_decision_task_MP_exp2,2020.2.5,Win32,60,m,1,0.701545,,,,,,,,0.701545,1,,,,,,39,WORD,UN,16,convey,INSECT,m,,,,,,-0.024414063,-0.30078125,0,0,0,,0,157,157,218,1,,
,,,,,,,,,,,,,,,,,,5f522c40069004482b3af322,2020-11-27_15h09.29.123,lexical_decision_task_MP_exp2,2020.2.5,Win32,60,m,0,1.20357,,,,,,,,1.20357,0,,,,,,378,NW,"ID",16,shrile,SHRILE,z,,,,,,-0.024414063,-0.30078125,0,0,0,,0,158,158,317,1,,
,,,,,,,,,,,,,,,,,,5f522c40069004482b3af322,2020-11-27_15h09.29.123,lexical_decision_task_MP_exp2,2020.2.5,Win32,60,m,1,0.83007,,,,,,,,0.83007,1,,,,,,233,WORD,UN,33,clumsy,NATURE,m,,,,,,-0.024414063,-0.30078125,0,0,0,,0,159,159,172,1,,
,,,,,,,,,,,,,,,,,,5f522c40069004482b3af322,2020-11-27_15h09.29.123,lexical_decision_task_MP_exp2,2020.2.5,Win32,60,m,0,1.69892,,,,,,,,1.69892,0,,,,,,258,NW,UN,16,soudal,POLUTH,z,,,,,,-0.024414063,-0.30078125,0,0,0,,0,160,160,437,1,,
,,,,,,,,,,,,,,,,,,5f522c40069004482b3af322,2020-11-27_15h09.29.123,lexical_decision_task_MP_exp2,2020.2.5,Win32,60,m,1,0.93037,,,,,,,,0.93037,1,,,,,,201,WORD,UN,33,factor,ADMIRE,m,,,,,,-0.024414063,-0.30078125,0,0,0,,0,161,161,140,1,,
,,,,,,,,,,,,,,,,,,5f522c40069004482b3af322,2020-11-27_15h09.29.123,lexical_decision_task_MP_exp2,2020.2.5,Win32,60,m,1,1.09226,,,,,,,,1.09226,1,,,,,,42,WORD,UN,16,tongue,CHAPEL,m,,,,,,-0.024414063,-0.30078125,0,0,0,,0,162,162,221,1,,
,,,,,,,,,,,,,,,,,,5f522c40069004482b3af322,2020-11-27_15h09.29.123,lexical_decision_task_MP_exp2,2020.2.5,Win32,60,z,1,1.7684,,,,,,,,1.7684,1,,,,,,399,NW,"ID",16,fouret,FOURET,z,,,,,,-0.024414063,-0.30078125,0,0,0,,0,163,163,338,1,,
,,,,,,,,,,,,,,,,,,5f522c40069004482b3af322,2020-11-27_15h09.29.123,lexical_decision_task_MP_exp2,2020.2.5,Win32,60,m,1,1.30322,,,,,,,,1.30322,1,,,,,,81,WORD,"ID",33,friend,FRIEND,m,,,,,,-0.024414063,-0.30078125,0,0,0,,0,164,164,20,1,,
,,,,,,,,,,,,,,,,,,5f522c40069004482b3af322,2020-11-27_15h09.29.123,lexical_decision_task_MP_exp2,2020.2.5,Win32,60,z,1,1.248145,,,,,,,,1.248145,1,,,,,,253,NW,UN,16,varosh,RESAIT,z,,,,,,-0.024414063,-0.30078125,0,0,0,,0,165,165,432,1,,
,,,,,,,,,,,,,,,,,,5f522c40069004482b3af322,2020-11-27_15h09.29.123,lexical_decision_task_MP_exp2,2020.2.5,Win32,60,m,1,0.9851,,,,,,,,0.9851,1,,,,,,135,WORD,"ID",16,import,IMPORT,m,,,,,,-0.024414063,-0.30078125,0,0,0,,0,166,166,74,1,,
,,,,,,,,,,,,,,,,,,5f522c40069004482b3af322,2020-11-27_15h09.29.123,lexical_decision_task_MP_exp2,2020.2.5,Win32,60,z,1,0.993345,,,,,,,,0.993345,1,,,,,,408,NW,"ID",16,hurnia,HURNIA,z,,,,,,-0.024414063,-0.30078125,0,0,0,,0,167,167,347,1,,
,,,,,,,,,,,,,,,,,,5f522c40069004482b3af322,2020-11-27_15h09.29.123,lexical_decision_task_MP_exp2,2020.2.5,Win32,60,z,1,1.02062,,,,,,,,1.02062,1,,,,,,469,NW,UN,33,crudio,PADIFS,z,,,,,,-0.024414063,-0.30078125,0,0,0,,0,168,168,408,1,,
,,,,,,,,,,,,,,,,,,5f522c40069004482b3af322,2020-11-27_15h09.29.123,lexical_decision_task_MP_exp2,2020.2.5,Win32,60,z,1,1.250175,,,,,,,,1.250175,1,,,,,,318,NW,"ID",33,reagly,REAGLY,z,,,,,,-0.024414063,-0.30078125,0,0,0,,0,169,169,257,1,,
,,,,,,,,,,,,,,,,,,5f522c40069004482b3af322,2020-11-27_15h09.29.123,lexical_decision_task_MP_exp2,2020.2.5,Win32,60,m,1,1.273755,,,,,,,,1.273755,1,,,,,,212,WORD,UN,33,squeal,VERIFY,m,,,,,,-0.024414063,-0.30078125,0,0,0,,0,170,170,151,1,,
,,,,,,,,,,,,,,,,,,5f522c40069004482b3af322,2020-11-27_15h09.29.123,lexical_decision_task_MP_exp2,2020.2.5,Win32,60,m,1,0.712865,,,,,,,,0.712865,1,,,,,,12,WORD,UN,16,strive,ORANGE,m,,,,,,-0.024414063,-0.30078125,0,0,0,,0,171,171,191,1,,
,,,,,,,,,,,,,,,,,,5f522c40069004482b3af322,2020-11-27_15h09.29.123,lexical_decision_task_MP_exp2,2020.2.5,Win32,60,m,1,0.74868,,,,,,,,0.74868,1,,,,,,125,WORD,"ID",16,nickel,NICKEL,m,,,,,,-0.024414063,-0.30078125,0,0,0,,0,172,172,64,1,,
,,,,,,,,,,,,,,,,,,5f522c40069004482b3af322,2020-11-27_15h09.29.123,lexical_decision_task_MP_exp2,2020.2.5,Win32,60,z,1,1.157635,,,,,,,,1.157635,1,,,,,,298,NW,UN,16,sturch,PIERGY,z,,,,,,-0.024414063,-0.30078125,0,0,0,,0,173,173,477,1,,
,,,,,,,,,,,,,,,,,,5f522c40069004482b3af322,2020-11-27_15h09.29.123,lexical_decision_task_MP_exp2,2020.2.5,Win32,60,m,1,1.02551,,,,,,,,1.02551,1,,,,,,149,WORD,"ID",16,invade,INVADE,m,,,,,,-0.024414063,-0.30078125,0,0,0,,0,174,174,88,1,,
,,,,,,,,,,,,,,,,,,5f522c40069004482b3af322,2020-11-27_15h09.29.123,lexical_decision_task_MP_exp2,2020.2.5,Win32,60,z,1,0.96644,,,,,,,,0.96644,1,,,,,,345,NW,"ID",33,absend,ABSEND,z,,,,,,-0.024414063,-0.30078125,0,0,0,,0,175,175,284,1,,
,,,,,,,,,,,,,,,,,,5f522c40069004482b3af322,2020-11-27_15h09.29.123,lexical_decision_task_MP_exp2,2020.2.5,Win32,60,m,1,0.859685,,,,,,,,0.859685,1,,,,,,237,WORD,UN,33,glance,POSTER,m,,,,,,-0.024414063,-0.30078125,0,0,0,,0,176,176,176,1,,
,,,,,,,,,,,,,,,,,,5f522c40069004482b3af322,2020-11-27_15h09.29.123,lexical_decision_task_MP_exp2,2020.2.5,Win32,60,m,0,0.933665,,,,,,,,0.933665,0,,,,,,462,NW,UN,33,kispel,ABSULT,z,,,,,,-0.024414063,-0.30078125,0,0,0,,0,177,177,401,1,,
,,,,,,,,,,,,,,,,,,5f522c40069004482b3af322,2020-11-27_15h09.29.123,lexical_decision_task_MP_exp2,2020.2.5,Win32,60,m,1,1.23166,,,,,,,,1.23166,1,,,,,,128,WORD,"ID",16,senior,SENIOR,m,,,,,,-0.024414063,-0.30078125,0,0,0,,0,178,178,67,1,,
,,,,,,,,,,,,,,,,,,5f522c40069004482b3af322,2020-11-27_15h09.29.123,lexical_decision_task_MP_exp2,2020.2.5,Win32,60,m,1,0.80884,,,,,,,,0.80884,1,,,,,,239,WORD,UN,33,forest,LUMBER,m,,,,,,-0.024414063,-0.30078125,0,0,0,,0,179,179,178,1,,
,,,,,,,,,,,,,,,,,,5f522c40069004482b3af322,2020-11-27_15h09.29.123,lexical_decision_task_MP_exp2,2020.2.5,Win32,60,z,1,0.86612,,,,,,,,0.86612,1,,,,,,243,NW,UN,16,eatric,MUSIED,z,,,,,,-0.024414063,-0.30078125,0,0,0,,0,180,180,422,1,,
,,,,,,,,,,,,,,,,,,5f522c40069004482b3af322,2020-11-27_15h09.29.123,lexical_decision_task_MP_exp2,2020.2.5,Win32,60,m,1,0.783925,,,,,,,,0.783925,1,,,,,,75,WORD,"ID",33,trophy,TROPHY,m,,,,,,-0.024414063,-0.30078125,0,0,0,,0,181,181,14,1,,
,,,,,,,,,,,,,,,,,,5f522c40069004482b3af322,2020-11-27_15h09.29.123,lexical_decision_task_MP_exp2,2020.2.5,Win32,60,m,1,0.817105,,,,,,,,0.817105,1,,,,,,226,WORD,UN,33,flower,CASINO,m,,,,,,-0.024414063,-0.30078125,0,0,0,,0,182,182,165,1,,
,,,,,,,,,,,,,,,,,,5f522c40069004482b3af322,2020-11-27_15h09.29.123,lexical_decision_task_MP_exp2,2020.2.5,Win32,60,z,1,0.93257,,,,,,,,0.93257,1,,,,,,449,NW,UN,33,phrect,BRUNGE,z,,,,,,-0.024414063,-0.30078125,0,0,0,,0,183,183,388,1,,
,,,,,,,,,,,,,,,,,,5f522c40069004482b3af322,2020-11-27_15h09.29.123,lexical_decision_task_MP_exp2,2020.2.5,Win32,60,m,0,0.864565,,,,,,,,0.864565,0,,,,,,369,NW,"ID",16,wronch,WRONCH,z,,,,,,-0.024414063,-0.30078125,0,0,0,,0,184,184,308,1,,
,,,,,,,,,,,,,,,,,,5f522c40069004482b3af322,2020-11-27_15h09.29.123,lexical_decision_task_MP_exp2,2020.2.5,Win32,60,z,0,0.793835,,,,,,,,0.793835,0,,,,,,30,WORD,UN,16,weapon,ORIENT,m,,,,,,-0.024414063,-0.30078125,0,0,0,,0,185,185,209,1,,
,,,,,,,,,,,,,,,,,,5f522c40069004482b3af322,2020-11-27_15h09.29.123,lexical_decision_task_MP_exp2,2020.2.5,Win32,60,z,1,1.12334,,,,,,,,1.12334,1,,,,,,396,NW,"ID",16,flengy,FLENGY,z,,,,,,-0.024414063,-0.30078125,0,0,0,,0,186,186,335,1,,
,,,,,,,,,,,,,,,,,,5f522c40069004482b3af322,2020-11-27_15h09.29.123,lexical_decision_task_MP_exp2,2020.2.5,Win32,60,z,1,1.26892,,,,,,,,1.26892,1,,,,,,333,NW,"ID",33,catrie,CATRIE,z,,,,,,-0.024414063,-0.30078125,0,0,0,,0,187,187,272,1,,
,,,,,,,,,,,,,,,,,,5f522c40069004482b3af322,2020-11-27_15h09.29.123,lexical_decision_task_MP_exp2,2020.2.5,Win32,60,z,1,1.23901,,,,,,,,1.23901,1,,,,,,454,NW,UN,33,tondle,SCOUGE,z,,,,,,-0.024414063,-0.30078125,0,0,0,,0,188,188,393,1,,
,,,,,,,,,,,,,,,,,,5f522c40069004482b3af322,2020-11-27_15h09.29.123,lexical_decision_task_MP_exp2,2020.2.5,Win32,60,z,0,1.139725,,,,,,,,1.139725,0,,,,,,187,WORD,UN,33,social,COURSE,m,,,,,,-0.024414063,-0.30078125,0,0,0,,0,189,189,126,1,,
,,,,,,,,,,,,,,,,,,5f522c40069004482b3af322,2020-11-27_15h09.29.123,lexical_decision_task_MP_exp2,2020.2.5,Win32,60,m,1,0.8534,,,,,,,,0.8534,1,,,,,,109,WORD,"ID",33,wonder,WONDER,m,,,,,,-0.024414063,-0.30078125,0,0,0,,0,190,190,48,1,,
,,,,,,,,,,,,,,,,,,5f522c40069004482b3af322,2020-11-27_15h09.29.123,lexical_decision_task_MP_exp2,2020.2.5,Win32,60,z,1,1.413675,,,,,,,,1.413675,1,,,,,,275,NW,UN,16,yarmon,SLEIRT,z,,,,,,-0.024414063,-0.30078125,0,0,0,,0,191,191,454,1,,
,,,,,,,,,,,,,,,,,,5f522c40069004482b3af322,2020-11-27_15h09.29.123,lexical_decision_task_MP_exp2,2020.2.5,Win32,60,m,1,1.08169,,,,,,,,1.08169,1,,,,,,220,WORD,UN,33,mascot,VOYAGE,m,,,,,,-0.024414063,-0.30078125,0,0,0,,0,192,192,159,1,,
,,,,,,,,,,,,,,,,,,5f522c40069004482b3af322,2020-11-27_15h09.29.123,lexical_decision_task_MP_exp2,2020.2.5,Win32,60,z,1,1.148825,,,,,,,,1.148825,1,,,,,,330,NW,"ID",33,kensom,KENSOM,z,,,,,,-0.024414063,-0.30078125,0,0,0,,0,193,193,269,1,,
,,,,,,,,,,,,,,,,,,5f522c40069004482b3af322,2020-11-27_15h09.29.123,lexical_decision_task_MP_exp2,2020.2.5,Win32,60,z,1,1.21855,,,,,,,,1.21855,1,,,,,,379,NW,"ID",16,auting,AUTING,z,,,,,,-0.024414063,-0.30078125,0,0,0,,0,194,194,318,1,,
,,,,,,,,,,,,,,,,,,5f522c40069004482b3af322,2020-11-27_15h09.29.123,lexical_decision_task_MP_exp2,2020.2.5,Win32,60,z,1,1.065615,,,,,,,,1.065615,1,,,,,,422,NW,UN,33,streld,ALCOUD,z,,,,,,-0.024414063,-0.30078125,0,0,0,,0,195,195,361,1,,
,,,,,,,,,,,,,,,,,,5f522c40069004482b3af322,2020-11-27_15h09.29.123,lexical_decision_task_MP_exp2,2020.2.5,Win32,60,m,1,1.03353,,,,,,,,1.03353,1,,,,,,240,WORD,UN,33,seldom,FOREST,m,,,,,,-0.024414063,-0.30078125,0,0,0,,0,196,196,179,1,,
,,,,,,,,,,,,,,,,,,5f522c40069004482b3af322,2020-11-27_15h09.29.123,lexical_decision_task_MP_exp2,2020.2.5,Win32,60,m,0,1.796535,,,,,,,,1.796535,0,,,,,,402,NW,"ID",16,syntic,SYNTIC,z,,,,,,-0.024414063,-0.30078125,0,0,0,,0,197,197,341,1,,
,,,,,,,,,,,,,,,,,,5f522c40069004482b3af322,2020-11-27_15h09.29.123,lexical_decision_task_MP_exp2,2020.2.5,Win32,60,z,1,1.118815,,,,,,,,1.118815,1,,,,,,448,NW,UN,33,brunge,SADENT,z,,,,,,-0.024414063,-0.30078125,0,0,0,,0,198,198,387,1,,
,,,,,,,,,,,,,,,,,,5f522c40069004482b3af322,2020-11-27_15h09.29.123,lexical_decision_task_MP_exp2,2020.2.5,Win32,60,m,1,1.42065,,,,,,,,1.42065,1,,,,,,104,WORD,"ID",33,studio,STUDIO,m,,,,,,-0.024414063,-0.30078125,0,0,0,,0,199,199,43,1,,
,,,,,,,,,,,,,,,,,,5f522c40069004482b3af322,2020-11-27_15h09.29.123,lexical_decision_task_MP_exp2,2020.2.5,Win32,60,z,1,1.31015,,,,,,,,1.31015,1,,,,,,459,NW,UN,33,mingar,BAFENT,z,,,,,,-0.024414063,-0.30078125,0,0,0,,0,200,200,398,1,,
,,,,,,,,,,,,,,,,,,5f522c40069004482b3af322,2020-11-27_15h09.29.123,lexical_decision_task_MP_exp2,2020.2.5,Win32,60,m,1,0.74993,,,,,,,,0.74993,1,,,,,,88,WORD,"ID",33,hunger,HUNGER,m,,,,,,-0.024414063,-0.30078125,0,0,0,,0,201,201,27,1,,
,,,,,,,,,,,,,,,,,,5f522c40069004482b3af322,2020-11-27_15h09.29.123,lexical_decision_task_MP_exp2,2020.2.5,Win32,60,z,0,1.757525,,,,,,,,1.757525,0,,,,,,45,WORD,UN,16,single,CLERGY,m,,,,,,-0.024414063,-0.30078125,0,0,0,,0,202,202,224,1,,
,,,,,,,,,,,,,,,,,,5f522c40069004482b3af322,2020-11-27_15h09.29.123,lexical_decision_task_MP_exp2,2020.2.5,Win32,60,z,1,1.89532,,,,,,,,1.89532,1,,,,,,411,NW,"ID",16,orchin,ORCHIN,z,,,,,,-0.024414063,-0.30078125,0,0,0,,0,203,203,350,1,,
,,,,,,,,,,,,,,,,,,5f522c40069004482b3af322,2020-11-27_15h09.29.123,lexical_decision_task_MP_exp2,2020.2.5,Win32,60,m,1,0.881705,,,,,,,,0.881705,1,,,,,,162,WORD,"ID",16,candle,CANDLE,m,,,,,,-0.024414063,-0.30078125,0,0,0,,0,204,204,101,1,,
,,,,,,,,,,,,,,,,,,5f522c40069004482b3af322,2020-11-27_15h09.29.123,lexical_decision_task_MP_exp2,2020.2.5,Win32,60,m,1,0.748795,,,,,,,,0.748795,1,,,,,,53,WORD,UN,16,ramble,POLICE,m,,,,,,-0.024414063,-0.30078125,0,0,0,,0,205,205,232,1,,
,,,,,,,,,,,,,,,,,,5f522c40069004482b3af322,2020-11-27_15h09.29.123,lexical_decision_task_MP_exp2,2020.2.5,Win32,60,z,1,1.51672,,,,,,,,1.51672,1,,,,,,282,NW,UN,16,veralf,PORLEX,z,,,,,,-0.024414063,-0.30078125,0,0,0,,0,206,206,461,1,,
,,,,,,,,,,,,,,,,,,5f522c40069004482b3af322,2020-11-27_15h09.29.123,lexical_decision_task_MP_exp2,2020.2.5,Win32,60,m,1,1.235575,,,,,,,,1.235575,1,,,,,,157,WORD,"ID",16,dragon,DRAGON,m,,,,,,-0.024414063,-0.30078125,0,0,0,,0,207,207,96,1,,
,,,,,,,,,,,,,,,,,,5f522c40069004482b3af322,2020-11-27_15h09.29.123,lexical_decision_task_MP_exp2,2020.2.5,Win32,60,m,1,0.741475,,,,,,,,0.741475,1,,,,,,117,WORD,"ID",33,branch,BRANCH,m,,,,,,-0.024414063,-0.30078125,0,0,0,,0,208,208,56,1,,
,,,,,,,,,,,,,,,,,,5f522c40069004482b3af322,2020-11-27_15h09.29.123,lexical_decision_task_MP_exp2,2020.2.5,Win32,60,m,1,0.946905,,,,,,,,0.946905,1,,,,,,129,WORD,"ID",16,marvel,MARVEL,m,,,,,,-0.024414063,-0.30078125,0,0,0,,0,209,209,68,1,,
,,,,,,,,,,,,,,,,,,5f522c40069004482b3af322,2020-11-27_15h09.29.123,lexical_decision_task_MP_exp2,2020.2.5,Win32,60,z,1,1.23683,,,,,,,,1.23683,1,,,,,,475,NW,UN,33,josted,PEBRIC,z,,,,,,-0.024414063,-0.30078125,0,0,0,,0,210,210,414,1,,
,,,,,,,,,,,,,,,,,,5f522c40069004482b3af322,2020-11-27_15h09.29.123,lexical_decision_task_MP_exp2,2020.2.5,Win32,60,z,1,0.9243,,,,,,,,0.9243,1,,,,,,428,NW,UN,33,funtle,TANDLY,z,,,,,,-0.024414063,-0.30078125,0,0,0,,0,211,211,367,1,,
,,,,,,,,,,,,,,,,,,5f522c40069004482b3af322,2020-11-27_15h09.29.123,lexical_decision_task_MP_exp2,2020.2.5,Win32,60,z,1,1.225175,,,,,,,,1.225175,1,,,,,,427,NW,UN,33,tandly,SCHIND,z,,,,,,-0.024414063,-0.30078125,0,0,0,,0,212,212,366,1,,
,,,,,,,,,,,,,,,,,,5f522c40069004482b3af322,2020-11-27_15h09.29.123,lexical_decision_task_MP_exp2,2020.2.5,Win32,60,m,1,0.970865,,,,,,,,0.970865,1,,,,,,191,WORD,UN,33,beacon,STABLE,m,,,,,,-0.024414063,-0.30078125,0,0,0,,0,213,213,130,1,,
,,,,,,,,,,,,,,,,,,5f522c40069004482b3af322,2020-11-27_15h09.29.123,lexical_decision_task_MP_exp2,2020.2.5,Win32,60,z,0,0.838615,,,,,,,,0.838615,0,,,,,,199,WORD,UN,33,plague,INVOKE,m,,,,,,-0.024414063,-0.30078125,0,0,0,,0,214,214,138,1,,
,,,,,,,,,,,,,,,,,,5f522c40069004482b3af322,2020-11-27_15h09.29.123,lexical_decision_task_MP_exp2,2020.2.5,Win32,60,z,0,1.48571,,,,,,,,1.48571,0,,,,,,111,WORD,"ID",33,induce,INDUCE,m,,,,,,-0.024414063,-0.30078125,0,0,0,,0,215,215,50,1,,
,,,,,,,,,,,,,,,,,,5f522c40069004482b3af322,2020-11-27_15h09.29.123,lexical_decision_task_MP_exp2,2020.2.5,Win32,60,m,1,0.79907,,,,,,,,0.79907,1,,,,,,209,WORD,UN,33,monkey,SEARCH,m,,,,,,-0.024414063,-0.30078125,0,0,0,,0,216,216,148,1,,
,,,,,,,,,,,,,,,,,,5f522c40069004482b3af322,2020-11-27_15h09.29.123,lexical_decision_task_MP_exp2,2020.2.5,Win32,60,m,1,0.782425,,,,,,,,0.782425,1,,,,,,196,WORD,UN,33,stream,CREDIT,m,,,,,,-0.024414063,-0.30078125,0,0,0,,0,217,217,135,1,,
,,,,,,,,,,,,,,,,,,5f522c40069004482b3af322,2020-11-27_15h09.29.123,lexical_decision_task_MP_exp2,2020.2.5,Win32,60,m,1,0.84851,,,,,,,,0.84851,1,,,,,,46,WORD,UN,16,income,SINGLE,m,,,,,,-0.024414063,-0.30078125,0,0,0,,0,218,218,225,1,,
,,,,,,,,,,,,,,,,,,5f522c40069004482b3af322,2020-11-27_15h09.29.123,lexical_decision_task_MP_exp2,2020.2.5,Win32,60,m,0,0.614795,,,,,,,,0.614795,0,,,,,,319,NW,"ID",33,zomber,ZOMBER,z,,,,,,-0.024414063,-0.30078125,0,0,0,,0,219,219,258,1,,
,,,,,,,,,,,,,,,,,,5f522c40069004482b3af322,2020-11-27_15h09.29.123,lexical_decision_task_MP_exp2,2020.2.5,Win32,60,z,1,1.19865,,,,,,,,1.19865,1,,,,,,435,NW,UN,33,frutan,IMPURB,z,,,,,,-0.024414063,-0.30078125,0,0,0,,0,220,220,374,1,,
,,,,,,,,,,,,,,,,,,5f522c40069004482b3af322,2020-11-27_15h09.29.123,lexical_decision_task_MP_exp2,2020.2.5,Win32,60,m,1,0.765885,,,,,,,,0.765885,1,,,,,,55,WORD,UN,16,ambush,STROKE,m,,,,,,-0.024414063,-0.30078125,0,0,0,,0,221,221,234,1,,
,,,,,,,,,,,,,,,,,,5f522c40069004482b3af322,2020-11-27_15h09.29.123,lexical_decision_task_MP_exp2,2020.2.5,Win32,60,m,1,0.780395,,,,,,,,0.780395,1,,,,,,174,WORD,"ID",16,turkey,TURKEY,m,,,,,,-0.024414063,-0.30078125,0,0,0,,0,222,222,113,1,,
,,,,,,,,,,,,,,,,,,5f522c40069004482b3af322,2020-11-27_15h09.29.123,lexical_decision_task_MP_exp2,2020.2.5,Win32,60,z,1,0.81602,,,,,,,,0.81602,1,,,,,,394,NW,"ID",16,spaqux,SPAQUX,z,,,,,,-0.024414063,-0.30078125,0,0,0,,0,223,223,333,1,,
,,,,,,,,,,,,,,,,,,5f522c40069004482b3af322,2020-11-27_15h09.29.123,lexical_decision_task_MP_exp2,2020.2.5,Win32,60,z,0,1.372,,,,,,,,1.372,0,,,,,,113,WORD,"ID",33,chorus,CHORUS,m,,,,,,-0.024414063,-0.30078125,0,0,0,,0,224,224,52,1,,
,,,,,,,,,,,,,,,,,,5f522c40069004482b3af322,2020-11-27_15h09.29.123,lexical_decision_task_MP_exp2,2020.2.5,Win32,60,z,1,0.984195,,,,,,,,0.984195,1,,,,,,308,NW,"ID",33,psetch,PSETCH,z,,,,,,-0.024414063,-0.30078125,0,0,0,,0,225,225,247,1,,
,,,,,,,,,,,,,,,,,,5f522c40069004482b3af322,2020-11-27_15h09.29.123,lexical_decision_task_MP_exp2,2020.2.5,Win32,60,m,1,0.68868,,,,,,,,0.68868,1,,,,,,165,WORD,"ID",16,invest,INVEST,m,,,,,,-0.024414063,-0.30078125,0,0,0,,0,226,226,104,1,,
,,,,,,,,,,,,,,,,,,5f522c40069004482b3af322,2020-11-27_15h09.29.123,lexical_decision_task_MP_exp2,2020.2.5,Win32,60,m,1,0.73177,,,,,,,,0.73177,1,,,,,,167,WORD,"ID",16,design,DESIGN,m,,,,,,-0.024414063,-0.30078125,0,0,0,,0,227,227,106,1,,
,,,,,,,,,,,,,,,,,,5f522c40069004482b3af322,2020-11-27_15h09.29.123,lexical_decision_task_MP_exp2,2020.2.5,Win32,60,m,1,1.09869,,,,,,,,1.09869,1,,,,,,160,WORD,"ID",16,violet,VIOLET,m,,,,,,-0.024414063,-0.30078125,0,0,0,,0,228,228,99,1,,
,,,,,,,,,,,,,,,,,,5f522c40069004482b3af322,2020-11-27_15h09.29.123,lexical_decision_task_MP_exp2,2020.2.5,Win32,60,m,1,0.916845,,,,,,,,0.916845,1,,,,,,107,WORD,"ID",33,slogan,SLOGAN,m,,,,,,-0.024414063,-0.30078125,0,0,0,,0,229,229,46,1,,
,,,,,,,,,,,,,,,,,,5f522c40069004482b3af322,2020-11-27_15h09.29.123,lexical_decision_task_MP_exp2,2020.2.5,Win32,60,z,1,0.98123,,,,,,,,0.98123,1,,,,,,361,NW,"ID",16,pauche,PAUCHE,z,,,,,,-0.024414063,-0.30078125,0,0,0,,0,230,230,300,1,,
,,,,,,,,,,,,,,,,,,5f522c40069004482b3af322,2020-11-27_15h09.29.123,lexical_decision_task_MP_exp2,2020.2.5,Win32,60,z,1,0.87628,,,,,,,,0.87628,1,,,,,,252,NW,UN,16,resait,STAPOD,z,,,,,,-0.024414063,-0.30078125,0,0,0,,0,231,231,431,1,,
,,,,,,,,,,,,,,,,,,5f522c40069004482b3af322,2020-11-27_15h09.29.123,lexical_decision_task_MP_exp2,2020.2.5,Win32,60,m,1,1.56367,,,,,,,,1.56367,1,,,,,,228,WORD,UN,33,kidney,MASTER,m,,,,,,-0.024414063,-0.30078125,0,0,0,,0,232,232,167,1,,
,,,,,,,,,,,,,,,,,,5f522c40069004482b3af322,2020-11-27_15h09.29.123,lexical_decision_task_MP_exp2,2020.2.5,Win32,60,z,1,1.41641,,,,,,,,1.41641,1,,,,,,434,NW,UN,33,impurb,PITROM,z,,,,,,-0.024414063,-0.30078125,0,0,0,,0,233,233,373,1,,
,,,,,,,,,,,,,,,,,,5f522c40069004482b3af322,2020-11-27_15h09.29.123,lexical_decision_task_MP_exp2,2020.2.5,Win32,60,m,1,1.1685,,,,,,,,1.1685,1,,,,,,200,WORD,UN,33,admire,BEACON,m,,,,,,-0.024414063,-0.30078125,0,0,0,,0,234,234,139,1,,
,,,,,,,,,,,,,,,,,,5f522c40069004482b3af322,2020-11-27_15h09.29.123,lexical_decision_task_MP_exp2,2020.2.5,Win32,60,z,1,0.9161,,,,,,,,0.9161,1,,,,,,479,NW,UN,33,crible,LOBUSH,z,,,,,,-0.024414063,-0.30078125,0,0,0,,0,235,235,418,1,,
,,,,,,,,,,,,,,,,,,5f522c40069004482b3af322,2020-11-27_15h09.29.123,lexical_decision_task_MP_exp2,2020.2.5,Win32,60,z,0,1.19617,,,,,,,,1.19617,0,,,,,,16,WORD,UN,16,charge,FAUCET,m,,,,,,-0.024414063,-0.30078125,0,0,0,,0,236,236,195,1,,
,,,,,,,,,,,,,,,,,,5f522c40069004482b3af322,2020-11-27_15h09.29.123,lexical_decision_task_MP_exp2,2020.2.5,Win32,60,m,1,0.83799,,,,,,,,0.83799,1,,,,,,152,WORD,"ID",16,rocket,ROCKET,m,,,,,,-0.024414063,-0.30078125,0,0,0,,0,237,237,91,1,,
,,,,,,,,,,,,,,,,,,5f522c40069004482b3af322,2020-11-27_15h09.29.123,lexical_decision_task_MP_exp2,2020.2.5,Win32,60,m,1,1.5246,,,,,,,,1.5246,1,,,,,,230,WORD,UN,33,mother,FRINGE,m,,,,,,-0.024414063,-0.30078125,0,0,0,,0,238,238,169,1,,
,,,,,,,,,,,,,,,,,,5f522c40069004482b3af322,2020-11-27_15h09.29.123,lexical_decision_task_MP_exp2,2020.2.5,Win32,60,m,1,0.689105,,,,,,,,0.689105,1,,,,,,33,WORD,UN,16,jungle,BUTLER,m,,,,,,-0.024414063,-0.30078125,0,0,0,,0,239,239,212,1,,
,,,,,,,,,,,,,,,,,,5f522c40069004482b3af322,2020-11-27_15h09.29.123,lexical_decision_task_MP_exp2,2020.2.5,Win32,60,m,0,1.6,,,,,,,,1.6,0,,,,,,291,NW,UN,16,ablint,PRETCH,z,,,,,,-0.024414063,-0.30078125,0,0,0,,0,240,240,470,1,,
,,,,,,,,,,,,,,,,,,5f522c40069004482b3af322,2020-11-27_15h09.29.123,lexical_decision_task_MP_exp2,2020.2.5,Win32,60,m,1,1.089495,,,,,,,,1.089495,1,,,,,,29,WORD,UN,16,orient,SKETCH,m,,,,,,0.107421875,-0.393554688,1,0,0,,0,241,241,208,1,,break_done_button
,,,,,,,,,,,,,,,,,,5f522c40069004482b3af322,2020-11-27_15h09.29.123,lexical_decision_task_MP_exp2,2020.2.5,Win32,60,m,1,1.43218,,,,,,,,1.43218,1,,,,,,192,WORD,UN,33,object,PLAGUE,m,,,,,,0.107421875,-0.393554688,0,0,0,,0,242,242,131,1,,
,,,,,,,,,,,,,,,,,,5f522c40069004482b3af322,2020-11-27_15h09.29.123,lexical_decision_task_MP_exp2,2020.2.5,Win32,60,m,1,1.657295,,,,,,,,1.657295,1,,,,,,122,WORD,"ID",16,linger,LINGER,m,,,,,,0.107421875,-0.393554688,0,0,0,,0,243,243,61,1,,
,,,,,,,,,,,,,,,,,,5f522c40069004482b3af322,2020-11-27_15h09.29.123,lexical_decision_task_MP_exp2,2020.2.5,Win32,60,m,1,0.782865,,,,,,,,0.782865,1,,,,,,164,WORD,"ID",16,market,MARKET,m,,,,,,0.107421875,-0.393554688,0,0,0,,0,244,244,103,1,,
,,,,,,,,,,,,,,,,,,5f522c40069004482b3af322,2020-11-27_15h09.29.123,lexical_decision_task_MP_exp2,2020.2.5,Win32,60,z,1,1.293495,,,,,,,,1.293495,1,,,,,,320,NW,"ID",33,jockal,JOCKAL,z,,,,,,0.107421875,-0.393554688,0,0,0,,0,245,245,259,1,,
,,,,,,,,,,,,,,,,,,5f522c40069004482b3af322,2020-11-27_15h09.29.123,lexical_decision_task_MP_exp2,2020.2.5,Win32,60,z,1,1.06923,,,,,,,,1.06923,1,,,,,,273,NW,UN,16,fumblo,SORTEL,z,,,,,,0.107421875,-0.393554688,0,0,0,,0,246,246,452,1,,
,,,,,,,,,,,,,,,,,,5f522c40069004482b3af322,2020-11-27_15h09.29.123,lexical_decision_task_MP_exp2,2020.2.5,Win32,60,m,1,1.24357,,,,,,,,1.24357,1,,,,,,190,WORD,UN,33,stable,BACKUP,m,,,,,,0.107421875,-0.393554688,0,0,0,,0,247,247,129,1,,
,,,,,,,,,,,,,,,,,,5f522c40069004482b3af322,2020-11-27_15h09.29.123,lexical_decision_task_MP_exp2,2020.2.5,Win32,60,m,1,1.643155,,,,,,,,1.643155,1,,,,,,195,WORD,UN,33,credit,RESIGN,m,,,,,,0.107421875,-0.393554688,0,0,0,,0,248,248,134,1,,
,,,,,,,,,,,,,,,,,,5f522c40069004482b3af322,2020-11-27_15h09.29.123,lexical_decision_task_MP_exp2,2020.2.5,Win32,60,m,1,1.45093,,,,,,,,1.45093,1,,,,,,140,WORD,"ID",16,prince,PRINCE,m,,,,,,0.107421875,-0.393554688,0,0,0,,0,249,249,79,1,,
,,,,,,,,,,,,,,,,,,5f522c40069004482b3af322,2020-11-27_15h09.29.123,lexical_decision_task_MP_exp2,2020.2.5,Win32,60,z,1,1.15487,,,,,,,,1.15487,1,,,,,,263,NW,UN,16,vackel,DOLICA,z,,,,,,0.107421875,-0.393554688,0,0,0,,0,250,250,442,1,,
,,,,,,,,,,,,,,,,,,5f522c40069004482b3af322,2020-11-27_15h09.29.123,lexical_decision_task_MP_exp2,2020.2.5,Win32,60,z,0,1.625305,,,,,,,,1.625305,0,,,,,,170,WORD,"ID",16,pounce,POUNCE,m,,,,,,0.107421875,-0.393554688,0,0,0,,0,251,251,109,1,,
,,,,,,,,,,,,,,,,,,5f522c40069004482b3af322,2020-11-27_15h09.29.123,lexical_decision_task_MP_exp2,2020.2.5,Win32,60,z,1,1.649645,,,,,,,,1.649645,1,,,,,,349,NW,"ID",33,asylen,ASYLEN,z,,,,,,0.107421875,-0.393554688,0,0,0,,0,252,252,288,1,,
,,,,,,,,,,,,,,,,,,5f522c40069004482b3af322,2020-11-27_15h09.29.123,lexical_decision_task_MP_exp2,2020.2.5,Win32,60,m,1,1.316855,,,,,,,,1.316855,1,,,,,,218,WORD,UN,33,bucket,SHRINK,m,,,,,,0.107421875,-0.393554688,0,0,0,,0,253,253,157,1,,
,,,,,,,,,,,,,,,,,,5f522c40069004482b3af322,2020-11-27_15h09.29.123,lexical_decision_task_MP_exp2,2020.2.5,Win32,60,z,1,1.33098,,,,,,,,1.33098,1,,,,,,383,NW,"ID",16,aungre,AUNGRE,z,,,,,,0.107421875,-0.393554688,0,0,0,,0,254,254,322,1,,
,,,,,,,,,,,,,,,,,,5f522c40069004482b3af322,2020-11-27_15h09.29.123,lexical_decision_task_MP_exp2,2020.2.5,Win32,60,m,1,1.01447,,,,,,,,1.01447,1,,,,,,158,WORD,"ID",16,island,ISLAND,m,,,,,,0.107421875,-0.393554688,0,0,0,,0,255,255,97,1,,
,,,,,,,,,,,,,,,,,,5f522c40069004482b3af322,2020-11-27_15h09.29.123,lexical_decision_task_MP_exp2,2020.2.5,Win32,60,z,1,1.38787,,,,,,,,1.38787,1,,,,,,362,NW,"ID",16,tireau,TIREAU,z,,,,,,0.107421875,-0.393554688,0,0,0,,0,256,256,301,1,,
,,,,,,,,,,,,,,,,,,5f522c40069004482b3af322,2020-11-27_15h09.29.123,lexical_decision_task_MP_exp2,2020.2.5,Win32,60,m,1,1.12161,,,,,,,,1.12161,1,,,,,,57,WORD,UN,16,danger,CHANGE,m,,,,,,0.107421875,-0.393554688,0,0,0,,0,257,257,236,1,,
,,,,,,,,,,,,,,,,,,5f522c40069004482b3af322,2020-11-27_15h09.29.123,lexical_decision_task_MP_exp2,2020.2.5,Win32,60,z,1,1.86843,,,,,,,,1.86843,1,,,,,,299,NW,UN,16,yarion,STURCH,z,,,,,,0.107421875,-0.393554688,0,0,0,,0,258,258,478,1,,
,,,,,,,,,,,,,,,,,,5f522c40069004482b3af322,2020-11-27_15h09.29.123,lexical_decision_task_MP_exp2,2020.2.5,Win32,60,z,1,1.58023,,,,,,,,1.58023,1,,,,,,270,NW,UN,16,aubrid,WRIMSY,z,,,,,,0.107421875,-0.393554688,0,0,0,,0,259,259,449,1,,
,,,,,,,,,,,,,,,,,,5f522c40069004482b3af322,2020-11-27_15h09.29.123,lexical_decision_task_MP_exp2,2020.2.5,Win32,60,z,1,1.553015,,,,,,,,1.553015,1,,,,,,249,NW,UN,16,milted,BATROL,z,,,,,,0.107421875,-0.393554688,0,0,0,,0,260,260,428,1,,
,,,,,,,,,,,,,,,,,,5f522c40069004482b3af322,2020-11-27_15h09.29.123,lexical_decision_task_MP_exp2,2020.2.5,Win32,60,z,1,0.970945,,,,,,,,0.970945,1,,,,,,409,NW,"ID",16,elopia,ELOPIA,z,,,,,,0.107421875,-0.393554688,0,0,0,,0,261,261,348,1,,
,,,,,,,,,,,,,,,,,,5f522c40069004482b3af322,2020-11-27_15h09.29.123,lexical_decision_task_MP_exp2,2020.2.5,Win32,60,m,0,1.199615,,,,,,,,1.199615,0,,,,,,348,NW,"ID",33,dumple,DUMPLE,z,,,,,,0.107421875,-0.393554688,0,0,0,,0,262,262,287,1,,
,,,,,,,,,,,,,,,,,,5f522c40069004482b3af322,2020-11-27_15h09.29.123,lexical_decision_task_MP_exp2,2020.2.5,Win32,60,z,1,1.888675,,,,,,,,1.888675,1,,,,,,464,NW,UN,33,whivex,CHAITE,z,,,,,,0.107421875,-0.393554688,0,0,0,,0,263,263,403,1,,
,,,,,,,,,,,,,,,,,,5f522c40069004482b3af322,2020-11-27_15h09.29.123,lexical_decision_task_MP_exp2,2020.2.5,Win32,60,m,1,1.23921,,,,,,,,1.23921,1,,,,,,36,WORD,UN,16,insult,VANISH,m,,,,,,0.107421875,-0.393554688,0,0,0,,0,264,264,215,1,,
,,,,,,,,,,,,,,,,,,5f522c40069004482b3af322,2020-11-27_15h09.29.123,lexical_decision_task_MP_exp2,2020.2.5,Win32,60,z,1,1.51926,,,,,,,,1.51926,1,,,,,,285,NW,UN,16,reldon,PRUDGE,z,,,,,,0.107421875,-0.393554688,0,0,0,,0,265,265,464,1,,
,,,,,,,,,,,,,,,,,,5f522c40069004482b3af322,2020-11-27_15h09.29.123,lexical_decision_task_MP_exp2,2020.2.5,Win32,60,z,1,1.732695,,,,,,,,1.732695,1,,,,,,405,NW,"ID",16,flumni,FLUMNI,z,,,,,,0.107421875,-0.393554688,0,0,0,,0,266,266,344,1,,
,,,,,,,,,,,,,,,,,,5f522c40069004482b3af322,2020-11-27_15h09.29.123,lexical_decision_task_MP_exp2,2020.2.5,Win32,60,m,1,1.08297,,,,,,,,1.08297,1,,,,,,97,WORD,"ID",33,client,CLIENT,m,,,,,,0.107421875,-0.393554688,0,0,0,,0,267,267,36,1,,
,,,,,,,,,,,,,,,,,,5f522c40069004482b3af322,2020-11-27_15h09.29.123,lexical_decision_task_MP_exp2,2020.2.5,Win32,60,m,1,1.737125,,,,,,,,1.737125,1,,,,,,1,WORD,UN,16,ethnic,FRIGHT,m,,,,,,0.107421875,-0.393554688,0,0,0,,0,268,268,180,1,,
,,,,,,,,,,,,,,,,,,5f522c40069004482b3af322,2020-11-27_15h09.29.123,lexical_decision_task_MP_exp2,2020.2.5,Win32,60,z,1,1.667455,,,,,,,,1.667455,1,,,,,,297,NW,UN,16,piergy,FERTIC,z,,,,,,0.107421875,-0.393554688,0,0,0,,0,269,269,476,1,,
,,,,,,,,,,,,,,,,,,5f522c40069004482b3af322,2020-11-27_15h09.29.123,lexical_decision_task_MP_exp2,2020.2.5,Win32,60,z,1,1.11512,,,,,,,,1.11512,1,,,,,,317,NW,"ID",33,worbal,WORBAL,z,,,,,,0.107421875,-0.393554688,0,0,0,,0,270,270,256,1,,
,,,,,,,,,,,,,,,,,,5f522c40069004482b3af322,2020-11-27_15h09.29.123,lexical_decision_task_MP_exp2,2020.2.5,Win32,60,m,1,1.20292,,,,,,,,1.20292,1,,,,,,26,WORD,UN,16,butler,SPRINT,m,,,,,,0.107421875,-0.393554688,0,0,0,,0,271,271,205,1,,
,,,,,,,,,,,,,,,,,,5f522c40069004482b3af322,2020-11-27_15h09.29.123,lexical_decision_task_MP_exp2,2020.2.5,Win32,60,m,1,1.21445,,,,,,,,1.21445,1,,,,,,82,WORD,"ID",33,stigma,STIGMA,m,,,,,,0.107421875,-0.393554688,0,0,0,,0,272,272,21,1,,
,,,,,,,,,,,,,,,,,,5f522c40069004482b3af322,2020-11-27_15h09.29.123,lexical_decision_task_MP_exp2,2020.2.5,Win32,60,m,0,0.730995,,,,,,,,0.730995,0,,,,,,268,NW,UN,16,orchet,PACKES,z,,,,,,0.107421875,-0.393554688,0,0,0,,0,273,273,447,1,,
,,,,,,,,,,,,,,,,,,5f522c40069004482b3af322,2020-11-27_15h09.29.123,lexical_decision_task_MP_exp2,2020.2.5,Win32,60,z,0,1.26573,,,,,,,,1.26573,0,,,,,,151,WORD,"ID",16,mystic,MYSTIC,m,,,,,,0.107421875,-0.393554688,0,0,0,,0,274,274,90,1,,
,,,,,,,,,,,,,,,,,,5f522c40069004482b3af322,2020-11-27_15h09.29.123,lexical_decision_task_MP_exp2,2020.2.5,Win32,60,z,1,1.56253,,,,,,,,1.56253,1,,,,,,257,NW,UN,16,poluth,VENIOD,z,,,,,,0.107421875,-0.393554688,0,0,0,,0,275,275,436,1,,
,,,,,,,,,,,,,,,,,,5f522c40069004482b3af322,2020-11-27_15h09.29.123,lexical_decision_task_MP_exp2,2020.2.5,Win32,60,z,1,1.270865,,,,,,,,1.270865,1,,,,,,337,NW,"ID",33,rejols,REJOLS,z,,,,,,0.107421875,-0.393554688,0,0,0,,0,276,276,276,1,,
,,,,,,,,,,,,,,,,,,5f522c40069004482b3af322,2020-11-27_15h09.29.123,lexical_decision_task_MP_exp2,2020.2.5,Win32,60,z,1,1.0696,,,,,,,,1.0696,1,,,,,,283,NW,UN,16,shaple,VERALF,z,,,,,,0.107421875,-0.393554688,0,0,0,,0,277,277,462,1,,
,,,,,,,,,,,,,,,,,,5f522c40069004482b3af322,2020-11-27_15h09.29.123,lexical_decision_task_MP_exp2,2020.2.5,Win32,60,m,1,1.082605,,,,,,,,1.082605,1,,,,,,145,WORD,"ID",16,parish,PARISH,m,,,,,,0.107421875,-0.393554688,0,0,0,,0,278,278,84,1,,
,,,,,,,,,,,,,,,,,,5f522c40069004482b3af322,2020-11-27_15h09.29.123,lexical_decision_task_MP_exp2,2020.2.5,Win32,60,m,0,1.617085,,,,,,,,1.617085,0,,,,,,246,NW,UN,16,blarge,PIATON,z,,,,,,0.107421875,-0.393554688,0,0,0,,0,279,279,425,1,,
,,,,,,,,,,,,,,,,,,5f522c40069004482b3af322,2020-11-27_15h09.29.123,lexical_decision_task_MP_exp2,2020.2.5,Win32,60,m,1,0.882085,,,,,,,,0.882085,1,,,,,,169,WORD,"ID",16,genius,GENIUS,m,,,,,,0.107421875,-0.393554688,0,0,0,,0,280,280,108,1,,
,,,,,,,,,,,,,,,,,,5f522c40069004482b3af322,2020-11-27_15h09.29.123,lexical_decision_task_MP_exp2,2020.2.5,Win32,60,m,1,1.31114,,,,,,,,1.31114,1,,,,,,189,WORD,UN,33,backup,CENSOR,m,,,,,,0.107421875,-0.393554688,0,0,0,,0,281,281,128,1,,
,,,,,,,,,,,,,,,,,,5f522c40069004482b3af322,2020-11-27_15h09.29.123,lexical_decision_task_MP_exp2,2020.2.5,Win32,60,z,1,1.41805,,,,,,,,1.41805,1,,,,,,244,NW,UN,16,anougs,EATRIC,z,,,,,,0.107421875,-0.393554688,0,0,0,,0,282,282,423,1,,
,,,,,,,,,,,,,,,,,,5f522c40069004482b3af322,2020-11-27_15h09.29.123,lexical_decision_task_MP_exp2,2020.2.5,Win32,60,m,1,0.983565,,,,,,,,0.983565,1,,,,,,73,WORD,"ID",33,source,SOURCE,m,,,,,,0.107421875,-0.393554688,0,0,0,,0,283,283,12,1,,
,,,,,,,,,,,,,,,,,,5f522c40069004482b3af322,2020-11-27_15h09.29.123,lexical_decision_task_MP_exp2,2020.2.5,Win32,60,z,1,1.79862,,,,,,,,1.79862,1,,,,,,278,NW,UN,16,celond,UNIGHS,z,,,,,,0.107421875,-0.393554688,0,0,0,,0,284,284,457,1,,
,,,,,,,,,,,,,,,,,,5f522c40069004482b3af322,2020-11-27_15h09.29.123,lexical_decision_task_MP_exp2,2020.2.5,Win32,60,m,1,0.857395,,,,,,,,0.857395,1,,,,,,100,WORD,"ID",33,carbon,CARBON,m,,,,,,0.107421875,-0.393554688,0,0,0,,0,285,285,39,1,,
,,,,,,,,,,,,,,,,,,5f522c40069004482b3af322,2020-11-27_15h09.29.123,lexical_decision_task_MP_exp2,2020.2.5,Win32,60,z,1,1.4575,,,,,,,,1.4575,1,,,,,,441,NW,UN,33,aboune,RASTOE,z,,,,,,0.107421875,-0.393554688,0,0,0,,0,286,286,380,1,,
,,,,,,,,,,,,,,,,,,5f522c40069004482b3af322,2020-11-27_15h09.29.123,lexical_decision_task_MP_exp2,2020.2.5,Win32,60,z,1,0.778195,,,,,,,,0.778195,1,,,,,,442,NW,UN,33,dorsex,ABOUNE,z,,,,,,0.107421875,-0.393554688,0,0,0,,0,287,287,381,1,,
,,,,,,,,,,,,,,,,,,5f522c40069004482b3af322,2020-11-27_15h09.29.123,lexical_decision_task_MP_exp2,2020.2.5,Win32,60,m,1,1.149195,,,,,,,,1.149195,1,,,,,,153,WORD,"ID",16,behold,BEHOLD,m,,,,,,0.107421875,-0.393554688,0,0,0,,0,288,288,92,1,,
,,,,,,,,,,,,,,,,,,5f522c40069004482b3af322,2020-11-27_15h09.29.123,lexical_decision_task_MP_exp2,2020.2.5,Win32,60,z,1,1.14852,,,,,,,,1.14852,1,,,,,,287,NW,UN,16,yaceup,NYMBEL,z,,,,,,0.107421875,-0.393554688,0,0,0,,0,289,289,466,1,,
,,,,,,,,,,,,,,,,,,5f522c40069004482b3af322,2020-11-27_15h09.29.123,lexical_decision_task_MP_exp2,2020.2.5,Win32,60,z,1,0.781365,,,,,,,,0.781365,1,,,,,,241,NW,UN,16,unwert,SMENCO,z,,,,,,0.107421875,-0.393554688,0,0,0,,0,290,290,420,1,,
,,,,,,,,,,,,,,,,,,5f522c40069004482b3af322,2020-11-27_15h09.29.123,lexical_decision_task_MP_exp2,2020.2.5,Win32,60,z,1,1.42227,,,,,,,,1.42227,1,,,,,,265,NW,UN,16,varmit,DISTAR,z,,,,,,0.107421875,-0.393554688,0,0,0,,0,291,291,444,1,,
,,,,,,,,,,,,,,,,,,5f522c40069004482b3af322,2020-11-27_15h09.29.123,lexical_decision_task_MP_exp2,2020.2.5,Win32,60,z,1,1.52942,,,,,,,,1.52942,1,,,,,,322,NW,"ID",33,slanch,SLANCH,z,,,,,,0.107421875,-0.393554688,0,0,0,,0,292,292,261,1,,
,,,,,,,,,,,,,,,,,,5f522c40069004482b3af322,2020-11-27_15h09.29.123,lexical_decision_task_MP_exp2,2020.2.5,Win32,60,z,0,1.083505,,,,,,,,1.083505,0,,,,,,216,WORD,UN,33,liquor,BEHALF,m,,,,,,0.107421875,-0.393554688,0,0,0,,0,293,293,155,1,,
,,,,,,,,,,,,,,,,,,5f522c40069004482b3af322,2020-11-27_15h09.29.123,lexical_decision_task_MP_exp2,2020.2.5,Win32,60,m,1,0.78113,,,,,,,,0.78113,1,,,,,,7,WORD,UN,16,abrupt,ANCHOR,m,,,,,,0.107421875,-0.393554688,0,0,0,,0,294,294,186,1,,
,,,,,,,,,,,,,,,,,,5f522c40069004482b3af322,2020-11-27_15h09.29.123,lexical_decision_task_MP_exp2,2020.2.5,Win32,60,z,1,1.326895,,,,,,,,1.326895,1,,,,,,425,NW,UN,33,urivel,FRUDGE,z,,,,,,0.107421875,-0.393554688,0,0,0,,0,295,295,364,1,,
,,,,,,,,,,,,,,,,,,5f522c40069004482b3af322,2020-11-27_15h09.29.123,lexical_decision_task_MP_exp2,2020.2.5,Win32,60,z,1,1.2199,,,,,,,,1.2199,1,,,,,,453,NW,UN,33,scouge,BOLVIS,z,,,,,,0.107421875,-0.393554688,0,0,0,,0,296,296,392,1,,
,,,,,,,,,,,,,,,,,,5f522c40069004482b3af322,2020-11-27_15h09.29.123,lexical_decision_task_MP_exp2,2020.2.5,Win32,60,z,1,1.02104,,,,,,,,1.02104,1,,,,,,452,NW,UN,33,bolvis,SURDEN,z,,,,,,0.107421875,-0.393554688,0,0,0,,0,297,297,391,1,,
,,,,,,,,,,,,,,,,,,5f522c40069004482b3af322,2020-11-27_15h09.29.123,lexical_decision_task_MP_exp2,2020.2.5,Win32,60,m,1,1.56717,,,,,,,,1.56717,1,,,,,,79,WORD,"ID",33,theory,THEORY,m,,,,,,0.107421875,-0.393554688,0,0,0,,0,298,298,18,1,,
,,,,,,,,,,,,,,,,,,5f522c40069004482b3af322,2020-11-27_15h09.29.123,lexical_decision_task_MP_exp2,2020.2.5,Win32,60,m,1,1.01834,,,,,,,,1.01834,1,,,,,,94,WORD,"ID",33,travel,TRAVEL,m,,,,,,0.107421875,-0.393554688,0,0,0,,0,299,299,33,1,,
,,,,,,,,,,,,,,,,,,5f522c40069004482b3af322,2020-11-27_15h09.29.123,lexical_decision_task_MP_exp2,2020.2.5,Win32,60,z,1,1.27398,,,,,,,,1.27398,1,,,,,,382,NW,"ID",16,sarley,SARLEY,z,,,,,,0.107421875,-0.393554688,0,0,0,,0,300,300,321,1,,
,,,,,,,,,,,,,,,,,,5f522c40069004482b3af322,2020-11-27_15h09.29.123,lexical_decision_task_MP_exp2,2020.2.5,Win32,60,z,1,1.215215,,,,,,,,1.215215,1,,,,,,463,NW,UN,33,chaite,KISPEL,z,,,,,,0.107421875,-0.393554688,0,0,0,,0,301,301,402,1,,
,,,,,,,,,,,,,,,,,,5f522c40069004482b3af322,2020-11-27_15h09.29.123,lexical_decision_task_MP_exp2,2020.2.5,Win32,60,z,0,1.54909,,,,,,,,1.54909,0,,,,,,114,WORD,"ID",33,placid,PLACID,m,,,,,,0.107421875,-0.393554688,0,0,0,,0,302,302,53,1,,
,,,,,,,,,,,,,,,,,,5f522c40069004482b3af322,2020-11-27_15h09.29.123,lexical_decision_task_MP_exp2,2020.2.5,Win32,60,,0,,,,,,,,,1.54909,-1,,,,,,223,WORD,UN,33,period,KIDNEY,m,,,,,,0.107421875,-0.393554688,0,0,0,,0,303,303,162,1,,
,,,,,,,,,,,,,,,,,,5f522c40069004482b3af322,2020-11-27_15h09.29.123,lexical_decision_task_MP_exp2,2020.2.5,Win32,60,z,1,1.18186,,,,,,,,1.18186,1,,,,,,446,NW,UN,33,gircue,RUNAMO,z,,,,,,0.107421875,-0.393554688,0,0,0,,0,304,304,385,1,,
,,,,,,,,,,,,,,,,,,5f522c40069004482b3af322,2020-11-27_15h09.29.123,lexical_decision_task_MP_exp2,2020.2.5,Win32,60,z,1,1.03265,,,,,,,,1.03265,1,,,,,,355,NW,"ID",33,zingly,ZINGLY,z,,,,,,0.107421875,-0.393554688,0,0,0,,0,305,305,294,1,,
,,,,,,,,,,,,,,,,,,5f522c40069004482b3af322,2020-11-27_15h09.29.123,lexical_decision_task_MP_exp2,2020.2.5,Win32,60,z,1,1.369735,,,,,,,,1.369735,1,,,,,,368,NW,"ID",16,hornal,HORNAL,z,,,,,,0.107421875,-0.393554688,0,0,0,,0,306,306,307,1,,
,,,,,,,,,,,,,,,,,,5f522c40069004482b3af322,2020-11-27_15h09.29.123,lexical_decision_task_MP_exp2,2020.2.5,Win32,60,m,1,1.21529,,,,,,,,1.21529,1,,,,,,204,WORD,UN,33,lounge,BURDEN,m,,,,,,0.107421875,-0.393554688,0,0,0,,0,307,307,143,1,,
,,,,,,,,,,,,,,,,,,5f522c40069004482b3af322,2020-11-27_15h09.29.123,lexical_decision_task_MP_exp2,2020.2.5,Win32,60,m,1,1.096515,,,,,,,,1.096515,1,,,,,,62,WORD,"ID",33,region,REGION,m,,,,,,0.107421875,-0.393554688,0,0,0,,0,308,308,1,1,,
,,,,,,,,,,,,,,,,,,5f522c40069004482b3af322,2020-11-27_15h09.29.123,lexical_decision_task_MP_exp2,2020.2.5,Win32,60,m,1,0.97227,,,,,,,,0.97227,1,,,,,,27,WORD,UN,16,comedy,SCREAM,m,,,,,,0.107421875,-0.393554688,0,0,0,,0,309,309,206,1,,
,,,,,,,,,,,,,,,,,,5f522c40069004482b3af322,2020-11-27_15h09.29.123,lexical_decision_task_MP_exp2,2020.2.5,Win32,60,m,1,0.825555,,,,,,,,0.825555,1,,,,,,130,WORD,"ID",16,stupid,STUPID,m,,,,,,0.107421875,-0.393554688,0,0,0,,0,310,310,69,1,,
,,,,,,,,,,,,,,,,,,5f522c40069004482b3af322,2020-11-27_15h09.29.123,lexical_decision_task_MP_exp2,2020.2.5,Win32,60,z,1,1.412985,,,,,,,,1.412985,1,,,,,,384,NW,"ID",16,guesco,GUESCO,z,,,,,,0.107421875,-0.393554688,0,0,0,,0,311,311,323,1,,
,,,,,,,,,,,,,,,,,,5f522c40069004482b3af322,2020-11-27_15h09.29.123,lexical_decision_task_MP_exp2,2020.2.5,Win32,60,m,1,1.201295,,,,,,,,1.201295,1,,,,,,3,WORD,UN,16,trench,KNIGHT,m,,,,,,0.107421875,-0.393554688,0,0,0,,0,312,312,182,1,,
,,,,,,,,,,,,,,,,,,5f522c40069004482b3af322,2020-11-27_15h09.29.123,lexical_decision_task_MP_exp2,2020.2.5,Win32,60,z,1,1.484635,,,,,,,,1.484635,1,,,,,,418,NW,"ID",16,suidle,SUIDLE,z,,,,,,0.107421875,-0.393554688,0,0,0,,0,313,313,357,1,,
,,,,,,,,,,,,,,,,,,5f522c40069004482b3af322,2020-11-27_15h09.29.123,lexical_decision_task_MP_exp2,2020.2.5,Win32,60,z,1,1.34813,,,,,,,,1.34813,1,,,,,,305,NW,"ID",33,forgle,FORGLE,z,,,,,,0.107421875,-0.393554688,0,0,0,,0,314,314,244,1,,
,,,,,,,,,,,,,,,,,,5f522c40069004482b3af322,2020-11-27_15h09.29.123,lexical_decision_task_MP_exp2,2020.2.5,Win32,60,m,1,1.016465,,,,,,,,1.016465,1,,,,,,186,WORD,UN,33,course,PORTAL,m,,,,,,0.107421875,-0.393554688,0,0,0,,0,315,315,125,1,,
,,,,,,,,,,,,,,,,,,5f522c40069004482b3af322,2020-11-27_15h09.29.123,lexical_decision_task_MP_exp2,2020.2.5,Win32,60,m,1,1.09087,,,,,,,,1.09087,1,,,,,,194,WORD,UN,33,resign,ABSENT,m,,,,,,0.107421875,-0.393554688,0,0,0,,0,316,316,133,1,,
,,,,,,,,,,,,,,,,,,5f522c40069004482b3af322,2020-11-27_15h09.29.123,lexical_decision_task_MP_exp2,2020.2.5,Win32,60,m,1,1.13583,,,,,,,,1.13583,1,,,,,,48,WORD,UN,16,survey,WALNUT,m,,,,,,0.107421875,-0.393554688,0,0,0,,0,317,317,227,1,,
,,,,,,,,,,,,,,,,,,5f522c40069004482b3af322,2020-11-27_15h09.29.123,lexical_decision_task_MP_exp2,2020.2.5,Win32,60,m,1,0.89876,,,,,,,,0.89876,1,,,,,,183,WORD,UN,33,sleazy,MILDEW,m,,,,,,0.107421875,-0.393554688,0,0,0,,0,318,318,122,1,,
,,,,,,,,,,,,,,,,,,5f522c40069004482b3af322,2020-11-27_15h09.29.123,lexical_decision_task_MP_exp2,2020.2.5,Win32,60,z,1,1.873195,,,,,,,,1.873195,1,,,,,,413,NW,"ID",16,equats,EQUATS,z,,,,,,0.107421875,-0.393554688,0,0,0,,0,319,319,352,1,,
,,,,,,,,,,,,,,,,,,5f522c40069004482b3af322,2020-11-27_15h09.29.123,lexical_decision_task_MP_exp2,2020.2.5,Win32,60,m,1,0.99381,,,,,,,,0.99381,1,,,,,,138,WORD,"ID",16,melody,MELODY,m,,,,,,0.107421875,-0.393554688,0,0,0,,0,320,320,77,1,,
,,,,,,,,,,,,,,,,,,5f522c40069004482b3af322,2020-11-27_15h09.29.123,lexical_decision_task_MP_exp2,2020.2.5,Win32,60,m,1,1.099785,,,,,,,,1.099785,1,,,,,,54,WORD,UN,16,stroke,RAMBLE,m,,,,,,0.107421875,-0.393554688,0,0,0,,0,321,321,233,1,,
,,,,,,,,,,,,,,,,,,5f522c40069004482b3af322,2020-11-27_15h09.29.123,lexical_decision_task_MP_exp2,2020.2.5,Win32,60,m,1,1.081235,,,,,,,,1.081235,1,,,,,,52,WORD,UN,16,police,IMPOSE,m,,,,,,0.107421875,-0.393554688,0,0,0,,0,322,322,231,1,,
,,,,,,,,,,,,,,,,,,5f522c40069004482b3af322,2020-11-27_15h09.29.123,lexical_decision_task_MP_exp2,2020.2.5,Win32,60,z,1,1.548925,,,,,,,,1.548925,1,,,,,,471,NW,UN,33,cigney,NOBEST,z,,,,,,0.107421875,-0.393554688,0,0,0,,0,323,323,410,1,,
,,,,,,,,,,,,,,,,,,5f522c40069004482b3af322,2020-11-27_15h09.29.123,lexical_decision_task_MP_exp2,2020.2.5,Win32,60,z,1,1.30516,,,,,,,,1.30516,1,,,,,,254,NW,UN,16,apight,VAROSH,z,,,,,,0.107421875,-0.393554688,0,0,0,,0,324,324,433,1,,
,,,,,,,,,,,,,,,,,,5f522c40069004482b3af322,2020-11-27_15h09.29.123,lexical_decision_task_MP_exp2,2020.2.5,Win32,60,z,1,1.36496,,,,,,,,1.36496,1,,,,,,387,NW,"ID",16,gronce,GRONCE,z,,,,,,0.107421875,-0.393554688,0,0,0,,0,325,325,326,1,,
,,,,,,,,,,,,,,,,,,5f522c40069004482b3af322,2020-11-27_15h09.29.123,lexical_decision_task_MP_exp2,2020.2.5,Win32,60,z,1,0.9589,,,,,,,,0.9589,1,,,,,,401,NW,"ID",16,mustil,MUSTIL,z,,,,,,0.107421875,-0.393554688,0,0,0,,0,326,326,340,1,,
,,,,,,,,,,,,,,,,,,5f522c40069004482b3af322,2020-11-27_15h09.29.123,lexical_decision_task_MP_exp2,2020.2.5,Win32,60,m,1,0.931545,,,,,,,,0.931545,1,,,,,,127,WORD,"ID",16,castle,CASTLE,m,,,,,,0.107421875,-0.393554688,0,0,0,,0,327,327,66,1,,
,,,,,,,,,,,,,,,,,,5f522c40069004482b3af322,2020-11-27_15h09.29.123,lexical_decision_task_MP_exp2,2020.2.5,Win32,60,z,1,1.065335,,,,,,,,1.065335,1,,,,,,266,NW,UN,16,pasink,VARMIT,z,,,,,,0.107421875,-0.393554688,0,0,0,,0,328,328,445,1,,
,,,,,,,,,,,,,,,,,,5f522c40069004482b3af322,2020-11-27_15h09.29.123,lexical_decision_task_MP_exp2,2020.2.5,Win32,60,m,1,1.023665,,,,,,,,1.023665,1,,,,,,71,WORD,"ID",33,garden,GARDEN,m,,,,,,0.107421875,-0.393554688,0,0,0,,0,329,329,10,1,,
,,,,,,,,,,,,,,,,,,5f522c40069004482b3af322,2020-11-27_15h09.29.123,lexical_decision_task_MP_exp2,2020.2.5,Win32,60,m,0,1.148605,,,,,,,,1.148605,0,,,,,,277,NW,UN,16,unighs,PETAIN,z,,,,,,0.107421875,-0.393554688,0,0,0,,0,330,330,456,1,,
,,,,,,,,,,,,,,,,,,5f522c40069004482b3af322,2020-11-27_15h09.29.123,lexical_decision_task_MP_exp2,2020.2.5,Win32,60,m,1,0.90079,,,,,,,,0.90079,1,,,,,,177,WORD,"ID",16,advent,ADVENT,m,,,,,,0.107421875,-0.393554688,0,0,0,,0,331,331,116,1,,
,,,,,,,,,,,,,,,,,,5f522c40069004482b3af322,2020-11-27_15h09.29.123,lexical_decision_task_MP_exp2,2020.2.5,Win32,60,z,1,1.2473,,,,,,,,1.2473,1,,,,,,251,NW,UN,16,stapod,LUPICT,z,,,,,,0.107421875,-0.393554688,0,0,0,,0,332,332,430,1,,
,,,,,,,,,,,,,,,,,,5f522c40069004482b3af322,2020-11-27_15h09.29.123,lexical_decision_task_MP_exp2,2020.2.5,Win32,60,m,1,1.55482,,,,,,,,1.55482,1,,,,,,89,WORD,"ID",33,permit,PERMIT,m,,,,,,0.107421875,-0.393554688,0,0,0,,0,333,333,28,1,,
,,,,,,,,,,,,,,,,,,5f522c40069004482b3af322,2020-11-27_15h09.29.123,lexical_decision_task_MP_exp2,2020.2.5,Win32,60,z,1,1.33813,,,,,,,,1.33813,1,,,,,,296,NW,UN,16,fertic,BEINCH,z,,,,,,0.107421875,-0.393554688,0,0,0,,0,334,334,475,1,,
,,,,,,,,,,,,,,,,,,5f522c40069004482b3af322,2020-11-27_15h09.29.123,lexical_decision_task_MP_exp2,2020.2.5,Win32,60,z,1,1.3978,,,,,,,,1.3978,1,,,,,,390,NW,"ID",16,hatrus,HATRUS,z,,,,,,0.107421875,-0.393554688,0,0,0,,0,335,335,329,1,,
,,,,,,,,,,,,,,,,,,5f522c40069004482b3af322,2020-11-27_15h09.29.123,lexical_decision_task_MP_exp2,2020.2.5,Win32,60,m,1,0.733095,,,,,,,,0.733095,1,,,,,,84,WORD,"ID",33,mortal,MORTAL,m,,,,,,0.107421875,-0.393554688,0,0,0,,0,336,336,23,1,,
,,,,,,,,,,,,,,,,,,5f522c40069004482b3af322,2020-11-27_15h09.29.123,lexical_decision_task_MP_exp2,2020.2.5,Win32,60,m,1,0.684025,,,,,,,,0.684025,1,,,,,,219,WORD,UN,33,voyage,BUCKET,m,,,,,,0.107421875,-0.393554688,0,0,0,,0,337,337,158,1,,
,,,,,,,,,,,,,,,,,,5f522c40069004482b3af322,2020-11-27_15h09.29.123,lexical_decision_task_MP_exp2,2020.2.5,Win32,60,m,1,0.76569,,,,,,,,0.76569,1,,,,,,61,WORD,"ID",33,ponder,PONDER,m,,,,,,0.107421875,-0.393554688,0,0,0,,0,338,338,0,1,,
,,,,,,,,,,,,,,,,,,5f522c40069004482b3af322,2020-11-27_15h09.29.123,lexical_decision_task_MP_exp2,2020.2.5,Win32,60,z,1,1.565935,,,,,,,,1.565935,1,,,,,,400,NW,"ID",16,wearox,WEAROX,z,,,,,,0.107421875,-0.393554688,0,0,0,,0,339,339,339,1,,
,,,,,,,,,,,,,,,,,,5f522c40069004482b3af322,2020-11-27_15h09.29.123,lexical_decision_task_MP_exp2,2020.2.5,Win32,60,m,1,0.715805,,,,,,,,0.715805,1,,,,,,168,WORD,"ID",16,answer,ANSWER,m,,,,,,0.107421875,-0.393554688,0,0,0,,0,340,340,107,1,,
,,,,,,,,,,,,,,,,,,5f522c40069004482b3af322,2020-11-27_15h09.29.123,lexical_decision_task_MP_exp2,2020.2.5,Win32,60,z,1,1.83313,,,,,,,,1.83313,1,,,,,,259,NW,UN,16,unject,SOUDAL,z,,,,,,0.107421875,-0.393554688,0,0,0,,0,341,341,438,1,,
,,,,,,,,,,,,,,,,,,5f522c40069004482b3af322,2020-11-27_15h09.29.123,lexical_decision_task_MP_exp2,2020.2.5,Win32,60,z,1,1.516505,,,,,,,,1.516505,1,,,,,,470,NW,UN,33,nobest,CRUDIO,z,,,,,,0.107421875,-0.393554688,0,0,0,,0,342,342,409,1,,
,,,,,,,,,,,,,,,,,,5f522c40069004482b3af322,2020-11-27_15h09.29.123,lexical_decision_task_MP_exp2,2020.2.5,Win32,60,z,1,1.821925,,,,,,,,1.821925,1,,,,,,477,NW,UN,33,lobush,PHOTIE,z,,,,,,0.107421875,-0.393554688,0,0,0,,0,343,343,416,1,,
,,,,,,,,,,,,,,,,,,5f522c40069004482b3af322,2020-11-27_15h09.29.123,lexical_decision_task_MP_exp2,2020.2.5,Win32,60,m,1,1.49905,,,,,,,,1.49905,1,,,,,,133,WORD,"ID",16,chrome,CHROME,m,,,,,,0.107421875,-0.393554688,0,0,0,,0,344,344,72,1,,
,,,,,,,,,,,,,,,,,,5f522c40069004482b3af322,2020-11-27_15h09.29.123,lexical_decision_task_MP_exp2,2020.2.5,Win32,60,z,1,1.6821,,,,,,,,1.6821,1,,,,,,391,NW,"ID",16,theldy,THELDY,z,,,,,,0.107421875,-0.393554688,0,0,0,,0,345,345,330,1,,
,,,,,,,,,,,,,,,,,,5f522c40069004482b3af322,2020-11-27_15h09.29.123,lexical_decision_task_MP_exp2,2020.2.5,Win32,60,m,0,1.924045,,,,,,,,1.924045,0,,,,,,313,NW,"ID",33,paurse,PAURSE,z,,,,,,0.107421875,-0.393554688,0,0,0,,0,346,346,252,1,,
,,,,,,,,,,,,,,,,,,5f522c40069004482b3af322,2020-11-27_15h09.29.123,lexical_decision_task_MP_exp2,2020.2.5,Win32,60,,0,,,,,,,,,1.924045,-1,,,,,,433,NW,UN,33,pitrom,DRANCE,z,,,,,,0.107421875,-0.393554688,0,0,0,,0,347,347,372,1,,
,,,,,,,,,,,,,,,,,,5f522c40069004482b3af322,2020-11-27_15h09.29.123,lexical_decision_task_MP_exp2,2020.2.5,Win32,60,z,1,1.48473,,,,,,,,1.48473,1,,,,,,358,NW,"ID",33,fleack,FLEACK,z,,,,,,0.107421875,-0.393554688,0,0,0,,0,348,348,297,1,,
,,,,,,,,,,,,,,,,,,5f522c40069004482b3af322,2020-11-27_15h09.29.123,lexical_decision_task_MP_exp2,2020.2.5,Win32,60,m,1,1.502935,,,,,,,,1.502935,1,,,,,,206,WORD,UN,33,wreath,TAILOR,m,,,,,,0.107421875,-0.393554688,0,0,0,,0,349,349,145,1,,
,,,,,,,,,,,,,,,,,,5f522c40069004482b3af322,2020-11-27_15h09.29.123,lexical_decision_task_MP_exp2,2020.2.5,Win32,60,z,1,1.82325,,,,,,,,1.82325,1,,,,,,467,NW,UN,33,wictor,GORBIE,z,,,,,,0.107421875,-0.393554688,0,0,0,,0,350,350,406,1,,
,,,,,,,,,,,,,,,,,,5f522c40069004482b3af322,2020-11-27_15h09.29.123,lexical_decision_task_MP_exp2,2020.2.5,Win32,60,z,1,1.253745,,,,,,,,1.253745,1,,,,,,417,NW,"ID",16,earoud,EAROUD,z,,,,,,0.107421875,-0.393554688,0,0,0,,0,351,351,356,1,,
,,,,,,,,,,,,,,,,,,5f522c40069004482b3af322,2020-11-27_15h09.29.123,lexical_decision_task_MP_exp2,2020.2.5,Win32,60,m,1,1.56418,,,,,,,,1.56418,1,,,,,,222,WORD,UN,33,export,HINDER,m,,,,,,0.107421875,-0.393554688,0,0,0,,0,352,352,161,1,,
,,,,,,,,,,,,,,,,,,5f522c40069004482b3af322,2020-11-27_15h09.29.123,lexical_decision_task_MP_exp2,2020.2.5,Win32,60,m,1,0.70609,,,,,,,,0.70609,1,,,,,,173,WORD,"ID",16,shower,SHOWER,m,,,,,,0.107421875,-0.393554688,0,0,0,,0,353,353,112,1,,
,,,,,,,,,,,,,,,,,,5f522c40069004482b3af322,2020-11-27_15h09.29.123,lexical_decision_task_MP_exp2,2020.2.5,Win32,60,m,1,0.920515,,,,,,,,0.920515,1,,,,,,137,WORD,"ID",16,finger,FINGER,m,,,,,,0.107421875,-0.393554688,0,0,0,,0,354,354,76,1,,
,,,,,,,,,,,,,,,,,,5f522c40069004482b3af322,2020-11-27_15h09.29.123,lexical_decision_task_MP_exp2,2020.2.5,Win32,60,z,0,1.37349,,,,,,,,1.37349,0,,,,,,203,WORD,UN,33,burden,PHRASE,m,,,,,,0.107421875,-0.393554688,0,0,0,,0,355,355,142,1,,
,,,,,,,,,,,,,,,,,,5f522c40069004482b3af322,2020-11-27_15h09.29.123,lexical_decision_task_MP_exp2,2020.2.5,Win32,60,m,1,0.916375,,,,,,,,0.916375,1,,,,,,181,WORD,UN,33,winter,GLANCE,m,,,,,,0.107421875,-0.393554688,0,0,0,,0,356,356,120,1,,
,,,,,,,,,,,,,,,,,,5f522c40069004482b3af322,2020-11-27_15h09.29.123,lexical_decision_task_MP_exp2,2020.2.5,Win32,60,m,1,0.73811,,,,,,,,0.73811,1,,,,,,80,WORD,"ID",33,family,FAMILY,m,,,,,,0.107421875,-0.393554688,0,0,0,,0,357,357,19,1,,
,,,,,,,,,,,,,,,,,,5f522c40069004482b3af322,2020-11-27_15h09.29.123,lexical_decision_task_MP_exp2,2020.2.5,Win32,60,m,1,1.20342,,,,,,,,1.20342,1,,,,,,86,WORD,"ID",33,rodent,RODENT,m,,,,,,0.107421875,-0.393554688,0,0,0,,0,358,358,25,1,,
,,,,,,,,,,,,,,,,,,5f522c40069004482b3af322,2020-11-27_15h09.29.123,lexical_decision_task_MP_exp2,2020.2.5,Win32,60,m,1,0.64853,,,,,,,,0.64853,1,,,,,,231,WORD,UN,33,inject,EXPORT,m,,,,,,0.107421875,-0.393554688,0,0,0,,0,359,359,170,1,,
,,,,,,,,,,,,,,,,,,5f522c40069004482b3af322,2020-11-27_15h09.29.123,lexical_decision_task_MP_exp2,2020.2.5,Win32,60,z,1,0.964165,,,,,,,,0.964165,1,,,,,,473,NW,UN,33,hablin,CRIBLE,z,,,,,,0.107421875,-0.393554688,0,0,0,,0,360,360,412,1,,
,,,,,,,,,,,,,,,,,,5f522c40069004482b3af322,2020-11-27_15h09.29.123,lexical_decision_task_MP_exp2,2020.2.5,Win32,60,m,1,0.964455,,,,,,,,0.964455,1,,,,,,161,WORD,"ID",16,pastor,PASTOR,m,,,,,,0.107421875,-0.393554688,0,0,0,,0,361,361,100,1,,
,,,,,,,,,,,,,,,,,,5f522c40069004482b3af322,2020-11-27_15h09.29.123,lexical_decision_task_MP_exp2,2020.2.5,Win32,60,m,1,0.732275,,,,,,,,0.732275,1,,,,,,163,WORD,"ID",16,string,STRING,m,,,,,,0.087890625,-0.430664063,1,0,0,,0,362,362,102,1,,break_done_button
,,,,,,,,,,,,,,,,,,5f522c40069004482b3af322,2020-11-27_15h09.29.123,lexical_decision_task_MP_exp2,2020.2.5,Win32,60,z,0,0.9684,,,,,,,,0.9684,0,,,,,,184,WORD,UN,33,bother,SLEAZY,m,,,,,,0.087890625,-0.430664063,0,0,0,,0,363,363,123,1,,
,,,,,,,,,,,,,,,,,,5f522c40069004482b3af322,2020-11-27_15h09.29.123,lexical_decision_task_MP_exp2,2020.2.5,Win32,60,z,1,1.637,,,,,,,,1.637,1,,,,,,472,NW,UN,33,gorbie,CIGNEY,z,,,,,,0.087890625,-0.430664063,0,0,0,,0,364,364,411,1,,
,,,,,,,,,,,,,,,,,,5f522c40069004482b3af322,2020-11-27_15h09.29.123,lexical_decision_task_MP_exp2,2020.2.5,Win32,60,m,1,0.70092,,,,,,,,0.70092,1,,,,,,132,WORD,"ID",16,strong,STRONG,m,,,,,,0.087890625,-0.430664063,0,0,0,,0,365,365,71,1,,
,,,,,,,,,,,,,,,,,,5f522c40069004482b3af322,2020-11-27_15h09.29.123,lexical_decision_task_MP_exp2,2020.2.5,Win32,60,z,1,1.5667,,,,,,,,1.5667,1,,,,,,410,NW,"ID",16,tunory,TUNORY,z,,,,,,0.087890625,-0.430664063,0,0,0,,0,366,366,349,1,,
,,,,,,,,,,,,,,,,,,5f522c40069004482b3af322,2020-11-27_15h09.29.123,lexical_decision_task_MP_exp2,2020.2.5,Win32,60,z,1,1.515135,,,,,,,,1.515135,1,,,,,,284,NW,UN,16,prudge,SHAPLE,z,,,,,,0.087890625,-0.430664063,0,0,0,,0,367,367,463,1,,
,,,,,,,,,,,,,,,,,,5f522c40069004482b3af322,2020-11-27_15h09.29.123,lexical_decision_task_MP_exp2,2020.2.5,Win32,60,m,1,0.84836,,,,,,,,0.84836,1,,,,,,150,WORD,"ID",16,random,RANDOM,m,,,,,,0.087890625,-0.430664063,0,0,0,,0,368,368,89,1,,
,,,,,,,,,,,,,,,,,,5f522c40069004482b3af322,2020-11-27_15h09.29.123,lexical_decision_task_MP_exp2,2020.2.5,Win32,60,z,1,1.24831,,,,,,,,1.24831,1,,,,,,242,NW,UN,16,musied,UNWERT,z,,,,,,0.087890625,-0.430664063,0,0,0,,0,369,369,421,1,,
,,,,,,,,,,,,,,,,,,5f522c40069004482b3af322,2020-11-27_15h09.29.123,lexical_decision_task_MP_exp2,2020.2.5,Win32,60,m,1,1.199355,,,,,,,,1.199355,1,,,,,,180,WORD,"ID",16,silent,SILENT,m,,,,,,0.087890625,-0.430664063,0,0,0,,0,370,370,119,1,,
,,,,,,,,,,,,,,,,,,5f522c40069004482b3af322,2020-11-27_15h09.29.123,lexical_decision_task_MP_exp2,2020.2.5,Win32,60,z,1,1.02499,,,,,,,,1.02499,1,,,,,,414,NW,"ID",16,serbol,SERBOL,z,,,,,,0.087890625,-0.430664063,0,0,0,,0,371,371,353,1,,
,,,,,,,,,,,,,,,,,,5f522c40069004482b3af322,2020-11-27_15h09.29.123,lexical_decision_task_MP_exp2,2020.2.5,Win32,60,m,1,1.264125,,,,,,,,1.264125,1,,,,,,77,WORD,"ID",33,racket,RACKET,m,,,,,,0.087890625,-0.430664063,0,0,0,,0,372,372,16,1,,
,,,,,,,,,,,,,,,,,,5f522c40069004482b3af322,2020-11-27_15h09.29.123,lexical_decision_task_MP_exp2,2020.2.5,Win32,60,z,1,1.18322,,,,,,,,1.18322,1,,,,,,451,NW,UN,33,surden,CAINKY,z,,,,,,0.087890625,-0.430664063,0,0,0,,0,373,373,390,1,,
,,,,,,,,,,,,,,,,,,5f522c40069004482b3af322,2020-11-27_15h09.29.123,lexical_decision_task_MP_exp2,2020.2.5,Win32,60,z,1,1.248835,,,,,,,,1.248835,1,,,,,,302,NW,"ID",33,miluer,MILUER,z,,,,,,0.087890625,-0.430664063,0,0,0,,0,374,374,241,1,,
,,,,,,,,,,,,,,,,,,5f522c40069004482b3af322,2020-11-27_15h09.29.123,lexical_decision_task_MP_exp2,2020.2.5,Win32,60,z,1,1.14815,,,,,,,,1.14815,1,,,,,,279,NW,UN,16,curbol,CELOND,z,,,,,,0.087890625,-0.430664063,0,0,0,,0,375,375,458,1,,
,,,,,,,,,,,,,,,,,,5f522c40069004482b3af322,2020-11-27_15h09.29.123,lexical_decision_task_MP_exp2,2020.2.5,Win32,60,m,1,0.992865,,,,,,,,0.992865,1,,,,,,40,WORD,UN,16,spring,CONVEY,m,,,,,,0.087890625,-0.430664063,0,0,0,,0,376,376,219,1,,
,,,,,,,,,,,,,,,,,,5f522c40069004482b3af322,2020-11-27_15h09.29.123,lexical_decision_task_MP_exp2,2020.2.5,Win32,60,z,1,1.156385,,,,,,,,1.156385,1,,,,,,334,NW,"ID",33,watmeg,WATMEG,z,,,,,,0.087890625,-0.430664063,0,0,0,,0,377,377,273,1,,
,,,,,,,,,,,,,,,,,,5f522c40069004482b3af322,2020-11-27_15h09.29.123,lexical_decision_task_MP_exp2,2020.2.5,Win32,60,m,1,1.12323,,,,,,,,1.12323,1,,,,,,66,WORD,"ID",33,gospel,GOSPEL,m,,,,,,0.087890625,-0.430664063,0,0,0,,0,378,378,5,1,,
,,,,,,,,,,,,,,,,,,5f522c40069004482b3af322,2020-11-27_15h09.29.123,lexical_decision_task_MP_exp2,2020.2.5,Win32,60,z,1,1.540295,,,,,,,,1.540295,1,,,,,,360,NW,"ID",33,desory,DESORY,z,,,,,,0.087890625,-0.430664063,0,0,0,,0,379,379,299,1,,
,,,,,,,,,,,,,,,,,,5f522c40069004482b3af322,2020-11-27_15h09.29.123,lexical_decision_task_MP_exp2,2020.2.5,Win32,60,m,1,1.116625,,,,,,,,1.116625,1,,,,,,118,WORD,"ID",33,flight,FLIGHT,m,,,,,,0.087890625,-0.430664063,0,0,0,,0,380,380,57,1,,
,,,,,,,,,,,,,,,,,,5f522c40069004482b3af322,2020-11-27_15h09.29.123,lexical_decision_task_MP_exp2,2020.2.5,Win32,60,z,1,1.16586,,,,,,,,1.16586,1,,,,,,381,NW,"ID",16,huniek,HUNIEK,z,,,,,,0.087890625,-0.430664063,0,0,0,,0,381,381,320,1,,
,,,,,,,,,,,,,,,,,,5f522c40069004482b3af322,2020-11-27_15h09.29.123,lexical_decision_task_MP_exp2,2020.2.5,Win32,60,m,1,1.170975,,,,,,,,1.170975,1,,,,,,56,WORD,UN,16,change,AMBUSH,m,,,,,,0.087890625,-0.430664063,0,0,0,,0,382,382,235,1,,
,,,,,,,,,,,,,,,,,,5f522c40069004482b3af322,2020-11-27_15h09.29.123,lexical_decision_task_MP_exp2,2020.2.5,Win32,60,m,1,0.9651,,,,,,,,0.9651,1,,,,,,171,WORD,"ID",16,depart,DEPART,m,,,,,,0.087890625,-0.430664063,0,0,0,,0,383,383,110,1,,
,,,,,,,,,,,,,,,,,,5f522c40069004482b3af322,2020-11-27_15h09.29.123,lexical_decision_task_MP_exp2,2020.2.5,Win32,60,m,1,0.650145,,,,,,,,0.650145,1,,,,,,76,WORD,"ID",33,exotic,EXOTIC,m,,,,,,0.087890625,-0.430664063,0,0,0,,0,384,384,15,1,,
,,,,,,,,,,,,,,,,,,5f522c40069004482b3af322,2020-11-27_15h09.29.123,lexical_decision_task_MP_exp2,2020.2.5,Win32,60,m,1,1.133,,,,,,,,1.133,1,,,,,,78,WORD,"ID",33,column,COLUMN,m,,,,,,0.087890625,-0.430664063,0,0,0,,0,385,385,17,1,,
,,,,,,,,,,,,,,,,,,5f522c40069004482b3af322,2020-11-27_15h09.29.123,lexical_decision_task_MP_exp2,2020.2.5,Win32,60,z,1,1.68163,,,,,,,,1.68163,1,,,,,,289,NW,UN,16,splino,STARBY,z,,,,,,0.087890625,-0.430664063,0,0,0,,0,386,386,468,1,,
,,,,,,,,,,,,,,,,,,5f522c40069004482b3af322,2020-11-27_15h09.29.123,lexical_decision_task_MP_exp2,2020.2.5,Win32,60,z,1,1.014645,,,,,,,,1.014645,1,,,,,,407,NW,"ID",16,suiver,SUIVER,z,,,,,,0.087890625,-0.430664063,0,0,0,,0,387,387,346,1,,
,,,,,,,,,,,,,,,,,,5f522c40069004482b3af322,2020-11-27_15h09.29.123,lexical_decision_task_MP_exp2,2020.2.5,Win32,60,m,1,1.080055,,,,,,,,1.080055,1,,,,,,69,WORD,"ID",33,plenty,PLENTY,m,,,,,,0.087890625,-0.430664063,0,0,0,,0,388,388,8,1,,
,,,,,,,,,,,,,,,,,,5f522c40069004482b3af322,2020-11-27_15h09.29.123,lexical_decision_task_MP_exp2,2020.2.5,Win32,60,z,1,0.981505,,,,,,,,0.981505,1,,,,,,478,NW,UN,33,pebric,ACRISE,z,,,,,,0.087890625,-0.430664063,0,0,0,,0,389,389,417,1,,
,,,,,,,,,,,,,,,,,,5f522c40069004482b3af322,2020-11-27_15h09.29.123,lexical_decision_task_MP_exp2,2020.2.5,Win32,60,m,1,0.75729,,,,,,,,0.75729,1,,,,,,34,WORD,UN,16,socket,JUNGLE,m,,,,,,0.087890625,-0.430664063,0,0,0,,0,390,390,213,1,,
,,,,,,,,,,,,,,,,,,5f522c40069004482b3af322,2020-11-27_15h09.29.123,lexical_decision_task_MP_exp2,2020.2.5,Win32,60,z,1,1.27333,,,,,,,,1.27333,1,,,,,,386,NW,"ID",16,ancust,ANCUST,z,,,,,,0.087890625,-0.430664063,0,0,0,,0,391,391,325,1,,
,,,,,,,,,,,,,,,,,,5f522c40069004482b3af322,2020-11-27_15h09.29.123,lexical_decision_task_MP_exp2,2020.2.5,Win32,60,m,1,1.384765,,,,,,,,1.384765,1,,,,,,121,WORD,"ID",16,thrive,THRIVE,m,,,,,,0.087890625,-0.430664063,0,0,0,,0,392,392,60,1,,
