counterbalancing_condition,instr_done_keyboard.keys,instr_done_touch.x,instr_done_touch.y,instr_done_touch.leftButton,instr_done_touch.midButton,instr_done_touch.rightButton,instr_done_touch.clicked_name,instruction_pages.thisRepN,instruction_pages.thisTrialN,instruction_pages.thisN,instruction_pages.thisIndex,instruction_pages.ran,pageN,phase,instruct_text,has_image,instruct_image,participant,date,expName,psychopyVersion,OS,frameRate,instr_done_keyboard.rt,response.keys,response.corr,response.rt,touch_resp.x,touch_resp.y,touch_resp.leftButton,touch_resp.midButton,touch_resp.rightButton,touch_resp.time,touch_resp.clicked_name,rt,corr,practice_trials.thisRepN,practice_trials.thisTrialN,practice_trials.thisN,practice_trials.thisIndex,practice_trials.ran,TrialID,StimulusType,Condition,PrimeDuration,Prime,Target,corrAns,end_of_practice_trials_pages.thisRepN,end_of_practice_trials_pages.thisTrialN,end_of_practice_trials_pages.thisN,end_of_practice_trials_pages.thisIndex,end_of_practice_trials_pages.ran,break_done_touch.x,break_done_touch.y,break_done_touch.leftButton,break_done_touch.midButton,break_done_touch.rightButton,break_done_keyboard.keys,experiment_trials.thisRepN,experiment_trials.thisTrialN,experiment_trials.thisN,experiment_trials.thisIndex,experiment_trials.ran,break_done_keyboard.rt
3,,0.103081597,-0.367582465,1,0,0,instr_done_button,0,0,0,0,1,1,instructions,"INSTRUCTIONS
At the start of each trial, look at the hash marks (######) in the center of the screen. After a moment, a string of letters will appear. Your task is to indicate if the letter string forms a word or not (i.e., if it is a nonword). For example, AUTHOR is a word while AUTHON is a nonword.

Press the space bar or touch the button below to continue.",0,,5f6cc9299ff6940d0cce0b79,2020-12-01_16h19.05.916,lexical_decision_task_MP_exp2,2020.2.8,MacIntel,60,,,,,,,,,,,,,,,,,,,,,,,,,,,,,,,,,,,,,,,,,,
,space,0.103081597,-0.367582465,0,0,0,,0,1,1,1,1,2,instructions,"If your device has a keyboard, press the 'Z' key for nonwords and the 'M' key for words.





Press the space bar or touch the button below to continue.",1,keyboard-example.gif,5f6cc9299ff6940d0cce0b79,2020-12-01_16h19.05.916,lexical_decision_task_MP_exp2,2020.2.8,MacIntel,60,10.89045,,,,,,,,,,,,,,,,,,,,,,,,,,,,,,,,,,,,,,,,,
,,0.087178819,-0.394466146,1,0,0,instr_done_button,0,2,2,2,1,3,instructions,"If you are using a touchscreen only device, use the buttons on the screen. Do not use the mouse.





Press the space bar or touch the button below to continue.",1,touchscreen-example.gif,5f6cc9299ff6940d0cce0b79,2020-12-01_16h19.05.916,lexical_decision_task_MP_exp2,2020.2.8,MacIntel,60,,,,,,,,,,,,,,,,,,,,,,,,,,,,,,,,,,,,,,,,,,
,space,0.094309896,-0.388654514,0,0,0,,0,3,3,3,1,4,instructions,"It is very important that you respond as quickly and accurately as possible, as each letter string will only be on the screen for two seconds. If you do not respond within this time, the message 'Too slow!' will be displayed and the experiment will progress to the next letter string. The first 20 trials will be practice trials and you will receive feedback on your answers. 

Press the space bar or touch the button below to start the practice trials.",0,,5f6cc9299ff6940d0cce0b79,2020-12-01_16h19.05.916,lexical_decision_task_MP_exp2,2020.2.8,MacIntel,60,5.646665,,,,,,,,,,,,,,,,,,,,,,,,,,,,,,,,,,,,,,,,,
,,,,,,,,,,,,,,,,,,5f6cc9299ff6940d0cce0b79,2020-12-01_16h19.05.916,lexical_decision_task_MP_exp2,2020.2.8,MacIntel,60,,m,1,1.408465,,,,,,,,1.408465,1,0,0,0,6,1,1007,WORD,UN,16,tropic,ZOMBIE,m,,,,,,,,,,,,,,,,,
,,,,,,,,,,,,,,,,,,5f6cc9299ff6940d0cce0b79,2020-12-01_16h19.05.916,lexical_decision_task_MP_exp2,2020.2.8,MacIntel,60,,m,1,0.60341,,,,,,,,0.60341,1,0,1,1,4,1,1005,WORD,UN,33,abound,SQUEAK,m,,,,,,,,,,,,,,,,,
,,,,,,,,,,,,,,,,,,5f6cc9299ff6940d0cce0b79,2020-12-01_16h19.05.916,lexical_decision_task_MP_exp2,2020.2.8,MacIntel,60,,m,1,0.551005,,,,,,,,0.551005,1,0,2,2,1,1,1002,WORD,"ID",33,adjust,ADJUST,m,,,,,,,,,,,,,,,,,
,,,,,,,,,,,,,,,,,,5f6cc9299ff6940d0cce0b79,2020-12-01_16h19.05.916,lexical_decision_task_MP_exp2,2020.2.8,MacIntel,60,,z,1,0.75878,,,,,,,,0.75878,1,0,3,3,8,1,1009,NW,"ID",33,aslert,ASLERT,z,,,,,,,,,,,,,,,,,
,,,,,,,,,,,,,,,,,,5f6cc9299ff6940d0cce0b79,2020-12-01_16h19.05.916,lexical_decision_task_MP_exp2,2020.2.8,MacIntel,60,,m,1,0.79938,,,,,,,,0.79938,1,0,4,4,0,1,1001,WORD,"ID",33,utopia,UTOPIA,m,,,,,,,,,,,,,,,,,
,,,,,,,,,,,,,,,,,,5f6cc9299ff6940d0cce0b79,2020-12-01_16h19.05.916,lexical_decision_task_MP_exp2,2020.2.8,MacIntel,60,,m,1,0.53885,,,,,,,,0.53885,1,0,5,5,7,1,1008,WORD,UN,16,hurdle,VOLUME,m,,,,,,,,,,,,,,,,,
,,,,,,,,,,,,,,,,,,5f6cc9299ff6940d0cce0b79,2020-12-01_16h19.05.916,lexical_decision_task_MP_exp2,2020.2.8,MacIntel,60,,m,1,0.521095,,,,,,,,0.521095,1,0,6,6,2,1,1003,WORD,"ID",16,almond,ALMOND,m,,,,,,,,,,,,,,,,,
,,,,,,,,,,,,,,,,,,5f6cc9299ff6940d0cce0b79,2020-12-01_16h19.05.916,lexical_decision_task_MP_exp2,2020.2.8,MacIntel,60,,m,1,0.6164,,,,,,,,0.6164,1,0,7,7,3,1,1004,WORD,"ID",16,matrix,MATRIX,m,,,,,,,,,,,,,,,,,
,,,,,,,,,,,,,,,,,,5f6cc9299ff6940d0cce0b79,2020-12-01_16h19.05.916,lexical_decision_task_MP_exp2,2020.2.8,MacIntel,60,,z,1,0.721765,,,,,,,,0.721765,1,0,8,8,15,1,1016,NW,UN,16,mushed,WHAISE,z,,,,,,,,,,,,,,,,,
,,,,,,,,,,,,,,,,,,5f6cc9299ff6940d0cce0b79,2020-12-01_16h19.05.916,lexical_decision_task_MP_exp2,2020.2.8,MacIntel,60,,z,1,0.675085,,,,,,,,0.675085,1,0,9,9,10,1,1011,NW,"ID",16,inlade,INLADE,z,,,,,,,,,,,,,,,,,
,,,,,,,,,,,,,,,,,,5f6cc9299ff6940d0cce0b79,2020-12-01_16h19.05.916,lexical_decision_task_MP_exp2,2020.2.8,MacIntel,60,,z,1,0.69731,,,,,,,,0.69731,1,0,10,10,12,1,1013,NW,UN,33,adveil,SPRINY,z,,,,,,,,,,,,,,,,,
,,,,,,,,,,,,,,,,,,5f6cc9299ff6940d0cce0b79,2020-12-01_16h19.05.916,lexical_decision_task_MP_exp2,2020.2.8,MacIntel,60,,z,1,0.652915,,,,,,,,0.652915,1,0,11,11,14,1,1015,NW,UN,16,miaber,THRALE,z,,,,,,,,,,,,,,,,,
,,,,,,,,,,,,,,,,,,5f6cc9299ff6940d0cce0b79,2020-12-01_16h19.05.916,lexical_decision_task_MP_exp2,2020.2.8,MacIntel,60,,z,1,0.67172,,,,,,,,0.67172,1,0,12,12,11,1,1012,NW,"ID",16,rashet,RASHET,z,,,,,,,,,,,,,,,,,
,,,,,,,,,,,,,,,,,,5f6cc9299ff6940d0cce0b79,2020-12-01_16h19.05.916,lexical_decision_task_MP_exp2,2020.2.8,MacIntel,60,,z,1,0.69219,,,,,,,,0.69219,1,0,13,13,13,1,1014,NW,UN,33,winfer,ROUPET,z,,,,,,,,,,,,,,,,,
,,,,,,,,,,,,,,,,,,5f6cc9299ff6940d0cce0b79,2020-12-01_16h19.05.916,lexical_decision_task_MP_exp2,2020.2.8,MacIntel,60,,m,1,0.556345,,,,,,,,0.556345,1,0,14,14,5,1,1006,WORD,UN,33,frenzy,OBTAIN,m,,,,,,,,,,,,,,,,,
,,,,,,,,,,,,,,,,,,5f6cc9299ff6940d0cce0b79,2020-12-01_16h19.05.916,lexical_decision_task_MP_exp2,2020.2.8,MacIntel,60,,z,1,0.65052,,,,,,,,0.65052,1,0,15,15,9,1,1010,NW,"ID",33,fariny,FARINY,z,,,,,,,,,,,,,,,,,
,space,0.094309896,-0.388654514,0,0,0,,,,,,,1,end_of_practice,"You have completed the practice trials. During the experimental trials, you will not receive feedback, but it is very important that you respond as quickly and accurately as possible. 
Before you begin, please ensure that you are in a comfortable and quiet location and will not be disturbed for about 15 minutes, as we cannot use your data if you do not complete all the trials. 
There will be opportunities to take breaks at regular intervals during the experiment. When you are ready to start the experimental trials, please press space or touch the button below.",,,5f6cc9299ff6940d0cce0b79,2020-12-01_16h19.05.916,lexical_decision_task_MP_exp2,2020.2.8,MacIntel,60,10.503625,,,,,,,,,,,,,,,,,,,,,,,,,0,0,0,0,1,,,,,,,,,,,,
,,,,,,,,,,,,,,,,,,5f6cc9299ff6940d0cce0b79,2020-12-01_16h19.05.916,lexical_decision_task_MP_exp2,2020.2.8,MacIntel,60,,m,1,0.58727,,,,,,,,0.58727,1,,,,,,97,WORD,"ID",33,client,CLIENT,m,,,,,,0.094309896,-0.388654514,0,0,0,,0,0,0,36,1,
,,,,,,,,,,,,,,,,,,5f6cc9299ff6940d0cce0b79,2020-12-01_16h19.05.916,lexical_decision_task_MP_exp2,2020.2.8,MacIntel,60,,m,1,0.46831,,,,,,,,0.46831,1,,,,,,199,WORD,UN,33,plague,INVOKE,m,,,,,,0.094309896,-0.388654514,0,0,0,,0,1,1,138,1,
,,,,,,,,,,,,,,,,,,5f6cc9299ff6940d0cce0b79,2020-12-01_16h19.05.916,lexical_decision_task_MP_exp2,2020.2.8,MacIntel,60,,m,0,0.519295,,,,,,,,0.519295,0,,,,,,362,NW,"ID",16,tireau,TIREAU,z,,,,,,0.094309896,-0.388654514,0,0,0,,0,2,2,301,1,
,,,,,,,,,,,,,,,,,,5f6cc9299ff6940d0cce0b79,2020-12-01_16h19.05.916,lexical_decision_task_MP_exp2,2020.2.8,MacIntel,60,,z,1,0.68721,,,,,,,,0.68721,1,,,,,,280,NW,UN,16,melaty,CURBOL,z,,,,,,0.094309896,-0.388654514,0,0,0,,0,3,3,459,1,
,,,,,,,,,,,,,,,,,,5f6cc9299ff6940d0cce0b79,2020-12-01_16h19.05.916,lexical_decision_task_MP_exp2,2020.2.8,MacIntel,60,,m,1,0.63547,,,,,,,,0.63547,1,,,,,,218,WORD,UN,33,bucket,SHRINK,m,,,,,,0.094309896,-0.388654514,0,0,0,,0,4,4,157,1,
,,,,,,,,,,,,,,,,,,5f6cc9299ff6940d0cce0b79,2020-12-01_16h19.05.916,lexical_decision_task_MP_exp2,2020.2.8,MacIntel,60,,z,1,0.86298,,,,,,,,0.86298,1,,,,,,260,NW,UN,16,stunch,UNJECT,z,,,,,,0.094309896,-0.388654514,0,0,0,,0,5,5,439,1,
,,,,,,,,,,,,,,,,,,5f6cc9299ff6940d0cce0b79,2020-12-01_16h19.05.916,lexical_decision_task_MP_exp2,2020.2.8,MacIntel,60,,z,1,0.72029,,,,,,,,0.72029,1,,,,,,422,NW,UN,33,streld,ALCOUD,z,,,,,,0.094309896,-0.388654514,0,0,0,,0,6,6,361,1,
,,,,,,,,,,,,,,,,,,5f6cc9299ff6940d0cce0b79,2020-12-01_16h19.05.916,lexical_decision_task_MP_exp2,2020.2.8,MacIntel,60,,m,1,0.570605,,,,,,,,0.570605,1,,,,,,213,WORD,UN,33,intake,SQUEAL,m,,,,,,0.094309896,-0.388654514,0,0,0,,0,7,7,152,1,
,,,,,,,,,,,,,,,,,,5f6cc9299ff6940d0cce0b79,2020-12-01_16h19.05.916,lexical_decision_task_MP_exp2,2020.2.8,MacIntel,60,,m,1,0.60031,,,,,,,,0.60031,1,,,,,,11,WORD,UN,16,amount,CRUISE,m,,,,,,0.094309896,-0.388654514,0,0,0,,0,8,8,190,1,
,,,,,,,,,,,,,,,,,,5f6cc9299ff6940d0cce0b79,2020-12-01_16h19.05.916,lexical_decision_task_MP_exp2,2020.2.8,MacIntel,60,,z,1,0.718755,,,,,,,,0.718755,1,,,,,,458,NW,UN,33,hocite,BARCET,z,,,,,,0.094309896,-0.388654514,0,0,0,,0,9,9,397,1,
,,,,,,,,,,,,,,,,,,5f6cc9299ff6940d0cce0b79,2020-12-01_16h19.05.916,lexical_decision_task_MP_exp2,2020.2.8,MacIntel,60,,m,1,0.513345,,,,,,,,0.513345,1,,,,,,229,WORD,UN,33,fringe,MOTHER,m,,,,,,0.094309896,-0.388654514,0,0,0,,0,10,10,168,1,
,,,,,,,,,,,,,,,,,,5f6cc9299ff6940d0cce0b79,2020-12-01_16h19.05.916,lexical_decision_task_MP_exp2,2020.2.8,MacIntel,60,,m,1,0.58207,,,,,,,,0.58207,1,,,,,,34,WORD,UN,16,socket,JUNGLE,m,,,,,,0.094309896,-0.388654514,0,0,0,,0,11,11,213,1,
,,,,,,,,,,,,,,,,,,5f6cc9299ff6940d0cce0b79,2020-12-01_16h19.05.916,lexical_decision_task_MP_exp2,2020.2.8,MacIntel,60,,z,1,0.68381,,,,,,,,0.68381,1,,,,,,286,NW,UN,16,nymbel,RELDON,z,,,,,,0.094309896,-0.388654514,0,0,0,,0,12,12,465,1,
,,,,,,,,,,,,,,,,,,5f6cc9299ff6940d0cce0b79,2020-12-01_16h19.05.916,lexical_decision_task_MP_exp2,2020.2.8,MacIntel,60,,z,1,0.56488,,,,,,,,0.56488,1,,,,,,349,NW,"ID",33,asylen,ASYLEN,z,,,,,,0.094309896,-0.388654514,0,0,0,,0,13,13,288,1,
,,,,,,,,,,,,,,,,,,5f6cc9299ff6940d0cce0b79,2020-12-01_16h19.05.916,lexical_decision_task_MP_exp2,2020.2.8,MacIntel,60,,z,1,0.59214,,,,,,,,0.59214,1,,,,,,438,NW,UN,33,limpor,BAITCH,z,,,,,,0.094309896,-0.388654514,0,0,0,,0,14,14,377,1,
,,,,,,,,,,,,,,,,,,5f6cc9299ff6940d0cce0b79,2020-12-01_16h19.05.916,lexical_decision_task_MP_exp2,2020.2.8,MacIntel,60,,z,1,0.637985,,,,,,,,0.637985,1,,,,,,341,NW,"ID",33,myrtie,MYRTIE,z,,,,,,0.094309896,-0.388654514,0,0,0,,0,15,15,280,1,
,,,,,,,,,,,,,,,,,,5f6cc9299ff6940d0cce0b79,2020-12-01_16h19.05.916,lexical_decision_task_MP_exp2,2020.2.8,MacIntel,60,,m,1,0.58562,,,,,,,,0.58562,1,,,,,,73,WORD,"ID",33,source,SOURCE,m,,,,,,0.094309896,-0.388654514,0,0,0,,0,16,16,12,1,
,,,,,,,,,,,,,,,,,,5f6cc9299ff6940d0cce0b79,2020-12-01_16h19.05.916,lexical_decision_task_MP_exp2,2020.2.8,MacIntel,60,,z,1,0.786155,,,,,,,,0.786155,1,,,,,,250,NW,UN,16,lupict,MILTED,z,,,,,,0.094309896,-0.388654514,0,0,0,,0,17,17,429,1,
,,,,,,,,,,,,,,,,,,5f6cc9299ff6940d0cce0b79,2020-12-01_16h19.05.916,lexical_decision_task_MP_exp2,2020.2.8,MacIntel,60,,m,1,0.635365,,,,,,,,0.635365,1,,,,,,49,WORD,UN,16,snatch,SURVEY,m,,,,,,0.094309896,-0.388654514,0,0,0,,0,18,18,228,1,
,,,,,,,,,,,,,,,,,,5f6cc9299ff6940d0cce0b79,2020-12-01_16h19.05.916,lexical_decision_task_MP_exp2,2020.2.8,MacIntel,60,,z,0,0.899765,,,,,,,,0.899765,0,,,,,,131,WORD,"ID",16,quench,QUENCH,m,,,,,,0.094309896,-0.388654514,0,0,0,,0,19,19,70,1,
,,,,,,,,,,,,,,,,,,5f6cc9299ff6940d0cce0b79,2020-12-01_16h19.05.916,lexical_decision_task_MP_exp2,2020.2.8,MacIntel,60,,z,1,0.618745,,,,,,,,0.618745,1,,,,,,330,NW,"ID",33,kensom,KENSOM,z,,,,,,0.094309896,-0.388654514,0,0,0,,0,20,20,269,1,
,,,,,,,,,,,,,,,,,,5f6cc9299ff6940d0cce0b79,2020-12-01_16h19.05.916,lexical_decision_task_MP_exp2,2020.2.8,MacIntel,60,,z,1,0.703165,,,,,,,,0.703165,1,,,,,,317,NW,"ID",33,worbal,WORBAL,z,,,,,,0.094309896,-0.388654514,0,0,0,,0,21,21,256,1,
,,,,,,,,,,,,,,,,,,5f6cc9299ff6940d0cce0b79,2020-12-01_16h19.05.916,lexical_decision_task_MP_exp2,2020.2.8,MacIntel,60,,z,1,0.75643,,,,,,,,0.75643,1,,,,,,291,NW,UN,16,ablint,PRETCH,z,,,,,,0.094309896,-0.388654514,0,0,0,,0,22,22,470,1,
,,,,,,,,,,,,,,,,,,5f6cc9299ff6940d0cce0b79,2020-12-01_16h19.05.916,lexical_decision_task_MP_exp2,2020.2.8,MacIntel,60,,m,1,0.600345,,,,,,,,0.600345,1,,,,,,191,WORD,UN,33,beacon,STABLE,m,,,,,,0.094309896,-0.388654514,0,0,0,,0,23,23,130,1,
,,,,,,,,,,,,,,,,,,5f6cc9299ff6940d0cce0b79,2020-12-01_16h19.05.916,lexical_decision_task_MP_exp2,2020.2.8,MacIntel,60,,z,1,0.89196,,,,,,,,0.89196,1,,,,,,379,NW,"ID",16,auting,AUTING,z,,,,,,0.094309896,-0.388654514,0,0,0,,0,24,24,318,1,
,,,,,,,,,,,,,,,,,,5f6cc9299ff6940d0cce0b79,2020-12-01_16h19.05.916,lexical_decision_task_MP_exp2,2020.2.8,MacIntel,60,,z,1,0.804475,,,,,,,,0.804475,1,,,,,,410,NW,"ID",16,tunory,TUNORY,z,,,,,,0.094309896,-0.388654514,0,0,0,,0,25,25,349,1,
,,,,,,,,,,,,,,,,,,5f6cc9299ff6940d0cce0b79,2020-12-01_16h19.05.916,lexical_decision_task_MP_exp2,2020.2.8,MacIntel,60,,m,1,0.524925,,,,,,,,0.524925,1,,,,,,81,WORD,"ID",33,friend,FRIEND,m,,,,,,0.094309896,-0.388654514,0,0,0,,0,26,26,20,1,
,,,,,,,,,,,,,,,,,,5f6cc9299ff6940d0cce0b79,2020-12-01_16h19.05.916,lexical_decision_task_MP_exp2,2020.2.8,MacIntel,60,,m,1,0.60018,,,,,,,,0.60018,1,,,,,,135,WORD,"ID",16,import,IMPORT,m,,,,,,0.094309896,-0.388654514,0,0,0,,0,27,27,74,1,
,,,,,,,,,,,,,,,,,,5f6cc9299ff6940d0cce0b79,2020-12-01_16h19.05.916,lexical_decision_task_MP_exp2,2020.2.8,MacIntel,60,,z,1,0.688335,,,,,,,,0.688335,1,,,,,,275,NW,UN,16,yarmon,SLEIRT,z,,,,,,0.094309896,-0.388654514,0,0,0,,0,28,28,454,1,
,,,,,,,,,,,,,,,,,,5f6cc9299ff6940d0cce0b79,2020-12-01_16h19.05.916,lexical_decision_task_MP_exp2,2020.2.8,MacIntel,60,,z,1,0.530235,,,,,,,,0.530235,1,,,,,,324,NW,"ID",33,steikh,STEIKH,z,,,,,,0.094309896,-0.388654514,0,0,0,,0,29,29,263,1,
,,,,,,,,,,,,,,,,,,5f6cc9299ff6940d0cce0b79,2020-12-01_16h19.05.916,lexical_decision_task_MP_exp2,2020.2.8,MacIntel,60,,m,1,0.55247,,,,,,,,0.55247,1,,,,,,162,WORD,"ID",16,candle,CANDLE,m,,,,,,0.094309896,-0.388654514,0,0,0,,0,30,30,101,1,
,,,,,,,,,,,,,,,,,,5f6cc9299ff6940d0cce0b79,2020-12-01_16h19.05.916,lexical_decision_task_MP_exp2,2020.2.8,MacIntel,60,,m,1,0.67246,,,,,,,,0.67246,1,,,,,,147,WORD,"ID",16,garlic,GARLIC,m,,,,,,0.094309896,-0.388654514,0,0,0,,0,31,31,86,1,
,,,,,,,,,,,,,,,,,,5f6cc9299ff6940d0cce0b79,2020-12-01_16h19.05.916,lexical_decision_task_MP_exp2,2020.2.8,MacIntel,60,,z,1,0.955885,,,,,,,,0.955885,1,,,,,,361,NW,"ID",16,pauche,PAUCHE,z,,,,,,0.094309896,-0.388654514,0,0,0,,0,32,32,300,1,
,,,,,,,,,,,,,,,,,,5f6cc9299ff6940d0cce0b79,2020-12-01_16h19.05.916,lexical_decision_task_MP_exp2,2020.2.8,MacIntel,60,,z,1,0.616085,,,,,,,,0.616085,1,,,,,,405,NW,"ID",16,flumni,FLUMNI,z,,,,,,0.094309896,-0.388654514,0,0,0,,0,33,33,344,1,
,,,,,,,,,,,,,,,,,,5f6cc9299ff6940d0cce0b79,2020-12-01_16h19.05.916,lexical_decision_task_MP_exp2,2020.2.8,MacIntel,60,,z,1,0.666535,,,,,,,,0.666535,1,,,,,,465,NW,UN,33,bafent,WHIVEX,z,,,,,,0.094309896,-0.388654514,0,0,0,,0,34,34,404,1,
,,,,,,,,,,,,,,,,,,5f6cc9299ff6940d0cce0b79,2020-12-01_16h19.05.916,lexical_decision_task_MP_exp2,2020.2.8,MacIntel,60,,z,1,0.702395,,,,,,,,0.702395,1,,,,,,370,NW,"ID",16,sleact,SLEACT,z,,,,,,0.094309896,-0.388654514,0,0,0,,0,35,35,309,1,
,,,,,,,,,,,,,,,,,,5f6cc9299ff6940d0cce0b79,2020-12-01_16h19.05.916,lexical_decision_task_MP_exp2,2020.2.8,MacIntel,60,,m,1,0.5085,,,,,,,,0.5085,1,,,,,,168,WORD,"ID",16,answer,ANSWER,m,,,,,,0.094309896,-0.388654514,0,0,0,,0,36,36,107,1,
,,,,,,,,,,,,,,,,,,5f6cc9299ff6940d0cce0b79,2020-12-01_16h19.05.916,lexical_decision_task_MP_exp2,2020.2.8,MacIntel,60,,z,1,0.697215,,,,,,,,0.697215,1,,,,,,320,NW,"ID",33,jockal,JOCKAL,z,,,,,,0.094309896,-0.388654514,0,0,0,,0,37,37,259,1,
,,,,,,,,,,,,,,,,,,5f6cc9299ff6940d0cce0b79,2020-12-01_16h19.05.916,lexical_decision_task_MP_exp2,2020.2.8,MacIntel,60,,m,1,0.62602,,,,,,,,0.62602,1,,,,,,67,WORD,"ID",33,policy,POLICY,m,,,,,,0.094309896,-0.388654514,0,0,0,,0,38,38,6,1,
,,,,,,,,,,,,,,,,,,5f6cc9299ff6940d0cce0b79,2020-12-01_16h19.05.916,lexical_decision_task_MP_exp2,2020.2.8,MacIntel,60,,m,1,0.6087,,,,,,,,0.6087,1,,,,,,221,WORD,UN,33,hinder,MASCOT,m,,,,,,0.094309896,-0.388654514,0,0,0,,0,39,39,160,1,
,,,,,,,,,,,,,,,,,,5f6cc9299ff6940d0cce0b79,2020-12-01_16h19.05.916,lexical_decision_task_MP_exp2,2020.2.8,MacIntel,60,,z,1,0.65491,,,,,,,,0.65491,1,,,,,,434,NW,UN,33,impurb,PITROM,z,,,,,,0.094309896,-0.388654514,0,0,0,,0,40,40,373,1,
,,,,,,,,,,,,,,,,,,5f6cc9299ff6940d0cce0b79,2020-12-01_16h19.05.916,lexical_decision_task_MP_exp2,2020.2.8,MacIntel,60,,z,1,0.73096,,,,,,,,0.73096,1,,,,,,459,NW,UN,33,mingar,BAFENT,z,,,,,,0.094309896,-0.388654514,0,0,0,,0,41,41,398,1,
,,,,,,,,,,,,,,,,,,5f6cc9299ff6940d0cce0b79,2020-12-01_16h19.05.916,lexical_decision_task_MP_exp2,2020.2.8,MacIntel,60,,m,1,0.688725,,,,,,,,0.688725,1,,,,,,128,WORD,"ID",16,senior,SENIOR,m,,,,,,0.094309896,-0.388654514,0,0,0,,0,42,42,67,1,
,,,,,,,,,,,,,,,,,,5f6cc9299ff6940d0cce0b79,2020-12-01_16h19.05.916,lexical_decision_task_MP_exp2,2020.2.8,MacIntel,60,,m,1,0.63168,,,,,,,,0.63168,1,,,,,,38,WORD,UN,16,insect,POWDER,m,,,,,,0.094309896,-0.388654514,0,0,0,,0,43,43,217,1,
,,,,,,,,,,,,,,,,,,5f6cc9299ff6940d0cce0b79,2020-12-01_16h19.05.916,lexical_decision_task_MP_exp2,2020.2.8,MacIntel,60,,m,1,0.550485,,,,,,,,0.550485,1,,,,,,214,WORD,UN,33,phobia,INTAKE,m,,,,,,0.094309896,-0.388654514,0,0,0,,0,44,44,153,1,
,,,,,,,,,,,,,,,,,,5f6cc9299ff6940d0cce0b79,2020-12-01_16h19.05.916,lexical_decision_task_MP_exp2,2020.2.8,MacIntel,60,,z,1,0.681295,,,,,,,,0.681295,1,,,,,,298,NW,UN,16,sturch,PIERGY,z,,,,,,0.094309896,-0.388654514,0,0,0,,0,45,45,477,1,
,,,,,,,,,,,,,,,,,,5f6cc9299ff6940d0cce0b79,2020-12-01_16h19.05.916,lexical_decision_task_MP_exp2,2020.2.8,MacIntel,60,,m,1,0.68779,,,,,,,,0.68779,1,,,,,,19,WORD,UN,16,breast,PATRON,m,,,,,,0.094309896,-0.388654514,0,0,0,,0,46,46,198,1,
,,,,,,,,,,,,,,,,,,5f6cc9299ff6940d0cce0b79,2020-12-01_16h19.05.916,lexical_decision_task_MP_exp2,2020.2.8,MacIntel,60,,m,1,0.553655,,,,,,,,0.553655,1,,,,,,63,WORD,"ID",33,launch,LAUNCH,m,,,,,,0.094309896,-0.388654514,0,0,0,,0,47,47,2,1,
,,,,,,,,,,,,,,,,,,5f6cc9299ff6940d0cce0b79,2020-12-01_16h19.05.916,lexical_decision_task_MP_exp2,2020.2.8,MacIntel,60,,m,1,0.58035,,,,,,,,0.58035,1,,,,,,9,WORD,UN,16,bridge,HUSTLE,m,,,,,,0.094309896,-0.388654514,0,0,0,,0,48,48,188,1,
,,,,,,,,,,,,,,,,,,5f6cc9299ff6940d0cce0b79,2020-12-01_16h19.05.916,lexical_decision_task_MP_exp2,2020.2.8,MacIntel,60,,m,1,0.517635,,,,,,,,0.517635,1,,,,,,84,WORD,"ID",33,mortal,MORTAL,m,,,,,,0.094309896,-0.388654514,0,0,0,,0,49,49,23,1,
,,,,,,,,,,,,,,,,,,5f6cc9299ff6940d0cce0b79,2020-12-01_16h19.05.916,lexical_decision_task_MP_exp2,2020.2.8,MacIntel,60,,m,1,0.570815,,,,,,,,0.570815,1,,,,,,152,WORD,"ID",16,rocket,ROCKET,m,,,,,,0.094309896,-0.388654514,0,0,0,,0,50,50,91,1,
,,,,,,,,,,,,,,,,,,5f6cc9299ff6940d0cce0b79,2020-12-01_16h19.05.916,lexical_decision_task_MP_exp2,2020.2.8,MacIntel,60,,z,1,0.76074,,,,,,,,0.76074,1,,,,,,253,NW,UN,16,varosh,RESAIT,z,,,,,,0.094309896,-0.388654514,0,0,0,,0,51,51,432,1,
,,,,,,,,,,,,,,,,,,5f6cc9299ff6940d0cce0b79,2020-12-01_16h19.05.916,lexical_decision_task_MP_exp2,2020.2.8,MacIntel,60,,m,1,0.919145,,,,,,,,0.919145,1,,,,,,124,WORD,"ID",16,blouse,BLOUSE,m,,,,,,0.094309896,-0.388654514,0,0,0,,0,52,52,63,1,
,,,,,,,,,,,,,,,,,,5f6cc9299ff6940d0cce0b79,2020-12-01_16h19.05.916,lexical_decision_task_MP_exp2,2020.2.8,MacIntel,60,,z,1,0.552395,,,,,,,,0.552395,1,,,,,,276,NW,UN,16,petain,YARMON,z,,,,,,0.094309896,-0.388654514,0,0,0,,0,53,53,455,1,
,,,,,,,,,,,,,,,,,,5f6cc9299ff6940d0cce0b79,2020-12-01_16h19.05.916,lexical_decision_task_MP_exp2,2020.2.8,MacIntel,60,,z,1,0.57442,,,,,,,,0.57442,1,,,,,,451,NW,UN,33,surden,CAINKY,z,,,,,,0.094309896,-0.388654514,0,0,0,,0,54,54,390,1,
,,,,,,,,,,,,,,,,,,5f6cc9299ff6940d0cce0b79,2020-12-01_16h19.05.916,lexical_decision_task_MP_exp2,2020.2.8,MacIntel,60,,m,0,0.58984,,,,,,,,0.58984,0,,,,,,471,NW,UN,33,cigney,NOBEST,z,,,,,,0.094309896,-0.388654514,0,0,0,,0,55,55,410,1,
,,,,,,,,,,,,,,,,,,5f6cc9299ff6940d0cce0b79,2020-12-01_16h19.05.916,lexical_decision_task_MP_exp2,2020.2.8,MacIntel,60,,m,1,0.639275,,,,,,,,0.639275,1,,,,,,30,WORD,UN,16,weapon,ORIENT,m,,,,,,0.094309896,-0.388654514,0,0,0,,0,56,56,209,1,
,,,,,,,,,,,,,,,,,,5f6cc9299ff6940d0cce0b79,2020-12-01_16h19.05.916,lexical_decision_task_MP_exp2,2020.2.8,MacIntel,60,,m,1,0.650475,,,,,,,,0.650475,1,,,,,,224,WORD,UN,33,vulgar,PERIOD,m,,,,,,0.094309896,-0.388654514,0,0,0,,0,57,57,163,1,
,,,,,,,,,,,,,,,,,,5f6cc9299ff6940d0cce0b79,2020-12-01_16h19.05.916,lexical_decision_task_MP_exp2,2020.2.8,MacIntel,60,,m,1,0.71606,,,,,,,,0.71606,1,,,,,,155,WORD,"ID",16,lizard,LIZARD,m,,,,,,0.094309896,-0.388654514,0,0,0,,0,58,58,94,1,
,,,,,,,,,,,,,,,,,,5f6cc9299ff6940d0cce0b79,2020-12-01_16h19.05.916,lexical_decision_task_MP_exp2,2020.2.8,MacIntel,60,,z,0,0.651055,,,,,,,,0.651055,0,,,,,,86,WORD,"ID",33,rodent,RODENT,m,,,,,,0.094309896,-0.388654514,0,0,0,,0,59,59,25,1,
,,,,,,,,,,,,,,,,,,5f6cc9299ff6940d0cce0b79,2020-12-01_16h19.05.916,lexical_decision_task_MP_exp2,2020.2.8,MacIntel,60,,z,1,0.964375,,,,,,,,0.964375,1,,,,,,263,NW,UN,16,vackel,DOLICA,z,,,,,,0.094309896,-0.388654514,0,0,0,,0,60,60,442,1,
,,,,,,,,,,,,,,,,,,5f6cc9299ff6940d0cce0b79,2020-12-01_16h19.05.916,lexical_decision_task_MP_exp2,2020.2.8,MacIntel,60,,z,1,0.65441,,,,,,,,0.65441,1,,,,,,411,NW,"ID",16,orchin,ORCHIN,z,,,,,,0.094309896,-0.388654514,0,0,0,,0,61,61,350,1,
,,,,,,,,,,,,,,,,,,5f6cc9299ff6940d0cce0b79,2020-12-01_16h19.05.916,lexical_decision_task_MP_exp2,2020.2.8,MacIntel,60,,z,1,0.722235,,,,,,,,0.722235,1,,,,,,311,NW,"ID",33,sproly,SPROLY,z,,,,,,0.094309896,-0.388654514,0,0,0,,0,62,62,250,1,
,,,,,,,,,,,,,,,,,,5f6cc9299ff6940d0cce0b79,2020-12-01_16h19.05.916,lexical_decision_task_MP_exp2,2020.2.8,MacIntel,60,,z,1,0.90088,,,,,,,,0.90088,1,,,,,,372,NW,"ID",16,ramily,RAMILY,z,,,,,,0.094309896,-0.388654514,0,0,0,,0,63,63,311,1,
,,,,,,,,,,,,,,,,,,5f6cc9299ff6940d0cce0b79,2020-12-01_16h19.05.916,lexical_decision_task_MP_exp2,2020.2.8,MacIntel,60,,z,1,0.975725,,,,,,,,0.975725,1,,,,,,268,NW,UN,16,orchet,PACKES,z,,,,,,0.094309896,-0.388654514,0,0,0,,0,64,64,447,1,
,,,,,,,,,,,,,,,,,,5f6cc9299ff6940d0cce0b79,2020-12-01_16h19.05.916,lexical_decision_task_MP_exp2,2020.2.8,MacIntel,60,,m,1,0.98367,,,,,,,,0.98367,1,,,,,,45,WORD,UN,16,single,CLERGY,m,,,,,,0.094309896,-0.388654514,0,0,0,,0,65,65,224,1,
,,,,,,,,,,,,,,,,,,5f6cc9299ff6940d0cce0b79,2020-12-01_16h19.05.916,lexical_decision_task_MP_exp2,2020.2.8,MacIntel,60,,m,1,0.53973,,,,,,,,0.53973,1,,,,,,13,WORD,UN,16,almost,STRIVE,m,,,,,,0.094309896,-0.388654514,0,0,0,,0,66,66,192,1,
,,,,,,,,,,,,,,,,,,5f6cc9299ff6940d0cce0b79,2020-12-01_16h19.05.916,lexical_decision_task_MP_exp2,2020.2.8,MacIntel,60,,z,1,0.58028,,,,,,,,0.58028,1,,,,,,339,NW,"ID",33,fachow,FACHOW,z,,,,,,0.094309896,-0.388654514,0,0,0,,0,67,67,278,1,
,,,,,,,,,,,,,,,,,,5f6cc9299ff6940d0cce0b79,2020-12-01_16h19.05.916,lexical_decision_task_MP_exp2,2020.2.8,MacIntel,60,,z,1,0.66723,,,,,,,,0.66723,1,,,,,,390,NW,"ID",16,hatrus,HATRUS,z,,,,,,0.094309896,-0.388654514,0,0,0,,0,68,68,329,1,
,,,,,,,,,,,,,,,,,,5f6cc9299ff6940d0cce0b79,2020-12-01_16h19.05.916,lexical_decision_task_MP_exp2,2020.2.8,MacIntel,60,,z,1,0.617485,,,,,,,,0.617485,1,,,,,,344,NW,"ID",33,scrily,SCRILY,z,,,,,,0.094309896,-0.388654514,0,0,0,,0,69,69,283,1,
,,,,,,,,,,,,,,,,,,5f6cc9299ff6940d0cce0b79,2020-12-01_16h19.05.916,lexical_decision_task_MP_exp2,2020.2.8,MacIntel,60,,z,1,0.59996,,,,,,,,0.59996,1,,,,,,383,NW,"ID",16,aungre,AUNGRE,z,,,,,,0.094309896,-0.388654514,0,0,0,,0,70,70,322,1,
,,,,,,,,,,,,,,,,,,5f6cc9299ff6940d0cce0b79,2020-12-01_16h19.05.916,lexical_decision_task_MP_exp2,2020.2.8,MacIntel,60,,m,1,0.65299,,,,,,,,0.65299,1,,,,,,113,WORD,"ID",33,chorus,CHORUS,m,,,,,,0.094309896,-0.388654514,0,0,0,,0,71,71,52,1,
,,,,,,,,,,,,,,,,,,5f6cc9299ff6940d0cce0b79,2020-12-01_16h19.05.916,lexical_decision_task_MP_exp2,2020.2.8,MacIntel,60,,m,1,0.63811,,,,,,,,0.63811,1,,,,,,40,WORD,UN,16,spring,CONVEY,m,,,,,,0.094309896,-0.388654514,0,0,0,,0,72,72,219,1,
,,,,,,,,,,,,,,,,,,5f6cc9299ff6940d0cce0b79,2020-12-01_16h19.05.916,lexical_decision_task_MP_exp2,2020.2.8,MacIntel,60,,m,1,0.799165,,,,,,,,0.799165,1,,,,,,85,WORD,"ID",33,sprawl,SPRAWL,m,,,,,,0.094309896,-0.388654514,0,0,0,,0,73,73,24,1,
,,,,,,,,,,,,,,,,,,5f6cc9299ff6940d0cce0b79,2020-12-01_16h19.05.916,lexical_decision_task_MP_exp2,2020.2.8,MacIntel,60,,z,1,0.708495,,,,,,,,0.708495,1,,,,,,259,NW,UN,16,unject,SOUDAL,z,,,,,,0.094309896,-0.388654514,0,0,0,,0,74,74,438,1,
,,,,,,,,,,,,,,,,,,5f6cc9299ff6940d0cce0b79,2020-12-01_16h19.05.916,lexical_decision_task_MP_exp2,2020.2.8,MacIntel,60,,z,1,0.587885,,,,,,,,0.587885,1,,,,,,428,NW,UN,33,funtle,TANDLY,z,,,,,,0.094309896,-0.388654514,0,0,0,,0,75,75,367,1,
,,,,,,,,,,,,,,,,,,5f6cc9299ff6940d0cce0b79,2020-12-01_16h19.05.916,lexical_decision_task_MP_exp2,2020.2.8,MacIntel,60,,z,1,0.66755,,,,,,,,0.66755,1,,,,,,279,NW,UN,16,curbol,CELOND,z,,,,,,0.094309896,-0.388654514,0,0,0,,0,76,76,458,1,
,,,,,,,,,,,,,,,,,,5f6cc9299ff6940d0cce0b79,2020-12-01_16h19.05.916,lexical_decision_task_MP_exp2,2020.2.8,MacIntel,60,,m,1,0.71025,,,,,,,,0.71025,1,,,,,,116,WORD,"ID",33,tumble,TUMBLE,m,,,,,,0.094309896,-0.388654514,0,0,0,,0,77,77,55,1,
,,,,,,,,,,,,,,,,,,5f6cc9299ff6940d0cce0b79,2020-12-01_16h19.05.916,lexical_decision_task_MP_exp2,2020.2.8,MacIntel,60,,z,1,0.70064,,,,,,,,0.70064,1,,,,,,388,NW,"ID",16,cragin,CRAGIN,z,,,,,,0.094309896,-0.388654514,0,0,0,,0,78,78,327,1,
,,,,,,,,,,,,,,,,,,5f6cc9299ff6940d0cce0b79,2020-12-01_16h19.05.916,lexical_decision_task_MP_exp2,2020.2.8,MacIntel,60,,m,1,0.58013,,,,,,,,0.58013,1,,,,,,33,WORD,UN,16,jungle,BUTLER,m,,,,,,0.094309896,-0.388654514,0,0,0,,0,79,79,212,1,
,,,,,,,,,,,,,,,,,,5f6cc9299ff6940d0cce0b79,2020-12-01_16h19.05.916,lexical_decision_task_MP_exp2,2020.2.8,MacIntel,60,,m,1,0.488515,,,,,,,,0.488515,1,,,,,,102,WORD,"ID",33,direct,DIRECT,m,,,,,,0.094309896,-0.388654514,0,0,0,,0,80,80,41,1,
,,,,,,,,,,,,,,,,,,5f6cc9299ff6940d0cce0b79,2020-12-01_16h19.05.916,lexical_decision_task_MP_exp2,2020.2.8,MacIntel,60,,z,1,0.600475,,,,,,,,0.600475,1,,,,,,378,NW,"ID",16,shrile,SHRILE,z,,,,,,0.094309896,-0.388654514,0,0,0,,0,81,81,317,1,
,,,,,,,,,,,,,,,,,,5f6cc9299ff6940d0cce0b79,2020-12-01_16h19.05.916,lexical_decision_task_MP_exp2,2020.2.8,MacIntel,60,,z,1,0.74743,,,,,,,,0.74743,1,,,,,,338,NW,"ID",33,wreash,WREASH,z,,,,,,0.094309896,-0.388654514,0,0,0,,0,82,82,277,1,
,,,,,,,,,,,,,,,,,,5f6cc9299ff6940d0cce0b79,2020-12-01_16h19.05.916,lexical_decision_task_MP_exp2,2020.2.8,MacIntel,60,,m,1,0.601435,,,,,,,,0.601435,1,,,,,,172,WORD,"ID",16,patrol,PATROL,m,,,,,,0.094309896,-0.388654514,0,0,0,,0,83,83,111,1,
,,,,,,,,,,,,,,,,,,5f6cc9299ff6940d0cce0b79,2020-12-01_16h19.05.916,lexical_decision_task_MP_exp2,2020.2.8,MacIntel,60,,z,0,0.73521,,,,,,,,0.73521,0,,,,,,142,WORD,"ID",16,spruce,SPRUCE,m,,,,,,0.094309896,-0.388654514,0,0,0,,0,84,84,81,1,
,,,,,,,,,,,,,,,,,,5f6cc9299ff6940d0cce0b79,2020-12-01_16h19.05.916,lexical_decision_task_MP_exp2,2020.2.8,MacIntel,60,,m,1,0.551,,,,,,,,0.551,1,,,,,,180,WORD,"ID",16,silent,SILENT,m,,,,,,0.094309896,-0.388654514,0,0,0,,0,85,85,119,1,
,,,,,,,,,,,,,,,,,,5f6cc9299ff6940d0cce0b79,2020-12-01_16h19.05.916,lexical_decision_task_MP_exp2,2020.2.8,MacIntel,60,,m,1,0.449495,,,,,,,,0.449495,1,,,,,,60,WORD,UN,16,fright,PENCIL,m,,,,,,0.094309896,-0.388654514,0,0,0,,0,86,86,239,1,
,,,,,,,,,,,,,,,,,,5f6cc9299ff6940d0cce0b79,2020-12-01_16h19.05.916,lexical_decision_task_MP_exp2,2020.2.8,MacIntel,60,,z,1,0.605875,,,,,,,,0.605875,1,,,,,,419,NW,"ID",16,slount,SLOUNT,z,,,,,,0.094309896,-0.388654514,0,0,0,,0,87,87,358,1,
,,,,,,,,,,,,,,,,,,5f6cc9299ff6940d0cce0b79,2020-12-01_16h19.05.916,lexical_decision_task_MP_exp2,2020.2.8,MacIntel,60,,z,1,0.70247,,,,,,,,0.70247,1,,,,,,282,NW,UN,16,veralf,PORLEX,z,,,,,,0.094309896,-0.388654514,0,0,0,,0,88,88,461,1,
,,,,,,,,,,,,,,,,,,5f6cc9299ff6940d0cce0b79,2020-12-01_16h19.05.916,lexical_decision_task_MP_exp2,2020.2.8,MacIntel,60,,z,1,0.535385,,,,,,,,0.535385,1,,,,,,327,NW,"ID",33,plenac,PLENAC,z,,,,,,0.094309896,-0.388654514,0,0,0,,0,89,89,266,1,
,,,,,,,,,,,,,,,,,,5f6cc9299ff6940d0cce0b79,2020-12-01_16h19.05.916,lexical_decision_task_MP_exp2,2020.2.8,MacIntel,60,,z,1,0.61388,,,,,,,,0.61388,1,,,,,,463,NW,UN,33,chaite,KISPEL,z,,,,,,0.094309896,-0.388654514,0,0,0,,0,90,90,402,1,
,,,,,,,,,,,,,,,,,,5f6cc9299ff6940d0cce0b79,2020-12-01_16h19.05.916,lexical_decision_task_MP_exp2,2020.2.8,MacIntel,60,,m,1,0.467545,,,,,,,,0.467545,1,,,,,,182,WORD,UN,33,absent,WINTER,m,,,,,,0.094309896,-0.388654514,0,0,0,,0,91,91,121,1,
,,,,,,,,,,,,,,,,,,5f6cc9299ff6940d0cce0b79,2020-12-01_16h19.05.916,lexical_decision_task_MP_exp2,2020.2.8,MacIntel,60,,m,1,0.46976,,,,,,,,0.46976,1,,,,,,144,WORD,"ID",16,sponge,SPONGE,m,,,,,,0.094309896,-0.388654514,0,0,0,,0,92,92,83,1,
,,,,,,,,,,,,,,,,,,5f6cc9299ff6940d0cce0b79,2020-12-01_16h19.05.916,lexical_decision_task_MP_exp2,2020.2.8,MacIntel,60,,m,1,0.524105,,,,,,,,0.524105,1,,,,,,109,WORD,"ID",33,wonder,WONDER,m,,,,,,0.094309896,-0.388654514,0,0,0,,0,93,93,48,1,
,,,,,,,,,,,,,,,,,,5f6cc9299ff6940d0cce0b79,2020-12-01_16h19.05.916,lexical_decision_task_MP_exp2,2020.2.8,MacIntel,60,,m,1,0.667135,,,,,,,,0.667135,1,,,,,,188,WORD,UN,33,censor,SOCIAL,m,,,,,,0.094309896,-0.388654514,0,0,0,,0,94,94,127,1,
,,,,,,,,,,,,,,,,,,5f6cc9299ff6940d0cce0b79,2020-12-01_16h19.05.916,lexical_decision_task_MP_exp2,2020.2.8,MacIntel,60,,z,1,0.566845,,,,,,,,0.566845,1,,,,,,412,NW,"ID",16,jiluer,JILUER,z,,,,,,0.094309896,-0.388654514,0,0,0,,0,95,95,351,1,
,,,,,,,,,,,,,,,,,,5f6cc9299ff6940d0cce0b79,2020-12-01_16h19.05.916,lexical_decision_task_MP_exp2,2020.2.8,MacIntel,60,,m,1,0.61588,,,,,,,,0.61588,1,,,,,,151,WORD,"ID",16,mystic,MYSTIC,m,,,,,,0.094309896,-0.388654514,0,0,0,,0,96,96,90,1,
,,,,,,,,,,,,,,,,,,5f6cc9299ff6940d0cce0b79,2020-12-01_16h19.05.916,lexical_decision_task_MP_exp2,2020.2.8,MacIntel,60,,z,1,0.750405,,,,,,,,0.750405,1,,,,,,427,NW,UN,33,tandly,SCHIND,z,,,,,,0.094309896,-0.388654514,0,0,0,,0,97,97,366,1,
,,,,,,,,,,,,,,,,,,5f6cc9299ff6940d0cce0b79,2020-12-01_16h19.05.916,lexical_decision_task_MP_exp2,2020.2.8,MacIntel,60,,z,1,0.621605,,,,,,,,0.621605,1,,,,,,444,NW,UN,33,minkel,JAUNCE,z,,,,,,0.094309896,-0.388654514,0,0,0,,0,98,98,383,1,
,,,,,,,,,,,,,,,,,,5f6cc9299ff6940d0cce0b79,2020-12-01_16h19.05.916,lexical_decision_task_MP_exp2,2020.2.8,MacIntel,60,,z,1,0.61614,,,,,,,,0.61614,1,,,,,,340,NW,"ID",33,fiatch,FIATCH,z,,,,,,0.094309896,-0.388654514,0,0,0,,0,99,99,279,1,
,,,,,,,,,,,,,,,,,,5f6cc9299ff6940d0cce0b79,2020-12-01_16h19.05.916,lexical_decision_task_MP_exp2,2020.2.8,MacIntel,60,,m,1,0.583905,,,,,,,,0.583905,1,,,,,,146,WORD,"ID",16,couple,COUPLE,m,,,,,,0.094309896,-0.388654514,0,0,0,,0,100,100,85,1,
,,,,,,,,,,,,,,,,,,5f6cc9299ff6940d0cce0b79,2020-12-01_16h19.05.916,lexical_decision_task_MP_exp2,2020.2.8,MacIntel,60,,m,1,0.48301,,,,,,,,0.48301,1,,,,,,57,WORD,UN,16,danger,CHANGE,m,,,,,,0.094309896,-0.388654514,0,0,0,,0,101,101,236,1,
,,,,,,,,,,,,,,,,,,5f6cc9299ff6940d0cce0b79,2020-12-01_16h19.05.916,lexical_decision_task_MP_exp2,2020.2.8,MacIntel,60,,z,1,0.53371,,,,,,,,0.53371,1,,,,,,426,NW,UN,33,schind,URIVEL,z,,,,,,0.094309896,-0.388654514,0,0,0,,0,102,102,365,1,
,,,,,,,,,,,,,,,,,,5f6cc9299ff6940d0cce0b79,2020-12-01_16h19.05.916,lexical_decision_task_MP_exp2,2020.2.8,MacIntel,60,,m,1,0.68615,,,,,,,,0.68615,1,,,,,,125,WORD,"ID",16,nickel,NICKEL,m,,,,,,0.094309896,-0.388654514,0,0,0,,0,103,103,64,1,
,,,,,,,,,,,,,,,,,,5f6cc9299ff6940d0cce0b79,2020-12-01_16h19.05.916,lexical_decision_task_MP_exp2,2020.2.8,MacIntel,60,,m,1,0.58256,,,,,,,,0.58256,1,,,,,,138,WORD,"ID",16,melody,MELODY,m,,,,,,0.094309896,-0.388654514,0,0,0,,0,104,104,77,1,
,,,,,,,,,,,,,,,,,,5f6cc9299ff6940d0cce0b79,2020-12-01_16h19.05.916,lexical_decision_task_MP_exp2,2020.2.8,MacIntel,60,,m,1,0.488795,,,,,,,,0.488795,1,,,,,,186,WORD,UN,33,course,PORTAL,m,,,,,,0.094309896,-0.388654514,0,0,0,,0,105,105,125,1,
,,,,,,,,,,,,,,,,,,5f6cc9299ff6940d0cce0b79,2020-12-01_16h19.05.916,lexical_decision_task_MP_exp2,2020.2.8,MacIntel,60,,m,1,0.492435,,,,,,,,0.492435,1,,,,,,177,WORD,"ID",16,advent,ADVENT,m,,,,,,0.094309896,-0.388654514,0,0,0,,0,106,106,116,1,
,,,,,,,,,,,,,,,,,,5f6cc9299ff6940d0cce0b79,2020-12-01_16h19.05.916,lexical_decision_task_MP_exp2,2020.2.8,MacIntel,60,,z,1,0.652175,,,,,,,,0.652175,1,,,,,,432,NW,UN,33,drance,LUNKER,z,,,,,,0.094309896,-0.388654514,0,0,0,,0,107,107,371,1,
,,,,,,,,,,,,,,,,,,5f6cc9299ff6940d0cce0b79,2020-12-01_16h19.05.916,lexical_decision_task_MP_exp2,2020.2.8,MacIntel,60,,m,1,0.58365,,,,,,,,0.58365,1,,,,,,18,WORD,UN,16,patron,HUMBLE,m,,,,,,0.094309896,-0.388654514,0,0,0,,0,108,108,197,1,
,,,,,,,,,,,,,,,,,,5f6cc9299ff6940d0cce0b79,2020-12-01_16h19.05.916,lexical_decision_task_MP_exp2,2020.2.8,MacIntel,60,,z,1,0.64172,,,,,,,,0.64172,1,,,,,,429,NW,UN,33,caroey,FUNTLE,z,,,,,,0.094309896,-0.388654514,0,0,0,,0,109,109,368,1,
,,,,,,,,,,,,,,,,,,5f6cc9299ff6940d0cce0b79,2020-12-01_16h19.05.916,lexical_decision_task_MP_exp2,2020.2.8,MacIntel,60,,m,1,0.54173,,,,,,,,0.54173,1,,,,,,44,WORD,UN,16,clergy,DANGER,m,,,,,,0.094309896,-0.388654514,0,0,0,,0,110,110,223,1,
,,,,,,,,,,,,,,,,,,5f6cc9299ff6940d0cce0b79,2020-12-01_16h19.05.916,lexical_decision_task_MP_exp2,2020.2.8,MacIntel,60,,m,1,0.621615,,,,,,,,0.621615,1,,,,,,101,WORD,"ID",33,wrench,WRENCH,m,,,,,,0.094309896,-0.388654514,0,0,0,,0,111,111,40,1,
,,,,,,,,,,,,,,,,,,5f6cc9299ff6940d0cce0b79,2020-12-01_16h19.05.916,lexical_decision_task_MP_exp2,2020.2.8,MacIntel,60,,m,1,0.78661,,,,,,,,0.78661,1,,,,,,36,WORD,UN,16,insult,VANISH,m,,,,,,0.094309896,-0.388654514,0,0,0,,0,112,112,215,1,
,,,,,,,,,,,,,,,,,,5f6cc9299ff6940d0cce0b79,2020-12-01_16h19.05.916,lexical_decision_task_MP_exp2,2020.2.8,MacIntel,60,,z,1,0.65787,,,,,,,,0.65787,1,,,,,,322,NW,"ID",33,slanch,SLANCH,z,,,,,,0.094309896,-0.388654514,0,0,0,,0,113,113,261,1,
,,,,,,,,,,,,,,,,,,5f6cc9299ff6940d0cce0b79,2020-12-01_16h19.05.916,lexical_decision_task_MP_exp2,2020.2.8,MacIntel,60,,m,1,0.536085,,,,,,,,0.536085,1,,,,,,15,WORD,UN,16,faucet,AMOUNT,m,,,,,,0.094309896,-0.388654514,0,0,0,,0,114,114,194,1,
,,,,,,,,,,,,,,,,,,5f6cc9299ff6940d0cce0b79,2020-12-01_16h19.05.916,lexical_decision_task_MP_exp2,2020.2.8,MacIntel,60,,z,1,0.650295,,,,,,,,0.650295,1,,,,,,353,NW,"ID",33,clurey,CLUREY,z,,,,,,0.094309896,-0.388654514,0,0,0,,0,115,115,292,1,
,,,,,,,,,,,,,,,,,,5f6cc9299ff6940d0cce0b79,2020-12-01_16h19.05.916,lexical_decision_task_MP_exp2,2020.2.8,MacIntel,60,,m,1,0.533465,,,,,,,,0.533465,1,,,,,,24,WORD,UN,16,domain,PRAISE,m,,,,,,0.094309896,-0.388654514,0,0,0,,0,116,116,203,1,
,,,,,,,,,,,,,,,,,,5f6cc9299ff6940d0cce0b79,2020-12-01_16h19.05.916,lexical_decision_task_MP_exp2,2020.2.8,MacIntel,60,,m,1,0.51992,,,,,,,,0.51992,1,,,,,,111,WORD,"ID",33,induce,INDUCE,m,,,,,,0.094309896,-0.388654514,0,0,0,,0,117,117,50,1,
,,,,,,,,,,,,,,,,,,5f6cc9299ff6940d0cce0b79,2020-12-01_16h19.05.916,lexical_decision_task_MP_exp2,2020.2.8,MacIntel,60,,m,1,0.47154,,,,,,,,0.47154,1,,,,,,95,WORD,"ID",33,thread,THREAD,m,,,,,,0.094309896,-0.388654514,0,0,0,,0,118,118,34,1,
,,,,,,,,,,,,,,,,,,5f6cc9299ff6940d0cce0b79,2020-12-01_16h19.05.916,lexical_decision_task_MP_exp2,2020.2.8,MacIntel,60,,z,1,0.69227,,,,,,,,0.69227,1,,,,,,307,NW,"ID",33,kirafe,KIRAFE,z,,,,,,0.094309896,-0.388654514,0,0,0,,0,119,119,246,1,
,,,,,,,,,,,,,,,,,,5f6cc9299ff6940d0cce0b79,2020-12-01_16h19.05.916,lexical_decision_task_MP_exp2,2020.2.8,MacIntel,60,,m,0,0.733725,,,,,,,,0.733725,0,,,,,,346,NW,"ID",33,saudic,SAUDIC,z,,,,,,0.094309896,-0.388654514,0,0,0,space,0,120,120,285,1,11.27067
,,,,,,,,,,,,,,,,,,5f6cc9299ff6940d0cce0b79,2020-12-01_16h19.05.916,lexical_decision_task_MP_exp2,2020.2.8,MacIntel,60,,m,1,0.450275,,,,,,,,0.450275,1,,,,,,37,WORD,UN,16,powder,INSULT,m,,,,,,0.094309896,-0.388654514,0,0,0,,0,121,121,216,1,
,,,,,,,,,,,,,,,,,,5f6cc9299ff6940d0cce0b79,2020-12-01_16h19.05.916,lexical_decision_task_MP_exp2,2020.2.8,MacIntel,60,,m,0,0.48896,,,,,,,,0.48896,0,,,,,,277,NW,UN,16,unighs,PETAIN,z,,,,,,0.094309896,-0.388654514,0,0,0,,0,122,122,456,1,
,,,,,,,,,,,,,,,,,,5f6cc9299ff6940d0cce0b79,2020-12-01_16h19.05.916,lexical_decision_task_MP_exp2,2020.2.8,MacIntel,60,,m,0,0.534175,,,,,,,,0.534175,0,,,,,,247,NW,UN,16,strole,BLARGE,z,,,,,,0.094309896,-0.388654514,0,0,0,,0,123,123,426,1,
,,,,,,,,,,,,,,,,,,5f6cc9299ff6940d0cce0b79,2020-12-01_16h19.05.916,lexical_decision_task_MP_exp2,2020.2.8,MacIntel,60,,z,1,0.633545,,,,,,,,0.633545,1,,,,,,305,NW,"ID",33,forgle,FORGLE,z,,,,,,0.094309896,-0.388654514,0,0,0,,0,124,124,244,1,
,,,,,,,,,,,,,,,,,,5f6cc9299ff6940d0cce0b79,2020-12-01_16h19.05.916,lexical_decision_task_MP_exp2,2020.2.8,MacIntel,60,,z,1,0.61959,,,,,,,,0.61959,1,,,,,,261,NW,UN,16,quilew,STUNCH,z,,,,,,0.094309896,-0.388654514,0,0,0,,0,125,125,440,1,
,,,,,,,,,,,,,,,,,,5f6cc9299ff6940d0cce0b79,2020-12-01_16h19.05.916,lexical_decision_task_MP_exp2,2020.2.8,MacIntel,60,,m,1,0.75713,,,,,,,,0.75713,1,,,,,,23,WORD,UN,16,praise,WEALTH,m,,,,,,0.094309896,-0.388654514,0,0,0,,0,126,126,202,1,
,,,,,,,,,,,,,,,,,,5f6cc9299ff6940d0cce0b79,2020-12-01_16h19.05.916,lexical_decision_task_MP_exp2,2020.2.8,MacIntel,60,,m,1,0.550575,,,,,,,,0.550575,1,,,,,,119,WORD,"ID",33,spider,SPIDER,m,,,,,,0.094309896,-0.388654514,0,0,0,,0,127,127,58,1,
,,,,,,,,,,,,,,,,,,5f6cc9299ff6940d0cce0b79,2020-12-01_16h19.05.916,lexical_decision_task_MP_exp2,2020.2.8,MacIntel,60,,z,1,0.55549,,,,,,,,0.55549,1,,,,,,360,NW,"ID",33,desory,DESORY,z,,,,,,0.094309896,-0.388654514,0,0,0,,0,128,128,299,1,
,,,,,,,,,,,,,,,,,,5f6cc9299ff6940d0cce0b79,2020-12-01_16h19.05.916,lexical_decision_task_MP_exp2,2020.2.8,MacIntel,60,,z,0,0.675365,,,,,,,,0.675365,0,,,,,,16,WORD,UN,16,charge,FAUCET,m,,,,,,0.094309896,-0.388654514,0,0,0,,0,129,129,195,1,
,,,,,,,,,,,,,,,,,,5f6cc9299ff6940d0cce0b79,2020-12-01_16h19.05.916,lexical_decision_task_MP_exp2,2020.2.8,MacIntel,60,,m,1,0.467385,,,,,,,,0.467385,1,,,,,,123,WORD,"ID",16,strike,STRIKE,m,,,,,,0.094309896,-0.388654514,0,0,0,,0,130,130,62,1,
,,,,,,,,,,,,,,,,,,5f6cc9299ff6940d0cce0b79,2020-12-01_16h19.05.916,lexical_decision_task_MP_exp2,2020.2.8,MacIntel,60,,z,1,0.605935,,,,,,,,0.605935,1,,,,,,469,NW,UN,33,crudio,PADIFS,z,,,,,,0.094309896,-0.388654514,0,0,0,,0,131,131,408,1,
,,,,,,,,,,,,,,,,,,5f6cc9299ff6940d0cce0b79,2020-12-01_16h19.05.916,lexical_decision_task_MP_exp2,2020.2.8,MacIntel,60,,m,1,0.500175,,,,,,,,0.500175,1,,,,,,233,WORD,UN,33,clumsy,NATURE,m,,,,,,0.094309896,-0.388654514,0,0,0,,0,132,132,172,1,
,,,,,,,,,,,,,,,,,,5f6cc9299ff6940d0cce0b79,2020-12-01_16h19.05.916,lexical_decision_task_MP_exp2,2020.2.8,MacIntel,60,,z,1,0.47562,,,,,,,,0.47562,1,,,,,,347,NW,"ID",33,kerift,KERIFT,z,,,,,,0.094309896,-0.388654514,0,0,0,,0,133,133,286,1,
,,,,,,,,,,,,,,,,,,5f6cc9299ff6940d0cce0b79,2020-12-01_16h19.05.916,lexical_decision_task_MP_exp2,2020.2.8,MacIntel,60,,z,0,0.5559,,,,,,,,0.5559,0,,,,,,222,WORD,UN,33,export,HINDER,m,,,,,,0.094309896,-0.388654514,0,0,0,,0,134,134,161,1,
,,,,,,,,,,,,,,,,,,5f6cc9299ff6940d0cce0b79,2020-12-01_16h19.05.916,lexical_decision_task_MP_exp2,2020.2.8,MacIntel,60,,m,1,0.603735,,,,,,,,0.603735,1,,,,,,140,WORD,"ID",16,prince,PRINCE,m,,,,,,0.094309896,-0.388654514,0,0,0,,0,135,135,79,1,
,,,,,,,,,,,,,,,,,,5f6cc9299ff6940d0cce0b79,2020-12-01_16h19.05.916,lexical_decision_task_MP_exp2,2020.2.8,MacIntel,60,,m,1,0.50067,,,,,,,,0.50067,1,,,,,,96,WORD,"ID",33,ignore,IGNORE,m,,,,,,0.094309896,-0.388654514,0,0,0,,0,136,136,35,1,
,,,,,,,,,,,,,,,,,,5f6cc9299ff6940d0cce0b79,2020-12-01_16h19.05.916,lexical_decision_task_MP_exp2,2020.2.8,MacIntel,60,,m,1,0.607295,,,,,,,,0.607295,1,,,,,,39,WORD,UN,16,convey,INSECT,m,,,,,,0.094309896,-0.388654514,0,0,0,,0,137,137,218,1,
,,,,,,,,,,,,,,,,,,5f6cc9299ff6940d0cce0b79,2020-12-01_16h19.05.916,lexical_decision_task_MP_exp2,2020.2.8,MacIntel,60,,m,1,0.840695,,,,,,,,0.840695,1,,,,,,217,WORD,UN,33,shrink,LIQUOR,m,,,,,,0.094309896,-0.388654514,0,0,0,,0,138,138,156,1,
,,,,,,,,,,,,,,,,,,5f6cc9299ff6940d0cce0b79,2020-12-01_16h19.05.916,lexical_decision_task_MP_exp2,2020.2.8,MacIntel,60,,m,1,0.59951,,,,,,,,0.59951,1,,,,,,91,WORD,"ID",33,expand,EXPAND,m,,,,,,0.094309896,-0.388654514,0,0,0,,0,139,139,30,1,
,,,,,,,,,,,,,,,,,,5f6cc9299ff6940d0cce0b79,2020-12-01_16h19.05.916,lexical_decision_task_MP_exp2,2020.2.8,MacIntel,60,,m,1,0.482905,,,,,,,,0.482905,1,,,,,,202,WORD,UN,33,phrase,FACTOR,m,,,,,,0.094309896,-0.388654514,0,0,0,,0,140,140,141,1,
,,,,,,,,,,,,,,,,,,5f6cc9299ff6940d0cce0b79,2020-12-01_16h19.05.916,lexical_decision_task_MP_exp2,2020.2.8,MacIntel,60,,m,1,0.566455,,,,,,,,0.566455,1,,,,,,136,WORD,"ID",16,bleach,BLEACH,m,,,,,,0.094309896,-0.388654514,0,0,0,,0,141,141,75,1,
,,,,,,,,,,,,,,,,,,5f6cc9299ff6940d0cce0b79,2020-12-01_16h19.05.916,lexical_decision_task_MP_exp2,2020.2.8,MacIntel,60,,z,1,0.64152,,,,,,,,0.64152,1,,,,,,264,NW,UN,16,distar,VACKEL,z,,,,,,0.094309896,-0.388654514,0,0,0,,0,142,142,443,1,
,,,,,,,,,,,,,,,,,,5f6cc9299ff6940d0cce0b79,2020-12-01_16h19.05.916,lexical_decision_task_MP_exp2,2020.2.8,MacIntel,60,,z,1,0.61804,,,,,,,,0.61804,1,,,,,,297,NW,UN,16,piergy,FERTIC,z,,,,,,0.094309896,-0.388654514,0,0,0,,0,143,143,476,1,
,,,,,,,,,,,,,,,,,,5f6cc9299ff6940d0cce0b79,2020-12-01_16h19.05.916,lexical_decision_task_MP_exp2,2020.2.8,MacIntel,60,,z,1,0.60001,,,,,,,,0.60001,1,,,,,,480,NW,UN,33,knisma,ROBULY,z,,,,,,0.094309896,-0.388654514,0,0,0,,0,144,144,419,1,
,,,,,,,,,,,,,,,,,,5f6cc9299ff6940d0cce0b79,2020-12-01_16h19.05.916,lexical_decision_task_MP_exp2,2020.2.8,MacIntel,60,,m,1,0.668485,,,,,,,,0.668485,1,,,,,,35,WORD,UN,16,vanish,SOCKET,m,,,,,,0.094309896,-0.388654514,0,0,0,,0,145,145,214,1,
,,,,,,,,,,,,,,,,,,5f6cc9299ff6940d0cce0b79,2020-12-01_16h19.05.916,lexical_decision_task_MP_exp2,2020.2.8,MacIntel,60,,m,1,0.516965,,,,,,,,0.516965,1,,,,,,55,WORD,UN,16,ambush,STROKE,m,,,,,,0.094309896,-0.388654514,0,0,0,,0,146,146,234,1,
,,,,,,,,,,,,,,,,,,5f6cc9299ff6940d0cce0b79,2020-12-01_16h19.05.916,lexical_decision_task_MP_exp2,2020.2.8,MacIntel,60,,m,1,0.565915,,,,,,,,0.565915,1,,,,,,179,WORD,"ID",16,basket,BASKET,m,,,,,,0.094309896,-0.388654514,0,0,0,,0,147,147,118,1,
,,,,,,,,,,,,,,,,,,5f6cc9299ff6940d0cce0b79,2020-12-01_16h19.05.916,lexical_decision_task_MP_exp2,2020.2.8,MacIntel,60,,m,0,0.566125,,,,,,,,0.566125,0,,,,,,248,NW,UN,16,batrol,STROLE,z,,,,,,0.094309896,-0.388654514,0,0,0,,0,148,148,427,1,
,,,,,,,,,,,,,,,,,,5f6cc9299ff6940d0cce0b79,2020-12-01_16h19.05.916,lexical_decision_task_MP_exp2,2020.2.8,MacIntel,60,,z,1,0.637705,,,,,,,,0.637705,1,,,,,,334,NW,"ID",33,watmeg,WATMEG,z,,,,,,0.094309896,-0.388654514,0,0,0,,0,149,149,273,1,
,,,,,,,,,,,,,,,,,,5f6cc9299ff6940d0cce0b79,2020-12-01_16h19.05.916,lexical_decision_task_MP_exp2,2020.2.8,MacIntel,60,,m,1,0.484215,,,,,,,,0.484215,1,,,,,,94,WORD,"ID",33,travel,TRAVEL,m,,,,,,0.094309896,-0.388654514,0,0,0,,0,150,150,33,1,
,,,,,,,,,,,,,,,,,,5f6cc9299ff6940d0cce0b79,2020-12-01_16h19.05.916,lexical_decision_task_MP_exp2,2020.2.8,MacIntel,60,,m,1,0.600145,,,,,,,,0.600145,1,,,,,,219,WORD,UN,33,voyage,BUCKET,m,,,,,,0.094309896,-0.388654514,0,0,0,,0,151,151,158,1,
,,,,,,,,,,,,,,,,,,5f6cc9299ff6940d0cce0b79,2020-12-01_16h19.05.916,lexical_decision_task_MP_exp2,2020.2.8,MacIntel,60,,m,1,0.507055,,,,,,,,0.507055,1,,,,,,137,WORD,"ID",16,finger,FINGER,m,,,,,,0.094309896,-0.388654514,0,0,0,,0,152,152,76,1,
,,,,,,,,,,,,,,,,,,5f6cc9299ff6940d0cce0b79,2020-12-01_16h19.05.916,lexical_decision_task_MP_exp2,2020.2.8,MacIntel,60,,z,1,0.522955,,,,,,,,0.522955,1,,,,,,292,NW,UN,16,swance,ABLINT,z,,,,,,0.094309896,-0.388654514,0,0,0,,0,153,153,471,1,
,,,,,,,,,,,,,,,,,,5f6cc9299ff6940d0cce0b79,2020-12-01_16h19.05.916,lexical_decision_task_MP_exp2,2020.2.8,MacIntel,60,,m,1,0.73479,,,,,,,,0.73479,1,,,,,,54,WORD,UN,16,stroke,RAMBLE,m,,,,,,0.094309896,-0.388654514,0,0,0,,0,154,154,233,1,
,,,,,,,,,,,,,,,,,,5f6cc9299ff6940d0cce0b79,2020-12-01_16h19.05.916,lexical_decision_task_MP_exp2,2020.2.8,MacIntel,60,,z,1,0.78398,,,,,,,,0.78398,1,,,,,,461,NW,UN,33,absult,JUSTRE,z,,,,,,0.094309896,-0.388654514,0,0,0,,0,155,155,400,1,
,,,,,,,,,,,,,,,,,,5f6cc9299ff6940d0cce0b79,2020-12-01_16h19.05.916,lexical_decision_task_MP_exp2,2020.2.8,MacIntel,60,,m,1,0.55668,,,,,,,,0.55668,1,,,,,,170,WORD,"ID",16,pounce,POUNCE,m,,,,,,0.094309896,-0.388654514,0,0,0,,0,156,156,109,1,
,,,,,,,,,,,,,,,,,,5f6cc9299ff6940d0cce0b79,2020-12-01_16h19.05.916,lexical_decision_task_MP_exp2,2020.2.8,MacIntel,60,,z,0,0.55931,,,,,,,,0.55931,0,,,,,,139,WORD,"ID",16,debris,DEBRIS,m,,,,,,0.094309896,-0.388654514,0,0,0,,0,157,157,78,1,
,,,,,,,,,,,,,,,,,,5f6cc9299ff6940d0cce0b79,2020-12-01_16h19.05.916,lexical_decision_task_MP_exp2,2020.2.8,MacIntel,60,,m,1,0.69145,,,,,,,,0.69145,1,,,,,,27,WORD,UN,16,comedy,SCREAM,m,,,,,,0.094309896,-0.388654514,0,0,0,,0,158,158,206,1,
,,,,,,,,,,,,,,,,,,5f6cc9299ff6940d0cce0b79,2020-12-01_16h19.05.916,lexical_decision_task_MP_exp2,2020.2.8,MacIntel,60,,m,1,0.54891,,,,,,,,0.54891,1,,,,,,61,WORD,"ID",33,ponder,PONDER,m,,,,,,0.094309896,-0.388654514,0,0,0,,0,159,159,0,1,
,,,,,,,,,,,,,,,,,,5f6cc9299ff6940d0cce0b79,2020-12-01_16h19.05.916,lexical_decision_task_MP_exp2,2020.2.8,MacIntel,60,,z,1,0.537475,,,,,,,,0.537475,1,,,,,,375,NW,"ID",16,yorque,YORQUE,z,,,,,,0.094309896,-0.388654514,0,0,0,,0,160,160,314,1,
,,,,,,,,,,,,,,,,,,5f6cc9299ff6940d0cce0b79,2020-12-01_16h19.05.916,lexical_decision_task_MP_exp2,2020.2.8,MacIntel,60,,m,1,0.508665,,,,,,,,0.508665,1,,,,,,98,WORD,"ID",33,belong,BELONG,m,,,,,,0.094309896,-0.388654514,0,0,0,,0,161,161,37,1,
,,,,,,,,,,,,,,,,,,5f6cc9299ff6940d0cce0b79,2020-12-01_16h19.05.916,lexical_decision_task_MP_exp2,2020.2.8,MacIntel,60,,z,1,0.636015,,,,,,,,0.636015,1,,,,,,356,NW,"ID",33,othnis,OTHNIS,z,,,,,,0.094309896,-0.388654514,0,0,0,,0,162,162,295,1,
,,,,,,,,,,,,,,,,,,5f6cc9299ff6940d0cce0b79,2020-12-01_16h19.05.916,lexical_decision_task_MP_exp2,2020.2.8,MacIntel,60,,m,1,0.836595,,,,,,,,0.836595,1,,,,,,166,WORD,"ID",16,starch,STARCH,m,,,,,,0.094309896,-0.388654514,0,0,0,,0,163,163,105,1,
,,,,,,,,,,,,,,,,,,5f6cc9299ff6940d0cce0b79,2020-12-01_16h19.05.916,lexical_decision_task_MP_exp2,2020.2.8,MacIntel,60,,m,1,0.66351,,,,,,,,0.66351,1,,,,,,200,WORD,UN,33,admire,BEACON,m,,,,,,0.094309896,-0.388654514,0,0,0,,0,164,164,139,1,
,,,,,,,,,,,,,,,,,,5f6cc9299ff6940d0cce0b79,2020-12-01_16h19.05.916,lexical_decision_task_MP_exp2,2020.2.8,MacIntel,60,,z,1,0.583205,,,,,,,,0.583205,1,,,,,,453,NW,UN,33,scouge,BOLVIS,z,,,,,,0.094309896,-0.388654514,0,0,0,,0,165,165,392,1,
,,,,,,,,,,,,,,,,,,5f6cc9299ff6940d0cce0b79,2020-12-01_16h19.05.916,lexical_decision_task_MP_exp2,2020.2.8,MacIntel,60,,m,1,0.669235,,,,,,,,0.669235,1,,,,,,189,WORD,UN,33,backup,CENSOR,m,,,,,,0.094309896,-0.388654514,0,0,0,,0,166,166,128,1,
,,,,,,,,,,,,,,,,,,5f6cc9299ff6940d0cce0b79,2020-12-01_16h19.05.916,lexical_decision_task_MP_exp2,2020.2.8,MacIntel,60,,m,1,0.500265,,,,,,,,0.500265,1,,,,,,48,WORD,UN,16,survey,WALNUT,m,,,,,,0.094309896,-0.388654514,0,0,0,,0,167,167,227,1,
,,,,,,,,,,,,,,,,,,5f6cc9299ff6940d0cce0b79,2020-12-01_16h19.05.916,lexical_decision_task_MP_exp2,2020.2.8,MacIntel,60,,m,1,0.45687,,,,,,,,0.45687,1,,,,,,127,WORD,"ID",16,castle,CASTLE,m,,,,,,0.094309896,-0.388654514,0,0,0,,0,168,168,66,1,
,,,,,,,,,,,,,,,,,,5f6cc9299ff6940d0cce0b79,2020-12-01_16h19.05.916,lexical_decision_task_MP_exp2,2020.2.8,MacIntel,60,,z,1,0.55791,,,,,,,,0.55791,1,,,,,,389,NW,"ID",16,witmer,WITMER,z,,,,,,0.094309896,-0.388654514,0,0,0,,0,169,169,328,1,
,,,,,,,,,,,,,,,,,,5f6cc9299ff6940d0cce0b79,2020-12-01_16h19.05.916,lexical_decision_task_MP_exp2,2020.2.8,MacIntel,60,,z,1,0.619575,,,,,,,,0.619575,1,,,,,,371,NW,"ID",16,geiloy,GEILOY,z,,,,,,0.094309896,-0.388654514,0,0,0,,0,170,170,310,1,
,,,,,,,,,,,,,,,,,,5f6cc9299ff6940d0cce0b79,2020-12-01_16h19.05.916,lexical_decision_task_MP_exp2,2020.2.8,MacIntel,60,,z,1,0.93298,,,,,,,,0.93298,1,,,,,,462,NW,UN,33,kispel,ABSULT,z,,,,,,0.094309896,-0.388654514,0,0,0,,0,171,171,401,1,
,,,,,,,,,,,,,,,,,,5f6cc9299ff6940d0cce0b79,2020-12-01_16h19.05.916,lexical_decision_task_MP_exp2,2020.2.8,MacIntel,60,,m,1,0.49246,,,,,,,,0.49246,1,,,,,,46,WORD,UN,16,income,SINGLE,m,,,,,,0.094309896,-0.388654514,0,0,0,,0,172,172,225,1,
,,,,,,,,,,,,,,,,,,5f6cc9299ff6940d0cce0b79,2020-12-01_16h19.05.916,lexical_decision_task_MP_exp2,2020.2.8,MacIntel,60,,m,1,0.452015,,,,,,,,0.452015,1,,,,,,88,WORD,"ID",33,hunger,HUNGER,m,,,,,,0.094309896,-0.388654514,0,0,0,,0,173,173,27,1,
,,,,,,,,,,,,,,,,,,5f6cc9299ff6940d0cce0b79,2020-12-01_16h19.05.916,lexical_decision_task_MP_exp2,2020.2.8,MacIntel,60,,m,1,0.53373,,,,,,,,0.53373,1,,,,,,143,WORD,"ID",16,reason,REASON,m,,,,,,0.094309896,-0.388654514,0,0,0,,0,174,174,82,1,
,,,,,,,,,,,,,,,,,,5f6cc9299ff6940d0cce0b79,2020-12-01_16h19.05.916,lexical_decision_task_MP_exp2,2020.2.8,MacIntel,60,,m,1,0.583725,,,,,,,,0.583725,1,,,,,,234,WORD,UN,33,poster,CLUMSY,m,,,,,,0.094309896,-0.388654514,0,0,0,,0,175,175,173,1,
,,,,,,,,,,,,,,,,,,5f6cc9299ff6940d0cce0b79,2020-12-01_16h19.05.916,lexical_decision_task_MP_exp2,2020.2.8,MacIntel,60,,m,0,0.436005,,,,,,,,0.436005,0,,,,,,425,NW,UN,33,urivel,FRUDGE,z,,,,,,0.094309896,-0.388654514,0,0,0,,0,176,176,364,1,
,,,,,,,,,,,,,,,,,,5f6cc9299ff6940d0cce0b79,2020-12-01_16h19.05.916,lexical_decision_task_MP_exp2,2020.2.8,MacIntel,60,,z,1,0.550135,,,,,,,,0.550135,1,,,,,,288,NW,UN,16,starby,YACEUP,z,,,,,,0.094309896,-0.388654514,0,0,0,,0,177,177,467,1,
,,,,,,,,,,,,,,,,,,5f6cc9299ff6940d0cce0b79,2020-12-01_16h19.05.916,lexical_decision_task_MP_exp2,2020.2.8,MacIntel,60,,z,0,0.566325,,,,,,,,0.566325,0,,,,,,184,WORD,UN,33,bother,SLEAZY,m,,,,,,0.094309896,-0.388654514,0,0,0,,0,178,178,123,1,
,,,,,,,,,,,,,,,,,,5f6cc9299ff6940d0cce0b79,2020-12-01_16h19.05.916,lexical_decision_task_MP_exp2,2020.2.8,MacIntel,60,,z,1,0.516705,,,,,,,,0.516705,1,,,,,,290,NW,UN,16,pretch,SPLINO,z,,,,,,0.094309896,-0.388654514,0,0,0,,0,179,179,469,1,
,,,,,,,,,,,,,,,,,,5f6cc9299ff6940d0cce0b79,2020-12-01_16h19.05.916,lexical_decision_task_MP_exp2,2020.2.8,MacIntel,60,,z,1,0.67088,,,,,,,,0.67088,1,,,,,,423,NW,UN,33,praile,STRELD,z,,,,,,0.094309896,-0.388654514,0,0,0,,0,180,180,362,1,
,,,,,,,,,,,,,,,,,,5f6cc9299ff6940d0cce0b79,2020-12-01_16h19.05.916,lexical_decision_task_MP_exp2,2020.2.8,MacIntel,60,,z,1,0.65044,,,,,,,,0.65044,1,,,,,,245,NW,UN,16,piaton,ANOUGS,z,,,,,,0.094309896,-0.388654514,0,0,0,,0,181,181,424,1,
,,,,,,,,,,,,,,,,,,5f6cc9299ff6940d0cce0b79,2020-12-01_16h19.05.916,lexical_decision_task_MP_exp2,2020.2.8,MacIntel,60,,m,1,0.570775,,,,,,,,0.570775,1,,,,,,176,WORD,"ID",16,strife,STRIFE,m,,,,,,0.094309896,-0.388654514,0,0,0,,0,182,182,115,1,
,,,,,,,,,,,,,,,,,,5f6cc9299ff6940d0cce0b79,2020-12-01_16h19.05.916,lexical_decision_task_MP_exp2,2020.2.8,MacIntel,60,,m,1,0.63292,,,,,,,,0.63292,1,,,,,,238,WORD,UN,33,behalf,FLOWER,m,,,,,,0.094309896,-0.388654514,0,0,0,,0,183,183,177,1,
,,,,,,,,,,,,,,,,,,5f6cc9299ff6940d0cce0b79,2020-12-01_16h19.05.916,lexical_decision_task_MP_exp2,2020.2.8,MacIntel,60,,m,1,0.716435,,,,,,,,0.716435,1,,,,,,90,WORD,"ID",33,relish,RELISH,m,,,,,,0.094309896,-0.388654514,0,0,0,,0,184,184,29,1,
,,,,,,,,,,,,,,,,,,5f6cc9299ff6940d0cce0b79,2020-12-01_16h19.05.916,lexical_decision_task_MP_exp2,2020.2.8,MacIntel,60,,z,1,0.690705,,,,,,,,0.690705,1,,,,,,251,NW,UN,16,stapod,LUPICT,z,,,,,,0.094309896,-0.388654514,0,0,0,,0,185,185,430,1,
,,,,,,,,,,,,,,,,,,5f6cc9299ff6940d0cce0b79,2020-12-01_16h19.05.916,lexical_decision_task_MP_exp2,2020.2.8,MacIntel,60,,m,1,0.569,,,,,,,,0.569,1,,,,,,169,WORD,"ID",16,genius,GENIUS,m,,,,,,0.094309896,-0.388654514,0,0,0,,0,186,186,108,1,
,,,,,,,,,,,,,,,,,,5f6cc9299ff6940d0cce0b79,2020-12-01_16h19.05.916,lexical_decision_task_MP_exp2,2020.2.8,MacIntel,60,,z,1,0.65823,,,,,,,,0.65823,1,,,,,,352,NW,"ID",33,tringe,TRINGE,z,,,,,,0.094309896,-0.388654514,0,0,0,,0,187,187,291,1,
,,,,,,,,,,,,,,,,,,5f6cc9299ff6940d0cce0b79,2020-12-01_16h19.05.916,lexical_decision_task_MP_exp2,2020.2.8,MacIntel,60,,z,1,0.417045,,,,,,,,0.417045,1,,,,,,300,NW,UN,16,smenco,YARION,z,,,,,,0.094309896,-0.388654514,0,0,0,,0,188,188,479,1,
,,,,,,,,,,,,,,,,,,5f6cc9299ff6940d0cce0b79,2020-12-01_16h19.05.916,lexical_decision_task_MP_exp2,2020.2.8,MacIntel,60,,m,1,0.467385,,,,,,,,0.467385,1,,,,,,194,WORD,UN,33,resign,ABSENT,m,,,,,,0.094309896,-0.388654514,0,0,0,,0,189,189,133,1,
,,,,,,,,,,,,,,,,,,5f6cc9299ff6940d0cce0b79,2020-12-01_16h19.05.916,lexical_decision_task_MP_exp2,2020.2.8,MacIntel,60,,m,1,0.706895,,,,,,,,0.706895,1,,,,,,75,WORD,"ID",33,trophy,TROPHY,m,,,,,,0.094309896,-0.388654514,0,0,0,,0,190,190,14,1,
,,,,,,,,,,,,,,,,,,5f6cc9299ff6940d0cce0b79,2020-12-01_16h19.05.916,lexical_decision_task_MP_exp2,2020.2.8,MacIntel,60,,z,1,0.664535,,,,,,,,0.664535,1,,,,,,467,NW,UN,33,wictor,GORBIE,z,,,,,,0.094309896,-0.388654514,0,0,0,,0,191,191,406,1,
,,,,,,,,,,,,,,,,,,5f6cc9299ff6940d0cce0b79,2020-12-01_16h19.05.916,lexical_decision_task_MP_exp2,2020.2.8,MacIntel,60,,m,1,0.60253,,,,,,,,0.60253,1,,,,,,92,WORD,"ID",33,strand,STRAND,m,,,,,,0.094309896,-0.388654514,0,0,0,,0,192,192,31,1,
,,,,,,,,,,,,,,,,,,5f6cc9299ff6940d0cce0b79,2020-12-01_16h19.05.916,lexical_decision_task_MP_exp2,2020.2.8,MacIntel,60,,z,1,0.71967,,,,,,,,0.71967,1,,,,,,413,NW,"ID",16,equats,EQUATS,z,,,,,,0.094309896,-0.388654514,0,0,0,,0,193,193,352,1,
,,,,,,,,,,,,,,,,,,5f6cc9299ff6940d0cce0b79,2020-12-01_16h19.05.916,lexical_decision_task_MP_exp2,2020.2.8,MacIntel,60,,z,0,0.516545,,,,,,,,0.516545,0,,,,,,22,WORD,UN,16,wealth,JOCKEY,m,,,,,,0.094309896,-0.388654514,0,0,0,,0,194,194,201,1,
,,,,,,,,,,,,,,,,,,5f6cc9299ff6940d0cce0b79,2020-12-01_16h19.05.916,lexical_decision_task_MP_exp2,2020.2.8,MacIntel,60,,z,1,0.849495,,,,,,,,0.849495,1,,,,,,249,NW,UN,16,milted,BATROL,z,,,,,,0.094309896,-0.388654514,0,0,0,,0,195,195,428,1,
,,,,,,,,,,,,,,,,,,5f6cc9299ff6940d0cce0b79,2020-12-01_16h19.05.916,lexical_decision_task_MP_exp2,2020.2.8,MacIntel,60,,z,1,0.624315,,,,,,,,0.624315,1,,,,,,252,NW,UN,16,resait,STAPOD,z,,,,,,0.094309896,-0.388654514,0,0,0,,0,196,196,431,1,
,,,,,,,,,,,,,,,,,,5f6cc9299ff6940d0cce0b79,2020-12-01_16h19.05.916,lexical_decision_task_MP_exp2,2020.2.8,MacIntel,60,,z,1,0.61838,,,,,,,,0.61838,1,,,,,,479,NW,UN,33,crible,LOBUSH,z,,,,,,0.094309896,-0.388654514,0,0,0,,0,197,197,418,1,
,,,,,,,,,,,,,,,,,,5f6cc9299ff6940d0cce0b79,2020-12-01_16h19.05.916,lexical_decision_task_MP_exp2,2020.2.8,MacIntel,60,,z,1,0.55415,,,,,,,,0.55415,1,,,,,,418,NW,"ID",16,suidle,SUIDLE,z,,,,,,0.094309896,-0.388654514,0,0,0,,0,198,198,357,1,
,,,,,,,,,,,,,,,,,,5f6cc9299ff6940d0cce0b79,2020-12-01_16h19.05.916,lexical_decision_task_MP_exp2,2020.2.8,MacIntel,60,,m,1,0.620815,,,,,,,,0.620815,1,,,,,,141,WORD,"ID",16,orphan,ORPHAN,m,,,,,,0.094309896,-0.388654514,0,0,0,,0,199,199,80,1,
,,,,,,,,,,,,,,,,,,5f6cc9299ff6940d0cce0b79,2020-12-01_16h19.05.916,lexical_decision_task_MP_exp2,2020.2.8,MacIntel,60,,m,1,0.575875,,,,,,,,0.575875,1,,,,,,100,WORD,"ID",33,carbon,CARBON,m,,,,,,0.094309896,-0.388654514,0,0,0,,0,200,200,39,1,
,,,,,,,,,,,,,,,,,,5f6cc9299ff6940d0cce0b79,2020-12-01_16h19.05.916,lexical_decision_task_MP_exp2,2020.2.8,MacIntel,60,,m,1,0.683335,,,,,,,,0.683335,1,,,,,,74,WORD,"ID",33,plaque,PLAQUE,m,,,,,,0.094309896,-0.388654514,0,0,0,,0,201,201,13,1,
,,,,,,,,,,,,,,,,,,5f6cc9299ff6940d0cce0b79,2020-12-01_16h19.05.916,lexical_decision_task_MP_exp2,2020.2.8,MacIntel,60,,z,1,0.787935,,,,,,,,0.787935,1,,,,,,278,NW,UN,16,celond,UNIGHS,z,,,,,,0.094309896,-0.388654514,0,0,0,,0,202,202,457,1,
,,,,,,,,,,,,,,,,,,5f6cc9299ff6940d0cce0b79,2020-12-01_16h19.05.916,lexical_decision_task_MP_exp2,2020.2.8,MacIntel,60,,m,1,0.556765,,,,,,,,0.556765,1,,,,,,178,WORD,"ID",16,inform,INFORM,m,,,,,,0.094309896,-0.388654514,0,0,0,,0,203,203,117,1,
,,,,,,,,,,,,,,,,,,5f6cc9299ff6940d0cce0b79,2020-12-01_16h19.05.916,lexical_decision_task_MP_exp2,2020.2.8,MacIntel,60,,z,1,0.75401,,,,,,,,0.75401,1,,,,,,468,NW,UN,33,padifs,WICTOR,z,,,,,,0.094309896,-0.388654514,0,0,0,,0,204,204,407,1,
,,,,,,,,,,,,,,,,,,5f6cc9299ff6940d0cce0b79,2020-12-01_16h19.05.916,lexical_decision_task_MP_exp2,2020.2.8,MacIntel,60,,m,1,0.669625,,,,,,,,0.669625,1,,,,,,148,WORD,"ID",16,custom,CUSTOM,m,,,,,,0.094309896,-0.388654514,0,0,0,,0,205,205,87,1,
,,,,,,,,,,,,,,,,,,5f6cc9299ff6940d0cce0b79,2020-12-01_16h19.05.916,lexical_decision_task_MP_exp2,2020.2.8,MacIntel,60,,m,1,0.58372,,,,,,,,0.58372,1,,,,,,208,WORD,UN,33,search,HOCKEY,m,,,,,,0.094309896,-0.388654514,0,0,0,,0,206,206,147,1,
,,,,,,,,,,,,,,,,,,5f6cc9299ff6940d0cce0b79,2020-12-01_16h19.05.916,lexical_decision_task_MP_exp2,2020.2.8,MacIntel,60,,z,1,0.64753,,,,,,,,0.64753,1,,,,,,384,NW,"ID",16,guesco,GUESCO,z,,,,,,0.094309896,-0.388654514,0,0,0,,0,207,207,323,1,
,,,,,,,,,,,,,,,,,,5f6cc9299ff6940d0cce0b79,2020-12-01_16h19.05.916,lexical_decision_task_MP_exp2,2020.2.8,MacIntel,60,,z,1,0.851235,,,,,,,,0.851235,1,,,,,,342,NW,"ID",33,randow,RANDOW,z,,,,,,0.094309896,-0.388654514,0,0,0,,0,208,208,281,1,
,,,,,,,,,,,,,,,,,,5f6cc9299ff6940d0cce0b79,2020-12-01_16h19.05.916,lexical_decision_task_MP_exp2,2020.2.8,MacIntel,60,,m,1,0.549745,,,,,,,,0.549745,1,,,,,,99,WORD,"ID",33,fluent,FLUENT,m,,,,,,0.094309896,-0.388654514,0,0,0,,0,209,209,38,1,
,,,,,,,,,,,,,,,,,,5f6cc9299ff6940d0cce0b79,2020-12-01_16h19.05.916,lexical_decision_task_MP_exp2,2020.2.8,MacIntel,60,,z,1,0.624385,,,,,,,,0.624385,1,,,,,,439,NW,UN,33,saride,LIMPOR,z,,,,,,0.094309896,-0.388654514,0,0,0,,0,210,210,378,1,
,,,,,,,,,,,,,,,,,,5f6cc9299ff6940d0cce0b79,2020-12-01_16h19.05.916,lexical_decision_task_MP_exp2,2020.2.8,MacIntel,60,,z,1,0.723605,,,,,,,,0.723605,1,,,,,,321,NW,"ID",33,miator,MIATOR,z,,,,,,0.094309896,-0.388654514,0,0,0,,0,211,211,260,1,
,,,,,,,,,,,,,,,,,,5f6cc9299ff6940d0cce0b79,2020-12-01_16h19.05.916,lexical_decision_task_MP_exp2,2020.2.8,MacIntel,60,,m,1,0.60103,,,,,,,,0.60103,1,,,,,,118,WORD,"ID",33,flight,FLIGHT,m,,,,,,0.094309896,-0.388654514,0,0,0,,0,212,212,57,1,
,,,,,,,,,,,,,,,,,,5f6cc9299ff6940d0cce0b79,2020-12-01_16h19.05.916,lexical_decision_task_MP_exp2,2020.2.8,MacIntel,60,,m,1,0.532615,,,,,,,,0.532615,1,,,,,,47,WORD,UN,16,walnut,INCOME,m,,,,,,0.094309896,-0.388654514,0,0,0,,0,213,213,226,1,
,,,,,,,,,,,,,,,,,,5f6cc9299ff6940d0cce0b79,2020-12-01_16h19.05.916,lexical_decision_task_MP_exp2,2020.2.8,MacIntel,60,,m,1,0.533795,,,,,,,,0.533795,1,,,,,,1,WORD,UN,16,ethnic,FRIGHT,m,,,,,,0.094309896,-0.388654514,0,0,0,,0,214,214,180,1,
,,,,,,,,,,,,,,,,,,5f6cc9299ff6940d0cce0b79,2020-12-01_16h19.05.916,lexical_decision_task_MP_exp2,2020.2.8,MacIntel,60,,z,0,0.46609,,,,,,,,0.46609,0,,,,,,210,WORD,UN,33,infect,MONKEY,m,,,,,,0.094309896,-0.388654514,0,0,0,,0,215,215,149,1,
,,,,,,,,,,,,,,,,,,5f6cc9299ff6940d0cce0b79,2020-12-01_16h19.05.916,lexical_decision_task_MP_exp2,2020.2.8,MacIntel,60,,z,1,0.66618,,,,,,,,0.66618,1,,,,,,382,NW,"ID",16,sarley,SARLEY,z,,,,,,0.094309896,-0.388654514,0,0,0,,0,216,216,321,1,
,,,,,,,,,,,,,,,,,,5f6cc9299ff6940d0cce0b79,2020-12-01_16h19.05.916,lexical_decision_task_MP_exp2,2020.2.8,MacIntel,60,,z,0,0.584865,,,,,,,,0.584865,0,,,,,,154,WORD,"ID",16,author,AUTHOR,m,,,,,,0.094309896,-0.388654514,0,0,0,,0,217,217,93,1,
,,,,,,,,,,,,,,,,,,5f6cc9299ff6940d0cce0b79,2020-12-01_16h19.05.916,lexical_decision_task_MP_exp2,2020.2.8,MacIntel,60,,z,1,0.616515,,,,,,,,0.616515,1,,,,,,385,NW,"ID",16,veigma,VEIGMA,z,,,,,,0.094309896,-0.388654514,0,0,0,,0,218,218,324,1,
,,,,,,,,,,,,,,,,,,5f6cc9299ff6940d0cce0b79,2020-12-01_16h19.05.916,lexical_decision_task_MP_exp2,2020.2.8,MacIntel,60,,m,1,0.600645,,,,,,,,0.600645,1,,,,,,228,WORD,UN,33,kidney,MASTER,m,,,,,,0.094309896,-0.388654514,0,0,0,,0,219,219,167,1,
,,,,,,,,,,,,,,,,,,5f6cc9299ff6940d0cce0b79,2020-12-01_16h19.05.916,lexical_decision_task_MP_exp2,2020.2.8,MacIntel,60,,z,1,0.619075,,,,,,,,0.619075,1,,,,,,310,NW,"ID",33,daniet,DANIET,z,,,,,,0.094309896,-0.388654514,0,0,0,,0,220,220,249,1,
,,,,,,,,,,,,,,,,,,5f6cc9299ff6940d0cce0b79,2020-12-01_16h19.05.916,lexical_decision_task_MP_exp2,2020.2.8,MacIntel,60,,z,1,0.65738,,,,,,,,0.65738,1,,,,,,431,NW,UN,33,lunker,CHRUMS,z,,,,,,0.094309896,-0.388654514,0,0,0,,0,221,221,370,1,
,,,,,,,,,,,,,,,,,,5f6cc9299ff6940d0cce0b79,2020-12-01_16h19.05.916,lexical_decision_task_MP_exp2,2020.2.8,MacIntel,60,,m,1,0.67404,,,,,,,,0.67404,1,,,,,,65,WORD,"ID",33,symbol,SYMBOL,m,,,,,,0.094309896,-0.388654514,0,0,0,,0,222,222,4,1,
,,,,,,,,,,,,,,,,,,5f6cc9299ff6940d0cce0b79,2020-12-01_16h19.05.916,lexical_decision_task_MP_exp2,2020.2.8,MacIntel,60,,z,1,0.60769,,,,,,,,0.60769,1,,,,,,351,NW,"ID",33,tiesch,TIESCH,z,,,,,,0.094309896,-0.388654514,0,0,0,,0,223,223,290,1,
,,,,,,,,,,,,,,,,,,5f6cc9299ff6940d0cce0b79,2020-12-01_16h19.05.916,lexical_decision_task_MP_exp2,2020.2.8,MacIntel,60,,z,0,0.599795,,,,,,,,0.599795,0,,,,,,8,WORD,UN,16,hustle,ABRUPT,m,,,,,,0.094309896,-0.388654514,0,0,0,,0,224,224,187,1,
,,,,,,,,,,,,,,,,,,5f6cc9299ff6940d0cce0b79,2020-12-01_16h19.05.916,lexical_decision_task_MP_exp2,2020.2.8,MacIntel,60,,m,0,0.86448,,,,,,,,0.86448,0,,,,,,473,NW,UN,33,hablin,CRIBLE,z,,,,,,0.094309896,-0.388654514,0,0,0,,0,225,225,412,1,
,,,,,,,,,,,,,,,,,,5f6cc9299ff6940d0cce0b79,2020-12-01_16h19.05.916,lexical_decision_task_MP_exp2,2020.2.8,MacIntel,60,,z,1,0.80001,,,,,,,,0.80001,1,,,,,,267,NW,UN,16,packes,PASINK,z,,,,,,0.094309896,-0.388654514,0,0,0,,0,226,226,446,1,
,,,,,,,,,,,,,,,,,,5f6cc9299ff6940d0cce0b79,2020-12-01_16h19.05.916,lexical_decision_task_MP_exp2,2020.2.8,MacIntel,60,,m,1,0.84414,,,,,,,,0.84414,1,,,,,,145,WORD,"ID",16,parish,PARISH,m,,,,,,0.094309896,-0.388654514,0,0,0,,0,227,227,84,1,
,,,,,,,,,,,,,,,,,,5f6cc9299ff6940d0cce0b79,2020-12-01_16h19.05.916,lexical_decision_task_MP_exp2,2020.2.8,MacIntel,60,,m,1,0.667535,,,,,,,,0.667535,1,,,,,,50,WORD,UN,16,hungry,SNATCH,m,,,,,,0.094309896,-0.388654514,0,0,0,,0,228,228,229,1,
,,,,,,,,,,,,,,,,,,5f6cc9299ff6940d0cce0b79,2020-12-01_16h19.05.916,lexical_decision_task_MP_exp2,2020.2.8,MacIntel,60,,m,1,0.575085,,,,,,,,0.575085,1,,,,,,20,WORD,UN,16,simple,BREAST,m,,,,,,0.094309896,-0.388654514,0,0,0,,0,229,229,199,1,
,,,,,,,,,,,,,,,,,,5f6cc9299ff6940d0cce0b79,2020-12-01_16h19.05.916,lexical_decision_task_MP_exp2,2020.2.8,MacIntel,60,,m,1,0.522965,,,,,,,,0.522965,1,,,,,,41,WORD,UN,16,chapel,SPRING,m,,,,,,0.094309896,-0.388654514,0,0,0,,0,230,230,220,1,
,,,,,,,,,,,,,,,,,,5f6cc9299ff6940d0cce0b79,2020-12-01_16h19.05.916,lexical_decision_task_MP_exp2,2020.2.8,MacIntel,60,,z,1,0.70542,,,,,,,,0.70542,1,,,,,,399,NW,"ID",16,fouret,FOURET,z,,,,,,0.094309896,-0.388654514,0,0,0,,0,231,231,338,1,
,,,,,,,,,,,,,,,,,,5f6cc9299ff6940d0cce0b79,2020-12-01_16h19.05.916,lexical_decision_task_MP_exp2,2020.2.8,MacIntel,60,,m,1,0.634535,,,,,,,,0.634535,1,,,,,,190,WORD,UN,33,stable,BACKUP,m,,,,,,0.094309896,-0.388654514,0,0,0,,0,232,232,129,1,
,,,,,,,,,,,,,,,,,,5f6cc9299ff6940d0cce0b79,2020-12-01_16h19.05.916,lexical_decision_task_MP_exp2,2020.2.8,MacIntel,60,,m,1,0.68832,,,,,,,,0.68832,1,,,,,,220,WORD,UN,33,mascot,VOYAGE,m,,,,,,0.094309896,-0.388654514,0,0,0,,0,233,233,159,1,
,,,,,,,,,,,,,,,,,,5f6cc9299ff6940d0cce0b79,2020-12-01_16h19.05.916,lexical_decision_task_MP_exp2,2020.2.8,MacIntel,60,,m,1,0.574355,,,,,,,,0.574355,1,,,,,,171,WORD,"ID",16,depart,DEPART,m,,,,,,0.094309896,-0.388654514,0,0,0,,0,234,234,110,1,
,,,,,,,,,,,,,,,,,,5f6cc9299ff6940d0cce0b79,2020-12-01_16h19.05.916,lexical_decision_task_MP_exp2,2020.2.8,MacIntel,60,,m,1,0.533795,,,,,,,,0.533795,1,,,,,,115,WORD,"ID",33,guitar,GUITAR,m,,,,,,0.094309896,-0.388654514,0,0,0,,0,235,235,54,1,
,,,,,,,,,,,,,,,,,,5f6cc9299ff6940d0cce0b79,2020-12-01_16h19.05.916,lexical_decision_task_MP_exp2,2020.2.8,MacIntel,60,,z,1,0.783825,,,,,,,,0.783825,1,,,,,,436,NW,UN,33,snapel,FRUTAN,z,,,,,,0.094309896,-0.388654514,0,0,0,,0,236,236,375,1,
,,,,,,,,,,,,,,,,,,5f6cc9299ff6940d0cce0b79,2020-12-01_16h19.05.916,lexical_decision_task_MP_exp2,2020.2.8,MacIntel,60,,z,1,0.88817,,,,,,,,0.88817,1,,,,,,256,NW,UN,16,veniod,INLORS,z,,,,,,0.094309896,-0.388654514,0,0,0,,0,237,237,435,1,
,,,,,,,,,,,,,,,,,,5f6cc9299ff6940d0cce0b79,2020-12-01_16h19.05.916,lexical_decision_task_MP_exp2,2020.2.8,MacIntel,60,,m,1,0.641115,,,,,,,,0.641115,1,,,,,,2,WORD,UN,16,knight,BRIDGE,m,,,,,,0.094309896,-0.388654514,0,0,0,,0,238,238,181,1,
,,,,,,,,,,,,,,,,,,5f6cc9299ff6940d0cce0b79,2020-12-01_16h19.05.916,lexical_decision_task_MP_exp2,2020.2.8,MacIntel,60,,m,1,0.53808,,,,,,,,0.53808,1,,,,,,232,WORD,UN,33,nature,INJECT,m,,,,,,0.094309896,-0.388654514,0,0,0,,0,239,239,171,1,
,,,,,,,,,,,,,,,,,,5f6cc9299ff6940d0cce0b79,2020-12-01_16h19.05.916,lexical_decision_task_MP_exp2,2020.2.8,MacIntel,60,,m,1,0.55541,,,,,,,,0.55541,1,,,,,,108,WORD,"ID",33,reckon,RECKON,m,,,,,,0.094309896,-0.388654514,0,0,0,,0,240,240,47,1,
,,,,,,,,,,,,,,,,,,5f6cc9299ff6940d0cce0b79,2020-12-01_16h19.05.916,lexical_decision_task_MP_exp2,2020.2.8,MacIntel,60,,z,1,0.738635,,,,,,,,0.738635,1,,,,,,376,NW,"ID",16,iguare,IGUARE,z,,,,,,0.094309896,-0.388654514,0,0,0,space,0,241,241,315,1,10.135505
,,,,,,,,,,,,,,,,,,5f6cc9299ff6940d0cce0b79,2020-12-01_16h19.05.916,lexical_decision_task_MP_exp2,2020.2.8,MacIntel,60,,z,1,0.53374,,,,,,,,0.53374,1,,,,,,466,NW,UN,33,robuly,HOCITE,z,,,,,,0.094309896,-0.388654514,0,0,0,,0,242,242,405,1,
,,,,,,,,,,,,,,,,,,5f6cc9299ff6940d0cce0b79,2020-12-01_16h19.05.916,lexical_decision_task_MP_exp2,2020.2.8,MacIntel,60,,m,1,0.59903,,,,,,,,0.59903,1,,,,,,107,WORD,"ID",33,slogan,SLOGAN,m,,,,,,0.094309896,-0.388654514,0,0,0,,0,243,243,46,1,
,,,,,,,,,,,,,,,,,,5f6cc9299ff6940d0cce0b79,2020-12-01_16h19.05.916,lexical_decision_task_MP_exp2,2020.2.8,MacIntel,60,,z,1,0.62095,,,,,,,,0.62095,1,,,,,,417,NW,"ID",16,earoud,EAROUD,z,,,,,,0.094309896,-0.388654514,0,0,0,,0,244,244,356,1,
,,,,,,,,,,,,,,,,,,5f6cc9299ff6940d0cce0b79,2020-12-01_16h19.05.916,lexical_decision_task_MP_exp2,2020.2.8,MacIntel,60,,z,1,0.56726,,,,,,,,0.56726,1,,,,,,350,NW,"ID",33,nagurs,NAGURS,z,,,,,,0.094309896,-0.388654514,0,0,0,,0,245,245,289,1,
,,,,,,,,,,,,,,,,,,5f6cc9299ff6940d0cce0b79,2020-12-01_16h19.05.916,lexical_decision_task_MP_exp2,2020.2.8,MacIntel,60,,m,0,0.48394,,,,,,,,0.48394,0,,,,,,377,NW,"ID",16,injore,INJORE,z,,,,,,0.094309896,-0.388654514,0,0,0,,0,246,246,316,1,
,,,,,,,,,,,,,,,,,,5f6cc9299ff6940d0cce0b79,2020-12-01_16h19.05.916,lexical_decision_task_MP_exp2,2020.2.8,MacIntel,60,,m,1,0.789685,,,,,,,,0.789685,1,,,,,,117,WORD,"ID",33,branch,BRANCH,m,,,,,,0.094309896,-0.388654514,0,0,0,,0,247,247,56,1,
,,,,,,,,,,,,,,,,,,5f6cc9299ff6940d0cce0b79,2020-12-01_16h19.05.916,lexical_decision_task_MP_exp2,2020.2.8,MacIntel,60,,m,1,0.517885,,,,,,,,0.517885,1,,,,,,174,WORD,"ID",16,turkey,TURKEY,m,,,,,,0.094309896,-0.388654514,0,0,0,,0,248,248,113,1,
,,,,,,,,,,,,,,,,,,5f6cc9299ff6940d0cce0b79,2020-12-01_16h19.05.916,lexical_decision_task_MP_exp2,2020.2.8,MacIntel,60,,m,1,0.469545,,,,,,,,0.469545,1,,,,,,12,WORD,UN,16,strive,ORANGE,m,,,,,,0.094309896,-0.388654514,0,0,0,,0,249,249,191,1,
,,,,,,,,,,,,,,,,,,5f6cc9299ff6940d0cce0b79,2020-12-01_16h19.05.916,lexical_decision_task_MP_exp2,2020.2.8,MacIntel,60,,m,0,0.799105,,,,,,,,0.799105,0,,,,,,380,NW,"ID",16,cavory,CAVORY,z,,,,,,0.094309896,-0.388654514,0,0,0,,0,250,250,319,1,
,,,,,,,,,,,,,,,,,,5f6cc9299ff6940d0cce0b79,2020-12-01_16h19.05.916,lexical_decision_task_MP_exp2,2020.2.8,MacIntel,60,,m,1,0.53367,,,,,,,,0.53367,1,,,,,,197,WORD,UN,33,wicked,STREAM,m,,,,,,0.094309896,-0.388654514,0,0,0,,0,251,251,136,1,
,,,,,,,,,,,,,,,,,,5f6cc9299ff6940d0cce0b79,2020-12-01_16h19.05.916,lexical_decision_task_MP_exp2,2020.2.8,MacIntel,60,,z,1,0.65565,,,,,,,,0.65565,1,,,,,,266,NW,UN,16,pasink,VARMIT,z,,,,,,0.094309896,-0.388654514,0,0,0,,0,252,252,445,1,
,,,,,,,,,,,,,,,,,,5f6cc9299ff6940d0cce0b79,2020-12-01_16h19.05.916,lexical_decision_task_MP_exp2,2020.2.8,MacIntel,60,,m,1,0.600675,,,,,,,,0.600675,1,,,,,,237,WORD,UN,33,glance,POSTER,m,,,,,,0.094309896,-0.388654514,0,0,0,,0,253,253,176,1,
,,,,,,,,,,,,,,,,,,5f6cc9299ff6940d0cce0b79,2020-12-01_16h19.05.916,lexical_decision_task_MP_exp2,2020.2.8,MacIntel,60,,z,1,0.55818,,,,,,,,0.55818,1,,,,,,329,NW,"ID",33,yarike,YARIKE,z,,,,,,0.094309896,-0.388654514,0,0,0,,0,254,254,268,1,
,,,,,,,,,,,,,,,,,,5f6cc9299ff6940d0cce0b79,2020-12-01_16h19.05.916,lexical_decision_task_MP_exp2,2020.2.8,MacIntel,60,,z,1,0.617505,,,,,,,,0.617505,1,,,,,,365,NW,"ID",16,guairt,GUAIRT,z,,,,,,0.094309896,-0.388654514,0,0,0,,0,255,255,304,1,
,,,,,,,,,,,,,,,,,,5f6cc9299ff6940d0cce0b79,2020-12-01_16h19.05.916,lexical_decision_task_MP_exp2,2020.2.8,MacIntel,60,,z,1,0.83923,,,,,,,,0.83923,1,,,,,,387,NW,"ID",16,gronce,GRONCE,z,,,,,,0.094309896,-0.388654514,0,0,0,,0,256,256,326,1,
,,,,,,,,,,,,,,,,,,5f6cc9299ff6940d0cce0b79,2020-12-01_16h19.05.916,lexical_decision_task_MP_exp2,2020.2.8,MacIntel,60,,m,1,0.63386,,,,,,,,0.63386,1,,,,,,64,WORD,"ID",33,throne,THRONE,m,,,,,,0.094309896,-0.388654514,0,0,0,,0,257,257,3,1,
,,,,,,,,,,,,,,,,,,5f6cc9299ff6940d0cce0b79,2020-12-01_16h19.05.916,lexical_decision_task_MP_exp2,2020.2.8,MacIntel,60,,m,1,0.5503,,,,,,,,0.5503,1,,,,,,161,WORD,"ID",16,pastor,PASTOR,m,,,,,,0.094309896,-0.388654514,0,0,0,,0,258,258,100,1,
,,,,,,,,,,,,,,,,,,5f6cc9299ff6940d0cce0b79,2020-12-01_16h19.05.916,lexical_decision_task_MP_exp2,2020.2.8,MacIntel,60,,z,1,0.63947,,,,,,,,0.63947,1,,,,,,328,NW,"ID",33,broake,BROAKE,z,,,,,,0.094309896,-0.388654514,0,0,0,,0,259,259,267,1,
,,,,,,,,,,,,,,,,,,5f6cc9299ff6940d0cce0b79,2020-12-01_16h19.05.916,lexical_decision_task_MP_exp2,2020.2.8,MacIntel,60,,z,1,0.799405,,,,,,,,0.799405,1,,,,,,265,NW,UN,16,varmit,DISTAR,z,,,,,,0.094309896,-0.388654514,0,0,0,,0,260,260,444,1,
,,,,,,,,,,,,,,,,,,5f6cc9299ff6940d0cce0b79,2020-12-01_16h19.05.916,lexical_decision_task_MP_exp2,2020.2.8,MacIntel,60,,m,0,0.60042,,,,,,,,0.60042,0,,,,,,285,NW,UN,16,reldon,PRUDGE,z,,,,,,0.094309896,-0.388654514,0,0,0,,0,261,261,464,1,
,,,,,,,,,,,,,,,,,,5f6cc9299ff6940d0cce0b79,2020-12-01_16h19.05.916,lexical_decision_task_MP_exp2,2020.2.8,MacIntel,60,,z,1,0.63719,,,,,,,,0.63719,1,,,,,,386,NW,"ID",16,ancust,ANCUST,z,,,,,,0.094309896,-0.388654514,0,0,0,,0,262,262,325,1,
,,,,,,,,,,,,,,,,,,5f6cc9299ff6940d0cce0b79,2020-12-01_16h19.05.916,lexical_decision_task_MP_exp2,2020.2.8,MacIntel,60,,z,1,0.651475,,,,,,,,0.651475,1,,,,,,437,NW,UN,33,baitch,SNAPEL,z,,,,,,0.094309896,-0.388654514,0,0,0,,0,263,263,376,1,
,,,,,,,,,,,,,,,,,,5f6cc9299ff6940d0cce0b79,2020-12-01_16h19.05.916,lexical_decision_task_MP_exp2,2020.2.8,MacIntel,60,,z,1,0.474305,,,,,,,,0.474305,1,,,,,,391,NW,"ID",16,theldy,THELDY,z,,,,,,0.094309896,-0.388654514,0,0,0,,0,264,264,330,1,
,,,,,,,,,,,,,,,,,,5f6cc9299ff6940d0cce0b79,2020-12-01_16h19.05.916,lexical_decision_task_MP_exp2,2020.2.8,MacIntel,60,,z,1,0.45702,,,,,,,,0.45702,1,,,,,,478,NW,UN,33,pebric,ACRISE,z,,,,,,0.094309896,-0.388654514,0,0,0,,0,265,265,417,1,
,,,,,,,,,,,,,,,,,,5f6cc9299ff6940d0cce0b79,2020-12-01_16h19.05.916,lexical_decision_task_MP_exp2,2020.2.8,MacIntel,60,,z,1,0.752675,,,,,,,,0.752675,1,,,,,,396,NW,"ID",16,flengy,FLENGY,z,,,,,,0.094309896,-0.388654514,0,0,0,,0,266,266,335,1,
,,,,,,,,,,,,,,,,,,5f6cc9299ff6940d0cce0b79,2020-12-01_16h19.05.916,lexical_decision_task_MP_exp2,2020.2.8,MacIntel,60,,m,0,0.735245,,,,,,,,0.735245,0,,,,,,348,NW,"ID",33,dumple,DUMPLE,z,,,,,,0.094309896,-0.388654514,0,0,0,,0,267,267,287,1,
,,,,,,,,,,,,,,,,,,5f6cc9299ff6940d0cce0b79,2020-12-01_16h19.05.916,lexical_decision_task_MP_exp2,2020.2.8,MacIntel,60,,m,1,0.55123,,,,,,,,0.55123,1,,,,,,59,WORD,UN,16,pencil,SPLINT,m,,,,,,0.094309896,-0.388654514,0,0,0,,0,268,268,238,1,
,,,,,,,,,,,,,,,,,,5f6cc9299ff6940d0cce0b79,2020-12-01_16h19.05.916,lexical_decision_task_MP_exp2,2020.2.8,MacIntel,60,,z,1,0.56574,,,,,,,,0.56574,1,,,,,,470,NW,UN,33,nobest,CRUDIO,z,,,,,,0.094309896,-0.388654514,0,0,0,,0,269,269,409,1,
,,,,,,,,,,,,,,,,,,5f6cc9299ff6940d0cce0b79,2020-12-01_16h19.05.916,lexical_decision_task_MP_exp2,2020.2.8,MacIntel,60,,z,1,1.05681,,,,,,,,1.05681,1,,,,,,299,NW,UN,16,yarion,STURCH,z,,,,,,0.094309896,-0.388654514,0,0,0,,0,270,270,478,1,
,,,,,,,,,,,,,,,,,,5f6cc9299ff6940d0cce0b79,2020-12-01_16h19.05.916,lexical_decision_task_MP_exp2,2020.2.8,MacIntel,60,,z,1,1.168765,,,,,,,,1.168765,1,,,,,,433,NW,UN,33,pitrom,DRANCE,z,,,,,,0.094309896,-0.388654514,0,0,0,,0,271,271,372,1,
,,,,,,,,,,,,,,,,,,5f6cc9299ff6940d0cce0b79,2020-12-01_16h19.05.916,lexical_decision_task_MP_exp2,2020.2.8,MacIntel,60,,m,1,0.74937,,,,,,,,0.74937,1,,,,,,149,WORD,"ID",16,invade,INVADE,m,,,,,,0.094309896,-0.388654514,0,0,0,,0,272,272,88,1,
,,,,,,,,,,,,,,,,,,5f6cc9299ff6940d0cce0b79,2020-12-01_16h19.05.916,lexical_decision_task_MP_exp2,2020.2.8,MacIntel,60,,z,1,0.717995,,,,,,,,0.717995,1,,,,,,392,NW,"ID",16,rouncy,ROUNCY,z,,,,,,0.094309896,-0.388654514,0,0,0,,0,273,273,331,1,
,,,,,,,,,,,,,,,,,,5f6cc9299ff6940d0cce0b79,2020-12-01_16h19.05.916,lexical_decision_task_MP_exp2,2020.2.8,MacIntel,60,,m,1,0.55199,,,,,,,,0.55199,1,,,,,,223,WORD,UN,33,period,KIDNEY,m,,,,,,0.094309896,-0.388654514,0,0,0,,0,274,274,162,1,
,,,,,,,,,,,,,,,,,,5f6cc9299ff6940d0cce0b79,2020-12-01_16h19.05.916,lexical_decision_task_MP_exp2,2020.2.8,MacIntel,60,,m,1,0.484205,,,,,,,,0.484205,1,,,,,,43,WORD,UN,16,foster,TONGUE,m,,,,,,0.094309896,-0.388654514,0,0,0,,0,275,275,222,1,
,,,,,,,,,,,,,,,,,,5f6cc9299ff6940d0cce0b79,2020-12-01_16h19.05.916,lexical_decision_task_MP_exp2,2020.2.8,MacIntel,60,,z,1,0.66556,,,,,,,,0.66556,1,,,,,,445,NW,UN,33,runamo,MINKEL,z,,,,,,0.094309896,-0.388654514,0,0,0,,0,276,276,384,1,
,,,,,,,,,,,,,,,,,,5f6cc9299ff6940d0cce0b79,2020-12-01_16h19.05.916,lexical_decision_task_MP_exp2,2020.2.8,MacIntel,60,,m,1,0.5538,,,,,,,,0.5538,1,,,,,,104,WORD,"ID",33,studio,STUDIO,m,,,,,,0.094309896,-0.388654514,0,0,0,,0,277,277,43,1,
,,,,,,,,,,,,,,,,,,5f6cc9299ff6940d0cce0b79,2020-12-01_16h19.05.916,lexical_decision_task_MP_exp2,2020.2.8,MacIntel,60,,z,1,0.824205,,,,,,,,0.824205,1,,,,,,355,NW,"ID",33,zingly,ZINGLY,z,,,,,,0.094309896,-0.388654514,0,0,0,,0,278,278,294,1,
,,,,,,,,,,,,,,,,,,5f6cc9299ff6940d0cce0b79,2020-12-01_16h19.05.916,lexical_decision_task_MP_exp2,2020.2.8,MacIntel,60,,z,1,0.675555,,,,,,,,0.675555,1,,,,,,243,NW,UN,16,eatric,MUSIED,z,,,,,,0.094309896,-0.388654514,0,0,0,,0,279,279,422,1,
,,,,,,,,,,,,,,,,,,5f6cc9299ff6940d0cce0b79,2020-12-01_16h19.05.916,lexical_decision_task_MP_exp2,2020.2.8,MacIntel,60,,z,1,0.514425,,,,,,,,0.514425,1,,,,,,332,NW,"ID",33,vangue,VANGUE,z,,,,,,0.094309896,-0.388654514,0,0,0,,0,280,280,271,1,
,,,,,,,,,,,,,,,,,,5f6cc9299ff6940d0cce0b79,2020-12-01_16h19.05.916,lexical_decision_task_MP_exp2,2020.2.8,MacIntel,60,,z,0,0.505955,,,,,,,,0.505955,0,,,,,,122,WORD,"ID",16,linger,LINGER,m,,,,,,0.094309896,-0.388654514,0,0,0,,0,281,281,61,1,
,,,,,,,,,,,,,,,,,,5f6cc9299ff6940d0cce0b79,2020-12-01_16h19.05.916,lexical_decision_task_MP_exp2,2020.2.8,MacIntel,60,,z,1,0.533675,,,,,,,,0.533675,1,,,,,,312,NW,"ID",33,nerawl,NERAWL,z,,,,,,0.094309896,-0.388654514,0,0,0,,0,282,282,251,1,
,,,,,,,,,,,,,,,,,,5f6cc9299ff6940d0cce0b79,2020-12-01_16h19.05.916,lexical_decision_task_MP_exp2,2020.2.8,MacIntel,60,,m,1,0.52349,,,,,,,,0.52349,1,,,,,,29,WORD,UN,16,orient,SKETCH,m,,,,,,0.094309896,-0.388654514,0,0,0,,0,283,283,208,1,
,,,,,,,,,,,,,,,,,,5f6cc9299ff6940d0cce0b79,2020-12-01_16h19.05.916,lexical_decision_task_MP_exp2,2020.2.8,MacIntel,60,,m,1,0.46613,,,,,,,,0.46613,1,,,,,,14,WORD,UN,16,orange,ALMOST,m,,,,,,0.094309896,-0.388654514,0,0,0,,0,284,284,193,1,
,,,,,,,,,,,,,,,,,,5f6cc9299ff6940d0cce0b79,2020-12-01_16h19.05.916,lexical_decision_task_MP_exp2,2020.2.8,MacIntel,60,,m,1,0.450115,,,,,,,,0.450115,1,,,,,,70,WORD,"ID",33,square,SQUARE,m,,,,,,0.094309896,-0.388654514,0,0,0,,0,285,285,9,1,
,,,,,,,,,,,,,,,,,,5f6cc9299ff6940d0cce0b79,2020-12-01_16h19.05.916,lexical_decision_task_MP_exp2,2020.2.8,MacIntel,60,,m,1,0.796875,,,,,,,,0.796875,1,,,,,,71,WORD,"ID",33,garden,GARDEN,m,,,,,,0.094309896,-0.388654514,0,0,0,,0,286,286,10,1,
,,,,,,,,,,,,,,,,,,5f6cc9299ff6940d0cce0b79,2020-12-01_16h19.05.916,lexical_decision_task_MP_exp2,2020.2.8,MacIntel,60,,z,1,0.67505,,,,,,,,0.67505,1,,,,,,456,NW,UN,33,wanigh,BROGET,z,,,,,,0.094309896,-0.388654514,0,0,0,,0,287,287,395,1,
,,,,,,,,,,,,,,,,,,5f6cc9299ff6940d0cce0b79,2020-12-01_16h19.05.916,lexical_decision_task_MP_exp2,2020.2.8,MacIntel,60,,m,1,0.64815,,,,,,,,0.64815,1,,,,,,77,WORD,"ID",33,racket,RACKET,m,,,,,,0.094309896,-0.388654514,0,0,0,,0,288,288,16,1,
,,,,,,,,,,,,,,,,,,5f6cc9299ff6940d0cce0b79,2020-12-01_16h19.05.916,lexical_decision_task_MP_exp2,2020.2.8,MacIntel,60,,m,1,0.685535,,,,,,,,0.685535,1,,,,,,185,WORD,UN,33,portal,BOTHER,m,,,,,,0.094309896,-0.388654514,0,0,0,,0,289,289,124,1,
,,,,,,,,,,,,,,,,,,5f6cc9299ff6940d0cce0b79,2020-12-01_16h19.05.916,lexical_decision_task_MP_exp2,2020.2.8,MacIntel,60,,m,1,0.599675,,,,,,,,0.599675,1,,,,,,32,WORD,UN,16,scream,BUCKLE,m,,,,,,0.094309896,-0.388654514,0,0,0,,0,290,290,211,1,
,,,,,,,,,,,,,,,,,,5f6cc9299ff6940d0cce0b79,2020-12-01_16h19.05.916,lexical_decision_task_MP_exp2,2020.2.8,MacIntel,60,,m,1,0.500235,,,,,,,,0.500235,1,,,,,,230,WORD,UN,33,mother,FRINGE,m,,,,,,0.094309896,-0.388654514,0,0,0,,0,291,291,169,1,
,,,,,,,,,,,,,,,,,,5f6cc9299ff6940d0cce0b79,2020-12-01_16h19.05.916,lexical_decision_task_MP_exp2,2020.2.8,MacIntel,60,,z,1,0.73233,,,,,,,,0.73233,1,,,,,,401,NW,"ID",16,mustil,MUSTIL,z,,,,,,0.094309896,-0.388654514,0,0,0,,0,292,292,340,1,
,,,,,,,,,,,,,,,,,,5f6cc9299ff6940d0cce0b79,2020-12-01_16h19.05.916,lexical_decision_task_MP_exp2,2020.2.8,MacIntel,60,,m,1,0.532245,,,,,,,,0.532245,1,,,,,,133,WORD,"ID",16,chrome,CHROME,m,,,,,,0.094309896,-0.388654514,0,0,0,,0,293,293,72,1,
,,,,,,,,,,,,,,,,,,5f6cc9299ff6940d0cce0b79,2020-12-01_16h19.05.916,lexical_decision_task_MP_exp2,2020.2.8,MacIntel,60,,m,1,0.634115,,,,,,,,0.634115,1,,,,,,110,WORD,"ID",33,polite,POLITE,m,,,,,,0.094309896,-0.388654514,0,0,0,,0,294,294,49,1,
,,,,,,,,,,,,,,,,,,5f6cc9299ff6940d0cce0b79,2020-12-01_16h19.05.916,lexical_decision_task_MP_exp2,2020.2.8,MacIntel,60,,z,1,0.69694,,,,,,,,0.69694,1,,,,,,294,NW,UN,16,gleath,INHORT,z,,,,,,0.094309896,-0.388654514,0,0,0,,0,295,295,473,1,
,,,,,,,,,,,,,,,,,,5f6cc9299ff6940d0cce0b79,2020-12-01_16h19.05.916,lexical_decision_task_MP_exp2,2020.2.8,MacIntel,60,,m,1,0.570735,,,,,,,,0.570735,1,,,,,,157,WORD,"ID",16,dragon,DRAGON,m,,,,,,0.094309896,-0.388654514,0,0,0,,0,296,296,96,1,
,,,,,,,,,,,,,,,,,,5f6cc9299ff6940d0cce0b79,2020-12-01_16h19.05.916,lexical_decision_task_MP_exp2,2020.2.8,MacIntel,60,,z,1,0.763175,,,,,,,,0.763175,1,,,,,,357,NW,"ID",33,derain,DERAIN,z,,,,,,0.094309896,-0.388654514,0,0,0,,0,297,297,296,1,
,,,,,,,,,,,,,,,,,,5f6cc9299ff6940d0cce0b79,2020-12-01_16h19.05.916,lexical_decision_task_MP_exp2,2020.2.8,MacIntel,60,,z,1,0.667515,,,,,,,,0.667515,1,,,,,,475,NW,UN,33,josted,PEBRIC,z,,,,,,0.094309896,-0.388654514,0,0,0,,0,298,298,414,1,
,,,,,,,,,,,,,,,,,,5f6cc9299ff6940d0cce0b79,2020-12-01_16h19.05.916,lexical_decision_task_MP_exp2,2020.2.8,MacIntel,60,,z,1,0.532715,,,,,,,,0.532715,1,,,,,,273,NW,UN,16,fumblo,SORTEL,z,,,,,,0.094309896,-0.388654514,0,0,0,,0,299,299,452,1,
,,,,,,,,,,,,,,,,,,5f6cc9299ff6940d0cce0b79,2020-12-01_16h19.05.916,lexical_decision_task_MP_exp2,2020.2.8,MacIntel,60,,m,1,0.63347,,,,,,,,0.63347,1,,,,,,196,WORD,UN,33,stream,CREDIT,m,,,,,,0.094309896,-0.388654514,0,0,0,,0,300,300,135,1,
,,,,,,,,,,,,,,,,,,5f6cc9299ff6940d0cce0b79,2020-12-01_16h19.05.916,lexical_decision_task_MP_exp2,2020.2.8,MacIntel,60,,z,0,0.669355,,,,,,,,0.669355,0,,,,,,114,WORD,"ID",33,placid,PLACID,m,,,,,,0.094309896,-0.388654514,0,0,0,,0,301,301,53,1,
,,,,,,,,,,,,,,,,,,5f6cc9299ff6940d0cce0b79,2020-12-01_16h19.05.916,lexical_decision_task_MP_exp2,2020.2.8,MacIntel,60,,m,1,0.716975,,,,,,,,0.716975,1,,,,,,130,WORD,"ID",16,stupid,STUPID,m,,,,,,0.094309896,-0.388654514,0,0,0,,0,302,302,69,1,
,,,,,,,,,,,,,,,,,,5f6cc9299ff6940d0cce0b79,2020-12-01_16h19.05.916,lexical_decision_task_MP_exp2,2020.2.8,MacIntel,60,,m,0,0.61973,,,,,,,,0.61973,0,,,,,,424,NW,UN,33,frudge,PRAILE,z,,,,,,0.094309896,-0.388654514,0,0,0,,0,303,303,363,1,
,,,,,,,,,,,,,,,,,,5f6cc9299ff6940d0cce0b79,2020-12-01_16h19.05.916,lexical_decision_task_MP_exp2,2020.2.8,MacIntel,60,,z,1,0.905585,,,,,,,,0.905585,1,,,,,,374,NW,"ID",16,sliant,SLIANT,z,,,,,,0.094309896,-0.388654514,0,0,0,,0,304,304,313,1,
,,,,,,,,,,,,,,,,,,5f6cc9299ff6940d0cce0b79,2020-12-01_16h19.05.916,lexical_decision_task_MP_exp2,2020.2.8,MacIntel,60,,z,1,0.95608,,,,,,,,0.95608,1,,,,,,345,NW,"ID",33,absend,ABSEND,z,,,,,,0.094309896,-0.388654514,0,0,0,,0,305,305,284,1,
,,,,,,,,,,,,,,,,,,5f6cc9299ff6940d0cce0b79,2020-12-01_16h19.05.916,lexical_decision_task_MP_exp2,2020.2.8,MacIntel,60,,m,1,0.703245,,,,,,,,0.703245,1,,,,,,175,WORD,"ID",16,fabric,FABRIC,m,,,,,,0.094309896,-0.388654514,0,0,0,,0,306,306,114,1,
,,,,,,,,,,,,,,,,,,5f6cc9299ff6940d0cce0b79,2020-12-01_16h19.05.916,lexical_decision_task_MP_exp2,2020.2.8,MacIntel,60,,z,1,1.00144,,,,,,,,1.00144,1,,,,,,409,NW,"ID",16,elopia,ELOPIA,z,,,,,,0.094309896,-0.388654514,0,0,0,,0,307,307,348,1,
,,,,,,,,,,,,,,,,,,5f6cc9299ff6940d0cce0b79,2020-12-01_16h19.05.916,lexical_decision_task_MP_exp2,2020.2.8,MacIntel,60,,m,0,0.639435,,,,,,,,0.639435,0,,,,,,416,NW,"ID",16,pathel,PATHEL,z,,,,,,0.094309896,-0.388654514,0,0,0,,0,308,308,355,1,
,,,,,,,,,,,,,,,,,,5f6cc9299ff6940d0cce0b79,2020-12-01_16h19.05.916,lexical_decision_task_MP_exp2,2020.2.8,MacIntel,60,,m,1,0.683975,,,,,,,,0.683975,1,,,,,,236,WORD,UN,33,grumpy,PIRATE,m,,,,,,0.094309896,-0.388654514,0,0,0,,0,309,309,175,1,
,,,,,,,,,,,,,,,,,,5f6cc9299ff6940d0cce0b79,2020-12-01_16h19.05.916,lexical_decision_task_MP_exp2,2020.2.8,MacIntel,60,,z,1,0.717105,,,,,,,,0.717105,1,,,,,,394,NW,"ID",16,spaqux,SPAQUX,z,,,,,,0.094309896,-0.388654514,0,0,0,,0,310,310,333,1,
,,,,,,,,,,,,,,,,,,5f6cc9299ff6940d0cce0b79,2020-12-01_16h19.05.916,lexical_decision_task_MP_exp2,2020.2.8,MacIntel,60,,z,1,0.85104,,,,,,,,0.85104,1,,,,,,381,NW,"ID",16,huniek,HUNIEK,z,,,,,,0.094309896,-0.388654514,0,0,0,,0,311,311,320,1,
,,,,,,,,,,,,,,,,,,5f6cc9299ff6940d0cce0b79,2020-12-01_16h19.05.916,lexical_decision_task_MP_exp2,2020.2.8,MacIntel,60,,z,1,0.63391,,,,,,,,0.63391,1,,,,,,393,NW,"ID",16,ganous,GANOUS,z,,,,,,0.094309896,-0.388654514,0,0,0,,0,312,312,332,1,
,,,,,,,,,,,,,,,,,,5f6cc9299ff6940d0cce0b79,2020-12-01_16h19.05.916,lexical_decision_task_MP_exp2,2020.2.8,MacIntel,60,,m,1,0.68286,,,,,,,,0.68286,1,,,,,,7,WORD,UN,16,abrupt,ANCHOR,m,,,,,,0.094309896,-0.388654514,0,0,0,,0,313,313,186,1,
,,,,,,,,,,,,,,,,,,5f6cc9299ff6940d0cce0b79,2020-12-01_16h19.05.916,lexical_decision_task_MP_exp2,2020.2.8,MacIntel,60,,m,1,0.483775,,,,,,,,0.483775,1,,,,,,126,WORD,"ID",16,enough,ENOUGH,m,,,,,,0.094309896,-0.388654514,0,0,0,,0,314,314,65,1,
,,,,,,,,,,,,,,,,,,5f6cc9299ff6940d0cce0b79,2020-12-01_16h19.05.916,lexical_decision_task_MP_exp2,2020.2.8,MacIntel,60,,z,1,0.683155,,,,,,,,0.683155,1,,,,,,472,NW,UN,33,gorbie,CIGNEY,z,,,,,,0.094309896,-0.388654514,0,0,0,,0,315,315,411,1,
,,,,,,,,,,,,,,,,,,5f6cc9299ff6940d0cce0b79,2020-12-01_16h19.05.916,lexical_decision_task_MP_exp2,2020.2.8,MacIntel,60,,z,1,0.733655,,,,,,,,0.733655,1,,,,,,476,NW,UN,33,photie,JOSTED,z,,,,,,0.094309896,-0.388654514,0,0,0,,0,316,316,415,1,
,,,,,,,,,,,,,,,,,,5f6cc9299ff6940d0cce0b79,2020-12-01_16h19.05.916,lexical_decision_task_MP_exp2,2020.2.8,MacIntel,60,,z,1,0.566125,,,,,,,,0.566125,1,,,,,,395,NW,"ID",16,colury,COLURY,z,,,,,,0.094309896,-0.388654514,0,0,0,,0,317,317,334,1,
,,,,,,,,,,,,,,,,,,5f6cc9299ff6940d0cce0b79,2020-12-01_16h19.05.916,lexical_decision_task_MP_exp2,2020.2.8,MacIntel,60,,z,1,0.499255,,,,,,,,0.499255,1,,,,,,270,NW,UN,16,aubrid,WRIMSY,z,,,,,,0.094309896,-0.388654514,0,0,0,,0,318,318,449,1,
,,,,,,,,,,,,,,,,,,5f6cc9299ff6940d0cce0b79,2020-12-01_16h19.05.916,lexical_decision_task_MP_exp2,2020.2.8,MacIntel,60,,z,1,0.69137,,,,,,,,0.69137,1,,,,,,421,NW,UN,33,alcoud,KNISMA,z,,,,,,0.094309896,-0.388654514,0,0,0,,0,319,319,360,1,
,,,,,,,,,,,,,,,,,,5f6cc9299ff6940d0cce0b79,2020-12-01_16h19.05.916,lexical_decision_task_MP_exp2,2020.2.8,MacIntel,60,,z,1,0.66602,,,,,,,,0.66602,1,,,,,,464,NW,UN,33,whivex,CHAITE,z,,,,,,0.094309896,-0.388654514,0,0,0,,0,320,320,403,1,
,,,,,,,,,,,,,,,,,,5f6cc9299ff6940d0cce0b79,2020-12-01_16h19.05.916,lexical_decision_task_MP_exp2,2020.2.8,MacIntel,60,,m,1,0.86719,,,,,,,,0.86719,1,,,,,,231,WORD,UN,33,inject,EXPORT,m,,,,,,0.094309896,-0.388654514,0,0,0,,0,321,321,170,1,
,,,,,,,,,,,,,,,,,,5f6cc9299ff6940d0cce0b79,2020-12-01_16h19.05.916,lexical_decision_task_MP_exp2,2020.2.8,MacIntel,60,,m,1,0.484235,,,,,,,,0.484235,1,,,,,,207,WORD,UN,33,hockey,WREATH,m,,,,,,0.094309896,-0.388654514,0,0,0,,0,322,322,146,1,
,,,,,,,,,,,,,,,,,,5f6cc9299ff6940d0cce0b79,2020-12-01_16h19.05.916,lexical_decision_task_MP_exp2,2020.2.8,MacIntel,60,,z,1,0.69908,,,,,,,,0.69908,1,,,,,,333,NW,"ID",33,catrie,CATRIE,z,,,,,,0.094309896,-0.388654514,0,0,0,,0,323,323,272,1,
,,,,,,,,,,,,,,,,,,5f6cc9299ff6940d0cce0b79,2020-12-01_16h19.05.916,lexical_decision_task_MP_exp2,2020.2.8,MacIntel,60,,m,1,0.53889,,,,,,,,0.53889,1,,,,,,187,WORD,UN,33,social,COURSE,m,,,,,,0.094309896,-0.388654514,0,0,0,,0,324,324,126,1,
,,,,,,,,,,,,,,,,,,5f6cc9299ff6940d0cce0b79,2020-12-01_16h19.05.916,lexical_decision_task_MP_exp2,2020.2.8,MacIntel,60,,m,1,0.50818,,,,,,,,0.50818,1,,,,,,192,WORD,UN,33,object,PLAGUE,m,,,,,,0.094309896,-0.388654514,0,0,0,,0,325,325,131,1,
,,,,,,,,,,,,,,,,,,5f6cc9299ff6940d0cce0b79,2020-12-01_16h19.05.916,lexical_decision_task_MP_exp2,2020.2.8,MacIntel,60,,m,1,0.58602,,,,,,,,0.58602,1,,,,,,216,WORD,UN,33,liquor,BEHALF,m,,,,,,0.094309896,-0.388654514,0,0,0,,0,326,326,155,1,
,,,,,,,,,,,,,,,,,,5f6cc9299ff6940d0cce0b79,2020-12-01_16h19.05.916,lexical_decision_task_MP_exp2,2020.2.8,MacIntel,60,,z,1,0.667175,,,,,,,,0.667175,1,,,,,,272,NW,UN,16,sortel,DAMILT,z,,,,,,0.094309896,-0.388654514,0,0,0,,0,327,327,451,1,
,,,,,,,,,,,,,,,,,,5f6cc9299ff6940d0cce0b79,2020-12-01_16h19.05.916,lexical_decision_task_MP_exp2,2020.2.8,MacIntel,60,,z,1,0.69236,,,,,,,,0.69236,1,,,,,,319,NW,"ID",33,zomber,ZOMBER,z,,,,,,0.094309896,-0.388654514,0,0,0,,0,328,328,258,1,
,,,,,,,,,,,,,,,,,,5f6cc9299ff6940d0cce0b79,2020-12-01_16h19.05.916,lexical_decision_task_MP_exp2,2020.2.8,MacIntel,60,,m,1,0.76588,,,,,,,,0.76588,1,,,,,,21,WORD,UN,16,jockey,SIMPLE,m,,,,,,0.094309896,-0.388654514,0,0,0,,0,329,329,200,1,
,,,,,,,,,,,,,,,,,,5f6cc9299ff6940d0cce0b79,2020-12-01_16h19.05.916,lexical_decision_task_MP_exp2,2020.2.8,MacIntel,60,,m,1,0.56301,,,,,,,,0.56301,1,,,,,,164,WORD,"ID",16,market,MARKET,m,,,,,,0.094309896,-0.388654514,0,0,0,,0,330,330,103,1,
,,,,,,,,,,,,,,,,,,5f6cc9299ff6940d0cce0b79,2020-12-01_16h19.05.916,lexical_decision_task_MP_exp2,2020.2.8,MacIntel,60,,z,1,0.80617,,,,,,,,0.80617,1,,,,,,455,NW,UN,33,broget,TONDLE,z,,,,,,0.094309896,-0.388654514,0,0,0,,0,331,331,394,1,
,,,,,,,,,,,,,,,,,,5f6cc9299ff6940d0cce0b79,2020-12-01_16h19.05.916,lexical_decision_task_MP_exp2,2020.2.8,MacIntel,60,,z,1,0.716595,,,,,,,,0.716595,1,,,,,,415,NW,"ID",16,higsta,HIGSTA,z,,,,,,0.094309896,-0.388654514,0,0,0,,0,332,332,354,1,
,,,,,,,,,,,,,,,,,,5f6cc9299ff6940d0cce0b79,2020-12-01_16h19.05.916,lexical_decision_task_MP_exp2,2020.2.8,MacIntel,60,,m,1,0.6204,,,,,,,,0.6204,1,,,,,,112,WORD,"ID",33,breath,BREATH,m,,,,,,0.094309896,-0.388654514,0,0,0,,0,333,333,51,1,
,,,,,,,,,,,,,,,,,,5f6cc9299ff6940d0cce0b79,2020-12-01_16h19.05.916,lexical_decision_task_MP_exp2,2020.2.8,MacIntel,60,,m,1,1.132465,,,,,,,,1.132465,1,,,,,,68,WORD,"ID",33,fumble,FUMBLE,m,,,,,,0.094309896,-0.388654514,0,0,0,,0,334,334,7,1,
,,,,,,,,,,,,,,,,,,5f6cc9299ff6940d0cce0b79,2020-12-01_16h19.05.916,lexical_decision_task_MP_exp2,2020.2.8,MacIntel,60,,z,1,0.674315,,,,,,,,0.674315,1,,,,,,446,NW,UN,33,gircue,RUNAMO,z,,,,,,0.094309896,-0.388654514,0,0,0,,0,335,335,385,1,
,,,,,,,,,,,,,,,,,,5f6cc9299ff6940d0cce0b79,2020-12-01_16h19.05.916,lexical_decision_task_MP_exp2,2020.2.8,MacIntel,60,,z,1,1.10123,,,,,,,,1.10123,1,,,,,,316,NW,"ID",33,scregm,SCREGM,z,,,,,,0.094309896,-0.388654514,0,0,0,,0,336,336,255,1,
,,,,,,,,,,,,,,,,,,5f6cc9299ff6940d0cce0b79,2020-12-01_16h19.05.916,lexical_decision_task_MP_exp2,2020.2.8,MacIntel,60,,m,1,0.799095,,,,,,,,0.799095,1,,,,,,105,WORD,"ID",33,number,NUMBER,m,,,,,,0.094309896,-0.388654514,0,0,0,,0,337,337,44,1,
,,,,,,,,,,,,,,,,,,5f6cc9299ff6940d0cce0b79,2020-12-01_16h19.05.916,lexical_decision_task_MP_exp2,2020.2.8,MacIntel,60,,z,1,0.7,,,,,,,,0.7,1,,,,,,430,NW,UN,33,chrums,CAROEY,z,,,,,,0.094309896,-0.388654514,0,0,0,,0,338,338,369,1,
,,,,,,,,,,,,,,,,,,5f6cc9299ff6940d0cce0b79,2020-12-01_16h19.05.916,lexical_decision_task_MP_exp2,2020.2.8,MacIntel,60,,z,1,0.733855,,,,,,,,0.733855,1,,,,,,293,NW,UN,16,inhort,SWANCE,z,,,,,,0.094309896,-0.388654514,0,0,0,,0,339,339,472,1,
,,,,,,,,,,,,,,,,,,5f6cc9299ff6940d0cce0b79,2020-12-01_16h19.05.916,lexical_decision_task_MP_exp2,2020.2.8,MacIntel,60,,m,1,0.81685,,,,,,,,0.81685,1,,,,,,58,WORD,UN,16,splint,FOSTER,m,,,,,,0.094309896,-0.388654514,0,0,0,,0,340,340,237,1,
,,,,,,,,,,,,,,,,,,5f6cc9299ff6940d0cce0b79,2020-12-01_16h19.05.916,lexical_decision_task_MP_exp2,2020.2.8,MacIntel,60,,z,1,0.64067,,,,,,,,0.64067,1,,,,,,441,NW,UN,33,aboune,RASTOE,z,,,,,,0.094309896,-0.388654514,0,0,0,,0,341,341,380,1,
,,,,,,,,,,,,,,,,,,5f6cc9299ff6940d0cce0b79,2020-12-01_16h19.05.916,lexical_decision_task_MP_exp2,2020.2.8,MacIntel,60,,z,1,0.585175,,,,,,,,0.585175,1,,,,,,315,NW,"ID",33,laston,LASTON,z,,,,,,0.094309896,-0.388654514,0,0,0,,0,342,342,254,1,
,,,,,,,,,,,,,,,,,,5f6cc9299ff6940d0cce0b79,2020-12-01_16h19.05.916,lexical_decision_task_MP_exp2,2020.2.8,MacIntel,60,,z,1,0.633425,,,,,,,,0.633425,1,,,,,,398,NW,"ID",16,blunde,BLUNDE,z,,,,,,0.094309896,-0.388654514,0,0,0,,0,343,343,337,1,
,,,,,,,,,,,,,,,,,,5f6cc9299ff6940d0cce0b79,2020-12-01_16h19.05.916,lexical_decision_task_MP_exp2,2020.2.8,MacIntel,60,,m,1,0.76387,,,,,,,,0.76387,1,,,,,,195,WORD,UN,33,credit,RESIGN,m,,,,,,0.094309896,-0.388654514,0,0,0,,0,344,344,134,1,
,,,,,,,,,,,,,,,,,,5f6cc9299ff6940d0cce0b79,2020-12-01_16h19.05.916,lexical_decision_task_MP_exp2,2020.2.8,MacIntel,60,,z,1,0.653455,,,,,,,,0.653455,1,,,,,,457,NW,UN,33,barcet,WANIGH,z,,,,,,0.094309896,-0.388654514,0,0,0,,0,345,345,396,1,
,,,,,,,,,,,,,,,,,,5f6cc9299ff6940d0cce0b79,2020-12-01_16h19.05.916,lexical_decision_task_MP_exp2,2020.2.8,MacIntel,60,,z,1,0.683385,,,,,,,,0.683385,1,,,,,,244,NW,UN,16,anougs,EATRIC,z,,,,,,0.094309896,-0.388654514,0,0,0,,0,346,346,423,1,
,,,,,,,,,,,,,,,,,,5f6cc9299ff6940d0cce0b79,2020-12-01_16h19.05.916,lexical_decision_task_MP_exp2,2020.2.8,MacIntel,60,,m,1,0.638305,,,,,,,,0.638305,1,,,,,,79,WORD,"ID",33,theory,THEORY,m,,,,,,0.094309896,-0.388654514,0,0,0,,0,347,347,18,1,
,,,,,,,,,,,,,,,,,,5f6cc9299ff6940d0cce0b79,2020-12-01_16h19.05.916,lexical_decision_task_MP_exp2,2020.2.8,MacIntel,60,,m,1,0.549735,,,,,,,,0.549735,1,,,,,,212,WORD,UN,33,squeal,VERIFY,m,,,,,,0.094309896,-0.388654514,0,0,0,,0,348,348,151,1,
,,,,,,,,,,,,,,,,,,5f6cc9299ff6940d0cce0b79,2020-12-01_16h19.05.916,lexical_decision_task_MP_exp2,2020.2.8,MacIntel,60,,z,1,0.647525,,,,,,,,0.647525,1,,,,,,283,NW,UN,16,shaple,VERALF,z,,,,,,0.094309896,-0.388654514,0,0,0,,0,349,349,462,1,
,,,,,,,,,,,,,,,,,,5f6cc9299ff6940d0cce0b79,2020-12-01_16h19.05.916,lexical_decision_task_MP_exp2,2020.2.8,MacIntel,60,,m,1,1.115865,,,,,,,,1.115865,1,,,,,,4,WORD,UN,16,plunge,TRENCH,m,,,,,,0.094309896,-0.388654514,0,0,0,,0,350,350,183,1,
,,,,,,,,,,,,,,,,,,5f6cc9299ff6940d0cce0b79,2020-12-01_16h19.05.916,lexical_decision_task_MP_exp2,2020.2.8,MacIntel,60,,m,1,0.589165,,,,,,,,0.589165,1,,,,,,26,WORD,UN,16,butler,SPRINT,m,,,,,,0.094309896,-0.388654514,0,0,0,,0,351,351,205,1,
,,,,,,,,,,,,,,,,,,5f6cc9299ff6940d0cce0b79,2020-12-01_16h19.05.916,lexical_decision_task_MP_exp2,2020.2.8,MacIntel,60,,z,1,0.73498,,,,,,,,0.73498,1,,,,,,318,NW,"ID",33,reagly,REAGLY,z,,,,,,0.094309896,-0.388654514,0,0,0,,0,352,352,257,1,
,,,,,,,,,,,,,,,,,,5f6cc9299ff6940d0cce0b79,2020-12-01_16h19.05.916,lexical_decision_task_MP_exp2,2020.2.8,MacIntel,60,,z,1,0.60056,,,,,,,,0.60056,1,,,,,,241,NW,UN,16,unwert,SMENCO,z,,,,,,0.094309896,-0.388654514,0,0,0,,0,353,353,420,1,
,,,,,,,,,,,,,,,,,,5f6cc9299ff6940d0cce0b79,2020-12-01_16h19.05.916,lexical_decision_task_MP_exp2,2020.2.8,MacIntel,60,,z,1,0.51679,,,,,,,,0.51679,1,,,,,,400,NW,"ID",16,wearox,WEAROX,z,,,,,,0.094309896,-0.388654514,0,0,0,,0,354,354,339,1,
,,,,,,,,,,,,,,,,,,5f6cc9299ff6940d0cce0b79,2020-12-01_16h19.05.916,lexical_decision_task_MP_exp2,2020.2.8,MacIntel,60,,z,1,0.65059,,,,,,,,0.65059,1,,,,,,308,NW,"ID",33,psetch,PSETCH,z,,,,,,0.094309896,-0.388654514,0,0,0,,0,355,355,247,1,
,,,,,,,,,,,,,,,,,,5f6cc9299ff6940d0cce0b79,2020-12-01_16h19.05.916,lexical_decision_task_MP_exp2,2020.2.8,MacIntel,60,,z,1,0.84987,,,,,,,,0.84987,1,,,,,,295,NW,UN,16,beinch,GLEATH,z,,,,,,0.094309896,-0.388654514,0,0,0,,0,356,356,474,1,
,,,,,,,,,,,,,,,,,,5f6cc9299ff6940d0cce0b79,2020-12-01_16h19.05.916,lexical_decision_task_MP_exp2,2020.2.8,MacIntel,60,,m,1,0.63323,,,,,,,,0.63323,1,,,,,,52,WORD,UN,16,police,IMPOSE,m,,,,,,0.094309896,-0.388654514,0,0,0,,0,357,357,231,1,
,,,,,,,,,,,,,,,,,,5f6cc9299ff6940d0cce0b79,2020-12-01_16h19.05.916,lexical_decision_task_MP_exp2,2020.2.8,MacIntel,60,,z,1,0.68249,,,,,,,,0.68249,1,,,,,,403,NW,"ID",16,bruats,BRUATS,z,,,,,,0.094309896,-0.388654514,0,0,0,,0,358,358,342,1,
,,,,,,,,,,,,,,,,,,5f6cc9299ff6940d0cce0b79,2020-12-01_16h19.05.916,lexical_decision_task_MP_exp2,2020.2.8,MacIntel,60,,z,1,0.602045,,,,,,,,0.602045,1,,,,,,269,NW,UN,16,wrimsy,ORCHET,z,,,,,,0.094309896,-0.388654514,0,0,0,,0,359,359,448,1,
,,,,,,,,,,,,,,,,,,5f6cc9299ff6940d0cce0b79,2020-12-01_16h19.05.916,lexical_decision_task_MP_exp2,2020.2.8,MacIntel,60,,z,1,0.81547,,,,,,,,0.81547,1,,,,,,257,NW,UN,16,poluth,VENIOD,z,,,,,,0.094309896,-0.388654514,0,0,0,,0,360,360,436,1,
,,,,,,,,,,,,,,,,,,5f6cc9299ff6940d0cce0b79,2020-12-01_16h19.05.916,lexical_decision_task_MP_exp2,2020.2.8,MacIntel,60,,m,1,1.105395,,,,,,,,1.105395,1,,,,,,203,WORD,UN,33,burden,PHRASE,m,,,,,,0.094309896,-0.388654514,0,0,0,,0,361,361,142,1,
,,,,,,,,,,,,,,,,,,5f6cc9299ff6940d0cce0b79,2020-12-01_16h19.05.916,lexical_decision_task_MP_exp2,2020.2.8,MacIntel,60,,m,0,0.55814,,,,,,,,0.55814,0,,,,,,368,NW,"ID",16,hornal,HORNAL,z,,,,,,0.094309896,-0.388654514,0,0,0,space,0,362,362,307,1,8.74054
,,,,,,,,,,,,,,,,,,5f6cc9299ff6940d0cce0b79,2020-12-01_16h19.05.916,lexical_decision_task_MP_exp2,2020.2.8,MacIntel,60,,z,1,0.617095,,,,,,,,0.617095,1,,,,,,477,NW,UN,33,lobush,PHOTIE,z,,,,,,0.094309896,-0.388654514,0,0,0,,0,363,363,416,1,
,,,,,,,,,,,,,,,,,,5f6cc9299ff6940d0cce0b79,2020-12-01_16h19.05.916,lexical_decision_task_MP_exp2,2020.2.8,MacIntel,60,,z,1,0.633845,,,,,,,,0.633845,1,,,,,,314,NW,"ID",33,sprine,SPRINE,z,,,,,,0.094309896,-0.388654514,0,0,0,,0,364,364,253,1,
,,,,,,,,,,,,,,,,,,5f6cc9299ff6940d0cce0b79,2020-12-01_16h19.05.916,lexical_decision_task_MP_exp2,2020.2.8,MacIntel,60,,z,1,0.6512,,,,,,,,0.6512,1,,,,,,442,NW,UN,33,dorsex,ABOUNE,z,,,,,,0.094309896,-0.388654514,0,0,0,,0,365,365,381,1,
,,,,,,,,,,,,,,,,,,5f6cc9299ff6940d0cce0b79,2020-12-01_16h19.05.916,lexical_decision_task_MP_exp2,2020.2.8,MacIntel,60,,z,1,0.48894,,,,,,,,0.48894,1,,,,,,408,NW,"ID",16,hurnia,HURNIA,z,,,,,,0.094309896,-0.388654514,0,0,0,,0,366,366,347,1,
,,,,,,,,,,,,,,,,,,5f6cc9299ff6940d0cce0b79,2020-12-01_16h19.05.916,lexical_decision_task_MP_exp2,2020.2.8,MacIntel,60,,z,1,0.55733,,,,,,,,0.55733,1,,,,,,262,NW,UN,16,dolica,QUILEW,z,,,,,,0.094309896,-0.388654514,0,0,0,,0,367,367,441,1,
,,,,,,,,,,,,,,,,,,5f6cc9299ff6940d0cce0b79,2020-12-01_16h19.05.916,lexical_decision_task_MP_exp2,2020.2.8,MacIntel,60,,z,1,0.51669,,,,,,,,0.51669,1,,,,,,302,NW,"ID",33,miluer,MILUER,z,,,,,,0.094309896,-0.388654514,0,0,0,,0,368,368,241,1,
,,,,,,,,,,,,,,,,,,5f6cc9299ff6940d0cce0b79,2020-12-01_16h19.05.916,lexical_decision_task_MP_exp2,2020.2.8,MacIntel,60,,z,1,0.458925,,,,,,,,0.458925,1,,,,,,274,NW,UN,16,sleirt,FUMBLO,z,,,,,,0.094309896,-0.388654514,0,0,0,,0,369,369,453,1,
,,,,,,,,,,,,,,,,,,5f6cc9299ff6940d0cce0b79,2020-12-01_16h19.05.916,lexical_decision_task_MP_exp2,2020.2.8,MacIntel,60,,m,1,0.675925,,,,,,,,0.675925,1,,,,,,211,WORD,UN,33,verify,INFECT,m,,,,,,0.094309896,-0.388654514,0,0,0,,0,370,370,150,1,
,,,,,,,,,,,,,,,,,,5f6cc9299ff6940d0cce0b79,2020-12-01_16h19.05.916,lexical_decision_task_MP_exp2,2020.2.8,MacIntel,60,,z,1,0.59117,,,,,,,,0.59117,1,,,,,,397,NW,"ID",16,camble,CAMBLE,z,,,,,,0.094309896,-0.388654514,0,0,0,,0,371,371,336,1,
,,,,,,,,,,,,,,,,,,5f6cc9299ff6940d0cce0b79,2020-12-01_16h19.05.916,lexical_decision_task_MP_exp2,2020.2.8,MacIntel,60,,m,1,0.45531,,,,,,,,0.45531,1,,,,,,83,WORD,"ID",33,result,RESULT,m,,,,,,0.094309896,-0.388654514,0,0,0,,0,372,372,22,1,
,,,,,,,,,,,,,,,,,,5f6cc9299ff6940d0cce0b79,2020-12-01_16h19.05.916,lexical_decision_task_MP_exp2,2020.2.8,MacIntel,60,,z,1,0.60036,,,,,,,,0.60036,1,,,,,,450,NW,UN,33,cainky,PHRECT,z,,,,,,0.094309896,-0.388654514,0,0,0,,0,373,373,389,1,
,,,,,,,,,,,,,,,,,,5f6cc9299ff6940d0cce0b79,2020-12-01_16h19.05.916,lexical_decision_task_MP_exp2,2020.2.8,MacIntel,60,,m,1,0.48366,,,,,,,,0.48366,1,,,,,,167,WORD,"ID",16,design,DESIGN,m,,,,,,0.094309896,-0.388654514,0,0,0,,0,374,374,106,1,
,,,,,,,,,,,,,,,,,,5f6cc9299ff6940d0cce0b79,2020-12-01_16h19.05.916,lexical_decision_task_MP_exp2,2020.2.8,MacIntel,60,,z,1,0.52048,,,,,,,,0.52048,1,,,,,,289,NW,UN,16,splino,STARBY,z,,,,,,0.094309896,-0.388654514,0,0,0,,0,375,375,468,1,
,,,,,,,,,,,,,,,,,,5f6cc9299ff6940d0cce0b79,2020-12-01_16h19.05.916,lexical_decision_task_MP_exp2,2020.2.8,MacIntel,60,,z,1,0.707125,,,,,,,,0.707125,1,,,,,,448,NW,UN,33,brunge,SADENT,z,,,,,,0.094309896,-0.388654514,0,0,0,,0,376,376,387,1,
,,,,,,,,,,,,,,,,,,5f6cc9299ff6940d0cce0b79,2020-12-01_16h19.05.916,lexical_decision_task_MP_exp2,2020.2.8,MacIntel,60,,m,1,0.558635,,,,,,,,0.558635,1,,,,,,215,WORD,UN,33,lumber,PHOBIA,m,,,,,,0.094309896,-0.388654514,0,0,0,,0,377,377,154,1,
,,,,,,,,,,,,,,,,,,5f6cc9299ff6940d0cce0b79,2020-12-01_16h19.05.916,lexical_decision_task_MP_exp2,2020.2.8,MacIntel,60,,z,1,0.650875,,,,,,,,0.650875,1,,,,,,359,NW,"ID",33,fonver,FONVER,z,,,,,,0.094309896,-0.388654514,0,0,0,,0,378,378,298,1,
,,,,,,,,,,,,,,,,,,5f6cc9299ff6940d0cce0b79,2020-12-01_16h19.05.916,lexical_decision_task_MP_exp2,2020.2.8,MacIntel,60,,z,1,0.85039,,,,,,,,0.85039,1,,,,,,313,NW,"ID",33,paurse,PAURSE,z,,,,,,0.094309896,-0.388654514,0,0,0,,0,379,379,252,1,
,,,,,,,,,,,,,,,,,,5f6cc9299ff6940d0cce0b79,2020-12-01_16h19.05.916,lexical_decision_task_MP_exp2,2020.2.8,MacIntel,60,,m,1,0.550625,,,,,,,,0.550625,1,,,,,,28,WORD,UN,16,sketch,COMEDY,m,,,,,,0.094309896,-0.388654514,0,0,0,,0,380,380,207,1,
,,,,,,,,,,,,,,,,,,5f6cc9299ff6940d0cce0b79,2020-12-01_16h19.05.916,lexical_decision_task_MP_exp2,2020.2.8,MacIntel,60,,z,1,0.53775,,,,,,,,0.53775,1,,,,,,354,NW,"ID",33,virlex,VIRLEX,z,,,,,,0.094309896,-0.388654514,0,0,0,,0,381,381,293,1,
,,,,,,,,,,,,,,,,,,5f6cc9299ff6940d0cce0b79,2020-12-01_16h19.05.916,lexical_decision_task_MP_exp2,2020.2.8,MacIntel,60,,z,0,0.699985,,,,,,,,0.699985,0,,,,,,106,WORD,"ID",33,ransom,RANSOM,m,,,,,,0.094309896,-0.388654514,0,0,0,,0,382,382,45,1,
,,,,,,,,,,,,,,,,,,5f6cc9299ff6940d0cce0b79,2020-12-01_16h19.05.916,lexical_decision_task_MP_exp2,2020.2.8,MacIntel,60,,m,1,0.800535,,,,,,,,0.800535,1,,,,,,158,WORD,"ID",16,island,ISLAND,m,,,,,,0.094309896,-0.388654514,0,0,0,,0,383,383,97,1,
,,,,,,,,,,,,,,,,,,5f6cc9299ff6940d0cce0b79,2020-12-01_16h19.05.916,lexical_decision_task_MP_exp2,2020.2.8,MacIntel,60,,m,1,0.649835,,,,,,,,0.649835,1,,,,,,17,WORD,UN,16,humble,CHARGE,m,,,,,,0.094309896,-0.388654514,0,0,0,,0,384,384,196,1,
,,,,,,,,,,,,,,,,,,5f6cc9299ff6940d0cce0b79,2020-12-01_16h19.05.916,lexical_decision_task_MP_exp2,2020.2.8,MacIntel,60,,z,1,0.700345,,,,,,,,0.700345,1,,,,,,373,NW,"ID",16,bigent,BIGENT,z,,,,,,0.094309896,-0.388654514,0,0,0,,0,385,385,312,1,
,,,,,,,,,,,,,,,,,,5f6cc9299ff6940d0cce0b79,2020-12-01_16h19.05.916,lexical_decision_task_MP_exp2,2020.2.8,MacIntel,60,,m,1,0.6403,,,,,,,,0.6403,1,,,,,,5,WORD,UN,16,bundle,PLUNGE,m,,,,,,0.094309896,-0.390590278,0,0,0,,0,386,386,184,1,
,,,,,,,,,,,,,,,,,,5f6cc9299ff6940d0cce0b79,2020-12-01_16h19.05.916,lexical_decision_task_MP_exp2,2020.2.8,MacIntel,60,,z,1,1.063415,,,,,,,,1.063415,1,,,,,,335,NW,"ID",33,desion,DESION,z,,,,,,0.094309896,-0.390590278,0,0,0,,0,387,387,274,1,
