counterbalancing_condition,instr_done_keyboard.keys,instr_done_keyboard.rt,instr_done_touch.x,instr_done_touch.y,instr_done_touch.leftButton,instr_done_touch.midButton,instr_done_touch.rightButton,instruction_pages.thisRepN,instruction_pages.thisTrialN,instruction_pages.thisN,instruction_pages.thisIndex,instruction_pages.ran,pageN,phase,instruct_text,has_image,instruct_image,participant,date,expName,psychopyVersion,OS,frameRate,response.keys,response.corr,response.rt,touch_resp.x,touch_resp.y,touch_resp.leftButton,touch_resp.midButton,touch_resp.rightButton,touch_resp.time,touch_resp.clicked_name,rt,corr,practice_trials.thisRepN,practice_trials.thisTrialN,practice_trials.thisN,practice_trials.thisIndex,practice_trials.ran,TrialID,StimulusType,Condition,PrimeDuration,Prime,Target,corrAns,end_of_practice_trials_pages.thisRepN,end_of_practice_trials_pages.thisTrialN,end_of_practice_trials_pages.thisN,end_of_practice_trials_pages.thisIndex,end_of_practice_trials_pages.ran,break_done_touch.x,break_done_touch.y,break_done_touch.leftButton,break_done_touch.midButton,break_done_touch.rightButton,break_done_keyboard.keys,experiment_trials.thisRepN,experiment_trials.thisTrialN,experiment_trials.thisN,experiment_trials.thisIndex,experiment_trials.ran,break_done_keyboard.rt
1,space,17.597965,-0.768518519,0.068518519,0,0,0,0,0,0,0,1,1,instructions,"INSTRUCTIONS
At the start of each trial, look at the hash marks (######) in the center of the screen. After a moment, a string of letters will appear. Your task is to indicate if the letter string forms a word or not (i.e., if it is a nonword). For example, AUTHOR is a word while AUTHON is a nonword.

Press the space bar or touch the button below to continue.",0,,5f6e3f3b512e8f347b1ebb83,2020-11-27_16h04.02.220,lexical_decision_task_MP_exp2,2020.2.5,Win32,60,,,,,,,,,,,,,,,,,,,,,,,,,,,,,,,,,,,,,,,,,
,space,13.50694,-0.769444444,0.068518519,0,0,0,0,1,1,1,1,2,instructions,"If your device has a keyboard, press the 'Z' key for nonwords and the 'M' key for words.





Press the space bar or touch the button below to continue.",1,keyboard-example.gif,5f6e3f3b512e8f347b1ebb83,2020-11-27_16h04.02.220,lexical_decision_task_MP_exp2,2020.2.5,Win32,60,,,,,,,,,,,,,,,,,,,,,,,,,,,,,,,,,,,,,,,,,
,space,6.931715,-0.769444444,0.068518519,0,0,0,0,2,2,2,1,3,instructions,"If you are using a touchscreen only device, use the buttons on the screen. Do not use the mouse.





Press the space bar or touch the button below to continue.",1,touchscreen-example.gif,5f6e3f3b512e8f347b1ebb83,2020-11-27_16h04.02.220,lexical_decision_task_MP_exp2,2020.2.5,Win32,60,,,,,,,,,,,,,,,,,,,,,,,,,,,,,,,,,,,,,,,,,
,space,2.197125,-0.769444444,0.068518519,0,0,0,0,3,3,3,1,4,instructions,"It is very important that you respond as quickly and accurately as possible, as each letter string will only be on the screen for two seconds. If you do not respond within this time, the message 'Too slow!' will be displayed and the experiment will progress to the next letter string. The first 20 trials will be practice trials and you will receive feedback on your answers. 

Press the space bar or touch the button below to start the practice trials.",0,,5f6e3f3b512e8f347b1ebb83,2020-11-27_16h04.02.220,lexical_decision_task_MP_exp2,2020.2.5,Win32,60,,,,,,,,,,,,,,,,,,,,,,,,,,,,,,,,,,,,,,,,,
,,,,,,,,,,,,,,,,,,5f6e3f3b512e8f347b1ebb83,2020-11-27_16h04.02.220,lexical_decision_task_MP_exp2,2020.2.5,Win32,60,m,0,1.14857,,,,,,,,1.14857,0,0,0,0,10,1,1011,NW,"ID",16,inlade,INLADE,z,,,,,,,,,,,,,,,,,
,,,,,,,,,,,,,,,,,,5f6e3f3b512e8f347b1ebb83,2020-11-27_16h04.02.220,lexical_decision_task_MP_exp2,2020.2.5,Win32,60,z,1,1.45495,,,,,,,,1.45495,1,0,1,1,8,1,1009,NW,"ID",33,aslert,ASLERT,z,,,,,,,,,,,,,,,,,
,,,,,,,,,,,,,,,,,,5f6e3f3b512e8f347b1ebb83,2020-11-27_16h04.02.220,lexical_decision_task_MP_exp2,2020.2.5,Win32,60,m,1,0.89784,,,,,,,,0.89784,1,0,2,2,0,1,1001,WORD,"ID",33,utopia,UTOPIA,m,,,,,,,,,,,,,,,,,
,,,,,,,,,,,,,,,,,,5f6e3f3b512e8f347b1ebb83,2020-11-27_16h04.02.220,lexical_decision_task_MP_exp2,2020.2.5,Win32,60,m,1,0.804045,,,,,,,,0.804045,1,0,3,3,4,1,1005,WORD,UN,33,abound,SQUEAK,m,,,,,,,,,,,,,,,,,
,,,,,,,,,,,,,,,,,,5f6e3f3b512e8f347b1ebb83,2020-11-27_16h04.02.220,lexical_decision_task_MP_exp2,2020.2.5,Win32,60,m,0,1.114495,,,,,,,,1.114495,0,0,4,4,13,1,1014,NW,UN,33,winfer,ROUPET,z,,,,,,,,,,,,,,,,,
,,,,,,,,,,,,,,,,,,5f6e3f3b512e8f347b1ebb83,2020-11-27_16h04.02.220,lexical_decision_task_MP_exp2,2020.2.5,Win32,60,z,1,1.32267,,,,,,,,1.32267,1,0,5,5,9,1,1010,NW,"ID",33,fariny,FARINY,z,,,,,,,,,,,,,,,,,
,,,,,,,,,,,,,,,,,,5f6e3f3b512e8f347b1ebb83,2020-11-27_16h04.02.220,lexical_decision_task_MP_exp2,2020.2.5,Win32,60,m,1,0.76422,,,,,,,,0.76422,1,0,6,6,2,1,1003,WORD,"ID",16,almond,ALMOND,m,,,,,,,,,,,,,,,,,
,,,,,,,,,,,,,,,,,,5f6e3f3b512e8f347b1ebb83,2020-11-27_16h04.02.220,lexical_decision_task_MP_exp2,2020.2.5,Win32,60,z,1,1.138015,,,,,,,,1.138015,1,0,7,7,12,1,1013,NW,UN,33,adveil,SPRINY,z,,,,,,,,,,,,,,,,,
,,,,,,,,,,,,,,,,,,5f6e3f3b512e8f347b1ebb83,2020-11-27_16h04.02.220,lexical_decision_task_MP_exp2,2020.2.5,Win32,60,m,1,0.954,,,,,,,,0.954,1,0,8,8,5,1,1006,WORD,UN,33,frenzy,OBTAIN,m,,,,,,,,,,,,,,,,,
,,,,,,,,,,,,,,,,,,5f6e3f3b512e8f347b1ebb83,2020-11-27_16h04.02.220,lexical_decision_task_MP_exp2,2020.2.5,Win32,60,m,0,1.198025,,,,,,,,1.198025,0,0,9,9,11,1,1012,NW,"ID",16,rashet,RASHET,z,,,,,,,,,,,,,,,,,
,,,,,,,,,,,,,,,,,,5f6e3f3b512e8f347b1ebb83,2020-11-27_16h04.02.220,lexical_decision_task_MP_exp2,2020.2.5,Win32,60,m,1,0.800125,,,,,,,,0.800125,1,0,10,10,6,1,1007,WORD,UN,16,tropic,ZOMBIE,m,,,,,,,,,,,,,,,,,
,,,,,,,,,,,,,,,,,,5f6e3f3b512e8f347b1ebb83,2020-11-27_16h04.02.220,lexical_decision_task_MP_exp2,2020.2.5,Win32,60,m,1,0.853725,,,,,,,,0.853725,1,0,11,11,7,1,1008,WORD,UN,16,hurdle,VOLUME,m,,,,,,,,,,,,,,,,,
,,,,,,,,,,,,,,,,,,5f6e3f3b512e8f347b1ebb83,2020-11-27_16h04.02.220,lexical_decision_task_MP_exp2,2020.2.5,Win32,60,z,1,0.88975,,,,,,,,0.88975,1,0,12,12,15,1,1016,NW,UN,16,mushed,WHAISE,z,,,,,,,,,,,,,,,,,
,,,,,,,,,,,,,,,,,,5f6e3f3b512e8f347b1ebb83,2020-11-27_16h04.02.220,lexical_decision_task_MP_exp2,2020.2.5,Win32,60,m,1,0.748275,,,,,,,,0.748275,1,0,13,13,1,1,1002,WORD,"ID",33,adjust,ADJUST,m,,,,,,,,,,,,,,,,,
,,,,,,,,,,,,,,,,,,5f6e3f3b512e8f347b1ebb83,2020-11-27_16h04.02.220,lexical_decision_task_MP_exp2,2020.2.5,Win32,60,z,1,0.831355,,,,,,,,0.831355,1,0,14,14,14,1,1015,NW,UN,16,miaber,THRALE,z,,,,,,,,,,,,,,,,,
,,,,,,,,,,,,,,,,,,5f6e3f3b512e8f347b1ebb83,2020-11-27_16h04.02.220,lexical_decision_task_MP_exp2,2020.2.5,Win32,60,m,1,0.720745,,,,,,,,0.720745,1,0,15,15,3,1,1004,WORD,"ID",16,matrix,MATRIX,m,,,,,,,,,,,,,,,,,
,space,5.670765,-0.769444444,0.068518519,0,0,0,,,,,,1,end_of_practice,"You have completed the practice trials. During the experimental trials, you will not receive feedback, but it is very important that you respond as quickly and accurately as possible. 
Before you begin, please ensure that you are in a comfortable and quiet location and will not be disturbed for about 15 minutes, as we cannot use your data if you do not complete all the trials. 
There will be opportunities to take breaks at regular intervals during the experiment. When you are ready to start the experimental trials, please press space or touch the button below.",,,5f6e3f3b512e8f347b1ebb83,2020-11-27_16h04.02.220,lexical_decision_task_MP_exp2,2020.2.5,Win32,60,,,,,,,,,,,,,,,,,,,,,,,,,0,0,0,0,1,,,,,,,,,,,,
,,,,,,,,,,,,,,,,,,5f6e3f3b512e8f347b1ebb83,2020-11-27_16h04.02.220,lexical_decision_task_MP_exp2,2020.2.5,Win32,60,z,1,0.964275,,,,,,,,0.964275,1,,,,,,446,NW,UN,16,gircue,RUNAMO,z,,,,,,-0.769444444,0.068518519,0,0,0,,0,0,0,445,1,
,,,,,,,,,,,,,,,,,,5f6e3f3b512e8f347b1ebb83,2020-11-27_16h04.02.220,lexical_decision_task_MP_exp2,2020.2.5,Win32,60,z,0,1.214955,,,,,,,,1.214955,0,,,,,,8,WORD,"ID",33,abrupt,ABRUPT,m,,,,,,-0.768518519,0.068518519,0,0,0,,0,1,1,7,1,
,,,,,,,,,,,,,,,,,,5f6e3f3b512e8f347b1ebb83,2020-11-27_16h04.02.220,lexical_decision_task_MP_exp2,2020.2.5,Win32,60,z,1,1.05193,,,,,,,,1.05193,1,,,,,,246,NW,"ID",33,piaton,PIATON,z,,,,,,-0.768518519,0.068518519,0,0,0,,0,2,2,245,1,
,,,,,,,,,,,,,,,,,,5f6e3f3b512e8f347b1ebb83,2020-11-27_16h04.02.220,lexical_decision_task_MP_exp2,2020.2.5,Win32,60,m,1,0.564445,,,,,,,,0.564445,1,,,,,,138,WORD,UN,33,staple,MELODY,m,,,,,,-0.768518519,0.068518519,0,0,0,,0,3,3,137,1,
,,,,,,,,,,,,,,,,,,5f6e3f3b512e8f347b1ebb83,2020-11-27_16h04.02.220,lexical_decision_task_MP_exp2,2020.2.5,Win32,60,z,1,0.822215,,,,,,,,0.822215,1,,,,,,461,NW,UN,16,absult,JUSTRE,z,,,,,,-0.768518519,0.068518519,0,0,0,,0,4,4,460,1,
,,,,,,,,,,,,,,,,,,5f6e3f3b512e8f347b1ebb83,2020-11-27_16h04.02.220,lexical_decision_task_MP_exp2,2020.2.5,Win32,60,z,0,1.04799,,,,,,,,1.04799,0,,,,,,68,WORD,"ID",16,fumble,FUMBLE,m,,,,,,-0.768518519,0.068518519,0,0,0,,0,5,5,67,1,
,,,,,,,,,,,,,,,,,,5f6e3f3b512e8f347b1ebb83,2020-11-27_16h04.02.220,lexical_decision_task_MP_exp2,2020.2.5,Win32,60,m,1,0.568295,,,,,,,,0.568295,1,,,,,,226,WORD,UN,16,flower,CASINO,m,,,,,,-0.768518519,0.068518519,0,0,0,,0,6,6,225,1,
,,,,,,,,,,,,,,,,,,5f6e3f3b512e8f347b1ebb83,2020-11-27_16h04.02.220,lexical_decision_task_MP_exp2,2020.2.5,Win32,60,z,0,1.266485,,,,,,,,1.266485,0,,,,,,108,WORD,"ID",16,reckon,RECKON,m,,,,,,-0.768518519,0.068518519,0,0,0,,0,7,7,107,1,
,,,,,,,,,,,,,,,,,,5f6e3f3b512e8f347b1ebb83,2020-11-27_16h04.02.220,lexical_decision_task_MP_exp2,2020.2.5,Win32,60,m,1,0.721605,,,,,,,,0.721605,1,,,,,,36,WORD,"ID",33,vanish,VANISH,m,,,,,,-0.768518519,0.068518519,0,0,0,,0,8,8,35,1,
,,,,,,,,,,,,,,,,,,5f6e3f3b512e8f347b1ebb83,2020-11-27_16h04.02.220,lexical_decision_task_MP_exp2,2020.2.5,Win32,60,z,1,0.99823,,,,,,,,0.99823,1,,,,,,276,NW,"ID",33,yarmon,YARMON,z,,,,,,-0.768518519,0.068518519,0,0,0,,0,9,9,275,1,
,,,,,,,,,,,,,,,,,,5f6e3f3b512e8f347b1ebb83,2020-11-27_16h04.02.220,lexical_decision_task_MP_exp2,2020.2.5,Win32,60,m,1,0.62393,,,,,,,,0.62393,1,,,,,,102,WORD,"ID",16,direct,DIRECT,m,,,,,,-0.768518519,0.068518519,0,0,0,,0,10,10,101,1,
,,,,,,,,,,,,,,,,,,5f6e3f3b512e8f347b1ebb83,2020-11-27_16h04.02.220,lexical_decision_task_MP_exp2,2020.2.5,Win32,60,m,0,1.80042,,,,,,,,1.80042,0,,,,,,388,NW,UN,33,witmer,CRAGIN,z,,,,,,-0.768518519,0.068518519,0,0,0,,0,11,11,387,1,
,,,,,,,,,,,,,,,,,,5f6e3f3b512e8f347b1ebb83,2020-11-27_16h04.02.220,lexical_decision_task_MP_exp2,2020.2.5,Win32,60,z,1,1.01829,,,,,,,,1.01829,1,,,,,,450,NW,UN,16,rastoe,PHRECT,z,,,,,,-0.768518519,0.068518519,0,0,0,,0,12,12,449,1,
,,,,,,,,,,,,,,,,,,5f6e3f3b512e8f347b1ebb83,2020-11-27_16h04.02.220,lexical_decision_task_MP_exp2,2020.2.5,Win32,60,z,1,0.93111,,,,,,,,0.93111,1,,,,,,309,NW,"ID",16,amiloy,AMILOY,z,,,,,,-0.768518519,0.068518519,0,0,0,,0,13,13,308,1,
,,,,,,,,,,,,,,,,,,5f6e3f3b512e8f347b1ebb83,2020-11-27_16h04.02.220,lexical_decision_task_MP_exp2,2020.2.5,Win32,60,m,1,0.632055,,,,,,,,0.632055,1,,,,,,119,WORD,"ID",16,spider,SPIDER,m,,,,,,-0.768518519,0.068518519,0,0,0,,0,14,14,118,1,
,,,,,,,,,,,,,,,,,,5f6e3f3b512e8f347b1ebb83,2020-11-27_16h04.02.220,lexical_decision_task_MP_exp2,2020.2.5,Win32,60,m,0,0.85703,,,,,,,,0.85703,0,,,,,,357,NW,"ID",16,derain,DERAIN,z,,,,,,-0.768518519,0.068518519,0,0,0,,0,15,15,356,1,
,,,,,,,,,,,,,,,,,,5f6e3f3b512e8f347b1ebb83,2020-11-27_16h04.02.220,lexical_decision_task_MP_exp2,2020.2.5,Win32,60,z,1,0.75185,,,,,,,,0.75185,1,,,,,,407,NW,UN,33,hurnia,SUIVER,z,,,,,,-0.768518519,0.068518519,0,0,0,,0,16,16,406,1,
,,,,,,,,,,,,,,,,,,5f6e3f3b512e8f347b1ebb83,2020-11-27_16h04.02.220,lexical_decision_task_MP_exp2,2020.2.5,Win32,60,z,1,1.031265,,,,,,,,1.031265,1,,,,,,442,NW,UN,16,dorsex,ABOUNE,z,,,,,,-0.768518519,0.068518519,0,0,0,,0,17,17,441,1,
,,,,,,,,,,,,,,,,,,5f6e3f3b512e8f347b1ebb83,2020-11-27_16h04.02.220,lexical_decision_task_MP_exp2,2020.2.5,Win32,60,z,1,1.148025,,,,,,,,1.148025,1,,,,,,381,NW,UN,33,sarley,HUNIEK,z,,,,,,-0.768518519,0.068518519,0,0,0,,0,18,18,380,1,
,,,,,,,,,,,,,,,,,,5f6e3f3b512e8f347b1ebb83,2020-11-27_16h04.02.220,lexical_decision_task_MP_exp2,2020.2.5,Win32,60,m,1,0.7314,,,,,,,,0.7314,1,,,,,,151,WORD,UN,33,rocket,MYSTIC,m,,,,,,-0.768518519,0.068518519,0,0,0,,0,19,19,150,1,
,,,,,,,,,,,,,,,,,,5f6e3f3b512e8f347b1ebb83,2020-11-27_16h04.02.220,lexical_decision_task_MP_exp2,2020.2.5,Win32,60,m,0,1.58744,,,,,,,,1.58744,0,,,,,,398,NW,UN,33,fouret,BLUNDE,z,,,,,,-0.768518519,0.068518519,0,0,0,,0,20,20,397,1,
,,,,,,,,,,,,,,,,,,5f6e3f3b512e8f347b1ebb83,2020-11-27_16h04.02.220,lexical_decision_task_MP_exp2,2020.2.5,Win32,60,m,1,0.77295,,,,,,,,0.77295,1,,,,,,44,WORD,"ID",33,danger,DANGER,m,,,,,,-0.768518519,0.068518519,0,0,0,,0,21,21,43,1,
,,,,,,,,,,,,,,,,,,5f6e3f3b512e8f347b1ebb83,2020-11-27_16h04.02.220,lexical_decision_task_MP_exp2,2020.2.5,Win32,60,z,1,0.951455,,,,,,,,0.951455,1,,,,,,410,NW,UN,33,orchin,TUNORY,z,,,,,,-0.768518519,0.068518519,0,0,0,,0,22,22,409,1,
,,,,,,,,,,,,,,,,,,5f6e3f3b512e8f347b1ebb83,2020-11-27_16h04.02.220,lexical_decision_task_MP_exp2,2020.2.5,Win32,60,z,1,0.78109,,,,,,,,0.78109,1,,,,,,431,NW,UN,16,lunker,CHRUMS,z,,,,,,-0.768518519,0.068518519,0,0,0,,0,23,23,430,1,
,,,,,,,,,,,,,,,,,,5f6e3f3b512e8f347b1ebb83,2020-11-27_16h04.02.220,lexical_decision_task_MP_exp2,2020.2.5,Win32,60,m,0,0.59,,,,,,,,0.59,0,,,,,,433,NW,UN,16,pitrom,DRANCE,z,,,,,,-0.768518519,0.068518519,0,0,0,,0,24,24,432,1,
,,,,,,,,,,,,,,,,,,5f6e3f3b512e8f347b1ebb83,2020-11-27_16h04.02.220,lexical_decision_task_MP_exp2,2020.2.5,Win32,60,z,1,1.497755,,,,,,,,1.497755,1,,,,,,351,NW,"ID",16,tiesch,TIESCH,z,,,,,,-0.768518519,0.068518519,0,0,0,,0,25,25,350,1,
,,,,,,,,,,,,,,,,,,5f6e3f3b512e8f347b1ebb83,2020-11-27_16h04.02.220,lexical_decision_task_MP_exp2,2020.2.5,Win32,60,z,1,1.333905,,,,,,,,1.333905,1,,,,,,393,NW,UN,33,spaqux,GANOUS,z,,,,,,-0.768518519,0.068518519,0,0,0,,0,26,26,392,1,
,,,,,,,,,,,,,,,,,,5f6e3f3b512e8f347b1ebb83,2020-11-27_16h04.02.220,lexical_decision_task_MP_exp2,2020.2.5,Win32,60,z,1,0.898095,,,,,,,,0.898095,1,,,,,,369,NW,UN,33,sleact,WRONCH,z,,,,,,-0.768518519,0.068518519,0,0,0,,0,27,27,368,1,
,,,,,,,,,,,,,,,,,,5f6e3f3b512e8f347b1ebb83,2020-11-27_16h04.02.220,lexical_decision_task_MP_exp2,2020.2.5,Win32,60,m,1,0.686995,,,,,,,,0.686995,1,,,,,,35,WORD,"ID",33,socket,SOCKET,m,,,,,,-0.768518519,0.068518519,0,0,0,,0,28,28,34,1,
,,,,,,,,,,,,,,,,,,5f6e3f3b512e8f347b1ebb83,2020-11-27_16h04.02.220,lexical_decision_task_MP_exp2,2020.2.5,Win32,60,m,1,0.64795,,,,,,,,0.64795,1,,,,,,180,WORD,UN,33,thrive,SILENT,m,,,,,,-0.768518519,0.068518519,0,0,0,,0,29,29,179,1,
,,,,,,,,,,,,,,,,,,5f6e3f3b512e8f347b1ebb83,2020-11-27_16h04.02.220,lexical_decision_task_MP_exp2,2020.2.5,Win32,60,z,0,0.900785,,,,,,,,0.900785,0,,,,,,74,WORD,"ID",16,plaque,PLAQUE,m,,,,,,-0.768518519,0.068518519,0,0,0,,0,30,30,73,1,
,,,,,,,,,,,,,,,,,,5f6e3f3b512e8f347b1ebb83,2020-11-27_16h04.02.220,lexical_decision_task_MP_exp2,2020.2.5,Win32,60,z,1,1.864485,,,,,,,,1.864485,1,,,,,,326,NW,"ID",16,iguade,IGUADE,z,,,,,,-0.768518519,0.068518519,0,0,0,,0,31,31,325,1,
,,,,,,,,,,,,,,,,,,5f6e3f3b512e8f347b1ebb83,2020-11-27_16h04.02.220,lexical_decision_task_MP_exp2,2020.2.5,Win32,60,m,1,0.59809,,,,,,,,0.59809,1,,,,,,186,WORD,UN,16,course,PORTAL,m,,,,,,-0.768518519,0.068518519,0,0,0,,0,32,32,185,1,
,,,,,,,,,,,,,,,,,,5f6e3f3b512e8f347b1ebb83,2020-11-27_16h04.02.220,lexical_decision_task_MP_exp2,2020.2.5,Win32,60,z,1,0.96447,,,,,,,,0.96447,1,,,,,,330,NW,"ID",16,kensom,KENSOM,z,,,,,,-0.768518519,0.068518519,0,0,0,,0,33,33,329,1,
,,,,,,,,,,,,,,,,,,5f6e3f3b512e8f347b1ebb83,2020-11-27_16h04.02.220,lexical_decision_task_MP_exp2,2020.2.5,Win32,60,z,1,1.098,,,,,,,,1.098,1,,,,,,298,NW,"ID",33,piergy,PIERGY,z,,,,,,-0.768518519,0.068518519,0,0,0,,0,34,34,297,1,
,,,,,,,,,,,,,,,,,,5f6e3f3b512e8f347b1ebb83,2020-11-27_16h04.02.220,lexical_decision_task_MP_exp2,2020.2.5,Win32,60,m,1,1.12416,,,,,,,,1.12416,1,,,,,,176,WORD,UN,33,advent,STRIFE,m,,,,,,-0.768518519,0.068518519,0,0,0,,0,35,35,175,1,
,,,,,,,,,,,,,,,,,,5f6e3f3b512e8f347b1ebb83,2020-11-27_16h04.02.220,lexical_decision_task_MP_exp2,2020.2.5,Win32,60,m,0,0.98163,,,,,,,,0.98163,0,,,,,,416,NW,UN,33,earoud,PATHEL,z,,,,,,-0.768518519,0.068518519,0,0,0,,0,36,36,415,1,
,,,,,,,,,,,,,,,,,,5f6e3f3b512e8f347b1ebb83,2020-11-27_16h04.02.220,lexical_decision_task_MP_exp2,2020.2.5,Win32,60,m,1,0.81506,,,,,,,,0.81506,1,,,,,,221,WORD,UN,16,hinder,MASCOT,m,,,,,,-0.768518519,0.068518519,0,0,0,,0,37,37,220,1,
,,,,,,,,,,,,,,,,,,5f6e3f3b512e8f347b1ebb83,2020-11-27_16h04.02.220,lexical_decision_task_MP_exp2,2020.2.5,Win32,60,m,0,0.981345,,,,,,,,0.981345,0,,,,,,392,NW,UN,33,ganous,ROUNCY,z,,,,,,-0.768518519,0.068518519,0,0,0,,0,38,38,391,1,
,,,,,,,,,,,,,,,,,,5f6e3f3b512e8f347b1ebb83,2020-11-27_16h04.02.220,lexical_decision_task_MP_exp2,2020.2.5,Win32,60,z,1,1.064635,,,,,,,,1.064635,1,,,,,,315,NW,"ID",16,laston,LASTON,z,,,,,,-0.768518519,0.068518519,0,0,0,,0,39,39,314,1,
,,,,,,,,,,,,,,,,,,5f6e3f3b512e8f347b1ebb83,2020-11-27_16h04.02.220,lexical_decision_task_MP_exp2,2020.2.5,Win32,60,z,1,1.15704,,,,,,,,1.15704,1,,,,,,409,NW,UN,33,tunory,ELOPIA,z,,,,,,-0.768518519,0.068518519,0,0,0,,0,40,40,408,1,
,,,,,,,,,,,,,,,,,,5f6e3f3b512e8f347b1ebb83,2020-11-27_16h04.02.220,lexical_decision_task_MP_exp2,2020.2.5,Win32,60,m,1,1.048225,,,,,,,,1.048225,1,,,,,,139,WORD,UN,33,prince,DEBRIS,m,,,,,,-0.768518519,0.068518519,0,0,0,,0,41,41,138,1,
,,,,,,,,,,,,,,,,,,5f6e3f3b512e8f347b1ebb83,2020-11-27_16h04.02.220,lexical_decision_task_MP_exp2,2020.2.5,Win32,60,m,1,0.74856,,,,,,,,0.74856,1,,,,,,154,WORD,UN,33,lizard,AUTHOR,m,,,,,,-0.768518519,0.068518519,0,0,0,,0,42,42,153,1,
,,,,,,,,,,,,,,,,,,5f6e3f3b512e8f347b1ebb83,2020-11-27_16h04.02.220,lexical_decision_task_MP_exp2,2020.2.5,Win32,60,m,1,0.858725,,,,,,,,0.858725,1,,,,,,146,WORD,UN,33,garlic,COUPLE,m,,,,,,-0.768518519,0.068518519,0,0,0,,0,43,43,145,1,
,,,,,,,,,,,,,,,,,,5f6e3f3b512e8f347b1ebb83,2020-11-27_16h04.02.220,lexical_decision_task_MP_exp2,2020.2.5,Win32,60,m,1,0.914615,,,,,,,,0.914615,1,,,,,,224,WORD,UN,16,vulgar,PERIOD,m,,,,,,-0.768518519,0.068518519,0,0,0,,0,44,44,223,1,
,,,,,,,,,,,,,,,,,,5f6e3f3b512e8f347b1ebb83,2020-11-27_16h04.02.220,lexical_decision_task_MP_exp2,2020.2.5,Win32,60,m,1,0.68132,,,,,,,,0.68132,1,,,,,,105,WORD,"ID",16,number,NUMBER,m,,,,,,-0.768518519,0.068518519,0,0,0,,0,45,45,104,1,
,,,,,,,,,,,,,,,,,,5f6e3f3b512e8f347b1ebb83,2020-11-27_16h04.02.220,lexical_decision_task_MP_exp2,2020.2.5,Win32,60,z,1,1.125495,,,,,,,,1.125495,1,,,,,,247,NW,"ID",33,blarge,BLARGE,z,,,,,,-0.768518519,0.068518519,0,0,0,,0,46,46,246,1,
,,,,,,,,,,,,,,,,,,5f6e3f3b512e8f347b1ebb83,2020-11-27_16h04.02.220,lexical_decision_task_MP_exp2,2020.2.5,Win32,60,m,1,0.666715,,,,,,,,0.666715,1,,,,,,238,WORD,UN,16,grumpy,FLOWER,m,,,,,,-0.768518519,0.068518519,0,0,0,,0,47,47,237,1,
,,,,,,,,,,,,,,,,,,5f6e3f3b512e8f347b1ebb83,2020-11-27_16h04.02.220,lexical_decision_task_MP_exp2,2020.2.5,Win32,60,m,1,0.62538,,,,,,,,0.62538,1,,,,,,148,WORD,UN,33,invade,CUSTOM,m,,,,,,-0.768518519,0.068518519,0,0,0,,0,48,48,147,1,
,,,,,,,,,,,,,,,,,,5f6e3f3b512e8f347b1ebb83,2020-11-27_16h04.02.220,lexical_decision_task_MP_exp2,2020.2.5,Win32,60,z,1,1.090445,,,,,,,,1.090445,1,,,,,,400,NW,UN,33,mustil,WEAROX,z,,,,,,-0.768518519,0.068518519,0,0,0,,0,49,49,399,1,
,,,,,,,,,,,,,,,,,,5f6e3f3b512e8f347b1ebb83,2020-11-27_16h04.02.220,lexical_decision_task_MP_exp2,2020.2.5,Win32,60,z,1,1.73641,,,,,,,,1.73641,1,,,,,,329,NW,"ID",16,yarike,YARIKE,z,,,,,,-0.768518519,0.068518519,0,0,0,,0,50,50,328,1,
,,,,,,,,,,,,,,,,,,5f6e3f3b512e8f347b1ebb83,2020-11-27_16h04.02.220,lexical_decision_task_MP_exp2,2020.2.5,Win32,60,m,0,1.58806,,,,,,,,1.58806,0,,,,,,366,NW,UN,33,slique,TOSHEL,z,,,,,,-0.768518519,0.068518519,0,0,0,,0,51,51,365,1,
,,,,,,,,,,,,,,,,,,5f6e3f3b512e8f347b1ebb83,2020-11-27_16h04.02.220,lexical_decision_task_MP_exp2,2020.2.5,Win32,60,m,1,0.74772,,,,,,,,0.74772,1,,,,,,217,WORD,UN,16,shrink,LIQUOR,m,,,,,,-0.768518519,0.068518519,0,0,0,,0,52,52,216,1,
,,,,,,,,,,,,,,,,,,5f6e3f3b512e8f347b1ebb83,2020-11-27_16h04.02.220,lexical_decision_task_MP_exp2,2020.2.5,Win32,60,m,0,0.74808,,,,,,,,0.74808,0,,,,,,387,NW,UN,33,cragin,GRONCE,z,,,,,,-0.768518519,0.068518519,0,0,0,,0,53,53,386,1,
,,,,,,,,,,,,,,,,,,5f6e3f3b512e8f347b1ebb83,2020-11-27_16h04.02.220,lexical_decision_task_MP_exp2,2020.2.5,Win32,60,z,0,0.65352,,,,,,,,0.65352,0,,,,,,141,WORD,UN,33,spruce,ORPHAN,m,,,,,,-0.768518519,0.068518519,0,0,0,,0,54,54,140,1,
,,,,,,,,,,,,,,,,,,5f6e3f3b512e8f347b1ebb83,2020-11-27_16h04.02.220,lexical_decision_task_MP_exp2,2020.2.5,Win32,60,m,1,0.57266,,,,,,,,0.57266,1,,,,,,19,WORD,"ID",33,patron,PATRON,m,,,,,,-0.768518519,0.068518519,0,0,0,,0,55,55,18,1,
,,,,,,,,,,,,,,,,,,5f6e3f3b512e8f347b1ebb83,2020-11-27_16h04.02.220,lexical_decision_task_MP_exp2,2020.2.5,Win32,60,m,1,0.60859,,,,,,,,0.60859,1,,,,,,188,WORD,UN,16,censor,SOCIAL,m,,,,,,-0.768518519,0.068518519,0,0,0,,0,56,56,187,1,
,,,,,,,,,,,,,,,,,,5f6e3f3b512e8f347b1ebb83,2020-11-27_16h04.02.220,lexical_decision_task_MP_exp2,2020.2.5,Win32,60,m,1,0.697965,,,,,,,,0.697965,1,,,,,,150,WORD,UN,33,mystic,RANDOM,m,,,,,,-0.768518519,0.068518519,0,0,0,,0,57,57,149,1,
,,,,,,,,,,,,,,,,,,5f6e3f3b512e8f347b1ebb83,2020-11-27_16h04.02.220,lexical_decision_task_MP_exp2,2020.2.5,Win32,60,m,0,1.65473,,,,,,,,1.65473,0,,,,,,250,NW,"ID",33,milted,MILTED,z,,,,,,-0.768518519,0.068518519,0,0,0,,0,58,58,249,1,
,,,,,,,,,,,,,,,,,,5f6e3f3b512e8f347b1ebb83,2020-11-27_16h04.02.220,lexical_decision_task_MP_exp2,2020.2.5,Win32,60,z,1,0.93172,,,,,,,,0.93172,1,,,,,,447,NW,UN,16,sadent,GIRCUE,z,,,,,,-0.768518519,0.068518519,0,0,0,,0,59,59,446,1,
,,,,,,,,,,,,,,,,,,5f6e3f3b512e8f347b1ebb83,2020-11-27_16h04.02.220,lexical_decision_task_MP_exp2,2020.2.5,Win32,60,m,1,0.77087,,,,,,,,0.77087,1,,,,,,120,WORD,"ID",16,strain,STRAIN,m,,,,,,-0.768518519,0.068518519,0,0,0,,0,60,60,119,1,
,,,,,,,,,,,,,,,,,,5f6e3f3b512e8f347b1ebb83,2020-11-27_16h04.02.220,lexical_decision_task_MP_exp2,2020.2.5,Win32,60,z,1,0.973575,,,,,,,,0.973575,1,,,,,,251,NW,"ID",33,lupict,LUPICT,z,,,,,,-0.768518519,0.068518519,0,0,0,,0,61,61,250,1,
,,,,,,,,,,,,,,,,,,5f6e3f3b512e8f347b1ebb83,2020-11-27_16h04.02.220,lexical_decision_task_MP_exp2,2020.2.5,Win32,60,z,1,1.031565,,,,,,,,1.031565,1,,,,,,403,NW,UN,33,cluirm,BRUATS,z,,,,,,-0.768518519,0.068518519,0,0,0,,0,62,62,402,1,
,,,,,,,,,,,,,,,,,,5f6e3f3b512e8f347b1ebb83,2020-11-27_16h04.02.220,lexical_decision_task_MP_exp2,2020.2.5,Win32,60,m,0,1.064635,,,,,,,,1.064635,0,,,,,,260,NW,"ID",33,unject,UNJECT,z,,,,,,-0.768518519,0.068518519,0,0,0,,0,63,63,259,1,
,,,,,,,,,,,,,,,,,,5f6e3f3b512e8f347b1ebb83,2020-11-27_16h04.02.220,lexical_decision_task_MP_exp2,2020.2.5,Win32,60,m,1,0.62315,,,,,,,,0.62315,1,,,,,,233,WORD,UN,16,clumsy,NATURE,m,,,,,,-0.768518519,0.068518519,0,0,0,,0,64,64,232,1,
,,,,,,,,,,,,,,,,,,5f6e3f3b512e8f347b1ebb83,2020-11-27_16h04.02.220,lexical_decision_task_MP_exp2,2020.2.5,Win32,60,m,0,0.747745,,,,,,,,0.747745,0,,,,,,452,NW,UN,16,bolvis,SURDEN,z,,,,,,-0.768518519,0.068518519,0,0,0,,0,65,65,451,1,
,,,,,,,,,,,,,,,,,,5f6e3f3b512e8f347b1ebb83,2020-11-27_16h04.02.220,lexical_decision_task_MP_exp2,2020.2.5,Win32,60,,0,,,,,,,,,0.747745,-1,,,,,,317,NW,"ID",16,worbal,WORBAL,z,,,,,,-0.768518519,0.068518519,0,0,0,,0,66,66,316,1,
,,,,,,,,,,,,,,,,,,5f6e3f3b512e8f347b1ebb83,2020-11-27_16h04.02.220,lexical_decision_task_MP_exp2,2020.2.5,Win32,60,m,1,0.60268,,,,,,,,0.60268,1,,,,,,3,WORD,"ID",33,knight,KNIGHT,m,,,,,,-0.768518519,0.068518519,0,0,0,,0,67,67,2,1,
,,,,,,,,,,,,,,,,,,5f6e3f3b512e8f347b1ebb83,2020-11-27_16h04.02.220,lexical_decision_task_MP_exp2,2020.2.5,Win32,60,m,1,0.63595,,,,,,,,0.63595,1,,,,,,69,WORD,"ID",16,plenty,PLENTY,m,,,,,,-0.768518519,0.068518519,0,0,0,,0,68,68,68,1,
,,,,,,,,,,,,,,,,,,5f6e3f3b512e8f347b1ebb83,2020-11-27_16h04.02.220,lexical_decision_task_MP_exp2,2020.2.5,Win32,60,z,1,0.685125,,,,,,,,0.685125,1,,,,,,328,NW,"ID",16,broake,BROAKE,z,,,,,,-0.768518519,0.068518519,0,0,0,,0,69,69,327,1,
,,,,,,,,,,,,,,,,,,5f6e3f3b512e8f347b1ebb83,2020-11-27_16h04.02.220,lexical_decision_task_MP_exp2,2020.2.5,Win32,60,z,1,0.57141,,,,,,,,0.57141,1,,,,,,300,NW,"ID",33,yarion,YARION,z,,,,,,-0.768518519,0.068518519,0,0,0,,0,70,70,299,1,
,,,,,,,,,,,,,,,,,,5f6e3f3b512e8f347b1ebb83,2020-11-27_16h04.02.220,lexical_decision_task_MP_exp2,2020.2.5,Win32,60,z,1,1.15047,,,,,,,,1.15047,1,,,,,,475,NW,UN,16,robuly,PEBRIC,z,,,,,,-0.768518519,0.068518519,0,0,0,,0,71,71,474,1,
,,,,,,,,,,,,,,,,,,5f6e3f3b512e8f347b1ebb83,2020-11-27_16h04.02.220,lexical_decision_task_MP_exp2,2020.2.5,Win32,60,z,1,1.26663,,,,,,,,1.26663,1,,,,,,478,NW,UN,16,lobush,ACRISE,z,,,,,,-0.768518519,0.068518519,0,0,0,,0,72,72,477,1,
,,,,,,,,,,,,,,,,,,5f6e3f3b512e8f347b1ebb83,2020-11-27_16h04.02.220,lexical_decision_task_MP_exp2,2020.2.5,Win32,60,z,1,0.80106,,,,,,,,0.80106,1,,,,,,389,NW,UN,33,hatrus,WITMER,z,,,,,,-0.768518519,0.068518519,0,0,0,,0,73,73,388,1,
,,,,,,,,,,,,,,,,,,5f6e3f3b512e8f347b1ebb83,2020-11-27_16h04.02.220,lexical_decision_task_MP_exp2,2020.2.5,Win32,60,z,1,0.914485,,,,,,,,0.914485,1,,,,,,243,NW,"ID",33,musied,MUSIED,z,,,,,,-0.768518519,0.068518519,0,0,0,,0,74,74,242,1,
,,,,,,,,,,,,,,,,,,5f6e3f3b512e8f347b1ebb83,2020-11-27_16h04.02.220,lexical_decision_task_MP_exp2,2020.2.5,Win32,60,m,1,0.582695,,,,,,,,0.582695,1,,,,,,157,WORD,UN,33,island,DRAGON,m,,,,,,-0.768518519,0.068518519,0,0,0,,0,75,75,156,1,
,,,,,,,,,,,,,,,,,,5f6e3f3b512e8f347b1ebb83,2020-11-27_16h04.02.220,lexical_decision_task_MP_exp2,2020.2.5,Win32,60,m,1,0.73116,,,,,,,,0.73116,1,,,,,,23,WORD,"ID",33,wealth,WEALTH,m,,,,,,-0.768518519,0.068518519,0,0,0,,0,76,76,22,1,
,,,,,,,,,,,,,,,,,,5f6e3f3b512e8f347b1ebb83,2020-11-27_16h04.02.220,lexical_decision_task_MP_exp2,2020.2.5,Win32,60,m,1,0.581285,,,,,,,,0.581285,1,,,,,,59,WORD,"ID",33,splint,SPLINT,m,,,,,,-0.768518519,0.068518519,0,0,0,,0,77,77,58,1,
,,,,,,,,,,,,,,,,,,5f6e3f3b512e8f347b1ebb83,2020-11-27_16h04.02.220,lexical_decision_task_MP_exp2,2020.2.5,Win32,60,z,1,0.566925,,,,,,,,0.566925,1,,,,,,371,NW,UN,33,ramily,GEILOY,z,,,,,,-0.768518519,0.068518519,0,0,0,,0,78,78,370,1,
,,,,,,,,,,,,,,,,,,5f6e3f3b512e8f347b1ebb83,2020-11-27_16h04.02.220,lexical_decision_task_MP_exp2,2020.2.5,Win32,60,z,1,0.831235,,,,,,,,0.831235,1,,,,,,272,NW,"ID",33,damilt,DAMILT,z,,,,,,-0.768518519,0.068518519,0,0,0,,0,79,79,271,1,
,,,,,,,,,,,,,,,,,,5f6e3f3b512e8f347b1ebb83,2020-11-27_16h04.02.220,lexical_decision_task_MP_exp2,2020.2.5,Win32,60,z,1,0.81749,,,,,,,,0.81749,1,,,,,,339,NW,"ID",16,fachow,FACHOW,z,,,,,,-0.768518519,0.068518519,0,0,0,,0,80,80,338,1,
,,,,,,,,,,,,,,,,,,5f6e3f3b512e8f347b1ebb83,2020-11-27_16h04.02.220,lexical_decision_task_MP_exp2,2020.2.5,Win32,60,z,1,0.786975,,,,,,,,0.786975,1,,,,,,457,NW,UN,16,barcet,WANIGH,z,,,,,,-0.768518519,0.068518519,0,0,0,,0,81,81,456,1,
,,,,,,,,,,,,,,,,,,5f6e3f3b512e8f347b1ebb83,2020-11-27_16h04.02.220,lexical_decision_task_MP_exp2,2020.2.5,Win32,60,z,0,0.668895,,,,,,,,0.668895,0,,,,,,10,WORD,"ID",33,ethnic,ETHNIC,m,,,,,,-0.768518519,0.068518519,0,0,0,,0,82,82,9,1,
,,,,,,,,,,,,,,,,,,5f6e3f3b512e8f347b1ebb83,2020-11-27_16h04.02.220,lexical_decision_task_MP_exp2,2020.2.5,Win32,60,m,1,0.70014,,,,,,,,0.70014,1,,,,,,194,WORD,UN,16,resign,ABSENT,m,,,,,,-0.768518519,0.068518519,0,0,0,,0,83,83,193,1,
,,,,,,,,,,,,,,,,,,5f6e3f3b512e8f347b1ebb83,2020-11-27_16h04.02.220,lexical_decision_task_MP_exp2,2020.2.5,Win32,60,m,1,0.514515,,,,,,,,0.514515,1,,,,,,12,WORD,"ID",33,orange,ORANGE,m,,,,,,-0.768518519,0.068518519,0,0,0,,0,84,84,11,1,
,,,,,,,,,,,,,,,,,,5f6e3f3b512e8f347b1ebb83,2020-11-27_16h04.02.220,lexical_decision_task_MP_exp2,2020.2.5,Win32,60,m,1,0.73403,,,,,,,,0.73403,1,,,,,,134,WORD,UN,33,import,STAPLE,m,,,,,,-0.768518519,0.068518519,0,0,0,,0,85,85,133,1,
,,,,,,,,,,,,,,,,,,5f6e3f3b512e8f347b1ebb83,2020-11-27_16h04.02.220,lexical_decision_task_MP_exp2,2020.2.5,Win32,60,m,1,0.697915,,,,,,,,0.697915,1,,,,,,29,WORD,"ID",33,sketch,SKETCH,m,,,,,,-0.768518519,0.068518519,0,0,0,,0,86,86,28,1,
,,,,,,,,,,,,,,,,,,5f6e3f3b512e8f347b1ebb83,2020-11-27_16h04.02.220,lexical_decision_task_MP_exp2,2020.2.5,Win32,60,z,1,0.79186,,,,,,,,0.79186,1,,,,,,385,NW,UN,33,ancust,VEIGMA,z,,,,,,-0.768518519,0.068518519,0,0,0,,0,87,87,384,1,
,,,,,,,,,,,,,,,,,,5f6e3f3b512e8f347b1ebb83,2020-11-27_16h04.02.220,lexical_decision_task_MP_exp2,2020.2.5,Win32,60,m,1,0.814675,,,,,,,,0.814675,1,,,,,,171,WORD,UN,33,patrol,DEPART,m,,,,,,-0.768518519,0.068518519,0,0,0,,0,88,88,170,1,
,,,,,,,,,,,,,,,,,,5f6e3f3b512e8f347b1ebb83,2020-11-27_16h04.02.220,lexical_decision_task_MP_exp2,2020.2.5,Win32,60,z,1,0.833855,,,,,,,,0.833855,1,,,,,,308,NW,"ID",16,psetch,PSETCH,z,,,,,,-0.768518519,0.068518519,0,0,0,,0,89,89,307,1,
,,,,,,,,,,,,,,,,,,5f6e3f3b512e8f347b1ebb83,2020-11-27_16h04.02.220,lexical_decision_task_MP_exp2,2020.2.5,Win32,60,m,0,0.764425,,,,,,,,0.764425,0,,,,,,327,NW,"ID",16,plenac,PLENAC,z,,,,,,-0.768518519,0.068518519,0,0,0,,0,90,90,326,1,
,,,,,,,,,,,,,,,,,,5f6e3f3b512e8f347b1ebb83,2020-11-27_16h04.02.220,lexical_decision_task_MP_exp2,2020.2.5,Win32,60,z,1,1.20551,,,,,,,,1.20551,1,,,,,,420,NW,UN,33,pauche,GUSHOP,z,,,,,,-0.768518519,0.068518519,0,0,0,,0,91,91,419,1,
,,,,,,,,,,,,,,,,,,5f6e3f3b512e8f347b1ebb83,2020-11-27_16h04.02.220,lexical_decision_task_MP_exp2,2020.2.5,Win32,60,m,1,0.59182,,,,,,,,0.59182,1,,,,,,93,WORD,"ID",16,public,PUBLIC,m,,,,,,-0.768518519,0.068518519,0,0,0,,0,92,92,92,1,
,,,,,,,,,,,,,,,,,,5f6e3f3b512e8f347b1ebb83,2020-11-27_16h04.02.220,lexical_decision_task_MP_exp2,2020.2.5,Win32,60,m,1,0.55363,,,,,,,,0.55363,1,,,,,,49,WORD,"ID",33,survey,SURVEY,m,,,,,,-0.768518519,0.068518519,0,0,0,,0,93,93,48,1,
,,,,,,,,,,,,,,,,,,5f6e3f3b512e8f347b1ebb83,2020-11-27_16h04.02.220,lexical_decision_task_MP_exp2,2020.2.5,Win32,60,m,1,0.533505,,,,,,,,0.533505,1,,,,,,190,WORD,UN,16,stable,BACKUP,m,,,,,,-0.768518519,0.068518519,0,0,0,,0,94,94,189,1,
,,,,,,,,,,,,,,,,,,5f6e3f3b512e8f347b1ebb83,2020-11-27_16h04.02.220,lexical_decision_task_MP_exp2,2020.2.5,Win32,60,z,1,0.64126,,,,,,,,0.64126,1,,,,,,288,NW,"ID",33,yaceup,YACEUP,z,,,,,,-0.768518519,0.068518519,0,0,0,,0,95,95,287,1,
,,,,,,,,,,,,,,,,,,5f6e3f3b512e8f347b1ebb83,2020-11-27_16h04.02.220,lexical_decision_task_MP_exp2,2020.2.5,Win32,60,m,1,0.585465,,,,,,,,0.585465,1,,,,,,174,WORD,UN,33,fabric,TURKEY,m,,,,,,-0.768518519,0.068518519,0,0,0,,0,96,96,173,1,
,,,,,,,,,,,,,,,,,,5f6e3f3b512e8f347b1ebb83,2020-11-27_16h04.02.220,lexical_decision_task_MP_exp2,2020.2.5,Win32,60,m,1,0.92348,,,,,,,,0.92348,1,,,,,,66,WORD,"ID",16,gospel,GOSPEL,m,,,,,,-0.768518519,0.068518519,0,0,0,,0,97,97,65,1,
,,,,,,,,,,,,,,,,,,5f6e3f3b512e8f347b1ebb83,2020-11-27_16h04.02.220,lexical_decision_task_MP_exp2,2020.2.5,Win32,60,z,1,0.80892,,,,,,,,0.80892,1,,,,,,390,NW,UN,33,theldy,HATRUS,z,,,,,,-0.768518519,0.068518519,0,0,0,,0,98,98,389,1,
,,,,,,,,,,,,,,,,,,5f6e3f3b512e8f347b1ebb83,2020-11-27_16h04.02.220,lexical_decision_task_MP_exp2,2020.2.5,Win32,60,z,1,0.817965,,,,,,,,0.817965,1,,,,,,324,NW,"ID",16,steikh,STEIKH,z,,,,,,-0.768518519,0.068518519,0,0,0,,0,99,99,323,1,
,,,,,,,,,,,,,,,,,,5f6e3f3b512e8f347b1ebb83,2020-11-27_16h04.02.220,lexical_decision_task_MP_exp2,2020.2.5,Win32,60,m,1,0.68142,,,,,,,,0.68142,1,,,,,,87,WORD,"ID",16,filter,FILTER,m,,,,,,-0.768518519,0.068518519,0,0,0,,0,100,100,86,1,
,,,,,,,,,,,,,,,,,,5f6e3f3b512e8f347b1ebb83,2020-11-27_16h04.02.220,lexical_decision_task_MP_exp2,2020.2.5,Win32,60,m,1,0.59791,,,,,,,,0.59791,1,,,,,,24,WORD,"ID",33,praise,PRAISE,m,,,,,,-0.768518519,0.068518519,0,0,0,,0,101,101,23,1,
,,,,,,,,,,,,,,,,,,5f6e3f3b512e8f347b1ebb83,2020-11-27_16h04.02.220,lexical_decision_task_MP_exp2,2020.2.5,Win32,60,m,1,0.604025,,,,,,,,0.604025,1,,,,,,112,WORD,"ID",16,breath,BREATH,m,,,,,,-0.768518519,0.068518519,0,0,0,,0,102,102,111,1,
,,,,,,,,,,,,,,,,,,5f6e3f3b512e8f347b1ebb83,2020-11-27_16h04.02.220,lexical_decision_task_MP_exp2,2020.2.5,Win32,60,m,1,0.65277,,,,,,,,0.65277,1,,,,,,164,WORD,UN,33,invest,MARKET,m,,,,,,-0.768518519,0.068518519,0,0,0,,0,103,103,163,1,
,,,,,,,,,,,,,,,,,,5f6e3f3b512e8f347b1ebb83,2020-11-27_16h04.02.220,lexical_decision_task_MP_exp2,2020.2.5,Win32,60,m,1,0.68458,,,,,,,,0.68458,1,,,,,,215,WORD,UN,16,behalf,PHOBIA,m,,,,,,-0.768518519,0.068518519,0,0,0,,0,104,104,214,1,
,,,,,,,,,,,,,,,,,,5f6e3f3b512e8f347b1ebb83,2020-11-27_16h04.02.220,lexical_decision_task_MP_exp2,2020.2.5,Win32,60,m,1,0.58145,,,,,,,,0.58145,1,,,,,,110,WORD,"ID",16,polite,POLITE,m,,,,,,-0.768518519,0.068518519,0,0,0,,0,105,105,109,1,
,,,,,,,,,,,,,,,,,,5f6e3f3b512e8f347b1ebb83,2020-11-27_16h04.02.220,lexical_decision_task_MP_exp2,2020.2.5,Win32,60,m,1,0.58188,,,,,,,,0.58188,1,,,,,,222,WORD,UN,16,casino,HINDER,m,,,,,,-0.768518519,0.068518519,0,0,0,,0,106,106,221,1,
,,,,,,,,,,,,,,,,,,5f6e3f3b512e8f347b1ebb83,2020-11-27_16h04.02.220,lexical_decision_task_MP_exp2,2020.2.5,Win32,60,z,1,0.58428,,,,,,,,0.58428,1,,,,,,443,NW,UN,16,jaunce,DORSEX,z,,,,,,-0.768518519,0.068518519,0,0,0,,0,107,107,442,1,
,,,,,,,,,,,,,,,,,,5f6e3f3b512e8f347b1ebb83,2020-11-27_16h04.02.220,lexical_decision_task_MP_exp2,2020.2.5,Win32,60,m,1,0.59806,,,,,,,,0.59806,1,,,,,,123,WORD,UN,33,enough,STRIKE,m,,,,,,-0.768518519,0.068518519,0,0,0,,0,108,108,122,1,
,,,,,,,,,,,,,,,,,,5f6e3f3b512e8f347b1ebb83,2020-11-27_16h04.02.220,lexical_decision_task_MP_exp2,2020.2.5,Win32,60,m,1,1.00415,,,,,,,,1.00415,1,,,,,,125,WORD,UN,33,blouse,NICKEL,m,,,,,,-0.768518519,0.068518519,0,0,0,,0,109,109,124,1,
,,,,,,,,,,,,,,,,,,5f6e3f3b512e8f347b1ebb83,2020-11-27_16h04.02.220,lexical_decision_task_MP_exp2,2020.2.5,Win32,60,m,1,0.681195,,,,,,,,0.681195,1,,,,,,25,WORD,"ID",33,domain,DOMAIN,m,,,,,,-0.768518519,0.068518519,0,0,0,,0,110,110,24,1,
,,,,,,,,,,,,,,,,,,5f6e3f3b512e8f347b1ebb83,2020-11-27_16h04.02.220,lexical_decision_task_MP_exp2,2020.2.5,Win32,60,m,1,0.6995,,,,,,,,0.6995,1,,,,,,197,WORD,UN,16,wicked,STREAM,m,,,,,,-0.768518519,0.068518519,0,0,0,,0,111,111,196,1,
,,,,,,,,,,,,,,,,,,5f6e3f3b512e8f347b1ebb83,2020-11-27_16h04.02.220,lexical_decision_task_MP_exp2,2020.2.5,Win32,60,z,1,0.985065,,,,,,,,0.985065,1,,,,,,373,NW,UN,33,injore,BIGENT,z,,,,,,-0.768518519,0.068518519,0,0,0,,0,112,112,372,1,
,,,,,,,,,,,,,,,,,,5f6e3f3b512e8f347b1ebb83,2020-11-27_16h04.02.220,lexical_decision_task_MP_exp2,2020.2.5,Win32,60,m,1,0.738515,,,,,,,,0.738515,1,,,,,,54,WORD,"ID",33,ramble,RAMBLE,m,,,,,,-0.768518519,0.068518519,0,0,0,,0,113,113,53,1,
,,,,,,,,,,,,,,,,,,5f6e3f3b512e8f347b1ebb83,2020-11-27_16h04.02.220,lexical_decision_task_MP_exp2,2020.2.5,Win32,60,m,1,0.86476,,,,,,,,0.86476,1,,,,,,22,WORD,"ID",33,jockey,JOCKEY,m,,,,,,-0.768518519,0.068518519,0,0,0,,0,114,114,21,1,
,,,,,,,,,,,,,,,,,,5f6e3f3b512e8f347b1ebb83,2020-11-27_16h04.02.220,lexical_decision_task_MP_exp2,2020.2.5,Win32,60,m,1,0.698065,,,,,,,,0.698065,1,,,,,,173,WORD,UN,33,turkey,SHOWER,m,,,,,,-0.768518519,0.068518519,0,0,0,,0,115,115,172,1,
,,,,,,,,,,,,,,,,,,5f6e3f3b512e8f347b1ebb83,2020-11-27_16h04.02.220,lexical_decision_task_MP_exp2,2020.2.5,Win32,60,m,1,0.65047,,,,,,,,0.65047,1,,,,,,64,WORD,"ID",16,throne,THRONE,m,,,,,,-0.768518519,0.068518519,0,0,0,,0,116,116,63,1,
,,,,,,,,,,,,,,,,,,5f6e3f3b512e8f347b1ebb83,2020-11-27_16h04.02.220,lexical_decision_task_MP_exp2,2020.2.5,Win32,60,m,1,0.58635,,,,,,,,0.58635,1,,,,,,50,WORD,"ID",33,snatch,SNATCH,m,,,,,,-0.768518519,0.068518519,0,0,0,,0,117,117,49,1,
,,,,,,,,,,,,,,,,,,5f6e3f3b512e8f347b1ebb83,2020-11-27_16h04.02.220,lexical_decision_task_MP_exp2,2020.2.5,Win32,60,m,0,0.884685,,,,,,,,0.884685,0,,,,,,323,NW,"ID",16,rosail,ROSAIL,z,,,,,,-0.768518519,0.068518519,0,0,0,,0,118,118,322,1,
,,,,,,,,,,,,,,,,,,5f6e3f3b512e8f347b1ebb83,2020-11-27_16h04.02.220,lexical_decision_task_MP_exp2,2020.2.5,Win32,60,m,1,0.664455,,,,,,,,0.664455,1,,,,,,195,WORD,UN,16,credit,RESIGN,m,,,,,,-0.768518519,0.068518519,0,0,0,,0,119,119,194,1,
,,,,,,,,,,,,,,,,,,5f6e3f3b512e8f347b1ebb83,2020-11-27_16h04.02.220,lexical_decision_task_MP_exp2,2020.2.5,Win32,60,m,0,0.89811,,,,,,,,0.89811,0,,,,,,312,NW,"ID",16,nerawl,NERAWL,z,,,,,,-0.768518519,0.068518519,0,0,0,space,0,120,120,311,1,3.66266
,,,,,,,,,,,,,,,,,,5f6e3f3b512e8f347b1ebb83,2020-11-27_16h04.02.220,lexical_decision_task_MP_exp2,2020.2.5,Win32,60,m,1,0.540625,,,,,,,,0.540625,1,,,,,,161,WORD,UN,33,candle,PASTOR,m,,,,,,-0.768518519,0.068518519,0,0,0,,0,121,121,160,1,
,,,,,,,,,,,,,,,,,,5f6e3f3b512e8f347b1ebb83,2020-11-27_16h04.02.220,lexical_decision_task_MP_exp2,2020.2.5,Win32,60,m,1,1.3204,,,,,,,,1.3204,1,,,,,,20,WORD,"ID",33,breast,BREAST,m,,,,,,-0.768518519,0.068518519,0,0,0,,0,122,122,19,1,
,,,,,,,,,,,,,,,,,,5f6e3f3b512e8f347b1ebb83,2020-11-27_16h04.02.220,lexical_decision_task_MP_exp2,2020.2.5,Win32,60,z,1,0.75746,,,,,,,,0.75746,1,,,,,,301,NW,"ID",16,fainch,FAINCH,z,,,,,,-0.768518519,0.068518519,0,0,0,,0,123,123,300,1,
,,,,,,,,,,,,,,,,,,5f6e3f3b512e8f347b1ebb83,2020-11-27_16h04.02.220,lexical_decision_task_MP_exp2,2020.2.5,Win32,60,m,1,1.049665,,,,,,,,1.049665,1,,,,,,37,WORD,"ID",33,insult,INSULT,m,,,,,,-0.768518519,0.068518519,0,0,0,,0,124,124,36,1,
,,,,,,,,,,,,,,,,,,5f6e3f3b512e8f347b1ebb83,2020-11-27_16h04.02.220,lexical_decision_task_MP_exp2,2020.2.5,Win32,60,m,1,1.05627,,,,,,,,1.05627,1,,,,,,170,WORD,UN,33,depart,POUNCE,m,,,,,,-0.768518519,0.068518519,0,0,0,,0,125,125,169,1,
,,,,,,,,,,,,,,,,,,5f6e3f3b512e8f347b1ebb83,2020-11-27_16h04.02.220,lexical_decision_task_MP_exp2,2020.2.5,Win32,60,m,0,1.04807,,,,,,,,1.04807,0,,,,,,244,NW,"ID",33,eatric,EATRIC,z,,,,,,-0.768518519,0.068518519,0,0,0,,0,126,126,243,1,
,,,,,,,,,,,,,,,,,,5f6e3f3b512e8f347b1ebb83,2020-11-27_16h04.02.220,lexical_decision_task_MP_exp2,2020.2.5,Win32,60,z,1,1.08182,,,,,,,,1.08182,1,,,,,,355,NW,"ID",16,zingly,ZINGLY,z,,,,,,-0.768518519,0.068518519,0,0,0,,0,127,127,354,1,
,,,,,,,,,,,,,,,,,,5f6e3f3b512e8f347b1ebb83,2020-11-27_16h04.02.220,lexical_decision_task_MP_exp2,2020.2.5,Win32,60,m,1,0.717115,,,,,,,,0.717115,1,,,,,,43,WORD,"ID",33,tongue,TONGUE,m,,,,,,-0.768518519,0.068518519,0,0,0,,0,128,128,42,1,
,,,,,,,,,,,,,,,,,,5f6e3f3b512e8f347b1ebb83,2020-11-27_16h04.02.220,lexical_decision_task_MP_exp2,2020.2.5,Win32,60,m,1,1.170585,,,,,,,,1.170585,1,,,,,,99,WORD,"ID",16,fluent,FLUENT,m,,,,,,-0.768518519,0.068518519,0,0,0,,0,129,129,98,1,
,,,,,,,,,,,,,,,,,,5f6e3f3b512e8f347b1ebb83,2020-11-27_16h04.02.220,lexical_decision_task_MP_exp2,2020.2.5,Win32,60,m,1,0.58945,,,,,,,,0.58945,1,,,,,,81,WORD,"ID",16,friend,FRIEND,m,,,,,,-0.768518519,0.068518519,0,0,0,,0,130,130,80,1,
,,,,,,,,,,,,,,,,,,5f6e3f3b512e8f347b1ebb83,2020-11-27_16h04.02.220,lexical_decision_task_MP_exp2,2020.2.5,Win32,60,m,0,1.064815,,,,,,,,1.064815,0,,,,,,372,NW,UN,33,bigent,RAMILY,z,,,,,,-0.768518519,0.068518519,0,0,0,,0,131,131,371,1,
,,,,,,,,,,,,,,,,,,5f6e3f3b512e8f347b1ebb83,2020-11-27_16h04.02.220,lexical_decision_task_MP_exp2,2020.2.5,Win32,60,m,1,0.681265,,,,,,,,0.681265,1,,,,,,209,WORD,UN,16,monkey,SEARCH,m,,,,,,-0.768518519,0.068518519,0,0,0,,0,132,132,208,1,
,,,,,,,,,,,,,,,,,,5f6e3f3b512e8f347b1ebb83,2020-11-27_16h04.02.220,lexical_decision_task_MP_exp2,2020.2.5,Win32,60,m,1,0.77287,,,,,,,,0.77287,1,,,,,,130,WORD,UN,33,quench,STUPID,m,,,,,,-0.768518519,0.068518519,0,0,0,,0,133,133,129,1,
,,,,,,,,,,,,,,,,,,5f6e3f3b512e8f347b1ebb83,2020-11-27_16h04.02.220,lexical_decision_task_MP_exp2,2020.2.5,Win32,60,m,1,0.664845,,,,,,,,0.664845,1,,,,,,41,WORD,"ID",33,spring,SPRING,m,,,,,,-0.768518519,0.068518519,0,0,0,,0,134,134,40,1,
,,,,,,,,,,,,,,,,,,5f6e3f3b512e8f347b1ebb83,2020-11-27_16h04.02.220,lexical_decision_task_MP_exp2,2020.2.5,Win32,60,z,1,0.88129,,,,,,,,0.88129,1,,,,,,455,NW,UN,16,broget,TONDLE,z,,,,,,-0.768518519,0.068518519,0,0,0,,0,135,135,454,1,
,,,,,,,,,,,,,,,,,,5f6e3f3b512e8f347b1ebb83,2020-11-27_16h04.02.220,lexical_decision_task_MP_exp2,2020.2.5,Win32,60,m,1,0.701275,,,,,,,,0.701275,1,,,,,,208,WORD,UN,16,search,HOCKEY,m,,,,,,-0.768518519,0.068518519,0,0,0,,0,136,136,207,1,
,,,,,,,,,,,,,,,,,,5f6e3f3b512e8f347b1ebb83,2020-11-27_16h04.02.220,lexical_decision_task_MP_exp2,2020.2.5,Win32,60,m,0,1.675295,,,,,,,,1.675295,0,,,,,,448,NW,UN,16,brunge,SADENT,z,,,,,,-0.768518519,0.068518519,0,0,0,,0,137,137,447,1,
,,,,,,,,,,,,,,,,,,5f6e3f3b512e8f347b1ebb83,2020-11-27_16h04.02.220,lexical_decision_task_MP_exp2,2020.2.5,Win32,60,m,1,0.71471,,,,,,,,0.71471,1,,,,,,166,WORD,UN,33,design,STARCH,m,,,,,,-0.768518519,0.068518519,0,0,0,,0,138,138,165,1,
,,,,,,,,,,,,,,,,,,5f6e3f3b512e8f347b1ebb83,2020-11-27_16h04.02.220,lexical_decision_task_MP_exp2,2020.2.5,Win32,60,m,1,0.731385,,,,,,,,0.731385,1,,,,,,198,WORD,UN,16,invoke,WICKED,m,,,,,,-0.768518519,0.068518519,0,0,0,,0,139,139,197,1,
,,,,,,,,,,,,,,,,,,5f6e3f3b512e8f347b1ebb83,2020-11-27_16h04.02.220,lexical_decision_task_MP_exp2,2020.2.5,Win32,60,z,1,0.899625,,,,,,,,0.899625,1,,,,,,342,NW,"ID",16,randow,RANDOW,z,,,,,,-0.768518519,0.068518519,0,0,0,,0,140,140,341,1,
,,,,,,,,,,,,,,,,,,5f6e3f3b512e8f347b1ebb83,2020-11-27_16h04.02.220,lexical_decision_task_MP_exp2,2020.2.5,Win32,60,m,0,0.82486,,,,,,,,0.82486,0,,,,,,273,NW,"ID",33,sortel,SORTEL,z,,,,,,-0.768518519,0.068518519,0,0,0,,0,141,141,272,1,
,,,,,,,,,,,,,,,,,,5f6e3f3b512e8f347b1ebb83,2020-11-27_16h04.02.220,lexical_decision_task_MP_exp2,2020.2.5,Win32,60,z,1,0.825535,,,,,,,,0.825535,1,,,,,,474,NW,UN,16,gorbie,HABLIN,z,,,,,,-0.768518519,0.068518519,0,0,0,,0,142,142,473,1,
,,,,,,,,,,,,,,,,,,5f6e3f3b512e8f347b1ebb83,2020-11-27_16h04.02.220,lexical_decision_task_MP_exp2,2020.2.5,Win32,60,z,1,0.722665,,,,,,,,0.722665,1,,,,,,417,NW,UN,33,suidle,EAROUD,z,,,,,,-0.768518519,0.068518519,0,0,0,,0,143,143,416,1,
,,,,,,,,,,,,,,,,,,5f6e3f3b512e8f347b1ebb83,2020-11-27_16h04.02.220,lexical_decision_task_MP_exp2,2020.2.5,Win32,60,z,1,0.74786,,,,,,,,0.74786,1,,,,,,434,NW,UN,16,impurb,PITROM,z,,,,,,-0.768518519,0.068518519,0,0,0,,0,144,144,433,1,
,,,,,,,,,,,,,,,,,,5f6e3f3b512e8f347b1ebb83,2020-11-27_16h04.02.220,lexical_decision_task_MP_exp2,2020.2.5,Win32,60,m,1,0.71529,,,,,,,,0.71529,1,,,,,,128,WORD,UN,33,marvel,SENIOR,m,,,,,,-0.768518519,0.068518519,0,0,0,,0,145,145,127,1,
,,,,,,,,,,,,,,,,,,5f6e3f3b512e8f347b1ebb83,2020-11-27_16h04.02.220,lexical_decision_task_MP_exp2,2020.2.5,Win32,60,m,1,0.6321,,,,,,,,0.6321,1,,,,,,72,WORD,"ID",16,bright,BRIGHT,m,,,,,,-0.768518519,0.068518519,0,0,0,,0,146,146,71,1,
,,,,,,,,,,,,,,,,,,5f6e3f3b512e8f347b1ebb83,2020-11-27_16h04.02.220,lexical_decision_task_MP_exp2,2020.2.5,Win32,60,m,1,0.598105,,,,,,,,0.598105,1,,,,,,92,WORD,"ID",16,strand,STRAND,m,,,,,,-0.768518519,0.068518519,0,0,0,,0,147,147,91,1,
,,,,,,,,,,,,,,,,,,5f6e3f3b512e8f347b1ebb83,2020-11-27_16h04.02.220,lexical_decision_task_MP_exp2,2020.2.5,Win32,60,z,1,0.76988,,,,,,,,0.76988,1,,,,,,402,NW,UN,33,bruats,SYNTIC,z,,,,,,-0.768518519,0.068518519,0,0,0,,0,148,148,401,1,
,,,,,,,,,,,,,,,,,,5f6e3f3b512e8f347b1ebb83,2020-11-27_16h04.02.220,lexical_decision_task_MP_exp2,2020.2.5,Win32,60,z,1,1.08141,,,,,,,,1.08141,1,,,,,,302,NW,"ID",16,miluer,MILUER,z,,,,,,-0.768518519,0.068518519,0,0,0,,0,149,149,301,1,
,,,,,,,,,,,,,,,,,,5f6e3f3b512e8f347b1ebb83,2020-11-27_16h04.02.220,lexical_decision_task_MP_exp2,2020.2.5,Win32,60,z,0,1.50003,,,,,,,,1.50003,0,,,,,,234,WORD,UN,16,lumber,CLUMSY,m,,,,,,-0.768518519,0.068518519,0,0,0,,0,150,150,233,1,
,,,,,,,,,,,,,,,,,,5f6e3f3b512e8f347b1ebb83,2020-11-27_16h04.02.220,lexical_decision_task_MP_exp2,2020.2.5,Win32,60,m,1,0.569625,,,,,,,,0.569625,1,,,,,,55,WORD,"ID",33,stroke,STROKE,m,,,,,,-0.768518519,0.068518519,0,0,0,,0,151,151,54,1,
,,,,,,,,,,,,,,,,,,5f6e3f3b512e8f347b1ebb83,2020-11-27_16h04.02.220,lexical_decision_task_MP_exp2,2020.2.5,Win32,60,m,0,0.620675,,,,,,,,0.620675,0,,,,,,285,NW,"ID",33,prudge,PRUDGE,z,,,,,,-0.768518519,0.068518519,0,0,0,,0,152,152,284,1,
,,,,,,,,,,,,,,,,,,5f6e3f3b512e8f347b1ebb83,2020-11-27_16h04.02.220,lexical_decision_task_MP_exp2,2020.2.5,Win32,60,z,1,1.10022,,,,,,,,1.10022,1,,,,,,399,NW,UN,33,wearox,FOURET,z,,,,,,-0.768518519,0.068518519,0,0,0,,0,153,153,398,1,
,,,,,,,,,,,,,,,,,,5f6e3f3b512e8f347b1ebb83,2020-11-27_16h04.02.220,lexical_decision_task_MP_exp2,2020.2.5,Win32,60,m,0,0.87436,,,,,,,,0.87436,0,,,,,,349,NW,"ID",16,asylen,ASYLEN,z,,,,,,-0.768518519,0.068518519,0,0,0,,0,154,154,348,1,
,,,,,,,,,,,,,,,,,,5f6e3f3b512e8f347b1ebb83,2020-11-27_16h04.02.220,lexical_decision_task_MP_exp2,2020.2.5,Win32,60,m,0,0.6253,,,,,,,,0.6253,0,,,,,,277,NW,"ID",33,petain,PETAIN,z,,,,,,-0.768518519,0.068518519,0,0,0,,0,155,155,276,1,
,,,,,,,,,,,,,,,,,,5f6e3f3b512e8f347b1ebb83,2020-11-27_16h04.02.220,lexical_decision_task_MP_exp2,2020.2.5,Win32,60,z,1,0.72165,,,,,,,,0.72165,1,,,,,,270,NW,"ID",33,wrimsy,WRIMSY,z,,,,,,-0.768518519,0.068518519,0,0,0,,0,156,156,269,1,
,,,,,,,,,,,,,,,,,,5f6e3f3b512e8f347b1ebb83,2020-11-27_16h04.02.220,lexical_decision_task_MP_exp2,2020.2.5,Win32,60,m,1,0.77509,,,,,,,,0.77509,1,,,,,,85,WORD,"ID",16,sprawl,SPRAWL,m,,,,,,-0.768518519,0.068518519,0,0,0,,0,157,157,84,1,
,,,,,,,,,,,,,,,,,,5f6e3f3b512e8f347b1ebb83,2020-11-27_16h04.02.220,lexical_decision_task_MP_exp2,2020.2.5,Win32,60,z,1,1.274315,,,,,,,,1.274315,1,,,,,,467,NW,UN,16,wictor,GORBIE,z,,,,,,-0.768518519,0.068518519,0,0,0,,0,158,158,466,1,
,,,,,,,,,,,,,,,,,,5f6e3f3b512e8f347b1ebb83,2020-11-27_16h04.02.220,lexical_decision_task_MP_exp2,2020.2.5,Win32,60,m,1,0.625335,,,,,,,,0.625335,1,,,,,,229,WORD,UN,16,fringe,MOTHER,m,,,,,,-0.768518519,0.068518519,0,0,0,,0,159,159,228,1,
,,,,,,,,,,,,,,,,,,5f6e3f3b512e8f347b1ebb83,2020-11-27_16h04.02.220,lexical_decision_task_MP_exp2,2020.2.5,Win32,60,m,0,1.137785,,,,,,,,1.137785,0,,,,,,257,NW,"ID",33,veniod,VENIOD,z,,,,,,-0.768518519,0.068518519,0,0,0,,0,160,160,256,1,
,,,,,,,,,,,,,,,,,,5f6e3f3b512e8f347b1ebb83,2020-11-27_16h04.02.220,lexical_decision_task_MP_exp2,2020.2.5,Win32,60,m,1,0.638245,,,,,,,,0.638245,1,,,,,,184,WORD,UN,16,bother,SLEAZY,m,,,,,,-0.768518519,0.068518519,0,0,0,,0,161,161,183,1,
,,,,,,,,,,,,,,,,,,5f6e3f3b512e8f347b1ebb83,2020-11-27_16h04.02.220,lexical_decision_task_MP_exp2,2020.2.5,Win32,60,m,1,0.697995,,,,,,,,0.697995,1,,,,,,83,WORD,"ID",16,result,RESULT,m,,,,,,-0.768518519,0.068518519,0,0,0,,0,162,162,82,1,
,,,,,,,,,,,,,,,,,,5f6e3f3b512e8f347b1ebb83,2020-11-27_16h04.02.220,lexical_decision_task_MP_exp2,2020.2.5,Win32,60,m,1,0.781385,,,,,,,,0.781385,1,,,,,,179,WORD,UN,33,silent,BASKET,m,,,,,,-0.768518519,0.068518519,0,0,0,,0,163,163,178,1,
,,,,,,,,,,,,,,,,,,5f6e3f3b512e8f347b1ebb83,2020-11-27_16h04.02.220,lexical_decision_task_MP_exp2,2020.2.5,Win32,60,z,1,0.98299,,,,,,,,0.98299,1,,,,,,421,NW,UN,16,alcoud,KNISMA,z,,,,,,-0.768518519,0.068518519,0,0,0,,0,164,164,420,1,
,,,,,,,,,,,,,,,,,,5f6e3f3b512e8f347b1ebb83,2020-11-27_16h04.02.220,lexical_decision_task_MP_exp2,2020.2.5,Win32,60,z,1,0.73134,,,,,,,,0.73134,1,,,,,,296,NW,"ID",33,beinch,BEINCH,z,,,,,,-0.768518519,0.068518519,0,0,0,,0,165,165,295,1,
,,,,,,,,,,,,,,,,,,5f6e3f3b512e8f347b1ebb83,2020-11-27_16h04.02.220,lexical_decision_task_MP_exp2,2020.2.5,Win32,60,m,0,0.81439,,,,,,,,0.81439,0,,,,,,476,NW,UN,16,photie,JOSTED,z,,,,,,-0.768518519,0.068518519,0,0,0,,0,166,166,475,1,
,,,,,,,,,,,,,,,,,,5f6e3f3b512e8f347b1ebb83,2020-11-27_16h04.02.220,lexical_decision_task_MP_exp2,2020.2.5,Win32,60,z,1,0.866995,,,,,,,,0.866995,1,,,,,,459,NW,UN,16,mingar,BAFENT,z,,,,,,-0.768518519,0.068518519,0,0,0,,0,167,167,458,1,
,,,,,,,,,,,,,,,,,,5f6e3f3b512e8f347b1ebb83,2020-11-27_16h04.02.220,lexical_decision_task_MP_exp2,2020.2.5,Win32,60,m,1,1.08111,,,,,,,,1.08111,1,,,,,,156,WORD,UN,33,pastor,CRADLE,m,,,,,,-0.768518519,0.068518519,0,0,0,,0,168,168,155,1,
,,,,,,,,,,,,,,,,,,5f6e3f3b512e8f347b1ebb83,2020-11-27_16h04.02.220,lexical_decision_task_MP_exp2,2020.2.5,Win32,60,z,1,1.155865,,,,,,,,1.155865,1,,,,,,422,NW,UN,16,streld,ALCOUD,z,,,,,,-0.768518519,0.068518519,0,0,0,,0,169,169,421,1,
,,,,,,,,,,,,,,,,,,5f6e3f3b512e8f347b1ebb83,2020-11-27_16h04.02.220,lexical_decision_task_MP_exp2,2020.2.5,Win32,60,m,0,0.75047,,,,,,,,0.75047,0,,,,,,427,NW,UN,16,tandly,SCHIND,z,,,,,,-0.768518519,0.068518519,0,0,0,,0,170,170,426,1,
,,,,,,,,,,,,,,,,,,5f6e3f3b512e8f347b1ebb83,2020-11-27_16h04.02.220,lexical_decision_task_MP_exp2,2020.2.5,Win32,60,m,0,0.531175,,,,,,,,0.531175,0,,,,,,265,NW,"ID",33,distar,DISTAR,z,,,,,,-0.768518519,0.068518519,0,0,0,,0,171,171,264,1,
,,,,,,,,,,,,,,,,,,5f6e3f3b512e8f347b1ebb83,2020-11-27_16h04.02.220,lexical_decision_task_MP_exp2,2020.2.5,Win32,60,z,1,0.8074,,,,,,,,0.8074,1,,,,,,423,NW,UN,16,praile,STRELD,z,,,,,,-0.768518519,0.068518519,0,0,0,,0,172,172,422,1,
,,,,,,,,,,,,,,,,,,5f6e3f3b512e8f347b1ebb83,2020-11-27_16h04.02.220,lexical_decision_task_MP_exp2,2020.2.5,Win32,60,z,1,1.185195,,,,,,,,1.185195,1,,,,,,468,NW,UN,16,padifs,WICTOR,z,,,,,,-0.768518519,0.068518519,0,0,0,,0,173,173,467,1,
,,,,,,,,,,,,,,,,,,5f6e3f3b512e8f347b1ebb83,2020-11-27_16h04.02.220,lexical_decision_task_MP_exp2,2020.2.5,Win32,60,z,1,1.283895,,,,,,,,1.283895,1,,,,,,428,NW,UN,16,chrums,TANDLY,z,,,,,,-0.768518519,0.068518519,0,0,0,,0,174,174,427,1,
,,,,,,,,,,,,,,,,,,5f6e3f3b512e8f347b1ebb83,2020-11-27_16h04.02.220,lexical_decision_task_MP_exp2,2020.2.5,Win32,60,z,1,0.981105,,,,,,,,0.981105,1,,,,,,278,NW,"ID",33,unighs,UNIGHS,z,,,,,,-0.768518519,0.068518519,0,0,0,,0,175,175,277,1,
,,,,,,,,,,,,,,,,,,5f6e3f3b512e8f347b1ebb83,2020-11-27_16h04.02.220,lexical_decision_task_MP_exp2,2020.2.5,Win32,60,z,1,0.869155,,,,,,,,0.869155,1,,,,,,337,NW,"ID",16,rejols,REJOLS,z,,,,,,-0.768518519,0.068518519,0,0,0,,0,176,176,336,1,
,,,,,,,,,,,,,,,,,,5f6e3f3b512e8f347b1ebb83,2020-11-27_16h04.02.220,lexical_decision_task_MP_exp2,2020.2.5,Win32,60,m,1,0.72417,,,,,,,,0.72417,1,,,,,,185,WORD,UN,16,portal,BOTHER,m,,,,,,-0.768518519,0.068518519,0,0,0,,0,177,177,184,1,
,,,,,,,,,,,,,,,,,,5f6e3f3b512e8f347b1ebb83,2020-11-27_16h04.02.220,lexical_decision_task_MP_exp2,2020.2.5,Win32,60,m,1,1.000375,,,,,,,,1.000375,1,,,,,,159,WORD,UN,33,violet,DETAIL,m,,,,,,-0.768518519,0.068518519,0,0,0,,0,178,178,158,1,
,,,,,,,,,,,,,,,,,,5f6e3f3b512e8f347b1ebb83,2020-11-27_16h04.02.220,lexical_decision_task_MP_exp2,2020.2.5,Win32,60,m,0,0.922705,,,,,,,,0.922705,0,,,,,,463,NW,UN,16,bafent,KISPEL,z,,,,,,-0.768518519,0.068518519,0,0,0,,0,179,179,462,1,
,,,,,,,,,,,,,,,,,,5f6e3f3b512e8f347b1ebb83,2020-11-27_16h04.02.220,lexical_decision_task_MP_exp2,2020.2.5,Win32,60,z,1,1.238625,,,,,,,,1.238625,1,,,,,,343,NW,"ID",16,aimosy,AIMOSY,z,,,,,,-0.768518519,0.068518519,0,0,0,,0,180,180,342,1,
,,,,,,,,,,,,,,,,,,5f6e3f3b512e8f347b1ebb83,2020-11-27_16h04.02.220,lexical_decision_task_MP_exp2,2020.2.5,Win32,60,m,0,0.99172,,,,,,,,0.99172,0,,,,,,386,NW,UN,33,gronce,ANCUST,z,,,,,,-0.768518519,0.068518519,0,0,0,,0,181,181,385,1,
,,,,,,,,,,,,,,,,,,5f6e3f3b512e8f347b1ebb83,2020-11-27_16h04.02.220,lexical_decision_task_MP_exp2,2020.2.5,Win32,60,z,0,0.56502,,,,,,,,0.56502,0,,,,,,82,WORD,"ID",16,stigma,STIGMA,m,,,,,,-0.768518519,0.068518519,0,0,0,,0,182,182,81,1,
,,,,,,,,,,,,,,,,,,5f6e3f3b512e8f347b1ebb83,2020-11-27_16h04.02.220,lexical_decision_task_MP_exp2,2020.2.5,Win32,60,m,1,0.68499,,,,,,,,0.68499,1,,,,,,158,WORD,UN,33,detail,ISLAND,m,,,,,,-0.768518519,0.068518519,0,0,0,,0,183,183,157,1,
,,,,,,,,,,,,,,,,,,5f6e3f3b512e8f347b1ebb83,2020-11-27_16h04.02.220,lexical_decision_task_MP_exp2,2020.2.5,Win32,60,z,1,0.875805,,,,,,,,0.875805,1,,,,,,297,NW,"ID",33,fertic,FERTIC,z,,,,,,-0.768518519,0.068518519,0,0,0,,0,184,184,296,1,
,,,,,,,,,,,,,,,,,,5f6e3f3b512e8f347b1ebb83,2020-11-27_16h04.02.220,lexical_decision_task_MP_exp2,2020.2.5,Win32,60,m,1,0.98537,,,,,,,,0.98537,1,,,,,,26,WORD,"ID",33,sprint,SPRINT,m,,,,,,-0.768518519,0.068518519,0,0,0,,0,185,185,25,1,
,,,,,,,,,,,,,,,,,,5f6e3f3b512e8f347b1ebb83,2020-11-27_16h04.02.220,lexical_decision_task_MP_exp2,2020.2.5,Win32,60,m,1,0.64552,,,,,,,,0.64552,1,,,,,,172,WORD,UN,33,shower,PATROL,m,,,,,,-0.768518519,0.068518519,0,0,0,,0,186,186,171,1,
,,,,,,,,,,,,,,,,,,5f6e3f3b512e8f347b1ebb83,2020-11-27_16h04.02.220,lexical_decision_task_MP_exp2,2020.2.5,Win32,60,z,1,0.666495,,,,,,,,0.666495,1,,,,,,291,NW,"ID",33,pretch,PRETCH,z,,,,,,-0.768518519,0.068518519,0,0,0,,0,187,187,290,1,
,,,,,,,,,,,,,,,,,,5f6e3f3b512e8f347b1ebb83,2020-11-27_16h04.02.220,lexical_decision_task_MP_exp2,2020.2.5,Win32,60,z,1,0.881195,,,,,,,,0.881195,1,,,,,,430,NW,UN,16,funtle,CAROEY,z,,,,,,-0.768518519,0.068518519,0,0,0,,0,188,188,429,1,
,,,,,,,,,,,,,,,,,,5f6e3f3b512e8f347b1ebb83,2020-11-27_16h04.02.220,lexical_decision_task_MP_exp2,2020.2.5,Win32,60,m,0,0.655875,,,,,,,,0.655875,0,,,,,,396,NW,UN,33,camble,FLENGY,z,,,,,,-0.768518519,0.068518519,0,0,0,,0,189,189,395,1,
,,,,,,,,,,,,,,,,,,5f6e3f3b512e8f347b1ebb83,2020-11-27_16h04.02.220,lexical_decision_task_MP_exp2,2020.2.5,Win32,60,m,1,0.614935,,,,,,,,0.614935,1,,,,,,129,WORD,UN,33,stupid,MARVEL,m,,,,,,-0.768518519,0.068518519,0,0,0,,0,190,190,128,1,
,,,,,,,,,,,,,,,,,,5f6e3f3b512e8f347b1ebb83,2020-11-27_16h04.02.220,lexical_decision_task_MP_exp2,2020.2.5,Win32,60,m,0,0.997795,,,,,,,,0.997795,0,,,,,,359,NW,"ID",16,fonver,FONVER,z,,,,,,-0.768518519,0.068518519,0,0,0,,0,191,191,358,1,
,,,,,,,,,,,,,,,,,,5f6e3f3b512e8f347b1ebb83,2020-11-27_16h04.02.220,lexical_decision_task_MP_exp2,2020.2.5,Win32,60,m,1,0.70679,,,,,,,,0.70679,1,,,,,,182,WORD,UN,16,basket,WINTER,m,,,,,,-0.768518519,0.068518519,0,0,0,,0,192,192,181,1,
,,,,,,,,,,,,,,,,,,5f6e3f3b512e8f347b1ebb83,2020-11-27_16h04.02.220,lexical_decision_task_MP_exp2,2020.2.5,Win32,60,m,0,0.935055,,,,,,,,0.935055,0,,,,,,262,NW,"ID",33,quilew,QUILEW,z,,,,,,-0.768518519,0.068518519,0,0,0,,0,193,193,261,1,
,,,,,,,,,,,,,,,,,,5f6e3f3b512e8f347b1ebb83,2020-11-27_16h04.02.220,lexical_decision_task_MP_exp2,2020.2.5,Win32,60,m,1,0.814565,,,,,,,,0.814565,1,,,,,,18,WORD,"ID",33,humble,HUMBLE,m,,,,,,-0.768518519,0.068518519,0,0,0,,0,194,194,17,1,
,,,,,,,,,,,,,,,,,,5f6e3f3b512e8f347b1ebb83,2020-11-27_16h04.02.220,lexical_decision_task_MP_exp2,2020.2.5,Win32,60,m,1,0.763475,,,,,,,,0.763475,1,,,,,,13,WORD,"ID",33,strive,STRIVE,m,,,,,,-0.768518519,0.068518519,0,0,0,,0,195,195,12,1,
,,,,,,,,,,,,,,,,,,5f6e3f3b512e8f347b1ebb83,2020-11-27_16h04.02.220,lexical_decision_task_MP_exp2,2020.2.5,Win32,60,z,1,0.864925,,,,,,,,0.864925,1,,,,,,412,NW,UN,33,equats,JILUER,z,,,,,,-0.768518519,0.068518519,0,0,0,,0,196,196,411,1,
,,,,,,,,,,,,,,,,,,5f6e3f3b512e8f347b1ebb83,2020-11-27_16h04.02.220,lexical_decision_task_MP_exp2,2020.2.5,Win32,60,z,1,0.75752,,,,,,,,0.75752,1,,,,,,331,NW,"ID",16,gilfew,GILFEW,z,,,,,,-0.768518519,0.068518519,0,0,0,,0,197,197,330,1,
,,,,,,,,,,,,,,,,,,5f6e3f3b512e8f347b1ebb83,2020-11-27_16h04.02.220,lexical_decision_task_MP_exp2,2020.2.5,Win32,60,z,1,0.752595,,,,,,,,0.752595,1,,,,,,245,NW,"ID",33,anougs,ANOUGS,z,,,,,,-0.768518519,0.068518519,0,0,0,,0,198,198,244,1,
,,,,,,,,,,,,,,,,,,5f6e3f3b512e8f347b1ebb83,2020-11-27_16h04.02.220,lexical_decision_task_MP_exp2,2020.2.5,Win32,60,m,1,0.72451,,,,,,,,0.72451,1,,,,,,39,WORD,"ID",33,insect,INSECT,m,,,,,,-0.768518519,0.068518519,0,0,0,,0,199,199,38,1,
,,,,,,,,,,,,,,,,,,5f6e3f3b512e8f347b1ebb83,2020-11-27_16h04.02.220,lexical_decision_task_MP_exp2,2020.2.5,Win32,60,m,1,0.631005,,,,,,,,0.631005,1,,,,,,78,WORD,"ID",16,column,COLUMN,m,,,,,,-0.768518519,0.068518519,0,0,0,,0,200,200,77,1,
,,,,,,,,,,,,,,,,,,5f6e3f3b512e8f347b1ebb83,2020-11-27_16h04.02.220,lexical_decision_task_MP_exp2,2020.2.5,Win32,60,m,1,0.665,,,,,,,,0.665,1,,,,,,96,WORD,"ID",16,ignore,IGNORE,m,,,,,,-0.768518519,0.068518519,0,0,0,,0,201,201,95,1,
,,,,,,,,,,,,,,,,,,5f6e3f3b512e8f347b1ebb83,2020-11-27_16h04.02.220,lexical_decision_task_MP_exp2,2020.2.5,Win32,60,z,1,0.600535,,,,,,,,0.600535,1,,,,,,375,NW,UN,33,iguare,YORQUE,z,,,,,,-0.768518519,0.068518519,0,0,0,,0,202,202,374,1,
,,,,,,,,,,,,,,,,,,5f6e3f3b512e8f347b1ebb83,2020-11-27_16h04.02.220,lexical_decision_task_MP_exp2,2020.2.5,Win32,60,m,1,0.634165,,,,,,,,0.634165,1,,,,,,28,WORD,"ID",33,comedy,COMEDY,m,,,,,,-0.768518519,0.068518519,0,0,0,,0,203,203,27,1,
,,,,,,,,,,,,,,,,,,5f6e3f3b512e8f347b1ebb83,2020-11-27_16h04.02.220,lexical_decision_task_MP_exp2,2020.2.5,Win32,60,z,0,0.65835,,,,,,,,0.65835,0,,,,,,33,WORD,"ID",33,butler,BUTLER,m,,,,,,-0.768518519,0.068518519,0,0,0,,0,204,204,32,1,
,,,,,,,,,,,,,,,,,,5f6e3f3b512e8f347b1ebb83,2020-11-27_16h04.02.220,lexical_decision_task_MP_exp2,2020.2.5,Win32,60,m,1,0.665715,,,,,,,,0.665715,1,,,,,,73,WORD,"ID",16,source,SOURCE,m,,,,,,-0.768518519,0.068518519,0,0,0,,0,205,205,72,1,
,,,,,,,,,,,,,,,,,,5f6e3f3b512e8f347b1ebb83,2020-11-27_16h04.02.220,lexical_decision_task_MP_exp2,2020.2.5,Win32,60,z,1,1.1519,,,,,,,,1.1519,1,,,,,,365,NW,UN,33,toshel,GUAIRT,z,,,,,,-0.768518519,0.068518519,0,0,0,,0,206,206,364,1,
,,,,,,,,,,,,,,,,,,5f6e3f3b512e8f347b1ebb83,2020-11-27_16h04.02.220,lexical_decision_task_MP_exp2,2020.2.5,Win32,60,m,1,0.71484,,,,,,,,0.71484,1,,,,,,127,WORD,UN,33,senior,CASTLE,m,,,,,,-0.768518519,0.068518519,0,0,0,,0,207,207,126,1,
,,,,,,,,,,,,,,,,,,5f6e3f3b512e8f347b1ebb83,2020-11-27_16h04.02.220,lexical_decision_task_MP_exp2,2020.2.5,Win32,60,z,1,1.147745,,,,,,,,1.147745,1,,,,,,307,NW,"ID",16,kirafe,KIRAFE,z,,,,,,-0.768518519,0.068518519,0,0,0,,0,208,208,306,1,
,,,,,,,,,,,,,,,,,,5f6e3f3b512e8f347b1ebb83,2020-11-27_16h04.02.220,lexical_decision_task_MP_exp2,2020.2.5,Win32,60,z,0,0.70035,,,,,,,,0.70035,0,,,,,,124,WORD,UN,33,nickel,BLOUSE,m,,,,,,-0.768518519,0.068518519,0,0,0,,0,209,209,123,1,
,,,,,,,,,,,,,,,,,,5f6e3f3b512e8f347b1ebb83,2020-11-27_16h04.02.220,lexical_decision_task_MP_exp2,2020.2.5,Win32,60,m,0,0.78138,,,,,,,,0.78138,0,,,,,,266,NW,"ID",33,varmit,VARMIT,z,,,,,,-0.768518519,0.068518519,0,0,0,,0,210,210,265,1,
,,,,,,,,,,,,,,,,,,5f6e3f3b512e8f347b1ebb83,2020-11-27_16h04.02.220,lexical_decision_task_MP_exp2,2020.2.5,Win32,60,z,0,0.69908,,,,,,,,0.69908,0,,,,,,56,WORD,"ID",33,ambush,AMBUSH,m,,,,,,-0.768518519,0.068518519,0,0,0,,0,211,211,55,1,
,,,,,,,,,,,,,,,,,,5f6e3f3b512e8f347b1ebb83,2020-11-27_16h04.02.220,lexical_decision_task_MP_exp2,2020.2.5,Win32,60,z,1,0.98387,,,,,,,,0.98387,1,,,,,,391,NW,UN,33,rouncy,THELDY,z,,,,,,-0.768518519,0.068518519,0,0,0,,0,212,212,390,1,
,,,,,,,,,,,,,,,,,,5f6e3f3b512e8f347b1ebb83,2020-11-27_16h04.02.220,lexical_decision_task_MP_exp2,2020.2.5,Win32,60,z,1,0.7811,,,,,,,,0.7811,1,,,,,,415,NW,UN,33,pathel,HIGSTA,z,,,,,,-0.768518519,0.068518519,0,0,0,,0,213,213,414,1,
,,,,,,,,,,,,,,,,,,5f6e3f3b512e8f347b1ebb83,2020-11-27_16h04.02.220,lexical_decision_task_MP_exp2,2020.2.5,Win32,60,z,1,1.04802,,,,,,,,1.04802,1,,,,,,383,NW,UN,33,guesco,AUNGRE,z,,,,,,-0.768518519,0.068518519,0,0,0,,0,214,214,382,1,
,,,,,,,,,,,,,,,,,,5f6e3f3b512e8f347b1ebb83,2020-11-27_16h04.02.220,lexical_decision_task_MP_exp2,2020.2.5,Win32,60,m,1,0.540135,,,,,,,,0.540135,1,,,,,,210,WORD,UN,16,infect,MONKEY,m,,,,,,-0.768518519,0.068518519,0,0,0,,0,215,215,209,1,
,,,,,,,,,,,,,,,,,,5f6e3f3b512e8f347b1ebb83,2020-11-27_16h04.02.220,lexical_decision_task_MP_exp2,2020.2.5,Win32,60,m,1,0.56793,,,,,,,,0.56793,1,,,,,,155,WORD,UN,33,cradle,LIZARD,m,,,,,,-0.768518519,0.068518519,0,0,0,,0,216,216,154,1,
,,,,,,,,,,,,,,,,,,5f6e3f3b512e8f347b1ebb83,2020-11-27_16h04.02.220,lexical_decision_task_MP_exp2,2020.2.5,Win32,60,m,1,0.764855,,,,,,,,0.764855,1,,,,,,231,WORD,UN,16,mother,EXPORT,m,,,,,,-0.768518519,0.068518519,0,0,0,,0,217,217,230,1,
,,,,,,,,,,,,,,,,,,5f6e3f3b512e8f347b1ebb83,2020-11-27_16h04.02.220,lexical_decision_task_MP_exp2,2020.2.5,Win32,60,m,1,0.574295,,,,,,,,0.574295,1,,,,,,175,WORD,UN,33,strife,FABRIC,m,,,,,,-0.768518519,0.068518519,0,0,0,,0,218,218,174,1,
,,,,,,,,,,,,,,,,,,5f6e3f3b512e8f347b1ebb83,2020-11-27_16h04.02.220,lexical_decision_task_MP_exp2,2020.2.5,Win32,60,m,1,0.81722,,,,,,,,0.81722,1,,,,,,70,WORD,"ID",16,square,SQUARE,m,,,,,,-0.768518519,0.068518519,0,0,0,,0,219,219,69,1,
,,,,,,,,,,,,,,,,,,5f6e3f3b512e8f347b1ebb83,2020-11-27_16h04.02.220,lexical_decision_task_MP_exp2,2020.2.5,Win32,60,m,1,0.5059,,,,,,,,0.5059,1,,,,,,46,WORD,"ID",33,single,SINGLE,m,,,,,,-0.768518519,0.068518519,0,0,0,,0,220,220,45,1,
,,,,,,,,,,,,,,,,,,5f6e3f3b512e8f347b1ebb83,2020-11-27_16h04.02.220,lexical_decision_task_MP_exp2,2020.2.5,Win32,60,z,1,1.022975,,,,,,,,1.022975,1,,,,,,384,NW,UN,33,veigma,GUESCO,z,,,,,,-0.768518519,0.068518519,0,0,0,,0,221,221,383,1,
,,,,,,,,,,,,,,,,,,5f6e3f3b512e8f347b1ebb83,2020-11-27_16h04.02.220,lexical_decision_task_MP_exp2,2020.2.5,Win32,60,z,1,0.848455,,,,,,,,0.848455,1,,,,,,405,NW,UN,33,nouply,FLUMNI,z,,,,,,-0.768518519,0.068518519,0,0,0,,0,222,222,404,1,
,,,,,,,,,,,,,,,,,,5f6e3f3b512e8f347b1ebb83,2020-11-27_16h04.02.220,lexical_decision_task_MP_exp2,2020.2.5,Win32,60,z,1,1.055075,,,,,,,,1.055075,1,,,,,,271,NW,"ID",33,aubrid,AUBRID,z,,,,,,-0.768518519,0.068518519,0,0,0,,0,223,223,270,1,
,,,,,,,,,,,,,,,,,,5f6e3f3b512e8f347b1ebb83,2020-11-27_16h04.02.220,lexical_decision_task_MP_exp2,2020.2.5,Win32,60,m,1,0.639255,,,,,,,,0.639255,1,,,,,,196,WORD,UN,16,stream,CREDIT,m,,,,,,-0.768518519,0.068518519,0,0,0,,0,224,224,195,1,
,,,,,,,,,,,,,,,,,,5f6e3f3b512e8f347b1ebb83,2020-11-27_16h04.02.220,lexical_decision_task_MP_exp2,2020.2.5,Win32,60,m,1,1.18327,,,,,,,,1.18327,1,,,,,,199,WORD,UN,16,beacon,INVOKE,m,,,,,,-0.768518519,0.068518519,0,0,0,,0,225,225,198,1,
,,,,,,,,,,,,,,,,,,5f6e3f3b512e8f347b1ebb83,2020-11-27_16h04.02.220,lexical_decision_task_MP_exp2,2020.2.5,Win32,60,z,1,0.753525,,,,,,,,0.753525,1,,,,,,254,NW,"ID",33,varosh,VAROSH,z,,,,,,-0.768518519,0.068518519,0,0,0,,0,226,226,253,1,
,,,,,,,,,,,,,,,,,,5f6e3f3b512e8f347b1ebb83,2020-11-27_16h04.02.220,lexical_decision_task_MP_exp2,2020.2.5,Win32,60,m,1,0.668905,,,,,,,,0.668905,1,,,,,,218,WORD,UN,16,bucket,SHRINK,m,,,,,,-0.768518519,0.068518519,0,0,0,,0,227,227,217,1,
,,,,,,,,,,,,,,,,,,5f6e3f3b512e8f347b1ebb83,2020-11-27_16h04.02.220,lexical_decision_task_MP_exp2,2020.2.5,Win32,60,z,1,0.864975,,,,,,,,0.864975,1,,,,,,404,NW,UN,33,syntic,CLUIRM,z,,,,,,-0.768518519,0.068518519,0,0,0,,0,228,228,403,1,
,,,,,,,,,,,,,,,,,,5f6e3f3b512e8f347b1ebb83,2020-11-27_16h04.02.220,lexical_decision_task_MP_exp2,2020.2.5,Win32,60,z,1,0.89067,,,,,,,,0.89067,1,,,,,,261,NW,"ID",33,stunch,STUNCH,z,,,,,,-0.768518519,0.068518519,0,0,0,,0,229,229,260,1,
,,,,,,,,,,,,,,,,,,5f6e3f3b512e8f347b1ebb83,2020-11-27_16h04.02.220,lexical_decision_task_MP_exp2,2020.2.5,Win32,60,z,1,0.84864,,,,,,,,0.84864,1,,,,,,347,NW,"ID",16,kerift,KERIFT,z,,,,,,-0.768518519,0.068518519,0,0,0,,0,230,230,346,1,
,,,,,,,,,,,,,,,,,,5f6e3f3b512e8f347b1ebb83,2020-11-27_16h04.02.220,lexical_decision_task_MP_exp2,2020.2.5,Win32,60,z,1,0.99818,,,,,,,,0.99818,1,,,,,,356,NW,"ID",16,othnis,OTHNIS,z,,,,,,-0.768518519,0.068518519,0,0,0,,0,231,231,355,1,
,,,,,,,,,,,,,,,,,,5f6e3f3b512e8f347b1ebb83,2020-11-27_16h04.02.220,lexical_decision_task_MP_exp2,2020.2.5,Win32,60,z,1,1.048165,,,,,,,,1.048165,1,,,,,,341,NW,"ID",16,myrtie,MYRTIE,z,,,,,,-0.768518519,0.068518519,0,0,0,,0,232,232,340,1,
,,,,,,,,,,,,,,,,,,5f6e3f3b512e8f347b1ebb83,2020-11-27_16h04.02.220,lexical_decision_task_MP_exp2,2020.2.5,Win32,60,m,1,0.998025,,,,,,,,0.998025,1,,,,,,227,WORD,UN,16,master,SELDOM,m,,,,,,-0.768518519,0.068518519,0,0,0,,0,233,233,226,1,
,,,,,,,,,,,,,,,,,,5f6e3f3b512e8f347b1ebb83,2020-11-27_16h04.02.220,lexical_decision_task_MP_exp2,2020.2.5,Win32,60,m,1,0.68364,,,,,,,,0.68364,1,,,,,,100,WORD,"ID",16,carbon,CARBON,m,,,,,,-0.768518519,0.068518519,0,0,0,,0,234,234,99,1,
,,,,,,,,,,,,,,,,,,5f6e3f3b512e8f347b1ebb83,2020-11-27_16h04.02.220,lexical_decision_task_MP_exp2,2020.2.5,Win32,60,z,1,0.9709,,,,,,,,0.9709,1,,,,,,305,NW,"ID",16,forgle,FORGLE,z,,,,,,-0.768518519,0.068518519,0,0,0,,0,235,235,304,1,
,,,,,,,,,,,,,,,,,,5f6e3f3b512e8f347b1ebb83,2020-11-27_16h04.02.220,lexical_decision_task_MP_exp2,2020.2.5,Win32,60,z,1,0.766305,,,,,,,,0.766305,1,,,,,,319,NW,"ID",16,zomber,ZOMBER,z,,,,,,-0.768518519,0.068518519,0,0,0,,0,236,236,318,1,
,,,,,,,,,,,,,,,,,,5f6e3f3b512e8f347b1ebb83,2020-11-27_16h04.02.220,lexical_decision_task_MP_exp2,2020.2.5,Win32,60,m,1,1.242305,,,,,,,,1.242305,1,,,,,,109,WORD,"ID",16,wonder,WONDER,m,,,,,,-0.768518519,0.068518519,0,0,0,,0,237,237,108,1,
,,,,,,,,,,,,,,,,,,5f6e3f3b512e8f347b1ebb83,2020-11-27_16h04.02.220,lexical_decision_task_MP_exp2,2020.2.5,Win32,60,m,0,0.964675,,,,,,,,0.964675,0,,,,,,325,NW,"ID",16,thruse,THRUSE,z,,,,,,-0.768518519,0.068518519,0,0,0,,0,238,238,324,1,
,,,,,,,,,,,,,,,,,,5f6e3f3b512e8f347b1ebb83,2020-11-27_16h04.02.220,lexical_decision_task_MP_exp2,2020.2.5,Win32,60,m,1,0.81479,,,,,,,,0.81479,1,,,,,,90,WORD,"ID",16,relish,RELISH,m,,,,,,-0.768518519,0.068518519,0,0,0,,0,239,239,89,1,
,,,,,,,,,,,,,,,,,,5f6e3f3b512e8f347b1ebb83,2020-11-27_16h04.02.220,lexical_decision_task_MP_exp2,2020.2.5,Win32,60,m,1,0.68614,,,,,,,,0.68614,1,,,,,,60,WORD,"ID",33,pencil,PENCIL,m,,,,,,-0.768518519,0.068518519,0,0,0,,0,240,240,59,1,
,,,,,,,,,,,,,,,,,,5f6e3f3b512e8f347b1ebb83,2020-11-27_16h04.02.220,lexical_decision_task_MP_exp2,2020.2.5,Win32,60,m,1,0.66737,,,,,,,,0.66737,1,,,,,,219,WORD,UN,16,voyage,BUCKET,m,,,,,,-0.768518519,0.068518519,0,0,0,space,0,241,241,218,1,2.19782
,,,,,,,,,,,,,,,,,,5f6e3f3b512e8f347b1ebb83,2020-11-27_16h04.02.220,lexical_decision_task_MP_exp2,2020.2.5,Win32,60,m,0,1.12238,,,,,,,,1.12238,0,,,,,,267,NW,"ID",33,pasink,PASINK,z,,,,,,-0.768518519,0.068518519,0,0,0,,0,242,242,266,1,
,,,,,,,,,,,,,,,,,,5f6e3f3b512e8f347b1ebb83,2020-11-27_16h04.02.220,lexical_decision_task_MP_exp2,2020.2.5,Win32,60,m,1,0.68784,,,,,,,,0.68784,1,,,,,,213,WORD,UN,16,intake,SQUEAL,m,,,,,,-0.768518519,0.068518519,0,0,0,,0,243,243,212,1,
,,,,,,,,,,,,,,,,,,5f6e3f3b512e8f347b1ebb83,2020-11-27_16h04.02.220,lexical_decision_task_MP_exp2,2020.2.5,Win32,60,z,1,0.934875,,,,,,,,0.934875,1,,,,,,335,NW,"ID",16,desion,DESION,z,,,,,,-0.768518519,0.068518519,0,0,0,,0,244,244,334,1,
,,,,,,,,,,,,,,,,,,5f6e3f3b512e8f347b1ebb83,2020-11-27_16h04.02.220,lexical_decision_task_MP_exp2,2020.2.5,Win32,60,m,1,0.834845,,,,,,,,0.834845,1,,,,,,201,WORD,UN,16,factor,ADMIRE,m,,,,,,-0.768518519,0.068518519,0,0,0,,0,245,245,200,1,
,,,,,,,,,,,,,,,,,,5f6e3f3b512e8f347b1ebb83,2020-11-27_16h04.02.220,lexical_decision_task_MP_exp2,2020.2.5,Win32,60,z,1,1.27443,,,,,,,,1.27443,1,,,,,,253,NW,"ID",33,resait,RESAIT,z,,,,,,-0.768518519,0.068518519,0,0,0,,0,246,246,252,1,
,,,,,,,,,,,,,,,,,,5f6e3f3b512e8f347b1ebb83,2020-11-27_16h04.02.220,lexical_decision_task_MP_exp2,2020.2.5,Win32,60,z,1,0.600465,,,,,,,,0.600465,1,,,,,,362,NW,UN,33,breali,TIREAU,z,,,,,,-0.768518519,0.068518519,0,0,0,,0,247,247,361,1,
,,,,,,,,,,,,,,,,,,5f6e3f3b512e8f347b1ebb83,2020-11-27_16h04.02.220,lexical_decision_task_MP_exp2,2020.2.5,Win32,60,z,0,0.898815,,,,,,,,0.898815,0,,,,,,61,WORD,"ID",16,ponder,PONDER,m,,,,,,-0.768518519,0.068518519,0,0,0,,0,248,248,60,1,
,,,,,,,,,,,,,,,,,,5f6e3f3b512e8f347b1ebb83,2020-11-27_16h04.02.220,lexical_decision_task_MP_exp2,2020.2.5,Win32,60,m,1,0.673005,,,,,,,,0.673005,1,,,,,,237,WORD,UN,16,seldom,POSTER,m,,,,,,-0.768518519,0.068518519,0,0,0,,0,249,249,236,1,
,,,,,,,,,,,,,,,,,,5f6e3f3b512e8f347b1ebb83,2020-11-27_16h04.02.220,lexical_decision_task_MP_exp2,2020.2.5,Win32,60,z,1,0.94781,,,,,,,,0.94781,1,,,,,,279,NW,"ID",33,celond,CELOND,z,,,,,,-0.768518519,0.068518519,0,0,0,,0,250,250,278,1,
,,,,,,,,,,,,,,,,,,5f6e3f3b512e8f347b1ebb83,2020-11-27_16h04.02.220,lexical_decision_task_MP_exp2,2020.2.5,Win32,60,m,1,0.586685,,,,,,,,0.586685,1,,,,,,143,WORD,UN,33,sponge,REASON,m,,,,,,-0.768518519,0.068518519,0,0,0,,0,251,251,142,1,
,,,,,,,,,,,,,,,,,,5f6e3f3b512e8f347b1ebb83,2020-11-27_16h04.02.220,lexical_decision_task_MP_exp2,2020.2.5,Win32,60,z,1,1.04798,,,,,,,,1.04798,1,,,,,,363,NW,UN,33,impote,BREALI,z,,,,,,-0.768518519,0.068518519,0,0,0,,0,252,252,362,1,
,,,,,,,,,,,,,,,,,,5f6e3f3b512e8f347b1ebb83,2020-11-27_16h04.02.220,lexical_decision_task_MP_exp2,2020.2.5,Win32,60,m,1,0.90067,,,,,,,,0.90067,1,,,,,,77,WORD,"ID",16,racket,RACKET,m,,,,,,-0.768518519,0.068518519,0,0,0,,0,253,253,76,1,
,,,,,,,,,,,,,,,,,,5f6e3f3b512e8f347b1ebb83,2020-11-27_16h04.02.220,lexical_decision_task_MP_exp2,2020.2.5,Win32,60,m,1,0.67528,,,,,,,,0.67528,1,,,,,,220,WORD,UN,16,mascot,VOYAGE,m,,,,,,-0.768518519,0.068518519,0,0,0,,0,254,254,219,1,
,,,,,,,,,,,,,,,,,,5f6e3f3b512e8f347b1ebb83,2020-11-27_16h04.02.220,lexical_decision_task_MP_exp2,2020.2.5,Win32,60,m,1,1.049925,,,,,,,,1.049925,1,,,,,,216,WORD,UN,16,liquor,BEHALF,m,,,,,,-0.768518519,0.068518519,0,0,0,,0,255,255,215,1,
,,,,,,,,,,,,,,,,,,5f6e3f3b512e8f347b1ebb83,2020-11-27_16h04.02.220,lexical_decision_task_MP_exp2,2020.2.5,Win32,60,m,1,0.617245,,,,,,,,0.617245,1,,,,,,104,WORD,"ID",16,studio,STUDIO,m,,,,,,-0.768518519,0.068518519,0,0,0,,0,256,256,103,1,
,,,,,,,,,,,,,,,,,,5f6e3f3b512e8f347b1ebb83,2020-11-27_16h04.02.220,lexical_decision_task_MP_exp2,2020.2.5,Win32,60,m,0,0.89832,,,,,,,,0.89832,0,,,,,,419,NW,UN,33,gushop,SLOUNT,z,,,,,,-0.768518519,0.068518519,0,0,0,,0,257,257,418,1,
,,,,,,,,,,,,,,,,,,5f6e3f3b512e8f347b1ebb83,2020-11-27_16h04.02.220,lexical_decision_task_MP_exp2,2020.2.5,Win32,60,z,0,1.000655,,,,,,,,1.000655,0,,,,,,165,WORD,UN,33,starch,INVEST,m,,,,,,-0.768518519,0.068518519,0,0,0,,0,258,258,164,1,
,,,,,,,,,,,,,,,,,,5f6e3f3b512e8f347b1ebb83,2020-11-27_16h04.02.220,lexical_decision_task_MP_exp2,2020.2.5,Win32,60,m,1,0.641115,,,,,,,,0.641115,1,,,,,,177,WORD,UN,33,inform,ADVENT,m,,,,,,-0.768518519,0.068518519,0,0,0,,0,259,259,176,1,
,,,,,,,,,,,,,,,,,,5f6e3f3b512e8f347b1ebb83,2020-11-27_16h04.02.220,lexical_decision_task_MP_exp2,2020.2.5,Win32,60,m,1,0.78125,,,,,,,,0.78125,1,,,,,,89,WORD,"ID",16,permit,PERMIT,m,,,,,,-0.768518519,0.068518519,0,0,0,,0,260,260,88,1,
,,,,,,,,,,,,,,,,,,5f6e3f3b512e8f347b1ebb83,2020-11-27_16h04.02.220,lexical_decision_task_MP_exp2,2020.2.5,Win32,60,m,0,0.79805,,,,,,,,0.79805,0,,,,,,425,NW,UN,16,schind,FRUDGE,z,,,,,,-0.768518519,0.068518519,0,0,0,,0,261,261,424,1,
,,,,,,,,,,,,,,,,,,5f6e3f3b512e8f347b1ebb83,2020-11-27_16h04.02.220,lexical_decision_task_MP_exp2,2020.2.5,Win32,60,m,1,0.75831,,,,,,,,0.75831,1,,,,,,236,WORD,UN,16,poster,PIRATE,m,,,,,,-0.768518519,0.068518519,0,0,0,,0,262,262,235,1,
,,,,,,,,,,,,,,,,,,5f6e3f3b512e8f347b1ebb83,2020-11-27_16h04.02.220,lexical_decision_task_MP_exp2,2020.2.5,Win32,60,m,0,1.07393,,,,,,,,1.07393,0,,,,,,322,NW,"ID",16,slanch,SLANCH,z,,,,,,-0.768518519,0.068518519,0,0,0,,0,263,263,321,1,
,,,,,,,,,,,,,,,,,,5f6e3f3b512e8f347b1ebb83,2020-11-27_16h04.02.220,lexical_decision_task_MP_exp2,2020.2.5,Win32,60,z,1,0.697955,,,,,,,,0.697955,1,,,,,,320,NW,"ID",16,jockal,JOCKAL,z,,,,,,-0.768518519,0.068518519,0,0,0,,0,264,264,319,1,
,,,,,,,,,,,,,,,,,,5f6e3f3b512e8f347b1ebb83,2020-11-27_16h04.02.220,lexical_decision_task_MP_exp2,2020.2.5,Win32,60,z,1,0.881325,,,,,,,,0.881325,1,,,,,,411,NW,UN,33,jiluer,ORCHIN,z,,,,,,-0.768518519,0.068518519,0,0,0,,0,265,265,410,1,
,,,,,,,,,,,,,,,,,,5f6e3f3b512e8f347b1ebb83,2020-11-27_16h04.02.220,lexical_decision_task_MP_exp2,2020.2.5,Win32,60,m,1,0.604875,,,,,,,,0.604875,1,,,,,,62,WORD,"ID",16,region,REGION,m,,,,,,-0.768518519,0.068518519,0,0,0,,0,266,266,61,1,
,,,,,,,,,,,,,,,,,,5f6e3f3b512e8f347b1ebb83,2020-11-27_16h04.02.220,lexical_decision_task_MP_exp2,2020.2.5,Win32,60,m,1,1.014465,,,,,,,,1.014465,1,,,,,,137,WORD,UN,33,melody,FINGER,m,,,,,,-0.768518519,0.068518519,0,0,0,,0,267,267,136,1,
,,,,,,,,,,,,,,,,,,5f6e3f3b512e8f347b1ebb83,2020-11-27_16h04.02.220,lexical_decision_task_MP_exp2,2020.2.5,Win32,60,m,1,1.351065,,,,,,,,1.351065,1,,,,,,45,WORD,"ID",33,clergy,CLERGY,m,,,,,,-0.768518519,0.068518519,0,0,0,,0,268,268,44,1,
,,,,,,,,,,,,,,,,,,5f6e3f3b512e8f347b1ebb83,2020-11-27_16h04.02.220,lexical_decision_task_MP_exp2,2020.2.5,Win32,60,m,1,1.082395,,,,,,,,1.082395,1,,,,,,63,WORD,"ID",16,launch,LAUNCH,m,,,,,,-0.768518519,0.068518519,0,0,0,,0,269,269,62,1,
,,,,,,,,,,,,,,,,,,5f6e3f3b512e8f347b1ebb83,2020-11-27_16h04.02.220,lexical_decision_task_MP_exp2,2020.2.5,Win32,60,m,1,0.70068,,,,,,,,0.70068,1,,,,,,149,WORD,UN,33,random,INVADE,m,,,,,,-0.768518519,0.068518519,0,0,0,,0,270,270,148,1,
,,,,,,,,,,,,,,,,,,5f6e3f3b512e8f347b1ebb83,2020-11-27_16h04.02.220,lexical_decision_task_MP_exp2,2020.2.5,Win32,60,z,1,0.773785,,,,,,,,0.773785,1,,,,,,377,NW,UN,33,shrile,INJORE,z,,,,,,-0.768518519,0.068518519,0,0,0,,0,271,271,376,1,
,,,,,,,,,,,,,,,,,,5f6e3f3b512e8f347b1ebb83,2020-11-27_16h04.02.220,lexical_decision_task_MP_exp2,2020.2.5,Win32,60,z,1,1.548,,,,,,,,1.548,1,,,,,,346,NW,"ID",16,saudic,SAUDIC,z,,,,,,-0.768518519,0.068518519,0,0,0,,0,272,272,345,1,
,,,,,,,,,,,,,,,,,,5f6e3f3b512e8f347b1ebb83,2020-11-27_16h04.02.220,lexical_decision_task_MP_exp2,2020.2.5,Win32,60,z,0,1.253005,,,,,,,,1.253005,0,,,,,,67,WORD,"ID",16,policy,POLICY,m,,,,,,-0.768518519,0.068518519,0,0,0,,0,273,273,66,1,
,,,,,,,,,,,,,,,,,,5f6e3f3b512e8f347b1ebb83,2020-11-27_16h04.02.220,lexical_decision_task_MP_exp2,2020.2.5,Win32,60,z,0,0.98806,,,,,,,,0.98806,0,,,,,,142,WORD,UN,33,orphan,SPRUCE,m,,,,,,-0.768518519,0.068518519,0,0,0,,0,274,274,141,1,
,,,,,,,,,,,,,,,,,,5f6e3f3b512e8f347b1ebb83,2020-11-27_16h04.02.220,lexical_decision_task_MP_exp2,2020.2.5,Win32,60,z,1,1.198755,,,,,,,,1.198755,1,,,,,,469,NW,UN,16,crudio,PADIFS,z,,,,,,-0.768518519,0.068518519,0,0,0,,0,275,275,468,1,
,,,,,,,,,,,,,,,,,,5f6e3f3b512e8f347b1ebb83,2020-11-27_16h04.02.220,lexical_decision_task_MP_exp2,2020.2.5,Win32,60,m,1,0.63172,,,,,,,,0.63172,1,,,,,,9,WORD,"ID",33,hustle,HUSTLE,m,,,,,,-0.768518519,0.068518519,0,0,0,,0,276,276,8,1,
,,,,,,,,,,,,,,,,,,5f6e3f3b512e8f347b1ebb83,2020-11-27_16h04.02.220,lexical_decision_task_MP_exp2,2020.2.5,Win32,60,m,0,0.67183,,,,,,,,0.67183,0,,,,,,374,NW,UN,33,yorque,SLIANT,z,,,,,,-0.768518519,0.068518519,0,0,0,,0,277,277,373,1,
,,,,,,,,,,,,,,,,,,5f6e3f3b512e8f347b1ebb83,2020-11-27_16h04.02.220,lexical_decision_task_MP_exp2,2020.2.5,Win32,60,z,1,1.455115,,,,,,,,1.455115,1,,,,,,453,NW,UN,16,scouge,BOLVIS,z,,,,,,-0.768518519,0.068518519,0,0,0,,0,278,278,452,1,
,,,,,,,,,,,,,,,,,,5f6e3f3b512e8f347b1ebb83,2020-11-27_16h04.02.220,lexical_decision_task_MP_exp2,2020.2.5,Win32,60,z,1,0.93362,,,,,,,,0.93362,1,,,,,,340,NW,"ID",16,fiatch,FIATCH,z,,,,,,-0.768518519,0.068518519,0,0,0,,0,279,279,339,1,
,,,,,,,,,,,,,,,,,,5f6e3f3b512e8f347b1ebb83,2020-11-27_16h04.02.220,lexical_decision_task_MP_exp2,2020.2.5,Win32,60,z,1,0.964655,,,,,,,,0.964655,1,,,,,,293,NW,"ID",33,swance,SWANCE,z,,,,,,-0.768518519,0.068518519,0,0,0,,0,280,280,292,1,
,,,,,,,,,,,,,,,,,,5f6e3f3b512e8f347b1ebb83,2020-11-27_16h04.02.220,lexical_decision_task_MP_exp2,2020.2.5,Win32,60,m,1,0.75769,,,,,,,,0.75769,1,,,,,,30,WORD,"ID",33,orient,ORIENT,m,,,,,,-0.768518519,0.068518519,0,0,0,,0,281,281,29,1,
,,,,,,,,,,,,,,,,,,5f6e3f3b512e8f347b1ebb83,2020-11-27_16h04.02.220,lexical_decision_task_MP_exp2,2020.2.5,Win32,60,z,1,1.433545,,,,,,,,1.433545,1,,,,,,439,NW,UN,16,saride,LIMPOR,z,,,,,,-0.768518519,0.068518519,0,0,0,,0,282,282,438,1,
,,,,,,,,,,,,,,,,,,5f6e3f3b512e8f347b1ebb83,2020-11-27_16h04.02.220,lexical_decision_task_MP_exp2,2020.2.5,Win32,60,m,1,0.417835,,,,,,,,0.417835,1,,,,,,48,WORD,"ID",33,walnut,WALNUT,m,,,,,,-0.768518519,0.068518519,0,0,0,,0,283,283,47,1,
,,,,,,,,,,,,,,,,,,5f6e3f3b512e8f347b1ebb83,2020-11-27_16h04.02.220,lexical_decision_task_MP_exp2,2020.2.5,Win32,60,m,0,0.83445,,,,,,,,0.83445,0,,,,,,256,NW,"ID",33,inlors,INLORS,z,,,,,,-0.768518519,0.068518519,0,0,0,,0,284,284,255,1,
,,,,,,,,,,,,,,,,,,5f6e3f3b512e8f347b1ebb83,2020-11-27_16h04.02.220,lexical_decision_task_MP_exp2,2020.2.5,Win32,60,m,0,0.858865,,,,,,,,0.858865,0,,,,,,348,NW,"ID",16,dumple,DUMPLE,z,,,,,,-0.768518519,0.068518519,0,0,0,,0,285,285,347,1,
,,,,,,,,,,,,,,,,,,5f6e3f3b512e8f347b1ebb83,2020-11-27_16h04.02.220,lexical_decision_task_MP_exp2,2020.2.5,Win32,60,z,1,0.858915,,,,,,,,0.858915,1,,,,,,444,NW,UN,16,minkel,JAUNCE,z,,,,,,-0.768518519,0.068518519,0,0,0,,0,286,286,443,1,
,,,,,,,,,,,,,,,,,,5f6e3f3b512e8f347b1ebb83,2020-11-27_16h04.02.220,lexical_decision_task_MP_exp2,2020.2.5,Win32,60,m,0,0.581515,,,,,,,,0.581515,0,,,,,,471,NW,UN,16,cigney,NOBEST,z,,,,,,-0.768518519,0.068518519,0,0,0,,0,287,287,470,1,
,,,,,,,,,,,,,,,,,,5f6e3f3b512e8f347b1ebb83,2020-11-27_16h04.02.220,lexical_decision_task_MP_exp2,2020.2.5,Win32,60,m,0,0.64768,,,,,,,,0.64768,0,,,,,,284,NW,"ID",33,shaple,SHAPLE,z,,,,,,-0.768518519,0.068518519,0,0,0,,0,288,288,283,1,
,,,,,,,,,,,,,,,,,,5f6e3f3b512e8f347b1ebb83,2020-11-27_16h04.02.220,lexical_decision_task_MP_exp2,2020.2.5,Win32,60,z,1,0.83099,,,,,,,,0.83099,1,,,,,,429,NW,UN,16,caroey,FUNTLE,z,,,,,,-0.768518519,0.068518519,0,0,0,,0,289,289,428,1,
,,,,,,,,,,,,,,,,,,5f6e3f3b512e8f347b1ebb83,2020-11-27_16h04.02.220,lexical_decision_task_MP_exp2,2020.2.5,Win32,60,z,0,0.60563,,,,,,,,0.60563,0,,,,,,203,WORD,UN,16,burden,PHRASE,m,,,,,,-0.768518519,0.068518519,0,0,0,,0,290,290,202,1,
,,,,,,,,,,,,,,,,,,5f6e3f3b512e8f347b1ebb83,2020-11-27_16h04.02.220,lexical_decision_task_MP_exp2,2020.2.5,Win32,60,m,1,0.686745,,,,,,,,0.686745,1,,,,,,204,WORD,UN,16,lounge,BURDEN,m,,,,,,-0.768518519,0.068518519,0,0,0,,0,291,291,203,1,
,,,,,,,,,,,,,,,,,,5f6e3f3b512e8f347b1ebb83,2020-11-27_16h04.02.220,lexical_decision_task_MP_exp2,2020.2.5,Win32,60,m,1,0.614435,,,,,,,,0.614435,1,,,,,,11,WORD,"ID",33,cruise,CRUISE,m,,,,,,-0.768518519,0.068518519,0,0,0,,0,292,292,10,1,
,,,,,,,,,,,,,,,,,,5f6e3f3b512e8f347b1ebb83,2020-11-27_16h04.02.220,lexical_decision_task_MP_exp2,2020.2.5,Win32,60,m,0,0.59784,,,,,,,,0.59784,0,,,,,,258,NW,"ID",33,poluth,POLUTH,z,,,,,,-0.768518519,0.068518519,0,0,0,,0,293,293,257,1,
,,,,,,,,,,,,,,,,,,5f6e3f3b512e8f347b1ebb83,2020-11-27_16h04.02.220,lexical_decision_task_MP_exp2,2020.2.5,Win32,60,m,0,0.78343,,,,,,,,0.78343,0,,,,,,311,NW,"ID",16,sproly,SPROLY,z,,,,,,-0.768518519,0.068518519,0,0,0,,0,294,294,310,1,
,,,,,,,,,,,,,,,,,,5f6e3f3b512e8f347b1ebb83,2020-11-27_16h04.02.220,lexical_decision_task_MP_exp2,2020.2.5,Win32,60,m,1,0.8095,,,,,,,,0.8095,1,,,,,,42,WORD,"ID",33,chapel,CHAPEL,m,,,,,,-0.768518519,0.068518519,0,0,0,,0,295,295,41,1,
,,,,,,,,,,,,,,,,,,5f6e3f3b512e8f347b1ebb83,2020-11-27_16h04.02.220,lexical_decision_task_MP_exp2,2020.2.5,Win32,60,m,1,0.72278,,,,,,,,0.72278,1,,,,,,14,WORD,"ID",33,almost,ALMOST,m,,,,,,-0.768518519,0.068518519,0,0,0,,0,296,296,13,1,
,,,,,,,,,,,,,,,,,,5f6e3f3b512e8f347b1ebb83,2020-11-27_16h04.02.220,lexical_decision_task_MP_exp2,2020.2.5,Win32,60,m,1,0.832125,,,,,,,,0.832125,1,,,,,,133,WORD,UN,33,debris,CHROME,m,,,,,,-0.768518519,0.068518519,0,0,0,,0,297,297,132,1,
,,,,,,,,,,,,,,,,,,5f6e3f3b512e8f347b1ebb83,2020-11-27_16h04.02.220,lexical_decision_task_MP_exp2,2020.2.5,Win32,60,z,1,0.736715,,,,,,,,0.736715,1,,,,,,440,NW,UN,16,cainky,SARIDE,z,,,,,,-0.768518519,0.068518519,0,0,0,,0,298,298,439,1,
,,,,,,,,,,,,,,,,,,5f6e3f3b512e8f347b1ebb83,2020-11-27_16h04.02.220,lexical_decision_task_MP_exp2,2020.2.5,Win32,60,z,1,1.08141,,,,,,,,1.08141,1,,,,,,314,NW,"ID",16,sprine,SPRINE,z,,,,,,-0.768518519,0.068518519,0,0,0,,0,299,299,313,1,
,,,,,,,,,,,,,,,,,,5f6e3f3b512e8f347b1ebb83,2020-11-27_16h04.02.220,lexical_decision_task_MP_exp2,2020.2.5,Win32,60,m,1,0.690735,,,,,,,,0.690735,1,,,,,,79,WORD,"ID",16,theory,THEORY,m,,,,,,-0.768518519,0.068518519,0,0,0,,0,300,300,78,1,
,,,,,,,,,,,,,,,,,,5f6e3f3b512e8f347b1ebb83,2020-11-27_16h04.02.220,lexical_decision_task_MP_exp2,2020.2.5,Win32,60,m,1,0.672615,,,,,,,,0.672615,1,,,,,,169,WORD,UN,33,pounce,GENIUS,m,,,,,,-0.768518519,0.068518519,0,0,0,,0,301,301,168,1,
,,,,,,,,,,,,,,,,,,5f6e3f3b512e8f347b1ebb83,2020-11-27_16h04.02.220,lexical_decision_task_MP_exp2,2020.2.5,Win32,60,z,1,0.91938,,,,,,,,0.91938,1,,,,,,241,NW,"ID",33,smenco,SMENCO,z,,,,,,-0.768518519,0.068518519,0,0,0,,0,302,302,240,1,
,,,,,,,,,,,,,,,,,,5f6e3f3b512e8f347b1ebb83,2020-11-27_16h04.02.220,lexical_decision_task_MP_exp2,2020.2.5,Win32,60,m,0,0.883905,,,,,,,,0.883905,0,,,,,,368,NW,UN,33,wronch,HORNAL,z,,,,,,-0.768518519,0.068518519,0,0,0,,0,303,303,367,1,
,,,,,,,,,,,,,,,,,,5f6e3f3b512e8f347b1ebb83,2020-11-27_16h04.02.220,lexical_decision_task_MP_exp2,2020.2.5,Win32,60,z,1,1.170365,,,,,,,,1.170365,1,,,,,,480,NW,UN,16,knisma,ROBULY,z,,,,,,-0.768518519,0.068518519,0,0,0,,0,304,304,479,1,
,,,,,,,,,,,,,,,,,,5f6e3f3b512e8f347b1ebb83,2020-11-27_16h04.02.220,lexical_decision_task_MP_exp2,2020.2.5,Win32,60,z,0,0.97377,,,,,,,,0.97377,0,,,,,,106,WORD,"ID",16,ransom,RANSOM,m,,,,,,-0.768518519,0.068518519,0,0,0,,0,305,305,105,1,
,,,,,,,,,,,,,,,,,,5f6e3f3b512e8f347b1ebb83,2020-11-27_16h04.02.220,lexical_decision_task_MP_exp2,2020.2.5,Win32,60,m,1,0.60163,,,,,,,,0.60163,1,,,,,,75,WORD,"ID",16,trophy,TROPHY,m,,,,,,-0.768518519,0.068518519,0,0,0,,0,306,306,74,1,
,,,,,,,,,,,,,,,,,,5f6e3f3b512e8f347b1ebb83,2020-11-27_16h04.02.220,lexical_decision_task_MP_exp2,2020.2.5,Win32,60,m,0,0.55462,,,,,,,,0.55462,0,,,,,,360,NW,"ID",16,desory,DESORY,z,,,,,,-0.768518519,0.068518519,0,0,0,,0,307,307,359,1,
,,,,,,,,,,,,,,,,,,5f6e3f3b512e8f347b1ebb83,2020-11-27_16h04.02.220,lexical_decision_task_MP_exp2,2020.2.5,Win32,60,m,0,0.598285,,,,,,,,0.598285,0,,,,,,344,NW,"ID",16,scrily,SCRILY,z,,,,,,-0.768518519,0.068518519,0,0,0,,0,308,308,343,1,
,,,,,,,,,,,,,,,,,,5f6e3f3b512e8f347b1ebb83,2020-11-27_16h04.02.220,lexical_decision_task_MP_exp2,2020.2.5,Win32,60,z,1,0.80055,,,,,,,,0.80055,1,,,,,,306,NW,"ID",16,sounge,SOUNGE,z,,,,,,-0.768518519,0.068518519,0,0,0,,0,309,309,305,1,
,,,,,,,,,,,,,,,,,,5f6e3f3b512e8f347b1ebb83,2020-11-27_16h04.02.220,lexical_decision_task_MP_exp2,2020.2.5,Win32,60,z,1,1.03366,,,,,,,,1.03366,1,,,,,,333,NW,"ID",16,catrie,CATRIE,z,,,,,,-0.768518519,0.068518519,0,0,0,,0,310,310,332,1,
,,,,,,,,,,,,,,,,,,5f6e3f3b512e8f347b1ebb83,2020-11-27_16h04.02.220,lexical_decision_task_MP_exp2,2020.2.5,Win32,60,m,1,0.99783,,,,,,,,0.99783,1,,,,,,230,WORD,UN,16,export,FRINGE,m,,,,,,-0.768518519,0.068518519,0,0,0,,0,311,311,229,1,
,,,,,,,,,,,,,,,,,,5f6e3f3b512e8f347b1ebb83,2020-11-27_16h04.02.220,lexical_decision_task_MP_exp2,2020.2.5,Win32,60,z,1,0.805165,,,,,,,,0.805165,1,,,,,,460,NW,UN,16,justre,MINGAR,z,,,,,,-0.768518519,0.068518519,0,0,0,,0,312,312,459,1,
,,,,,,,,,,,,,,,,,,5f6e3f3b512e8f347b1ebb83,2020-11-27_16h04.02.220,lexical_decision_task_MP_exp2,2020.2.5,Win32,60,m,0,0.639065,,,,,,,,0.639065,0,,,,,,299,NW,"ID",33,sturch,STURCH,z,,,,,,-0.768518519,0.068518519,0,0,0,,0,313,313,298,1,
,,,,,,,,,,,,,,,,,,5f6e3f3b512e8f347b1ebb83,2020-11-27_16h04.02.220,lexical_decision_task_MP_exp2,2020.2.5,Win32,60,m,0,0.550415,,,,,,,,0.550415,0,,,,,,275,NW,"ID",33,sleirt,SLEIRT,z,,,,,,-0.768518519,0.068518519,0,0,0,,0,314,314,274,1,
,,,,,,,,,,,,,,,,,,5f6e3f3b512e8f347b1ebb83,2020-11-27_16h04.02.220,lexical_decision_task_MP_exp2,2020.2.5,Win32,60,m,0,1.197855,,,,,,,,1.197855,0,,,,,,464,NW,UN,16,whivex,CHAITE,z,,,,,,-0.768518519,0.068518519,0,0,0,,0,315,315,463,1,
,,,,,,,,,,,,,,,,,,5f6e3f3b512e8f347b1ebb83,2020-11-27_16h04.02.220,lexical_decision_task_MP_exp2,2020.2.5,Win32,60,z,1,0.603945,,,,,,,,0.603945,1,,,,,,456,NW,UN,16,wanigh,BROGET,z,,,,,,-0.768518519,0.068518519,0,0,0,,0,316,316,455,1,
,,,,,,,,,,,,,,,,,,5f6e3f3b512e8f347b1ebb83,2020-11-27_16h04.02.220,lexical_decision_task_MP_exp2,2020.2.5,Win32,60,z,1,0.698005,,,,,,,,0.698005,1,,,,,,332,NW,"ID",16,vangue,VANGUE,z,,,,,,-0.768518519,0.068518519,0,0,0,,0,317,317,331,1,
,,,,,,,,,,,,,,,,,,5f6e3f3b512e8f347b1ebb83,2020-11-27_16h04.02.220,lexical_decision_task_MP_exp2,2020.2.5,Win32,60,m,1,0.61983,,,,,,,,0.61983,1,,,,,,95,WORD,"ID",16,thread,THREAD,m,,,,,,-0.768518519,0.068518519,0,0,0,,0,318,318,94,1,
,,,,,,,,,,,,,,,,,,5f6e3f3b512e8f347b1ebb83,2020-11-27_16h04.02.220,lexical_decision_task_MP_exp2,2020.2.5,Win32,60,z,1,0.884215,,,,,,,,0.884215,1,,,,,,361,NW,UN,33,tireau,PAUCHE,z,,,,,,-0.768518519,0.068518519,0,0,0,,0,319,319,360,1,
,,,,,,,,,,,,,,,,,,5f6e3f3b512e8f347b1ebb83,2020-11-27_16h04.02.220,lexical_decision_task_MP_exp2,2020.2.5,Win32,60,m,1,0.7875,,,,,,,,0.7875,1,,,,,,187,WORD,UN,16,social,COURSE,m,,,,,,-0.768518519,0.068518519,0,0,0,,0,320,320,186,1,
,,,,,,,,,,,,,,,,,,5f6e3f3b512e8f347b1ebb83,2020-11-27_16h04.02.220,lexical_decision_task_MP_exp2,2020.2.5,Win32,60,z,1,0.821955,,,,,,,,0.821955,1,,,,,,350,NW,"ID",16,nagurs,NAGURS,z,,,,,,-0.768518519,0.068518519,0,0,0,,0,321,321,349,1,
,,,,,,,,,,,,,,,,,,5f6e3f3b512e8f347b1ebb83,2020-11-27_16h04.02.220,lexical_decision_task_MP_exp2,2020.2.5,Win32,60,z,0,0.798945,,,,,,,,0.798945,0,,,,,,183,WORD,UN,16,sleazy,MILDEW,m,,,,,,-0.768518519,0.068518519,0,0,0,,0,322,322,182,1,
,,,,,,,,,,,,,,,,,,5f6e3f3b512e8f347b1ebb83,2020-11-27_16h04.02.220,lexical_decision_task_MP_exp2,2020.2.5,Win32,60,m,1,0.840235,,,,,,,,0.840235,1,,,,,,16,WORD,"ID",33,faucet,FAUCET,m,,,,,,-0.768518519,0.068518519,0,0,0,,0,323,323,15,1,
,,,,,,,,,,,,,,,,,,5f6e3f3b512e8f347b1ebb83,2020-11-27_16h04.02.220,lexical_decision_task_MP_exp2,2020.2.5,Win32,60,m,1,0.581495,,,,,,,,0.581495,1,,,,,,58,WORD,"ID",33,foster,FOSTER,m,,,,,,-0.768518519,0.068518519,0,0,0,,0,324,324,57,1,
,,,,,,,,,,,,,,,,,,5f6e3f3b512e8f347b1ebb83,2020-11-27_16h04.02.220,lexical_decision_task_MP_exp2,2020.2.5,Win32,60,m,0,0.747935,,,,,,,,0.747935,0,,,,,,352,NW,"ID",16,tringe,TRINGE,z,,,,,,-0.768518519,0.068518519,0,0,0,,0,325,325,351,1,
,,,,,,,,,,,,,,,,,,5f6e3f3b512e8f347b1ebb83,2020-11-27_16h04.02.220,lexical_decision_task_MP_exp2,2020.2.5,Win32,60,m,0,0.638255,,,,,,,,0.638255,0,,,,,,397,NW,UN,33,blunde,CAMBLE,z,,,,,,-0.768518519,0.068518519,0,0,0,,0,326,326,396,1,
,,,,,,,,,,,,,,,,,,5f6e3f3b512e8f347b1ebb83,2020-11-27_16h04.02.220,lexical_decision_task_MP_exp2,2020.2.5,Win32,60,m,1,0.70224,,,,,,,,0.70224,1,,,,,,121,WORD,UN,33,linger,THRIVE,m,,,,,,-0.768518519,0.068518519,0,0,0,,0,327,327,120,1,
,,,,,,,,,,,,,,,,,,5f6e3f3b512e8f347b1ebb83,2020-11-27_16h04.02.220,lexical_decision_task_MP_exp2,2020.2.5,Win32,60,z,1,1.171115,,,,,,,,1.171115,1,,,,,,264,NW,"ID",33,vackel,VACKEL,z,,,,,,-0.768518519,0.068518519,0,0,0,,0,328,328,263,1,
,,,,,,,,,,,,,,,,,,5f6e3f3b512e8f347b1ebb83,2020-11-27_16h04.02.220,lexical_decision_task_MP_exp2,2020.2.5,Win32,60,m,1,0.59116,,,,,,,,0.59116,1,,,,,,88,WORD,"ID",16,hunger,HUNGER,m,,,,,,-0.768518519,0.068518519,0,0,0,,0,329,329,87,1,
,,,,,,,,,,,,,,,,,,5f6e3f3b512e8f347b1ebb83,2020-11-27_16h04.02.220,lexical_decision_task_MP_exp2,2020.2.5,Win32,60,m,0,0.82521,,,,,,,,0.82521,0,,,,,,358,NW,"ID",16,fleack,FLEACK,z,,,,,,-0.768518519,0.068518519,0,0,0,,0,330,330,357,1,
,,,,,,,,,,,,,,,,,,5f6e3f3b512e8f347b1ebb83,2020-11-27_16h04.02.220,lexical_decision_task_MP_exp2,2020.2.5,Win32,60,z,1,0.764755,,,,,,,,0.764755,1,,,,,,394,NW,UN,33,colury,SPAQUX,z,,,,,,-0.768518519,0.068518519,0,0,0,,0,331,331,393,1,
,,,,,,,,,,,,,,,,,,5f6e3f3b512e8f347b1ebb83,2020-11-27_16h04.02.220,lexical_decision_task_MP_exp2,2020.2.5,Win32,60,m,1,0.664675,,,,,,,,0.664675,1,,,,,,211,WORD,UN,16,verify,INFECT,m,,,,,,-0.768518519,0.068518519,0,0,0,,0,332,332,210,1,
,,,,,,,,,,,,,,,,,,5f6e3f3b512e8f347b1ebb83,2020-11-27_16h04.02.220,lexical_decision_task_MP_exp2,2020.2.5,Win32,60,z,1,0.891935,,,,,,,,0.891935,1,,,,,,248,NW,"ID",33,strole,STROLE,z,,,,,,-0.768518519,0.068518519,0,0,0,,0,333,333,247,1,
,,,,,,,,,,,,,,,,,,5f6e3f3b512e8f347b1ebb83,2020-11-27_16h04.02.220,lexical_decision_task_MP_exp2,2020.2.5,Win32,60,m,1,0.633915,,,,,,,,0.633915,1,,,,,,34,WORD,"ID",33,jungle,JUNGLE,m,,,,,,-0.768518519,0.068518519,0,0,0,,0,334,334,33,1,
,,,,,,,,,,,,,,,,,,5f6e3f3b512e8f347b1ebb83,2020-11-27_16h04.02.220,lexical_decision_task_MP_exp2,2020.2.5,Win32,60,z,1,0.881535,,,,,,,,0.881535,1,,,,,,382,NW,UN,33,aungre,SARLEY,z,,,,,,-0.768518519,0.068518519,0,0,0,,0,335,335,381,1,
,,,,,,,,,,,,,,,,,,5f6e3f3b512e8f347b1ebb83,2020-11-27_16h04.02.220,lexical_decision_task_MP_exp2,2020.2.5,Win32,60,m,1,0.847815,,,,,,,,0.847815,1,,,,,,116,WORD,"ID",16,tumble,TUMBLE,m,,,,,,-0.768518519,0.068518519,0,0,0,,0,336,336,115,1,
,,,,,,,,,,,,,,,,,,5f6e3f3b512e8f347b1ebb83,2020-11-27_16h04.02.220,lexical_decision_task_MP_exp2,2020.2.5,Win32,60,m,1,0.783815,,,,,,,,0.783815,1,,,,,,76,WORD,"ID",16,exotic,EXOTIC,m,,,,,,-0.768518519,0.068518519,0,0,0,,0,337,337,75,1,
,,,,,,,,,,,,,,,,,,5f6e3f3b512e8f347b1ebb83,2020-11-27_16h04.02.220,lexical_decision_task_MP_exp2,2020.2.5,Win32,60,m,1,0.754765,,,,,,,,0.754765,1,,,,,,71,WORD,"ID",16,garden,GARDEN,m,,,,,,-0.768518519,0.068518519,0,0,0,,0,338,338,70,1,
,,,,,,,,,,,,,,,,,,5f6e3f3b512e8f347b1ebb83,2020-11-27_16h04.02.220,lexical_decision_task_MP_exp2,2020.2.5,Win32,60,z,1,0.685995,,,,,,,,0.685995,1,,,,,,249,NW,"ID",33,batrol,BATROL,z,,,,,,-0.768518519,0.068518519,0,0,0,,0,339,339,248,1,
,,,,,,,,,,,,,,,,,,5f6e3f3b512e8f347b1ebb83,2020-11-27_16h04.02.220,lexical_decision_task_MP_exp2,2020.2.5,Win32,60,z,1,1.06763,,,,,,,,1.06763,1,,,,,,445,NW,UN,16,runamo,MINKEL,z,,,,,,-0.768518519,0.068518519,0,0,0,,0,340,340,444,1,
,,,,,,,,,,,,,,,,,,5f6e3f3b512e8f347b1ebb83,2020-11-27_16h04.02.220,lexical_decision_task_MP_exp2,2020.2.5,Win32,60,z,1,0.96465,,,,,,,,0.96465,1,,,,,,283,NW,"ID",33,veralf,VERALF,z,,,,,,-0.768518519,0.068518519,0,0,0,,0,341,341,282,1,
,,,,,,,,,,,,,,,,,,5f6e3f3b512e8f347b1ebb83,2020-11-27_16h04.02.220,lexical_decision_task_MP_exp2,2020.2.5,Win32,60,m,1,0.61479,,,,,,,,0.61479,1,,,,,,2,WORD,"ID",33,bridge,BRIDGE,m,,,,,,-0.768518519,0.068518519,0,0,0,,0,342,342,1,1,
,,,,,,,,,,,,,,,,,,5f6e3f3b512e8f347b1ebb83,2020-11-27_16h04.02.220,lexical_decision_task_MP_exp2,2020.2.5,Win32,60,z,0,0.881425,,,,,,,,0.881425,0,,,,,,52,WORD,"ID",33,impose,IMPOSE,m,,,,,,-0.768518519,0.068518519,0,0,0,,0,343,343,51,1,
,,,,,,,,,,,,,,,,,,5f6e3f3b512e8f347b1ebb83,2020-11-27_16h04.02.220,lexical_decision_task_MP_exp2,2020.2.5,Win32,60,z,1,1.141585,,,,,,,,1.141585,1,,,,,,354,NW,"ID",16,virlex,VIRLEX,z,,,,,,-0.768518519,0.068518519,0,0,0,,0,344,344,353,1,
,,,,,,,,,,,,,,,,,,5f6e3f3b512e8f347b1ebb83,2020-11-27_16h04.02.220,lexical_decision_task_MP_exp2,2020.2.5,Win32,60,m,1,0.781375,,,,,,,,0.781375,1,,,,,,31,WORD,"ID",33,weapon,WEAPON,m,,,,,,-0.768518519,0.068518519,0,0,0,,0,345,345,30,1,
,,,,,,,,,,,,,,,,,,5f6e3f3b512e8f347b1ebb83,2020-11-27_16h04.02.220,lexical_decision_task_MP_exp2,2020.2.5,Win32,60,z,1,1.539115,,,,,,,,1.539115,1,,,,,,316,NW,"ID",16,scregm,SCREGM,z,,,,,,-0.768518519,0.068518519,0,0,0,,0,346,346,315,1,
,,,,,,,,,,,,,,,,,,5f6e3f3b512e8f347b1ebb83,2020-11-27_16h04.02.220,lexical_decision_task_MP_exp2,2020.2.5,Win32,60,m,0,0.887635,,,,,,,,0.887635,0,,,,,,449,NW,UN,16,phrect,BRUNGE,z,,,,,,-0.768518519,0.068518519,0,0,0,,0,347,347,448,1,
,,,,,,,,,,,,,,,,,,5f6e3f3b512e8f347b1ebb83,2020-11-27_16h04.02.220,lexical_decision_task_MP_exp2,2020.2.5,Win32,60,m,1,0.59652,,,,,,,,0.59652,1,,,,,,118,WORD,"ID",16,flight,FLIGHT,m,,,,,,-0.768518519,0.068518519,0,0,0,,0,348,348,117,1,
,,,,,,,,,,,,,,,,,,5f6e3f3b512e8f347b1ebb83,2020-11-27_16h04.02.220,lexical_decision_task_MP_exp2,2020.2.5,Win32,60,m,1,0.88863,,,,,,,,0.88863,1,,,,,,113,WORD,"ID",16,chorus,CHORUS,m,,,,,,-0.768518519,0.068518519,0,0,0,,0,349,349,112,1,
,,,,,,,,,,,,,,,,,,5f6e3f3b512e8f347b1ebb83,2020-11-27_16h04.02.220,lexical_decision_task_MP_exp2,2020.2.5,Win32,60,m,0,1.174255,,,,,,,,1.174255,0,,,,,,295,NW,"ID",33,gleath,GLEATH,z,,,,,,-0.768518519,0.068518519,0,0,0,,0,350,350,294,1,
,,,,,,,,,,,,,,,,,,5f6e3f3b512e8f347b1ebb83,2020-11-27_16h04.02.220,lexical_decision_task_MP_exp2,2020.2.5,Win32,60,z,1,0.905465,,,,,,,,0.905465,1,,,,,,376,NW,UN,33,sliant,IGUARE,z,,,,,,-0.768518519,0.068518519,0,0,0,,0,351,351,375,1,
,,,,,,,,,,,,,,,,,,5f6e3f3b512e8f347b1ebb83,2020-11-27_16h04.02.220,lexical_decision_task_MP_exp2,2020.2.5,Win32,60,m,0,0.80654,,,,,,,,0.80654,0,,,,,,353,NW,"ID",16,clurey,CLUREY,z,,,,,,-0.768518519,0.068518519,0,0,0,,0,352,352,352,1,
,,,,,,,,,,,,,,,,,,5f6e3f3b512e8f347b1ebb83,2020-11-27_16h04.02.220,lexical_decision_task_MP_exp2,2020.2.5,Win32,60,z,1,0.90512,,,,,,,,0.90512,1,,,,,,438,NW,UN,16,limpor,BAITCH,z,,,,,,-0.768518519,0.068518519,0,0,0,,0,353,353,437,1,
,,,,,,,,,,,,,,,,,,5f6e3f3b512e8f347b1ebb83,2020-11-27_16h04.02.220,lexical_decision_task_MP_exp2,2020.2.5,Win32,60,m,0,0.85439,,,,,,,,0.85439,0,,,,,,338,NW,"ID",16,wreash,WREASH,z,,,,,,-0.768518519,0.068518519,0,0,0,,0,354,354,337,1,
,,,,,,,,,,,,,,,,,,5f6e3f3b512e8f347b1ebb83,2020-11-27_16h04.02.220,lexical_decision_task_MP_exp2,2020.2.5,Win32,60,m,1,0.798485,,,,,,,,0.798485,1,,,,,,200,WORD,UN,16,admire,BEACON,m,,,,,,-0.768518519,0.068518519,0,0,0,,0,355,355,199,1,
,,,,,,,,,,,,,,,,,,5f6e3f3b512e8f347b1ebb83,2020-11-27_16h04.02.220,lexical_decision_task_MP_exp2,2020.2.5,Win32,60,z,1,1.119615,,,,,,,,1.119615,1,,,,,,281,NW,"ID",33,melaty,MELATY,z,,,,,,-0.768518519,0.068518519,0,0,0,,0,356,356,280,1,
,,,,,,,,,,,,,,,,,,5f6e3f3b512e8f347b1ebb83,2020-11-27_16h04.02.220,lexical_decision_task_MP_exp2,2020.2.5,Win32,60,m,1,0.614815,,,,,,,,0.614815,1,,,,,,228,WORD,UN,16,inject,MASTER,m,,,,,,-0.768518519,0.068518519,0,0,0,,0,357,357,227,1,
,,,,,,,,,,,,,,,,,,5f6e3f3b512e8f347b1ebb83,2020-11-27_16h04.02.220,lexical_decision_task_MP_exp2,2020.2.5,Win32,60,m,1,0.68603,,,,,,,,0.68603,1,,,,,,101,WORD,"ID",16,wrench,WRENCH,m,,,,,,-0.768518519,0.068518519,0,0,0,,0,358,358,100,1,
,,,,,,,,,,,,,,,,,,5f6e3f3b512e8f347b1ebb83,2020-11-27_16h04.02.220,lexical_decision_task_MP_exp2,2020.2.5,Win32,60,m,0,1.34801,,,,,,,,1.34801,0,,,,,,269,NW,"ID",33,orchet,ORCHET,z,,,,,,-0.768518519,0.068518519,0,0,0,,0,359,359,268,1,
,,,,,,,,,,,,,,,,,,5f6e3f3b512e8f347b1ebb83,2020-11-27_16h04.02.220,lexical_decision_task_MP_exp2,2020.2.5,Win32,60,z,1,0.855275,,,,,,,,0.855275,1,,,,,,292,NW,"ID",33,ablint,ABLINT,z,,,,,,-0.768518519,0.068518519,0,0,0,,0,360,360,291,1,
,,,,,,,,,,,,,,,,,,5f6e3f3b512e8f347b1ebb83,2020-11-27_16h04.02.220,lexical_decision_task_MP_exp2,2020.2.5,Win32,60,m,0,0.566625,,,,,,,,0.566625,0,,,,,,345,NW,"ID",16,absend,ABSEND,z,,,,,,-0.768518519,0.068518519,0,0,0,,0,361,361,344,1,
,,,,,,,,,,,,,,,,,,5f6e3f3b512e8f347b1ebb83,2020-11-27_16h04.02.220,lexical_decision_task_MP_exp2,2020.2.5,Win32,60,z,1,0.66617,,,,,,,,0.66617,1,,,,,,435,NW,UN,16,frutan,IMPURB,z,,,,,,0.076761304,-0.250788644,0,0,0,space,0,362,362,434,1,20.74189
,,,,,,,,,,,,,,,,,,5f6e3f3b512e8f347b1ebb83,2020-11-27_16h04.02.220,lexical_decision_task_MP_exp2,2020.2.5,Win32,60,m,0,1.21416,,,,,,,,1.21416,0,,,,,,286,NW,"ID",33,reldon,RELDON,z,,,,,,0.076761304,-0.250788644,0,0,0,,0,363,363,285,1,
,,,,,,,,,,,,,,,,,,5f6e3f3b512e8f347b1ebb83,2020-11-27_16h04.02.220,lexical_decision_task_MP_exp2,2020.2.5,Win32,60,m,0,0.97996,,,,,,,,0.97996,0,,,,,,318,NW,"ID",16,reagly,REAGLY,z,,,,,,0.076761304,-0.250788644,0,0,0,,0,364,364,317,1,
,,,,,,,,,,,,,,,,,,5f6e3f3b512e8f347b1ebb83,2020-11-27_16h04.02.220,lexical_decision_task_MP_exp2,2020.2.5,Win32,60,z,1,0.933365,,,,,,,,0.933365,1,,,,,,413,NW,UN,33,serbol,EQUATS,z,,,,,,0.076761304,-0.250788644,0,0,0,,0,365,365,412,1,
,,,,,,,,,,,,,,,,,,5f6e3f3b512e8f347b1ebb83,2020-11-27_16h04.02.220,lexical_decision_task_MP_exp2,2020.2.5,Win32,60,m,1,0.49274,,,,,,,,0.49274,1,,,,,,47,WORD,"ID",33,income,INCOME,m,,,,,,0.076761304,-0.250788644,0,0,0,,0,366,366,46,1,
,,,,,,,,,,,,,,,,,,5f6e3f3b512e8f347b1ebb83,2020-11-27_16h04.02.220,lexical_decision_task_MP_exp2,2020.2.5,Win32,60,z,1,0.70374,,,,,,,,0.70374,1,,,,,,451,NW,UN,16,surden,CAINKY,z,,,,,,0.076761304,-0.250788644,0,0,0,,0,367,367,450,1,
,,,,,,,,,,,,,,,,,,5f6e3f3b512e8f347b1ebb83,2020-11-27_16h04.02.220,lexical_decision_task_MP_exp2,2020.2.5,Win32,60,m,0,0.83307,,,,,,,,0.83307,0,,,,,,408,NW,UN,33,flumni,HURNIA,z,,,,,,0.076761304,-0.250788644,0,0,0,,0,368,368,407,1,
,,,,,,,,,,,,,,,,,,5f6e3f3b512e8f347b1ebb83,2020-11-27_16h04.02.220,lexical_decision_task_MP_exp2,2020.2.5,Win32,60,m,1,0.590535,,,,,,,,0.590535,1,,,,,,152,WORD,UN,33,behold,ROCKET,m,,,,,,0.076761304,-0.250788644,0,0,0,,0,369,369,151,1,
,,,,,,,,,,,,,,,,,,5f6e3f3b512e8f347b1ebb83,2020-11-27_16h04.02.220,lexical_decision_task_MP_exp2,2020.2.5,Win32,60,m,1,0.680715,,,,,,,,0.680715,1,,,,,,4,WORD,"ID",33,trench,TRENCH,m,,,,,,0.076761304,-0.250788644,0,0,0,,0,370,370,3,1,
,,,,,,,,,,,,,,,,,,5f6e3f3b512e8f347b1ebb83,2020-11-27_16h04.02.220,lexical_decision_task_MP_exp2,2020.2.5,Win32,60,m,1,0.85004,,,,,,,,0.85004,1,,,,,,140,WORD,UN,33,reason,PRINCE,m,,,,,,0.076761304,-0.250788644,0,0,0,,0,371,371,139,1,
,,,,,,,,,,,,,,,,,,5f6e3f3b512e8f347b1ebb83,2020-11-27_16h04.02.220,lexical_decision_task_MP_exp2,2020.2.5,Win32,60,z,1,0.716785,,,,,,,,0.716785,1,,,,,,336,NW,"ID",16,ghodus,GHODUS,z,,,,,,0.076761304,-0.250788644,0,0,0,,0,372,372,335,1,
,,,,,,,,,,,,,,,,,,5f6e3f3b512e8f347b1ebb83,2020-11-27_16h04.02.220,lexical_decision_task_MP_exp2,2020.2.5,Win32,60,z,1,0.642475,,,,,,,,0.642475,1,,,,,,294,NW,"ID",33,inhort,INHORT,z,,,,,,0.076761304,-0.250788644,0,0,0,,0,373,373,293,1,
,,,,,,,,,,,,,,,,,,5f6e3f3b512e8f347b1ebb83,2020-11-27_16h04.02.220,lexical_decision_task_MP_exp2,2020.2.5,Win32,60,m,1,0.65762,,,,,,,,0.65762,1,,,,,,98,WORD,"ID",16,belong,BELONG,m,,,,,,0.076761304,-0.250788644,0,0,0,,0,374,374,97,1,
,,,,,,,,,,,,,,,,,,5f6e3f3b512e8f347b1ebb83,2020-11-27_16h04.02.220,lexical_decision_task_MP_exp2,2020.2.5,Win32,60,m,1,0.56922,,,,,,,,0.56922,1,,,,,,189,WORD,UN,16,backup,CENSOR,m,,,,,,0.076761304,-0.250788644,0,0,0,,0,375,375,188,1,
,,,,,,,,,,,,,,,,,,5f6e3f3b512e8f347b1ebb83,2020-11-27_16h04.02.220,lexical_decision_task_MP_exp2,2020.2.5,Win32,60,z,0,0.62031,,,,,,,,0.62031,0,,,,,,117,WORD,"ID",16,branch,BRANCH,m,,,,,,0.076761304,-0.250788644,0,0,0,,0,376,376,116,1,
,,,,,,,,,,,,,,,,,,5f6e3f3b512e8f347b1ebb83,2020-11-27_16h04.02.220,lexical_decision_task_MP_exp2,2020.2.5,Win32,60,z,1,0.763685,,,,,,,,0.763685,1,,,,,,321,NW,"ID",16,miator,MIATOR,z,,,,,,0.076761304,-0.250788644,0,0,0,,0,377,377,320,1,
,,,,,,,,,,,,,,,,,,5f6e3f3b512e8f347b1ebb83,2020-11-27_16h04.02.220,lexical_decision_task_MP_exp2,2020.2.5,Win32,60,z,1,0.958895,,,,,,,,0.958895,1,,,,,,378,NW,UN,33,auting,SHRILE,z,,,,,,0.076761304,-0.250788644,0,0,0,,0,378,378,377,1,
,,,,,,,,,,,,,,,,,,5f6e3f3b512e8f347b1ebb83,2020-11-27_16h04.02.220,lexical_decision_task_MP_exp2,2020.2.5,Win32,60,z,0,0.63416,,,,,,,,0.63416,0,,,,,,131,WORD,UN,33,strong,QUENCH,m,,,,,,0.076761304,-0.250788644,0,0,0,,0,379,379,130,1,
,,,,,,,,,,,,,,,,,,5f6e3f3b512e8f347b1ebb83,2020-11-27_16h04.02.220,lexical_decision_task_MP_exp2,2020.2.5,Win32,60,m,1,0.650685,,,,,,,,0.650685,1,,,,,,192,WORD,UN,16,object,PLAGUE,m,,,,,,0.076761304,-0.250788644,0,0,0,,0,380,380,191,1,
,,,,,,,,,,,,,,,,,,5f6e3f3b512e8f347b1ebb83,2020-11-27_16h04.02.220,lexical_decision_task_MP_exp2,2020.2.5,Win32,60,m,1,0.666635,,,,,,,,0.666635,1,,,,,,168,WORD,UN,33,genius,ANSWER,m,,,,,,0.076761304,-0.250788644,0,0,0,,0,381,381,167,1,
,,,,,,,,,,,,,,,,,,5f6e3f3b512e8f347b1ebb83,2020-11-27_16h04.02.220,lexical_decision_task_MP_exp2,2020.2.5,Win32,60,m,1,0.60618,,,,,,,,0.60618,1,,,,,,181,WORD,UN,16,winter,GLANCE,m,,,,,,0.076761304,-0.250788644,0,0,0,,0,382,382,180,1,
,,,,,,,,,,,,,,,,,,5f6e3f3b512e8f347b1ebb83,2020-11-27_16h04.02.220,lexical_decision_task_MP_exp2,2020.2.5,Win32,60,m,0,0.56118,,,,,,,,0.56118,0,,,,,,462,NW,UN,16,kispel,ABSULT,z,,,,,,0.076761304,-0.250788644,0,0,0,,0,383,383,461,1,
,,,,,,,,,,,,,,,,,,5f6e3f3b512e8f347b1ebb83,2020-11-27_16h04.02.220,lexical_decision_task_MP_exp2,2020.2.5,Win32,60,m,1,0.508255,,,,,,,,0.508255,1,,,,,,103,WORD,"ID",16,bounce,BOUNCE,m,,,,,,0.076761304,-0.250788644,0,0,0,,0,384,384,102,1,
,,,,,,,,,,,,,,,,,,5f6e3f3b512e8f347b1ebb83,2020-11-27_16h04.02.220,lexical_decision_task_MP_exp2,2020.2.5,Win32,60,m,0,0.66689,,,,,,,,0.66689,0,,,,,,268,NW,"ID",33,packes,PACKES,z,,,,,,0.076761304,-0.250788644,0,0,0,,0,385,385,267,1,
,,,,,,,,,,,,,,,,,,5f6e3f3b512e8f347b1ebb83,2020-11-27_16h04.02.220,lexical_decision_task_MP_exp2,2020.2.5,Win32,60,z,1,0.83191,,,,,,,,0.83191,1,,,,,,418,NW,UN,33,slount,SUIDLE,z,,,,,,0.076761304,-0.250788644,0,0,0,,0,386,386,417,1,
,,,,,,,,,,,,,,,,,,5f6e3f3b512e8f347b1ebb83,2020-11-27_16h04.02.220,lexical_decision_task_MP_exp2,2020.2.5,Win32,60,m,1,0.68179,,,,,,,,0.68179,1,,,,,,205,WORD,UN,16,tailor,LOUNGE,m,,,,,,0.076761304,-0.250788644,0,0,0,,0,387,387,204,1,
,,,,,,,,,,,,,,,,,,5f6e3f3b512e8f347b1ebb83,2020-11-27_16h04.02.220,lexical_decision_task_MP_exp2,2020.2.5,Win32,60,z,1,0.726075,,,,,,,,0.726075,1,,,,,,441,NW,UN,16,aboune,RASTOE,z,,,,,,0.076761304,-0.250788644,0,0,0,,0,388,388,440,1,
,,,,,,,,,,,,,,,,,,5f6e3f3b512e8f347b1ebb83,2020-11-27_16h04.02.220,lexical_decision_task_MP_exp2,2020.2.5,Win32,60,m,1,0.53327,,,,,,,,0.53327,1,,,,,,17,WORD,"ID",33,charge,CHARGE,m,,,,,,0.076761304,-0.250788644,0,0,0,,0,389,389,16,1,
,,,,,,,,,,,,,,,,,,5f6e3f3b512e8f347b1ebb83,2020-11-27_16h04.02.220,lexical_decision_task_MP_exp2,2020.2.5,Win32,60,m,1,0.705185,,,,,,,,0.705185,1,,,,,,232,WORD,UN,16,nature,INJECT,m,,,,,,0.076761304,-0.250788644,0,0,0,,0,390,390,231,1,
,,,,,,,,,,,,,,,,,,5f6e3f3b512e8f347b1ebb83,2020-11-27_16h04.02.220,lexical_decision_task_MP_exp2,2020.2.5,Win32,60,z,1,0.817165,,,,,,,,0.817165,1,,,,,,395,NW,UN,33,flengy,COLURY,z,,,,,,0.076761304,-0.250788644,0,0,0,,0,391,391,394,1,
,,,,,,,,,,,,,,,,,,5f6e3f3b512e8f347b1ebb83,2020-11-27_16h04.02.220,lexical_decision_task_MP_exp2,2020.2.5,Win32,60,z,1,0.704075,,,,,,,,0.704075,1,,,,,,334,NW,"ID",16,watmeg,WATMEG,z,,,,,,0.076761304,-0.250788644,0,0,0,,0,392,392,333,1,
,,,,,,,,,,,,,,,,,,5f6e3f3b512e8f347b1ebb83,2020-11-27_16h04.02.220,lexical_decision_task_MP_exp2,2020.2.5,Win32,60,z,1,0.90022,,,,,,,,0.90022,1,,,,,,436,NW,UN,16,snapel,FRUTAN,z,,,,,,0.076761304,-0.250788644,0,0,0,,0,393,393,435,1,
,,,,,,,,,,,,,,,,,,5f6e3f3b512e8f347b1ebb83,2020-11-27_16h04.02.220,lexical_decision_task_MP_exp2,2020.2.5,Win32,60,m,1,0.60042,,,,,,,,0.60042,1,,,,,,38,WORD,"ID",33,powder,POWDER,m,,,,,,0.076761304,-0.250788644,0,0,0,,0,394,394,37,1,
