counterbalancing_condition,instr_done_keyboard.keys,instr_done_keyboard.rt,instr_done_touch.x,instr_done_touch.y,instr_done_touch.leftButton,instr_done_touch.midButton,instr_done_touch.rightButton,instruction_pages.thisRepN,instruction_pages.thisTrialN,instruction_pages.thisN,instruction_pages.thisIndex,instruction_pages.ran,pageN,phase,instruct_text,has_image,instruct_image,participant,date,expName,psychopyVersion,OS,frameRate,response.keys,response.corr,touch_resp.x,touch_resp.y,touch_resp.leftButton,touch_resp.midButton,touch_resp.rightButton,touch_resp.time,touch_resp.clicked_name,rt,corr,practice_trials.thisRepN,practice_trials.thisTrialN,practice_trials.thisN,practice_trials.thisIndex,practice_trials.ran,TrialID,StimulusType,Condition,PrimeDuration,Prime,Target,corrAns,response.rt,end_of_practice_trials_pages.thisRepN,end_of_practice_trials_pages.thisTrialN,end_of_practice_trials_pages.thisN,end_of_practice_trials_pages.thisIndex,end_of_practice_trials_pages.ran,break_done_touch.x,break_done_touch.y,break_done_touch.leftButton,break_done_touch.midButton,break_done_touch.rightButton,break_done_keyboard.keys,experiment_trials.thisRepN,experiment_trials.thisTrialN,experiment_trials.thisN,experiment_trials.thisIndex,experiment_trials.ran,break_done_keyboard.rt
3,space,13.524635,0.247222239,-0.200925993,0,0,0,0,0,0,0,1,1,instructions,"INSTRUCTIONS
At the start of each trial, look at the hash marks (######) in the center of the screen. After a moment, a string of letters will appear. Your task is to indicate if the letter string forms a word or not (i.e., if it is a nonword). For example, AUTHOR is a word while AUTHON is a nonword.

Press the space bar or touch the button below to continue.",0,,5f863b1e4047781878fd5d21,2020-11-27_17h09.35.909,lexical_decision_task_MP_exp2,2020.2.5,Win32,60,,,,,,,,,,,,,,,,,,,,,,,,,,,,,,,,,,,,,,,,,
,space,8.96311,0.247222239,-0.200925993,0,0,0,0,1,1,1,1,2,instructions,"If your device has a keyboard, press the 'Z' key for nonwords and the 'M' key for words.





Press the space bar or touch the button below to continue.",1,keyboard-example.gif,5f863b1e4047781878fd5d21,2020-11-27_17h09.35.909,lexical_decision_task_MP_exp2,2020.2.5,Win32,60,,,,,,,,,,,,,,,,,,,,,,,,,,,,,,,,,,,,,,,,,
,space,4.30528,0.247222239,-0.200925993,0,0,0,0,2,2,2,1,3,instructions,"If you are using a touchscreen only device, use the buttons on the screen. Do not use the mouse.





Press the space bar or touch the button below to continue.",1,touchscreen-example.gif,5f863b1e4047781878fd5d21,2020-11-27_17h09.35.909,lexical_decision_task_MP_exp2,2020.2.5,Win32,60,,,,,,,,,,,,,,,,,,,,,,,,,,,,,,,,,,,,,,,,,
,space,11.234605,0.247222239,-0.200925993,0,0,0,0,3,3,3,1,4,instructions,"It is very important that you respond as quickly and accurately as possible, as each letter string will only be on the screen for two seconds. If you do not respond within this time, the message 'Too slow!' will be displayed and the experiment will progress to the next letter string. The first 20 trials will be practice trials and you will receive feedback on your answers. 

Press the space bar or touch the button below to start the practice trials.",0,,5f863b1e4047781878fd5d21,2020-11-27_17h09.35.909,lexical_decision_task_MP_exp2,2020.2.5,Win32,60,,,,,,,,,,,,,,,,,,,,,,,,,,,,,,,,,,,,,,,,,
,,,,,,,,,,,,,,,,,,5f863b1e4047781878fd5d21,2020-11-27_17h09.35.909,lexical_decision_task_MP_exp2,2020.2.5,Win32,60,,0,,,,,,,,,-1,0,0,0,15,1,1016,NW,UN,16,mushed,WHAISE,z,,,,,,,,,,,,,,,,,,
,,,,,,,,,,,,,,,,,,5f863b1e4047781878fd5d21,2020-11-27_17h09.35.909,lexical_decision_task_MP_exp2,2020.2.5,Win32,60,m,1,,,,,,,,1.36914,1,0,1,1,4,1,1005,WORD,UN,33,abound,SQUEAK,m,1.36914,,,,,,,,,,,,,,,,,
,,,,,,,,,,,,,,,,,,5f863b1e4047781878fd5d21,2020-11-27_17h09.35.909,lexical_decision_task_MP_exp2,2020.2.5,Win32,60,m,1,,,,,,,,0.53803,1,0,2,2,5,1,1006,WORD,UN,33,frenzy,OBTAIN,m,0.53803,,,,,,,,,,,,,,,,,
,,,,,,,,,,,,,,,,,,5f863b1e4047781878fd5d21,2020-11-27_17h09.35.909,lexical_decision_task_MP_exp2,2020.2.5,Win32,60,z,1,,,,,,,,0.794955,1,0,3,3,14,1,1015,NW,UN,16,miaber,THRALE,z,0.794955,,,,,,,,,,,,,,,,,
,,,,,,,,,,,,,,,,,,5f863b1e4047781878fd5d21,2020-11-27_17h09.35.909,lexical_decision_task_MP_exp2,2020.2.5,Win32,60,z,0,,,,,,,,0.728655,0,0,4,4,0,1,1001,WORD,"ID",33,utopia,UTOPIA,m,0.728655,,,,,,,,,,,,,,,,,
,,,,,,,,,,,,,,,,,,5f863b1e4047781878fd5d21,2020-11-27_17h09.35.909,lexical_decision_task_MP_exp2,2020.2.5,Win32,60,m,0,,,,,,,,0.733155,0,0,5,5,10,1,1011,NW,"ID",16,inlade,INLADE,z,0.733155,,,,,,,,,,,,,,,,,
,,,,,,,,,,,,,,,,,,5f863b1e4047781878fd5d21,2020-11-27_17h09.35.909,lexical_decision_task_MP_exp2,2020.2.5,Win32,60,m,1,,,,,,,,0.73498,1,0,6,6,3,1,1004,WORD,"ID",16,matrix,MATRIX,m,0.73498,,,,,,,,,,,,,,,,,
,,,,,,,,,,,,,,,,,,5f863b1e4047781878fd5d21,2020-11-27_17h09.35.909,lexical_decision_task_MP_exp2,2020.2.5,Win32,60,m,0,,,,,,,,0.597285,0,0,7,7,13,1,1014,NW,UN,33,winfer,ROUPET,z,0.597285,,,,,,,,,,,,,,,,,
,,,,,,,,,,,,,,,,,,5f863b1e4047781878fd5d21,2020-11-27_17h09.35.909,lexical_decision_task_MP_exp2,2020.2.5,Win32,60,m,0,,,,,,,,0.66576,0,0,8,8,8,1,1009,NW,"ID",33,aslert,ASLERT,z,0.66576,,,,,,,,,,,,,,,,,
,,,,,,,,,,,,,,,,,,5f863b1e4047781878fd5d21,2020-11-27_17h09.35.909,lexical_decision_task_MP_exp2,2020.2.5,Win32,60,m,0,,,,,,,,0.70047,0,0,9,9,11,1,1012,NW,"ID",16,rashet,RASHET,z,0.70047,,,,,,,,,,,,,,,,,
,,,,,,,,,,,,,,,,,,5f863b1e4047781878fd5d21,2020-11-27_17h09.35.909,lexical_decision_task_MP_exp2,2020.2.5,Win32,60,m,1,,,,,,,,0.66087,1,0,10,10,2,1,1003,WORD,"ID",16,almond,ALMOND,m,0.66087,,,,,,,,,,,,,,,,,
,,,,,,,,,,,,,,,,,,5f863b1e4047781878fd5d21,2020-11-27_17h09.35.909,lexical_decision_task_MP_exp2,2020.2.5,Win32,60,z,1,,,,,,,,0.954305,1,0,11,11,9,1,1010,NW,"ID",33,fariny,FARINY,z,0.954305,,,,,,,,,,,,,,,,,
,,,,,,,,,,,,,,,,,,5f863b1e4047781878fd5d21,2020-11-27_17h09.35.909,lexical_decision_task_MP_exp2,2020.2.5,Win32,60,z,1,,,,,,,,0.67889,1,0,12,12,12,1,1013,NW,UN,33,adveil,SPRINY,z,0.67889,,,,,,,,,,,,,,,,,
,,,,,,,,,,,,,,,,,,5f863b1e4047781878fd5d21,2020-11-27_17h09.35.909,lexical_decision_task_MP_exp2,2020.2.5,Win32,60,m,1,,,,,,,,0.740725,1,0,13,13,7,1,1008,WORD,UN,16,hurdle,VOLUME,m,0.740725,,,,,,,,,,,,,,,,,
,,,,,,,,,,,,,,,,,,5f863b1e4047781878fd5d21,2020-11-27_17h09.35.909,lexical_decision_task_MP_exp2,2020.2.5,Win32,60,m,1,,,,,,,,0.608575,1,0,14,14,6,1,1007,WORD,UN,16,tropic,ZOMBIE,m,0.608575,,,,,,,,,,,,,,,,,
,,,,,,,,,,,,,,,,,,5f863b1e4047781878fd5d21,2020-11-27_17h09.35.909,lexical_decision_task_MP_exp2,2020.2.5,Win32,60,m,1,,,,,,,,0.56243,1,0,15,15,1,1,1002,WORD,"ID",33,adjust,ADJUST,m,0.56243,,,,,,,,,,,,,,,,,
,space,15.25327,0.247222239,-0.200925993,0,0,0,,,,,,1,end_of_practice,"You have completed the practice trials. During the experimental trials, you will not receive feedback, but it is very important that you respond as quickly and accurately as possible. 
Before you begin, please ensure that you are in a comfortable and quiet location and will not be disturbed for about 15 minutes, as we cannot use your data if you do not complete all the trials. 
There will be opportunities to take breaks at regular intervals during the experiment. When you are ready to start the experimental trials, please press space or touch the button below.",,,5f863b1e4047781878fd5d21,2020-11-27_17h09.35.909,lexical_decision_task_MP_exp2,2020.2.5,Win32,60,,,,,,,,,,,,,,,,,,,,,,,,,0,0,0,0,1,,,,,,,,,,,,
,,,,,,,,,,,,,,,,,,5f863b1e4047781878fd5d21,2020-11-27_17h09.35.909,lexical_decision_task_MP_exp2,2020.2.5,Win32,60,z,1,,,,,,,,0.755145,1,,,,,,404,NW,"ID",16,cluirm,CLUIRM,z,0.755145,,,,,,0.247222239,-0.200925993,0,0,0,,0,0,0,343,1,
,,,,,,,,,,,,,,,,,,5f863b1e4047781878fd5d21,2020-11-27_17h09.35.909,lexical_decision_task_MP_exp2,2020.2.5,Win32,60,m,1,,,,,,,,0.67292,1,,,,,,47,WORD,UN,16,walnut,INCOME,m,0.67292,,,,,,0.247222239,-0.200925993,0,0,0,,0,1,1,226,1,
,,,,,,,,,,,,,,,,,,5f863b1e4047781878fd5d21,2020-11-27_17h09.35.909,lexical_decision_task_MP_exp2,2020.2.5,Win32,60,m,1,,,,,,,,0.579275,1,,,,,,178,WORD,"ID",16,inform,INFORM,m,0.579275,,,,,,0.247222239,-0.200925993,0,0,0,,0,2,2,117,1,
,,,,,,,,,,,,,,,,,,5f863b1e4047781878fd5d21,2020-11-27_17h09.35.909,lexical_decision_task_MP_exp2,2020.2.5,Win32,60,z,1,,,,,,,,0.730465,1,,,,,,271,NW,UN,16,damilt,AUBRID,z,0.730465,,,,,,0.247222239,-0.200925993,0,0,0,,0,3,3,450,1,
,,,,,,,,,,,,,,,,,,5f863b1e4047781878fd5d21,2020-11-27_17h09.35.909,lexical_decision_task_MP_exp2,2020.2.5,Win32,60,m,0,,,,,,,,0.673395,0,,,,,,392,NW,"ID",16,rouncy,ROUNCY,z,0.673395,,,,,,0.247222239,-0.200925993,0,0,0,,0,4,4,331,1,
,,,,,,,,,,,,,,,,,,5f863b1e4047781878fd5d21,2020-11-27_17h09.35.909,lexical_decision_task_MP_exp2,2020.2.5,Win32,60,m,1,,,,,,,,0.66934,1,,,,,,227,WORD,UN,33,master,SELDOM,m,0.66934,,,,,,0.247222239,-0.200925993,0,0,0,,0,5,5,166,1,
,,,,,,,,,,,,,,,,,,5f863b1e4047781878fd5d21,2020-11-27_17h09.35.909,lexical_decision_task_MP_exp2,2020.2.5,Win32,60,z,0,,,,,,,,0.768255,0,,,,,,160,WORD,"ID",16,violet,VIOLET,m,0.768255,,,,,,0.247222239,-0.200925993,0,0,0,,0,6,6,99,1,
,,,,,,,,,,,,,,,,,,5f863b1e4047781878fd5d21,2020-11-27_17h09.35.909,lexical_decision_task_MP_exp2,2020.2.5,Win32,60,z,1,,,,,,,,1.2762,1,,,,,,465,NW,UN,33,bafent,WHIVEX,z,1.2762,,,,,,0.247222239,-0.200925993,0,0,0,,0,7,7,404,1,
,,,,,,,,,,,,,,,,,,5f863b1e4047781878fd5d21,2020-11-27_17h09.35.909,lexical_decision_task_MP_exp2,2020.2.5,Win32,60,m,0,,,,,,,,0.70141,0,,,,,,480,NW,UN,33,knisma,ROBULY,z,0.70141,,,,,,0.247222239,-0.200925993,0,0,0,,0,8,8,419,1,
,,,,,,,,,,,,,,,,,,5f863b1e4047781878fd5d21,2020-11-27_17h09.35.909,lexical_decision_task_MP_exp2,2020.2.5,Win32,60,m,1,,,,,,,,0.901875,1,,,,,,180,WORD,"ID",16,silent,SILENT,m,0.901875,,,,,,0.247222239,-0.200925993,0,0,0,,0,9,9,119,1,
,,,,,,,,,,,,,,,,,,5f863b1e4047781878fd5d21,2020-11-27_17h09.35.909,lexical_decision_task_MP_exp2,2020.2.5,Win32,60,z,1,,,,,,,,0.743745,1,,,,,,354,NW,"ID",33,virlex,VIRLEX,z,0.743745,,,,,,0.247222239,-0.200925993,0,0,0,,0,10,10,293,1,
,,,,,,,,,,,,,,,,,,5f863b1e4047781878fd5d21,2020-11-27_17h09.35.909,lexical_decision_task_MP_exp2,2020.2.5,Win32,60,m,0,,,,,,,,0.614555,0,,,,,,410,NW,"ID",16,tunory,TUNORY,z,0.614555,,,,,,0.247222239,-0.200925993,0,0,0,,0,11,11,349,1,
,,,,,,,,,,,,,,,,,,5f863b1e4047781878fd5d21,2020-11-27_17h09.35.909,lexical_decision_task_MP_exp2,2020.2.5,Win32,60,m,0,,,,,,,,0.798095,0,,,,,,346,NW,"ID",33,saudic,SAUDIC,z,0.798095,,,,,,0.247222239,-0.200925993,0,0,0,,0,12,12,285,1,
,,,,,,,,,,,,,,,,,,5f863b1e4047781878fd5d21,2020-11-27_17h09.35.909,lexical_decision_task_MP_exp2,2020.2.5,Win32,60,z,1,,,,,,,,0.666355,1,,,,,,246,NW,UN,16,blarge,PIATON,z,0.666355,,,,,,0.247222239,-0.200925993,0,0,0,,0,13,13,425,1,
,,,,,,,,,,,,,,,,,,5f863b1e4047781878fd5d21,2020-11-27_17h09.35.909,lexical_decision_task_MP_exp2,2020.2.5,Win32,60,m,1,,,,,,,,0.543385,1,,,,,,133,WORD,"ID",16,chrome,CHROME,m,0.543385,,,,,,0.247222239,-0.200925993,0,0,0,,0,14,14,72,1,
,,,,,,,,,,,,,,,,,,5f863b1e4047781878fd5d21,2020-11-27_17h09.35.909,lexical_decision_task_MP_exp2,2020.2.5,Win32,60,m,1,,,,,,,,0.63832,1,,,,,,20,WORD,UN,16,simple,BREAST,m,0.63832,,,,,,0.247222239,-0.200925993,0,0,0,,0,15,15,199,1,
,,,,,,,,,,,,,,,,,,5f863b1e4047781878fd5d21,2020-11-27_17h09.35.909,lexical_decision_task_MP_exp2,2020.2.5,Win32,60,z,1,,,,,,,,0.7279,1,,,,,,355,NW,"ID",33,zingly,ZINGLY,z,0.7279,,,,,,0.247222239,-0.200925993,0,0,0,,0,16,16,294,1,
,,,,,,,,,,,,,,,,,,5f863b1e4047781878fd5d21,2020-11-27_17h09.35.909,lexical_decision_task_MP_exp2,2020.2.5,Win32,60,m,0,,,,,,,,0.872455,0,,,,,,474,NW,UN,33,acrise,HABLIN,z,0.872455,,,,,,0.247222239,-0.200925993,0,0,0,,0,17,17,413,1,
,,,,,,,,,,,,,,,,,,5f863b1e4047781878fd5d21,2020-11-27_17h09.35.909,lexical_decision_task_MP_exp2,2020.2.5,Win32,60,m,1,,,,,,,,0.699745,1,,,,,,217,WORD,UN,33,shrink,LIQUOR,m,0.699745,,,,,,0.247222239,-0.200925993,0,0,0,,0,18,18,156,1,
,,,,,,,,,,,,,,,,,,5f863b1e4047781878fd5d21,2020-11-27_17h09.35.909,lexical_decision_task_MP_exp2,2020.2.5,Win32,60,m,1,,,,,,,,0.65521,1,,,,,,195,WORD,UN,33,credit,RESIGN,m,0.65521,,,,,,0.247222239,-0.200925993,0,0,0,,0,19,19,134,1,
,,,,,,,,,,,,,,,,,,5f863b1e4047781878fd5d21,2020-11-27_17h09.35.909,lexical_decision_task_MP_exp2,2020.2.5,Win32,60,m,1,,,,,,,,0.621425,1,,,,,,9,WORD,UN,16,bridge,HUSTLE,m,0.621425,,,,,,0.247222239,-0.200925993,0,0,0,,0,20,20,188,1,
,,,,,,,,,,,,,,,,,,5f863b1e4047781878fd5d21,2020-11-27_17h09.35.909,lexical_decision_task_MP_exp2,2020.2.5,Win32,60,m,1,,,,,,,,0.557355,1,,,,,,154,WORD,"ID",16,author,AUTHOR,m,0.557355,,,,,,0.247222239,-0.200925993,0,0,0,,0,21,21,93,1,
,,,,,,,,,,,,,,,,,,5f863b1e4047781878fd5d21,2020-11-27_17h09.35.909,lexical_decision_task_MP_exp2,2020.2.5,Win32,60,z,1,,,,,,,,0.61638,1,,,,,,273,NW,UN,16,fumblo,SORTEL,z,0.61638,,,,,,0.247222239,-0.200925993,0,0,0,,0,22,22,452,1,
,,,,,,,,,,,,,,,,,,5f863b1e4047781878fd5d21,2020-11-27_17h09.35.909,lexical_decision_task_MP_exp2,2020.2.5,Win32,60,m,0,,,,,,,,0.705175,0,,,,,,243,NW,UN,16,eatric,MUSIED,z,0.705175,,,,,,0.247222239,-0.200925993,0,0,0,,0,23,23,422,1,
,,,,,,,,,,,,,,,,,,5f863b1e4047781878fd5d21,2020-11-27_17h09.35.909,lexical_decision_task_MP_exp2,2020.2.5,Win32,60,z,1,,,,,,,,0.731165,1,,,,,,378,NW,"ID",16,shrile,SHRILE,z,0.731165,,,,,,0.247222239,-0.200925993,0,0,0,,0,24,24,317,1,
,,,,,,,,,,,,,,,,,,5f863b1e4047781878fd5d21,2020-11-27_17h09.35.909,lexical_decision_task_MP_exp2,2020.2.5,Win32,60,m,1,,,,,,,,0.568285,1,,,,,,91,WORD,"ID",33,expand,EXPAND,m,0.568285,,,,,,0.247222239,-0.200925993,0,0,0,,0,25,25,30,1,
,,,,,,,,,,,,,,,,,,5f863b1e4047781878fd5d21,2020-11-27_17h09.35.909,lexical_decision_task_MP_exp2,2020.2.5,Win32,60,z,1,,,,,,,,0.662045,1,,,,,,387,NW,"ID",16,gronce,GRONCE,z,0.662045,,,,,,0.247222239,-0.200925993,0,0,0,,0,26,26,326,1,
,,,,,,,,,,,,,,,,,,5f863b1e4047781878fd5d21,2020-11-27_17h09.35.909,lexical_decision_task_MP_exp2,2020.2.5,Win32,60,m,1,,,,,,,,0.531445,1,,,,,,103,WORD,"ID",33,bounce,BOUNCE,m,0.531445,,,,,,0.247222239,-0.200925993,0,0,0,,0,27,27,42,1,
,,,,,,,,,,,,,,,,,,5f863b1e4047781878fd5d21,2020-11-27_17h09.35.909,lexical_decision_task_MP_exp2,2020.2.5,Win32,60,z,0,,,,,,,,0.61049,0,,,,,,186,WORD,UN,33,course,PORTAL,m,0.61049,,,,,,0.247222239,-0.200925993,0,0,0,,0,28,28,125,1,
,,,,,,,,,,,,,,,,,,5f863b1e4047781878fd5d21,2020-11-27_17h09.35.909,lexical_decision_task_MP_exp2,2020.2.5,Win32,60,m,0,,,,,,,,0.629935,0,,,,,,475,NW,UN,33,josted,PEBRIC,z,0.629935,,,,,,0.247222239,-0.200925993,0,0,0,,0,29,29,414,1,
,,,,,,,,,,,,,,,,,,5f863b1e4047781878fd5d21,2020-11-27_17h09.35.909,lexical_decision_task_MP_exp2,2020.2.5,Win32,60,z,1,,,,,,,,0.655175,1,,,,,,278,NW,UN,16,celond,UNIGHS,z,0.655175,,,,,,0.247222239,-0.200925993,0,0,0,,0,30,30,457,1,
,,,,,,,,,,,,,,,,,,5f863b1e4047781878fd5d21,2020-11-27_17h09.35.909,lexical_decision_task_MP_exp2,2020.2.5,Win32,60,m,1,,,,,,,,0.582605,1,,,,,,118,WORD,"ID",33,flight,FLIGHT,m,0.582605,,,,,,0.247222239,-0.200925993,0,0,0,,0,31,31,57,1,
,,,,,,,,,,,,,,,,,,5f863b1e4047781878fd5d21,2020-11-27_17h09.35.909,lexical_decision_task_MP_exp2,2020.2.5,Win32,60,z,1,,,,,,,,1.16633,1,,,,,,303,NW,"ID",33,fiream,FIREAM,z,1.16633,,,,,,0.247222239,-0.200925993,0,0,0,,0,32,32,242,1,
,,,,,,,,,,,,,,,,,,5f863b1e4047781878fd5d21,2020-11-27_17h09.35.909,lexical_decision_task_MP_exp2,2020.2.5,Win32,60,z,1,,,,,,,,0.84973,1,,,,,,365,NW,"ID",16,guairt,GUAIRT,z,0.84973,,,,,,0.247222239,-0.200925993,0,0,0,,0,33,33,304,1,
,,,,,,,,,,,,,,,,,,5f863b1e4047781878fd5d21,2020-11-27_17h09.35.909,lexical_decision_task_MP_exp2,2020.2.5,Win32,60,z,0,,,,,,,,0.855085,0,,,,,,4,WORD,UN,16,plunge,TRENCH,m,0.855085,,,,,,0.247222239,-0.200925993,0,0,0,,0,34,34,183,1,
,,,,,,,,,,,,,,,,,,5f863b1e4047781878fd5d21,2020-11-27_17h09.35.909,lexical_decision_task_MP_exp2,2020.2.5,Win32,60,m,1,,,,,,,,0.688255,1,,,,,,22,WORD,UN,16,wealth,JOCKEY,m,0.688255,,,,,,0.247222239,-0.200925993,0,0,0,,0,35,35,201,1,
,,,,,,,,,,,,,,,,,,5f863b1e4047781878fd5d21,2020-11-27_17h09.35.909,lexical_decision_task_MP_exp2,2020.2.5,Win32,60,z,1,,,,,,,,0.84781,1,,,,,,255,NW,UN,16,inlors,APIGHT,z,0.84781,,,,,,0.247222239,-0.200925993,0,0,0,,0,36,36,434,1,
,,,,,,,,,,,,,,,,,,5f863b1e4047781878fd5d21,2020-11-27_17h09.35.909,lexical_decision_task_MP_exp2,2020.2.5,Win32,60,z,1,,,,,,,,0.84483,1,,,,,,420,NW,"ID",16,gushop,GUSHOP,z,0.84483,,,,,,0.247222239,-0.200925993,0,0,0,,0,37,37,359,1,
,,,,,,,,,,,,,,,,,,5f863b1e4047781878fd5d21,2020-11-27_17h09.35.909,lexical_decision_task_MP_exp2,2020.2.5,Win32,60,z,1,,,,,,,,0.78199,1,,,,,,372,NW,"ID",16,ramily,RAMILY,z,0.78199,,,,,,0.247222239,-0.200925993,0,0,0,,0,38,38,311,1,
,,,,,,,,,,,,,,,,,,5f863b1e4047781878fd5d21,2020-11-27_17h09.35.909,lexical_decision_task_MP_exp2,2020.2.5,Win32,60,z,0,,,,,,,,1.18168,0,,,,,,59,WORD,UN,16,pencil,SPLINT,m,1.18168,,,,,,0.247222239,-0.200925993,0,0,0,,0,39,39,238,1,
,,,,,,,,,,,,,,,,,,5f863b1e4047781878fd5d21,2020-11-27_17h09.35.909,lexical_decision_task_MP_exp2,2020.2.5,Win32,60,m,1,,,,,,,,0.831495,1,,,,,,188,WORD,UN,33,censor,SOCIAL,m,0.831495,,,,,,0.247222239,-0.200925993,0,0,0,,0,40,40,127,1,
,,,,,,,,,,,,,,,,,,5f863b1e4047781878fd5d21,2020-11-27_17h09.35.909,lexical_decision_task_MP_exp2,2020.2.5,Win32,60,m,1,,,,,,,,0.721465,1,,,,,,95,WORD,"ID",33,thread,THREAD,m,0.721465,,,,,,0.247222239,-0.200925993,0,0,0,,0,41,41,34,1,
,,,,,,,,,,,,,,,,,,5f863b1e4047781878fd5d21,2020-11-27_17h09.35.909,lexical_decision_task_MP_exp2,2020.2.5,Win32,60,m,1,,,,,,,,0.63348,1,,,,,,229,WORD,UN,33,fringe,MOTHER,m,0.63348,,,,,,0.247222239,-0.200925993,0,0,0,,0,42,42,168,1,
,,,,,,,,,,,,,,,,,,5f863b1e4047781878fd5d21,2020-11-27_17h09.35.909,lexical_decision_task_MP_exp2,2020.2.5,Win32,60,z,1,,,,,,,,0.731525,1,,,,,,408,NW,"ID",16,hurnia,HURNIA,z,0.731525,,,,,,0.247222239,-0.200925993,0,0,0,,0,43,43,347,1,
,,,,,,,,,,,,,,,,,,5f863b1e4047781878fd5d21,2020-11-27_17h09.35.909,lexical_decision_task_MP_exp2,2020.2.5,Win32,60,m,1,,,,,,,,0.648785,1,,,,,,161,WORD,"ID",16,pastor,PASTOR,m,0.648785,,,,,,0.247222239,-0.200925993,0,0,0,,0,44,44,100,1,
,,,,,,,,,,,,,,,,,,5f863b1e4047781878fd5d21,2020-11-27_17h09.35.909,lexical_decision_task_MP_exp2,2020.2.5,Win32,60,m,1,,,,,,,,0.88561,1,,,,,,84,WORD,"ID",33,mortal,MORTAL,m,0.88561,,,,,,0.247222239,-0.200925993,0,0,0,,0,45,45,23,1,
,,,,,,,,,,,,,,,,,,5f863b1e4047781878fd5d21,2020-11-27_17h09.35.909,lexical_decision_task_MP_exp2,2020.2.5,Win32,60,z,1,,,,,,,,0.91837,1,,,,,,284,NW,UN,16,prudge,SHAPLE,z,0.91837,,,,,,0.247222239,-0.200925993,0,0,0,,0,46,46,463,1,
,,,,,,,,,,,,,,,,,,5f863b1e4047781878fd5d21,2020-11-27_17h09.35.909,lexical_decision_task_MP_exp2,2020.2.5,Win32,60,m,1,,,,,,,,0.661325,1,,,,,,75,WORD,"ID",33,trophy,TROPHY,m,0.661325,,,,,,0.247222239,-0.200925993,0,0,0,,0,47,47,14,1,
,,,,,,,,,,,,,,,,,,5f863b1e4047781878fd5d21,2020-11-27_17h09.35.909,lexical_decision_task_MP_exp2,2020.2.5,Win32,60,z,1,,,,,,,,0.956715,1,,,,,,291,NW,UN,16,ablint,PRETCH,z,0.956715,,,,,,0.247222239,-0.200925993,0,0,0,,0,48,48,470,1,
,,,,,,,,,,,,,,,,,,5f863b1e4047781878fd5d21,2020-11-27_17h09.35.909,lexical_decision_task_MP_exp2,2020.2.5,Win32,60,m,1,,,,,,,,0.94063,1,,,,,,24,WORD,UN,16,domain,PRAISE,m,0.94063,,,,,,0.247222239,-0.200925993,0,0,0,,0,49,49,203,1,
,,,,,,,,,,,,,,,,,,5f863b1e4047781878fd5d21,2020-11-27_17h09.35.909,lexical_decision_task_MP_exp2,2020.2.5,Win32,60,m,1,,,,,,,,0.713885,1,,,,,,113,WORD,"ID",33,chorus,CHORUS,m,0.713885,,,,,,0.247222239,-0.200925993,0,0,0,,0,50,50,52,1,
,,,,,,,,,,,,,,,,,,5f863b1e4047781878fd5d21,2020-11-27_17h09.35.909,lexical_decision_task_MP_exp2,2020.2.5,Win32,60,z,1,,,,,,,,0.755395,1,,,,,,309,NW,"ID",33,amiloy,AMILOY,z,0.755395,,,,,,0.247222239,-0.200925993,0,0,0,,0,51,51,248,1,
,,,,,,,,,,,,,,,,,,5f863b1e4047781878fd5d21,2020-11-27_17h09.35.909,lexical_decision_task_MP_exp2,2020.2.5,Win32,60,z,1,,,,,,,,0.749135,1,,,,,,463,NW,UN,33,chaite,KISPEL,z,0.749135,,,,,,0.247222239,-0.200925993,0,0,0,,0,52,52,402,1,
,,,,,,,,,,,,,,,,,,5f863b1e4047781878fd5d21,2020-11-27_17h09.35.909,lexical_decision_task_MP_exp2,2020.2.5,Win32,60,z,1,,,,,,,,0.71152,1,,,,,,434,NW,UN,33,impurb,PITROM,z,0.71152,,,,,,0.247222239,-0.200925993,0,0,0,,0,53,53,373,1,
,,,,,,,,,,,,,,,,,,5f863b1e4047781878fd5d21,2020-11-27_17h09.35.909,lexical_decision_task_MP_exp2,2020.2.5,Win32,60,z,1,,,,,,,,0.7181,1,,,,,,470,NW,UN,33,nobest,CRUDIO,z,0.7181,,,,,,0.247222239,-0.200925993,0,0,0,,0,54,54,409,1,
,,,,,,,,,,,,,,,,,,5f863b1e4047781878fd5d21,2020-11-27_17h09.35.909,lexical_decision_task_MP_exp2,2020.2.5,Win32,60,m,1,,,,,,,,0.929115,1,,,,,,110,WORD,"ID",33,polite,POLITE,m,0.929115,,,,,,0.247222239,-0.200925993,0,0,0,,0,55,55,49,1,
,,,,,,,,,,,,,,,,,,5f863b1e4047781878fd5d21,2020-11-27_17h09.35.909,lexical_decision_task_MP_exp2,2020.2.5,Win32,60,z,1,,,,,,,,0.811385,1,,,,,,477,NW,UN,33,lobush,PHOTIE,z,0.811385,,,,,,0.247222239,-0.200925993,0,0,0,,0,56,56,416,1,
,,,,,,,,,,,,,,,,,,5f863b1e4047781878fd5d21,2020-11-27_17h09.35.909,lexical_decision_task_MP_exp2,2020.2.5,Win32,60,z,1,,,,,,,,0.7186,1,,,,,,315,NW,"ID",33,laston,LASTON,z,0.7186,,,,,,0.247222239,-0.200925993,0,0,0,,0,57,57,254,1,
,,,,,,,,,,,,,,,,,,5f863b1e4047781878fd5d21,2020-11-27_17h09.35.909,lexical_decision_task_MP_exp2,2020.2.5,Win32,60,z,0,,,,,,,,0.73132,0,,,,,,170,WORD,"ID",16,pounce,POUNCE,m,0.73132,,,,,,0.247222239,-0.200925993,0,0,0,,0,58,58,109,1,
,,,,,,,,,,,,,,,,,,5f863b1e4047781878fd5d21,2020-11-27_17h09.35.909,lexical_decision_task_MP_exp2,2020.2.5,Win32,60,z,1,,,,,,,,0.8365,1,,,,,,249,NW,UN,16,milted,BATROL,z,0.8365,,,,,,0.247222239,-0.200925993,0,0,0,,0,59,59,428,1,
,,,,,,,,,,,,,,,,,,5f863b1e4047781878fd5d21,2020-11-27_17h09.35.909,lexical_decision_task_MP_exp2,2020.2.5,Win32,60,m,1,,,,,,,,0.735435,1,,,,,,51,WORD,UN,16,impose,HUNGRY,m,0.735435,,,,,,0.247222239,-0.200925993,0,0,0,,0,60,60,230,1,
,,,,,,,,,,,,,,,,,,5f863b1e4047781878fd5d21,2020-11-27_17h09.35.909,lexical_decision_task_MP_exp2,2020.2.5,Win32,60,z,1,,,,,,,,0.712715,1,,,,,,357,NW,"ID",33,derain,DERAIN,z,0.712715,,,,,,0.247222239,-0.200925993,0,0,0,,0,61,61,296,1,
,,,,,,,,,,,,,,,,,,5f863b1e4047781878fd5d21,2020-11-27_17h09.35.909,lexical_decision_task_MP_exp2,2020.2.5,Win32,60,z,1,,,,,,,,0.902495,1,,,,,,288,NW,UN,16,starby,YACEUP,z,0.902495,,,,,,0.247222239,-0.200925993,0,0,0,,0,62,62,467,1,
,,,,,,,,,,,,,,,,,,5f863b1e4047781878fd5d21,2020-11-27_17h09.35.909,lexical_decision_task_MP_exp2,2020.2.5,Win32,60,m,1,,,,,,,,0.68646,1,,,,,,107,WORD,"ID",33,slogan,SLOGAN,m,0.68646,,,,,,0.247222239,-0.200925993,0,0,0,,0,63,63,46,1,
,,,,,,,,,,,,,,,,,,5f863b1e4047781878fd5d21,2020-11-27_17h09.35.909,lexical_decision_task_MP_exp2,2020.2.5,Win32,60,m,1,,,,,,,,0.706525,1,,,,,,159,WORD,"ID",16,detail,DETAIL,m,0.706525,,,,,,0.247222239,-0.200925993,0,0,0,,0,64,64,98,1,
,,,,,,,,,,,,,,,,,,5f863b1e4047781878fd5d21,2020-11-27_17h09.35.909,lexical_decision_task_MP_exp2,2020.2.5,Win32,60,z,1,,,,,,,,0.768135,1,,,,,,298,NW,UN,16,sturch,PIERGY,z,0.768135,,,,,,0.247222239,-0.200925993,0,0,0,,0,65,65,477,1,
,,,,,,,,,,,,,,,,,,5f863b1e4047781878fd5d21,2020-11-27_17h09.35.909,lexical_decision_task_MP_exp2,2020.2.5,Win32,60,m,0,,,,,,,,0.742705,0,,,,,,394,NW,"ID",16,spaqux,SPAQUX,z,0.742705,,,,,,0.247222239,-0.200925993,0,0,0,,0,66,66,333,1,
,,,,,,,,,,,,,,,,,,5f863b1e4047781878fd5d21,2020-11-27_17h09.35.909,lexical_decision_task_MP_exp2,2020.2.5,Win32,60,m,1,,,,,,,,0.78107,1,,,,,,207,WORD,UN,33,hockey,WREATH,m,0.78107,,,,,,0.247222239,-0.200925993,0,0,0,,0,67,67,146,1,
,,,,,,,,,,,,,,,,,,5f863b1e4047781878fd5d21,2020-11-27_17h09.35.909,lexical_decision_task_MP_exp2,2020.2.5,Win32,60,m,1,,,,,,,,0.7124,1,,,,,,23,WORD,UN,16,praise,WEALTH,m,0.7124,,,,,,0.247222239,-0.200925993,0,0,0,,0,68,68,202,1,
,,,,,,,,,,,,,,,,,,5f863b1e4047781878fd5d21,2020-11-27_17h09.35.909,lexical_decision_task_MP_exp2,2020.2.5,Win32,60,z,1,,,,,,,,0.73036,1,,,,,,371,NW,"ID",16,geiloy,GEILOY,z,0.73036,,,,,,0.247222239,-0.200925993,0,0,0,,0,69,69,310,1,
,,,,,,,,,,,,,,,,,,5f863b1e4047781878fd5d21,2020-11-27_17h09.35.909,lexical_decision_task_MP_exp2,2020.2.5,Win32,60,m,1,,,,,,,,0.67973,1,,,,,,164,WORD,"ID",16,market,MARKET,m,0.67973,,,,,,0.247222239,-0.200925993,0,0,0,,0,70,70,103,1,
,,,,,,,,,,,,,,,,,,5f863b1e4047781878fd5d21,2020-11-27_17h09.35.909,lexical_decision_task_MP_exp2,2020.2.5,Win32,60,z,1,,,,,,,,0.94622,1,,,,,,390,NW,"ID",16,hatrus,HATRUS,z,0.94622,,,,,,0.247222239,-0.200925993,0,0,0,,0,71,71,329,1,
,,,,,,,,,,,,,,,,,,5f863b1e4047781878fd5d21,2020-11-27_17h09.35.909,lexical_decision_task_MP_exp2,2020.2.5,Win32,60,z,1,,,,,,,,0.81565,1,,,,,,342,NW,"ID",33,randow,RANDOW,z,0.81565,,,,,,0.247222239,-0.200925993,0,0,0,,0,72,72,281,1,
,,,,,,,,,,,,,,,,,,5f863b1e4047781878fd5d21,2020-11-27_17h09.35.909,lexical_decision_task_MP_exp2,2020.2.5,Win32,60,m,1,,,,,,,,0.728235,1,,,,,,147,WORD,"ID",16,garlic,GARLIC,m,0.728235,,,,,,0.247222239,-0.200925993,0,0,0,,0,73,73,86,1,
,,,,,,,,,,,,,,,,,,5f863b1e4047781878fd5d21,2020-11-27_17h09.35.909,lexical_decision_task_MP_exp2,2020.2.5,Win32,60,z,0,,,,,,,,0.79009,0,,,,,,142,WORD,"ID",16,spruce,SPRUCE,m,0.79009,,,,,,0.247222239,-0.200925993,0,0,0,,0,74,74,81,1,
,,,,,,,,,,,,,,,,,,5f863b1e4047781878fd5d21,2020-11-27_17h09.35.909,lexical_decision_task_MP_exp2,2020.2.5,Win32,60,m,1,,,,,,,,0.75713,1,,,,,,223,WORD,UN,33,period,KIDNEY,m,0.75713,,,,,,0.247222239,-0.200925993,0,0,0,,0,75,75,162,1,
,,,,,,,,,,,,,,,,,,5f863b1e4047781878fd5d21,2020-11-27_17h09.35.909,lexical_decision_task_MP_exp2,2020.2.5,Win32,60,z,1,,,,,,,,0.65024,1,,,,,,241,NW,UN,16,unwert,SMENCO,z,0.65024,,,,,,0.247222239,-0.200925993,0,0,0,,0,76,76,420,1,
,,,,,,,,,,,,,,,,,,5f863b1e4047781878fd5d21,2020-11-27_17h09.35.909,lexical_decision_task_MP_exp2,2020.2.5,Win32,60,z,0,,,,,,,,0.644805,0,,,,,,125,WORD,"ID",16,nickel,NICKEL,m,0.644805,,,,,,0.247222239,-0.200925993,0,0,0,,0,77,77,64,1,
,,,,,,,,,,,,,,,,,,5f863b1e4047781878fd5d21,2020-11-27_17h09.35.909,lexical_decision_task_MP_exp2,2020.2.5,Win32,60,z,1,,,,,,,,0.79845,1,,,,,,423,NW,UN,33,praile,STRELD,z,0.79845,,,,,,0.247222239,-0.200925993,0,0,0,,0,78,78,362,1,
,,,,,,,,,,,,,,,,,,5f863b1e4047781878fd5d21,2020-11-27_17h09.35.909,lexical_decision_task_MP_exp2,2020.2.5,Win32,60,m,1,,,,,,,,0.620065,1,,,,,,86,WORD,"ID",33,rodent,RODENT,m,0.620065,,,,,,0.247222239,-0.200925993,0,0,0,,0,79,79,25,1,
,,,,,,,,,,,,,,,,,,5f863b1e4047781878fd5d21,2020-11-27_17h09.35.909,lexical_decision_task_MP_exp2,2020.2.5,Win32,60,z,1,,,,,,,,0.73181,1,,,,,,467,NW,UN,33,wictor,GORBIE,z,0.73181,,,,,,0.247222239,-0.200925993,0,0,0,,0,80,80,406,1,
,,,,,,,,,,,,,,,,,,5f863b1e4047781878fd5d21,2020-11-27_17h09.35.909,lexical_decision_task_MP_exp2,2020.2.5,Win32,60,m,1,,,,,,,,0.69961,1,,,,,,56,WORD,UN,16,change,AMBUSH,m,0.69961,,,,,,0.247222239,-0.200925993,0,0,0,,0,81,81,235,1,
,,,,,,,,,,,,,,,,,,5f863b1e4047781878fd5d21,2020-11-27_17h09.35.909,lexical_decision_task_MP_exp2,2020.2.5,Win32,60,z,1,,,,,,,,0.731565,1,,,,,,451,NW,UN,33,surden,CAINKY,z,0.731565,,,,,,0.247222239,-0.200925993,0,0,0,,0,82,82,390,1,
,,,,,,,,,,,,,,,,,,5f863b1e4047781878fd5d21,2020-11-27_17h09.35.909,lexical_decision_task_MP_exp2,2020.2.5,Win32,60,m,1,,,,,,,,0.899855,1,,,,,,185,WORD,UN,33,portal,BOTHER,m,0.899855,,,,,,0.247222239,-0.200925993,0,0,0,,0,83,83,124,1,
,,,,,,,,,,,,,,,,,,5f863b1e4047781878fd5d21,2020-11-27_17h09.35.909,lexical_decision_task_MP_exp2,2020.2.5,Win32,60,m,1,,,,,,,,1.098645,1,,,,,,37,WORD,UN,16,powder,INSULT,m,1.098645,,,,,,0.247222239,-0.200925993,0,0,0,,0,84,84,216,1,
,,,,,,,,,,,,,,,,,,5f863b1e4047781878fd5d21,2020-11-27_17h09.35.909,lexical_decision_task_MP_exp2,2020.2.5,Win32,60,z,1,,,,,,,,0.8023,1,,,,,,472,NW,UN,33,gorbie,CIGNEY,z,0.8023,,,,,,0.247222239,-0.200925993,0,0,0,,0,85,85,411,1,
,,,,,,,,,,,,,,,,,,5f863b1e4047781878fd5d21,2020-11-27_17h09.35.909,lexical_decision_task_MP_exp2,2020.2.5,Win32,60,z,1,,,,,,,,0.862705,1,,,,,,369,NW,"ID",16,wronch,WRONCH,z,0.862705,,,,,,0.247222239,-0.200925993,0,0,0,,0,86,86,308,1,
,,,,,,,,,,,,,,,,,,5f863b1e4047781878fd5d21,2020-11-27_17h09.35.909,lexical_decision_task_MP_exp2,2020.2.5,Win32,60,m,1,,,,,,,,0.90684,1,,,,,,149,WORD,"ID",16,invade,INVADE,m,0.90684,,,,,,0.247222239,-0.200925993,0,0,0,,0,87,87,88,1,
,,,,,,,,,,,,,,,,,,5f863b1e4047781878fd5d21,2020-11-27_17h09.35.909,lexical_decision_task_MP_exp2,2020.2.5,Win32,60,z,0,,,,,,,,0.70811,0,,,,,,183,WORD,UN,33,sleazy,MILDEW,m,0.70811,,,,,,0.247222239,-0.200925993,0,0,0,,0,88,88,122,1,
,,,,,,,,,,,,,,,,,,5f863b1e4047781878fd5d21,2020-11-27_17h09.35.909,lexical_decision_task_MP_exp2,2020.2.5,Win32,60,m,0,,,,,,,,1.245405,0,,,,,,417,NW,"ID",16,earoud,EAROUD,z,1.245405,,,,,,0.247222239,-0.200925993,0,0,0,,0,89,89,356,1,
,,,,,,,,,,,,,,,,,,5f863b1e4047781878fd5d21,2020-11-27_17h09.35.909,lexical_decision_task_MP_exp2,2020.2.5,Win32,60,m,0,,,,,,,,0.90282,0,,,,,,462,NW,UN,33,kispel,ABSULT,z,0.90282,,,,,,0.247222239,-0.200925993,0,0,0,,0,90,90,401,1,
,,,,,,,,,,,,,,,,,,5f863b1e4047781878fd5d21,2020-11-27_17h09.35.909,lexical_decision_task_MP_exp2,2020.2.5,Win32,60,z,1,,,,,,,,0.903425,1,,,,,,261,NW,UN,16,quilew,STUNCH,z,0.903425,,,,,,0.247222239,-0.200925993,0,0,0,,0,91,91,440,1,
,,,,,,,,,,,,,,,,,,5f863b1e4047781878fd5d21,2020-11-27_17h09.35.909,lexical_decision_task_MP_exp2,2020.2.5,Win32,60,m,1,,,,,,,,0.83229,1,,,,,,58,WORD,UN,16,splint,FOSTER,m,0.83229,,,,,,0.247222239,-0.200925993,0,0,0,,0,92,92,237,1,
,,,,,,,,,,,,,,,,,,5f863b1e4047781878fd5d21,2020-11-27_17h09.35.909,lexical_decision_task_MP_exp2,2020.2.5,Win32,60,m,1,,,,,,,,1.027505,1,,,,,,8,WORD,UN,16,hustle,ABRUPT,m,1.027505,,,,,,0.247222239,-0.200925993,0,0,0,,0,93,93,187,1,
,,,,,,,,,,,,,,,,,,5f863b1e4047781878fd5d21,2020-11-27_17h09.35.909,lexical_decision_task_MP_exp2,2020.2.5,Win32,60,m,1,,,,,,,,0.71182,1,,,,,,146,WORD,"ID",16,couple,COUPLE,m,0.71182,,,,,,0.247222239,-0.200925993,0,0,0,,0,94,94,85,1,
,,,,,,,,,,,,,,,,,,5f863b1e4047781878fd5d21,2020-11-27_17h09.35.909,lexical_decision_task_MP_exp2,2020.2.5,Win32,60,m,1,,,,,,,,0.77237,1,,,,,,210,WORD,UN,33,infect,MONKEY,m,0.77237,,,,,,0.247222239,-0.200925993,0,0,0,,0,95,95,149,1,
,,,,,,,,,,,,,,,,,,5f863b1e4047781878fd5d21,2020-11-27_17h09.35.909,lexical_decision_task_MP_exp2,2020.2.5,Win32,60,z,1,,,,,,,,1.15617,1,,,,,,358,NW,"ID",33,fleack,FLEACK,z,1.15617,,,,,,0.247222239,-0.200925993,0,0,0,,0,96,96,297,1,
,,,,,,,,,,,,,,,,,,5f863b1e4047781878fd5d21,2020-11-27_17h09.35.909,lexical_decision_task_MP_exp2,2020.2.5,Win32,60,z,1,,,,,,,,0.80577,1,,,,,,267,NW,UN,16,packes,PASINK,z,0.80577,,,,,,0.247222239,-0.200925993,0,0,0,,0,97,97,446,1,
,,,,,,,,,,,,,,,,,,5f863b1e4047781878fd5d21,2020-11-27_17h09.35.909,lexical_decision_task_MP_exp2,2020.2.5,Win32,60,m,1,,,,,,,,0.71989,1,,,,,,208,WORD,UN,33,search,HOCKEY,m,0.71989,,,,,,0.247222239,-0.200925993,0,0,0,,0,98,98,147,1,
,,,,,,,,,,,,,,,,,,5f863b1e4047781878fd5d21,2020-11-27_17h09.35.909,lexical_decision_task_MP_exp2,2020.2.5,Win32,60,z,1,,,,,,,,0.910915,1,,,,,,250,NW,UN,16,lupict,MILTED,z,0.910915,,,,,,0.247222239,-0.200925993,0,0,0,,0,99,99,429,1,
,,,,,,,,,,,,,,,,,,5f863b1e4047781878fd5d21,2020-11-27_17h09.35.909,lexical_decision_task_MP_exp2,2020.2.5,Win32,60,z,1,,,,,,,,0.745535,1,,,,,,331,NW,"ID",33,gilfew,GILFEW,z,0.745535,,,,,,0.247222239,-0.200925993,0,0,0,,0,100,100,270,1,
,,,,,,,,,,,,,,,,,,5f863b1e4047781878fd5d21,2020-11-27_17h09.35.909,lexical_decision_task_MP_exp2,2020.2.5,Win32,60,z,1,,,,,,,,0.724275,1,,,,,,460,NW,UN,33,justre,MINGAR,z,0.724275,,,,,,0.247222239,-0.200925993,0,0,0,,0,101,101,399,1,
,,,,,,,,,,,,,,,,,,5f863b1e4047781878fd5d21,2020-11-27_17h09.35.909,lexical_decision_task_MP_exp2,2020.2.5,Win32,60,z,1,,,,,,,,1.0633,1,,,,,,399,NW,"ID",16,fouret,FOURET,z,1.0633,,,,,,0.247222239,-0.200925993,0,0,0,,0,102,102,338,1,
,,,,,,,,,,,,,,,,,,5f863b1e4047781878fd5d21,2020-11-27_17h09.35.909,lexical_decision_task_MP_exp2,2020.2.5,Win32,60,m,1,,,,,,,,0.981335,1,,,,,,32,WORD,UN,16,scream,BUCKLE,m,0.981335,,,,,,0.247222239,-0.200925993,0,0,0,,0,103,103,211,1,
,,,,,,,,,,,,,,,,,,5f863b1e4047781878fd5d21,2020-11-27_17h09.35.909,lexical_decision_task_MP_exp2,2020.2.5,Win32,60,m,1,,,,,,,,0.73634,1,,,,,,193,WORD,UN,33,mildew,OBJECT,m,0.73634,,,,,,0.247222239,-0.200925993,0,0,0,,0,104,104,132,1,
,,,,,,,,,,,,,,,,,,5f863b1e4047781878fd5d21,2020-11-27_17h09.35.909,lexical_decision_task_MP_exp2,2020.2.5,Win32,60,z,1,,,,,,,,1.037615,1,,,,,,379,NW,"ID",16,auting,AUTING,z,1.037615,,,,,,0.247222239,-0.200925993,0,0,0,,0,105,105,318,1,
,,,,,,,,,,,,,,,,,,5f863b1e4047781878fd5d21,2020-11-27_17h09.35.909,lexical_decision_task_MP_exp2,2020.2.5,Win32,60,z,0,,,,,,,,0.97821,0,,,,,,139,WORD,"ID",16,debris,DEBRIS,m,0.97821,,,,,,0.247222239,-0.200925993,0,0,0,,0,106,106,78,1,
,,,,,,,,,,,,,,,,,,5f863b1e4047781878fd5d21,2020-11-27_17h09.35.909,lexical_decision_task_MP_exp2,2020.2.5,Win32,60,m,1,,,,,,,,0.80209,1,,,,,,215,WORD,UN,33,lumber,PHOBIA,m,0.80209,,,,,,0.247222239,-0.200925993,0,0,0,,0,107,107,154,1,
,,,,,,,,,,,,,,,,,,5f863b1e4047781878fd5d21,2020-11-27_17h09.35.909,lexical_decision_task_MP_exp2,2020.2.5,Win32,60,z,1,,,,,,,,0.95606,1,,,,,,312,NW,"ID",33,nerawl,NERAWL,z,0.95606,,,,,,0.247222239,-0.200925993,0,0,0,,0,108,108,251,1,
,,,,,,,,,,,,,,,,,,5f863b1e4047781878fd5d21,2020-11-27_17h09.35.909,lexical_decision_task_MP_exp2,2020.2.5,Win32,60,z,1,,,,,,,,0.971455,1,,,,,,337,NW,"ID",33,rejols,REJOLS,z,0.971455,,,,,,0.247222239,-0.200925993,0,0,0,,0,109,109,276,1,
,,,,,,,,,,,,,,,,,,5f863b1e4047781878fd5d21,2020-11-27_17h09.35.909,lexical_decision_task_MP_exp2,2020.2.5,Win32,60,m,0,,,,,,,,0.87757,0,,,,,,409,NW,"ID",16,elopia,ELOPIA,z,0.87757,,,,,,0.247222239,-0.200925993,0,0,0,,0,110,110,348,1,
,,,,,,,,,,,,,,,,,,5f863b1e4047781878fd5d21,2020-11-27_17h09.35.909,lexical_decision_task_MP_exp2,2020.2.5,Win32,60,z,1,,,,,,,,0.8721,1,,,,,,478,NW,UN,33,pebric,ACRISE,z,0.8721,,,,,,0.247222239,-0.200925993,0,0,0,,0,111,111,417,1,
,,,,,,,,,,,,,,,,,,5f863b1e4047781878fd5d21,2020-11-27_17h09.35.909,lexical_decision_task_MP_exp2,2020.2.5,Win32,60,z,0,,,,,,,,0.866135,0,,,,,,238,WORD,UN,33,behalf,FLOWER,m,0.866135,,,,,,0.247222239,-0.200925993,0,0,0,,0,112,112,177,1,
,,,,,,,,,,,,,,,,,,5f863b1e4047781878fd5d21,2020-11-27_17h09.35.909,lexical_decision_task_MP_exp2,2020.2.5,Win32,60,m,1,,,,,,,,0.81455,1,,,,,,134,WORD,"ID",16,staple,STAPLE,m,0.81455,,,,,,0.247222239,-0.200925993,0,0,0,,0,113,113,73,1,
,,,,,,,,,,,,,,,,,,5f863b1e4047781878fd5d21,2020-11-27_17h09.35.909,lexical_decision_task_MP_exp2,2020.2.5,Win32,60,m,1,,,,,,,,0.668495,1,,,,,,60,WORD,UN,16,fright,PENCIL,m,0.668495,,,,,,0.247222239,-0.200925993,0,0,0,,0,114,114,239,1,
,,,,,,,,,,,,,,,,,,5f863b1e4047781878fd5d21,2020-11-27_17h09.35.909,lexical_decision_task_MP_exp2,2020.2.5,Win32,60,m,1,,,,,,,,0.73787,1,,,,,,3,WORD,UN,16,trench,KNIGHT,m,0.73787,,,,,,0.247222239,-0.200925993,0,0,0,,0,115,115,182,1,
,,,,,,,,,,,,,,,,,,5f863b1e4047781878fd5d21,2020-11-27_17h09.35.909,lexical_decision_task_MP_exp2,2020.2.5,Win32,60,z,1,,,,,,,,0.753285,1,,,,,,326,NW,"ID",33,iguade,IGUADE,z,0.753285,,,,,,0.247222239,-0.200925993,0,0,0,,0,116,116,265,1,
,,,,,,,,,,,,,,,,,,5f863b1e4047781878fd5d21,2020-11-27_17h09.35.909,lexical_decision_task_MP_exp2,2020.2.5,Win32,60,m,0,,,,,,,,0.74476,0,,,,,,345,NW,"ID",33,absend,ABSEND,z,0.74476,,,,,,0.247222239,-0.200925993,0,0,0,,0,117,117,284,1,
,,,,,,,,,,,,,,,,,,5f863b1e4047781878fd5d21,2020-11-27_17h09.35.909,lexical_decision_task_MP_exp2,2020.2.5,Win32,60,z,0,,,,,,,,1.058475,0,,,,,,225,WORD,UN,33,casino,VULGAR,m,1.058475,,,,,,0.247222239,-0.200925993,0,0,0,,0,118,118,164,1,
,,,,,,,,,,,,,,,,,,5f863b1e4047781878fd5d21,2020-11-27_17h09.35.909,lexical_decision_task_MP_exp2,2020.2.5,Win32,60,m,0,,,,,,,,1.052875,0,,,,,,260,NW,UN,16,stunch,UNJECT,z,1.052875,,,,,,0.247222239,-0.200925993,0,0,0,,0,119,119,439,1,
,,,,,,,,,,,,,,,,,,5f863b1e4047781878fd5d21,2020-11-27_17h09.35.909,lexical_decision_task_MP_exp2,2020.2.5,Win32,60,m,1,,,,,,,,0.93306,1,,,,,,211,WORD,UN,33,verify,INFECT,m,0.93306,,,,,,0.247222239,-0.200925993,0,0,0,space,0,120,120,150,1,111.279615
,,,,,,,,,,,,,,,,,,5f863b1e4047781878fd5d21,2020-11-27_17h09.35.909,lexical_decision_task_MP_exp2,2020.2.5,Win32,60,m,1,,,,,,,,0.81355,1,,,,,,237,WORD,UN,33,glance,POSTER,m,0.81355,,,,,,0.247222239,-0.200925993,0,0,0,,0,121,121,176,1,
,,,,,,,,,,,,,,,,,,5f863b1e4047781878fd5d21,2020-11-27_17h09.35.909,lexical_decision_task_MP_exp2,2020.2.5,Win32,60,m,1,,,,,,,,0.616745,1,,,,,,100,WORD,"ID",33,carbon,CARBON,m,0.616745,,,,,,0.247222239,-0.200925993,0,0,0,,0,122,122,39,1,
,,,,,,,,,,,,,,,,,,5f863b1e4047781878fd5d21,2020-11-27_17h09.35.909,lexical_decision_task_MP_exp2,2020.2.5,Win32,60,m,1,,,,,,,,0.73492,1,,,,,,50,WORD,UN,16,hungry,SNATCH,m,0.73492,,,,,,0.247222239,-0.200925993,0,0,0,,0,123,123,229,1,
,,,,,,,,,,,,,,,,,,5f863b1e4047781878fd5d21,2020-11-27_17h09.35.909,lexical_decision_task_MP_exp2,2020.2.5,Win32,60,z,1,,,,,,,,0.62266,1,,,,,,276,NW,UN,16,petain,YARMON,z,0.62266,,,,,,0.247222239,-0.200925993,0,0,0,,0,124,124,455,1,
,,,,,,,,,,,,,,,,,,5f863b1e4047781878fd5d21,2020-11-27_17h09.35.909,lexical_decision_task_MP_exp2,2020.2.5,Win32,60,m,1,,,,,,,,0.52284,1,,,,,,135,WORD,"ID",16,import,IMPORT,m,0.52284,,,,,,0.247222239,-0.200925993,0,0,0,,0,125,125,74,1,
,,,,,,,,,,,,,,,,,,5f863b1e4047781878fd5d21,2020-11-27_17h09.35.909,lexical_decision_task_MP_exp2,2020.2.5,Win32,60,m,1,,,,,,,,0.583,1,,,,,,62,WORD,"ID",33,region,REGION,m,0.583,,,,,,0.247222239,-0.200925993,0,0,0,,0,126,126,1,1,
,,,,,,,,,,,,,,,,,,5f863b1e4047781878fd5d21,2020-11-27_17h09.35.909,lexical_decision_task_MP_exp2,2020.2.5,Win32,60,z,0,,,,,,,,0.604655,0,,,,,,239,WORD,UN,33,forest,LUMBER,m,0.604655,,,,,,0.247222239,-0.200925993,0,0,0,,0,127,127,178,1,
,,,,,,,,,,,,,,,,,,5f863b1e4047781878fd5d21,2020-11-27_17h09.35.909,lexical_decision_task_MP_exp2,2020.2.5,Win32,60,z,0,,,,,,,,0.94323,0,,,,,,166,WORD,"ID",16,starch,STARCH,m,0.94323,,,,,,0.247222239,-0.200925993,0,0,0,,0,128,128,105,1,
,,,,,,,,,,,,,,,,,,5f863b1e4047781878fd5d21,2020-11-27_17h09.35.909,lexical_decision_task_MP_exp2,2020.2.5,Win32,60,m,1,,,,,,,,1.164445,1,,,,,,70,WORD,"ID",33,square,SQUARE,m,1.164445,,,,,,0.247222239,-0.200925993,0,0,0,,0,129,129,9,1,
,,,,,,,,,,,,,,,,,,5f863b1e4047781878fd5d21,2020-11-27_17h09.35.909,lexical_decision_task_MP_exp2,2020.2.5,Win32,60,z,1,,,,,,,,0.670875,1,,,,,,393,NW,"ID",16,ganous,GANOUS,z,0.670875,,,,,,0.247222239,-0.200925993,0,0,0,,0,130,130,332,1,
,,,,,,,,,,,,,,,,,,5f863b1e4047781878fd5d21,2020-11-27_17h09.35.909,lexical_decision_task_MP_exp2,2020.2.5,Win32,60,m,1,,,,,,,,0.79484,1,,,,,,12,WORD,UN,16,strive,ORANGE,m,0.79484,,,,,,0.247222239,-0.200925993,0,0,0,,0,131,131,191,1,
,,,,,,,,,,,,,,,,,,5f863b1e4047781878fd5d21,2020-11-27_17h09.35.909,lexical_decision_task_MP_exp2,2020.2.5,Win32,60,z,1,,,,,,,,0.95627,1,,,,,,251,NW,UN,16,stapod,LUPICT,z,0.95627,,,,,,0.247222239,-0.200925993,0,0,0,,0,132,132,430,1,
,,,,,,,,,,,,,,,,,,5f863b1e4047781878fd5d21,2020-11-27_17h09.35.909,lexical_decision_task_MP_exp2,2020.2.5,Win32,60,m,1,,,,,,,,0.814645,1,,,,,,5,WORD,UN,16,bundle,PLUNGE,m,0.814645,,,,,,0.247222239,-0.200925993,0,0,0,,0,133,133,184,1,
,,,,,,,,,,,,,,,,,,5f863b1e4047781878fd5d21,2020-11-27_17h09.35.909,lexical_decision_task_MP_exp2,2020.2.5,Win32,60,m,1,,,,,,,,0.76504,1,,,,,,168,WORD,"ID",16,answer,ANSWER,m,0.76504,,,,,,0.247222239,-0.200925993,0,0,0,,0,134,134,107,1,
,,,,,,,,,,,,,,,,,,5f863b1e4047781878fd5d21,2020-11-27_17h09.35.909,lexical_decision_task_MP_exp2,2020.2.5,Win32,60,z,1,,,,,,,,0.715335,1,,,,,,304,NW,"ID",33,cludie,CLUDIE,z,0.715335,,,,,,0.247222239,-0.200925993,0,0,0,,0,135,135,243,1,
,,,,,,,,,,,,,,,,,,5f863b1e4047781878fd5d21,2020-11-27_17h09.35.909,lexical_decision_task_MP_exp2,2020.2.5,Win32,60,z,1,,,,,,,,0.918745,1,,,,,,439,NW,UN,33,saride,LIMPOR,z,0.918745,,,,,,0.247222239,-0.200925993,0,0,0,,0,136,136,378,1,
,,,,,,,,,,,,,,,,,,5f863b1e4047781878fd5d21,2020-11-27_17h09.35.909,lexical_decision_task_MP_exp2,2020.2.5,Win32,60,m,1,,,,,,,,0.81076,1,,,,,,21,WORD,UN,16,jockey,SIMPLE,m,0.81076,,,,,,0.247222239,-0.200925993,0,0,0,,0,137,137,200,1,
,,,,,,,,,,,,,,,,,,5f863b1e4047781878fd5d21,2020-11-27_17h09.35.909,lexical_decision_task_MP_exp2,2020.2.5,Win32,60,m,1,,,,,,,,0.892875,1,,,,,,7,WORD,UN,16,abrupt,ANCHOR,m,0.892875,,,,,,0.247222239,-0.200925993,0,0,0,,0,138,138,186,1,
,,,,,,,,,,,,,,,,,,5f863b1e4047781878fd5d21,2020-11-27_17h09.35.909,lexical_decision_task_MP_exp2,2020.2.5,Win32,60,z,0,,,,,,,,0.735605,0,,,,,,90,WORD,"ID",33,relish,RELISH,m,0.735605,,,,,,0.247222239,-0.200925993,0,0,0,,0,139,139,29,1,
,,,,,,,,,,,,,,,,,,5f863b1e4047781878fd5d21,2020-11-27_17h09.35.909,lexical_decision_task_MP_exp2,2020.2.5,Win32,60,m,1,,,,,,,,0.785505,1,,,,,,1,WORD,UN,16,ethnic,FRIGHT,m,0.785505,,,,,,0.247222239,-0.200925993,0,0,0,,0,140,140,180,1,
,,,,,,,,,,,,,,,,,,5f863b1e4047781878fd5d21,2020-11-27_17h09.35.909,lexical_decision_task_MP_exp2,2020.2.5,Win32,60,z,1,,,,,,,,0.78305,1,,,,,,376,NW,"ID",16,iguare,IGUARE,z,0.78305,,,,,,0.247222239,-0.200925993,0,0,0,,0,141,141,315,1,
,,,,,,,,,,,,,,,,,,5f863b1e4047781878fd5d21,2020-11-27_17h09.35.909,lexical_decision_task_MP_exp2,2020.2.5,Win32,60,z,1,,,,,,,,0.863635,1,,,,,,262,NW,UN,16,dolica,QUILEW,z,0.863635,,,,,,0.247222239,-0.200925993,0,0,0,,0,142,142,441,1,
,,,,,,,,,,,,,,,,,,5f863b1e4047781878fd5d21,2020-11-27_17h09.35.909,lexical_decision_task_MP_exp2,2020.2.5,Win32,60,z,0,,,,,,,,0.79724,0,,,,,,184,WORD,UN,33,bother,SLEAZY,m,0.79724,,,,,,0.247222239,-0.200925993,0,0,0,,0,143,143,123,1,
,,,,,,,,,,,,,,,,,,5f863b1e4047781878fd5d21,2020-11-27_17h09.35.909,lexical_decision_task_MP_exp2,2020.2.5,Win32,60,m,1,,,,,,,,0.887195,1,,,,,,203,WORD,UN,33,burden,PHRASE,m,0.887195,,,,,,0.247222239,-0.200925993,0,0,0,,0,144,144,142,1,
,,,,,,,,,,,,,,,,,,5f863b1e4047781878fd5d21,2020-11-27_17h09.35.909,lexical_decision_task_MP_exp2,2020.2.5,Win32,60,z,1,,,,,,,,0.794655,1,,,,,,384,NW,"ID",16,guesco,GUESCO,z,0.794655,,,,,,0.247222239,-0.200925993,0,0,0,,0,145,145,323,1,
,,,,,,,,,,,,,,,,,,5f863b1e4047781878fd5d21,2020-11-27_17h09.35.909,lexical_decision_task_MP_exp2,2020.2.5,Win32,60,z,1,,,,,,,,0.75808,1,,,,,,349,NW,"ID",33,asylen,ASYLEN,z,0.75808,,,,,,0.247222239,-0.200925993,0,0,0,,0,146,146,288,1,
,,,,,,,,,,,,,,,,,,5f863b1e4047781878fd5d21,2020-11-27_17h09.35.909,lexical_decision_task_MP_exp2,2020.2.5,Win32,60,m,1,,,,,,,,0.59548,1,,,,,,94,WORD,"ID",33,travel,TRAVEL,m,0.59548,,,,,,0.247222239,-0.200925993,0,0,0,,0,147,147,33,1,
,,,,,,,,,,,,,,,,,,5f863b1e4047781878fd5d21,2020-11-27_17h09.35.909,lexical_decision_task_MP_exp2,2020.2.5,Win32,60,z,1,,,,,,,,0.95633,1,,,,,,316,NW,"ID",33,scregm,SCREGM,z,0.95633,,,,,,0.247222239,-0.200925993,0,0,0,,0,148,148,255,1,
,,,,,,,,,,,,,,,,,,5f863b1e4047781878fd5d21,2020-11-27_17h09.35.909,lexical_decision_task_MP_exp2,2020.2.5,Win32,60,z,1,,,,,,,,0.779935,1,,,,,,258,NW,UN,16,soudal,POLUTH,z,0.779935,,,,,,0.247222239,-0.200925993,0,0,0,,0,149,149,437,1,
,,,,,,,,,,,,,,,,,,5f863b1e4047781878fd5d21,2020-11-27_17h09.35.909,lexical_decision_task_MP_exp2,2020.2.5,Win32,60,m,1,,,,,,,,0.745555,1,,,,,,171,WORD,"ID",16,depart,DEPART,m,0.745555,,,,,,0.247222239,-0.200925993,0,0,0,,0,150,150,110,1,
,,,,,,,,,,,,,,,,,,5f863b1e4047781878fd5d21,2020-11-27_17h09.35.909,lexical_decision_task_MP_exp2,2020.2.5,Win32,60,m,0,,,,,,,,0.736015,0,,,,,,314,NW,"ID",33,sprine,SPRINE,z,0.736015,,,,,,0.247222239,-0.200925993,0,0,0,,0,151,151,253,1,
,,,,,,,,,,,,,,,,,,5f863b1e4047781878fd5d21,2020-11-27_17h09.35.909,lexical_decision_task_MP_exp2,2020.2.5,Win32,60,m,1,,,,,,,,0.827265,1,,,,,,132,WORD,"ID",16,strong,STRONG,m,0.827265,,,,,,0.247222239,-0.200925993,0,0,0,,0,152,152,71,1,
,,,,,,,,,,,,,,,,,,5f863b1e4047781878fd5d21,2020-11-27_17h09.35.909,lexical_decision_task_MP_exp2,2020.2.5,Win32,60,z,1,,,,,,,,0.71878,1,,,,,,381,NW,"ID",16,huniek,HUNIEK,z,0.71878,,,,,,0.247222239,-0.200925993,0,0,0,,0,153,153,320,1,
,,,,,,,,,,,,,,,,,,5f863b1e4047781878fd5d21,2020-11-27_17h09.35.909,lexical_decision_task_MP_exp2,2020.2.5,Win32,60,m,1,,,,,,,,0.803925,1,,,,,,38,WORD,UN,16,insect,POWDER,m,0.803925,,,,,,0.247222239,-0.200925993,0,0,0,,0,154,154,217,1,
,,,,,,,,,,,,,,,,,,5f863b1e4047781878fd5d21,2020-11-27_17h09.35.909,lexical_decision_task_MP_exp2,2020.2.5,Win32,60,z,1,,,,,,,,0.65412,1,,,,,,444,NW,UN,33,minkel,JAUNCE,z,0.65412,,,,,,0.247222239,-0.200925993,0,0,0,,0,155,155,383,1,
,,,,,,,,,,,,,,,,,,5f863b1e4047781878fd5d21,2020-11-27_17h09.35.909,lexical_decision_task_MP_exp2,2020.2.5,Win32,60,m,1,,,,,,,,0.73097,1,,,,,,123,WORD,"ID",16,strike,STRIKE,m,0.73097,,,,,,0.247222239,-0.200925993,0,0,0,,0,156,156,62,1,
,,,,,,,,,,,,,,,,,,5f863b1e4047781878fd5d21,2020-11-27_17h09.35.909,lexical_decision_task_MP_exp2,2020.2.5,Win32,60,z,1,,,,,,,,0.61313,1,,,,,,336,NW,"ID",33,ghodus,GHODUS,z,0.61313,,,,,,0.247222239,-0.200925993,0,0,0,,0,157,157,275,1,
,,,,,,,,,,,,,,,,,,5f863b1e4047781878fd5d21,2020-11-27_17h09.35.909,lexical_decision_task_MP_exp2,2020.2.5,Win32,60,m,1,,,,,,,,0.677785,1,,,,,,137,WORD,"ID",16,finger,FINGER,m,0.677785,,,,,,0.247222239,-0.200925993,0,0,0,,0,158,158,76,1,
,,,,,,,,,,,,,,,,,,5f863b1e4047781878fd5d21,2020-11-27_17h09.35.909,lexical_decision_task_MP_exp2,2020.2.5,Win32,60,z,1,,,,,,,,0.624125,1,,,,,,247,NW,UN,16,strole,BLARGE,z,0.624125,,,,,,0.247222239,-0.200925993,0,0,0,,0,159,159,426,1,
,,,,,,,,,,,,,,,,,,5f863b1e4047781878fd5d21,2020-11-27_17h09.35.909,lexical_decision_task_MP_exp2,2020.2.5,Win32,60,z,0,,,,,,,,0.865645,0,,,,,,77,WORD,"ID",33,racket,RACKET,m,0.865645,,,,,,0.247222239,-0.200925993,0,0,0,,0,160,160,16,1,
,,,,,,,,,,,,,,,,,,5f863b1e4047781878fd5d21,2020-11-27_17h09.35.909,lexical_decision_task_MP_exp2,2020.2.5,Win32,60,m,1,,,,,,,,1.06095,1,,,,,,99,WORD,"ID",33,fluent,FLUENT,m,1.06095,,,,,,0.247222239,-0.200925993,0,0,0,,0,161,161,38,1,
,,,,,,,,,,,,,,,,,,5f863b1e4047781878fd5d21,2020-11-27_17h09.35.909,lexical_decision_task_MP_exp2,2020.2.5,Win32,60,m,1,,,,,,,,0.646935,1,,,,,,80,WORD,"ID",33,family,FAMILY,m,0.646935,,,,,,0.247222239,-0.200925993,0,0,0,,0,162,162,19,1,
,,,,,,,,,,,,,,,,,,5f863b1e4047781878fd5d21,2020-11-27_17h09.35.909,lexical_decision_task_MP_exp2,2020.2.5,Win32,60,m,1,,,,,,,,0.71645,1,,,,,,162,WORD,"ID",16,candle,CANDLE,m,0.71645,,,,,,0.247222239,-0.200925993,0,0,0,,0,163,163,101,1,
,,,,,,,,,,,,,,,,,,5f863b1e4047781878fd5d21,2020-11-27_17h09.35.909,lexical_decision_task_MP_exp2,2020.2.5,Win32,60,z,1,,,,,,,,0.74594,1,,,,,,289,NW,UN,16,splino,STARBY,z,0.74594,,,,,,0.247222239,-0.200925993,0,0,0,,0,164,164,468,1,
,,,,,,,,,,,,,,,,,,5f863b1e4047781878fd5d21,2020-11-27_17h09.35.909,lexical_decision_task_MP_exp2,2020.2.5,Win32,60,z,1,,,,,,,,1.004705,1,,,,,,446,NW,UN,33,gircue,RUNAMO,z,1.004705,,,,,,0.247222239,-0.200925993,0,0,0,,0,165,165,385,1,
,,,,,,,,,,,,,,,,,,5f863b1e4047781878fd5d21,2020-11-27_17h09.35.909,lexical_decision_task_MP_exp2,2020.2.5,Win32,60,m,0,,,,,,,,0.996955,0,,,,,,295,NW,UN,16,beinch,GLEATH,z,0.996955,,,,,,0.247222239,-0.200925993,0,0,0,,0,166,166,474,1,
,,,,,,,,,,,,,,,,,,5f863b1e4047781878fd5d21,2020-11-27_17h09.35.909,lexical_decision_task_MP_exp2,2020.2.5,Win32,60,m,1,,,,,,,,0.827655,1,,,,,,42,WORD,UN,16,tongue,CHAPEL,m,0.827655,,,,,,0.247222239,-0.200925993,0,0,0,,0,167,167,221,1,
,,,,,,,,,,,,,,,,,,5f863b1e4047781878fd5d21,2020-11-27_17h09.35.909,lexical_decision_task_MP_exp2,2020.2.5,Win32,60,z,1,,,,,,,,0.74842,1,,,,,,366,NW,"ID",16,toshel,TOSHEL,z,0.74842,,,,,,0.247222239,-0.200925993,0,0,0,,0,168,168,305,1,
,,,,,,,,,,,,,,,,,,5f863b1e4047781878fd5d21,2020-11-27_17h09.35.909,lexical_decision_task_MP_exp2,2020.2.5,Win32,60,z,1,,,,,,,,0.63263,1,,,,,,469,NW,UN,33,crudio,PADIFS,z,0.63263,,,,,,0.247222239,-0.200925993,0,0,0,,0,169,169,408,1,
,,,,,,,,,,,,,,,,,,5f863b1e4047781878fd5d21,2020-11-27_17h09.35.909,lexical_decision_task_MP_exp2,2020.2.5,Win32,60,z,1,,,,,,,,0.756865,1,,,,,,272,NW,UN,16,sortel,DAMILT,z,0.756865,,,,,,0.247222239,-0.200925993,0,0,0,,0,170,170,451,1,
,,,,,,,,,,,,,,,,,,5f863b1e4047781878fd5d21,2020-11-27_17h09.35.909,lexical_decision_task_MP_exp2,2020.2.5,Win32,60,m,1,,,,,,,,1.210215,1,,,,,,76,WORD,"ID",33,exotic,EXOTIC,m,1.210215,,,,,,0.247222239,-0.200925993,0,0,0,,0,171,171,15,1,
,,,,,,,,,,,,,,,,,,5f863b1e4047781878fd5d21,2020-11-27_17h09.35.909,lexical_decision_task_MP_exp2,2020.2.5,Win32,60,z,1,,,,,,,,0.69806,1,,,,,,279,NW,UN,16,curbol,CELOND,z,0.69806,,,,,,0.247222239,-0.200925993,0,0,0,,0,172,172,458,1,
,,,,,,,,,,,,,,,,,,5f863b1e4047781878fd5d21,2020-11-27_17h09.35.909,lexical_decision_task_MP_exp2,2020.2.5,Win32,60,z,0,,,,,,,,0.83198,0,,,,,,145,WORD,"ID",16,parish,PARISH,m,0.83198,,,,,,0.247222239,-0.200925993,0,0,0,,0,173,173,84,1,
,,,,,,,,,,,,,,,,,,5f863b1e4047781878fd5d21,2020-11-27_17h09.35.909,lexical_decision_task_MP_exp2,2020.2.5,Win32,60,z,1,,,,,,,,0.96431,1,,,,,,308,NW,"ID",33,psetch,PSETCH,z,0.96431,,,,,,0.247222239,-0.200925993,0,0,0,,0,174,174,247,1,
,,,,,,,,,,,,,,,,,,5f863b1e4047781878fd5d21,2020-11-27_17h09.35.909,lexical_decision_task_MP_exp2,2020.2.5,Win32,60,m,1,,,,,,,,0.95073,1,,,,,,39,WORD,UN,16,convey,INSECT,m,0.95073,,,,,,0.247222239,-0.200925993,0,0,0,,0,175,175,218,1,
,,,,,,,,,,,,,,,,,,5f863b1e4047781878fd5d21,2020-11-27_17h09.35.909,lexical_decision_task_MP_exp2,2020.2.5,Win32,60,z,1,,,,,,,,0.761885,1,,,,,,264,NW,UN,16,distar,VACKEL,z,0.761885,,,,,,0.247222239,-0.200925993,0,0,0,,0,176,176,443,1,
,,,,,,,,,,,,,,,,,,5f863b1e4047781878fd5d21,2020-11-27_17h09.35.909,lexical_decision_task_MP_exp2,2020.2.5,Win32,60,z,1,,,,,,,,0.910575,1,,,,,,286,NW,UN,16,nymbel,RELDON,z,0.910575,,,,,,0.247222239,-0.200925993,0,0,0,,0,177,177,465,1,
,,,,,,,,,,,,,,,,,,5f863b1e4047781878fd5d21,2020-11-27_17h09.35.909,lexical_decision_task_MP_exp2,2020.2.5,Win32,60,m,1,,,,,,,,0.769605,1,,,,,,109,WORD,"ID",33,wonder,WONDER,m,0.769605,,,,,,0.247222239,-0.200925993,0,0,0,,0,178,178,48,1,
,,,,,,,,,,,,,,,,,,5f863b1e4047781878fd5d21,2020-11-27_17h09.35.909,lexical_decision_task_MP_exp2,2020.2.5,Win32,60,m,1,,,,,,,,0.715725,1,,,,,,119,WORD,"ID",33,spider,SPIDER,m,0.715725,,,,,,0.247222239,-0.200925993,0,0,0,,0,179,179,58,1,
,,,,,,,,,,,,,,,,,,5f863b1e4047781878fd5d21,2020-11-27_17h09.35.909,lexical_decision_task_MP_exp2,2020.2.5,Win32,60,m,1,,,,,,,,0.719135,1,,,,,,222,WORD,UN,33,export,HINDER,m,0.719135,,,,,,0.247222239,-0.200925993,0,0,0,,0,180,180,161,1,
,,,,,,,,,,,,,,,,,,5f863b1e4047781878fd5d21,2020-11-27_17h09.35.909,lexical_decision_task_MP_exp2,2020.2.5,Win32,60,m,1,,,,,,,,0.70337,1,,,,,,72,WORD,"ID",33,bright,BRIGHT,m,0.70337,,,,,,0.247222239,-0.200925993,0,0,0,,0,181,181,11,1,
,,,,,,,,,,,,,,,,,,5f863b1e4047781878fd5d21,2020-11-27_17h09.35.909,lexical_decision_task_MP_exp2,2020.2.5,Win32,60,m,1,,,,,,,,0.75019,1,,,,,,55,WORD,UN,16,ambush,STROKE,m,0.75019,,,,,,0.247222239,-0.200925993,0,0,0,,0,182,182,234,1,
,,,,,,,,,,,,,,,,,,5f863b1e4047781878fd5d21,2020-11-27_17h09.35.909,lexical_decision_task_MP_exp2,2020.2.5,Win32,60,m,1,,,,,,,,0.930355,1,,,,,,240,WORD,UN,33,seldom,FOREST,m,0.930355,,,,,,0.247222239,-0.200925993,0,0,0,,0,183,183,179,1,
,,,,,,,,,,,,,,,,,,5f863b1e4047781878fd5d21,2020-11-27_17h09.35.909,lexical_decision_task_MP_exp2,2020.2.5,Win32,60,z,1,,,,,,,,1.03095,1,,,,,,245,NW,UN,16,piaton,ANOUGS,z,1.03095,,,,,,0.247222239,-0.200925993,0,0,0,,0,184,184,424,1,
,,,,,,,,,,,,,,,,,,5f863b1e4047781878fd5d21,2020-11-27_17h09.35.909,lexical_decision_task_MP_exp2,2020.2.5,Win32,60,m,1,,,,,,,,0.878715,1,,,,,,220,WORD,UN,33,mascot,VOYAGE,m,0.878715,,,,,,0.247222239,-0.200925993,0,0,0,,0,185,185,159,1,
,,,,,,,,,,,,,,,,,,5f863b1e4047781878fd5d21,2020-11-27_17h09.35.909,lexical_decision_task_MP_exp2,2020.2.5,Win32,60,m,0,,,,,,,,1.36042,0,,,,,,396,NW,"ID",16,flengy,FLENGY,z,1.36042,,,,,,0.247222239,-0.200925993,0,0,0,,0,186,186,335,1,
,,,,,,,,,,,,,,,,,,5f863b1e4047781878fd5d21,2020-11-27_17h09.35.909,lexical_decision_task_MP_exp2,2020.2.5,Win32,60,m,1,,,,,,,,0.92294,1,,,,,,128,WORD,"ID",16,senior,SENIOR,m,0.92294,,,,,,0.247222239,-0.200925993,0,0,0,,0,187,187,67,1,
,,,,,,,,,,,,,,,,,,5f863b1e4047781878fd5d21,2020-11-27_17h09.35.909,lexical_decision_task_MP_exp2,2020.2.5,Win32,60,z,1,,,,,,,,0.894245,1,,,,,,356,NW,"ID",33,othnis,OTHNIS,z,0.894245,,,,,,0.247222239,-0.200925993,0,0,0,,0,188,188,295,1,
,,,,,,,,,,,,,,,,,,5f863b1e4047781878fd5d21,2020-11-27_17h09.35.909,lexical_decision_task_MP_exp2,2020.2.5,Win32,60,z,1,,,,,,,,1.020635,1,,,,,,364,NW,"ID",16,impote,IMPOTE,z,1.020635,,,,,,0.247222239,-0.200925993,0,0,0,,0,189,189,303,1,
,,,,,,,,,,,,,,,,,,5f863b1e4047781878fd5d21,2020-11-27_17h09.35.909,lexical_decision_task_MP_exp2,2020.2.5,Win32,60,z,1,,,,,,,,0.90707,1,,,,,,328,NW,"ID",33,broake,BROAKE,z,0.90707,,,,,,0.247222239,-0.200925993,0,0,0,,0,190,190,267,1,
,,,,,,,,,,,,,,,,,,5f863b1e4047781878fd5d21,2020-11-27_17h09.35.909,lexical_decision_task_MP_exp2,2020.2.5,Win32,60,z,1,,,,,,,,1.014185,1,,,,,,464,NW,UN,33,whivex,CHAITE,z,1.014185,,,,,,0.247222239,-0.200925993,0,0,0,,0,191,191,403,1,
,,,,,,,,,,,,,,,,,,5f863b1e4047781878fd5d21,2020-11-27_17h09.35.909,lexical_decision_task_MP_exp2,2020.2.5,Win32,60,m,1,,,,,,,,0.653045,1,,,,,,175,WORD,"ID",16,fabric,FABRIC,m,0.653045,,,,,,0.247222239,-0.200925993,0,0,0,,0,192,192,114,1,
,,,,,,,,,,,,,,,,,,5f863b1e4047781878fd5d21,2020-11-27_17h09.35.909,lexical_decision_task_MP_exp2,2020.2.5,Win32,60,z,1,,,,,,,,0.71936,1,,,,,,406,NW,"ID",16,nouply,NOUPLY,z,0.71936,,,,,,0.247222239,-0.200925993,0,0,0,,0,193,193,345,1,
,,,,,,,,,,,,,,,,,,5f863b1e4047781878fd5d21,2020-11-27_17h09.35.909,lexical_decision_task_MP_exp2,2020.2.5,Win32,60,z,1,,,,,,,,0.77487,1,,,,,,341,NW,"ID",33,myrtie,MYRTIE,z,0.77487,,,,,,0.247222239,-0.200925993,0,0,0,,0,194,194,280,1,
,,,,,,,,,,,,,,,,,,5f863b1e4047781878fd5d21,2020-11-27_17h09.35.909,lexical_decision_task_MP_exp2,2020.2.5,Win32,60,m,1,,,,,,,,0.78566,1,,,,,,224,WORD,UN,33,vulgar,PERIOD,m,0.78566,,,,,,0.247222239,-0.200925993,0,0,0,,0,195,195,163,1,
,,,,,,,,,,,,,,,,,,5f863b1e4047781878fd5d21,2020-11-27_17h09.35.909,lexical_decision_task_MP_exp2,2020.2.5,Win32,60,z,1,,,,,,,,0.787285,1,,,,,,456,NW,UN,33,wanigh,BROGET,z,0.787285,,,,,,0.247222239,-0.200925993,0,0,0,,0,196,196,395,1,
,,,,,,,,,,,,,,,,,,5f863b1e4047781878fd5d21,2020-11-27_17h09.35.909,lexical_decision_task_MP_exp2,2020.2.5,Win32,60,z,1,,,,,,,,0.87893,1,,,,,,335,NW,"ID",33,desion,DESION,z,0.87893,,,,,,0.247222239,-0.200925993,0,0,0,,0,197,197,274,1,
,,,,,,,,,,,,,,,,,,5f863b1e4047781878fd5d21,2020-11-27_17h09.35.909,lexical_decision_task_MP_exp2,2020.2.5,Win32,60,,0,,,,,,,,0.87893,-1,,,,,,200,WORD,UN,33,admire,BEACON,m,,,,,,,0.247222239,-0.200925993,0,0,0,,0,198,198,139,1,
,,,,,,,,,,,,,,,,,,5f863b1e4047781878fd5d21,2020-11-27_17h09.35.909,lexical_decision_task_MP_exp2,2020.2.5,Win32,60,z,1,,,,,,,,0.68256,1,,,,,,353,NW,"ID",33,clurey,CLUREY,z,0.68256,,,,,,0.247222239,-0.200925993,0,0,0,,0,199,199,292,1,
,,,,,,,,,,,,,,,,,,5f863b1e4047781878fd5d21,2020-11-27_17h09.35.909,lexical_decision_task_MP_exp2,2020.2.5,Win32,60,m,1,,,,,,,,0.762895,1,,,,,,155,WORD,"ID",16,lizard,LIZARD,m,0.762895,,,,,,0.247222239,-0.200925993,0,0,0,,0,200,200,94,1,
,,,,,,,,,,,,,,,,,,5f863b1e4047781878fd5d21,2020-11-27_17h09.35.909,lexical_decision_task_MP_exp2,2020.2.5,Win32,60,z,1,,,,,,,,0.668685,1,,,,,,391,NW,"ID",16,theldy,THELDY,z,0.668685,,,,,,0.247222239,-0.200925993,0,0,0,,0,201,201,330,1,
,,,,,,,,,,,,,,,,,,5f863b1e4047781878fd5d21,2020-11-27_17h09.35.909,lexical_decision_task_MP_exp2,2020.2.5,Win32,60,m,1,,,,,,,,0.666965,1,,,,,,41,WORD,UN,16,chapel,SPRING,m,0.666965,,,,,,0.247222239,-0.200925993,0,0,0,,0,202,202,220,1,
,,,,,,,,,,,,,,,,,,5f863b1e4047781878fd5d21,2020-11-27_17h09.35.909,lexical_decision_task_MP_exp2,2020.2.5,Win32,60,m,1,,,,,,,,0.789275,1,,,,,,199,WORD,UN,33,plague,INVOKE,m,0.789275,,,,,,0.247222239,-0.200925993,0,0,0,,0,203,203,138,1,
,,,,,,,,,,,,,,,,,,5f863b1e4047781878fd5d21,2020-11-27_17h09.35.909,lexical_decision_task_MP_exp2,2020.2.5,Win32,60,z,1,,,,,,,,0.784165,1,,,,,,307,NW,"ID",33,kirafe,KIRAFE,z,0.784165,,,,,,0.247222239,-0.200925993,0,0,0,,0,204,204,246,1,
,,,,,,,,,,,,,,,,,,5f863b1e4047781878fd5d21,2020-11-27_17h09.35.909,lexical_decision_task_MP_exp2,2020.2.5,Win32,60,m,1,,,,,,,,0.779465,1,,,,,,190,WORD,UN,33,stable,BACKUP,m,0.779465,,,,,,0.247222239,-0.200925993,0,0,0,,0,205,205,129,1,
,,,,,,,,,,,,,,,,,,5f863b1e4047781878fd5d21,2020-11-27_17h09.35.909,lexical_decision_task_MP_exp2,2020.2.5,Win32,60,m,1,,,,,,,,0.85603,1,,,,,,85,WORD,"ID",33,sprawl,SPRAWL,m,0.85603,,,,,,0.247222239,-0.200925993,0,0,0,,0,206,206,24,1,
,,,,,,,,,,,,,,,,,,5f863b1e4047781878fd5d21,2020-11-27_17h09.35.909,lexical_decision_task_MP_exp2,2020.2.5,Win32,60,m,1,,,,,,,,0.696875,1,,,,,,120,WORD,"ID",33,strain,STRAIN,m,0.696875,,,,,,0.247222239,-0.200925993,0,0,0,,0,207,207,59,1,
,,,,,,,,,,,,,,,,,,5f863b1e4047781878fd5d21,2020-11-27_17h09.35.909,lexical_decision_task_MP_exp2,2020.2.5,Win32,60,m,1,,,,,,,,0.73849,1,,,,,,52,WORD,UN,16,police,IMPOSE,m,0.73849,,,,,,0.247222239,-0.200925993,0,0,0,,0,208,208,231,1,
,,,,,,,,,,,,,,,,,,5f863b1e4047781878fd5d21,2020-11-27_17h09.35.909,lexical_decision_task_MP_exp2,2020.2.5,Win32,60,z,1,,,,,,,,0.739535,1,,,,,,359,NW,"ID",33,fonver,FONVER,z,0.739535,,,,,,0.247222239,-0.200925993,0,0,0,,0,209,209,298,1,
,,,,,,,,,,,,,,,,,,5f863b1e4047781878fd5d21,2020-11-27_17h09.35.909,lexical_decision_task_MP_exp2,2020.2.5,Win32,60,z,1,,,,,,,,0.75739,1,,,,,,343,NW,"ID",33,aimosy,AIMOSY,z,0.75739,,,,,,0.247222239,-0.200925993,0,0,0,,0,210,210,282,1,
,,,,,,,,,,,,,,,,,,5f863b1e4047781878fd5d21,2020-11-27_17h09.35.909,lexical_decision_task_MP_exp2,2020.2.5,Win32,60,z,1,,,,,,,,0.60674,1,,,,,,442,NW,UN,33,dorsex,ABOUNE,z,0.60674,,,,,,0.247222239,-0.200925993,0,0,0,,0,211,211,381,1,
,,,,,,,,,,,,,,,,,,5f863b1e4047781878fd5d21,2020-11-27_17h09.35.909,lexical_decision_task_MP_exp2,2020.2.5,Win32,60,z,1,,,,,,,,0.988545,1,,,,,,413,NW,"ID",16,equats,EQUATS,z,0.988545,,,,,,0.247222239,-0.200925993,0,0,0,,0,212,212,352,1,
,,,,,,,,,,,,,,,,,,5f863b1e4047781878fd5d21,2020-11-27_17h09.35.909,lexical_decision_task_MP_exp2,2020.2.5,Win32,60,m,1,,,,,,,,0.60588,1,,,,,,66,WORD,"ID",33,gospel,GOSPEL,m,0.60588,,,,,,0.247222239,-0.200925993,0,0,0,,0,213,213,5,1,
,,,,,,,,,,,,,,,,,,5f863b1e4047781878fd5d21,2020-11-27_17h09.35.909,lexical_decision_task_MP_exp2,2020.2.5,Win32,60,m,1,,,,,,,,0.78135,1,,,,,,11,WORD,UN,16,amount,CRUISE,m,0.78135,,,,,,0.247222239,-0.200925993,0,0,0,,0,214,214,190,1,
,,,,,,,,,,,,,,,,,,5f863b1e4047781878fd5d21,2020-11-27_17h09.35.909,lexical_decision_task_MP_exp2,2020.2.5,Win32,60,m,1,,,,,,,,0.73109,1,,,,,,40,WORD,UN,16,spring,CONVEY,m,0.73109,,,,,,0.247222239,-0.200925993,0,0,0,,0,215,215,219,1,
,,,,,,,,,,,,,,,,,,5f863b1e4047781878fd5d21,2020-11-27_17h09.35.909,lexical_decision_task_MP_exp2,2020.2.5,Win32,60,z,1,,,,,,,,0.73675,1,,,,,,450,NW,UN,33,cainky,PHRECT,z,0.73675,,,,,,0.247222239,-0.200925993,0,0,0,,0,216,216,389,1,
,,,,,,,,,,,,,,,,,,5f863b1e4047781878fd5d21,2020-11-27_17h09.35.909,lexical_decision_task_MP_exp2,2020.2.5,Win32,60,z,1,,,,,,,,0.764015,1,,,,,,412,NW,"ID",16,jiluer,JILUER,z,0.764015,,,,,,0.247222239,-0.200925993,0,0,0,,0,217,217,351,1,
,,,,,,,,,,,,,,,,,,5f863b1e4047781878fd5d21,2020-11-27_17h09.35.909,lexical_decision_task_MP_exp2,2020.2.5,Win32,60,z,1,,,,,,,,0.65373,1,,,,,,441,NW,UN,33,aboune,RASTOE,z,0.65373,,,,,,0.247222239,-0.200925993,0,0,0,,0,218,218,380,1,
,,,,,,,,,,,,,,,,,,5f863b1e4047781878fd5d21,2020-11-27_17h09.35.909,lexical_decision_task_MP_exp2,2020.2.5,Win32,60,m,1,,,,,,,,0.73398,1,,,,,,169,WORD,"ID",16,genius,GENIUS,m,0.73398,,,,,,0.247222239,-0.200925993,0,0,0,,0,219,219,108,1,
,,,,,,,,,,,,,,,,,,5f863b1e4047781878fd5d21,2020-11-27_17h09.35.909,lexical_decision_task_MP_exp2,2020.2.5,Win32,60,z,1,,,,,,,,0.76173,1,,,,,,405,NW,"ID",16,flumni,FLUMNI,z,0.76173,,,,,,0.247222239,-0.200925993,0,0,0,,0,220,220,344,1,
,,,,,,,,,,,,,,,,,,5f863b1e4047781878fd5d21,2020-11-27_17h09.35.909,lexical_decision_task_MP_exp2,2020.2.5,Win32,60,z,1,,,,,,,,0.94672,1,,,,,,458,NW,UN,33,hocite,BARCET,z,0.94672,,,,,,0.247222239,-0.200925993,0,0,0,,0,221,221,397,1,
,,,,,,,,,,,,,,,,,,5f863b1e4047781878fd5d21,2020-11-27_17h09.35.909,lexical_decision_task_MP_exp2,2020.2.5,Win32,60,z,1,,,,,,,,0.850255,1,,,,,,360,NW,"ID",33,desory,DESORY,z,0.850255,,,,,,0.247222239,-0.200925993,0,0,0,,0,222,222,299,1,
,,,,,,,,,,,,,,,,,,5f863b1e4047781878fd5d21,2020-11-27_17h09.35.909,lexical_decision_task_MP_exp2,2020.2.5,Win32,60,z,1,,,,,,,,0.969815,1,,,,,,397,NW,"ID",16,camble,CAMBLE,z,0.969815,,,,,,0.247222239,-0.200925993,0,0,0,,0,223,223,336,1,
,,,,,,,,,,,,,,,,,,5f863b1e4047781878fd5d21,2020-11-27_17h09.35.909,lexical_decision_task_MP_exp2,2020.2.5,Win32,60,m,1,,,,,,,,0.663015,1,,,,,,49,WORD,UN,16,snatch,SURVEY,m,0.663015,,,,,,0.247222239,-0.200925993,0,0,0,,0,224,224,228,1,
,,,,,,,,,,,,,,,,,,5f863b1e4047781878fd5d21,2020-11-27_17h09.35.909,lexical_decision_task_MP_exp2,2020.2.5,Win32,60,z,0,,,,,,,,0.683545,0,,,,,,221,WORD,UN,33,hinder,MASCOT,m,0.683545,,,,,,0.247222239,-0.200925993,0,0,0,,0,225,225,160,1,
,,,,,,,,,,,,,,,,,,5f863b1e4047781878fd5d21,2020-11-27_17h09.35.909,lexical_decision_task_MP_exp2,2020.2.5,Win32,60,z,1,,,,,,,,0.784435,1,,,,,,447,NW,UN,33,sadent,GIRCUE,z,0.784435,,,,,,0.247222239,-0.200925993,0,0,0,,0,226,226,386,1,
,,,,,,,,,,,,,,,,,,5f863b1e4047781878fd5d21,2020-11-27_17h09.35.909,lexical_decision_task_MP_exp2,2020.2.5,Win32,60,z,1,,,,,,,,1.096705,1,,,,,,270,NW,UN,16,aubrid,WRIMSY,z,1.096705,,,,,,0.247222239,-0.200925993,0,0,0,,0,227,227,449,1,
,,,,,,,,,,,,,,,,,,5f863b1e4047781878fd5d21,2020-11-27_17h09.35.909,lexical_decision_task_MP_exp2,2020.2.5,Win32,60,m,1,,,,,,,,0.704185,1,,,,,,97,WORD,"ID",33,client,CLIENT,m,0.704185,,,,,,0.247222239,-0.200925993,0,0,0,,0,228,228,36,1,
,,,,,,,,,,,,,,,,,,5f863b1e4047781878fd5d21,2020-11-27_17h09.35.909,lexical_decision_task_MP_exp2,2020.2.5,Win32,60,z,1,,,,,,,,0.864945,1,,,,,,445,NW,UN,33,runamo,MINKEL,z,0.864945,,,,,,0.247222239,-0.200925993,0,0,0,,0,229,229,384,1,
,,,,,,,,,,,,,,,,,,5f863b1e4047781878fd5d21,2020-11-27_17h09.35.909,lexical_decision_task_MP_exp2,2020.2.5,Win32,60,z,1,,,,,,,,0.894115,1,,,,,,431,NW,UN,33,lunker,CHRUMS,z,0.894115,,,,,,0.247222239,-0.200925993,0,0,0,,0,230,230,370,1,
,,,,,,,,,,,,,,,,,,5f863b1e4047781878fd5d21,2020-11-27_17h09.35.909,lexical_decision_task_MP_exp2,2020.2.5,Win32,60,m,1,,,,,,,,0.63882,1,,,,,,98,WORD,"ID",33,belong,BELONG,m,0.63882,,,,,,0.247222239,-0.200925993,0,0,0,,0,231,231,37,1,
,,,,,,,,,,,,,,,,,,5f863b1e4047781878fd5d21,2020-11-27_17h09.35.909,lexical_decision_task_MP_exp2,2020.2.5,Win32,60,z,1,,,,,,,,0.69595,1,,,,,,427,NW,UN,33,tandly,SCHIND,z,0.69595,,,,,,0.247222239,-0.200925993,0,0,0,,0,232,232,366,1,
,,,,,,,,,,,,,,,,,,5f863b1e4047781878fd5d21,2020-11-27_17h09.35.909,lexical_decision_task_MP_exp2,2020.2.5,Win32,60,z,1,,,,,,,,0.818405,1,,,,,,293,NW,UN,16,inhort,SWANCE,z,0.818405,,,,,,0.247222239,-0.200925993,0,0,0,,0,233,233,472,1,
,,,,,,,,,,,,,,,,,,5f863b1e4047781878fd5d21,2020-11-27_17h09.35.909,lexical_decision_task_MP_exp2,2020.2.5,Win32,60,m,1,,,,,,,,0.54545,1,,,,,,28,WORD,UN,16,sketch,COMEDY,m,0.54545,,,,,,0.247222239,-0.200925993,0,0,0,,0,234,234,207,1,
,,,,,,,,,,,,,,,,,,5f863b1e4047781878fd5d21,2020-11-27_17h09.35.909,lexical_decision_task_MP_exp2,2020.2.5,Win32,60,z,1,,,,,,,,0.835465,1,,,,,,321,NW,"ID",33,miator,MIATOR,z,0.835465,,,,,,0.247222239,-0.200925993,0,0,0,,0,235,235,260,1,
,,,,,,,,,,,,,,,,,,5f863b1e4047781878fd5d21,2020-11-27_17h09.35.909,lexical_decision_task_MP_exp2,2020.2.5,Win32,60,m,0,,,,,,,,0.9329,0,,,,,,380,NW,"ID",16,cavory,CAVORY,z,0.9329,,,,,,0.247222239,-0.200925993,0,0,0,,0,236,236,319,1,
,,,,,,,,,,,,,,,,,,5f863b1e4047781878fd5d21,2020-11-27_17h09.35.909,lexical_decision_task_MP_exp2,2020.2.5,Win32,60,m,1,,,,,,,,0.918285,1,,,,,,13,WORD,UN,16,almost,STRIVE,m,0.918285,,,,,,0.247222239,-0.200925993,0,0,0,,0,237,237,192,1,
,,,,,,,,,,,,,,,,,,5f863b1e4047781878fd5d21,2020-11-27_17h09.35.909,lexical_decision_task_MP_exp2,2020.2.5,Win32,60,z,1,,,,,,,,0.717845,1,,,,,,433,NW,UN,33,pitrom,DRANCE,z,0.717845,,,,,,0.247222239,-0.200925993,0,0,0,,0,238,238,372,1,
,,,,,,,,,,,,,,,,,,5f863b1e4047781878fd5d21,2020-11-27_17h09.35.909,lexical_decision_task_MP_exp2,2020.2.5,Win32,60,z,1,,,,,,,,0.953145,1,,,,,,248,NW,UN,16,batrol,STROLE,z,0.953145,,,,,,0.247222239,-0.200925993,0,0,0,,0,239,239,427,1,
,,,,,,,,,,,,,,,,,,5f863b1e4047781878fd5d21,2020-11-27_17h09.35.909,lexical_decision_task_MP_exp2,2020.2.5,Win32,60,z,1,,,,,,,,0.826675,1,,,,,,290,NW,UN,16,pretch,SPLINO,z,0.826675,,,,,,0.247222239,-0.200925993,0,0,0,,0,240,240,469,1,
,,,,,,,,,,,,,,,,,,5f863b1e4047781878fd5d21,2020-11-27_17h09.35.909,lexical_decision_task_MP_exp2,2020.2.5,Win32,60,m,1,,,,,,,,0.737395,1,,,,,,235,WORD,UN,33,pirate,GRUMPY,m,0.737395,,,,,,0.247222239,-0.200925993,0,0,0,space,0,241,241,174,1,104.74568
,,,,,,,,,,,,,,,,,,5f863b1e4047781878fd5d21,2020-11-27_17h09.35.909,lexical_decision_task_MP_exp2,2020.2.5,Win32,60,m,0,,,,,,,,0.601965,0,,,,,,377,NW,"ID",16,injore,INJORE,z,0.601965,,,,,,0.247222239,-0.200925993,0,0,0,,0,242,242,316,1,
,,,,,,,,,,,,,,,,,,5f863b1e4047781878fd5d21,2020-11-27_17h09.35.909,lexical_decision_task_MP_exp2,2020.2.5,Win32,60,z,1,,,,,,,,0.632085,1,,,,,,300,NW,UN,16,smenco,YARION,z,0.632085,,,,,,0.247222239,-0.200925993,0,0,0,,0,243,243,479,1,
,,,,,,,,,,,,,,,,,,5f863b1e4047781878fd5d21,2020-11-27_17h09.35.909,lexical_decision_task_MP_exp2,2020.2.5,Win32,60,m,0,,,,,,,,1.06547,0,,,,,,429,NW,UN,33,caroey,FUNTLE,z,1.06547,,,,,,0.247222239,-0.200925993,0,0,0,,0,244,244,368,1,
,,,,,,,,,,,,,,,,,,5f863b1e4047781878fd5d21,2020-11-27_17h09.35.909,lexical_decision_task_MP_exp2,2020.2.5,Win32,60,m,1,,,,,,,,0.65359,1,,,,,,138,WORD,"ID",16,melody,MELODY,m,0.65359,,,,,,0.247222239,-0.200925993,0,0,0,,0,245,245,77,1,
,,,,,,,,,,,,,,,,,,5f863b1e4047781878fd5d21,2020-11-27_17h09.35.909,lexical_decision_task_MP_exp2,2020.2.5,Win32,60,z,1,,,,,,,,1.011605,1,,,,,,443,NW,UN,33,jaunce,DORSEX,z,1.011605,,,,,,0.247222239,-0.200925993,0,0,0,,0,246,246,382,1,
,,,,,,,,,,,,,,,,,,5f863b1e4047781878fd5d21,2020-11-27_17h09.35.909,lexical_decision_task_MP_exp2,2020.2.5,Win32,60,m,0,,,,,,,,0.794745,0,,,,,,263,NW,UN,16,vackel,DOLICA,z,0.794745,,,,,,0.247222239,-0.200925993,0,0,0,,0,247,247,442,1,
,,,,,,,,,,,,,,,,,,5f863b1e4047781878fd5d21,2020-11-27_17h09.35.909,lexical_decision_task_MP_exp2,2020.2.5,Win32,60,z,1,,,,,,,,0.712765,1,,,,,,411,NW,"ID",16,orchin,ORCHIN,z,0.712765,,,,,,0.247222239,-0.200925993,0,0,0,,0,248,248,350,1,
,,,,,,,,,,,,,,,,,,5f863b1e4047781878fd5d21,2020-11-27_17h09.35.909,lexical_decision_task_MP_exp2,2020.2.5,Win32,60,z,1,,,,,,,,0.69605,1,,,,,,466,NW,UN,33,robuly,HOCITE,z,0.69605,,,,,,0.247222239,-0.200925993,0,0,0,,0,249,249,405,1,
,,,,,,,,,,,,,,,,,,5f863b1e4047781878fd5d21,2020-11-27_17h09.35.909,lexical_decision_task_MP_exp2,2020.2.5,Win32,60,m,1,,,,,,,,0.66624,1,,,,,,129,WORD,"ID",16,marvel,MARVEL,m,0.66624,,,,,,0.247222239,-0.200925993,0,0,0,,0,250,250,68,1,
,,,,,,,,,,,,,,,,,,5f863b1e4047781878fd5d21,2020-11-27_17h09.35.909,lexical_decision_task_MP_exp2,2020.2.5,Win32,60,z,1,,,,,,,,0.99496,1,,,,,,301,NW,"ID",33,fainch,FAINCH,z,0.99496,,,,,,0.247222239,-0.200925993,0,0,0,,0,251,251,240,1,
,,,,,,,,,,,,,,,,,,5f863b1e4047781878fd5d21,2020-11-27_17h09.35.909,lexical_decision_task_MP_exp2,2020.2.5,Win32,60,m,1,,,,,,,,0.68338,1,,,,,,124,WORD,"ID",16,blouse,BLOUSE,m,0.68338,,,,,,0.247222239,-0.200925993,0,0,0,,0,252,252,63,1,
,,,,,,,,,,,,,,,,,,5f863b1e4047781878fd5d21,2020-11-27_17h09.35.909,lexical_decision_task_MP_exp2,2020.2.5,Win32,60,m,1,,,,,,,,0.703855,1,,,,,,122,WORD,"ID",16,linger,LINGER,m,0.703855,,,,,,0.247222239,-0.200925993,0,0,0,,0,253,253,61,1,
,,,,,,,,,,,,,,,,,,5f863b1e4047781878fd5d21,2020-11-27_17h09.35.909,lexical_decision_task_MP_exp2,2020.2.5,Win32,60,m,1,,,,,,,,0.639435,1,,,,,,19,WORD,UN,16,breast,PATRON,m,0.639435,,,,,,0.247222239,-0.200925993,0,0,0,,0,254,254,198,1,
,,,,,,,,,,,,,,,,,,5f863b1e4047781878fd5d21,2020-11-27_17h09.35.909,lexical_decision_task_MP_exp2,2020.2.5,Win32,60,m,0,,,,,,,,0.835795,0,,,,,,403,NW,"ID",16,bruats,BRUATS,z,0.835795,,,,,,0.247222239,-0.200925993,0,0,0,,0,255,255,342,1,
,,,,,,,,,,,,,,,,,,5f863b1e4047781878fd5d21,2020-11-27_17h09.35.909,lexical_decision_task_MP_exp2,2020.2.5,Win32,60,m,1,,,,,,,,0.715815,1,,,,,,112,WORD,"ID",33,breath,BREATH,m,0.715815,,,,,,0.247222239,-0.200925993,0,0,0,,0,256,256,51,1,
,,,,,,,,,,,,,,,,,,5f863b1e4047781878fd5d21,2020-11-27_17h09.35.909,lexical_decision_task_MP_exp2,2020.2.5,Win32,60,z,1,,,,,,,,0.63908,1,,,,,,344,NW,"ID",33,scrily,SCRILY,z,0.63908,,,,,,0.247222239,-0.200925993,0,0,0,,0,257,257,283,1,
,,,,,,,,,,,,,,,,,,5f863b1e4047781878fd5d21,2020-11-27_17h09.35.909,lexical_decision_task_MP_exp2,2020.2.5,Win32,60,m,1,,,,,,,,0.52984,1,,,,,,202,WORD,UN,33,phrase,FACTOR,m,0.52984,,,,,,0.247222239,-0.200925993,0,0,0,,0,258,258,141,1,
,,,,,,,,,,,,,,,,,,5f863b1e4047781878fd5d21,2020-11-27_17h09.35.909,lexical_decision_task_MP_exp2,2020.2.5,Win32,60,z,1,,,,,,,,0.596385,1,,,,,,479,NW,UN,33,crible,LOBUSH,z,0.596385,,,,,,0.247222239,-0.200925993,0,0,0,,0,259,259,418,1,
,,,,,,,,,,,,,,,,,,5f863b1e4047781878fd5d21,2020-11-27_17h09.35.909,lexical_decision_task_MP_exp2,2020.2.5,Win32,60,z,1,,,,,,,,0.6453,1,,,,,,297,NW,UN,16,piergy,FERTIC,z,0.6453,,,,,,0.247222239,-0.200925993,0,0,0,,0,260,260,476,1,
,,,,,,,,,,,,,,,,,,5f863b1e4047781878fd5d21,2020-11-27_17h09.35.909,lexical_decision_task_MP_exp2,2020.2.5,Win32,60,z,1,,,,,,,,0.60717,1,,,,,,322,NW,"ID",33,slanch,SLANCH,z,0.60717,,,,,,0.247222239,-0.200925993,0,0,0,,0,261,261,261,1,
,,,,,,,,,,,,,,,,,,5f863b1e4047781878fd5d21,2020-11-27_17h09.35.909,lexical_decision_task_MP_exp2,2020.2.5,Win32,60,m,1,,,,,,,,0.547865,1,,,,,,92,WORD,"ID",33,strand,STRAND,m,0.547865,,,,,,0.247222239,-0.200925993,0,0,0,,0,262,262,31,1,
,,,,,,,,,,,,,,,,,,5f863b1e4047781878fd5d21,2020-11-27_17h09.35.909,lexical_decision_task_MP_exp2,2020.2.5,Win32,60,m,1,,,,,,,,0.663,1,,,,,,198,WORD,UN,33,invoke,WICKED,m,0.663,,,,,,0.247222239,-0.200925993,0,0,0,,0,263,263,137,1,
,,,,,,,,,,,,,,,,,,5f863b1e4047781878fd5d21,2020-11-27_17h09.35.909,lexical_decision_task_MP_exp2,2020.2.5,Win32,60,m,1,,,,,,,,0.54126,1,,,,,,81,WORD,"ID",33,friend,FRIEND,m,0.54126,,,,,,0.247222239,-0.200925993,0,0,0,,0,264,264,20,1,
,,,,,,,,,,,,,,,,,,5f863b1e4047781878fd5d21,2020-11-27_17h09.35.909,lexical_decision_task_MP_exp2,2020.2.5,Win32,60,m,1,,,,,,,,0.64993,1,,,,,,163,WORD,"ID",16,string,STRING,m,0.64993,,,,,,0.247222239,-0.200925993,0,0,0,,0,265,265,102,1,
,,,,,,,,,,,,,,,,,,5f863b1e4047781878fd5d21,2020-11-27_17h09.35.909,lexical_decision_task_MP_exp2,2020.2.5,Win32,60,z,1,,,,,,,,0.61496,1,,,,,,425,NW,UN,33,urivel,FRUDGE,z,0.61496,,,,,,0.247222239,-0.200925993,0,0,0,,0,266,266,364,1,
,,,,,,,,,,,,,,,,,,5f863b1e4047781878fd5d21,2020-11-27_17h09.35.909,lexical_decision_task_MP_exp2,2020.2.5,Win32,60,z,1,,,,,,,,0.6638,1,,,,,,415,NW,"ID",16,higsta,HIGSTA,z,0.6638,,,,,,0.247222239,-0.200925993,0,0,0,,0,267,267,354,1,
,,,,,,,,,,,,,,,,,,5f863b1e4047781878fd5d21,2020-11-27_17h09.35.909,lexical_decision_task_MP_exp2,2020.2.5,Win32,60,m,1,,,,,,,,0.547195,1,,,,,,15,WORD,UN,16,faucet,AMOUNT,m,0.547195,,,,,,0.247222239,-0.200925993,0,0,0,,0,268,268,194,1,
,,,,,,,,,,,,,,,,,,5f863b1e4047781878fd5d21,2020-11-27_17h09.35.909,lexical_decision_task_MP_exp2,2020.2.5,Win32,60,m,1,,,,,,,,0.57985,1,,,,,,17,WORD,UN,16,humble,CHARGE,m,0.57985,,,,,,0.247222239,-0.200925993,0,0,0,,0,269,269,196,1,
,,,,,,,,,,,,,,,,,,5f863b1e4047781878fd5d21,2020-11-27_17h09.35.909,lexical_decision_task_MP_exp2,2020.2.5,Win32,60,m,0,,,,,,,,0.589895,0,,,,,,407,NW,"ID",16,suiver,SUIVER,z,0.589895,,,,,,0.247222239,-0.200925993,0,0,0,,0,270,270,346,1,
,,,,,,,,,,,,,,,,,,5f863b1e4047781878fd5d21,2020-11-27_17h09.35.909,lexical_decision_task_MP_exp2,2020.2.5,Win32,60,m,1,,,,,,,,0.88138,1,,,,,,69,WORD,"ID",33,plenty,PLENTY,m,0.88138,,,,,,0.247222239,-0.200925993,0,0,0,,0,271,271,8,1,
,,,,,,,,,,,,,,,,,,5f863b1e4047781878fd5d21,2020-11-27_17h09.35.909,lexical_decision_task_MP_exp2,2020.2.5,Win32,60,m,1,,,,,,,,0.58242,1,,,,,,165,WORD,"ID",16,invest,INVEST,m,0.58242,,,,,,0.247222239,-0.200925993,0,0,0,,0,272,272,104,1,
,,,,,,,,,,,,,,,,,,5f863b1e4047781878fd5d21,2020-11-27_17h09.35.909,lexical_decision_task_MP_exp2,2020.2.5,Win32,60,m,1,,,,,,,,0.66649,1,,,,,,181,WORD,UN,33,winter,GLANCE,m,0.66649,,,,,,0.247222239,-0.200925993,0,0,0,,0,273,273,120,1,
,,,,,,,,,,,,,,,,,,5f863b1e4047781878fd5d21,2020-11-27_17h09.35.909,lexical_decision_task_MP_exp2,2020.2.5,Win32,60,m,1,,,,,,,,0.563045,1,,,,,,104,WORD,"ID",33,studio,STUDIO,m,0.563045,,,,,,0.247222239,-0.200925993,0,0,0,,0,274,274,43,1,
,,,,,,,,,,,,,,,,,,5f863b1e4047781878fd5d21,2020-11-27_17h09.35.909,lexical_decision_task_MP_exp2,2020.2.5,Win32,60,z,1,,,,,,,,0.5612,1,,,,,,375,NW,"ID",16,yorque,YORQUE,z,0.5612,,,,,,0.247222239,-0.200925993,0,0,0,,0,275,275,314,1,
,,,,,,,,,,,,,,,,,,5f863b1e4047781878fd5d21,2020-11-27_17h09.35.909,lexical_decision_task_MP_exp2,2020.2.5,Win32,60,z,1,,,,,,,,0.71616,1,,,,,,459,NW,UN,33,mingar,BAFENT,z,0.71616,,,,,,0.247222239,-0.200925993,0,0,0,,0,276,276,398,1,
,,,,,,,,,,,,,,,,,,5f863b1e4047781878fd5d21,2020-11-27_17h09.35.909,lexical_decision_task_MP_exp2,2020.2.5,Win32,60,m,1,,,,,,,,0.73151,1,,,,,,191,WORD,UN,33,beacon,STABLE,m,0.73151,,,,,,0.247222239,-0.200925993,0,0,0,,0,277,277,130,1,
,,,,,,,,,,,,,,,,,,5f863b1e4047781878fd5d21,2020-11-27_17h09.35.909,lexical_decision_task_MP_exp2,2020.2.5,Win32,60,z,0,,,,,,,,0.5998,0,,,,,,25,WORD,UN,16,sprint,DOMAIN,m,0.5998,,,,,,0.247222239,-0.200925993,0,0,0,,0,278,278,204,1,
,,,,,,,,,,,,,,,,,,5f863b1e4047781878fd5d21,2020-11-27_17h09.35.909,lexical_decision_task_MP_exp2,2020.2.5,Win32,60,z,1,,,,,,,,0.64716,1,,,,,,385,NW,"ID",16,veigma,VEIGMA,z,0.64716,,,,,,0.247222239,-0.200925993,0,0,0,,0,279,279,324,1,
,,,,,,,,,,,,,,,,,,5f863b1e4047781878fd5d21,2020-11-27_17h09.35.909,lexical_decision_task_MP_exp2,2020.2.5,Win32,60,m,0,,,,,,,,0.79685,0,,,,,,388,NW,"ID",16,cragin,CRAGIN,z,0.79685,,,,,,0.247222239,-0.200925993,0,0,0,,0,280,280,327,1,
,,,,,,,,,,,,,,,,,,5f863b1e4047781878fd5d21,2020-11-27_17h09.35.909,lexical_decision_task_MP_exp2,2020.2.5,Win32,60,z,1,,,,,,,,0.749445,1,,,,,,400,NW,"ID",16,wearox,WEAROX,z,0.749445,,,,,,0.247222239,-0.200925993,0,0,0,,0,281,281,339,1,
,,,,,,,,,,,,,,,,,,5f863b1e4047781878fd5d21,2020-11-27_17h09.35.909,lexical_decision_task_MP_exp2,2020.2.5,Win32,60,z,1,,,,,,,,0.84916,1,,,,,,311,NW,"ID",33,sproly,SPROLY,z,0.84916,,,,,,0.247222239,-0.200925993,0,0,0,,0,282,282,250,1,
,,,,,,,,,,,,,,,,,,5f863b1e4047781878fd5d21,2020-11-27_17h09.35.909,lexical_decision_task_MP_exp2,2020.2.5,Win32,60,z,1,,,,,,,,0.84946,1,,,,,,436,NW,UN,33,snapel,FRUTAN,z,0.84946,,,,,,0.247222239,-0.200925993,0,0,0,,0,283,283,375,1,
,,,,,,,,,,,,,,,,,,5f863b1e4047781878fd5d21,2020-11-27_17h09.35.909,lexical_decision_task_MP_exp2,2020.2.5,Win32,60,z,1,,,,,,,,0.74547,1,,,,,,347,NW,"ID",33,kerift,KERIFT,z,0.74547,,,,,,0.247222239,-0.200925993,0,0,0,,0,284,284,286,1,
,,,,,,,,,,,,,,,,,,5f863b1e4047781878fd5d21,2020-11-27_17h09.35.909,lexical_decision_task_MP_exp2,2020.2.5,Win32,60,z,1,,,,,,,,0.8207,1,,,,,,424,NW,UN,33,frudge,PRAILE,z,0.8207,,,,,,0.247222239,-0.200925993,0,0,0,,0,285,285,363,1,
,,,,,,,,,,,,,,,,,,5f863b1e4047781878fd5d21,2020-11-27_17h09.35.909,lexical_decision_task_MP_exp2,2020.2.5,Win32,60,m,1,,,,,,,,0.617315,1,,,,,,143,WORD,"ID",16,reason,REASON,m,0.617315,,,,,,0.247222239,-0.200925993,0,0,0,,0,286,286,82,1,
,,,,,,,,,,,,,,,,,,5f863b1e4047781878fd5d21,2020-11-27_17h09.35.909,lexical_decision_task_MP_exp2,2020.2.5,Win32,60,m,1,,,,,,,,0.74629,1,,,,,,30,WORD,UN,16,weapon,ORIENT,m,0.74629,,,,,,0.247222239,-0.200925993,0,0,0,,0,287,287,209,1,
,,,,,,,,,,,,,,,,,,5f863b1e4047781878fd5d21,2020-11-27_17h09.35.909,lexical_decision_task_MP_exp2,2020.2.5,Win32,60,m,1,,,,,,,,0.59695,1,,,,,,126,WORD,"ID",16,enough,ENOUGH,m,0.59695,,,,,,0.247222239,-0.200925993,0,0,0,,0,288,288,65,1,
,,,,,,,,,,,,,,,,,,5f863b1e4047781878fd5d21,2020-11-27_17h09.35.909,lexical_decision_task_MP_exp2,2020.2.5,Win32,60,z,0,,,,,,,,0.76099,0,,,,,,46,WORD,UN,16,income,SINGLE,m,0.76099,,,,,,0.247222239,-0.200925993,0,0,0,,0,289,289,225,1,
,,,,,,,,,,,,,,,,,,5f863b1e4047781878fd5d21,2020-11-27_17h09.35.909,lexical_decision_task_MP_exp2,2020.2.5,Win32,60,m,1,,,,,,,,0.6052,1,,,,,,79,WORD,"ID",33,theory,THEORY,m,0.6052,,,,,,0.247222239,-0.200925993,0,0,0,,0,290,290,18,1,
,,,,,,,,,,,,,,,,,,5f863b1e4047781878fd5d21,2020-11-27_17h09.35.909,lexical_decision_task_MP_exp2,2020.2.5,Win32,60,z,1,,,,,,,,0.78032,1,,,,,,468,NW,UN,33,padifs,WICTOR,z,0.78032,,,,,,0.247222239,-0.200925993,0,0,0,,0,291,291,407,1,
,,,,,,,,,,,,,,,,,,5f863b1e4047781878fd5d21,2020-11-27_17h09.35.909,lexical_decision_task_MP_exp2,2020.2.5,Win32,60,z,1,,,,,,,,0.81368,1,,,,,,416,NW,"ID",16,pathel,PATHEL,z,0.81368,,,,,,0.247222239,-0.200925993,0,0,0,,0,292,292,355,1,
,,,,,,,,,,,,,,,,,,5f863b1e4047781878fd5d21,2020-11-27_17h09.35.909,lexical_decision_task_MP_exp2,2020.2.5,Win32,60,z,1,,,,,,,,0.83726,1,,,,,,352,NW,"ID",33,tringe,TRINGE,z,0.83726,,,,,,0.247222239,-0.200925993,0,0,0,,0,293,293,291,1,
,,,,,,,,,,,,,,,,,,5f863b1e4047781878fd5d21,2020-11-27_17h09.35.909,lexical_decision_task_MP_exp2,2020.2.5,Win32,60,z,0,,,,,,,,1.021075,0,,,,,,71,WORD,"ID",33,garden,GARDEN,m,1.021075,,,,,,0.247222239,-0.200925993,0,0,0,,0,294,294,10,1,
,,,,,,,,,,,,,,,,,,5f863b1e4047781878fd5d21,2020-11-27_17h09.35.909,lexical_decision_task_MP_exp2,2020.2.5,Win32,60,z,1,,,,,,,,0.798345,1,,,,,,242,NW,UN,16,musied,UNWERT,z,0.798345,,,,,,0.247222239,-0.200925993,0,0,0,,0,295,295,421,1,
,,,,,,,,,,,,,,,,,,5f863b1e4047781878fd5d21,2020-11-27_17h09.35.909,lexical_decision_task_MP_exp2,2020.2.5,Win32,60,z,1,,,,,,,,0.680165,1,,,,,,339,NW,"ID",33,fachow,FACHOW,z,0.680165,,,,,,0.247222239,-0.200925993,0,0,0,,0,296,296,278,1,
,,,,,,,,,,,,,,,,,,5f863b1e4047781878fd5d21,2020-11-27_17h09.35.909,lexical_decision_task_MP_exp2,2020.2.5,Win32,60,z,1,,,,,,,,0.722295,1,,,,,,435,NW,UN,33,frutan,IMPURB,z,0.722295,,,,,,0.247222239,-0.200925993,0,0,0,,0,297,297,374,1,
,,,,,,,,,,,,,,,,,,5f863b1e4047781878fd5d21,2020-11-27_17h09.35.909,lexical_decision_task_MP_exp2,2020.2.5,Win32,60,m,1,,,,,,,,0.849355,1,,,,,,179,WORD,"ID",16,basket,BASKET,m,0.849355,,,,,,0.247222239,-0.200925993,0,0,0,,0,298,298,118,1,
,,,,,,,,,,,,,,,,,,5f863b1e4047781878fd5d21,2020-11-27_17h09.35.909,lexical_decision_task_MP_exp2,2020.2.5,Win32,60,m,1,,,,,,,,0.68926,1,,,,,,204,WORD,UN,33,lounge,BURDEN,m,0.68926,,,,,,0.247222239,-0.200925993,0,0,0,,0,299,299,143,1,
,,,,,,,,,,,,,,,,,,5f863b1e4047781878fd5d21,2020-11-27_17h09.35.909,lexical_decision_task_MP_exp2,2020.2.5,Win32,60,m,1,,,,,,,,0.72363,1,,,,,,44,WORD,UN,16,clergy,DANGER,m,0.72363,,,,,,0.247222239,-0.200925993,0,0,0,,0,300,300,223,1,
,,,,,,,,,,,,,,,,,,5f863b1e4047781878fd5d21,2020-11-27_17h09.35.909,lexical_decision_task_MP_exp2,2020.2.5,Win32,60,z,1,,,,,,,,0.902025,1,,,,,,437,NW,UN,33,baitch,SNAPEL,z,0.902025,,,,,,0.247222239,-0.200925993,0,0,0,,0,301,301,376,1,
,,,,,,,,,,,,,,,,,,5f863b1e4047781878fd5d21,2020-11-27_17h09.35.909,lexical_decision_task_MP_exp2,2020.2.5,Win32,60,m,1,,,,,,,,0.720785,1,,,,,,68,WORD,"ID",33,fumble,FUMBLE,m,0.720785,,,,,,0.247222239,-0.200925993,0,0,0,,0,302,302,7,1,
,,,,,,,,,,,,,,,,,,5f863b1e4047781878fd5d21,2020-11-27_17h09.35.909,lexical_decision_task_MP_exp2,2020.2.5,Win32,60,m,1,,,,,,,,0.622705,1,,,,,,18,WORD,UN,16,patron,HUMBLE,m,0.622705,,,,,,0.247222239,-0.200925993,0,0,0,,0,303,303,197,1,
,,,,,,,,,,,,,,,,,,5f863b1e4047781878fd5d21,2020-11-27_17h09.35.909,lexical_decision_task_MP_exp2,2020.2.5,Win32,60,m,1,,,,,,,,0.879225,1,,,,,,45,WORD,UN,16,single,CLERGY,m,0.879225,,,,,,0.247222239,-0.200925993,0,0,0,,0,304,304,224,1,
,,,,,,,,,,,,,,,,,,5f863b1e4047781878fd5d21,2020-11-27_17h09.35.909,lexical_decision_task_MP_exp2,2020.2.5,Win32,60,z,1,,,,,,,,0.81463,1,,,,,,448,NW,UN,33,brunge,SADENT,z,0.81463,,,,,,0.247222239,-0.200925993,0,0,0,,0,305,305,387,1,
,,,,,,,,,,,,,,,,,,5f863b1e4047781878fd5d21,2020-11-27_17h09.35.909,lexical_decision_task_MP_exp2,2020.2.5,Win32,60,z,1,,,,,,,,0.7637,1,,,,,,363,NW,"ID",16,breali,BREALI,z,0.7637,,,,,,0.247222239,-0.200925993,0,0,0,,0,306,306,302,1,
,,,,,,,,,,,,,,,,,,5f863b1e4047781878fd5d21,2020-11-27_17h09.35.909,lexical_decision_task_MP_exp2,2020.2.5,Win32,60,m,0,,,,,,,,0.733075,0,,,,,,402,NW,"ID",16,syntic,SYNTIC,z,0.733075,,,,,,0.247222239,-0.200925993,0,0,0,,0,307,307,341,1,
,,,,,,,,,,,,,,,,,,5f863b1e4047781878fd5d21,2020-11-27_17h09.35.909,lexical_decision_task_MP_exp2,2020.2.5,Win32,60,m,1,,,,,,,,0.785115,1,,,,,,157,WORD,"ID",16,dragon,DRAGON,m,0.785115,,,,,,0.247222239,-0.200925993,0,0,0,,0,308,308,96,1,
,,,,,,,,,,,,,,,,,,5f863b1e4047781878fd5d21,2020-11-27_17h09.35.909,lexical_decision_task_MP_exp2,2020.2.5,Win32,60,m,1,,,,,,,,0.77121,1,,,,,,26,WORD,UN,16,butler,SPRINT,m,0.77121,,,,,,0.247222239,-0.200925993,0,0,0,,0,309,309,205,1,
,,,,,,,,,,,,,,,,,,5f863b1e4047781878fd5d21,2020-11-27_17h09.35.909,lexical_decision_task_MP_exp2,2020.2.5,Win32,60,m,1,,,,,,,,0.62232,1,,,,,,53,WORD,UN,16,ramble,POLICE,m,0.62232,,,,,,0.247222239,-0.200925993,0,0,0,,0,310,310,232,1,
,,,,,,,,,,,,,,,,,,5f863b1e4047781878fd5d21,2020-11-27_17h09.35.909,lexical_decision_task_MP_exp2,2020.2.5,Win32,60,z,1,,,,,,,,0.81422,1,,,,,,383,NW,"ID",16,aungre,AUNGRE,z,0.81422,,,,,,0.247222239,-0.200925993,0,0,0,,0,311,311,322,1,
,,,,,,,,,,,,,,,,,,5f863b1e4047781878fd5d21,2020-11-27_17h09.35.909,lexical_decision_task_MP_exp2,2020.2.5,Win32,60,z,1,,,,,,,,0.74941,1,,,,,,440,NW,UN,33,rastoe,SARIDE,z,0.74941,,,,,,0.247222239,-0.200925993,0,0,0,,0,312,312,379,1,
,,,,,,,,,,,,,,,,,,5f863b1e4047781878fd5d21,2020-11-27_17h09.35.909,lexical_decision_task_MP_exp2,2020.2.5,Win32,60,z,0,,,,,,,,1.03058,0,,,,,,230,WORD,UN,33,mother,FRINGE,m,1.03058,,,,,,0.247222239,-0.200925993,0,0,0,,0,313,313,169,1,
,,,,,,,,,,,,,,,,,,5f863b1e4047781878fd5d21,2020-11-27_17h09.35.909,lexical_decision_task_MP_exp2,2020.2.5,Win32,60,z,0,,,,,,,,0.914075,0,,,,,,16,WORD,UN,16,charge,FAUCET,m,0.914075,,,,,,0.247222239,-0.200925993,0,0,0,,0,314,314,195,1,
,,,,,,,,,,,,,,,,,,5f863b1e4047781878fd5d21,2020-11-27_17h09.35.909,lexical_decision_task_MP_exp2,2020.2.5,Win32,60,m,1,,,,,,,,0.934965,1,,,,,,121,WORD,"ID",16,thrive,THRIVE,m,0.934965,,,,,,0.247222239,-0.200925993,0,0,0,,0,315,315,60,1,
,,,,,,,,,,,,,,,,,,5f863b1e4047781878fd5d21,2020-11-27_17h09.35.909,lexical_decision_task_MP_exp2,2020.2.5,Win32,60,z,1,,,,,,,,0.977215,1,,,,,,277,NW,UN,16,unighs,PETAIN,z,0.977215,,,,,,0.247222239,-0.200925993,0,0,0,,0,316,316,456,1,
,,,,,,,,,,,,,,,,,,5f863b1e4047781878fd5d21,2020-11-27_17h09.35.909,lexical_decision_task_MP_exp2,2020.2.5,Win32,60,m,1,,,,,,,,0.84946,1,,,,,,111,WORD,"ID",33,induce,INDUCE,m,0.84946,,,,,,0.247222239,-0.200925993,0,0,0,,0,317,317,50,1,
,,,,,,,,,,,,,,,,,,5f863b1e4047781878fd5d21,2020-11-27_17h09.35.909,lexical_decision_task_MP_exp2,2020.2.5,Win32,60,z,1,,,,,,,,0.86371,1,,,,,,333,NW,"ID",33,catrie,CATRIE,z,0.86371,,,,,,0.247222239,-0.200925993,0,0,0,,0,318,318,272,1,
,,,,,,,,,,,,,,,,,,5f863b1e4047781878fd5d21,2020-11-27_17h09.35.909,lexical_decision_task_MP_exp2,2020.2.5,Win32,60,m,1,,,,,,,,0.69971,1,,,,,,182,WORD,UN,33,absent,WINTER,m,0.69971,,,,,,0.247222239,-0.200925993,0,0,0,,0,319,319,121,1,
,,,,,,,,,,,,,,,,,,5f863b1e4047781878fd5d21,2020-11-27_17h09.35.909,lexical_decision_task_MP_exp2,2020.2.5,Win32,60,z,1,,,,,,,,0.649385,1,,,,,,327,NW,"ID",33,plenac,PLENAC,z,0.649385,,,,,,0.247222239,-0.200925993,0,0,0,,0,320,320,266,1,
,,,,,,,,,,,,,,,,,,5f863b1e4047781878fd5d21,2020-11-27_17h09.35.909,lexical_decision_task_MP_exp2,2020.2.5,Win32,60,z,1,,,,,,,,0.769145,1,,,,,,281,NW,UN,16,porlex,MELATY,z,0.769145,,,,,,0.247222239,-0.200925993,0,0,0,,0,321,321,460,1,
,,,,,,,,,,,,,,,,,,5f863b1e4047781878fd5d21,2020-11-27_17h09.35.909,lexical_decision_task_MP_exp2,2020.2.5,Win32,60,z,1,,,,,,,,0.89465,1,,,,,,414,NW,"ID",16,serbol,SERBOL,z,0.89465,,,,,,0.247222239,-0.200925993,0,0,0,,0,322,322,353,1,
,,,,,,,,,,,,,,,,,,5f863b1e4047781878fd5d21,2020-11-27_17h09.35.909,lexical_decision_task_MP_exp2,2020.2.5,Win32,60,m,1,,,,,,,,0.547565,1,,,,,,73,WORD,"ID",33,source,SOURCE,m,0.547565,,,,,,0.247222239,-0.200925993,0,0,0,,0,323,323,12,1,
,,,,,,,,,,,,,,,,,,5f863b1e4047781878fd5d21,2020-11-27_17h09.35.909,lexical_decision_task_MP_exp2,2020.2.5,Win32,60,m,1,,,,,,,,0.68476,1,,,,,,209,WORD,UN,33,monkey,SEARCH,m,0.68476,,,,,,0.247222239,-0.200925993,0,0,0,,0,324,324,148,1,
,,,,,,,,,,,,,,,,,,5f863b1e4047781878fd5d21,2020-11-27_17h09.35.909,lexical_decision_task_MP_exp2,2020.2.5,Win32,60,m,1,,,,,,,,0.58778,1,,,,,,173,WORD,"ID",16,shower,SHOWER,m,0.58778,,,,,,0.247222239,-0.200925993,0,0,0,,0,325,325,112,1,
,,,,,,,,,,,,,,,,,,5f863b1e4047781878fd5d21,2020-11-27_17h09.35.909,lexical_decision_task_MP_exp2,2020.2.5,Win32,60,m,1,,,,,,,,0.629,1,,,,,,172,WORD,"ID",16,patrol,PATROL,m,0.629,,,,,,0.247222239,-0.200925993,0,0,0,,0,326,326,111,1,
,,,,,,,,,,,,,,,,,,5f863b1e4047781878fd5d21,2020-11-27_17h09.35.909,lexical_decision_task_MP_exp2,2020.2.5,Win32,60,z,1,,,,,,,,0.620215,1,,,,,,367,NW,"ID",16,slique,SLIQUE,z,0.620215,,,,,,0.247222239,-0.200925993,0,0,0,,0,327,327,306,1,
,,,,,,,,,,,,,,,,,,5f863b1e4047781878fd5d21,2020-11-27_17h09.35.909,lexical_decision_task_MP_exp2,2020.2.5,Win32,60,m,1,,,,,,,,0.472075,1,,,,,,57,WORD,UN,16,danger,CHANGE,m,0.472075,,,,,,0.247222239,-0.200925993,0,0,0,,0,328,328,236,1,
,,,,,,,,,,,,,,,,,,5f863b1e4047781878fd5d21,2020-11-27_17h09.35.909,lexical_decision_task_MP_exp2,2020.2.5,Win32,60,m,1,,,,,,,,0.55264,1,,,,,,108,WORD,"ID",33,reckon,RECKON,m,0.55264,,,,,,0.247222239,-0.200925993,0,0,0,,0,329,329,47,1,
,,,,,,,,,,,,,,,,,,5f863b1e4047781878fd5d21,2020-11-27_17h09.35.909,lexical_decision_task_MP_exp2,2020.2.5,Win32,60,m,0,,,,,,,,0.80934,0,,,,,,296,NW,UN,16,fertic,BEINCH,z,0.80934,,,,,,0.247222239,-0.200925993,0,0,0,,0,330,330,475,1,
,,,,,,,,,,,,,,,,,,5f863b1e4047781878fd5d21,2020-11-27_17h09.35.909,lexical_decision_task_MP_exp2,2020.2.5,Win32,60,m,1,,,,,,,,0.698655,1,,,,,,101,WORD,"ID",33,wrench,WRENCH,m,0.698655,,,,,,0.247222239,-0.200925993,0,0,0,,0,331,331,40,1,
,,,,,,,,,,,,,,,,,,5f863b1e4047781878fd5d21,2020-11-27_17h09.35.909,lexical_decision_task_MP_exp2,2020.2.5,Win32,60,m,1,,,,,,,,0.596075,1,,,,,,96,WORD,"ID",33,ignore,IGNORE,m,0.596075,,,,,,0.247222239,-0.200925993,0,0,0,,0,332,332,35,1,
,,,,,,,,,,,,,,,,,,5f863b1e4047781878fd5d21,2020-11-27_17h09.35.909,lexical_decision_task_MP_exp2,2020.2.5,Win32,60,z,1,,,,,,,,0.588515,1,,,,,,282,NW,UN,16,veralf,PORLEX,z,0.588515,,,,,,0.247222239,-0.200925993,0,0,0,,0,333,333,461,1,
,,,,,,,,,,,,,,,,,,5f863b1e4047781878fd5d21,2020-11-27_17h09.35.909,lexical_decision_task_MP_exp2,2020.2.5,Win32,60,m,1,,,,,,,,0.78059,1,,,,,,131,WORD,"ID",16,quench,QUENCH,m,0.78059,,,,,,0.247222239,-0.200925993,0,0,0,,0,334,334,70,1,
,,,,,,,,,,,,,,,,,,5f863b1e4047781878fd5d21,2020-11-27_17h09.35.909,lexical_decision_task_MP_exp2,2020.2.5,Win32,60,m,1,,,,,,,,0.710745,1,,,,,,236,WORD,UN,33,grumpy,PIRATE,m,0.710745,,,,,,0.247222239,-0.200925993,0,0,0,,0,335,335,175,1,
,,,,,,,,,,,,,,,,,,5f863b1e4047781878fd5d21,2020-11-27_17h09.35.909,lexical_decision_task_MP_exp2,2020.2.5,Win32,60,m,1,,,,,,,,0.807445,1,,,,,,89,WORD,"ID",33,permit,PERMIT,m,0.807445,,,,,,0.247222239,-0.200925993,0,0,0,,0,336,336,28,1,
,,,,,,,,,,,,,,,,,,5f863b1e4047781878fd5d21,2020-11-27_17h09.35.909,lexical_decision_task_MP_exp2,2020.2.5,Win32,60,z,1,,,,,,,,0.64703,1,,,,,,274,NW,UN,16,sleirt,FUMBLO,z,0.64703,,,,,,0.247222239,-0.200925993,0,0,0,,0,337,337,453,1,
,,,,,,,,,,,,,,,,,,5f863b1e4047781878fd5d21,2020-11-27_17h09.35.909,lexical_decision_task_MP_exp2,2020.2.5,Win32,60,m,1,,,,,,,,0.617515,1,,,,,,233,WORD,UN,33,clumsy,NATURE,m,0.617515,,,,,,0.247222239,-0.200925993,0,0,0,,0,338,338,172,1,
,,,,,,,,,,,,,,,,,,5f863b1e4047781878fd5d21,2020-11-27_17h09.35.909,lexical_decision_task_MP_exp2,2020.2.5,Win32,60,m,0,,,,,,,,0.716295,0,,,,,,419,NW,"ID",16,slount,SLOUNT,z,0.716295,,,,,,0.247222239,-0.200925993,0,0,0,,0,339,339,358,1,
,,,,,,,,,,,,,,,,,,5f863b1e4047781878fd5d21,2020-11-27_17h09.35.909,lexical_decision_task_MP_exp2,2020.2.5,Win32,60,m,1,,,,,,,,0.562225,1,,,,,,192,WORD,UN,33,object,PLAGUE,m,0.562225,,,,,,0.247222239,-0.200925993,0,0,0,,0,340,340,131,1,
,,,,,,,,,,,,,,,,,,5f863b1e4047781878fd5d21,2020-11-27_17h09.35.909,lexical_decision_task_MP_exp2,2020.2.5,Win32,60,m,1,,,,,,,,0.9554,1,,,,,,33,WORD,UN,16,jungle,BUTLER,m,0.9554,,,,,,0.247222239,-0.200925993,0,0,0,,0,341,341,212,1,
,,,,,,,,,,,,,,,,,,5f863b1e4047781878fd5d21,2020-11-27_17h09.35.909,lexical_decision_task_MP_exp2,2020.2.5,Win32,60,m,0,,,,,,,,0.80668,0,,,,,,269,NW,UN,16,wrimsy,ORCHET,z,0.80668,,,,,,0.247222239,-0.200925993,0,0,0,,0,342,342,448,1,
,,,,,,,,,,,,,,,,,,5f863b1e4047781878fd5d21,2020-11-27_17h09.35.909,lexical_decision_task_MP_exp2,2020.2.5,Win32,60,z,1,,,,,,,,0.844575,1,,,,,,280,NW,UN,16,melaty,CURBOL,z,0.844575,,,,,,0.247222239,-0.200925993,0,0,0,,0,343,343,459,1,
,,,,,,,,,,,,,,,,,,5f863b1e4047781878fd5d21,2020-11-27_17h09.35.909,lexical_decision_task_MP_exp2,2020.2.5,Win32,60,z,1,,,,,,,,0.72198,1,,,,,,283,NW,UN,16,shaple,VERALF,z,0.72198,,,,,,0.247222239,-0.200925993,0,0,0,,0,344,344,462,1,
,,,,,,,,,,,,,,,,,,5f863b1e4047781878fd5d21,2020-11-27_17h09.35.909,lexical_decision_task_MP_exp2,2020.2.5,Win32,60,z,1,,,,,,,,0.71211,1,,,,,,256,NW,UN,16,veniod,INLORS,z,0.71211,,,,,,0.247222239,-0.200925993,0,0,0,,0,345,345,435,1,
,,,,,,,,,,,,,,,,,,5f863b1e4047781878fd5d21,2020-11-27_17h09.35.909,lexical_decision_task_MP_exp2,2020.2.5,Win32,60,m,1,,,,,,,,0.678015,1,,,,,,152,WORD,"ID",16,rocket,ROCKET,m,0.678015,,,,,,0.247222239,-0.200925993,0,0,0,,0,346,346,91,1,
,,,,,,,,,,,,,,,,,,5f863b1e4047781878fd5d21,2020-11-27_17h09.35.909,lexical_decision_task_MP_exp2,2020.2.5,Win32,60,m,1,,,,,,,,0.703255,1,,,,,,65,WORD,"ID",33,symbol,SYMBOL,m,0.703255,,,,,,0.247222239,-0.200925993,0,0,0,,0,347,347,4,1,
,,,,,,,,,,,,,,,,,,5f863b1e4047781878fd5d21,2020-11-27_17h09.35.909,lexical_decision_task_MP_exp2,2020.2.5,Win32,60,m,1,,,,,,,,0.7509,1,,,,,,141,WORD,"ID",16,orphan,ORPHAN,m,0.7509,,,,,,0.247222239,-0.200925993,0,0,0,,0,348,348,80,1,
,,,,,,,,,,,,,,,,,,5f863b1e4047781878fd5d21,2020-11-27_17h09.35.909,lexical_decision_task_MP_exp2,2020.2.5,Win32,60,m,1,,,,,,,,0.750505,1,,,,,,87,WORD,"ID",33,filter,FILTER,m,0.750505,,,,,,0.247222239,-0.200925993,0,0,0,,0,349,349,26,1,
,,,,,,,,,,,,,,,,,,5f863b1e4047781878fd5d21,2020-11-27_17h09.35.909,lexical_decision_task_MP_exp2,2020.2.5,Win32,60,m,0,,,,,,,,0.86218,0,,,,,,318,NW,"ID",33,reagly,REAGLY,z,0.86218,,,,,,0.247222239,-0.200925993,0,0,0,,0,350,350,257,1,
,,,,,,,,,,,,,,,,,,5f863b1e4047781878fd5d21,2020-11-27_17h09.35.909,lexical_decision_task_MP_exp2,2020.2.5,Win32,60,m,0,,,,,,,,0.737675,0,,,,,,422,NW,UN,33,streld,ALCOUD,z,0.737675,,,,,,0.247222239,-0.200925993,0,0,0,,0,351,351,361,1,
,,,,,,,,,,,,,,,,,,5f863b1e4047781878fd5d21,2020-11-27_17h09.35.909,lexical_decision_task_MP_exp2,2020.2.5,Win32,60,z,1,,,,,,,,0.69507,1,,,,,,310,NW,"ID",33,daniet,DANIET,z,0.69507,,,,,,0.247222239,-0.200925993,0,0,0,,0,352,352,249,1,
,,,,,,,,,,,,,,,,,,5f863b1e4047781878fd5d21,2020-11-27_17h09.35.909,lexical_decision_task_MP_exp2,2020.2.5,Win32,60,m,0,,,,,,,,0.833175,0,,,,,,476,NW,UN,33,photie,JOSTED,z,0.833175,,,,,,0.247222239,-0.200925993,0,0,0,,0,353,353,415,1,
,,,,,,,,,,,,,,,,,,5f863b1e4047781878fd5d21,2020-11-27_17h09.35.909,lexical_decision_task_MP_exp2,2020.2.5,Win32,60,m,1,,,,,,,,1.16633,1,,,,,,218,WORD,UN,33,bucket,SHRINK,m,1.16633,,,,,,0.247222239,-0.200925993,0,0,0,,0,354,354,157,1,
,,,,,,,,,,,,,,,,,,5f863b1e4047781878fd5d21,2020-11-27_17h09.35.909,lexical_decision_task_MP_exp2,2020.2.5,Win32,60,m,1,,,,,,,,0.97369,1,,,,,,206,WORD,UN,33,wreath,TAILOR,m,0.97369,,,,,,0.247222239,-0.200925993,0,0,0,,0,355,355,145,1,
,,,,,,,,,,,,,,,,,,5f863b1e4047781878fd5d21,2020-11-27_17h09.35.909,lexical_decision_task_MP_exp2,2020.2.5,Win32,60,m,1,,,,,,,,0.786225,1,,,,,,78,WORD,"ID",33,column,COLUMN,m,0.786225,,,,,,0.247222239,-0.200925993,0,0,0,,0,356,356,17,1,
,,,,,,,,,,,,,,,,,,5f863b1e4047781878fd5d21,2020-11-27_17h09.35.909,lexical_decision_task_MP_exp2,2020.2.5,Win32,60,z,1,,,,,,,,0.749565,1,,,,,,287,NW,UN,16,yaceup,NYMBEL,z,0.749565,,,,,,0.247222239,-0.200925993,0,0,0,,0,357,357,466,1,
,,,,,,,,,,,,,,,,,,5f863b1e4047781878fd5d21,2020-11-27_17h09.35.909,lexical_decision_task_MP_exp2,2020.2.5,Win32,60,m,1,,,,,,,,0.67077,1,,,,,,63,WORD,"ID",33,launch,LAUNCH,m,0.67077,,,,,,0.247222239,-0.200925993,0,0,0,,0,358,358,2,1,
,,,,,,,,,,,,,,,,,,5f863b1e4047781878fd5d21,2020-11-27_17h09.35.909,lexical_decision_task_MP_exp2,2020.2.5,Win32,60,m,1,,,,,,,,0.77977,1,,,,,,156,WORD,"ID",16,cradle,CRADLE,m,0.77977,,,,,,0.247222239,-0.200925993,0,0,0,,0,359,359,95,1,
,,,,,,,,,,,,,,,,,,5f863b1e4047781878fd5d21,2020-11-27_17h09.35.909,lexical_decision_task_MP_exp2,2020.2.5,Win32,60,z,0,,,,,,,,0.681755,0,,,,,,48,WORD,UN,16,survey,WALNUT,m,0.681755,,,,,,0.247222239,-0.200925993,0,0,0,,0,360,360,227,1,
,,,,,,,,,,,,,,,,,,5f863b1e4047781878fd5d21,2020-11-27_17h09.35.909,lexical_decision_task_MP_exp2,2020.2.5,Win32,60,z,1,,,,,,,,1.226755,1,,,,,,285,NW,UN,16,reldon,PRUDGE,z,1.226755,,,,,,0.247222239,-0.200925993,0,0,0,,0,361,361,464,1,
,,,,,,,,,,,,,,,,,,5f863b1e4047781878fd5d21,2020-11-27_17h09.35.909,lexical_decision_task_MP_exp2,2020.2.5,Win32,60,m,1,,,,,,,,0.66093,1,,,,,,150,WORD,"ID",16,random,RANDOM,m,0.66093,,,,,,0.247222239,-0.200925993,0,0,0,space,0,362,362,89,1,48.903785
,,,,,,,,,,,,,,,,,,5f863b1e4047781878fd5d21,2020-11-27_17h09.35.909,lexical_decision_task_MP_exp2,2020.2.5,Win32,60,z,1,,,,,,,,0.61695,1,,,,,,438,NW,UN,33,limpor,BAITCH,z,0.61695,,,,,,0.247222239,-0.200925993,0,0,0,,0,363,363,377,1,
,,,,,,,,,,,,,,,,,,5f863b1e4047781878fd5d21,2020-11-27_17h09.35.909,lexical_decision_task_MP_exp2,2020.2.5,Win32,60,m,1,,,,,,,,0.53685,1,,,,,,232,WORD,UN,33,nature,INJECT,m,0.53685,,,,,,0.247222239,-0.200925993,0,0,0,,0,364,364,171,1,
,,,,,,,,,,,,,,,,,,5f863b1e4047781878fd5d21,2020-11-27_17h09.35.909,lexical_decision_task_MP_exp2,2020.2.5,Win32,60,m,1,,,,,,,,0.545525,1,,,,,,34,WORD,UN,16,socket,JUNGLE,m,0.545525,,,,,,0.247222239,-0.200925993,0,0,0,,0,365,365,213,1,
,,,,,,,,,,,,,,,,,,5f863b1e4047781878fd5d21,2020-11-27_17h09.35.909,lexical_decision_task_MP_exp2,2020.2.5,Win32,60,m,1,,,,,,,,0.471145,1,,,,,,83,WORD,"ID",33,result,RESULT,m,0.471145,,,,,,0.247222239,-0.200925993,0,0,0,,0,366,366,22,1,
,,,,,,,,,,,,,,,,,,5f863b1e4047781878fd5d21,2020-11-27_17h09.35.909,lexical_decision_task_MP_exp2,2020.2.5,Win32,60,m,1,,,,,,,,0.623725,1,,,,,,174,WORD,"ID",16,turkey,TURKEY,m,0.623725,,,,,,0.247222239,-0.200925993,0,0,0,,0,367,367,113,1,
,,,,,,,,,,,,,,,,,,5f863b1e4047781878fd5d21,2020-11-27_17h09.35.909,lexical_decision_task_MP_exp2,2020.2.5,Win32,60,m,0,,,,,,,,0.629335,0,,,,,,299,NW,UN,16,yarion,STURCH,z,0.629335,,,,,,0.247222239,-0.200925993,0,0,0,,0,368,368,478,1,
,,,,,,,,,,,,,,,,,,5f863b1e4047781878fd5d21,2020-11-27_17h09.35.909,lexical_decision_task_MP_exp2,2020.2.5,Win32,60,m,0,,,,,,,,0.55626,0,,,,,,348,NW,"ID",33,dumple,DUMPLE,z,0.55626,,,,,,0.247222239,-0.200925993,0,0,0,,0,369,369,287,1,
,,,,,,,,,,,,,,,,,,5f863b1e4047781878fd5d21,2020-11-27_17h09.35.909,lexical_decision_task_MP_exp2,2020.2.5,Win32,60,z,1,,,,,,,,0.86341,1,,,,,,268,NW,UN,16,orchet,PACKES,z,0.86341,,,,,,0.247222239,-0.200925993,0,0,0,,0,370,370,447,1,
,,,,,,,,,,,,,,,,,,5f863b1e4047781878fd5d21,2020-11-27_17h09.35.909,lexical_decision_task_MP_exp2,2020.2.5,Win32,60,z,1,,,,,,,,0.6513,1,,,,,,320,NW,"ID",33,jockal,JOCKAL,z,0.6513,,,,,,0.247222239,-0.200925993,0,0,0,,0,371,371,259,1,
,,,,,,,,,,,,,,,,,,5f863b1e4047781878fd5d21,2020-11-27_17h09.35.909,lexical_decision_task_MP_exp2,2020.2.5,Win32,60,m,1,,,,,,,,0.857675,1,,,,,,115,WORD,"ID",33,guitar,GUITAR,m,0.857675,,,,,,0.247222239,-0.200925993,0,0,0,,0,372,372,54,1,
,,,,,,,,,,,,,,,,,,5f863b1e4047781878fd5d21,2020-11-27_17h09.35.909,lexical_decision_task_MP_exp2,2020.2.5,Win32,60,z,1,,,,,,,,0.619435,1,,,,,,351,NW,"ID",33,tiesch,TIESCH,z,0.619435,,,,,,0.247222239,-0.200925993,0,0,0,,0,373,373,290,1,
,,,,,,,,,,,,,,,,,,5f863b1e4047781878fd5d21,2020-11-27_17h09.35.909,lexical_decision_task_MP_exp2,2020.2.5,Win32,60,m,1,,,,,,,,0.655275,1,,,,,,144,WORD,"ID",16,sponge,SPONGE,m,0.655275,,,,,,0.247222239,-0.200925993,0,0,0,,0,374,374,83,1,
,,,,,,,,,,,,,,,,,,5f863b1e4047781878fd5d21,2020-11-27_17h09.35.909,lexical_decision_task_MP_exp2,2020.2.5,Win32,60,z,1,,,,,,,,0.728725,1,,,,,,334,NW,"ID",33,watmeg,WATMEG,z,0.728725,,,,,,0.247222239,-0.200925993,0,0,0,,0,375,375,273,1,
,,,,,,,,,,,,,,,,,,5f863b1e4047781878fd5d21,2020-11-27_17h09.35.909,lexical_decision_task_MP_exp2,2020.2.5,Win32,60,m,1,,,,,,,,0.56422,1,,,,,,130,WORD,"ID",16,stupid,STUPID,m,0.56422,,,,,,0.247222239,-0.200925993,0,0,0,,0,376,376,69,1,
,,,,,,,,,,,,,,,,,,5f863b1e4047781878fd5d21,2020-11-27_17h09.35.909,lexical_decision_task_MP_exp2,2020.2.5,Win32,60,m,1,,,,,,,,0.636645,1,,,,,,167,WORD,"ID",16,design,DESIGN,m,0.636645,,,,,,0.247222239,-0.200925993,0,0,0,,0,377,377,106,1,
,,,,,,,,,,,,,,,,,,5f863b1e4047781878fd5d21,2020-11-27_17h09.35.909,lexical_decision_task_MP_exp2,2020.2.5,Win32,60,m,1,,,,,,,,0.55085,1,,,,,,29,WORD,UN,16,orient,SKETCH,m,0.55085,,,,,,0.247222239,-0.200925993,0,0,0,,0,378,378,208,1,
,,,,,,,,,,,,,,,,,,5f863b1e4047781878fd5d21,2020-11-27_17h09.35.909,lexical_decision_task_MP_exp2,2020.2.5,Win32,60,z,0,,,,,,,,0.637735,0,,,,,,10,WORD,UN,16,cruise,ETHNIC,m,0.637735,,,,,,0.247222239,-0.200925993,0,0,0,,0,379,379,189,1,
,,,,,,,,,,,,,,,,,,5f863b1e4047781878fd5d21,2020-11-27_17h09.35.909,lexical_decision_task_MP_exp2,2020.2.5,Win32,60,z,1,,,,,,,,0.654965,1,,,,,,471,NW,UN,33,cigney,NOBEST,z,0.654965,,,,,,0.247222239,-0.200925993,0,0,0,,0,380,380,410,1,
,,,,,,,,,,,,,,,,,,5f863b1e4047781878fd5d21,2020-11-27_17h09.35.909,lexical_decision_task_MP_exp2,2020.2.5,Win32,60,m,1,,,,,,,,0.59177,1,,,,,,93,WORD,"ID",33,public,PUBLIC,m,0.59177,,,,,,0.247222239,-0.200925993,0,0,0,,0,381,381,32,1,
,,,,,,,,,,,,,,,,,,5f863b1e4047781878fd5d21,2020-11-27_17h09.35.909,lexical_decision_task_MP_exp2,2020.2.5,Win32,60,z,1,,,,,,,,0.71417,1,,,,,,244,NW,UN,16,anougs,EATRIC,z,0.71417,,,,,,0.247222239,-0.200925993,0,0,0,,0,382,382,423,1,
,,,,,,,,,,,,,,,,,,5f863b1e4047781878fd5d21,2020-11-27_17h09.35.909,lexical_decision_task_MP_exp2,2020.2.5,Win32,60,z,0,,,,,,,,0.7455,0,,,,,,176,WORD,"ID",16,strife,STRIFE,m,0.7455,,,,,,0.247222239,-0.200925993,0,0,0,,0,383,383,115,1,
,,,,,,,,,,,,,,,,,,5f863b1e4047781878fd5d21,2020-11-27_17h09.35.909,lexical_decision_task_MP_exp2,2020.2.5,Win32,60,z,1,,,,,,,,0.51815,1,,,,,,330,NW,"ID",33,kensom,KENSOM,z,0.51815,,,,,,0.247222239,-0.200925993,0,0,0,,0,384,384,269,1,
,,,,,,,,,,,,,,,,,,5f863b1e4047781878fd5d21,2020-11-27_17h09.35.909,lexical_decision_task_MP_exp2,2020.2.5,Win32,60,m,1,,,,,,,,0.523675,1,,,,,,148,WORD,"ID",16,custom,CUSTOM,m,0.523675,,,,,,0.247222239,-0.200925993,0,0,0,,0,385,385,87,1,
,,,,,,,,,,,,,,,,,,5f863b1e4047781878fd5d21,2020-11-27_17h09.35.909,lexical_decision_task_MP_exp2,2020.2.5,Win32,60,m,1,,,,,,,,0.71587,1,,,,,,158,WORD,"ID",16,island,ISLAND,m,0.71587,,,,,,0.247222239,-0.200925993,0,0,0,,0,386,386,97,1,
,,,,,,,,,,,,,,,,,,5f863b1e4047781878fd5d21,2020-11-27_17h09.35.909,lexical_decision_task_MP_exp2,2020.2.5,Win32,60,z,1,,,,,,,,0.702395,1,,,,,,461,NW,UN,33,absult,JUSTRE,z,0.702395,,,,,,0.247222239,-0.200925993,0,0,0,,0,387,387,400,1,
,,,,,,,,,,,,,,,,,,5f863b1e4047781878fd5d21,2020-11-27_17h09.35.909,lexical_decision_task_MP_exp2,2020.2.5,Win32,60,m,1,,,,,,,,0.595865,1,,,,,,6,WORD,UN,16,anchor,BUNDLE,m,0.595865,,,,,,0.247222239,-0.200925993,0,0,0,,0,388,388,185,1,
,,,,,,,,,,,,,,,,,,5f863b1e4047781878fd5d21,2020-11-27_17h09.35.909,lexical_decision_task_MP_exp2,2020.2.5,Win32,60,m,1,,,,,,,,0.57986,1,,,,,,64,WORD,"ID",33,throne,THRONE,m,0.57986,,,,,,0.247222239,-0.200925993,0,0,0,,0,389,389,3,1,
,,,,,,,,,,,,,,,,,,5f863b1e4047781878fd5d21,2020-11-27_17h09.35.909,lexical_decision_task_MP_exp2,2020.2.5,Win32,60,m,1,,,,,,,,0.628525,1,,,,,,74,WORD,"ID",33,plaque,PLAQUE,m,0.628525,,,,,,0.247222239,-0.200925993,0,0,0,,0,390,390,13,1,
,,,,,,,,,,,,,,,,,,5f863b1e4047781878fd5d21,2020-11-27_17h09.35.909,lexical_decision_task_MP_exp2,2020.2.5,Win32,60,z,1,,,,,,,,0.682455,1,,,,,,253,NW,UN,16,varosh,RESAIT,z,0.682455,,,,,,0.247222239,-0.200925993,0,0,0,,0,391,391,432,1,
,,,,,,,,,,,,,,,,,,5f863b1e4047781878fd5d21,2020-11-27_17h09.35.909,lexical_decision_task_MP_exp2,2020.2.5,Win32,60,z,1,,,,,,,,0.645665,1,,,,,,329,NW,"ID",33,yarike,YARIKE,z,0.645665,,,,,,0.247222239,-0.200925993,0,0,0,,0,392,392,268,1,
,,,,,,,,,,,,,,,,,,5f863b1e4047781878fd5d21,2020-11-27_17h09.35.909,lexical_decision_task_MP_exp2,2020.2.5,Win32,60,z,1,,,,,,,,0.58065,1,,,,,,368,NW,"ID",16,hornal,HORNAL,z,0.58065,,,,,,0.247222239,-0.200925993,0,0,0,,0,393,393,307,1,
,,,,,,,,,,,,,,,,,,5f863b1e4047781878fd5d21,2020-11-27_17h09.35.909,lexical_decision_task_MP_exp2,2020.2.5,Win32,60,m,1,,,,,,,,0.60667,1,,,,,,102,WORD,"ID",33,direct,DIRECT,m,0.60667,,,,,,0.247222239,-0.200925993,0,0,0,,0,394,394,41,1,
