counterbalancing_condition,instr_done_keyboard.keys,instr_done_touch.x,instr_done_touch.y,instr_done_touch.leftButton,instr_done_touch.midButton,instr_done_touch.rightButton,instr_done_touch.clicked_name,instruction_pages.thisRepN,instruction_pages.thisTrialN,instruction_pages.thisN,instruction_pages.thisIndex,instruction_pages.ran,pageN,phase,instruct_text,has_image,instruct_image,participant,date,expName,psychopyVersion,OS,frameRate,instr_done_keyboard.rt,response.keys,response.corr,response.rt,touch_resp.x,touch_resp.y,touch_resp.leftButton,touch_resp.midButton,touch_resp.rightButton,touch_resp.time,touch_resp.clicked_name,rt,corr,practice_trials.thisRepN,practice_trials.thisTrialN,practice_trials.thisN,practice_trials.thisIndex,practice_trials.ran,TrialID,StimulusType,Condition,PrimeDuration,Prime,Target,corrAns,end_of_practice_trials_pages.thisRepN,end_of_practice_trials_pages.thisTrialN,end_of_practice_trials_pages.thisN,end_of_practice_trials_pages.thisIndex,end_of_practice_trials_pages.ran,break_done_touch.x,break_done_touch.y,break_done_touch.leftButton,break_done_touch.midButton,break_done_touch.rightButton,break_done_keyboard.keys,experiment_trials.thisRepN,experiment_trials.thisTrialN,experiment_trials.thisN,experiment_trials.thisIndex,experiment_trials.ran,break_done_keyboard.rt
2,,0.020555556,-0.392421875,1,0,0,instr_done_button,0,0,0,0,1,1,instructions,"INSTRUCTIONS
At the start of each trial, look at the hash marks (######) in the center of the screen. After a moment, a string of letters will appear. Your task is to indicate if the letter string forms a word or not (i.e., if it is a nonword). For example, AUTHOR is a word while AUTHON is a nonword.

Press the space bar or touch the button below to continue.",0,,5fa1462db029651fd1486dc8,2020-11-27_15h02.06.341,lexical_decision_task_MP_exp2,2020.2.5,MacIntel,60,,,,,,,,,,,,,,,,,,,,,,,,,,,,,,,,,,,,,,,,,,
,space,0.040763889,-0.400828993,0,0,0,,0,1,1,1,1,2,instructions,"If your device has a keyboard, press the 'Z' key for nonwords and the 'M' key for words.





Press the space bar or touch the button below to continue.",1,keyboard-example.gif,5fa1462db029651fd1486dc8,2020-11-27_15h02.06.341,lexical_decision_task_MP_exp2,2020.2.5,MacIntel,60,7.153795,,,,,,,,,,,,,,,,,,,,,,,,,,,,,,,,,,,,,,,,,
,space,0.040763889,-0.400828993,0,0,0,,0,2,2,2,1,3,instructions,"If you are using a touchscreen only device, use the buttons on the screen. Do not use the mouse.





Press the space bar or touch the button below to continue.",1,touchscreen-example.gif,5fa1462db029651fd1486dc8,2020-11-27_15h02.06.341,lexical_decision_task_MP_exp2,2020.2.5,MacIntel,60,7.513355,,,,,,,,,,,,,,,,,,,,,,,,,,,,,,,,,,,,,,,,,
,space,0.040763889,-0.400828993,0,0,0,,0,3,3,3,1,4,instructions,"It is very important that you respond as quickly and accurately as possible, as each letter string will only be on the screen for two seconds. If you do not respond within this time, the message 'Too slow!' will be displayed and the experiment will progress to the next letter string. The first 20 trials will be practice trials and you will receive feedback on your answers. 

Press the space bar or touch the button below to start the practice trials.",0,,5fa1462db029651fd1486dc8,2020-11-27_15h02.06.341,lexical_decision_task_MP_exp2,2020.2.5,MacIntel,60,7.16568,,,,,,,,,,,,,,,,,,,,,,,,,,,,,,,,,,,,,,,,,
,,,,,,,,,,,,,,,,,,5fa1462db029651fd1486dc8,2020-11-27_15h02.06.341,lexical_decision_task_MP_exp2,2020.2.5,MacIntel,60,,m,1,0.891295,,,,,,,,0.891295,1,0,0,0,1,1,1002,WORD,"ID",33,adjust,ADJUST,m,,,,,,,,,,,,,,,,,
,,,,,,,,,,,,,,,,,,5fa1462db029651fd1486dc8,2020-11-27_15h02.06.341,lexical_decision_task_MP_exp2,2020.2.5,MacIntel,60,,z,1,0.663585,,,,,,,,0.663585,1,0,1,1,11,1,1012,NW,"ID",16,rashet,RASHET,z,,,,,,,,,,,,,,,,,
,,,,,,,,,,,,,,,,,,5fa1462db029651fd1486dc8,2020-11-27_15h02.06.341,lexical_decision_task_MP_exp2,2020.2.5,MacIntel,60,,z,1,0.521035,,,,,,,,0.521035,1,0,2,2,12,1,1013,NW,UN,33,adveil,SPRINY,z,,,,,,,,,,,,,,,,,
,,,,,,,,,,,,,,,,,,5fa1462db029651fd1486dc8,2020-11-27_15h02.06.341,lexical_decision_task_MP_exp2,2020.2.5,MacIntel,60,,z,1,0.681665,,,,,,,,0.681665,1,0,3,3,9,1,1010,NW,"ID",33,fariny,FARINY,z,,,,,,,,,,,,,,,,,
,,,,,,,,,,,,,,,,,,5fa1462db029651fd1486dc8,2020-11-27_15h02.06.341,lexical_decision_task_MP_exp2,2020.2.5,MacIntel,60,,m,1,0.614865,,,,,,,,0.614865,1,0,4,4,5,1,1006,WORD,UN,33,frenzy,OBTAIN,m,,,,,,,,,,,,,,,,,
,,,,,,,,,,,,,,,,,,5fa1462db029651fd1486dc8,2020-11-27_15h02.06.341,lexical_decision_task_MP_exp2,2020.2.5,MacIntel,60,,z,1,0.55467,,,,,,,,0.55467,1,0,5,5,13,1,1014,NW,UN,33,winfer,ROUPET,z,,,,,,,,,,,,,,,,,
,,,,,,,,,,,,,,,,,,5fa1462db029651fd1486dc8,2020-11-27_15h02.06.341,lexical_decision_task_MP_exp2,2020.2.5,MacIntel,60,,m,1,0.59663,,,,,,,,0.59663,1,0,6,6,3,1,1004,WORD,"ID",16,matrix,MATRIX,m,,,,,,,,,,,,,,,,,
,,,,,,,,,,,,,,,,,,5fa1462db029651fd1486dc8,2020-11-27_15h02.06.341,lexical_decision_task_MP_exp2,2020.2.5,MacIntel,60,,z,1,0.63184,,,,,,,,0.63184,1,0,7,7,8,1,1009,NW,"ID",33,aslert,ASLERT,z,,,,,,,,,,,,,,,,,
,,,,,,,,,,,,,,,,,,5fa1462db029651fd1486dc8,2020-11-27_15h02.06.341,lexical_decision_task_MP_exp2,2020.2.5,MacIntel,60,,z,0,0.44092,,,,,,,,0.44092,0,0,8,8,4,1,1005,WORD,UN,33,abound,SQUEAK,m,,,,,,,,,,,,,,,,,
,,,,,,,,,,,,,,,,,,5fa1462db029651fd1486dc8,2020-11-27_15h02.06.341,lexical_decision_task_MP_exp2,2020.2.5,MacIntel,60,,z,0,0.58396,,,,,,,,0.58396,0,0,9,9,6,1,1007,WORD,UN,16,tropic,ZOMBIE,m,,,,,,,,,,,,,,,,,
,,,,,,,,,,,,,,,,,,5fa1462db029651fd1486dc8,2020-11-27_15h02.06.341,lexical_decision_task_MP_exp2,2020.2.5,MacIntel,60,,m,1,0.71752,,,,,,,,0.71752,1,0,10,10,0,1,1001,WORD,"ID",33,utopia,UTOPIA,m,,,,,,,,,,,,,,,,,
,,,,,,,,,,,,,,,,,,5fa1462db029651fd1486dc8,2020-11-27_15h02.06.341,lexical_decision_task_MP_exp2,2020.2.5,MacIntel,60,,z,1,0.615525,,,,,,,,0.615525,1,0,11,11,15,1,1016,NW,UN,16,mushed,WHAISE,z,,,,,,,,,,,,,,,,,
,,,,,,,,,,,,,,,,,,5fa1462db029651fd1486dc8,2020-11-27_15h02.06.341,lexical_decision_task_MP_exp2,2020.2.5,MacIntel,60,,m,1,0.52962,,,,,,,,0.52962,1,0,12,12,7,1,1008,WORD,UN,16,hurdle,VOLUME,m,,,,,,,,,,,,,,,,,
,,,,,,,,,,,,,,,,,,5fa1462db029651fd1486dc8,2020-11-27_15h02.06.341,lexical_decision_task_MP_exp2,2020.2.5,MacIntel,60,,z,1,0.501825,,,,,,,,0.501825,1,0,13,13,10,1,1011,NW,"ID",16,inlade,INLADE,z,,,,,,,,,,,,,,,,,
,,,,,,,,,,,,,,,,,,5fa1462db029651fd1486dc8,2020-11-27_15h02.06.341,lexical_decision_task_MP_exp2,2020.2.5,MacIntel,60,,z,1,0.40168,,,,,,,,0.40168,1,0,14,14,14,1,1015,NW,UN,16,miaber,THRALE,z,,,,,,,,,,,,,,,,,
,,,,,,,,,,,,,,,,,,5fa1462db029651fd1486dc8,2020-11-27_15h02.06.341,lexical_decision_task_MP_exp2,2020.2.5,MacIntel,60,,z,0,0.431875,,,,,,,,0.431875,0,0,15,15,2,1,1003,WORD,"ID",16,almond,ALMOND,m,,,,,,,,,,,,,,,,,
,space,0.040763889,-0.400828993,0,0,0,,,,,,,1,end_of_practice,"You have completed the practice trials. During the experimental trials, you will not receive feedback, but it is very important that you respond as quickly and accurately as possible. 
Before you begin, please ensure that you are in a comfortable and quiet location and will not be disturbed for about 15 minutes, as we cannot use your data if you do not complete all the trials. 
There will be opportunities to take breaks at regular intervals during the experiment. When you are ready to start the experimental trials, please press space or touch the button below.",,,5fa1462db029651fd1486dc8,2020-11-27_15h02.06.341,lexical_decision_task_MP_exp2,2020.2.5,MacIntel,60,18.098765,,,,,,,,,,,,,,,,,,,,,,,,,0,0,0,0,1,,,,,,,,,,,,
,,,,,,,,,,,,,,,,,,5fa1462db029651fd1486dc8,2020-11-27_15h02.06.341,lexical_decision_task_MP_exp2,2020.2.5,MacIntel,60,,m,1,0.513745,,,,,,,,0.513745,1,,,,,,136,WORD,"ID",16,bleach,BLEACH,m,,,,,,0.040763889,-0.400828993,0,0,0,,0,0,0,75,1,
,,,,,,,,,,,,,,,,,,5fa1462db029651fd1486dc8,2020-11-27_15h02.06.341,lexical_decision_task_MP_exp2,2020.2.5,MacIntel,60,,m,0,0.48241,,,,,,,,0.48241,0,,,,,,327,NW,"ID",33,plenac,PLENAC,z,,,,,,0.040763889,-0.400828993,0,0,0,,0,1,1,266,1,
,,,,,,,,,,,,,,,,,,5fa1462db029651fd1486dc8,2020-11-27_15h02.06.341,lexical_decision_task_MP_exp2,2020.2.5,MacIntel,60,,m,1,0.538585,,,,,,,,0.538585,1,,,,,,27,WORD,UN,16,comedy,SCREAM,m,,,,,,0.040763889,-0.400828993,0,0,0,,0,2,2,206,1,
,,,,,,,,,,,,,,,,,,5fa1462db029651fd1486dc8,2020-11-27_15h02.06.341,lexical_decision_task_MP_exp2,2020.2.5,MacIntel,60,,z,0,0.54799,,,,,,,,0.54799,0,,,,,,129,WORD,"ID",16,marvel,MARVEL,m,,,,,,0.040763889,-0.400828993,0,0,0,,0,3,3,68,1,
,,,,,,,,,,,,,,,,,,5fa1462db029651fd1486dc8,2020-11-27_15h02.06.341,lexical_decision_task_MP_exp2,2020.2.5,MacIntel,60,,z,1,0.584635,,,,,,,,0.584635,1,,,,,,280,NW,UN,16,melaty,CURBOL,z,,,,,,0.040763889,-0.400828993,0,0,0,,0,4,4,459,1,
,,,,,,,,,,,,,,,,,,5fa1462db029651fd1486dc8,2020-11-27_15h02.06.341,lexical_decision_task_MP_exp2,2020.2.5,MacIntel,60,,z,1,0.684575,,,,,,,,0.684575,1,,,,,,269,NW,UN,16,wrimsy,ORCHET,z,,,,,,0.040763889,-0.400828993,0,0,0,,0,5,5,448,1,
,,,,,,,,,,,,,,,,,,5fa1462db029651fd1486dc8,2020-11-27_15h02.06.341,lexical_decision_task_MP_exp2,2020.2.5,MacIntel,60,,z,1,0.518925,,,,,,,,0.518925,1,,,,,,346,NW,"ID",33,saudic,SAUDIC,z,,,,,,0.040763889,-0.400828993,0,0,0,,0,6,6,285,1,
,,,,,,,,,,,,,,,,,,5fa1462db029651fd1486dc8,2020-11-27_15h02.06.341,lexical_decision_task_MP_exp2,2020.2.5,MacIntel,60,,z,0,0.41434,,,,,,,,0.41434,0,,,,,,3,WORD,UN,16,trench,KNIGHT,m,,,,,,0.040763889,-0.400828993,0,0,0,,0,7,7,182,1,
,,,,,,,,,,,,,,,,,,5fa1462db029651fd1486dc8,2020-11-27_15h02.06.341,lexical_decision_task_MP_exp2,2020.2.5,MacIntel,60,,m,0,0.58421,,,,,,,,0.58421,0,,,,,,267,NW,UN,16,packes,PASINK,z,,,,,,0.040763889,-0.400828993,0,0,0,,0,8,8,446,1,
,,,,,,,,,,,,,,,,,,5fa1462db029651fd1486dc8,2020-11-27_15h02.06.341,lexical_decision_task_MP_exp2,2020.2.5,MacIntel,60,,m,1,0.66008,,,,,,,,0.66008,1,,,,,,215,WORD,UN,33,lumber,PHOBIA,m,,,,,,0.040763889,-0.400828993,0,0,0,,0,9,9,154,1,
,,,,,,,,,,,,,,,,,,5fa1462db029651fd1486dc8,2020-11-27_15h02.06.341,lexical_decision_task_MP_exp2,2020.2.5,MacIntel,60,,z,1,0.582915,,,,,,,,0.582915,1,,,,,,477,NW,UN,33,lobush,PHOTIE,z,,,,,,0.040763889,-0.400828993,0,0,0,,0,10,10,416,1,
,,,,,,,,,,,,,,,,,,5fa1462db029651fd1486dc8,2020-11-27_15h02.06.341,lexical_decision_task_MP_exp2,2020.2.5,MacIntel,60,,m,1,0.469495,,,,,,,,0.469495,1,,,,,,12,WORD,UN,16,strive,ORANGE,m,,,,,,0.040763889,-0.400828993,0,0,0,,0,11,11,191,1,
,,,,,,,,,,,,,,,,,,5fa1462db029651fd1486dc8,2020-11-27_15h02.06.341,lexical_decision_task_MP_exp2,2020.2.5,MacIntel,60,,m,1,0.43566,,,,,,,,0.43566,1,,,,,,41,WORD,UN,16,chapel,SPRING,m,,,,,,0.040763889,-0.400828993,0,0,0,,0,12,12,220,1,
,,,,,,,,,,,,,,,,,,5fa1462db029651fd1486dc8,2020-11-27_15h02.06.341,lexical_decision_task_MP_exp2,2020.2.5,MacIntel,60,,z,0,0.635115,,,,,,,,0.635115,0,,,,,,28,WORD,UN,16,sketch,COMEDY,m,,,,,,0.040763889,-0.400828993,0,0,0,,0,13,13,207,1,
,,,,,,,,,,,,,,,,,,5fa1462db029651fd1486dc8,2020-11-27_15h02.06.341,lexical_decision_task_MP_exp2,2020.2.5,MacIntel,60,,m,0,0.56522,,,,,,,,0.56522,0,,,,,,303,NW,"ID",33,fiream,FIREAM,z,,,,,,0.040763889,-0.400828993,0,0,0,,0,14,14,242,1,
,,,,,,,,,,,,,,,,,,5fa1462db029651fd1486dc8,2020-11-27_15h02.06.341,lexical_decision_task_MP_exp2,2020.2.5,MacIntel,60,,z,0,0.48077,,,,,,,,0.48077,0,,,,,,57,WORD,UN,16,danger,CHANGE,m,,,,,,0.040763889,-0.400828993,0,0,0,,0,15,15,236,1,
,,,,,,,,,,,,,,,,,,5fa1462db029651fd1486dc8,2020-11-27_15h02.06.341,lexical_decision_task_MP_exp2,2020.2.5,MacIntel,60,,z,1,0.747375,,,,,,,,0.747375,1,,,,,,375,NW,"ID",16,yorque,YORQUE,z,,,,,,0.040763889,-0.400828993,0,0,0,,0,16,16,314,1,
,,,,,,,,,,,,,,,,,,5fa1462db029651fd1486dc8,2020-11-27_15h02.06.341,lexical_decision_task_MP_exp2,2020.2.5,MacIntel,60,,z,1,0.57119,,,,,,,,0.57119,1,,,,,,419,NW,"ID",16,slount,SLOUNT,z,,,,,,0.040763889,-0.400828993,0,0,0,,0,17,17,358,1,
,,,,,,,,,,,,,,,,,,5fa1462db029651fd1486dc8,2020-11-27_15h02.06.341,lexical_decision_task_MP_exp2,2020.2.5,MacIntel,60,,z,0,0.580415,,,,,,,,0.580415,0,,,,,,176,WORD,"ID",16,strife,STRIFE,m,,,,,,0.040763889,-0.400828993,0,0,0,,0,18,18,115,1,
,,,,,,,,,,,,,,,,,,5fa1462db029651fd1486dc8,2020-11-27_15h02.06.341,lexical_decision_task_MP_exp2,2020.2.5,MacIntel,60,,m,1,0.59734,,,,,,,,0.59734,1,,,,,,128,WORD,"ID",16,senior,SENIOR,m,,,,,,0.040763889,-0.400828993,0,0,0,,0,19,19,67,1,
,,,,,,,,,,,,,,,,,,5fa1462db029651fd1486dc8,2020-11-27_15h02.06.341,lexical_decision_task_MP_exp2,2020.2.5,MacIntel,60,,m,1,0.517795,,,,,,,,0.517795,1,,,,,,151,WORD,"ID",16,mystic,MYSTIC,m,,,,,,0.040763889,-0.400828993,0,0,0,,0,20,20,90,1,
,,,,,,,,,,,,,,,,,,5fa1462db029651fd1486dc8,2020-11-27_15h02.06.341,lexical_decision_task_MP_exp2,2020.2.5,MacIntel,60,,m,1,0.452325,,,,,,,,0.452325,1,,,,,,62,WORD,"ID",33,region,REGION,m,,,,,,0.040763889,-0.400828993,0,0,0,,0,21,21,1,1,
,,,,,,,,,,,,,,,,,,5fa1462db029651fd1486dc8,2020-11-27_15h02.06.341,lexical_decision_task_MP_exp2,2020.2.5,MacIntel,60,,m,1,0.43221,,,,,,,,0.43221,1,,,,,,158,WORD,"ID",16,island,ISLAND,m,,,,,,0.040763889,-0.400828993,0,0,0,,0,22,22,97,1,
,,,,,,,,,,,,,,,,,,5fa1462db029651fd1486dc8,2020-11-27_15h02.06.341,lexical_decision_task_MP_exp2,2020.2.5,MacIntel,60,,z,1,0.851045,,,,,,,,0.851045,1,,,,,,342,NW,"ID",33,randow,RANDOW,z,,,,,,0.040763889,-0.400828993,0,0,0,,0,23,23,281,1,
,,,,,,,,,,,,,,,,,,5fa1462db029651fd1486dc8,2020-11-27_15h02.06.341,lexical_decision_task_MP_exp2,2020.2.5,MacIntel,60,,m,1,0.84853,,,,,,,,0.84853,1,,,,,,222,WORD,UN,33,export,HINDER,m,,,,,,0.040763889,-0.400828993,0,0,0,,0,24,24,161,1,
,,,,,,,,,,,,,,,,,,5fa1462db029651fd1486dc8,2020-11-27_15h02.06.341,lexical_decision_task_MP_exp2,2020.2.5,MacIntel,60,,m,1,0.55219,,,,,,,,0.55219,1,,,,,,32,WORD,UN,16,scream,BUCKLE,m,,,,,,0.040763889,-0.400828993,0,0,0,,0,25,25,211,1,
,,,,,,,,,,,,,,,,,,5fa1462db029651fd1486dc8,2020-11-27_15h02.06.341,lexical_decision_task_MP_exp2,2020.2.5,MacIntel,60,,z,1,0.570295,,,,,,,,0.570295,1,,,,,,326,NW,"ID",33,iguade,IGUADE,z,,,,,,0.040763889,-0.400828993,0,0,0,,0,26,26,265,1,
,,,,,,,,,,,,,,,,,,5fa1462db029651fd1486dc8,2020-11-27_15h02.06.341,lexical_decision_task_MP_exp2,2020.2.5,MacIntel,60,,z,1,0.71532,,,,,,,,0.71532,1,,,,,,416,NW,"ID",16,pathel,PATHEL,z,,,,,,0.040763889,-0.400828993,0,0,0,,0,27,27,355,1,
,,,,,,,,,,,,,,,,,,5fa1462db029651fd1486dc8,2020-11-27_15h02.06.341,lexical_decision_task_MP_exp2,2020.2.5,MacIntel,60,,z,1,0.45582,,,,,,,,0.45582,1,,,,,,337,NW,"ID",33,rejols,REJOLS,z,,,,,,0.040763889,-0.400828993,0,0,0,,0,28,28,276,1,
,,,,,,,,,,,,,,,,,,5fa1462db029651fd1486dc8,2020-11-27_15h02.06.341,lexical_decision_task_MP_exp2,2020.2.5,MacIntel,60,,z,1,0.530975,,,,,,,,0.530975,1,,,,,,401,NW,"ID",16,mustil,MUSTIL,z,,,,,,0.040763889,-0.400828993,0,0,0,,0,29,29,340,1,
,,,,,,,,,,,,,,,,,,5fa1462db029651fd1486dc8,2020-11-27_15h02.06.341,lexical_decision_task_MP_exp2,2020.2.5,MacIntel,60,,m,1,0.51498,,,,,,,,0.51498,1,,,,,,130,WORD,"ID",16,stupid,STUPID,m,,,,,,0.040763889,-0.400828993,0,0,0,,0,30,30,69,1,
,,,,,,,,,,,,,,,,,,5fa1462db029651fd1486dc8,2020-11-27_15h02.06.341,lexical_decision_task_MP_exp2,2020.2.5,MacIntel,60,,m,1,0.535025,,,,,,,,0.535025,1,,,,,,211,WORD,UN,33,verify,INFECT,m,,,,,,0.040763889,-0.400828993,0,0,0,,0,31,31,150,1,
,,,,,,,,,,,,,,,,,,5fa1462db029651fd1486dc8,2020-11-27_15h02.06.341,lexical_decision_task_MP_exp2,2020.2.5,MacIntel,60,,m,0,0.64992,,,,,,,,0.64992,0,,,,,,440,NW,UN,33,rastoe,SARIDE,z,,,,,,0.040763889,-0.400828993,0,0,0,,0,32,32,379,1,
,,,,,,,,,,,,,,,,,,5fa1462db029651fd1486dc8,2020-11-27_15h02.06.341,lexical_decision_task_MP_exp2,2020.2.5,MacIntel,60,,m,0,0.5478,,,,,,,,0.5478,0,,,,,,341,NW,"ID",33,myrtie,MYRTIE,z,,,,,,0.040763889,-0.400828993,0,0,0,,0,33,33,280,1,
,,,,,,,,,,,,,,,,,,5fa1462db029651fd1486dc8,2020-11-27_15h02.06.341,lexical_decision_task_MP_exp2,2020.2.5,MacIntel,60,,m,1,0.61783,,,,,,,,0.61783,1,,,,,,35,WORD,UN,16,vanish,SOCKET,m,,,,,,0.040763889,-0.400828993,0,0,0,,0,34,34,214,1,
,,,,,,,,,,,,,,,,,,5fa1462db029651fd1486dc8,2020-11-27_15h02.06.341,lexical_decision_task_MP_exp2,2020.2.5,MacIntel,60,,z,1,0.51882,,,,,,,,0.51882,1,,,,,,402,NW,"ID",16,syntic,SYNTIC,z,,,,,,0.040763889,-0.400828993,0,0,0,,0,35,35,341,1,
,,,,,,,,,,,,,,,,,,5fa1462db029651fd1486dc8,2020-11-27_15h02.06.341,lexical_decision_task_MP_exp2,2020.2.5,MacIntel,60,,z,0,0.515575,,,,,,,,0.515575,0,,,,,,170,WORD,"ID",16,pounce,POUNCE,m,,,,,,0.040763889,-0.400828993,0,0,0,,0,36,36,109,1,
,,,,,,,,,,,,,,,,,,5fa1462db029651fd1486dc8,2020-11-27_15h02.06.341,lexical_decision_task_MP_exp2,2020.2.5,MacIntel,60,,m,0,0.555055,,,,,,,,0.555055,0,,,,,,460,NW,UN,33,justre,MINGAR,z,,,,,,0.040763889,-0.400828993,0,0,0,,0,37,37,399,1,
,,,,,,,,,,,,,,,,,,5fa1462db029651fd1486dc8,2020-11-27_15h02.06.341,lexical_decision_task_MP_exp2,2020.2.5,MacIntel,60,,m,1,0.56544,,,,,,,,0.56544,1,,,,,,133,WORD,"ID",16,chrome,CHROME,m,,,,,,0.040763889,-0.400828993,0,0,0,,0,38,38,72,1,
,,,,,,,,,,,,,,,,,,5fa1462db029651fd1486dc8,2020-11-27_15h02.06.341,lexical_decision_task_MP_exp2,2020.2.5,MacIntel,60,,z,0,0.769905,,,,,,,,0.769905,0,,,,,,225,WORD,UN,33,casino,VULGAR,m,,,,,,0.040763889,-0.400828993,0,0,0,,0,39,39,164,1,
,,,,,,,,,,,,,,,,,,5fa1462db029651fd1486dc8,2020-11-27_15h02.06.341,lexical_decision_task_MP_exp2,2020.2.5,MacIntel,60,,m,1,0.632585,,,,,,,,0.632585,1,,,,,,162,WORD,"ID",16,candle,CANDLE,m,,,,,,0.040763889,-0.400828993,0,0,0,,0,40,40,101,1,
,,,,,,,,,,,,,,,,,,5fa1462db029651fd1486dc8,2020-11-27_15h02.06.341,lexical_decision_task_MP_exp2,2020.2.5,MacIntel,60,,z,1,0.698545,,,,,,,,0.698545,1,,,,,,372,NW,"ID",16,ramily,RAMILY,z,,,,,,0.040763889,-0.400828993,0,0,0,,0,41,41,311,1,
,,,,,,,,,,,,,,,,,,5fa1462db029651fd1486dc8,2020-11-27_15h02.06.341,lexical_decision_task_MP_exp2,2020.2.5,MacIntel,60,,z,0,0.47108,,,,,,,,0.47108,0,,,,,,209,WORD,UN,33,monkey,SEARCH,m,,,,,,0.040763889,-0.400828993,0,0,0,,0,42,42,148,1,
,,,,,,,,,,,,,,,,,,5fa1462db029651fd1486dc8,2020-11-27_15h02.06.341,lexical_decision_task_MP_exp2,2020.2.5,MacIntel,60,,m,1,0.804675,,,,,,,,0.804675,1,,,,,,98,WORD,"ID",33,belong,BELONG,m,,,,,,0.040763889,-0.400828993,0,0,0,,0,43,43,37,1,
,,,,,,,,,,,,,,,,,,5fa1462db029651fd1486dc8,2020-11-27_15h02.06.341,lexical_decision_task_MP_exp2,2020.2.5,MacIntel,60,,m,1,0.466985,,,,,,,,0.466985,1,,,,,,55,WORD,UN,16,ambush,STROKE,m,,,,,,0.040763889,-0.400828993,0,0,0,,0,44,44,234,1,
,,,,,,,,,,,,,,,,,,5fa1462db029651fd1486dc8,2020-11-27_15h02.06.341,lexical_decision_task_MP_exp2,2020.2.5,MacIntel,60,,m,1,0.43887,,,,,,,,0.43887,1,,,,,,135,WORD,"ID",16,import,IMPORT,m,,,,,,0.040763889,-0.400828993,0,0,0,,0,45,45,74,1,
,,,,,,,,,,,,,,,,,,5fa1462db029651fd1486dc8,2020-11-27_15h02.06.341,lexical_decision_task_MP_exp2,2020.2.5,MacIntel,60,,m,1,0.481145,,,,,,,,0.481145,1,,,,,,13,WORD,UN,16,almost,STRIVE,m,,,,,,0.040763889,-0.400828993,0,0,0,,0,46,46,192,1,
,,,,,,,,,,,,,,,,,,5fa1462db029651fd1486dc8,2020-11-27_15h02.06.341,lexical_decision_task_MP_exp2,2020.2.5,MacIntel,60,,z,1,0.63142,,,,,,,,0.63142,1,,,,,,291,NW,UN,16,ablint,PRETCH,z,,,,,,0.040763889,-0.400828993,0,0,0,,0,47,47,470,1,
,,,,,,,,,,,,,,,,,,5fa1462db029651fd1486dc8,2020-11-27_15h02.06.341,lexical_decision_task_MP_exp2,2020.2.5,MacIntel,60,,m,1,0.51716,,,,,,,,0.51716,1,,,,,,75,WORD,"ID",33,trophy,TROPHY,m,,,,,,0.040763889,-0.400828993,0,0,0,,0,48,48,14,1,
,,,,,,,,,,,,,,,,,,5fa1462db029651fd1486dc8,2020-11-27_15h02.06.341,lexical_decision_task_MP_exp2,2020.2.5,MacIntel,60,,z,1,0.58464,,,,,,,,0.58464,1,,,,,,311,NW,"ID",33,sproly,SPROLY,z,,,,,,0.040763889,-0.400828993,0,0,0,,0,49,49,250,1,
,,,,,,,,,,,,,,,,,,5fa1462db029651fd1486dc8,2020-11-27_15h02.06.341,lexical_decision_task_MP_exp2,2020.2.5,MacIntel,60,,m,1,0.48284,,,,,,,,0.48284,1,,,,,,154,WORD,"ID",16,author,AUTHOR,m,,,,,,0.040763889,-0.400828993,0,0,0,,0,50,50,93,1,
,,,,,,,,,,,,,,,,,,5fa1462db029651fd1486dc8,2020-11-27_15h02.06.341,lexical_decision_task_MP_exp2,2020.2.5,MacIntel,60,,z,1,0.7042,,,,,,,,0.7042,1,,,,,,427,NW,UN,33,tandly,SCHIND,z,,,,,,0.040763889,-0.400828993,0,0,0,,0,51,51,366,1,
,,,,,,,,,,,,,,,,,,5fa1462db029651fd1486dc8,2020-11-27_15h02.06.341,lexical_decision_task_MP_exp2,2020.2.5,MacIntel,60,,z,1,0.5984,,,,,,,,0.5984,1,,,,,,297,NW,UN,16,piergy,FERTIC,z,,,,,,0.040763889,-0.400828993,0,0,0,,0,52,52,476,1,
,,,,,,,,,,,,,,,,,,5fa1462db029651fd1486dc8,2020-11-27_15h02.06.341,lexical_decision_task_MP_exp2,2020.2.5,MacIntel,60,,z,1,0.63328,,,,,,,,0.63328,1,,,,,,307,NW,"ID",33,kirafe,KIRAFE,z,,,,,,0.040763889,-0.400828993,0,0,0,,0,53,53,246,1,
,,,,,,,,,,,,,,,,,,5fa1462db029651fd1486dc8,2020-11-27_15h02.06.341,lexical_decision_task_MP_exp2,2020.2.5,MacIntel,60,,z,1,0.78887,,,,,,,,0.78887,1,,,,,,405,NW,"ID",16,flumni,FLUMNI,z,,,,,,0.040763889,-0.400828993,0,0,0,,0,54,54,344,1,
,,,,,,,,,,,,,,,,,,5fa1462db029651fd1486dc8,2020-11-27_15h02.06.341,lexical_decision_task_MP_exp2,2020.2.5,MacIntel,60,,m,1,0.516535,,,,,,,,0.516535,1,,,,,,87,WORD,"ID",33,filter,FILTER,m,,,,,,0.040763889,-0.400828993,0,0,0,,0,55,55,26,1,
,,,,,,,,,,,,,,,,,,5fa1462db029651fd1486dc8,2020-11-27_15h02.06.341,lexical_decision_task_MP_exp2,2020.2.5,MacIntel,60,,z,1,0.632035,,,,,,,,0.632035,1,,,,,,462,NW,UN,33,kispel,ABSULT,z,,,,,,0.040763889,-0.400828993,0,0,0,,0,56,56,401,1,
,,,,,,,,,,,,,,,,,,5fa1462db029651fd1486dc8,2020-11-27_15h02.06.341,lexical_decision_task_MP_exp2,2020.2.5,MacIntel,60,,m,1,0.70599,,,,,,,,0.70599,1,,,,,,204,WORD,UN,33,lounge,BURDEN,m,,,,,,0.040763889,-0.400828993,0,0,0,,0,57,57,143,1,
,,,,,,,,,,,,,,,,,,5fa1462db029651fd1486dc8,2020-11-27_15h02.06.341,lexical_decision_task_MP_exp2,2020.2.5,MacIntel,60,,m,1,0.432555,,,,,,,,0.432555,1,,,,,,193,WORD,UN,33,mildew,OBJECT,m,,,,,,0.040763889,-0.400828993,0,0,0,,0,58,58,132,1,
,,,,,,,,,,,,,,,,,,5fa1462db029651fd1486dc8,2020-11-27_15h02.06.341,lexical_decision_task_MP_exp2,2020.2.5,MacIntel,60,,z,1,0.515815,,,,,,,,0.515815,1,,,,,,262,NW,UN,16,dolica,QUILEW,z,,,,,,0.040763889,-0.400828993,0,0,0,,0,59,59,441,1,
,,,,,,,,,,,,,,,,,,5fa1462db029651fd1486dc8,2020-11-27_15h02.06.341,lexical_decision_task_MP_exp2,2020.2.5,MacIntel,60,,m,0,0.651145,,,,,,,,0.651145,0,,,,,,409,NW,"ID",16,elopia,ELOPIA,z,,,,,,0.040763889,-0.400828993,0,0,0,,0,60,60,348,1,
,,,,,,,,,,,,,,,,,,5fa1462db029651fd1486dc8,2020-11-27_15h02.06.341,lexical_decision_task_MP_exp2,2020.2.5,MacIntel,60,,z,1,0.797625,,,,,,,,0.797625,1,,,,,,400,NW,"ID",16,wearox,WEAROX,z,,,,,,0.040763889,-0.400828993,0,0,0,,0,61,61,339,1,
,,,,,,,,,,,,,,,,,,5fa1462db029651fd1486dc8,2020-11-27_15h02.06.341,lexical_decision_task_MP_exp2,2020.2.5,MacIntel,60,,m,1,0.581155,,,,,,,,0.581155,1,,,,,,22,WORD,UN,16,wealth,JOCKEY,m,,,,,,0.040763889,-0.400828993,0,0,0,,0,62,62,201,1,
,,,,,,,,,,,,,,,,,,5fa1462db029651fd1486dc8,2020-11-27_15h02.06.341,lexical_decision_task_MP_exp2,2020.2.5,MacIntel,60,,m,1,0.453815,,,,,,,,0.453815,1,,,,,,117,WORD,"ID",33,branch,BRANCH,m,,,,,,0.040763889,-0.400828993,0,0,0,,0,63,63,56,1,
,,,,,,,,,,,,,,,,,,5fa1462db029651fd1486dc8,2020-11-27_15h02.06.341,lexical_decision_task_MP_exp2,2020.2.5,MacIntel,60,,z,1,0.450005,,,,,,,,0.450005,1,,,,,,349,NW,"ID",33,asylen,ASYLEN,z,,,,,,0.040763889,-0.400828993,0,0,0,,0,64,64,288,1,
,,,,,,,,,,,,,,,,,,5fa1462db029651fd1486dc8,2020-11-27_15h02.06.341,lexical_decision_task_MP_exp2,2020.2.5,MacIntel,60,,z,0,0.43131,,,,,,,,0.43131,0,,,,,,124,WORD,"ID",16,blouse,BLOUSE,m,,,,,,0.040763889,-0.400828993,0,0,0,,0,65,65,63,1,
,,,,,,,,,,,,,,,,,,5fa1462db029651fd1486dc8,2020-11-27_15h02.06.341,lexical_decision_task_MP_exp2,2020.2.5,MacIntel,60,,m,1,0.435295,,,,,,,,0.435295,1,,,,,,164,WORD,"ID",16,market,MARKET,m,,,,,,0.040763889,-0.400828993,0,0,0,,0,66,66,103,1,
,,,,,,,,,,,,,,,,,,5fa1462db029651fd1486dc8,2020-11-27_15h02.06.341,lexical_decision_task_MP_exp2,2020.2.5,MacIntel,60,,z,0,0.56973,,,,,,,,0.56973,0,,,,,,194,WORD,UN,33,resign,ABSENT,m,,,,,,0.040763889,-0.400828993,0,0,0,,0,67,67,133,1,
,,,,,,,,,,,,,,,,,,5fa1462db029651fd1486dc8,2020-11-27_15h02.06.341,lexical_decision_task_MP_exp2,2020.2.5,MacIntel,60,,m,0,0.57275,,,,,,,,0.57275,0,,,,,,316,NW,"ID",33,scregm,SCREGM,z,,,,,,0.040763889,-0.400828993,0,0,0,,0,68,68,255,1,
,,,,,,,,,,,,,,,,,,5fa1462db029651fd1486dc8,2020-11-27_15h02.06.341,lexical_decision_task_MP_exp2,2020.2.5,MacIntel,60,,z,1,0.82641,,,,,,,,0.82641,1,,,,,,370,NW,"ID",16,sleact,SLEACT,z,,,,,,0.040763889,-0.400828993,0,0,0,,0,69,69,309,1,
,,,,,,,,,,,,,,,,,,5fa1462db029651fd1486dc8,2020-11-27_15h02.06.341,lexical_decision_task_MP_exp2,2020.2.5,MacIntel,60,,z,1,0.508755,,,,,,,,0.508755,1,,,,,,308,NW,"ID",33,psetch,PSETCH,z,,,,,,0.040763889,-0.400828993,0,0,0,,0,70,70,247,1,
,,,,,,,,,,,,,,,,,,5fa1462db029651fd1486dc8,2020-11-27_15h02.06.341,lexical_decision_task_MP_exp2,2020.2.5,MacIntel,60,,z,0,0.50075,,,,,,,,0.50075,0,,,,,,195,WORD,UN,33,credit,RESIGN,m,,,,,,0.040763889,-0.400828993,0,0,0,,0,71,71,134,1,
,,,,,,,,,,,,,,,,,,5fa1462db029651fd1486dc8,2020-11-27_15h02.06.341,lexical_decision_task_MP_exp2,2020.2.5,MacIntel,60,,m,1,0.66355,,,,,,,,0.66355,1,,,,,,106,WORD,"ID",33,ransom,RANSOM,m,,,,,,0.040763889,-0.400828993,0,0,0,,0,72,72,45,1,
,,,,,,,,,,,,,,,,,,5fa1462db029651fd1486dc8,2020-11-27_15h02.06.341,lexical_decision_task_MP_exp2,2020.2.5,MacIntel,60,,z,1,0.654595,,,,,,,,0.654595,1,,,,,,410,NW,"ID",16,tunory,TUNORY,z,,,,,,0.040763889,-0.400828993,0,0,0,,0,73,73,349,1,
,,,,,,,,,,,,,,,,,,5fa1462db029651fd1486dc8,2020-11-27_15h02.06.341,lexical_decision_task_MP_exp2,2020.2.5,MacIntel,60,,z,1,0.634345,,,,,,,,0.634345,1,,,,,,478,NW,UN,33,pebric,ACRISE,z,,,,,,0.040763889,-0.400828993,0,0,0,,0,74,74,417,1,
,,,,,,,,,,,,,,,,,,5fa1462db029651fd1486dc8,2020-11-27_15h02.06.341,lexical_decision_task_MP_exp2,2020.2.5,MacIntel,60,,z,0,0.456675,,,,,,,,0.456675,0,,,,,,220,WORD,UN,33,mascot,VOYAGE,m,,,,,,0.040763889,-0.400828993,0,0,0,,0,75,75,159,1,
,,,,,,,,,,,,,,,,,,5fa1462db029651fd1486dc8,2020-11-27_15h02.06.341,lexical_decision_task_MP_exp2,2020.2.5,MacIntel,60,,z,0,0.4494,,,,,,,,0.4494,0,,,,,,99,WORD,"ID",33,fluent,FLUENT,m,,,,,,0.040763889,-0.400828993,0,0,0,,0,76,76,38,1,
,,,,,,,,,,,,,,,,,,5fa1462db029651fd1486dc8,2020-11-27_15h02.06.341,lexical_decision_task_MP_exp2,2020.2.5,MacIntel,60,,m,1,0.613325,,,,,,,,0.613325,1,,,,,,160,WORD,"ID",16,violet,VIOLET,m,,,,,,0.040763889,-0.400828993,0,0,0,,0,77,77,99,1,
,,,,,,,,,,,,,,,,,,5fa1462db029651fd1486dc8,2020-11-27_15h02.06.341,lexical_decision_task_MP_exp2,2020.2.5,MacIntel,60,,z,1,0.882835,,,,,,,,0.882835,1,,,,,,289,NW,UN,16,splino,STARBY,z,,,,,,0.040763889,-0.400828993,0,0,0,,0,78,78,468,1,
,,,,,,,,,,,,,,,,,,5fa1462db029651fd1486dc8,2020-11-27_15h02.06.341,lexical_decision_task_MP_exp2,2020.2.5,MacIntel,60,,z,1,0.45458,,,,,,,,0.45458,1,,,,,,443,NW,UN,33,jaunce,DORSEX,z,,,,,,0.040763889,-0.400828993,0,0,0,,0,79,79,382,1,
,,,,,,,,,,,,,,,,,,5fa1462db029651fd1486dc8,2020-11-27_15h02.06.341,lexical_decision_task_MP_exp2,2020.2.5,MacIntel,60,,z,1,0.53152,,,,,,,,0.53152,1,,,,,,475,NW,UN,33,josted,PEBRIC,z,,,,,,0.040763889,-0.400828993,0,0,0,,0,80,80,414,1,
,,,,,,,,,,,,,,,,,,5fa1462db029651fd1486dc8,2020-11-27_15h02.06.341,lexical_decision_task_MP_exp2,2020.2.5,MacIntel,60,,m,1,0.71546,,,,,,,,0.71546,1,,,,,,77,WORD,"ID",33,racket,RACKET,m,,,,,,0.040763889,-0.400828993,0,0,0,,0,81,81,16,1,
,,,,,,,,,,,,,,,,,,5fa1462db029651fd1486dc8,2020-11-27_15h02.06.341,lexical_decision_task_MP_exp2,2020.2.5,MacIntel,60,,z,1,0.60169,,,,,,,,0.60169,1,,,,,,301,NW,"ID",33,fainch,FAINCH,z,,,,,,0.040763889,-0.400828993,0,0,0,,0,82,82,240,1,
,,,,,,,,,,,,,,,,,,5fa1462db029651fd1486dc8,2020-11-27_15h02.06.341,lexical_decision_task_MP_exp2,2020.2.5,MacIntel,60,,m,1,0.515635,,,,,,,,0.515635,1,,,,,,152,WORD,"ID",16,rocket,ROCKET,m,,,,,,0.040763889,-0.400828993,0,0,0,,0,83,83,91,1,
,,,,,,,,,,,,,,,,,,5fa1462db029651fd1486dc8,2020-11-27_15h02.06.341,lexical_decision_task_MP_exp2,2020.2.5,MacIntel,60,,m,1,0.405265,,,,,,,,0.405265,1,,,,,,146,WORD,"ID",16,couple,COUPLE,m,,,,,,0.040763889,-0.400828993,0,0,0,,0,84,84,85,1,
,,,,,,,,,,,,,,,,,,5fa1462db029651fd1486dc8,2020-11-27_15h02.06.341,lexical_decision_task_MP_exp2,2020.2.5,MacIntel,60,,z,1,0.649725,,,,,,,,0.649725,1,,,,,,437,NW,UN,33,baitch,SNAPEL,z,,,,,,0.040763889,-0.400828993,0,0,0,,0,85,85,376,1,
,,,,,,,,,,,,,,,,,,5fa1462db029651fd1486dc8,2020-11-27_15h02.06.341,lexical_decision_task_MP_exp2,2020.2.5,MacIntel,60,,m,1,0.52008,,,,,,,,0.52008,1,,,,,,233,WORD,UN,33,clumsy,NATURE,m,,,,,,0.040763889,-0.400828993,0,0,0,,0,86,86,172,1,
,,,,,,,,,,,,,,,,,,5fa1462db029651fd1486dc8,2020-11-27_15h02.06.341,lexical_decision_task_MP_exp2,2020.2.5,MacIntel,60,,m,1,0.41467,,,,,,,,0.41467,1,,,,,,34,WORD,UN,16,socket,JUNGLE,m,,,,,,0.040763889,-0.400828993,0,0,0,,0,87,87,213,1,
,,,,,,,,,,,,,,,,,,5fa1462db029651fd1486dc8,2020-11-27_15h02.06.341,lexical_decision_task_MP_exp2,2020.2.5,MacIntel,60,,m,1,0.433725,,,,,,,,0.433725,1,,,,,,93,WORD,"ID",33,public,PUBLIC,m,,,,,,0.040763889,-0.400828993,0,0,0,,0,88,88,32,1,
,,,,,,,,,,,,,,,,,,5fa1462db029651fd1486dc8,2020-11-27_15h02.06.341,lexical_decision_task_MP_exp2,2020.2.5,MacIntel,60,,m,1,0.5881,,,,,,,,0.5881,1,,,,,,9,WORD,UN,16,bridge,HUSTLE,m,,,,,,0.040763889,-0.400828993,0,0,0,,0,89,89,188,1,
,,,,,,,,,,,,,,,,,,5fa1462db029651fd1486dc8,2020-11-27_15h02.06.341,lexical_decision_task_MP_exp2,2020.2.5,MacIntel,60,,z,1,0.50413,,,,,,,,0.50413,1,,,,,,245,NW,UN,16,piaton,ANOUGS,z,,,,,,0.040763889,-0.400828993,0,0,0,,0,90,90,424,1,
,,,,,,,,,,,,,,,,,,5fa1462db029651fd1486dc8,2020-11-27_15h02.06.341,lexical_decision_task_MP_exp2,2020.2.5,MacIntel,60,,z,1,0.60166,,,,,,,,0.60166,1,,,,,,258,NW,UN,16,soudal,POLUTH,z,,,,,,0.040763889,-0.400828993,0,0,0,,0,91,91,437,1,
,,,,,,,,,,,,,,,,,,5fa1462db029651fd1486dc8,2020-11-27_15h02.06.341,lexical_decision_task_MP_exp2,2020.2.5,MacIntel,60,,z,0,0.415015,,,,,,,,0.415015,0,,,,,,103,WORD,"ID",33,bounce,BOUNCE,m,,,,,,0.040763889,-0.400828993,0,0,0,,0,92,92,42,1,
,,,,,,,,,,,,,,,,,,5fa1462db029651fd1486dc8,2020-11-27_15h02.06.341,lexical_decision_task_MP_exp2,2020.2.5,MacIntel,60,,m,0,0.58262,,,,,,,,0.58262,0,,,,,,333,NW,"ID",33,catrie,CATRIE,z,,,,,,0.040763889,-0.400828993,0,0,0,,0,93,93,272,1,
,,,,,,,,,,,,,,,,,,5fa1462db029651fd1486dc8,2020-11-27_15h02.06.341,lexical_decision_task_MP_exp2,2020.2.5,MacIntel,60,,m,1,0.49793,,,,,,,,0.49793,1,,,,,,167,WORD,"ID",16,design,DESIGN,m,,,,,,0.040763889,-0.400828993,0,0,0,,0,94,94,106,1,
,,,,,,,,,,,,,,,,,,5fa1462db029651fd1486dc8,2020-11-27_15h02.06.341,lexical_decision_task_MP_exp2,2020.2.5,MacIntel,60,,z,0,0.53476,,,,,,,,0.53476,0,,,,,,68,WORD,"ID",33,fumble,FUMBLE,m,,,,,,0.040763889,-0.400828993,0,0,0,,0,95,95,7,1,
,,,,,,,,,,,,,,,,,,5fa1462db029651fd1486dc8,2020-11-27_15h02.06.341,lexical_decision_task_MP_exp2,2020.2.5,MacIntel,60,,z,1,0.58345,,,,,,,,0.58345,1,,,,,,351,NW,"ID",33,tiesch,TIESCH,z,,,,,,0.040763889,-0.400828993,0,0,0,,0,96,96,290,1,
,,,,,,,,,,,,,,,,,,5fa1462db029651fd1486dc8,2020-11-27_15h02.06.341,lexical_decision_task_MP_exp2,2020.2.5,MacIntel,60,,z,1,0.598725,,,,,,,,0.598725,1,,,,,,423,NW,UN,33,praile,STRELD,z,,,,,,0.040763889,-0.400828993,0,0,0,,0,97,97,362,1,
,,,,,,,,,,,,,,,,,,5fa1462db029651fd1486dc8,2020-11-27_15h02.06.341,lexical_decision_task_MP_exp2,2020.2.5,MacIntel,60,,z,1,0.48497,,,,,,,,0.48497,1,,,,,,246,NW,UN,16,blarge,PIATON,z,,,,,,0.040763889,-0.400828993,0,0,0,,0,98,98,425,1,
,,,,,,,,,,,,,,,,,,5fa1462db029651fd1486dc8,2020-11-27_15h02.06.341,lexical_decision_task_MP_exp2,2020.2.5,MacIntel,60,,m,0,0.488745,,,,,,,,0.488745,0,,,,,,397,NW,"ID",16,camble,CAMBLE,z,,,,,,0.040763889,-0.400828993,0,0,0,,0,99,99,336,1,
,,,,,,,,,,,,,,,,,,5fa1462db029651fd1486dc8,2020-11-27_15h02.06.341,lexical_decision_task_MP_exp2,2020.2.5,MacIntel,60,,z,1,0.46837,,,,,,,,0.46837,1,,,,,,467,NW,UN,33,wictor,GORBIE,z,,,,,,0.040763889,-0.400828993,0,0,0,,0,100,100,406,1,
,,,,,,,,,,,,,,,,,,5fa1462db029651fd1486dc8,2020-11-27_15h02.06.341,lexical_decision_task_MP_exp2,2020.2.5,MacIntel,60,,z,1,0.6293,,,,,,,,0.6293,1,,,,,,272,NW,UN,16,sortel,DAMILT,z,,,,,,0.040763889,-0.400828993,0,0,0,,0,101,101,451,1,
,,,,,,,,,,,,,,,,,,5fa1462db029651fd1486dc8,2020-11-27_15h02.06.341,lexical_decision_task_MP_exp2,2020.2.5,MacIntel,60,,z,0,0.581975,,,,,,,,0.581975,0,,,,,,227,WORD,UN,33,master,SELDOM,m,,,,,,0.040763889,-0.400828993,0,0,0,,0,102,102,166,1,
,,,,,,,,,,,,,,,,,,5fa1462db029651fd1486dc8,2020-11-27_15h02.06.341,lexical_decision_task_MP_exp2,2020.2.5,MacIntel,60,,z,1,0.865145,,,,,,,,0.865145,1,,,,,,382,NW,"ID",16,sarley,SARLEY,z,,,,,,0.040763889,-0.400828993,0,0,0,,0,103,103,321,1,
,,,,,,,,,,,,,,,,,,5fa1462db029651fd1486dc8,2020-11-27_15h02.06.341,lexical_decision_task_MP_exp2,2020.2.5,MacIntel,60,,m,0,0.80718,,,,,,,,0.80718,0,,,,,,315,NW,"ID",33,laston,LASTON,z,,,,,,0.040763889,-0.400828993,0,0,0,,0,104,104,254,1,
,,,,,,,,,,,,,,,,,,5fa1462db029651fd1486dc8,2020-11-27_15h02.06.341,lexical_decision_task_MP_exp2,2020.2.5,MacIntel,60,,m,1,0.56623,,,,,,,,0.56623,1,,,,,,44,WORD,UN,16,clergy,DANGER,m,,,,,,0.040763889,-0.400828993,0,0,0,,0,105,105,223,1,
,,,,,,,,,,,,,,,,,,5fa1462db029651fd1486dc8,2020-11-27_15h02.06.341,lexical_decision_task_MP_exp2,2020.2.5,MacIntel,60,,z,1,0.59884,,,,,,,,0.59884,1,,,,,,466,NW,UN,33,robuly,HOCITE,z,,,,,,0.040763889,-0.400828993,0,0,0,,0,106,106,405,1,
,,,,,,,,,,,,,,,,,,5fa1462db029651fd1486dc8,2020-11-27_15h02.06.341,lexical_decision_task_MP_exp2,2020.2.5,MacIntel,60,,z,1,0.48384,,,,,,,,0.48384,1,,,,,,463,NW,UN,33,chaite,KISPEL,z,,,,,,0.040763889,-0.400828993,0,0,0,,0,107,107,402,1,
,,,,,,,,,,,,,,,,,,5fa1462db029651fd1486dc8,2020-11-27_15h02.06.341,lexical_decision_task_MP_exp2,2020.2.5,MacIntel,60,,m,0,0.55348,,,,,,,,0.55348,0,,,,,,345,NW,"ID",33,absend,ABSEND,z,,,,,,0.040763889,-0.400828993,0,0,0,,0,108,108,284,1,
,,,,,,,,,,,,,,,,,,5fa1462db029651fd1486dc8,2020-11-27_15h02.06.341,lexical_decision_task_MP_exp2,2020.2.5,MacIntel,60,,z,1,0.51912,,,,,,,,0.51912,1,,,,,,356,NW,"ID",33,othnis,OTHNIS,z,,,,,,0.040763889,-0.400828993,0,0,0,,0,109,109,295,1,
,,,,,,,,,,,,,,,,,,5fa1462db029651fd1486dc8,2020-11-27_15h02.06.341,lexical_decision_task_MP_exp2,2020.2.5,MacIntel,60,,z,1,0.601835,,,,,,,,0.601835,1,,,,,,374,NW,"ID",16,sliant,SLIANT,z,,,,,,0.040763889,-0.400828993,0,0,0,,0,110,110,313,1,
,,,,,,,,,,,,,,,,,,5fa1462db029651fd1486dc8,2020-11-27_15h02.06.341,lexical_decision_task_MP_exp2,2020.2.5,MacIntel,60,,z,1,0.552725,,,,,,,,0.552725,1,,,,,,388,NW,"ID",16,cragin,CRAGIN,z,,,,,,0.040763889,-0.400828993,0,0,0,,0,111,111,327,1,
,,,,,,,,,,,,,,,,,,5fa1462db029651fd1486dc8,2020-11-27_15h02.06.341,lexical_decision_task_MP_exp2,2020.2.5,MacIntel,60,,m,1,0.580765,,,,,,,,0.580765,1,,,,,,11,WORD,UN,16,amount,CRUISE,m,,,,,,0.040763889,-0.400828993,0,0,0,,0,112,112,190,1,
,,,,,,,,,,,,,,,,,,5fa1462db029651fd1486dc8,2020-11-27_15h02.06.341,lexical_decision_task_MP_exp2,2020.2.5,MacIntel,60,,z,1,0.651405,,,,,,,,0.651405,1,,,,,,470,NW,UN,33,nobest,CRUDIO,z,,,,,,0.040763889,-0.400828993,0,0,0,,0,113,113,409,1,
,,,,,,,,,,,,,,,,,,5fa1462db029651fd1486dc8,2020-11-27_15h02.06.341,lexical_decision_task_MP_exp2,2020.2.5,MacIntel,60,,m,1,0.715335,,,,,,,,0.715335,1,,,,,,182,WORD,UN,33,absent,WINTER,m,,,,,,0.040763889,-0.400828993,0,0,0,,0,114,114,121,1,
,,,,,,,,,,,,,,,,,,5fa1462db029651fd1486dc8,2020-11-27_15h02.06.341,lexical_decision_task_MP_exp2,2020.2.5,MacIntel,60,,m,0,0.547525,,,,,,,,0.547525,0,,,,,,417,NW,"ID",16,earoud,EAROUD,z,,,,,,0.040763889,-0.400828993,0,0,0,,0,115,115,356,1,
,,,,,,,,,,,,,,,,,,5fa1462db029651fd1486dc8,2020-11-27_15h02.06.341,lexical_decision_task_MP_exp2,2020.2.5,MacIntel,60,,m,1,0.570415,,,,,,,,0.570415,1,,,,,,134,WORD,"ID",16,staple,STAPLE,m,,,,,,0.040763889,-0.400828993,0,0,0,,0,116,116,73,1,
,,,,,,,,,,,,,,,,,,5fa1462db029651fd1486dc8,2020-11-27_15h02.06.341,lexical_decision_task_MP_exp2,2020.2.5,MacIntel,60,,m,0,0.597125,,,,,,,,0.597125,0,,,,,,273,NW,UN,16,fumblo,SORTEL,z,,,,,,0.040763889,-0.400828993,0,0,0,,0,117,117,452,1,
,,,,,,,,,,,,,,,,,,5fa1462db029651fd1486dc8,2020-11-27_15h02.06.341,lexical_decision_task_MP_exp2,2020.2.5,MacIntel,60,,m,1,0.583335,,,,,,,,0.583335,1,,,,,,224,WORD,UN,33,vulgar,PERIOD,m,,,,,,0.040763889,-0.400828993,0,0,0,,0,118,118,163,1,
,,,,,,,,,,,,,,,,,,5fa1462db029651fd1486dc8,2020-11-27_15h02.06.341,lexical_decision_task_MP_exp2,2020.2.5,MacIntel,60,,z,1,0.46884,,,,,,,,0.46884,1,,,,,,256,NW,UN,16,veniod,INLORS,z,,,,,,0.040763889,-0.400828993,0,0,0,,0,119,119,435,1,
,,,,,,,,,,,,,,,,,,5fa1462db029651fd1486dc8,2020-11-27_15h02.06.341,lexical_decision_task_MP_exp2,2020.2.5,MacIntel,60,,z,1,0.621405,,,,,,,,0.621405,1,,,,,,438,NW,UN,33,limpor,BAITCH,z,,,,,,0.056384549,-0.407907986,0,0,0,space,0,120,120,377,1,7.72553
,,,,,,,,,,,,,,,,,,5fa1462db029651fd1486dc8,2020-11-27_15h02.06.341,lexical_decision_task_MP_exp2,2020.2.5,MacIntel,60,,z,0,0.497975,,,,,,,,0.497975,0,,,,,,217,WORD,UN,33,shrink,LIQUOR,m,,,,,,0.056384549,-0.407907986,0,0,0,,0,121,121,156,1,
,,,,,,,,,,,,,,,,,,5fa1462db029651fd1486dc8,2020-11-27_15h02.06.341,lexical_decision_task_MP_exp2,2020.2.5,MacIntel,60,,z,1,0.57241,,,,,,,,0.57241,1,,,,,,385,NW,"ID",16,veigma,VEIGMA,z,,,,,,0.056384549,-0.407907986,0,0,0,,0,122,122,324,1,
,,,,,,,,,,,,,,,,,,5fa1462db029651fd1486dc8,2020-11-27_15h02.06.341,lexical_decision_task_MP_exp2,2020.2.5,MacIntel,60,,z,1,0.451615,,,,,,,,0.451615,1,,,,,,393,NW,"ID",16,ganous,GANOUS,z,,,,,,0.056384549,-0.407907986,0,0,0,,0,123,123,332,1,
,,,,,,,,,,,,,,,,,,5fa1462db029651fd1486dc8,2020-11-27_15h02.06.341,lexical_decision_task_MP_exp2,2020.2.5,MacIntel,60,,m,1,0.58836,,,,,,,,0.58836,1,,,,,,47,WORD,UN,16,walnut,INCOME,m,,,,,,0.056384549,-0.407907986,0,0,0,,0,124,124,226,1,
,,,,,,,,,,,,,,,,,,5fa1462db029651fd1486dc8,2020-11-27_15h02.06.341,lexical_decision_task_MP_exp2,2020.2.5,MacIntel,60,,z,1,0.61525,,,,,,,,0.61525,1,,,,,,294,NW,UN,16,gleath,INHORT,z,,,,,,0.056384549,-0.407907986,0,0,0,,0,125,125,473,1,
,,,,,,,,,,,,,,,,,,5fa1462db029651fd1486dc8,2020-11-27_15h02.06.341,lexical_decision_task_MP_exp2,2020.2.5,MacIntel,60,,z,1,0.533245,,,,,,,,0.533245,1,,,,,,357,NW,"ID",33,derain,DERAIN,z,,,,,,0.056384549,-0.407907986,0,0,0,,0,126,126,296,1,
,,,,,,,,,,,,,,,,,,5fa1462db029651fd1486dc8,2020-11-27_15h02.06.341,lexical_decision_task_MP_exp2,2020.2.5,MacIntel,60,,m,0,0.584665,,,,,,,,0.584665,0,,,,,,261,NW,UN,16,quilew,STUNCH,z,,,,,,0.056384549,-0.407907986,0,0,0,,0,127,127,440,1,
,,,,,,,,,,,,,,,,,,5fa1462db029651fd1486dc8,2020-11-27_15h02.06.341,lexical_decision_task_MP_exp2,2020.2.5,MacIntel,60,,z,0,0.443145,,,,,,,,0.443145,0,,,,,,132,WORD,"ID",16,strong,STRONG,m,,,,,,0.056384549,-0.407907986,0,0,0,,0,128,128,71,1,
,,,,,,,,,,,,,,,,,,5fa1462db029651fd1486dc8,2020-11-27_15h02.06.341,lexical_decision_task_MP_exp2,2020.2.5,MacIntel,60,,m,1,0.637205,,,,,,,,0.637205,1,,,,,,237,WORD,UN,33,glance,POSTER,m,,,,,,0.056384549,-0.407907986,0,0,0,,0,129,129,176,1,
,,,,,,,,,,,,,,,,,,5fa1462db029651fd1486dc8,2020-11-27_15h02.06.341,lexical_decision_task_MP_exp2,2020.2.5,MacIntel,60,,z,1,0.60032,,,,,,,,0.60032,1,,,,,,431,NW,UN,33,lunker,CHRUMS,z,,,,,,0.056384549,-0.407907986,0,0,0,,0,130,130,370,1,
,,,,,,,,,,,,,,,,,,5fa1462db029651fd1486dc8,2020-11-27_15h02.06.341,lexical_decision_task_MP_exp2,2020.2.5,MacIntel,60,,z,0,0.44758,,,,,,,,0.44758,0,,,,,,19,WORD,UN,16,breast,PATRON,m,,,,,,0.056384549,-0.407907986,0,0,0,,0,131,131,198,1,
,,,,,,,,,,,,,,,,,,5fa1462db029651fd1486dc8,2020-11-27_15h02.06.341,lexical_decision_task_MP_exp2,2020.2.5,MacIntel,60,,z,1,0.785405,,,,,,,,0.785405,1,,,,,,436,NW,UN,33,snapel,FRUTAN,z,,,,,,0.056384549,-0.407907986,0,0,0,,0,132,132,375,1,
,,,,,,,,,,,,,,,,,,5fa1462db029651fd1486dc8,2020-11-27_15h02.06.341,lexical_decision_task_MP_exp2,2020.2.5,MacIntel,60,,m,1,0.503645,,,,,,,,0.503645,1,,,,,,155,WORD,"ID",16,lizard,LIZARD,m,,,,,,0.056384549,-0.407907986,0,0,0,,0,133,133,94,1,
,,,,,,,,,,,,,,,,,,5fa1462db029651fd1486dc8,2020-11-27_15h02.06.341,lexical_decision_task_MP_exp2,2020.2.5,MacIntel,60,,m,0,0.36798,,,,,,,,0.36798,0,,,,,,314,NW,"ID",33,sprine,SPRINE,z,,,,,,0.056384549,-0.407907986,0,0,0,,0,134,134,253,1,
,,,,,,,,,,,,,,,,,,5fa1462db029651fd1486dc8,2020-11-27_15h02.06.341,lexical_decision_task_MP_exp2,2020.2.5,MacIntel,60,,m,1,0.453535,,,,,,,,0.453535,1,,,,,,42,WORD,UN,16,tongue,CHAPEL,m,,,,,,0.056384549,-0.407907986,0,0,0,,0,135,135,221,1,
,,,,,,,,,,,,,,,,,,5fa1462db029651fd1486dc8,2020-11-27_15h02.06.341,lexical_decision_task_MP_exp2,2020.2.5,MacIntel,60,,m,1,0.619085,,,,,,,,0.619085,1,,,,,,139,WORD,"ID",16,debris,DEBRIS,m,,,,,,0.056384549,-0.407907986,0,0,0,,0,136,136,78,1,
,,,,,,,,,,,,,,,,,,5fa1462db029651fd1486dc8,2020-11-27_15h02.06.341,lexical_decision_task_MP_exp2,2020.2.5,MacIntel,60,,z,1,0.55746,,,,,,,,0.55746,1,,,,,,448,NW,UN,33,brunge,SADENT,z,,,,,,0.056384549,-0.407907986,0,0,0,,0,137,137,387,1,
,,,,,,,,,,,,,,,,,,5fa1462db029651fd1486dc8,2020-11-27_15h02.06.341,lexical_decision_task_MP_exp2,2020.2.5,MacIntel,60,,m,1,0.468145,,,,,,,,0.468145,1,,,,,,38,WORD,UN,16,insect,POWDER,m,,,,,,0.056384549,-0.407907986,0,0,0,,0,138,138,217,1,
,,,,,,,,,,,,,,,,,,5fa1462db029651fd1486dc8,2020-11-27_15h02.06.341,lexical_decision_task_MP_exp2,2020.2.5,MacIntel,60,,m,1,0.438395,,,,,,,,0.438395,1,,,,,,226,WORD,UN,33,flower,CASINO,m,,,,,,0.056384549,-0.407907986,0,0,0,,0,139,139,165,1,
,,,,,,,,,,,,,,,,,,5fa1462db029651fd1486dc8,2020-11-27_15h02.06.341,lexical_decision_task_MP_exp2,2020.2.5,MacIntel,60,,z,1,0.47055,,,,,,,,0.47055,1,,,,,,298,NW,UN,16,sturch,PIERGY,z,,,,,,0.056384549,-0.407907986,0,0,0,,0,140,140,477,1,
,,,,,,,,,,,,,,,,,,5fa1462db029651fd1486dc8,2020-11-27_15h02.06.341,lexical_decision_task_MP_exp2,2020.2.5,MacIntel,60,,m,1,0.498415,,,,,,,,0.498415,1,,,,,,52,WORD,UN,16,police,IMPOSE,m,,,,,,0.056384549,-0.407907986,0,0,0,,0,141,141,231,1,
,,,,,,,,,,,,,,,,,,5fa1462db029651fd1486dc8,2020-11-27_15h02.06.341,lexical_decision_task_MP_exp2,2020.2.5,MacIntel,60,,z,1,0.68184,,,,,,,,0.68184,1,,,,,,253,NW,UN,16,varosh,RESAIT,z,,,,,,0.056384549,-0.407907986,0,0,0,,0,142,142,432,1,
,,,,,,,,,,,,,,,,,,5fa1462db029651fd1486dc8,2020-11-27_15h02.06.341,lexical_decision_task_MP_exp2,2020.2.5,MacIntel,60,,z,1,0.61571,,,,,,,,0.61571,1,,,,,,340,NW,"ID",33,fiatch,FIATCH,z,,,,,,0.056384549,-0.407907986,0,0,0,,0,143,143,279,1,
,,,,,,,,,,,,,,,,,,5fa1462db029651fd1486dc8,2020-11-27_15h02.06.341,lexical_decision_task_MP_exp2,2020.2.5,MacIntel,60,,z,1,0.452025,,,,,,,,0.452025,1,,,,,,300,NW,UN,16,smenco,YARION,z,,,,,,0.056384549,-0.407907986,0,0,0,,0,144,144,479,1,
,,,,,,,,,,,,,,,,,,5fa1462db029651fd1486dc8,2020-11-27_15h02.06.341,lexical_decision_task_MP_exp2,2020.2.5,MacIntel,60,,z,1,0.498705,,,,,,,,0.498705,1,,,,,,244,NW,UN,16,anougs,EATRIC,z,,,,,,0.056384549,-0.407907986,0,0,0,,0,145,145,423,1,
,,,,,,,,,,,,,,,,,,5fa1462db029651fd1486dc8,2020-11-27_15h02.06.341,lexical_decision_task_MP_exp2,2020.2.5,MacIntel,60,,m,0,0.701885,,,,,,,,0.701885,0,,,,,,335,NW,"ID",33,desion,DESION,z,,,,,,0.056384549,-0.407907986,0,0,0,,0,146,146,274,1,
,,,,,,,,,,,,,,,,,,5fa1462db029651fd1486dc8,2020-11-27_15h02.06.341,lexical_decision_task_MP_exp2,2020.2.5,MacIntel,60,,m,1,0.5565,,,,,,,,0.5565,1,,,,,,85,WORD,"ID",33,sprawl,SPRAWL,m,,,,,,0.056384549,-0.407907986,0,0,0,,0,147,147,24,1,
,,,,,,,,,,,,,,,,,,5fa1462db029651fd1486dc8,2020-11-27_15h02.06.341,lexical_decision_task_MP_exp2,2020.2.5,MacIntel,60,,m,1,0.513875,,,,,,,,0.513875,1,,,,,,10,WORD,UN,16,cruise,ETHNIC,m,,,,,,0.056384549,-0.407907986,0,0,0,,0,148,148,189,1,
,,,,,,,,,,,,,,,,,,5fa1462db029651fd1486dc8,2020-11-27_15h02.06.341,lexical_decision_task_MP_exp2,2020.2.5,MacIntel,60,,m,0,0.454745,,,,,,,,0.454745,0,,,,,,321,NW,"ID",33,miator,MIATOR,z,,,,,,0.056384549,-0.407907986,0,0,0,,0,149,149,260,1,
,,,,,,,,,,,,,,,,,,5fa1462db029651fd1486dc8,2020-11-27_15h02.06.341,lexical_decision_task_MP_exp2,2020.2.5,MacIntel,60,,z,1,0.74979,,,,,,,,0.74979,1,,,,,,288,NW,UN,16,starby,YACEUP,z,,,,,,0.056384549,-0.407907986,0,0,0,,0,150,150,467,1,
,,,,,,,,,,,,,,,,,,5fa1462db029651fd1486dc8,2020-11-27_15h02.06.341,lexical_decision_task_MP_exp2,2020.2.5,MacIntel,60,,z,1,0.58241,,,,,,,,0.58241,1,,,,,,350,NW,"ID",33,nagurs,NAGURS,z,,,,,,0.056384549,-0.407907986,0,0,0,,0,151,151,289,1,
,,,,,,,,,,,,,,,,,,5fa1462db029651fd1486dc8,2020-11-27_15h02.06.341,lexical_decision_task_MP_exp2,2020.2.5,MacIntel,60,,m,1,0.59784,,,,,,,,0.59784,1,,,,,,15,WORD,UN,16,faucet,AMOUNT,m,,,,,,0.056384549,-0.407907986,0,0,0,,0,152,152,194,1,
,,,,,,,,,,,,,,,,,,5fa1462db029651fd1486dc8,2020-11-27_15h02.06.341,lexical_decision_task_MP_exp2,2020.2.5,MacIntel,60,,m,1,0.547735,,,,,,,,0.547735,1,,,,,,56,WORD,UN,16,change,AMBUSH,m,,,,,,0.056384549,-0.407907986,0,0,0,,0,153,153,235,1,
,,,,,,,,,,,,,,,,,,5fa1462db029651fd1486dc8,2020-11-27_15h02.06.341,lexical_decision_task_MP_exp2,2020.2.5,MacIntel,60,,m,1,0.50504,,,,,,,,0.50504,1,,,,,,82,WORD,"ID",33,stigma,STIGMA,m,,,,,,0.056384549,-0.407907986,0,0,0,,0,154,154,21,1,
,,,,,,,,,,,,,,,,,,5fa1462db029651fd1486dc8,2020-11-27_15h02.06.341,lexical_decision_task_MP_exp2,2020.2.5,MacIntel,60,,z,0,0.56648,,,,,,,,0.56648,0,,,,,,131,WORD,"ID",16,quench,QUENCH,m,,,,,,0.056384549,-0.407907986,0,0,0,,0,155,155,70,1,
,,,,,,,,,,,,,,,,,,5fa1462db029651fd1486dc8,2020-11-27_15h02.06.341,lexical_decision_task_MP_exp2,2020.2.5,MacIntel,60,,m,1,0.7484,,,,,,,,0.7484,1,,,,,,219,WORD,UN,33,voyage,BUCKET,m,,,,,,0.056384549,-0.407907986,0,0,0,,0,156,156,158,1,
,,,,,,,,,,,,,,,,,,5fa1462db029651fd1486dc8,2020-11-27_15h02.06.341,lexical_decision_task_MP_exp2,2020.2.5,MacIntel,60,,m,1,0.56727,,,,,,,,0.56727,1,,,,,,175,WORD,"ID",16,fabric,FABRIC,m,,,,,,0.056384549,-0.407907986,0,0,0,,0,157,157,114,1,
,,,,,,,,,,,,,,,,,,5fa1462db029651fd1486dc8,2020-11-27_15h02.06.341,lexical_decision_task_MP_exp2,2020.2.5,MacIntel,60,,m,1,0.42076,,,,,,,,0.42076,1,,,,,,142,WORD,"ID",16,spruce,SPRUCE,m,,,,,,0.056384549,-0.407907986,0,0,0,,0,158,158,81,1,
,,,,,,,,,,,,,,,,,,5fa1462db029651fd1486dc8,2020-11-27_15h02.06.341,lexical_decision_task_MP_exp2,2020.2.5,MacIntel,60,,z,1,0.453435,,,,,,,,0.453435,1,,,,,,428,NW,UN,33,funtle,TANDLY,z,,,,,,0.056384549,-0.407907986,0,0,0,,0,159,159,367,1,
,,,,,,,,,,,,,,,,,,5fa1462db029651fd1486dc8,2020-11-27_15h02.06.341,lexical_decision_task_MP_exp2,2020.2.5,MacIntel,60,,z,0,0.47966,,,,,,,,0.47966,0,,,,,,127,WORD,"ID",16,castle,CASTLE,m,,,,,,0.056384549,-0.407907986,0,0,0,,0,160,160,66,1,
,,,,,,,,,,,,,,,,,,5fa1462db029651fd1486dc8,2020-11-27_15h02.06.341,lexical_decision_task_MP_exp2,2020.2.5,MacIntel,60,,m,0,0.46507,,,,,,,,0.46507,0,,,,,,284,NW,UN,16,prudge,SHAPLE,z,,,,,,0.056384549,-0.407907986,0,0,0,,0,161,161,463,1,
,,,,,,,,,,,,,,,,,,5fa1462db029651fd1486dc8,2020-11-27_15h02.06.341,lexical_decision_task_MP_exp2,2020.2.5,MacIntel,60,,m,1,0.68558,,,,,,,,0.68558,1,,,,,,187,WORD,UN,33,social,COURSE,m,,,,,,0.056384549,-0.407907986,0,0,0,,0,162,162,126,1,
,,,,,,,,,,,,,,,,,,5fa1462db029651fd1486dc8,2020-11-27_15h02.06.341,lexical_decision_task_MP_exp2,2020.2.5,MacIntel,60,,m,1,0.481795,,,,,,,,0.481795,1,,,,,,21,WORD,UN,16,jockey,SIMPLE,m,,,,,,0.056384549,-0.407907986,0,0,0,,0,163,163,200,1,
,,,,,,,,,,,,,,,,,,5fa1462db029651fd1486dc8,2020-11-27_15h02.06.341,lexical_decision_task_MP_exp2,2020.2.5,MacIntel,60,,m,1,0.46451,,,,,,,,0.46451,1,,,,,,143,WORD,"ID",16,reason,REASON,m,,,,,,0.056384549,-0.407907986,0,0,0,,0,164,164,82,1,
,,,,,,,,,,,,,,,,,,5fa1462db029651fd1486dc8,2020-11-27_15h02.06.341,lexical_decision_task_MP_exp2,2020.2.5,MacIntel,60,,z,1,0.615225,,,,,,,,0.615225,1,,,,,,299,NW,UN,16,yarion,STURCH,z,,,,,,0.056384549,-0.407907986,0,0,0,,0,165,165,478,1,
,,,,,,,,,,,,,,,,,,5fa1462db029651fd1486dc8,2020-11-27_15h02.06.341,lexical_decision_task_MP_exp2,2020.2.5,MacIntel,60,,z,0,0.53725,,,,,,,,0.53725,0,,,,,,5,WORD,UN,16,bundle,PLUNGE,m,,,,,,0.056384549,-0.407907986,0,0,0,,0,166,166,184,1,
,,,,,,,,,,,,,,,,,,5fa1462db029651fd1486dc8,2020-11-27_15h02.06.341,lexical_decision_task_MP_exp2,2020.2.5,MacIntel,60,,z,1,0.66673,,,,,,,,0.66673,1,,,,,,464,NW,UN,33,whivex,CHAITE,z,,,,,,0.056384549,-0.407907986,0,0,0,,0,167,167,403,1,
,,,,,,,,,,,,,,,,,,5fa1462db029651fd1486dc8,2020-11-27_15h02.06.341,lexical_decision_task_MP_exp2,2020.2.5,MacIntel,60,,m,1,0.532405,,,,,,,,0.532405,1,,,,,,205,WORD,UN,33,tailor,LOUNGE,m,,,,,,0.056384549,-0.407907986,0,0,0,,0,168,168,144,1,
,,,,,,,,,,,,,,,,,,5fa1462db029651fd1486dc8,2020-11-27_15h02.06.341,lexical_decision_task_MP_exp2,2020.2.5,MacIntel,60,,m,1,0.531555,,,,,,,,0.531555,1,,,,,,144,WORD,"ID",16,sponge,SPONGE,m,,,,,,0.056384549,-0.407907986,0,0,0,,0,169,169,83,1,
,,,,,,,,,,,,,,,,,,5fa1462db029651fd1486dc8,2020-11-27_15h02.06.341,lexical_decision_task_MP_exp2,2020.2.5,MacIntel,60,,m,1,0.481665,,,,,,,,0.481665,1,,,,,,58,WORD,UN,16,splint,FOSTER,m,,,,,,0.056384549,-0.407907986,0,0,0,,0,170,170,237,1,
,,,,,,,,,,,,,,,,,,5fa1462db029651fd1486dc8,2020-11-27_15h02.06.341,lexical_decision_task_MP_exp2,2020.2.5,MacIntel,60,,z,1,0.62348,,,,,,,,0.62348,1,,,,,,479,NW,UN,33,crible,LOBUSH,z,,,,,,0.056384549,-0.407907986,0,0,0,,0,171,171,418,1,
,,,,,,,,,,,,,,,,,,5fa1462db029651fd1486dc8,2020-11-27_15h02.06.341,lexical_decision_task_MP_exp2,2020.2.5,MacIntel,60,,z,1,0.53264,,,,,,,,0.53264,1,,,,,,286,NW,UN,16,nymbel,RELDON,z,,,,,,0.056384549,-0.407907986,0,0,0,,0,172,172,465,1,
,,,,,,,,,,,,,,,,,,5fa1462db029651fd1486dc8,2020-11-27_15h02.06.341,lexical_decision_task_MP_exp2,2020.2.5,MacIntel,60,,m,1,0.602025,,,,,,,,0.602025,1,,,,,,37,WORD,UN,16,powder,INSULT,m,,,,,,0.056384549,-0.407907986,0,0,0,,0,173,173,216,1,
,,,,,,,,,,,,,,,,,,5fa1462db029651fd1486dc8,2020-11-27_15h02.06.341,lexical_decision_task_MP_exp2,2020.2.5,MacIntel,60,,z,1,0.65078,,,,,,,,0.65078,1,,,,,,278,NW,UN,16,celond,UNIGHS,z,,,,,,0.056384549,-0.407907986,0,0,0,,0,174,174,457,1,
,,,,,,,,,,,,,,,,,,5fa1462db029651fd1486dc8,2020-11-27_15h02.06.341,lexical_decision_task_MP_exp2,2020.2.5,MacIntel,60,,z,1,0.59718,,,,,,,,0.59718,1,,,,,,276,NW,UN,16,petain,YARMON,z,,,,,,0.056384549,-0.407907986,0,0,0,,0,175,175,455,1,
,,,,,,,,,,,,,,,,,,5fa1462db029651fd1486dc8,2020-11-27_15h02.06.341,lexical_decision_task_MP_exp2,2020.2.5,MacIntel,60,,m,1,0.500915,,,,,,,,0.500915,1,,,,,,140,WORD,"ID",16,prince,PRINCE,m,,,,,,0.056384549,-0.407907986,0,0,0,,0,176,176,79,1,
,,,,,,,,,,,,,,,,,,5fa1462db029651fd1486dc8,2020-11-27_15h02.06.341,lexical_decision_task_MP_exp2,2020.2.5,MacIntel,60,,m,0,0.51673,,,,,,,,0.51673,0,,,,,,398,NW,"ID",16,blunde,BLUNDE,z,,,,,,0.056384549,-0.407907986,0,0,0,,0,177,177,337,1,
,,,,,,,,,,,,,,,,,,5fa1462db029651fd1486dc8,2020-11-27_15h02.06.341,lexical_decision_task_MP_exp2,2020.2.5,MacIntel,60,,z,1,0.781535,,,,,,,,0.781535,1,,,,,,338,NW,"ID",33,wreash,WREASH,z,,,,,,0.056384549,-0.407907986,0,0,0,,0,178,178,277,1,
,,,,,,,,,,,,,,,,,,5fa1462db029651fd1486dc8,2020-11-27_15h02.06.341,lexical_decision_task_MP_exp2,2020.2.5,MacIntel,60,,m,1,0.515365,,,,,,,,0.515365,1,,,,,,172,WORD,"ID",16,patrol,PATROL,m,,,,,,0.056384549,-0.407907986,0,0,0,,0,179,179,111,1,
,,,,,,,,,,,,,,,,,,5fa1462db029651fd1486dc8,2020-11-27_15h02.06.341,lexical_decision_task_MP_exp2,2020.2.5,MacIntel,60,,z,1,0.96541,,,,,,,,0.96541,1,,,,,,441,NW,UN,33,aboune,RASTOE,z,,,,,,0.056384549,-0.407907986,0,0,0,,0,180,180,380,1,
,,,,,,,,,,,,,,,,,,5fa1462db029651fd1486dc8,2020-11-27_15h02.06.341,lexical_decision_task_MP_exp2,2020.2.5,MacIntel,60,,z,1,0.615045,,,,,,,,0.615045,1,,,,,,380,NW,"ID",16,cavory,CAVORY,z,,,,,,0.056384549,-0.407907986,0,0,0,,0,181,181,319,1,
,,,,,,,,,,,,,,,,,,5fa1462db029651fd1486dc8,2020-11-27_15h02.06.341,lexical_decision_task_MP_exp2,2020.2.5,MacIntel,60,,z,1,0.51224,,,,,,,,0.51224,1,,,,,,281,NW,UN,16,porlex,MELATY,z,,,,,,0.056384549,-0.407907986,0,0,0,,0,182,182,460,1,
,,,,,,,,,,,,,,,,,,5fa1462db029651fd1486dc8,2020-11-27_15h02.06.341,lexical_decision_task_MP_exp2,2020.2.5,MacIntel,60,,m,0,0.422525,,,,,,,,0.422525,0,,,,,,449,NW,UN,33,phrect,BRUNGE,z,,,,,,0.056384549,-0.407907986,0,0,0,,0,183,183,388,1,
,,,,,,,,,,,,,,,,,,5fa1462db029651fd1486dc8,2020-11-27_15h02.06.341,lexical_decision_task_MP_exp2,2020.2.5,MacIntel,60,,z,0,0.484435,,,,,,,,0.484435,0,,,,,,156,WORD,"ID",16,cradle,CRADLE,m,,,,,,0.056384549,-0.407907986,0,0,0,,0,184,184,95,1,
,,,,,,,,,,,,,,,,,,5fa1462db029651fd1486dc8,2020-11-27_15h02.06.341,lexical_decision_task_MP_exp2,2020.2.5,MacIntel,60,,m,1,0.61702,,,,,,,,0.61702,1,,,,,,235,WORD,UN,33,pirate,GRUMPY,m,,,,,,0.056384549,-0.407907986,0,0,0,,0,185,185,174,1,
,,,,,,,,,,,,,,,,,,5fa1462db029651fd1486dc8,2020-11-27_15h02.06.341,lexical_decision_task_MP_exp2,2020.2.5,MacIntel,60,,z,1,0.728975,,,,,,,,0.728975,1,,,,,,330,NW,"ID",33,kensom,KENSOM,z,,,,,,0.056384549,-0.407907986,0,0,0,,0,186,186,269,1,
,,,,,,,,,,,,,,,,,,5fa1462db029651fd1486dc8,2020-11-27_15h02.06.341,lexical_decision_task_MP_exp2,2020.2.5,MacIntel,60,,m,1,0.581475,,,,,,,,0.581475,1,,,,,,145,WORD,"ID",16,parish,PARISH,m,,,,,,0.056384549,-0.407907986,0,0,0,,0,187,187,84,1,
,,,,,,,,,,,,,,,,,,5fa1462db029651fd1486dc8,2020-11-27_15h02.06.341,lexical_decision_task_MP_exp2,2020.2.5,MacIntel,60,,m,0,0.45349,,,,,,,,0.45349,0,,,,,,304,NW,"ID",33,cludie,CLUDIE,z,,,,,,0.056384549,-0.407907986,0,0,0,,0,188,188,243,1,
,,,,,,,,,,,,,,,,,,5fa1462db029651fd1486dc8,2020-11-27_15h02.06.341,lexical_decision_task_MP_exp2,2020.2.5,MacIntel,60,,m,1,0.5804,,,,,,,,0.5804,1,,,,,,8,WORD,UN,16,hustle,ABRUPT,m,,,,,,0.056384549,-0.407907986,0,0,0,,0,189,189,187,1,
,,,,,,,,,,,,,,,,,,5fa1462db029651fd1486dc8,2020-11-27_15h02.06.341,lexical_decision_task_MP_exp2,2020.2.5,MacIntel,60,,z,1,0.46557,,,,,,,,0.46557,1,,,,,,347,NW,"ID",33,kerift,KERIFT,z,,,,,,0.056384549,-0.407907986,0,0,0,,0,190,190,286,1,
,,,,,,,,,,,,,,,,,,5fa1462db029651fd1486dc8,2020-11-27_15h02.06.341,lexical_decision_task_MP_exp2,2020.2.5,MacIntel,60,,z,1,0.58379,,,,,,,,0.58379,1,,,,,,473,NW,UN,33,hablin,CRIBLE,z,,,,,,0.056384549,-0.407907986,0,0,0,,0,191,191,412,1,
,,,,,,,,,,,,,,,,,,5fa1462db029651fd1486dc8,2020-11-27_15h02.06.341,lexical_decision_task_MP_exp2,2020.2.5,MacIntel,60,,z,1,0.56908,,,,,,,,0.56908,1,,,,,,422,NW,UN,33,streld,ALCOUD,z,,,,,,0.056384549,-0.407907986,0,0,0,,0,192,192,361,1,
,,,,,,,,,,,,,,,,,,5fa1462db029651fd1486dc8,2020-11-27_15h02.06.341,lexical_decision_task_MP_exp2,2020.2.5,MacIntel,60,,z,1,0.56561,,,,,,,,0.56561,1,,,,,,287,NW,UN,16,yaceup,NYMBEL,z,,,,,,0.056384549,-0.407907986,0,0,0,,0,193,193,466,1,
,,,,,,,,,,,,,,,,,,5fa1462db029651fd1486dc8,2020-11-27_15h02.06.341,lexical_decision_task_MP_exp2,2020.2.5,MacIntel,60,,z,0,0.5307,,,,,,,,0.5307,0,,,,,,49,WORD,UN,16,snatch,SURVEY,m,,,,,,0.056384549,-0.407907986,0,0,0,,0,194,194,228,1,
,,,,,,,,,,,,,,,,,,5fa1462db029651fd1486dc8,2020-11-27_15h02.06.341,lexical_decision_task_MP_exp2,2020.2.5,MacIntel,60,,z,1,0.80009,,,,,,,,0.80009,1,,,,,,408,NW,"ID",16,hurnia,HURNIA,z,,,,,,0.056384549,-0.407907986,0,0,0,,0,195,195,347,1,
,,,,,,,,,,,,,,,,,,5fa1462db029651fd1486dc8,2020-11-27_15h02.06.341,lexical_decision_task_MP_exp2,2020.2.5,MacIntel,60,,z,1,0.814955,,,,,,,,0.814955,1,,,,,,391,NW,"ID",16,theldy,THELDY,z,,,,,,0.056384549,-0.407907986,0,0,0,,0,196,196,330,1,
,,,,,,,,,,,,,,,,,,5fa1462db029651fd1486dc8,2020-11-27_15h02.06.341,lexical_decision_task_MP_exp2,2020.2.5,MacIntel,60,,m,1,0.470745,,,,,,,,0.470745,1,,,,,,80,WORD,"ID",33,family,FAMILY,m,,,,,,0.056384549,-0.407907986,0,0,0,,0,197,197,19,1,
,,,,,,,,,,,,,,,,,,5fa1462db029651fd1486dc8,2020-11-27_15h02.06.341,lexical_decision_task_MP_exp2,2020.2.5,MacIntel,60,,m,1,0.466145,,,,,,,,0.466145,1,,,,,,64,WORD,"ID",33,throne,THRONE,m,,,,,,0.056384549,-0.407907986,0,0,0,,0,198,198,3,1,
,,,,,,,,,,,,,,,,,,5fa1462db029651fd1486dc8,2020-11-27_15h02.06.341,lexical_decision_task_MP_exp2,2020.2.5,MacIntel,60,,z,0,0.47974,,,,,,,,0.47974,0,,,,,,214,WORD,UN,33,phobia,INTAKE,m,,,,,,0.056384549,-0.407907986,0,0,0,,0,199,199,153,1,
,,,,,,,,,,,,,,,,,,5fa1462db029651fd1486dc8,2020-11-27_15h02.06.341,lexical_decision_task_MP_exp2,2020.2.5,MacIntel,60,,m,1,0.60169,,,,,,,,0.60169,1,,,,,,181,WORD,UN,33,winter,GLANCE,m,,,,,,0.056384549,-0.407907986,0,0,0,,0,200,200,120,1,
,,,,,,,,,,,,,,,,,,5fa1462db029651fd1486dc8,2020-11-27_15h02.06.341,lexical_decision_task_MP_exp2,2020.2.5,MacIntel,60,,m,0,0.448655,,,,,,,,0.448655,0,,,,,,343,NW,"ID",33,aimosy,AIMOSY,z,,,,,,0.056384549,-0.407907986,0,0,0,,0,201,201,282,1,
,,,,,,,,,,,,,,,,,,5fa1462db029651fd1486dc8,2020-11-27_15h02.06.341,lexical_decision_task_MP_exp2,2020.2.5,MacIntel,60,,z,1,0.498975,,,,,,,,0.498975,1,,,,,,425,NW,UN,33,urivel,FRUDGE,z,,,,,,0.056384549,-0.407907986,0,0,0,,0,202,202,364,1,
,,,,,,,,,,,,,,,,,,5fa1462db029651fd1486dc8,2020-11-27_15h02.06.341,lexical_decision_task_MP_exp2,2020.2.5,MacIntel,60,,m,1,0.54833,,,,,,,,0.54833,1,,,,,,43,WORD,UN,16,foster,TONGUE,m,,,,,,0.056384549,-0.407907986,0,0,0,,0,203,203,222,1,
,,,,,,,,,,,,,,,,,,5fa1462db029651fd1486dc8,2020-11-27_15h02.06.341,lexical_decision_task_MP_exp2,2020.2.5,MacIntel,60,,m,1,0.51453,,,,,,,,0.51453,1,,,,,,18,WORD,UN,16,patron,HUMBLE,m,,,,,,0.056384549,-0.407907986,0,0,0,,0,204,204,197,1,
,,,,,,,,,,,,,,,,,,5fa1462db029651fd1486dc8,2020-11-27_15h02.06.341,lexical_decision_task_MP_exp2,2020.2.5,MacIntel,60,,z,0,0.666915,,,,,,,,0.666915,0,,,,,,61,WORD,"ID",33,ponder,PONDER,m,,,,,,0.056384549,-0.407907986,0,0,0,,0,205,205,0,1,
,,,,,,,,,,,,,,,,,,5fa1462db029651fd1486dc8,2020-11-27_15h02.06.341,lexical_decision_task_MP_exp2,2020.2.5,MacIntel,60,,z,1,0.930455,,,,,,,,0.930455,1,,,,,,457,NW,UN,33,barcet,WANIGH,z,,,,,,0.056384549,-0.407907986,0,0,0,,0,206,206,396,1,
,,,,,,,,,,,,,,,,,,5fa1462db029651fd1486dc8,2020-11-27_15h02.06.341,lexical_decision_task_MP_exp2,2020.2.5,MacIntel,60,,z,1,0.48732,,,,,,,,0.48732,1,,,,,,472,NW,UN,33,gorbie,CIGNEY,z,,,,,,0.056384549,-0.407907986,0,0,0,,0,207,207,411,1,
,,,,,,,,,,,,,,,,,,5fa1462db029651fd1486dc8,2020-11-27_15h02.06.341,lexical_decision_task_MP_exp2,2020.2.5,MacIntel,60,,z,1,0.454135,,,,,,,,0.454135,1,,,,,,367,NW,"ID",16,slique,SLIQUE,z,,,,,,0.056384549,-0.407907986,0,0,0,,0,208,208,306,1,
,,,,,,,,,,,,,,,,,,5fa1462db029651fd1486dc8,2020-11-27_15h02.06.341,lexical_decision_task_MP_exp2,2020.2.5,MacIntel,60,,z,1,0.519705,,,,,,,,0.519705,1,,,,,,255,NW,UN,16,inlors,APIGHT,z,,,,,,0.056384549,-0.407907986,0,0,0,,0,209,209,434,1,
,,,,,,,,,,,,,,,,,,5fa1462db029651fd1486dc8,2020-11-27_15h02.06.341,lexical_decision_task_MP_exp2,2020.2.5,MacIntel,60,,m,1,0.605595,,,,,,,,0.605595,1,,,,,,198,WORD,UN,33,invoke,WICKED,m,,,,,,0.056384549,-0.407907986,0,0,0,,0,210,210,137,1,
,,,,,,,,,,,,,,,,,,5fa1462db029651fd1486dc8,2020-11-27_15h02.06.341,lexical_decision_task_MP_exp2,2020.2.5,MacIntel,60,,m,0,0.54172,,,,,,,,0.54172,0,,,,,,270,NW,UN,16,aubrid,WRIMSY,z,,,,,,0.056384549,-0.407907986,0,0,0,,0,211,211,449,1,
,,,,,,,,,,,,,,,,,,5fa1462db029651fd1486dc8,2020-11-27_15h02.06.341,lexical_decision_task_MP_exp2,2020.2.5,MacIntel,60,,m,1,0.51458,,,,,,,,0.51458,1,,,,,,161,WORD,"ID",16,pastor,PASTOR,m,,,,,,0.056384549,-0.407907986,0,0,0,,0,212,212,100,1,
,,,,,,,,,,,,,,,,,,5fa1462db029651fd1486dc8,2020-11-27_15h02.06.341,lexical_decision_task_MP_exp2,2020.2.5,MacIntel,60,,m,1,0.56589,,,,,,,,0.56589,1,,,,,,107,WORD,"ID",33,slogan,SLOGAN,m,,,,,,0.056384549,-0.407907986,0,0,0,,0,213,213,46,1,
,,,,,,,,,,,,,,,,,,5fa1462db029651fd1486dc8,2020-11-27_15h02.06.341,lexical_decision_task_MP_exp2,2020.2.5,MacIntel,60,,m,1,0.41515,,,,,,,,0.41515,1,,,,,,48,WORD,UN,16,survey,WALNUT,m,,,,,,0.056384549,-0.407907986,0,0,0,,0,214,214,227,1,
,,,,,,,,,,,,,,,,,,5fa1462db029651fd1486dc8,2020-11-27_15h02.06.341,lexical_decision_task_MP_exp2,2020.2.5,MacIntel,60,,m,1,0.51467,,,,,,,,0.51467,1,,,,,,149,WORD,"ID",16,invade,INVADE,m,,,,,,0.056384549,-0.407907986,0,0,0,,0,215,215,88,1,
,,,,,,,,,,,,,,,,,,5fa1462db029651fd1486dc8,2020-11-27_15h02.06.341,lexical_decision_task_MP_exp2,2020.2.5,MacIntel,60,,m,1,0.399115,,,,,,,,0.399115,1,,,,,,148,WORD,"ID",16,custom,CUSTOM,m,,,,,,0.056384549,-0.407907986,0,0,0,,0,216,216,87,1,
,,,,,,,,,,,,,,,,,,5fa1462db029651fd1486dc8,2020-11-27_15h02.06.341,lexical_decision_task_MP_exp2,2020.2.5,MacIntel,60,,z,1,0.536275,,,,,,,,0.536275,1,,,,,,365,NW,"ID",16,guairt,GUAIRT,z,,,,,,0.056384549,-0.407907986,0,0,0,,0,217,217,304,1,
,,,,,,,,,,,,,,,,,,5fa1462db029651fd1486dc8,2020-11-27_15h02.06.341,lexical_decision_task_MP_exp2,2020.2.5,MacIntel,60,,z,1,0.53104,,,,,,,,0.53104,1,,,,,,277,NW,UN,16,unighs,PETAIN,z,,,,,,0.056384549,-0.407907986,0,0,0,,0,218,218,456,1,
,,,,,,,,,,,,,,,,,,5fa1462db029651fd1486dc8,2020-11-27_15h02.06.341,lexical_decision_task_MP_exp2,2020.2.5,MacIntel,60,,m,1,0.51994,,,,,,,,0.51994,1,,,,,,88,WORD,"ID",33,hunger,HUNGER,m,,,,,,0.056384549,-0.407907986,0,0,0,,0,219,219,27,1,
,,,,,,,,,,,,,,,,,,5fa1462db029651fd1486dc8,2020-11-27_15h02.06.341,lexical_decision_task_MP_exp2,2020.2.5,MacIntel,60,,m,1,0.418595,,,,,,,,0.418595,1,,,,,,173,WORD,"ID",16,shower,SHOWER,m,,,,,,0.056384549,-0.407907986,0,0,0,,0,220,220,112,1,
,,,,,,,,,,,,,,,,,,5fa1462db029651fd1486dc8,2020-11-27_15h02.06.341,lexical_decision_task_MP_exp2,2020.2.5,MacIntel,60,,z,1,0.58409,,,,,,,,0.58409,1,,,,,,434,NW,UN,33,impurb,PITROM,z,,,,,,0.056384549,-0.407907986,0,0,0,,0,221,221,373,1,
,,,,,,,,,,,,,,,,,,5fa1462db029651fd1486dc8,2020-11-27_15h02.06.341,lexical_decision_task_MP_exp2,2020.2.5,MacIntel,60,,z,0,0.358845,,,,,,,,0.358845,0,,,,,,90,WORD,"ID",33,relish,RELISH,m,,,,,,0.056384549,-0.407907986,0,0,0,,0,222,222,29,1,
,,,,,,,,,,,,,,,,,,5fa1462db029651fd1486dc8,2020-11-27_15h02.06.341,lexical_decision_task_MP_exp2,2020.2.5,MacIntel,60,,m,1,0.420615,,,,,,,,0.420615,1,,,,,,126,WORD,"ID",16,enough,ENOUGH,m,,,,,,0.056384549,-0.407907986,0,0,0,,0,223,223,65,1,
,,,,,,,,,,,,,,,,,,5fa1462db029651fd1486dc8,2020-11-27_15h02.06.341,lexical_decision_task_MP_exp2,2020.2.5,MacIntel,60,,m,1,0.40482,,,,,,,,0.40482,1,,,,,,157,WORD,"ID",16,dragon,DRAGON,m,,,,,,0.056384549,-0.407907986,0,0,0,,0,224,224,96,1,
,,,,,,,,,,,,,,,,,,5fa1462db029651fd1486dc8,2020-11-27_15h02.06.341,lexical_decision_task_MP_exp2,2020.2.5,MacIntel,60,,m,0,0.41647,,,,,,,,0.41647,0,,,,,,432,NW,UN,33,drance,LUNKER,z,,,,,,0.056384549,-0.407907986,0,0,0,,0,225,225,371,1,
,,,,,,,,,,,,,,,,,,5fa1462db029651fd1486dc8,2020-11-27_15h02.06.341,lexical_decision_task_MP_exp2,2020.2.5,MacIntel,60,,m,1,0.71598,,,,,,,,0.71598,1,,,,,,199,WORD,UN,33,plague,INVOKE,m,,,,,,0.056384549,-0.407907986,0,0,0,,0,226,226,138,1,
,,,,,,,,,,,,,,,,,,5fa1462db029651fd1486dc8,2020-11-27_15h02.06.341,lexical_decision_task_MP_exp2,2020.2.5,MacIntel,60,,m,1,0.502495,,,,,,,,0.502495,1,,,,,,192,WORD,UN,33,object,PLAGUE,m,,,,,,0.056384549,-0.407907986,0,0,0,,0,227,227,131,1,
,,,,,,,,,,,,,,,,,,5fa1462db029651fd1486dc8,2020-11-27_15h02.06.341,lexical_decision_task_MP_exp2,2020.2.5,MacIntel,60,,m,1,0.405885,,,,,,,,0.405885,1,,,,,,96,WORD,"ID",33,ignore,IGNORE,m,,,,,,0.056384549,-0.407907986,0,0,0,,0,228,228,35,1,
,,,,,,,,,,,,,,,,,,5fa1462db029651fd1486dc8,2020-11-27_15h02.06.341,lexical_decision_task_MP_exp2,2020.2.5,MacIntel,60,,z,1,0.56669,,,,,,,,0.56669,1,,,,,,282,NW,UN,16,veralf,PORLEX,z,,,,,,0.056384549,-0.407907986,0,0,0,,0,229,229,461,1,
,,,,,,,,,,,,,,,,,,5fa1462db029651fd1486dc8,2020-11-27_15h02.06.341,lexical_decision_task_MP_exp2,2020.2.5,MacIntel,60,,m,1,0.521335,,,,,,,,0.521335,1,,,,,,120,WORD,"ID",33,strain,STRAIN,m,,,,,,0.056384549,-0.407907986,0,0,0,,0,230,230,59,1,
,,,,,,,,,,,,,,,,,,5fa1462db029651fd1486dc8,2020-11-27_15h02.06.341,lexical_decision_task_MP_exp2,2020.2.5,MacIntel,60,,m,1,0.40801,,,,,,,,0.40801,1,,,,,,53,WORD,UN,16,ramble,POLICE,m,,,,,,0.056384549,-0.407907986,0,0,0,,0,231,231,232,1,
,,,,,,,,,,,,,,,,,,5fa1462db029651fd1486dc8,2020-11-27_15h02.06.341,lexical_decision_task_MP_exp2,2020.2.5,MacIntel,60,,m,1,0.415975,,,,,,,,0.415975,1,,,,,,238,WORD,UN,33,behalf,FLOWER,m,,,,,,0.056384549,-0.407907986,0,0,0,,0,232,232,177,1,
,,,,,,,,,,,,,,,,,,5fa1462db029651fd1486dc8,2020-11-27_15h02.06.341,lexical_decision_task_MP_exp2,2020.2.5,MacIntel,60,,m,0,0.452215,,,,,,,,0.452215,0,,,,,,318,NW,"ID",33,reagly,REAGLY,z,,,,,,0.056384549,-0.407907986,0,0,0,,0,233,233,257,1,
,,,,,,,,,,,,,,,,,,5fa1462db029651fd1486dc8,2020-11-27_15h02.06.341,lexical_decision_task_MP_exp2,2020.2.5,MacIntel,60,,m,0,0.536285,,,,,,,,0.536285,0,,,,,,306,NW,"ID",33,sounge,SOUNGE,z,,,,,,0.056384549,-0.407907986,0,0,0,,0,234,234,245,1,
,,,,,,,,,,,,,,,,,,5fa1462db029651fd1486dc8,2020-11-27_15h02.06.341,lexical_decision_task_MP_exp2,2020.2.5,MacIntel,60,,z,1,0.52043,,,,,,,,0.52043,1,,,,,,444,NW,UN,33,minkel,JAUNCE,z,,,,,,0.056384549,-0.407907986,0,0,0,,0,235,235,383,1,
,,,,,,,,,,,,,,,,,,5fa1462db029651fd1486dc8,2020-11-27_15h02.06.341,lexical_decision_task_MP_exp2,2020.2.5,MacIntel,60,,z,0,0.53388,,,,,,,,0.53388,0,,,,,,166,WORD,"ID",16,starch,STARCH,m,,,,,,0.056384549,-0.407907986,0,0,0,,0,236,236,105,1,
,,,,,,,,,,,,,,,,,,5fa1462db029651fd1486dc8,2020-11-27_15h02.06.341,lexical_decision_task_MP_exp2,2020.2.5,MacIntel,60,,m,1,0.48384,,,,,,,,0.48384,1,,,,,,39,WORD,UN,16,convey,INSECT,m,,,,,,0.056384549,-0.407907986,0,0,0,,0,237,237,218,1,
,,,,,,,,,,,,,,,,,,5fa1462db029651fd1486dc8,2020-11-27_15h02.06.341,lexical_decision_task_MP_exp2,2020.2.5,MacIntel,60,,z,1,0.49862,,,,,,,,0.49862,1,,,,,,471,NW,UN,33,cigney,NOBEST,z,,,,,,0.056384549,-0.407907986,0,0,0,,0,238,238,410,1,
,,,,,,,,,,,,,,,,,,5fa1462db029651fd1486dc8,2020-11-27_15h02.06.341,lexical_decision_task_MP_exp2,2020.2.5,MacIntel,60,,z,0,0.504865,,,,,,,,0.504865,0,,,,,,74,WORD,"ID",33,plaque,PLAQUE,m,,,,,,0.056384549,-0.407907986,0,0,0,,0,239,239,13,1,
,,,,,,,,,,,,,,,,,,5fa1462db029651fd1486dc8,2020-11-27_15h02.06.341,lexical_decision_task_MP_exp2,2020.2.5,MacIntel,60,,m,1,0.651325,,,,,,,,0.651325,1,,,,,,17,WORD,UN,16,humble,CHARGE,m,,,,,,0.056384549,-0.407907986,0,0,0,,0,240,240,196,1,
,,,,,,,,,,,,,,,,,,5fa1462db029651fd1486dc8,2020-11-27_15h02.06.341,lexical_decision_task_MP_exp2,2020.2.5,MacIntel,60,,m,1,0.437265,,,,,,,,0.437265,1,,,,,,31,WORD,UN,16,buckle,WEAPON,m,,,,,,0.056384549,-0.407907986,0,0,0,space,0,241,241,210,1,2.632465
,,,,,,,,,,,,,,,,,,5fa1462db029651fd1486dc8,2020-11-27_15h02.06.341,lexical_decision_task_MP_exp2,2020.2.5,MacIntel,60,,m,0,0.51609,,,,,,,,0.51609,0,,,,,,293,NW,UN,16,inhort,SWANCE,z,,,,,,0.056384549,-0.407907986,0,0,0,,0,242,242,472,1,
,,,,,,,,,,,,,,,,,,5fa1462db029651fd1486dc8,2020-11-27_15h02.06.341,lexical_decision_task_MP_exp2,2020.2.5,MacIntel,60,,m,1,0.50378,,,,,,,,0.50378,1,,,,,,229,WORD,UN,33,fringe,MOTHER,m,,,,,,0.056384549,-0.407907986,0,0,0,,0,243,243,168,1,
,,,,,,,,,,,,,,,,,,5fa1462db029651fd1486dc8,2020-11-27_15h02.06.341,lexical_decision_task_MP_exp2,2020.2.5,MacIntel,60,,z,1,0.45072,,,,,,,,0.45072,1,,,,,,403,NW,"ID",16,bruats,BRUATS,z,,,,,,0.056384549,-0.407907986,0,0,0,,0,244,244,342,1,
,,,,,,,,,,,,,,,,,,5fa1462db029651fd1486dc8,2020-11-27_15h02.06.341,lexical_decision_task_MP_exp2,2020.2.5,MacIntel,60,,z,1,0.41674,,,,,,,,0.41674,1,,,,,,459,NW,UN,33,mingar,BAFENT,z,,,,,,0.056384549,-0.407907986,0,0,0,,0,245,245,398,1,
,,,,,,,,,,,,,,,,,,5fa1462db029651fd1486dc8,2020-11-27_15h02.06.341,lexical_decision_task_MP_exp2,2020.2.5,MacIntel,60,,m,0,0.54879,,,,,,,,0.54879,0,,,,,,418,NW,"ID",16,suidle,SUIDLE,z,,,,,,0.056384549,-0.407907986,0,0,0,,0,246,246,357,1,
,,,,,,,,,,,,,,,,,,5fa1462db029651fd1486dc8,2020-11-27_15h02.06.341,lexical_decision_task_MP_exp2,2020.2.5,MacIntel,60,,m,1,0.816795,,,,,,,,0.816795,1,,,,,,230,WORD,UN,33,mother,FRINGE,m,,,,,,0.056384549,-0.407907986,0,0,0,,0,247,247,169,1,
,,,,,,,,,,,,,,,,,,5fa1462db029651fd1486dc8,2020-11-27_15h02.06.341,lexical_decision_task_MP_exp2,2020.2.5,MacIntel,60,,m,0,0.903045,,,,,,,,0.903045,0,,,,,,250,NW,UN,16,lupict,MILTED,z,,,,,,0.056384549,-0.407907986,0,0,0,,0,248,248,429,1,
,,,,,,,,,,,,,,,,,,5fa1462db029651fd1486dc8,2020-11-27_15h02.06.341,lexical_decision_task_MP_exp2,2020.2.5,MacIntel,60,,m,1,0.54909,,,,,,,,0.54909,1,,,,,,111,WORD,"ID",33,induce,INDUCE,m,,,,,,0.056384549,-0.407907986,0,0,0,,0,249,249,50,1,
,,,,,,,,,,,,,,,,,,5fa1462db029651fd1486dc8,2020-11-27_15h02.06.341,lexical_decision_task_MP_exp2,2020.2.5,MacIntel,60,,m,1,0.43335,,,,,,,,0.43335,1,,,,,,197,WORD,UN,33,wicked,STREAM,m,,,,,,0.056384549,-0.407907986,0,0,0,,0,250,250,136,1,
,,,,,,,,,,,,,,,,,,5fa1462db029651fd1486dc8,2020-11-27_15h02.06.341,lexical_decision_task_MP_exp2,2020.2.5,MacIntel,60,,z,1,0.549135,,,,,,,,0.549135,1,,,,,,415,NW,"ID",16,higsta,HIGSTA,z,,,,,,0.056384549,-0.407907986,0,0,0,,0,251,251,354,1,
,,,,,,,,,,,,,,,,,,5fa1462db029651fd1486dc8,2020-11-27_15h02.06.341,lexical_decision_task_MP_exp2,2020.2.5,MacIntel,60,,z,0,0.436765,,,,,,,,0.436765,0,,,,,,191,WORD,UN,33,beacon,STABLE,m,,,,,,0.056384549,-0.407907986,0,0,0,,0,252,252,130,1,
,,,,,,,,,,,,,,,,,,5fa1462db029651fd1486dc8,2020-11-27_15h02.06.341,lexical_decision_task_MP_exp2,2020.2.5,MacIntel,60,,m,0,0.481655,,,,,,,,0.481655,0,,,,,,377,NW,"ID",16,injore,INJORE,z,,,,,,0.056384549,-0.407907986,0,0,0,,0,253,253,316,1,
,,,,,,,,,,,,,,,,,,5fa1462db029651fd1486dc8,2020-11-27_15h02.06.341,lexical_decision_task_MP_exp2,2020.2.5,MacIntel,60,,z,1,0.501865,,,,,,,,0.501865,1,,,,,,320,NW,"ID",33,jockal,JOCKAL,z,,,,,,0.056384549,-0.407907986,0,0,0,,0,254,254,259,1,
,,,,,,,,,,,,,,,,,,5fa1462db029651fd1486dc8,2020-11-27_15h02.06.341,lexical_decision_task_MP_exp2,2020.2.5,MacIntel,60,,z,1,0.58249,,,,,,,,0.58249,1,,,,,,359,NW,"ID",33,fonver,FONVER,z,,,,,,0.056384549,-0.407907986,0,0,0,,0,255,255,298,1,
,,,,,,,,,,,,,,,,,,5fa1462db029651fd1486dc8,2020-11-27_15h02.06.341,lexical_decision_task_MP_exp2,2020.2.5,MacIntel,60,,z,1,0.514085,,,,,,,,0.514085,1,,,,,,363,NW,"ID",16,breali,BREALI,z,,,,,,0.056384549,-0.407907986,0,0,0,,0,256,256,302,1,
,,,,,,,,,,,,,,,,,,5fa1462db029651fd1486dc8,2020-11-27_15h02.06.341,lexical_decision_task_MP_exp2,2020.2.5,MacIntel,60,,z,0,0.47026,,,,,,,,0.47026,0,,,,,,54,WORD,UN,16,stroke,RAMBLE,m,,,,,,0.056384549,-0.407907986,0,0,0,,0,257,257,233,1,
,,,,,,,,,,,,,,,,,,5fa1462db029651fd1486dc8,2020-11-27_15h02.06.341,lexical_decision_task_MP_exp2,2020.2.5,MacIntel,60,,z,0,0.515945,,,,,,,,0.515945,0,,,,,,201,WORD,UN,33,factor,ADMIRE,m,,,,,,0.056384549,-0.407907986,0,0,0,,0,258,258,140,1,
,,,,,,,,,,,,,,,,,,5fa1462db029651fd1486dc8,2020-11-27_15h02.06.341,lexical_decision_task_MP_exp2,2020.2.5,MacIntel,60,,m,1,0.61587,,,,,,,,0.61587,1,,,,,,218,WORD,UN,33,bucket,SHRINK,m,,,,,,0.056384549,-0.407907986,0,0,0,,0,259,259,157,1,
,,,,,,,,,,,,,,,,,,5fa1462db029651fd1486dc8,2020-11-27_15h02.06.341,lexical_decision_task_MP_exp2,2020.2.5,MacIntel,60,,z,1,0.615035,,,,,,,,0.615035,1,,,,,,271,NW,UN,16,damilt,AUBRID,z,,,,,,0.056384549,-0.407907986,0,0,0,,0,260,260,450,1,
,,,,,,,,,,,,,,,,,,5fa1462db029651fd1486dc8,2020-11-27_15h02.06.341,lexical_decision_task_MP_exp2,2020.2.5,MacIntel,60,,z,1,0.74832,,,,,,,,0.74832,1,,,,,,455,NW,UN,33,broget,TONDLE,z,,,,,,0.056384549,-0.407907986,0,0,0,,0,261,261,394,1,
,,,,,,,,,,,,,,,,,,5fa1462db029651fd1486dc8,2020-11-27_15h02.06.341,lexical_decision_task_MP_exp2,2020.2.5,MacIntel,60,,z,1,0.44962,,,,,,,,0.44962,1,,,,,,435,NW,UN,33,frutan,IMPURB,z,,,,,,0.056384549,-0.407907986,0,0,0,,0,262,262,374,1,
,,,,,,,,,,,,,,,,,,5fa1462db029651fd1486dc8,2020-11-27_15h02.06.341,lexical_decision_task_MP_exp2,2020.2.5,MacIntel,60,,z,1,0.466195,,,,,,,,0.466195,1,,,,,,274,NW,UN,16,sleirt,FUMBLO,z,,,,,,0.056384549,-0.407907986,0,0,0,,0,263,263,453,1,
,,,,,,,,,,,,,,,,,,5fa1462db029651fd1486dc8,2020-11-27_15h02.06.341,lexical_decision_task_MP_exp2,2020.2.5,MacIntel,60,,z,0,0.438135,,,,,,,,0.438135,0,,,,,,108,WORD,"ID",33,reckon,RECKON,m,,,,,,0.056384549,-0.407907986,0,0,0,,0,264,264,47,1,
,,,,,,,,,,,,,,,,,,5fa1462db029651fd1486dc8,2020-11-27_15h02.06.341,lexical_decision_task_MP_exp2,2020.2.5,MacIntel,60,,m,0,0.451845,,,,,,,,0.451845,0,,,,,,364,NW,"ID",16,impote,IMPOTE,z,,,,,,0.056384549,-0.407907986,0,0,0,,0,265,265,303,1,
,,,,,,,,,,,,,,,,,,5fa1462db029651fd1486dc8,2020-11-27_15h02.06.341,lexical_decision_task_MP_exp2,2020.2.5,MacIntel,60,,m,1,0.688945,,,,,,,,0.688945,1,,,,,,20,WORD,UN,16,simple,BREAST,m,,,,,,0.056384549,-0.407907986,0,0,0,,0,266,266,199,1,
,,,,,,,,,,,,,,,,,,5fa1462db029651fd1486dc8,2020-11-27_15h02.06.341,lexical_decision_task_MP_exp2,2020.2.5,MacIntel,60,,z,1,0.56529,,,,,,,,0.56529,1,,,,,,329,NW,"ID",33,yarike,YARIKE,z,,,,,,0.056384549,-0.407907986,0,0,0,,0,267,267,268,1,
,,,,,,,,,,,,,,,,,,5fa1462db029651fd1486dc8,2020-11-27_15h02.06.341,lexical_decision_task_MP_exp2,2020.2.5,MacIntel,60,,m,1,0.61455,,,,,,,,0.61455,1,,,,,,125,WORD,"ID",16,nickel,NICKEL,m,,,,,,0.056384549,-0.407907986,0,0,0,,0,268,268,64,1,
,,,,,,,,,,,,,,,,,,5fa1462db029651fd1486dc8,2020-11-27_15h02.06.341,lexical_decision_task_MP_exp2,2020.2.5,MacIntel,60,,m,0,0.73527,,,,,,,,0.73527,0,,,,,,355,NW,"ID",33,zingly,ZINGLY,z,,,,,,0.056384549,-0.407907986,0,0,0,,0,269,269,294,1,
,,,,,,,,,,,,,,,,,,5fa1462db029651fd1486dc8,2020-11-27_15h02.06.341,lexical_decision_task_MP_exp2,2020.2.5,MacIntel,60,,m,1,0.44781,,,,,,,,0.44781,1,,,,,,174,WORD,"ID",16,turkey,TURKEY,m,,,,,,0.056384549,-0.407907986,0,0,0,,0,270,270,113,1,
,,,,,,,,,,,,,,,,,,5fa1462db029651fd1486dc8,2020-11-27_15h02.06.341,lexical_decision_task_MP_exp2,2020.2.5,MacIntel,60,,m,0,0.514235,,,,,,,,0.514235,0,,,,,,384,NW,"ID",16,guesco,GUESCO,z,,,,,,0.056384549,-0.407907986,0,0,0,,0,271,271,323,1,
,,,,,,,,,,,,,,,,,,5fa1462db029651fd1486dc8,2020-11-27_15h02.06.341,lexical_decision_task_MP_exp2,2020.2.5,MacIntel,60,,m,1,0.520725,,,,,,,,0.520725,1,,,,,,72,WORD,"ID",33,bright,BRIGHT,m,,,,,,0.056384549,-0.407907986,0,0,0,,0,272,272,11,1,
,,,,,,,,,,,,,,,,,,5fa1462db029651fd1486dc8,2020-11-27_15h02.06.341,lexical_decision_task_MP_exp2,2020.2.5,MacIntel,60,,m,0,0.47205,,,,,,,,0.47205,0,,,,,,265,NW,UN,16,varmit,DISTAR,z,,,,,,0.056384549,-0.407907986,0,0,0,,0,273,273,444,1,
,,,,,,,,,,,,,,,,,,5fa1462db029651fd1486dc8,2020-11-27_15h02.06.341,lexical_decision_task_MP_exp2,2020.2.5,MacIntel,60,,z,1,0.70326,,,,,,,,0.70326,1,,,,,,292,NW,UN,16,swance,ABLINT,z,,,,,,0.056384549,-0.407907986,0,0,0,,0,274,274,471,1,
,,,,,,,,,,,,,,,,,,5fa1462db029651fd1486dc8,2020-11-27_15h02.06.341,lexical_decision_task_MP_exp2,2020.2.5,MacIntel,60,,z,1,0.482815,,,,,,,,0.482815,1,,,,,,322,NW,"ID",33,slanch,SLANCH,z,,,,,,0.056384549,-0.407907986,0,0,0,,0,275,275,261,1,
,,,,,,,,,,,,,,,,,,5fa1462db029651fd1486dc8,2020-11-27_15h02.06.341,lexical_decision_task_MP_exp2,2020.2.5,MacIntel,60,,z,0,0.48192,,,,,,,,0.48192,0,,,,,,114,WORD,"ID",33,placid,PLACID,m,,,,,,0.056384549,-0.407907986,0,0,0,,0,276,276,53,1,
,,,,,,,,,,,,,,,,,,5fa1462db029651fd1486dc8,2020-11-27_15h02.06.341,lexical_decision_task_MP_exp2,2020.2.5,MacIntel,60,,z,0,0.50596,,,,,,,,0.50596,0,,,,,,45,WORD,UN,16,single,CLERGY,m,,,,,,0.056384549,-0.407907986,0,0,0,,0,277,277,224,1,
,,,,,,,,,,,,,,,,,,5fa1462db029651fd1486dc8,2020-11-27_15h02.06.341,lexical_decision_task_MP_exp2,2020.2.5,MacIntel,60,,m,1,1.064695,,,,,,,,1.064695,1,,,,,,206,WORD,UN,33,wreath,TAILOR,m,,,,,,0.056384549,-0.407907986,0,0,0,,0,278,278,145,1,
,,,,,,,,,,,,,,,,,,5fa1462db029651fd1486dc8,2020-11-27_15h02.06.341,lexical_decision_task_MP_exp2,2020.2.5,MacIntel,60,,m,1,0.483245,,,,,,,,0.483245,1,,,,,,118,WORD,"ID",33,flight,FLIGHT,m,,,,,,0.056384549,-0.407907986,0,0,0,,0,279,279,57,1,
,,,,,,,,,,,,,,,,,,5fa1462db029651fd1486dc8,2020-11-27_15h02.06.341,lexical_decision_task_MP_exp2,2020.2.5,MacIntel,60,,z,1,0.597675,,,,,,,,0.597675,1,,,,,,251,NW,UN,16,stapod,LUPICT,z,,,,,,0.056384549,-0.407907986,0,0,0,,0,280,280,430,1,
,,,,,,,,,,,,,,,,,,5fa1462db029651fd1486dc8,2020-11-27_15h02.06.341,lexical_decision_task_MP_exp2,2020.2.5,MacIntel,60,,m,0,0.450185,,,,,,,,0.450185,0,,,,,,313,NW,"ID",33,paurse,PAURSE,z,,,,,,0.056384549,-0.407907986,0,0,0,,0,281,281,252,1,
,,,,,,,,,,,,,,,,,,5fa1462db029651fd1486dc8,2020-11-27_15h02.06.341,lexical_decision_task_MP_exp2,2020.2.5,MacIntel,60,,m,1,0.61685,,,,,,,,0.61685,1,,,,,,95,WORD,"ID",33,thread,THREAD,m,,,,,,0.056384549,-0.407907986,0,0,0,,0,282,282,34,1,
,,,,,,,,,,,,,,,,,,5fa1462db029651fd1486dc8,2020-11-27_15h02.06.341,lexical_decision_task_MP_exp2,2020.2.5,MacIntel,60,,z,0,0.435645,,,,,,,,0.435645,0,,,,,,185,WORD,UN,33,portal,BOTHER,m,,,,,,0.056384549,-0.407907986,0,0,0,,0,283,283,124,1,
,,,,,,,,,,,,,,,,,,5fa1462db029651fd1486dc8,2020-11-27_15h02.06.341,lexical_decision_task_MP_exp2,2020.2.5,MacIntel,60,,z,1,0.932835,,,,,,,,0.932835,1,,,,,,480,NW,UN,33,knisma,ROBULY,z,,,,,,0.056384549,-0.407907986,0,0,0,,0,284,284,419,1,
,,,,,,,,,,,,,,,,,,5fa1462db029651fd1486dc8,2020-11-27_15h02.06.341,lexical_decision_task_MP_exp2,2020.2.5,MacIntel,60,,m,1,0.774525,,,,,,,,0.774525,1,,,,,,141,WORD,"ID",16,orphan,ORPHAN,m,,,,,,0.056384549,-0.407907986,0,0,0,,0,285,285,80,1,
,,,,,,,,,,,,,,,,,,5fa1462db029651fd1486dc8,2020-11-27_15h02.06.341,lexical_decision_task_MP_exp2,2020.2.5,MacIntel,60,,z,1,0.715705,,,,,,,,0.715705,1,,,,,,424,NW,UN,33,frudge,PRAILE,z,,,,,,0.056384549,-0.407907986,0,0,0,,0,286,286,363,1,
,,,,,,,,,,,,,,,,,,5fa1462db029651fd1486dc8,2020-11-27_15h02.06.341,lexical_decision_task_MP_exp2,2020.2.5,MacIntel,60,,z,1,0.633895,,,,,,,,0.633895,1,,,,,,413,NW,"ID",16,equats,EQUATS,z,,,,,,0.056384549,-0.407907986,0,0,0,,0,287,287,352,1,
,,,,,,,,,,,,,,,,,,5fa1462db029651fd1486dc8,2020-11-27_15h02.06.341,lexical_decision_task_MP_exp2,2020.2.5,MacIntel,60,,z,0,0.58928,,,,,,,,0.58928,0,,,,,,196,WORD,UN,33,stream,CREDIT,m,,,,,,0.056384549,-0.407907986,0,0,0,,0,288,288,135,1,
,,,,,,,,,,,,,,,,,,5fa1462db029651fd1486dc8,2020-11-27_15h02.06.341,lexical_decision_task_MP_exp2,2020.2.5,MacIntel,60,,z,1,0.683485,,,,,,,,0.683485,1,,,,,,302,NW,"ID",33,miluer,MILUER,z,,,,,,0.056384549,-0.407907986,0,0,0,,0,289,289,241,1,
,,,,,,,,,,,,,,,,,,5fa1462db029651fd1486dc8,2020-11-27_15h02.06.341,lexical_decision_task_MP_exp2,2020.2.5,MacIntel,60,,z,1,0.757045,,,,,,,,0.757045,1,,,,,,404,NW,"ID",16,cluirm,CLUIRM,z,,,,,,0.056384549,-0.407907986,0,0,0,,0,290,290,343,1,
,,,,,,,,,,,,,,,,,,5fa1462db029651fd1486dc8,2020-11-27_15h02.06.341,lexical_decision_task_MP_exp2,2020.2.5,MacIntel,60,,m,0,0.533365,,,,,,,,0.533365,0,,,,,,319,NW,"ID",33,zomber,ZOMBER,z,,,,,,0.056384549,-0.407907986,0,0,0,,0,291,291,258,1,
,,,,,,,,,,,,,,,,,,5fa1462db029651fd1486dc8,2020-11-27_15h02.06.341,lexical_decision_task_MP_exp2,2020.2.5,MacIntel,60,,m,1,0.59175,,,,,,,,0.59175,1,,,,,,137,WORD,"ID",16,finger,FINGER,m,,,,,,0.056384549,-0.407907986,0,0,0,,0,292,292,76,1,
,,,,,,,,,,,,,,,,,,5fa1462db029651fd1486dc8,2020-11-27_15h02.06.341,lexical_decision_task_MP_exp2,2020.2.5,MacIntel,60,,z,1,0.81479,,,,,,,,0.81479,1,,,,,,362,NW,"ID",16,tireau,TIREAU,z,,,,,,0.056384549,-0.407907986,0,0,0,,0,293,293,301,1,
,,,,,,,,,,,,,,,,,,5fa1462db029651fd1486dc8,2020-11-27_15h02.06.341,lexical_decision_task_MP_exp2,2020.2.5,MacIntel,60,,m,1,0.580325,,,,,,,,0.580325,1,,,,,,4,WORD,UN,16,plunge,TRENCH,m,,,,,,0.056384549,-0.407907986,0,0,0,,0,294,294,183,1,
,,,,,,,,,,,,,,,,,,5fa1462db029651fd1486dc8,2020-11-27_15h02.06.341,lexical_decision_task_MP_exp2,2020.2.5,MacIntel,60,,m,1,0.865225,,,,,,,,0.865225,1,,,,,,113,WORD,"ID",33,chorus,CHORUS,m,,,,,,0.056384549,-0.407907986,0,0,0,,0,295,295,52,1,
,,,,,,,,,,,,,,,,,,5fa1462db029651fd1486dc8,2020-11-27_15h02.06.341,lexical_decision_task_MP_exp2,2020.2.5,MacIntel,60,,m,1,0.53197,,,,,,,,0.53197,1,,,,,,105,WORD,"ID",33,number,NUMBER,m,,,,,,0.056384549,-0.407907986,0,0,0,,0,296,296,44,1,
,,,,,,,,,,,,,,,,,,5fa1462db029651fd1486dc8,2020-11-27_15h02.06.341,lexical_decision_task_MP_exp2,2020.2.5,MacIntel,60,,m,0,0.61528,,,,,,,,0.61528,0,,,,,,348,NW,"ID",33,dumple,DUMPLE,z,,,,,,0.056384549,-0.407907986,0,0,0,,0,297,297,287,1,
,,,,,,,,,,,,,,,,,,5fa1462db029651fd1486dc8,2020-11-27_15h02.06.341,lexical_decision_task_MP_exp2,2020.2.5,MacIntel,60,,z,1,0.65029,,,,,,,,0.65029,1,,,,,,279,NW,UN,16,curbol,CELOND,z,,,,,,0.056384549,-0.407907986,0,0,0,,0,298,298,458,1,
,,,,,,,,,,,,,,,,,,5fa1462db029651fd1486dc8,2020-11-27_15h02.06.341,lexical_decision_task_MP_exp2,2020.2.5,MacIntel,60,,z,0,0.469775,,,,,,,,0.469775,0,,,,,,203,WORD,UN,33,burden,PHRASE,m,,,,,,0.056384549,-0.407907986,0,0,0,,0,299,299,142,1,
,,,,,,,,,,,,,,,,,,5fa1462db029651fd1486dc8,2020-11-27_15h02.06.341,lexical_decision_task_MP_exp2,2020.2.5,MacIntel,60,,m,1,0.693155,,,,,,,,0.693155,1,,,,,,239,WORD,UN,33,forest,LUMBER,m,,,,,,0.056384549,-0.407907986,0,0,0,,0,300,300,178,1,
,,,,,,,,,,,,,,,,,,5fa1462db029651fd1486dc8,2020-11-27_15h02.06.341,lexical_decision_task_MP_exp2,2020.2.5,MacIntel,60,,m,1,0.483585,,,,,,,,0.483585,1,,,,,,67,WORD,"ID",33,policy,POLICY,m,,,,,,0.056384549,-0.407907986,0,0,0,,0,301,301,6,1,
,,,,,,,,,,,,,,,,,,5fa1462db029651fd1486dc8,2020-11-27_15h02.06.341,lexical_decision_task_MP_exp2,2020.2.5,MacIntel,60,,m,1,0.497075,,,,,,,,0.497075,1,,,,,,159,WORD,"ID",16,detail,DETAIL,m,,,,,,0.056384549,-0.407907986,0,0,0,,0,302,302,98,1,
,,,,,,,,,,,,,,,,,,5fa1462db029651fd1486dc8,2020-11-27_15h02.06.341,lexical_decision_task_MP_exp2,2020.2.5,MacIntel,60,,z,1,0.64819,,,,,,,,0.64819,1,,,,,,296,NW,UN,16,fertic,BEINCH,z,,,,,,0.056384549,-0.407907986,0,0,0,,0,303,303,475,1,
,,,,,,,,,,,,,,,,,,5fa1462db029651fd1486dc8,2020-11-27_15h02.06.341,lexical_decision_task_MP_exp2,2020.2.5,MacIntel,60,,m,1,0.55014,,,,,,,,0.55014,1,,,,,,73,WORD,"ID",33,source,SOURCE,m,,,,,,0.056384549,-0.407907986,0,0,0,,0,304,304,12,1,
,,,,,,,,,,,,,,,,,,5fa1462db029651fd1486dc8,2020-11-27_15h02.06.341,lexical_decision_task_MP_exp2,2020.2.5,MacIntel,60,,m,1,0.46554,,,,,,,,0.46554,1,,,,,,180,WORD,"ID",16,silent,SILENT,m,,,,,,0.056384549,-0.407907986,0,0,0,,0,305,305,119,1,
,,,,,,,,,,,,,,,,,,5fa1462db029651fd1486dc8,2020-11-27_15h02.06.341,lexical_decision_task_MP_exp2,2020.2.5,MacIntel,60,,z,1,0.58152,,,,,,,,0.58152,1,,,,,,406,NW,"ID",16,nouply,NOUPLY,z,,,,,,0.056384549,-0.407907986,0,0,0,,0,306,306,345,1,
,,,,,,,,,,,,,,,,,,5fa1462db029651fd1486dc8,2020-11-27_15h02.06.341,lexical_decision_task_MP_exp2,2020.2.5,MacIntel,60,,m,1,0.421475,,,,,,,,0.421475,1,,,,,,46,WORD,UN,16,income,SINGLE,m,,,,,,0.056384549,-0.407907986,0,0,0,,0,307,307,225,1,
,,,,,,,,,,,,,,,,,,5fa1462db029651fd1486dc8,2020-11-27_15h02.06.341,lexical_decision_task_MP_exp2,2020.2.5,MacIntel,60,,m,0,0.639185,,,,,,,,0.639185,0,,,,,,325,NW,"ID",33,thruse,THRUSE,z,,,,,,0.056384549,-0.407907986,0,0,0,,0,308,308,264,1,
,,,,,,,,,,,,,,,,,,5fa1462db029651fd1486dc8,2020-11-27_15h02.06.341,lexical_decision_task_MP_exp2,2020.2.5,MacIntel,60,,z,1,0.684975,,,,,,,,0.684975,1,,,,,,469,NW,UN,33,crudio,PADIFS,z,,,,,,0.056384549,-0.407907986,0,0,0,,0,309,309,408,1,
,,,,,,,,,,,,,,,,,,5fa1462db029651fd1486dc8,2020-11-27_15h02.06.341,lexical_decision_task_MP_exp2,2020.2.5,MacIntel,60,,z,0,0.532475,,,,,,,,0.532475,0,,,,,,184,WORD,UN,33,bother,SLEAZY,m,,,,,,0.056384549,-0.407907986,0,0,0,,0,310,310,123,1,
,,,,,,,,,,,,,,,,,,5fa1462db029651fd1486dc8,2020-11-27_15h02.06.341,lexical_decision_task_MP_exp2,2020.2.5,MacIntel,60,,m,0,0.51612,,,,,,,,0.51612,0,,,,,,378,NW,"ID",16,shrile,SHRILE,z,,,,,,0.056384549,-0.407907986,0,0,0,,0,311,311,317,1,
,,,,,,,,,,,,,,,,,,5fa1462db029651fd1486dc8,2020-11-27_15h02.06.341,lexical_decision_task_MP_exp2,2020.2.5,MacIntel,60,,m,1,0.78009,,,,,,,,0.78009,1,,,,,,123,WORD,"ID",16,strike,STRIKE,m,,,,,,0.056384549,-0.407907986,0,0,0,,0,312,312,62,1,
,,,,,,,,,,,,,,,,,,5fa1462db029651fd1486dc8,2020-11-27_15h02.06.341,lexical_decision_task_MP_exp2,2020.2.5,MacIntel,60,,z,1,0.66323,,,,,,,,0.66323,1,,,,,,368,NW,"ID",16,hornal,HORNAL,z,,,,,,0.056384549,-0.407907986,0,0,0,,0,313,313,307,1,
,,,,,,,,,,,,,,,,,,5fa1462db029651fd1486dc8,2020-11-27_15h02.06.341,lexical_decision_task_MP_exp2,2020.2.5,MacIntel,60,,z,1,0.52091,,,,,,,,0.52091,1,,,,,,439,NW,UN,33,saride,LIMPOR,z,,,,,,0.056384549,-0.407907986,0,0,0,,0,314,314,378,1,
,,,,,,,,,,,,,,,,,,5fa1462db029651fd1486dc8,2020-11-27_15h02.06.341,lexical_decision_task_MP_exp2,2020.2.5,MacIntel,60,,m,1,0.832025,,,,,,,,0.832025,1,,,,,,7,WORD,UN,16,abrupt,ANCHOR,m,,,,,,0.056384549,-0.407907986,0,0,0,,0,315,315,186,1,
,,,,,,,,,,,,,,,,,,5fa1462db029651fd1486dc8,2020-11-27_15h02.06.341,lexical_decision_task_MP_exp2,2020.2.5,MacIntel,60,,m,1,0.531805,,,,,,,,0.531805,1,,,,,,221,WORD,UN,33,hinder,MASCOT,m,,,,,,0.056384549,-0.407907986,0,0,0,,0,316,316,160,1,
,,,,,,,,,,,,,,,,,,5fa1462db029651fd1486dc8,2020-11-27_15h02.06.341,lexical_decision_task_MP_exp2,2020.2.5,MacIntel,60,,m,1,0.48927,,,,,,,,0.48927,1,,,,,,24,WORD,UN,16,domain,PRAISE,m,,,,,,0.056384549,-0.407907986,0,0,0,,0,317,317,203,1,
,,,,,,,,,,,,,,,,,,5fa1462db029651fd1486dc8,2020-11-27_15h02.06.341,lexical_decision_task_MP_exp2,2020.2.5,MacIntel,60,,z,1,0.72279,,,,,,,,0.72279,1,,,,,,290,NW,UN,16,pretch,SPLINO,z,,,,,,0.056384549,-0.407907986,0,0,0,,0,318,318,469,1,
,,,,,,,,,,,,,,,,,,5fa1462db029651fd1486dc8,2020-11-27_15h02.06.341,lexical_decision_task_MP_exp2,2020.2.5,MacIntel,60,,z,1,0.491785,,,,,,,,0.491785,1,,,,,,412,NW,"ID",16,jiluer,JILUER,z,,,,,,0.056384549,-0.407907986,0,0,0,,0,319,319,351,1,
,,,,,,,,,,,,,,,,,,5fa1462db029651fd1486dc8,2020-11-27_15h02.06.341,lexical_decision_task_MP_exp2,2020.2.5,MacIntel,60,,m,1,0.633165,,,,,,,,0.633165,1,,,,,,188,WORD,UN,33,censor,SOCIAL,m,,,,,,0.056384549,-0.407907986,0,0,0,,0,320,320,127,1,
,,,,,,,,,,,,,,,,,,5fa1462db029651fd1486dc8,2020-11-27_15h02.06.341,lexical_decision_task_MP_exp2,2020.2.5,MacIntel,60,,m,0,0.425355,,,,,,,,0.425355,0,,,,,,381,NW,"ID",16,huniek,HUNIEK,z,,,,,,0.056384549,-0.407907986,0,0,0,,0,321,321,320,1,
,,,,,,,,,,,,,,,,,,5fa1462db029651fd1486dc8,2020-11-27_15h02.06.341,lexical_decision_task_MP_exp2,2020.2.5,MacIntel,60,,m,1,0.54115,,,,,,,,0.54115,1,,,,,,25,WORD,UN,16,sprint,DOMAIN,m,,,,,,0.056384549,-0.407907986,0,0,0,,0,322,322,204,1,
,,,,,,,,,,,,,,,,,,5fa1462db029651fd1486dc8,2020-11-27_15h02.06.341,lexical_decision_task_MP_exp2,2020.2.5,MacIntel,60,,z,1,0.599605,,,,,,,,0.599605,1,,,,,,442,NW,UN,33,dorsex,ABOUNE,z,,,,,,0.056384549,-0.407907986,0,0,0,,0,323,323,381,1,
,,,,,,,,,,,,,,,,,,5fa1462db029651fd1486dc8,2020-11-27_15h02.06.341,lexical_decision_task_MP_exp2,2020.2.5,MacIntel,60,,z,1,0.515715,,,,,,,,0.515715,1,,,,,,456,NW,UN,33,wanigh,BROGET,z,,,,,,0.056384549,-0.407907986,0,0,0,,0,324,324,395,1,
,,,,,,,,,,,,,,,,,,5fa1462db029651fd1486dc8,2020-11-27_15h02.06.341,lexical_decision_task_MP_exp2,2020.2.5,MacIntel,60,,m,1,0.532105,,,,,,,,0.532105,1,,,,,,177,WORD,"ID",16,advent,ADVENT,m,,,,,,0.056384549,-0.407907986,0,0,0,,0,325,325,116,1,
,,,,,,,,,,,,,,,,,,5fa1462db029651fd1486dc8,2020-11-27_15h02.06.341,lexical_decision_task_MP_exp2,2020.2.5,MacIntel,60,,z,1,0.48536,,,,,,,,0.48536,1,,,,,,324,NW,"ID",33,steikh,STEIKH,z,,,,,,0.056384549,-0.407907986,0,0,0,,0,326,326,263,1,
,,,,,,,,,,,,,,,,,,5fa1462db029651fd1486dc8,2020-11-27_15h02.06.341,lexical_decision_task_MP_exp2,2020.2.5,MacIntel,60,,m,0,0.531765,,,,,,,,0.531765,0,,,,,,264,NW,UN,16,distar,VACKEL,z,,,,,,0.056384549,-0.407907986,0,0,0,,0,327,327,443,1,
,,,,,,,,,,,,,,,,,,5fa1462db029651fd1486dc8,2020-11-27_15h02.06.341,lexical_decision_task_MP_exp2,2020.2.5,MacIntel,60,,z,0,0.465895,,,,,,,,0.465895,0,,,,,,212,WORD,UN,33,squeal,VERIFY,m,,,,,,0.056384549,-0.407907986,0,0,0,,0,328,328,151,1,
,,,,,,,,,,,,,,,,,,5fa1462db029651fd1486dc8,2020-11-27_15h02.06.341,lexical_decision_task_MP_exp2,2020.2.5,MacIntel,60,,z,1,0.62977,,,,,,,,0.62977,1,,,,,,366,NW,"ID",16,toshel,TOSHEL,z,,,,,,0.056384549,-0.407907986,0,0,0,,0,329,329,305,1,
,,,,,,,,,,,,,,,,,,5fa1462db029651fd1486dc8,2020-11-27_15h02.06.341,lexical_decision_task_MP_exp2,2020.2.5,MacIntel,60,,z,1,0.451975,,,,,,,,0.451975,1,,,,,,452,NW,UN,33,bolvis,SURDEN,z,,,,,,0.056384549,-0.407907986,0,0,0,,0,330,330,391,1,
,,,,,,,,,,,,,,,,,,5fa1462db029651fd1486dc8,2020-11-27_15h02.06.341,lexical_decision_task_MP_exp2,2020.2.5,MacIntel,60,,z,1,0.52052,,,,,,,,0.52052,1,,,,,,465,NW,UN,33,bafent,WHIVEX,z,,,,,,0.056384549,-0.407907986,0,0,0,,0,331,331,404,1,
,,,,,,,,,,,,,,,,,,5fa1462db029651fd1486dc8,2020-11-27_15h02.06.341,lexical_decision_task_MP_exp2,2020.2.5,MacIntel,60,,z,1,0.682095,,,,,,,,0.682095,1,,,,,,476,NW,UN,33,photie,JOSTED,z,,,,,,0.056384549,-0.407907986,0,0,0,,0,332,332,415,1,
,,,,,,,,,,,,,,,,,,5fa1462db029651fd1486dc8,2020-11-27_15h02.06.341,lexical_decision_task_MP_exp2,2020.2.5,MacIntel,60,,z,1,0.450425,,,,,,,,0.450425,1,,,,,,295,NW,UN,16,beinch,GLEATH,z,,,,,,0.056384549,-0.407907986,0,0,0,,0,333,333,474,1,
,,,,,,,,,,,,,,,,,,5fa1462db029651fd1486dc8,2020-11-27_15h02.06.341,lexical_decision_task_MP_exp2,2020.2.5,MacIntel,60,,z,1,0.498975,,,,,,,,0.498975,1,,,,,,376,NW,"ID",16,iguare,IGUARE,z,,,,,,0.056384549,-0.407907986,0,0,0,,0,334,334,315,1,
,,,,,,,,,,,,,,,,,,5fa1462db029651fd1486dc8,2020-11-27_15h02.06.341,lexical_decision_task_MP_exp2,2020.2.5,MacIntel,60,,m,1,0.553175,,,,,,,,0.553175,1,,,,,,116,WORD,"ID",33,tumble,TUMBLE,m,,,,,,0.056384549,-0.407907986,0,0,0,,0,335,335,55,1,
,,,,,,,,,,,,,,,,,,5fa1462db029651fd1486dc8,2020-11-27_15h02.06.341,lexical_decision_task_MP_exp2,2020.2.5,MacIntel,60,,z,1,0.562305,,,,,,,,0.562305,1,,,,,,254,NW,UN,16,apight,VAROSH,z,,,,,,0.056384549,-0.407907986,0,0,0,,0,336,336,433,1,
,,,,,,,,,,,,,,,,,,5fa1462db029651fd1486dc8,2020-11-27_15h02.06.341,lexical_decision_task_MP_exp2,2020.2.5,MacIntel,60,,m,1,0.53603,,,,,,,,0.53603,1,,,,,,2,WORD,UN,16,knight,BRIDGE,m,,,,,,0.056384549,-0.407907986,0,0,0,,0,337,337,181,1,
,,,,,,,,,,,,,,,,,,5fa1462db029651fd1486dc8,2020-11-27_15h02.06.341,lexical_decision_task_MP_exp2,2020.2.5,MacIntel,60,,z,1,0.437765,,,,,,,,0.437765,1,,,,,,386,NW,"ID",16,ancust,ANCUST,z,,,,,,0.056384549,-0.407907986,0,0,0,,0,338,338,325,1,
,,,,,,,,,,,,,,,,,,5fa1462db029651fd1486dc8,2020-11-27_15h02.06.341,lexical_decision_task_MP_exp2,2020.2.5,MacIntel,60,,z,1,0.48537,,,,,,,,0.48537,1,,,,,,461,NW,UN,33,absult,JUSTRE,z,,,,,,0.056384549,-0.407907986,0,0,0,,0,339,339,400,1,
,,,,,,,,,,,,,,,,,,5fa1462db029651fd1486dc8,2020-11-27_15h02.06.341,lexical_decision_task_MP_exp2,2020.2.5,MacIntel,60,,z,0,0.468425,,,,,,,,0.468425,0,,,,,,102,WORD,"ID",33,direct,DIRECT,m,,,,,,0.056384549,-0.407907986,0,0,0,,0,340,340,41,1,
,,,,,,,,,,,,,,,,,,5fa1462db029651fd1486dc8,2020-11-27_15h02.06.341,lexical_decision_task_MP_exp2,2020.2.5,MacIntel,60,,z,1,0.6479,,,,,,,,0.6479,1,,,,,,247,NW,UN,16,strole,BLARGE,z,,,,,,0.056384549,-0.407907986,0,0,0,,0,341,341,426,1,
,,,,,,,,,,,,,,,,,,5fa1462db029651fd1486dc8,2020-11-27_15h02.06.341,lexical_decision_task_MP_exp2,2020.2.5,MacIntel,60,,z,1,0.48285,,,,,,,,0.48285,1,,,,,,447,NW,UN,33,sadent,GIRCUE,z,,,,,,0.056384549,-0.407907986,0,0,0,,0,342,342,386,1,
,,,,,,,,,,,,,,,,,,5fa1462db029651fd1486dc8,2020-11-27_15h02.06.341,lexical_decision_task_MP_exp2,2020.2.5,MacIntel,60,,z,1,0.48385,,,,,,,,0.48385,1,,,,,,450,NW,UN,33,cainky,PHRECT,z,,,,,,0.056384549,-0.407907986,0,0,0,,0,343,343,389,1,
,,,,,,,,,,,,,,,,,,5fa1462db029651fd1486dc8,2020-11-27_15h02.06.341,lexical_decision_task_MP_exp2,2020.2.5,MacIntel,60,,m,1,0.5651,,,,,,,,0.5651,1,,,,,,83,WORD,"ID",33,result,RESULT,m,,,,,,0.056384549,-0.407907986,0,0,0,,0,344,344,22,1,
,,,,,,,,,,,,,,,,,,5fa1462db029651fd1486dc8,2020-11-27_15h02.06.341,lexical_decision_task_MP_exp2,2020.2.5,MacIntel,60,,m,1,0.487115,,,,,,,,0.487115,1,,,,,,165,WORD,"ID",16,invest,INVEST,m,,,,,,0.056384549,-0.407907986,0,0,0,,0,345,345,104,1,
,,,,,,,,,,,,,,,,,,5fa1462db029651fd1486dc8,2020-11-27_15h02.06.341,lexical_decision_task_MP_exp2,2020.2.5,MacIntel,60,,m,1,0.482655,,,,,,,,0.482655,1,,,,,,60,WORD,UN,16,fright,PENCIL,m,,,,,,0.056384549,-0.407907986,0,0,0,,0,346,346,239,1,
,,,,,,,,,,,,,,,,,,5fa1462db029651fd1486dc8,2020-11-27_15h02.06.341,lexical_decision_task_MP_exp2,2020.2.5,MacIntel,60,,z,1,0.534535,,,,,,,,0.534535,1,,,,,,373,NW,"ID",16,bigent,BIGENT,z,,,,,,0.056384549,-0.407907986,0,0,0,,0,347,347,312,1,
,,,,,,,,,,,,,,,,,,5fa1462db029651fd1486dc8,2020-11-27_15h02.06.341,lexical_decision_task_MP_exp2,2020.2.5,MacIntel,60,,m,1,0.514595,,,,,,,,0.514595,1,,,,,,101,WORD,"ID",33,wrench,WRENCH,m,,,,,,0.056384549,-0.407907986,0,0,0,,0,348,348,40,1,
,,,,,,,,,,,,,,,,,,5fa1462db029651fd1486dc8,2020-11-27_15h02.06.341,lexical_decision_task_MP_exp2,2020.2.5,MacIntel,60,,m,1,1.12036,,,,,,,,1.12036,1,,,,,,223,WORD,UN,33,period,KIDNEY,m,,,,,,0.056384549,-0.407907986,0,0,0,,0,349,349,162,1,
,,,,,,,,,,,,,,,,,,5fa1462db029651fd1486dc8,2020-11-27_15h02.06.341,lexical_decision_task_MP_exp2,2020.2.5,MacIntel,60,,z,1,0.731595,,,,,,,,0.731595,1,,,,,,243,NW,UN,16,eatric,MUSIED,z,,,,,,0.056384549,-0.407907986,0,0,0,,0,350,350,422,1,
,,,,,,,,,,,,,,,,,,5fa1462db029651fd1486dc8,2020-11-27_15h02.06.341,lexical_decision_task_MP_exp2,2020.2.5,MacIntel,60,,m,1,0.7088,,,,,,,,0.7088,1,,,,,,50,WORD,UN,16,hungry,SNATCH,m,,,,,,0.056384549,-0.407907986,0,0,0,,0,351,351,229,1,
,,,,,,,,,,,,,,,,,,5fa1462db029651fd1486dc8,2020-11-27_15h02.06.341,lexical_decision_task_MP_exp2,2020.2.5,MacIntel,60,,m,0,0.56734,,,,,,,,0.56734,0,,,,,,248,NW,UN,16,batrol,STROLE,z,,,,,,0.056384549,-0.407907986,0,0,0,,0,352,352,427,1,
,,,,,,,,,,,,,,,,,,5fa1462db029651fd1486dc8,2020-11-27_15h02.06.341,lexical_decision_task_MP_exp2,2020.2.5,MacIntel,60,,z,1,0.51521,,,,,,,,0.51521,1,,,,,,474,NW,UN,33,acrise,HABLIN,z,,,,,,0.056384549,-0.407907986,0,0,0,,0,353,353,413,1,
,,,,,,,,,,,,,,,,,,5fa1462db029651fd1486dc8,2020-11-27_15h02.06.341,lexical_decision_task_MP_exp2,2020.2.5,MacIntel,60,,m,1,0.468735,,,,,,,,0.468735,1,,,,,,71,WORD,"ID",33,garden,GARDEN,m,,,,,,0.056384549,-0.407907986,0,0,0,,0,354,354,10,1,
,,,,,,,,,,,,,,,,,,5fa1462db029651fd1486dc8,2020-11-27_15h02.06.341,lexical_decision_task_MP_exp2,2020.2.5,MacIntel,60,,z,0,0.532695,,,,,,,,0.532695,0,,,,,,100,WORD,"ID",33,carbon,CARBON,m,,,,,,0.056384549,-0.407907986,0,0,0,,0,355,355,39,1,
,,,,,,,,,,,,,,,,,,5fa1462db029651fd1486dc8,2020-11-27_15h02.06.341,lexical_decision_task_MP_exp2,2020.2.5,MacIntel,60,,m,1,0.565925,,,,,,,,0.565925,1,,,,,,6,WORD,UN,16,anchor,BUNDLE,m,,,,,,0.056384549,-0.407907986,0,0,0,,0,356,356,185,1,
,,,,,,,,,,,,,,,,,,5fa1462db029651fd1486dc8,2020-11-27_15h02.06.341,lexical_decision_task_MP_exp2,2020.2.5,MacIntel,60,,m,0,0.52589,,,,,,,,0.52589,0,,,,,,411,NW,"ID",16,orchin,ORCHIN,z,,,,,,0.056384549,-0.407907986,0,0,0,,0,357,357,350,1,
,,,,,,,,,,,,,,,,,,5fa1462db029651fd1486dc8,2020-11-27_15h02.06.341,lexical_decision_task_MP_exp2,2020.2.5,MacIntel,60,,z,1,0.698405,,,,,,,,0.698405,1,,,,,,252,NW,UN,16,resait,STAPOD,z,,,,,,0.056384549,-0.407907986,0,0,0,,0,358,358,431,1,
,,,,,,,,,,,,,,,,,,5fa1462db029651fd1486dc8,2020-11-27_15h02.06.341,lexical_decision_task_MP_exp2,2020.2.5,MacIntel,60,,m,1,0.532175,,,,,,,,0.532175,1,,,,,,110,WORD,"ID",33,polite,POLITE,m,,,,,,0.056384549,-0.407907986,0,0,0,,0,359,359,49,1,
,,,,,,,,,,,,,,,,,,5fa1462db029651fd1486dc8,2020-11-27_15h02.06.341,lexical_decision_task_MP_exp2,2020.2.5,MacIntel,60,,m,1,0.65214,,,,,,,,0.65214,1,,,,,,84,WORD,"ID",33,mortal,MORTAL,m,,,,,,0.056384549,-0.407907986,0,0,0,,0,360,360,23,1,
,,,,,,,,,,,,,,,,,,5fa1462db029651fd1486dc8,2020-11-27_15h02.06.341,lexical_decision_task_MP_exp2,2020.2.5,MacIntel,60,,m,1,0.581685,,,,,,,,0.581685,1,,,,,,59,WORD,UN,16,pencil,SPLINT,m,,,,,,0.056384549,-0.407907986,0,0,0,,0,361,361,238,1,
,,,,,,,,,,,,,,,,,,5fa1462db029651fd1486dc8,2020-11-27_15h02.06.341,lexical_decision_task_MP_exp2,2020.2.5,MacIntel,60,,z,1,0.63382,,,,,,,,0.63382,1,,,,,,453,NW,UN,33,scouge,BOLVIS,z,,,,,,0.056384549,-0.407907986,0,0,0,space,0,362,362,392,1,6.77814
,,,,,,,,,,,,,,,,,,5fa1462db029651fd1486dc8,2020-11-27_15h02.06.341,lexical_decision_task_MP_exp2,2020.2.5,MacIntel,60,,m,1,0.55067,,,,,,,,0.55067,1,,,,,,36,WORD,UN,16,insult,VANISH,m,,,,,,0.056384549,-0.407907986,0,0,0,,0,363,363,215,1,
,,,,,,,,,,,,,,,,,,5fa1462db029651fd1486dc8,2020-11-27_15h02.06.341,lexical_decision_task_MP_exp2,2020.2.5,MacIntel,60,,m,1,0.4641,,,,,,,,0.4641,1,,,,,,228,WORD,UN,33,kidney,MASTER,m,,,,,,0.056384549,-0.407907986,0,0,0,,0,364,364,167,1,
,,,,,,,,,,,,,,,,,,5fa1462db029651fd1486dc8,2020-11-27_15h02.06.341,lexical_decision_task_MP_exp2,2020.2.5,MacIntel,60,,z,1,0.6367,,,,,,,,0.6367,1,,,,,,249,NW,UN,16,milted,BATROL,z,,,,,,0.056384549,-0.407907986,0,0,0,,0,365,365,428,1,
,,,,,,,,,,,,,,,,,,5fa1462db029651fd1486dc8,2020-11-27_15h02.06.341,lexical_decision_task_MP_exp2,2020.2.5,MacIntel,60,,m,1,0.46744,,,,,,,,0.46744,1,,,,,,81,WORD,"ID",33,friend,FRIEND,m,,,,,,0.056384549,-0.407907986,0,0,0,,0,366,366,20,1,
,,,,,,,,,,,,,,,,,,5fa1462db029651fd1486dc8,2020-11-27_15h02.06.341,lexical_decision_task_MP_exp2,2020.2.5,MacIntel,60,,m,0,0.571265,,,,,,,,0.571265,0,,,,,,268,NW,UN,16,orchet,PACKES,z,,,,,,0.056384549,-0.407907986,0,0,0,,0,367,367,447,1,
,,,,,,,,,,,,,,,,,,5fa1462db029651fd1486dc8,2020-11-27_15h02.06.341,lexical_decision_task_MP_exp2,2020.2.5,MacIntel,60,,m,1,0.536115,,,,,,,,0.536115,1,,,,,,231,WORD,UN,33,inject,EXPORT,m,,,,,,0.056384549,-0.407907986,0,0,0,,0,368,368,170,1,
,,,,,,,,,,,,,,,,,,5fa1462db029651fd1486dc8,2020-11-27_15h02.06.341,lexical_decision_task_MP_exp2,2020.2.5,MacIntel,60,,m,1,0.61285,,,,,,,,0.61285,1,,,,,,66,WORD,"ID",33,gospel,GOSPEL,m,,,,,,0.056384549,-0.407907986,0,0,0,,0,369,369,5,1,
,,,,,,,,,,,,,,,,,,5fa1462db029651fd1486dc8,2020-11-27_15h02.06.341,lexical_decision_task_MP_exp2,2020.2.5,MacIntel,60,,z,1,0.56495,,,,,,,,0.56495,1,,,,,,414,NW,"ID",16,serbol,SERBOL,z,,,,,,0.056384549,-0.407907986,0,0,0,,0,370,370,353,1,
,,,,,,,,,,,,,,,,,,5fa1462db029651fd1486dc8,2020-11-27_15h02.06.341,lexical_decision_task_MP_exp2,2020.2.5,MacIntel,60,,z,1,0.436705,,,,,,,,0.436705,1,,,,,,259,NW,UN,16,unject,SOUDAL,z,,,,,,0.056384549,-0.407907986,0,0,0,,0,371,371,438,1,
,,,,,,,,,,,,,,,,,,5fa1462db029651fd1486dc8,2020-11-27_15h02.06.341,lexical_decision_task_MP_exp2,2020.2.5,MacIntel,60,,z,1,0.42985,,,,,,,,0.42985,1,,,,,,383,NW,"ID",16,aungre,AUNGRE,z,,,,,,0.056384549,-0.407907986,0,0,0,,0,372,372,322,1,
,,,,,,,,,,,,,,,,,,5fa1462db029651fd1486dc8,2020-11-27_15h02.06.341,lexical_decision_task_MP_exp2,2020.2.5,MacIntel,60,,m,1,0.581465,,,,,,,,0.581465,1,,,,,,179,WORD,"ID",16,basket,BASKET,m,,,,,,0.056384549,-0.407907986,0,0,0,,0,373,373,118,1,
,,,,,,,,,,,,,,,,,,5fa1462db029651fd1486dc8,2020-11-27_15h02.06.341,lexical_decision_task_MP_exp2,2020.2.5,MacIntel,60,,z,1,0.485435,,,,,,,,0.485435,1,,,,,,242,NW,UN,16,musied,UNWERT,z,,,,,,0.056384549,-0.407907986,0,0,0,,0,374,374,421,1,
,,,,,,,,,,,,,,,,,,5fa1462db029651fd1486dc8,2020-11-27_15h02.06.341,lexical_decision_task_MP_exp2,2020.2.5,MacIntel,60,,m,0,0.523515,,,,,,,,0.523515,0,,,,,,430,NW,UN,33,chrums,CAROEY,z,,,,,,0.056384549,-0.407907986,0,0,0,,0,375,375,369,1,
,,,,,,,,,,,,,,,,,,5fa1462db029651fd1486dc8,2020-11-27_15h02.06.341,lexical_decision_task_MP_exp2,2020.2.5,MacIntel,60,,m,1,0.45406,,,,,,,,0.45406,1,,,,,,79,WORD,"ID",33,theory,THEORY,m,,,,,,0.056384549,-0.407907986,0,0,0,,0,376,376,18,1,
,,,,,,,,,,,,,,,,,,5fa1462db029651fd1486dc8,2020-11-27_15h02.06.341,lexical_decision_task_MP_exp2,2020.2.5,MacIntel,60,,m,1,0.549215,,,,,,,,0.549215,1,,,,,,33,WORD,UN,16,jungle,BUTLER,m,,,,,,0.056384549,-0.407907986,0,0,0,,0,377,377,212,1,
,,,,,,,,,,,,,,,,,,5fa1462db029651fd1486dc8,2020-11-27_15h02.06.341,lexical_decision_task_MP_exp2,2020.2.5,MacIntel,60,,m,1,0.601915,,,,,,,,0.601915,1,,,,,,1,WORD,UN,16,ethnic,FRIGHT,m,,,,,,0.056384549,-0.407907986,0,0,0,,0,378,378,180,1,
,,,,,,,,,,,,,,,,,,5fa1462db029651fd1486dc8,2020-11-27_15h02.06.341,lexical_decision_task_MP_exp2,2020.2.5,MacIntel,60,,m,1,0.481115,,,,,,,,0.481115,1,,,,,,70,WORD,"ID",33,square,SQUARE,m,,,,,,0.056384549,-0.407907986,0,0,0,,0,379,379,9,1,
,,,,,,,,,,,,,,,,,,5fa1462db029651fd1486dc8,2020-11-27_15h02.06.341,lexical_decision_task_MP_exp2,2020.2.5,MacIntel,60,,z,1,0.60755,,,,,,,,0.60755,1,,,,,,354,NW,"ID",33,virlex,VIRLEX,z,,,,,,0.056384549,-0.407907986,0,0,0,,0,380,380,293,1,
,,,,,,,,,,,,,,,,,,5fa1462db029651fd1486dc8,2020-11-27_15h02.06.341,lexical_decision_task_MP_exp2,2020.2.5,MacIntel,60,,z,1,0.49996,,,,,,,,0.49996,1,,,,,,446,NW,UN,33,gircue,RUNAMO,z,,,,,,0.056384549,-0.407907986,0,0,0,,0,381,381,385,1,
,,,,,,,,,,,,,,,,,,5fa1462db029651fd1486dc8,2020-11-27_15h02.06.341,lexical_decision_task_MP_exp2,2020.2.5,MacIntel,60,,m,0,0.651435,,,,,,,,0.651435,0,,,,,,352,NW,"ID",33,tringe,TRINGE,z,,,,,,0.056384549,-0.407907986,0,0,0,,0,382,382,291,1,
,,,,,,,,,,,,,,,,,,5fa1462db029651fd1486dc8,2020-11-27_15h02.06.341,lexical_decision_task_MP_exp2,2020.2.5,MacIntel,60,,z,0,0.55267,,,,,,,,0.55267,0,,,,,,234,WORD,UN,33,poster,CLUMSY,m,,,,,,0.056384549,-0.407907986,0,0,0,,0,383,383,173,1,
,,,,,,,,,,,,,,,,,,5fa1462db029651fd1486dc8,2020-11-27_15h02.06.341,lexical_decision_task_MP_exp2,2020.2.5,MacIntel,60,,z,0,0.688935,,,,,,,,0.688935,0,,,,,,236,WORD,UN,33,grumpy,PIRATE,m,,,,,,0.056384549,-0.407907986,0,0,0,,0,384,384,175,1,
,,,,,,,,,,,,,,,,,,5fa1462db029651fd1486dc8,2020-11-27_15h02.06.341,lexical_decision_task_MP_exp2,2020.2.5,MacIntel,60,,z,1,0.500365,,,,,,,,0.500365,1,,,,,,429,NW,UN,33,caroey,FUNTLE,z,,,,,,0.056384549,-0.407907986,0,0,0,,0,385,385,368,1,
,,,,,,,,,,,,,,,,,,5fa1462db029651fd1486dc8,2020-11-27_15h02.06.341,lexical_decision_task_MP_exp2,2020.2.5,MacIntel,60,,z,1,0.48375,,,,,,,,0.48375,1,,,,,,399,NW,"ID",16,fouret,FOURET,z,,,,,,0.056384549,-0.407907986,0,0,0,,0,386,386,338,1,
,,,,,,,,,,,,,,,,,,5fa1462db029651fd1486dc8,2020-11-27_15h02.06.341,lexical_decision_task_MP_exp2,2020.2.5,MacIntel,60,,m,1,0.665845,,,,,,,,0.665845,1,,,,,,76,WORD,"ID",33,exotic,EXOTIC,m,,,,,,0.056384549,-0.407907986,0,0,0,,0,387,387,15,1,
