counterbalancing_condition,instr_done_keyboard.keys,instr_done_keyboard.rt,instr_done_touch.x,instr_done_touch.y,instr_done_touch.leftButton,instr_done_touch.midButton,instr_done_touch.rightButton,instruction_pages.thisRepN,instruction_pages.thisTrialN,instruction_pages.thisN,instruction_pages.thisIndex,instruction_pages.ran,pageN,phase,instruct_text,has_image,instruct_image,participant,date,expName,psychopyVersion,OS,frameRate,response.keys,response.corr,response.rt,touch_resp.x,touch_resp.y,touch_resp.leftButton,touch_resp.midButton,touch_resp.rightButton,touch_resp.time,touch_resp.clicked_name,rt,corr,practice_trials.thisRepN,practice_trials.thisTrialN,practice_trials.thisN,practice_trials.thisIndex,practice_trials.ran,TrialID,StimulusType,Condition,PrimeDuration,Prime,Target,corrAns,end_of_practice_trials_pages.thisRepN,end_of_practice_trials_pages.thisTrialN,end_of_practice_trials_pages.thisN,end_of_practice_trials_pages.thisIndex,end_of_practice_trials_pages.ran,break_done_touch.x,break_done_touch.y,break_done_touch.leftButton,break_done_touch.midButton,break_done_touch.rightButton,break_done_keyboard.keys,trials.thisRepN,trials.thisTrialN,trials.thisN,trials.thisIndex,trials.ran
2,space,4.098575,0.28055559,-0.211111132,0,0,0,0,0,0,0,1,1,instructions,"INSTRUCTIONS
At the start of each trial, look at the hash marks (######) in the center of the screen. After a moment, a string of letters will appear. Your task is to indicate if the letter string forms a word or not (i.e., if it is a nonword). For example, AUTHOR is a word while AUTHON is a nonword.

Press the space bar or touch the button below to continue.",0,,5fa3b4abbcfd0b6c243758bc,2020-11-25_13h08.40.604,lexical_decision_task_MP_exp2,2020.2.5,Win32,60,,,,,,,,,,,,,,,,,,,,,,,,,,,,,,,,,,,,,,,,
,space,1.599635,0.28055559,-0.211111132,0,0,0,0,1,1,1,1,2,instructions,"If your device has a keyboard, press the 'Z' key for nonwords and the 'M' key for words.





Press the space bar or touch the button below to continue.",1,keyboard-example.gif,5fa3b4abbcfd0b6c243758bc,2020-11-25_13h08.40.604,lexical_decision_task_MP_exp2,2020.2.5,Win32,60,,,,,,,,,,,,,,,,,,,,,,,,,,,,,,,,,,,,,,,,
,space,0.94384,0.28055559,-0.211111132,0,0,0,0,2,2,2,1,3,instructions,"If you are using a touchscreen only device, use the buttons on the screen. Do not use the mouse.





Press the space bar or touch the button below to continue.",1,touchscreen-example.gif,5fa3b4abbcfd0b6c243758bc,2020-11-25_13h08.40.604,lexical_decision_task_MP_exp2,2020.2.5,Win32,60,,,,,,,,,,,,,,,,,,,,,,,,,,,,,,,,,,,,,,,,
,space,5.779725,0.28055559,-0.211111132,0,0,0,0,3,3,3,1,4,instructions,"It is very important that you respond as quickly and accurately as possible, as each letter string will only be on the screen for two seconds. If you do not respond within this time, the message 'Too slow!' will be displayed and the experiment will progress to the next letter string. The first 20 trials will be practice trials and you will receive feedback on your answers. 

Press the space bar or touch the button below to start the practice trials.",0,,5fa3b4abbcfd0b6c243758bc,2020-11-25_13h08.40.604,lexical_decision_task_MP_exp2,2020.2.5,Win32,60,,,,,,,,,,,,,,,,,,,,,,,,,,,,,,,,,,,,,,,,
,,,,,,,,,,,,,,,,,,5fa3b4abbcfd0b6c243758bc,2020-11-25_13h08.40.604,lexical_decision_task_MP_exp2,2020.2.5,Win32,60,m,1,0.56098,,,,,,,,0.56098,1,0,0,0,1,1,1002,WORD,"ID",33,adjust,ADJUST,m,,,,,,,,,,,,,,,,
,,,,,,,,,,,,,,,,,,5fa3b4abbcfd0b6c243758bc,2020-11-25_13h08.40.604,lexical_decision_task_MP_exp2,2020.2.5,Win32,60,m,1,0.489525,,,,,,,,0.489525,1,0,1,1,6,1,1007,WORD,UN,16,tropic,ZOMBIE,m,,,,,,,,,,,,,,,,
,,,,,,,,,,,,,,,,,,5fa3b4abbcfd0b6c243758bc,2020-11-25_13h08.40.604,lexical_decision_task_MP_exp2,2020.2.5,Win32,60,m,1,0.567635,,,,,,,,0.567635,1,0,2,2,5,1,1006,WORD,UN,33,frenzy,OBTAIN,m,,,,,,,,,,,,,,,,
,,,,,,,,,,,,,,,,,,5fa3b4abbcfd0b6c243758bc,2020-11-25_13h08.40.604,lexical_decision_task_MP_exp2,2020.2.5,Win32,60,z,1,0.490675,,,,,,,,0.490675,1,0,3,3,11,1,1012,NW,"ID",16,rashet,RASHET,z,,,,,,,,,,,,,,,,
,,,,,,,,,,,,,,,,,,5fa3b4abbcfd0b6c243758bc,2020-11-25_13h08.40.604,lexical_decision_task_MP_exp2,2020.2.5,Win32,60,z,1,0.478745,,,,,,,,0.478745,1,0,4,4,14,1,1015,NW,UN,16,miaber,THRALE,z,,,,,,,,,,,,,,,,
,,,,,,,,,,,,,,,,,,5fa3b4abbcfd0b6c243758bc,2020-11-25_13h08.40.604,lexical_decision_task_MP_exp2,2020.2.5,Win32,60,m,1,0.398125,,,,,,,,0.398125,1,0,5,5,0,1,1001,WORD,"ID",33,utopia,UTOPIA,m,,,,,,,,,,,,,,,,
,,,,,,,,,,,,,,,,,,5fa3b4abbcfd0b6c243758bc,2020-11-25_13h08.40.604,lexical_decision_task_MP_exp2,2020.2.5,Win32,60,z,0,0.38,,,,,,,,0.38,0,0,6,6,4,1,1005,WORD,UN,33,abound,SQUEAK,m,,,,,,,,,,,,,,,,
,,,,,,,,,,,,,,,,,,5fa3b4abbcfd0b6c243758bc,2020-11-25_13h08.40.604,lexical_decision_task_MP_exp2,2020.2.5,Win32,60,z,1,0.649915,,,,,,,,0.649915,1,0,7,7,8,1,1009,NW,"ID",33,aslert,ASLERT,z,,,,,,,,,,,,,,,,
,,,,,,,,,,,,,,,,,,5fa3b4abbcfd0b6c243758bc,2020-11-25_13h08.40.604,lexical_decision_task_MP_exp2,2020.2.5,Win32,60,m,1,0.51848,,,,,,,,0.51848,1,0,8,8,2,1,1003,WORD,"ID",16,almond,ALMOND,m,,,,,,,,,,,,,,,,
,,,,,,,,,,,,,,,,,,5fa3b4abbcfd0b6c243758bc,2020-11-25_13h08.40.604,lexical_decision_task_MP_exp2,2020.2.5,Win32,60,z,1,0.604245,,,,,,,,0.604245,1,0,9,9,10,1,1011,NW,"ID",16,inlade,INLADE,z,,,,,,,,,,,,,,,,
,,,,,,,,,,,,,,,,,,5fa3b4abbcfd0b6c243758bc,2020-11-25_13h08.40.604,lexical_decision_task_MP_exp2,2020.2.5,Win32,60,m,1,0.5688,,,,,,,,0.5688,1,0,10,10,7,1,1008,WORD,UN,16,hurdle,VOLUME,m,,,,,,,,,,,,,,,,
,,,,,,,,,,,,,,,,,,5fa3b4abbcfd0b6c243758bc,2020-11-25_13h08.40.604,lexical_decision_task_MP_exp2,2020.2.5,Win32,60,z,1,0.514865,,,,,,,,0.514865,1,0,11,11,9,1,1010,NW,"ID",33,fariny,FARINY,z,,,,,,,,,,,,,,,,
,,,,,,,,,,,,,,,,,,5fa3b4abbcfd0b6c243758bc,2020-11-25_13h08.40.604,lexical_decision_task_MP_exp2,2020.2.5,Win32,60,z,1,0.583595,,,,,,,,0.583595,1,0,12,12,15,1,1016,NW,UN,16,mushed,WHAISE,z,,,,,,,,,,,,,,,,
,,,,,,,,,,,,,,,,,,5fa3b4abbcfd0b6c243758bc,2020-11-25_13h08.40.604,lexical_decision_task_MP_exp2,2020.2.5,Win32,60,m,1,0.49879,,,,,,,,0.49879,1,0,13,13,3,1,1004,WORD,"ID",16,matrix,MATRIX,m,,,,,,,,,,,,,,,,
,,,,,,,,,,,,,,,,,,5fa3b4abbcfd0b6c243758bc,2020-11-25_13h08.40.604,lexical_decision_task_MP_exp2,2020.2.5,Win32,60,z,1,0.45001,,,,,,,,0.45001,1,0,14,14,12,1,1013,NW,UN,33,adveil,SPRINY,z,,,,,,,,,,,,,,,,
,,,,,,,,,,,,,,,,,,5fa3b4abbcfd0b6c243758bc,2020-11-25_13h08.40.604,lexical_decision_task_MP_exp2,2020.2.5,Win32,60,m,0,0.5136,,,,,,,,0.5136,0,0,15,15,13,1,1014,NW,UN,33,winfer,ROUPET,z,,,,,,,,,,,,,,,,
,space,9.43985,0.28055559,-0.211111132,0,0,0,,,,,,1,end_of_practice,"You have completed the practice trials. During the experimental trials, you will not receive feedback, but it is very important that you respond as quickly and accurately as possible. 
Before you begin, please ensure that you are in a comfortable and quiet location and will not be disturbed for about 15 minutes, as we cannot use your data if you do not complete all the trials. 
There will be opportunities to take breaks at regular intervals during the experiment. When you are ready to start the experimental trials, please press space or touch the button below.",,,5fa3b4abbcfd0b6c243758bc,2020-11-25_13h08.40.604,lexical_decision_task_MP_exp2,2020.2.5,Win32,60,,,,,,,,,,,,,,,,,,,,,,,,,0,0,0,0,1,,,,,,,,,,,
,,,,,,,,,,,,,,,,,,5fa3b4abbcfd0b6c243758bc,2020-11-25_13h08.40.604,lexical_decision_task_MP_exp2,2020.2.5,Win32,60,m,1,0.514545,,,,,,,,0.514545,1,,,,,,11,WORD,UN,16,amount,CRUISE,m,,,,,,0.28055559,-0.211111132,0,0,0,,0,0,0,190,1
,,,,,,,,,,,,,,,,,,5fa3b4abbcfd0b6c243758bc,2020-11-25_13h08.40.604,lexical_decision_task_MP_exp2,2020.2.5,Win32,60,z,1,0.56487,,,,,,,,0.56487,1,,,,,,448,NW,UN,33,brunge,SADENT,z,,,,,,0.28055559,-0.211111132,0,0,0,,0,1,1,387,1
,,,,,,,,,,,,,,,,,,5fa3b4abbcfd0b6c243758bc,2020-11-25_13h08.40.604,lexical_decision_task_MP_exp2,2020.2.5,Win32,60,z,0,0.55823,,,,,,,,0.55823,0,,,,,,220,WORD,UN,33,mascot,VOYAGE,m,,,,,,0.28055559,-0.211111132,0,0,0,,0,2,2,159,1
,,,,,,,,,,,,,,,,,,5fa3b4abbcfd0b6c243758bc,2020-11-25_13h08.40.604,lexical_decision_task_MP_exp2,2020.2.5,Win32,60,z,1,0.451285,,,,,,,,0.451285,1,,,,,,421,NW,UN,33,alcoud,KNISMA,z,,,,,,0.28055559,-0.211111132,0,0,0,,0,3,3,360,1
,,,,,,,,,,,,,,,,,,5fa3b4abbcfd0b6c243758bc,2020-11-25_13h08.40.604,lexical_decision_task_MP_exp2,2020.2.5,Win32,60,z,1,0.33252,,,,,,,,0.33252,1,,,,,,259,NW,UN,16,unject,SOUDAL,z,,,,,,0.28055559,-0.211111132,0,0,0,,0,4,4,438,1
,,,,,,,,,,,,,,,,,,5fa3b4abbcfd0b6c243758bc,2020-11-25_13h08.40.604,lexical_decision_task_MP_exp2,2020.2.5,Win32,60,z,0,0.226715,,,,,,,,0.226715,0,,,,,,151,WORD,"ID",16,mystic,MYSTIC,m,,,,,,0.28055559,-0.211111132,0,0,0,,0,5,5,90,1
,,,,,,,,,,,,,,,,,,5fa3b4abbcfd0b6c243758bc,2020-11-25_13h08.40.604,lexical_decision_task_MP_exp2,2020.2.5,Win32,60,z,1,0.253755,,,,,,,,0.253755,1,,,,,,427,NW,UN,33,tandly,SCHIND,z,,,,,,0.28055559,-0.211111132,0,0,0,,0,6,6,366,1
,,,,,,,,,,,,,,,,,,5fa3b4abbcfd0b6c243758bc,2020-11-25_13h08.40.604,lexical_decision_task_MP_exp2,2020.2.5,Win32,60,z,1,0.279635,,,,,,,,0.279635,1,,,,,,348,NW,"ID",33,dumple,DUMPLE,z,,,,,,0.28055559,-0.211111132,0,0,0,,0,7,7,287,1
,,,,,,,,,,,,,,,,,,5fa3b4abbcfd0b6c243758bc,2020-11-25_13h08.40.604,lexical_decision_task_MP_exp2,2020.2.5,Win32,60,z,0,0.757855,,,,,,,,0.757855,0,,,,,,89,WORD,"ID",33,permit,PERMIT,m,,,,,,0.28055559,-0.211111132,0,0,0,,0,8,8,28,1
,,,,,,,,,,,,,,,,,,5fa3b4abbcfd0b6c243758bc,2020-11-25_13h08.40.604,lexical_decision_task_MP_exp2,2020.2.5,Win32,60,z,0,0.35835,,,,,,,,0.35835,0,,,,,,213,WORD,UN,33,intake,SQUEAL,m,,,,,,0.28055559,-0.211111132,0,0,0,,0,9,9,152,1
,,,,,,,,,,,,,,,,,,5fa3b4abbcfd0b6c243758bc,2020-11-25_13h08.40.604,lexical_decision_task_MP_exp2,2020.2.5,Win32,60,z,1,0.316255,,,,,,,,0.316255,1,,,,,,468,NW,UN,33,padifs,WICTOR,z,,,,,,0.28055559,-0.211111132,0,0,0,,0,10,10,407,1
,,,,,,,,,,,,,,,,,,5fa3b4abbcfd0b6c243758bc,2020-11-25_13h08.40.604,lexical_decision_task_MP_exp2,2020.2.5,Win32,60,z,1,0.325125,,,,,,,,0.325125,1,,,,,,360,NW,"ID",33,desory,DESORY,z,,,,,,0.28055559,-0.211111132,0,0,0,,0,11,11,299,1
,,,,,,,,,,,,,,,,,,5fa3b4abbcfd0b6c243758bc,2020-11-25_13h08.40.604,lexical_decision_task_MP_exp2,2020.2.5,Win32,60,z,0,0.269655,,,,,,,,0.269655,0,,,,,,47,WORD,UN,16,walnut,INCOME,m,,,,,,0.28055559,-0.211111132,0,0,0,,0,12,12,226,1
,,,,,,,,,,,,,,,,,,5fa3b4abbcfd0b6c243758bc,2020-11-25_13h08.40.604,lexical_decision_task_MP_exp2,2020.2.5,Win32,60,z,0,0.268155,,,,,,,,0.268155,0,,,,,,5,WORD,UN,16,bundle,PLUNGE,m,,,,,,0.28055559,-0.211111132,0,0,0,,0,13,13,184,1
,,,,,,,,,,,,,,,,,,5fa3b4abbcfd0b6c243758bc,2020-11-25_13h08.40.604,lexical_decision_task_MP_exp2,2020.2.5,Win32,60,z,1,0.159925,,,,,,,,0.159925,1,,,,,,336,NW,"ID",33,ghodus,GHODUS,z,,,,,,0.28055559,-0.211111132,0,0,0,,0,14,14,275,1
,,,,,,,,,,,,,,,,,,5fa3b4abbcfd0b6c243758bc,2020-11-25_13h08.40.604,lexical_decision_task_MP_exp2,2020.2.5,Win32,60,z,0,0.1716,,,,,,,,0.1716,0,,,,,,233,WORD,UN,33,clumsy,NATURE,m,,,,,,0.28055559,-0.211111132,0,0,0,,0,15,15,172,1
,,,,,,,,,,,,,,,,,,5fa3b4abbcfd0b6c243758bc,2020-11-25_13h08.40.604,lexical_decision_task_MP_exp2,2020.2.5,Win32,60,z,1,0.226065,,,,,,,,0.226065,1,,,,,,374,NW,"ID",16,sliant,SLIANT,z,,,,,,0.28055559,-0.211111132,0,0,0,,0,16,16,313,1
,,,,,,,,,,,,,,,,,,5fa3b4abbcfd0b6c243758bc,2020-11-25_13h08.40.604,lexical_decision_task_MP_exp2,2020.2.5,Win32,60,z,1,0.192835,,,,,,,,0.192835,1,,,,,,414,NW,"ID",16,serbol,SERBOL,z,,,,,,0.28055559,-0.211111132,0,0,0,,0,17,17,353,1
,,,,,,,,,,,,,,,,,,5fa3b4abbcfd0b6c243758bc,2020-11-25_13h08.40.604,lexical_decision_task_MP_exp2,2020.2.5,Win32,60,z,0,0.13968,,,,,,,,0.13968,0,,,,,,208,WORD,UN,33,search,HOCKEY,m,,,,,,0.28055559,-0.211111132,0,0,0,,0,18,18,147,1
,,,,,,,,,,,,,,,,,,5fa3b4abbcfd0b6c243758bc,2020-11-25_13h08.40.604,lexical_decision_task_MP_exp2,2020.2.5,Win32,60,z,0,0.30308,,,,,,,,0.30308,0,,,,,,126,WORD,"ID",16,enough,ENOUGH,m,,,,,,0.28055559,-0.211111132,0,0,0,,0,19,19,65,1
,,,,,,,,,,,,,,,,,,5fa3b4abbcfd0b6c243758bc,2020-11-25_13h08.40.604,lexical_decision_task_MP_exp2,2020.2.5,Win32,60,z,1,0.515015,,,,,,,,0.515015,1,,,,,,402,NW,"ID",16,syntic,SYNTIC,z,,,,,,0.28055559,-0.211111132,0,0,0,,0,20,20,341,1
,,,,,,,,,,,,,,,,,,5fa3b4abbcfd0b6c243758bc,2020-11-25_13h08.40.604,lexical_decision_task_MP_exp2,2020.2.5,Win32,60,z,0,0.399755,,,,,,,,0.399755,0,,,,,,134,WORD,"ID",16,staple,STAPLE,m,,,,,,0.28055559,-0.211111132,0,0,0,,0,21,21,73,1
,,,,,,,,,,,,,,,,,,5fa3b4abbcfd0b6c243758bc,2020-11-25_13h08.40.604,lexical_decision_task_MP_exp2,2020.2.5,Win32,60,z,0,0.42049,,,,,,,,0.42049,0,,,,,,88,WORD,"ID",33,hunger,HUNGER,m,,,,,,0.28055559,-0.211111132,0,0,0,,0,22,22,27,1
,,,,,,,,,,,,,,,,,,5fa3b4abbcfd0b6c243758bc,2020-11-25_13h08.40.604,lexical_decision_task_MP_exp2,2020.2.5,Win32,60,z,0,0.431315,,,,,,,,0.431315,0,,,,,,116,WORD,"ID",33,tumble,TUMBLE,m,,,,,,0.28055559,-0.211111132,0,0,0,,0,23,23,55,1
,,,,,,,,,,,,,,,,,,5fa3b4abbcfd0b6c243758bc,2020-11-25_13h08.40.604,lexical_decision_task_MP_exp2,2020.2.5,Win32,60,z,1,0.464255,,,,,,,,0.464255,1,,,,,,298,NW,UN,16,sturch,PIERGY,z,,,,,,0.28055559,-0.211111132,0,0,0,,0,24,24,477,1
,,,,,,,,,,,,,,,,,,5fa3b4abbcfd0b6c243758bc,2020-11-25_13h08.40.604,lexical_decision_task_MP_exp2,2020.2.5,Win32,60,z,1,0.425505,,,,,,,,0.425505,1,,,,,,467,NW,UN,33,wictor,GORBIE,z,,,,,,0.28055559,-0.211111132,0,0,0,,0,25,25,406,1
,,,,,,,,,,,,,,,,,,5fa3b4abbcfd0b6c243758bc,2020-11-25_13h08.40.604,lexical_decision_task_MP_exp2,2020.2.5,Win32,60,z,0,0.41443,,,,,,,,0.41443,0,,,,,,37,WORD,UN,16,powder,INSULT,m,,,,,,0.28055559,-0.211111132,0,0,0,,0,26,26,216,1
,,,,,,,,,,,,,,,,,,5fa3b4abbcfd0b6c243758bc,2020-11-25_13h08.40.604,lexical_decision_task_MP_exp2,2020.2.5,Win32,60,z,0,0.451405,,,,,,,,0.451405,0,,,,,,13,WORD,UN,16,almost,STRIVE,m,,,,,,0.28055559,-0.211111132,0,0,0,,0,27,27,192,1
,,,,,,,,,,,,,,,,,,5fa3b4abbcfd0b6c243758bc,2020-11-25_13h08.40.604,lexical_decision_task_MP_exp2,2020.2.5,Win32,60,z,1,0.49146,,,,,,,,0.49146,1,,,,,,367,NW,"ID",16,slique,SLIQUE,z,,,,,,0.28055559,-0.211111132,0,0,0,,0,28,28,306,1
,,,,,,,,,,,,,,,,,,5fa3b4abbcfd0b6c243758bc,2020-11-25_13h08.40.604,lexical_decision_task_MP_exp2,2020.2.5,Win32,60,z,1,0.47126,,,,,,,,0.47126,1,,,,,,470,NW,UN,33,nobest,CRUDIO,z,,,,,,0.28055559,-0.211111132,0,0,0,,0,29,29,409,1
,,,,,,,,,,,,,,,,,,5fa3b4abbcfd0b6c243758bc,2020-11-25_13h08.40.604,lexical_decision_task_MP_exp2,2020.2.5,Win32,60,z,1,0.421845,,,,,,,,0.421845,1,,,,,,358,NW,"ID",33,fleack,FLEACK,z,,,,,,0.28055559,-0.211111132,0,0,0,,0,30,30,297,1
,,,,,,,,,,,,,,,,,,5fa3b4abbcfd0b6c243758bc,2020-11-25_13h08.40.604,lexical_decision_task_MP_exp2,2020.2.5,Win32,60,z,0,0.2542,,,,,,,,0.2542,0,,,,,,45,WORD,UN,16,single,CLERGY,m,,,,,,0.28055559,-0.211111132,0,0,0,,0,31,31,224,1
,,,,,,,,,,,,,,,,,,5fa3b4abbcfd0b6c243758bc,2020-11-25_13h08.40.604,lexical_decision_task_MP_exp2,2020.2.5,Win32,60,z,0,0.433785,,,,,,,,0.433785,0,,,,,,118,WORD,"ID",33,flight,FLIGHT,m,,,,,,0.28055559,-0.211111132,0,0,0,,0,32,32,57,1
,,,,,,,,,,,,,,,,,,5fa3b4abbcfd0b6c243758bc,2020-11-25_13h08.40.604,lexical_decision_task_MP_exp2,2020.2.5,Win32,60,z,1,0.314225,,,,,,,,0.314225,1,,,,,,303,NW,"ID",33,fiream,FIREAM,z,,,,,,0.28055559,-0.211111132,0,0,0,,0,33,33,242,1
,,,,,,,,,,,,,,,,,,5fa3b4abbcfd0b6c243758bc,2020-11-25_13h08.40.604,lexical_decision_task_MP_exp2,2020.2.5,Win32,60,z,1,0.3617,,,,,,,,0.3617,1,,,,,,462,NW,UN,33,kispel,ABSULT,z,,,,,,0.28055559,-0.211111132,0,0,0,,0,34,34,401,1
,,,,,,,,,,,,,,,,,,5fa3b4abbcfd0b6c243758bc,2020-11-25_13h08.40.604,lexical_decision_task_MP_exp2,2020.2.5,Win32,60,z,1,0.41814,,,,,,,,0.41814,1,,,,,,465,NW,UN,33,bafent,WHIVEX,z,,,,,,0.28055559,-0.211111132,0,0,0,,0,35,35,404,1
,,,,,,,,,,,,,,,,,,5fa3b4abbcfd0b6c243758bc,2020-11-25_13h08.40.604,lexical_decision_task_MP_exp2,2020.2.5,Win32,60,z,1,0.349,,,,,,,,0.349,1,,,,,,408,NW,"ID",16,hurnia,HURNIA,z,,,,,,0.28055559,-0.211111132,0,0,0,,0,36,36,347,1
,,,,,,,,,,,,,,,,,,5fa3b4abbcfd0b6c243758bc,2020-11-25_13h08.40.604,lexical_decision_task_MP_exp2,2020.2.5,Win32,60,z,0,0.473775,,,,,,,,0.473775,0,,,,,,41,WORD,UN,16,chapel,SPRING,m,,,,,,0.28055559,-0.211111132,0,0,0,,0,37,37,220,1
,,,,,,,,,,,,,,,,,,5fa3b4abbcfd0b6c243758bc,2020-11-25_13h08.40.604,lexical_decision_task_MP_exp2,2020.2.5,Win32,60,z,1,0.46871,,,,,,,,0.46871,1,,,,,,417,NW,"ID",16,earoud,EAROUD,z,,,,,,0.28055559,-0.211111132,0,0,0,,0,38,38,356,1
,,,,,,,,,,,,,,,,,,5fa3b4abbcfd0b6c243758bc,2020-11-25_13h08.40.604,lexical_decision_task_MP_exp2,2020.2.5,Win32,60,z,1,0.42301,,,,,,,,0.42301,1,,,,,,461,NW,UN,33,absult,JUSTRE,z,,,,,,0.28055559,-0.211111132,0,0,0,,0,39,39,400,1
,,,,,,,,,,,,,,,,,,5fa3b4abbcfd0b6c243758bc,2020-11-25_13h08.40.604,lexical_decision_task_MP_exp2,2020.2.5,Win32,60,z,1,0.307785,,,,,,,,0.307785,1,,,,,,435,NW,UN,33,frutan,IMPURB,z,,,,,,0.28055559,-0.211111132,0,0,0,,0,40,40,374,1
,,,,,,,,,,,,,,,,,,5fa3b4abbcfd0b6c243758bc,2020-11-25_13h08.40.604,lexical_decision_task_MP_exp2,2020.2.5,Win32,60,z,1,0.332425,,,,,,,,0.332425,1,,,,,,251,NW,UN,16,stapod,LUPICT,z,,,,,,0.28055559,-0.211111132,0,0,0,,0,41,41,430,1
,,,,,,,,,,,,,,,,,,5fa3b4abbcfd0b6c243758bc,2020-11-25_13h08.40.604,lexical_decision_task_MP_exp2,2020.2.5,Win32,60,z,0,0.406655,,,,,,,,0.406655,0,,,,,,67,WORD,"ID",33,policy,POLICY,m,,,,,,0.28055559,-0.211111132,0,0,0,,0,42,42,6,1
,,,,,,,,,,,,,,,,,,5fa3b4abbcfd0b6c243758bc,2020-11-25_13h08.40.604,lexical_decision_task_MP_exp2,2020.2.5,Win32,60,z,1,0.4193,,,,,,,,0.4193,1,,,,,,270,NW,UN,16,aubrid,WRIMSY,z,,,,,,0.28055559,-0.211111132,0,0,0,,0,43,43,449,1
,,,,,,,,,,,,,,,,,,5fa3b4abbcfd0b6c243758bc,2020-11-25_13h08.40.604,lexical_decision_task_MP_exp2,2020.2.5,Win32,60,z,0,0.39215,,,,,,,,0.39215,0,,,,,,43,WORD,UN,16,foster,TONGUE,m,,,,,,0.28055559,-0.211111132,0,0,0,,0,44,44,222,1
,,,,,,,,,,,,,,,,,,5fa3b4abbcfd0b6c243758bc,2020-11-25_13h08.40.604,lexical_decision_task_MP_exp2,2020.2.5,Win32,60,z,0,0.352195,,,,,,,,0.352195,0,,,,,,34,WORD,UN,16,socket,JUNGLE,m,,,,,,0.28055559,-0.211111132,0,0,0,,0,45,45,213,1
,,,,,,,,,,,,,,,,,,5fa3b4abbcfd0b6c243758bc,2020-11-25_13h08.40.604,lexical_decision_task_MP_exp2,2020.2.5,Win32,60,z,1,0.35139,,,,,,,,0.35139,1,,,,,,420,NW,"ID",16,gushop,GUSHOP,z,,,,,,0.28055559,-0.211111132,0,0,0,,0,46,46,359,1
,,,,,,,,,,,,,,,,,,5fa3b4abbcfd0b6c243758bc,2020-11-25_13h08.40.604,lexical_decision_task_MP_exp2,2020.2.5,Win32,60,z,1,0.40163,,,,,,,,0.40163,1,,,,,,393,NW,"ID",16,ganous,GANOUS,z,,,,,,0.28055559,-0.211111132,0,0,0,,0,47,47,332,1
,,,,,,,,,,,,,,,,,,5fa3b4abbcfd0b6c243758bc,2020-11-25_13h08.40.604,lexical_decision_task_MP_exp2,2020.2.5,Win32,60,z,0,0.388695,,,,,,,,0.388695,0,,,,,,153,WORD,"ID",16,behold,BEHOLD,m,,,,,,0.28055559,-0.211111132,0,0,0,,0,48,48,92,1
,,,,,,,,,,,,,,,,,,5fa3b4abbcfd0b6c243758bc,2020-11-25_13h08.40.604,lexical_decision_task_MP_exp2,2020.2.5,Win32,60,z,0,0.397185,,,,,,,,0.397185,0,,,,,,212,WORD,UN,33,squeal,VERIFY,m,,,,,,0.28055559,-0.211111132,0,0,0,,0,49,49,151,1
,,,,,,,,,,,,,,,,,,5fa3b4abbcfd0b6c243758bc,2020-11-25_13h08.40.604,lexical_decision_task_MP_exp2,2020.2.5,Win32,60,z,0,0.355505,,,,,,,,0.355505,0,,,,,,210,WORD,UN,33,infect,MONKEY,m,,,,,,0.28055559,-0.211111132,0,0,0,,0,50,50,149,1
,,,,,,,,,,,,,,,,,,5fa3b4abbcfd0b6c243758bc,2020-11-25_13h08.40.604,lexical_decision_task_MP_exp2,2020.2.5,Win32,60,z,1,0.33269,,,,,,,,0.33269,1,,,,,,257,NW,UN,16,poluth,VENIOD,z,,,,,,0.28055559,-0.211111132,0,0,0,,0,51,51,436,1
,,,,,,,,,,,,,,,,,,5fa3b4abbcfd0b6c243758bc,2020-11-25_13h08.40.604,lexical_decision_task_MP_exp2,2020.2.5,Win32,60,z,1,0.36587,,,,,,,,0.36587,1,,,,,,334,NW,"ID",33,watmeg,WATMEG,z,,,,,,0.28055559,-0.211111132,0,0,0,,0,52,52,273,1
,,,,,,,,,,,,,,,,,,5fa3b4abbcfd0b6c243758bc,2020-11-25_13h08.40.604,lexical_decision_task_MP_exp2,2020.2.5,Win32,60,z,0,0.38393,,,,,,,,0.38393,0,,,,,,73,WORD,"ID",33,source,SOURCE,m,,,,,,0.28055559,-0.211111132,0,0,0,,0,53,53,12,1
,,,,,,,,,,,,,,,,,,5fa3b4abbcfd0b6c243758bc,2020-11-25_13h08.40.604,lexical_decision_task_MP_exp2,2020.2.5,Win32,60,z,0,0.43423,,,,,,,,0.43423,0,,,,,,172,WORD,"ID",16,patrol,PATROL,m,,,,,,0.28055559,-0.211111132,0,0,0,,0,54,54,111,1
,,,,,,,,,,,,,,,,,,5fa3b4abbcfd0b6c243758bc,2020-11-25_13h08.40.604,lexical_decision_task_MP_exp2,2020.2.5,Win32,60,z,0,0.299195,,,,,,,,0.299195,0,,,,,,228,WORD,UN,33,kidney,MASTER,m,,,,,,0.28055559,-0.211111132,0,0,0,,0,55,55,167,1
,,,,,,,,,,,,,,,,,,5fa3b4abbcfd0b6c243758bc,2020-11-25_13h08.40.604,lexical_decision_task_MP_exp2,2020.2.5,Win32,60,z,0,0.396445,,,,,,,,0.396445,0,,,,,,168,WORD,"ID",16,answer,ANSWER,m,,,,,,0.28055559,-0.211111132,0,0,0,,0,56,56,107,1
,,,,,,,,,,,,,,,,,,5fa3b4abbcfd0b6c243758bc,2020-11-25_13h08.40.604,lexical_decision_task_MP_exp2,2020.2.5,Win32,60,z,0,0.317925,,,,,,,,0.317925,0,,,,,,84,WORD,"ID",33,mortal,MORTAL,m,,,,,,0.28055559,-0.211111132,0,0,0,,0,57,57,23,1
,,,,,,,,,,,,,,,,,,5fa3b4abbcfd0b6c243758bc,2020-11-25_13h08.40.604,lexical_decision_task_MP_exp2,2020.2.5,Win32,60,z,1,0.34777,,,,,,,,0.34777,1,,,,,,385,NW,"ID",16,veigma,VEIGMA,z,,,,,,0.28055559,-0.211111132,0,0,0,,0,58,58,324,1
,,,,,,,,,,,,,,,,,,5fa3b4abbcfd0b6c243758bc,2020-11-25_13h08.40.604,lexical_decision_task_MP_exp2,2020.2.5,Win32,60,z,0,0.38895,,,,,,,,0.38895,0,,,,,,123,WORD,"ID",16,strike,STRIKE,m,,,,,,0.28055559,-0.211111132,0,0,0,,0,59,59,62,1
,,,,,,,,,,,,,,,,,,5fa3b4abbcfd0b6c243758bc,2020-11-25_13h08.40.604,lexical_decision_task_MP_exp2,2020.2.5,Win32,60,z,0,0.395455,,,,,,,,0.395455,0,,,,,,106,WORD,"ID",33,ransom,RANSOM,m,,,,,,0.28055559,-0.211111132,0,0,0,,0,60,60,45,1
,,,,,,,,,,,,,,,,,,5fa3b4abbcfd0b6c243758bc,2020-11-25_13h08.40.604,lexical_decision_task_MP_exp2,2020.2.5,Win32,60,z,1,0.33625,,,,,,,,0.33625,1,,,,,,351,NW,"ID",33,tiesch,TIESCH,z,,,,,,0.28055559,-0.211111132,0,0,0,,0,61,61,290,1
,,,,,,,,,,,,,,,,,,5fa3b4abbcfd0b6c243758bc,2020-11-25_13h08.40.604,lexical_decision_task_MP_exp2,2020.2.5,Win32,60,z,0,0.435015,,,,,,,,0.435015,0,,,,,,179,WORD,"ID",16,basket,BASKET,m,,,,,,0.28055559,-0.211111132,0,0,0,,0,62,62,118,1
,,,,,,,,,,,,,,,,,,5fa3b4abbcfd0b6c243758bc,2020-11-25_13h08.40.604,lexical_decision_task_MP_exp2,2020.2.5,Win32,60,z,0,0.635825,,,,,,,,0.635825,0,,,,,,149,WORD,"ID",16,invade,INVADE,m,,,,,,0.28055559,-0.211111132,0,0,0,,0,63,63,88,1
,,,,,,,,,,,,,,,,,,5fa3b4abbcfd0b6c243758bc,2020-11-25_13h08.40.604,lexical_decision_task_MP_exp2,2020.2.5,Win32,60,z,1,0.27639,,,,,,,,0.27639,1,,,,,,364,NW,"ID",16,impote,IMPOTE,z,,,,,,0.28055559,-0.211111132,0,0,0,,0,64,64,303,1
,,,,,,,,,,,,,,,,,,5fa3b4abbcfd0b6c243758bc,2020-11-25_13h08.40.604,lexical_decision_task_MP_exp2,2020.2.5,Win32,60,z,1,0.19737,,,,,,,,0.19737,1,,,,,,265,NW,UN,16,varmit,DISTAR,z,,,,,,0.28055559,-0.211111132,0,0,0,,0,65,65,444,1
,,,,,,,,,,,,,,,,,,5fa3b4abbcfd0b6c243758bc,2020-11-25_13h08.40.604,lexical_decision_task_MP_exp2,2020.2.5,Win32,60,z,0,0.41516,,,,,,,,0.41516,0,,,,,,82,WORD,"ID",33,stigma,STIGMA,m,,,,,,0.28055559,-0.211111132,0,0,0,,0,66,66,21,1
,,,,,,,,,,,,,,,,,,5fa3b4abbcfd0b6c243758bc,2020-11-25_13h08.40.604,lexical_decision_task_MP_exp2,2020.2.5,Win32,60,z,1,0.181435,,,,,,,,0.181435,1,,,,,,318,NW,"ID",33,reagly,REAGLY,z,,,,,,0.28055559,-0.211111132,0,0,0,,0,67,67,257,1
,,,,,,,,,,,,,,,,,,5fa3b4abbcfd0b6c243758bc,2020-11-25_13h08.40.604,lexical_decision_task_MP_exp2,2020.2.5,Win32,60,z,0,0.298975,,,,,,,,0.298975,0,,,,,,76,WORD,"ID",33,exotic,EXOTIC,m,,,,,,0.28055559,-0.211111132,0,0,0,,0,68,68,15,1
,,,,,,,,,,,,,,,,,,5fa3b4abbcfd0b6c243758bc,2020-11-25_13h08.40.604,lexical_decision_task_MP_exp2,2020.2.5,Win32,60,z,0,0.313655,,,,,,,,0.313655,0,,,,,,98,WORD,"ID",33,belong,BELONG,m,,,,,,0.28055559,-0.211111132,0,0,0,,0,69,69,37,1
,,,,,,,,,,,,,,,,,,5fa3b4abbcfd0b6c243758bc,2020-11-25_13h08.40.604,lexical_decision_task_MP_exp2,2020.2.5,Win32,60,z,1,0.440195,,,,,,,,0.440195,1,,,,,,382,NW,"ID",16,sarley,SARLEY,z,,,,,,0.28055559,-0.211111132,0,0,0,,0,70,70,321,1
,,,,,,,,,,,,,,,,,,5fa3b4abbcfd0b6c243758bc,2020-11-25_13h08.40.604,lexical_decision_task_MP_exp2,2020.2.5,Win32,60,z,1,0.282165,,,,,,,,0.282165,1,,,,,,359,NW,"ID",33,fonver,FONVER,z,,,,,,0.28055559,-0.211111132,0,0,0,,0,71,71,298,1
,,,,,,,,,,,,,,,,,,5fa3b4abbcfd0b6c243758bc,2020-11-25_13h08.40.604,lexical_decision_task_MP_exp2,2020.2.5,Win32,60,z,1,0.28983,,,,,,,,0.28983,1,,,,,,255,NW,UN,16,inlors,APIGHT,z,,,,,,0.28055559,-0.211111132,0,0,0,,0,72,72,434,1
,,,,,,,,,,,,,,,,,,5fa3b4abbcfd0b6c243758bc,2020-11-25_13h08.40.604,lexical_decision_task_MP_exp2,2020.2.5,Win32,60,z,0,0.316195,,,,,,,,0.316195,0,,,,,,140,WORD,"ID",16,prince,PRINCE,m,,,,,,0.28055559,-0.211111132,0,0,0,,0,73,73,79,1
,,,,,,,,,,,,,,,,,,5fa3b4abbcfd0b6c243758bc,2020-11-25_13h08.40.604,lexical_decision_task_MP_exp2,2020.2.5,Win32,60,z,0,0.29792,,,,,,,,0.29792,0,,,,,,237,WORD,UN,33,glance,POSTER,m,,,,,,0.28055559,-0.211111132,0,0,0,,0,74,74,176,1
,,,,,,,,,,,,,,,,,,5fa3b4abbcfd0b6c243758bc,2020-11-25_13h08.40.604,lexical_decision_task_MP_exp2,2020.2.5,Win32,60,z,0,0.252075,,,,,,,,0.252075,0,,,,,,9,WORD,UN,16,bridge,HUSTLE,m,,,,,,0.28055559,-0.211111132,0,0,0,,0,75,75,188,1
,,,,,,,,,,,,,,,,,,5fa3b4abbcfd0b6c243758bc,2020-11-25_13h08.40.604,lexical_decision_task_MP_exp2,2020.2.5,Win32,60,z,1,0.26822,,,,,,,,0.26822,1,,,,,,410,NW,"ID",16,tunory,TUNORY,z,,,,,,0.28055559,-0.211111132,0,0,0,,0,76,76,349,1
,,,,,,,,,,,,,,,,,,5fa3b4abbcfd0b6c243758bc,2020-11-25_13h08.40.604,lexical_decision_task_MP_exp2,2020.2.5,Win32,60,z,1,0.272685,,,,,,,,0.272685,1,,,,,,456,NW,UN,33,wanigh,BROGET,z,,,,,,0.28055559,-0.211111132,0,0,0,,0,77,77,395,1
,,,,,,,,,,,,,,,,,,5fa3b4abbcfd0b6c243758bc,2020-11-25_13h08.40.604,lexical_decision_task_MP_exp2,2020.2.5,Win32,60,z,1,0.301495,,,,,,,,0.301495,1,,,,,,423,NW,UN,33,praile,STRELD,z,,,,,,0.28055559,-0.211111132,0,0,0,,0,78,78,362,1
,,,,,,,,,,,,,,,,,,5fa3b4abbcfd0b6c243758bc,2020-11-25_13h08.40.604,lexical_decision_task_MP_exp2,2020.2.5,Win32,60,z,0,0.305625,,,,,,,,0.305625,0,,,,,,52,WORD,UN,16,police,IMPOSE,m,,,,,,0.28055559,-0.211111132,0,0,0,,0,79,79,231,1
,,,,,,,,,,,,,,,,,,5fa3b4abbcfd0b6c243758bc,2020-11-25_13h08.40.604,lexical_decision_task_MP_exp2,2020.2.5,Win32,60,z,0,0.173625,,,,,,,,0.173625,0,,,,,,197,WORD,UN,33,wicked,STREAM,m,,,,,,0.28055559,-0.211111132,0,0,0,,0,80,80,136,1
,,,,,,,,,,,,,,,,,,5fa3b4abbcfd0b6c243758bc,2020-11-25_13h08.40.604,lexical_decision_task_MP_exp2,2020.2.5,Win32,60,z,0,0.46696,,,,,,,,0.46696,0,,,,,,204,WORD,UN,33,lounge,BURDEN,m,,,,,,0.28055559,-0.211111132,0,0,0,,0,81,81,143,1
,,,,,,,,,,,,,,,,,,5fa3b4abbcfd0b6c243758bc,2020-11-25_13h08.40.604,lexical_decision_task_MP_exp2,2020.2.5,Win32,60,z,1,0.2998,,,,,,,,0.2998,1,,,,,,250,NW,UN,16,lupict,MILTED,z,,,,,,0.28055559,-0.211111132,0,0,0,,0,82,82,429,1
,,,,,,,,,,,,,,,,,,5fa3b4abbcfd0b6c243758bc,2020-11-25_13h08.40.604,lexical_decision_task_MP_exp2,2020.2.5,Win32,60,z,1,0.398,,,,,,,,0.398,1,,,,,,245,NW,UN,16,piaton,ANOUGS,z,,,,,,0.28055559,-0.211111132,0,0,0,,0,83,83,424,1
,,,,,,,,,,,,,,,,,,5fa3b4abbcfd0b6c243758bc,2020-11-25_13h08.40.604,lexical_decision_task_MP_exp2,2020.2.5,Win32,60,z,0,0.387935,,,,,,,,0.387935,0,,,,,,135,WORD,"ID",16,import,IMPORT,m,,,,,,0.28055559,-0.211111132,0,0,0,,0,84,84,74,1
,,,,,,,,,,,,,,,,,,5fa3b4abbcfd0b6c243758bc,2020-11-25_13h08.40.604,lexical_decision_task_MP_exp2,2020.2.5,Win32,60,z,1,0.22787,,,,,,,,0.22787,1,,,,,,268,NW,UN,16,orchet,PACKES,z,,,,,,0.28055559,-0.211111132,0,0,0,,0,85,85,447,1
,,,,,,,,,,,,,,,,,,5fa3b4abbcfd0b6c243758bc,2020-11-25_13h08.40.604,lexical_decision_task_MP_exp2,2020.2.5,Win32,60,z,0,0.28106,,,,,,,,0.28106,0,,,,,,203,WORD,UN,33,burden,PHRASE,m,,,,,,0.28055559,-0.211111132,0,0,0,,0,86,86,142,1
,,,,,,,,,,,,,,,,,,5fa3b4abbcfd0b6c243758bc,2020-11-25_13h08.40.604,lexical_decision_task_MP_exp2,2020.2.5,Win32,60,z,0,0.263605,,,,,,,,0.263605,0,,,,,,85,WORD,"ID",33,sprawl,SPRAWL,m,,,,,,0.28055559,-0.211111132,0,0,0,,0,87,87,24,1
,,,,,,,,,,,,,,,,,,5fa3b4abbcfd0b6c243758bc,2020-11-25_13h08.40.604,lexical_decision_task_MP_exp2,2020.2.5,Win32,60,z,1,0.38529,,,,,,,,0.38529,1,,,,,,386,NW,"ID",16,ancust,ANCUST,z,,,,,,0.28055559,-0.211111132,0,0,0,,0,88,88,325,1
,,,,,,,,,,,,,,,,,,5fa3b4abbcfd0b6c243758bc,2020-11-25_13h08.40.604,lexical_decision_task_MP_exp2,2020.2.5,Win32,60,z,1,0.355035,,,,,,,,0.355035,1,,,,,,439,NW,UN,33,saride,LIMPOR,z,,,,,,0.28055559,-0.211111132,0,0,0,,0,89,89,378,1
,,,,,,,,,,,,,,,,,,5fa3b4abbcfd0b6c243758bc,2020-11-25_13h08.40.604,lexical_decision_task_MP_exp2,2020.2.5,Win32,60,z,1,0.38341,,,,,,,,0.38341,1,,,,,,384,NW,"ID",16,guesco,GUESCO,z,,,,,,0.28055559,-0.211111132,0,0,0,,0,90,90,323,1
,,,,,,,,,,,,,,,,,,5fa3b4abbcfd0b6c243758bc,2020-11-25_13h08.40.604,lexical_decision_task_MP_exp2,2020.2.5,Win32,60,z,0,0.32391,,,,,,,,0.32391,0,,,,,,51,WORD,UN,16,impose,HUNGRY,m,,,,,,0.28055559,-0.211111132,0,0,0,,0,91,91,230,1
,,,,,,,,,,,,,,,,,,5fa3b4abbcfd0b6c243758bc,2020-11-25_13h08.40.604,lexical_decision_task_MP_exp2,2020.2.5,Win32,60,z,0,0.257745,,,,,,,,0.257745,0,,,,,,234,WORD,UN,33,poster,CLUMSY,m,,,,,,0.28055559,-0.211111132,0,0,0,,0,92,92,173,1
,,,,,,,,,,,,,,,,,,5fa3b4abbcfd0b6c243758bc,2020-11-25_13h08.40.604,lexical_decision_task_MP_exp2,2020.2.5,Win32,60,z,1,0.308325,,,,,,,,0.308325,1,,,,,,413,NW,"ID",16,equats,EQUATS,z,,,,,,0.28055559,-0.211111132,0,0,0,,0,93,93,352,1
,,,,,,,,,,,,,,,,,,5fa3b4abbcfd0b6c243758bc,2020-11-25_13h08.40.604,lexical_decision_task_MP_exp2,2020.2.5,Win32,60,z,0,0.373895,,,,,,,,0.373895,0,,,,,,31,WORD,UN,16,buckle,WEAPON,m,,,,,,0.28055559,-0.211111132,0,0,0,,0,94,94,210,1
,,,,,,,,,,,,,,,,,,5fa3b4abbcfd0b6c243758bc,2020-11-25_13h08.40.604,lexical_decision_task_MP_exp2,2020.2.5,Win32,60,z,1,0.39102,,,,,,,,0.39102,1,,,,,,397,NW,"ID",16,camble,CAMBLE,z,,,,,,0.28055559,-0.211111132,0,0,0,,0,95,95,336,1
,,,,,,,,,,,,,,,,,,5fa3b4abbcfd0b6c243758bc,2020-11-25_13h08.40.604,lexical_decision_task_MP_exp2,2020.2.5,Win32,60,z,0,0.35092,,,,,,,,0.35092,0,,,,,,49,WORD,UN,16,snatch,SURVEY,m,,,,,,0.28055559,-0.211111132,0,0,0,,0,96,96,228,1
,,,,,,,,,,,,,,,,,,5fa3b4abbcfd0b6c243758bc,2020-11-25_13h08.40.604,lexical_decision_task_MP_exp2,2020.2.5,Win32,60,z,1,0.267045,,,,,,,,0.267045,1,,,,,,473,NW,UN,33,hablin,CRIBLE,z,,,,,,0.28055559,-0.211111132,0,0,0,,0,97,97,412,1
,,,,,,,,,,,,,,,,,,5fa3b4abbcfd0b6c243758bc,2020-11-25_13h08.40.604,lexical_decision_task_MP_exp2,2020.2.5,Win32,60,z,1,0.279255,,,,,,,,0.279255,1,,,,,,243,NW,UN,16,eatric,MUSIED,z,,,,,,0.28055559,-0.211111132,0,0,0,,0,98,98,422,1
,,,,,,,,,,,,,,,,,,5fa3b4abbcfd0b6c243758bc,2020-11-25_13h08.40.604,lexical_decision_task_MP_exp2,2020.2.5,Win32,60,z,0,0.338585,,,,,,,,0.338585,0,,,,,,93,WORD,"ID",33,public,PUBLIC,m,,,,,,0.28055559,-0.211111132,0,0,0,,0,99,99,32,1
,,,,,,,,,,,,,,,,,,5fa3b4abbcfd0b6c243758bc,2020-11-25_13h08.40.604,lexical_decision_task_MP_exp2,2020.2.5,Win32,60,z,0,0.318325,,,,,,,,0.318325,0,,,,,,226,WORD,UN,33,flower,CASINO,m,,,,,,0.28055559,-0.211111132,0,0,0,,0,100,100,165,1
,,,,,,,,,,,,,,,,,,5fa3b4abbcfd0b6c243758bc,2020-11-25_13h08.40.604,lexical_decision_task_MP_exp2,2020.2.5,Win32,60,z,1,0.27882,,,,,,,,0.27882,1,,,,,,333,NW,"ID",33,catrie,CATRIE,z,,,,,,0.28055559,-0.211111132,0,0,0,,0,101,101,272,1
,,,,,,,,,,,,,,,,,,5fa3b4abbcfd0b6c243758bc,2020-11-25_13h08.40.604,lexical_decision_task_MP_exp2,2020.2.5,Win32,60,z,0,0.298015,,,,,,,,0.298015,0,,,,,,33,WORD,UN,16,jungle,BUTLER,m,,,,,,0.28055559,-0.211111132,0,0,0,,0,102,102,212,1
,,,,,,,,,,,,,,,,,,5fa3b4abbcfd0b6c243758bc,2020-11-25_13h08.40.604,lexical_decision_task_MP_exp2,2020.2.5,Win32,60,z,1,0.34069,,,,,,,,0.34069,1,,,,,,437,NW,UN,33,baitch,SNAPEL,z,,,,,,0.28055559,-0.211111132,0,0,0,,0,103,103,376,1
,,,,,,,,,,,,,,,,,,5fa3b4abbcfd0b6c243758bc,2020-11-25_13h08.40.604,lexical_decision_task_MP_exp2,2020.2.5,Win32,60,z,0,0.36056,,,,,,,,0.36056,0,,,,,,28,WORD,UN,16,sketch,COMEDY,m,,,,,,0.28055559,-0.211111132,0,0,0,,0,104,104,207,1
,,,,,,,,,,,,,,,,,,5fa3b4abbcfd0b6c243758bc,2020-11-25_13h08.40.604,lexical_decision_task_MP_exp2,2020.2.5,Win32,60,z,0,0.30595,,,,,,,,0.30595,0,,,,,,97,WORD,"ID",33,client,CLIENT,m,,,,,,0.28055559,-0.211111132,0,0,0,,0,105,105,36,1
,,,,,,,,,,,,,,,,,,5fa3b4abbcfd0b6c243758bc,2020-11-25_13h08.40.604,lexical_decision_task_MP_exp2,2020.2.5,Win32,60,z,1,0.41461,,,,,,,,0.41461,1,,,,,,447,NW,UN,33,sadent,GIRCUE,z,,,,,,0.28055559,-0.211111132,0,0,0,,0,106,106,386,1
,,,,,,,,,,,,,,,,,,5fa3b4abbcfd0b6c243758bc,2020-11-25_13h08.40.604,lexical_decision_task_MP_exp2,2020.2.5,Win32,60,z,1,0.37107,,,,,,,,0.37107,1,,,,,,398,NW,"ID",16,blunde,BLUNDE,z,,,,,,0.28055559,-0.211111132,0,0,0,,0,107,107,337,1
,,,,,,,,,,,,,,,,,,5fa3b4abbcfd0b6c243758bc,2020-11-25_13h08.40.604,lexical_decision_task_MP_exp2,2020.2.5,Win32,60,z,1,0.35357,,,,,,,,0.35357,1,,,,,,354,NW,"ID",33,virlex,VIRLEX,z,,,,,,0.28055559,-0.211111132,0,0,0,,0,108,108,293,1
,,,,,,,,,,,,,,,,,,5fa3b4abbcfd0b6c243758bc,2020-11-25_13h08.40.604,lexical_decision_task_MP_exp2,2020.2.5,Win32,60,z,1,0.398705,,,,,,,,0.398705,1,,,,,,262,NW,UN,16,dolica,QUILEW,z,,,,,,0.28055559,-0.211111132,0,0,0,,0,109,109,441,1
,,,,,,,,,,,,,,,,,,5fa3b4abbcfd0b6c243758bc,2020-11-25_13h08.40.604,lexical_decision_task_MP_exp2,2020.2.5,Win32,60,z,1,0.44993,,,,,,,,0.44993,1,,,,,,263,NW,UN,16,vackel,DOLICA,z,,,,,,0.28055559,-0.211111132,0,0,0,,0,110,110,442,1
,,,,,,,,,,,,,,,,,,5fa3b4abbcfd0b6c243758bc,2020-11-25_13h08.40.604,lexical_decision_task_MP_exp2,2020.2.5,Win32,60,z,1,0.347205,,,,,,,,0.347205,1,,,,,,434,NW,UN,33,impurb,PITROM,z,,,,,,0.28055559,-0.211111132,0,0,0,,0,111,111,373,1
,,,,,,,,,,,,,,,,,,5fa3b4abbcfd0b6c243758bc,2020-11-25_13h08.40.604,lexical_decision_task_MP_exp2,2020.2.5,Win32,60,z,0,0.43566,,,,,,,,0.43566,0,,,,,,142,WORD,"ID",16,spruce,SPRUCE,m,,,,,,0.28055559,-0.211111132,0,0,0,,0,112,112,81,1
,,,,,,,,,,,,,,,,,,5fa3b4abbcfd0b6c243758bc,2020-11-25_13h08.40.604,lexical_decision_task_MP_exp2,2020.2.5,Win32,60,z,0,0.4055,,,,,,,,0.4055,0,,,,,,103,WORD,"ID",33,bounce,BOUNCE,m,,,,,,0.28055559,-0.211111132,0,0,0,,0,113,113,42,1
,,,,,,,,,,,,,,,,,,5fa3b4abbcfd0b6c243758bc,2020-11-25_13h08.40.604,lexical_decision_task_MP_exp2,2020.2.5,Win32,60,z,0,0.420685,,,,,,,,0.420685,0,,,,,,29,WORD,UN,16,orient,SKETCH,m,,,,,,0.28055559,-0.211111132,0,0,0,,0,114,114,208,1
,,,,,,,,,,,,,,,,,,5fa3b4abbcfd0b6c243758bc,2020-11-25_13h08.40.604,lexical_decision_task_MP_exp2,2020.2.5,Win32,60,z,1,0.372845,,,,,,,,0.372845,1,,,,,,453,NW,UN,33,scouge,BOLVIS,z,,,,,,0.28055559,-0.211111132,0,0,0,,0,115,115,392,1
,,,,,,,,,,,,,,,,,,5fa3b4abbcfd0b6c243758bc,2020-11-25_13h08.40.604,lexical_decision_task_MP_exp2,2020.2.5,Win32,60,z,0,0.51691,,,,,,,,0.51691,0,,,,,,191,WORD,UN,33,beacon,STABLE,m,,,,,,0.28055559,-0.211111132,0,0,0,,0,116,116,130,1
,,,,,,,,,,,,,,,,,,5fa3b4abbcfd0b6c243758bc,2020-11-25_13h08.40.604,lexical_decision_task_MP_exp2,2020.2.5,Win32,60,z,0,0.39583,,,,,,,,0.39583,0,,,,,,188,WORD,UN,33,censor,SOCIAL,m,,,,,,0.28055559,-0.211111132,0,0,0,,0,117,117,127,1
,,,,,,,,,,,,,,,,,,5fa3b4abbcfd0b6c243758bc,2020-11-25_13h08.40.604,lexical_decision_task_MP_exp2,2020.2.5,Win32,60,z,1,0.342955,,,,,,,,0.342955,1,,,,,,433,NW,UN,33,pitrom,DRANCE,z,,,,,,0.28055559,-0.211111132,0,0,0,,0,118,118,372,1
,,,,,,,,,,,,,,,,,,5fa3b4abbcfd0b6c243758bc,2020-11-25_13h08.40.604,lexical_decision_task_MP_exp2,2020.2.5,Win32,60,z,0,0.442475,,,,,,,,0.442475,0,,,,,,18,WORD,UN,16,patron,HUMBLE,m,,,,,,0.28055559,-0.211111132,0,0,0,,0,119,119,197,1
,,,,,,,,,,,,,,,,,,5fa3b4abbcfd0b6c243758bc,2020-11-25_13h08.40.604,lexical_decision_task_MP_exp2,2020.2.5,Win32,60,z,0,0.32401,,,,,,,,0.32401,0,,,,,,24,WORD,UN,16,domain,PRAISE,m,,,,,,0.28055559,-0.211111132,0,0,0,,0,120,120,203,1
,,,,,,,,,,,,,,,,,,5fa3b4abbcfd0b6c243758bc,2020-11-25_13h08.40.604,lexical_decision_task_MP_exp2,2020.2.5,Win32,60,z,1,0.39801,,,,,,,,0.39801,1,,,,,,288,NW,UN,16,starby,YACEUP,z,,,,,,0.28055559,-0.211111132,0,0,0,,0,121,121,467,1
,,,,,,,,,,,,,,,,,,5fa3b4abbcfd0b6c243758bc,2020-11-25_13h08.40.604,lexical_decision_task_MP_exp2,2020.2.5,Win32,60,z,1,0.357,,,,,,,,0.357,1,,,,,,389,NW,"ID",16,witmer,WITMER,z,,,,,,0.28055559,-0.211111132,0,0,0,,0,122,122,328,1
,,,,,,,,,,,,,,,,,,5fa3b4abbcfd0b6c243758bc,2020-11-25_13h08.40.604,lexical_decision_task_MP_exp2,2020.2.5,Win32,60,z,1,0.35715,,,,,,,,0.35715,1,,,,,,327,NW,"ID",33,plenac,PLENAC,z,,,,,,0.28055559,-0.211111132,0,0,0,,0,123,123,266,1
,,,,,,,,,,,,,,,,,,5fa3b4abbcfd0b6c243758bc,2020-11-25_13h08.40.604,lexical_decision_task_MP_exp2,2020.2.5,Win32,60,z,0,0.38786,,,,,,,,0.38786,0,,,,,,159,WORD,"ID",16,detail,DETAIL,m,,,,,,0.28055559,-0.211111132,0,0,0,,0,124,124,98,1
,,,,,,,,,,,,,,,,,,5fa3b4abbcfd0b6c243758bc,2020-11-25_13h08.40.604,lexical_decision_task_MP_exp2,2020.2.5,Win32,60,z,0,0.446025,,,,,,,,0.446025,0,,,,,,25,WORD,UN,16,sprint,DOMAIN,m,,,,,,0.28055559,-0.211111132,0,0,0,,0,125,125,204,1
,,,,,,,,,,,,,,,,,,5fa3b4abbcfd0b6c243758bc,2020-11-25_13h08.40.604,lexical_decision_task_MP_exp2,2020.2.5,Win32,60,z,0,0.402385,,,,,,,,0.402385,0,,,,,,235,WORD,UN,33,pirate,GRUMPY,m,,,,,,0.28055559,-0.211111132,0,0,0,,0,126,126,174,1
,,,,,,,,,,,,,,,,,,5fa3b4abbcfd0b6c243758bc,2020-11-25_13h08.40.604,lexical_decision_task_MP_exp2,2020.2.5,Win32,60,z,0,0.388435,,,,,,,,0.388435,0,,,,,,44,WORD,UN,16,clergy,DANGER,m,,,,,,0.28055559,-0.211111132,0,0,0,,0,127,127,223,1
,,,,,,,,,,,,,,,,,,5fa3b4abbcfd0b6c243758bc,2020-11-25_13h08.40.604,lexical_decision_task_MP_exp2,2020.2.5,Win32,60,z,0,0.42636,,,,,,,,0.42636,0,,,,,,150,WORD,"ID",16,random,RANDOM,m,,,,,,0.28055559,-0.211111132,0,0,0,,0,128,128,89,1
,,,,,,,,,,,,,,,,,,5fa3b4abbcfd0b6c243758bc,2020-11-25_13h08.40.604,lexical_decision_task_MP_exp2,2020.2.5,Win32,60,z,1,0.39943,,,,,,,,0.39943,1,,,,,,376,NW,"ID",16,iguare,IGUARE,z,,,,,,0.28055559,-0.211111132,0,0,0,,0,129,129,315,1
,,,,,,,,,,,,,,,,,,5fa3b4abbcfd0b6c243758bc,2020-11-25_13h08.40.604,lexical_decision_task_MP_exp2,2020.2.5,Win32,60,z,1,1.300745,,,,,,,,1.300745,1,,,,,,291,NW,UN,16,ablint,PRETCH,z,,,,,,0.28055559,-0.211111132,0,0,0,,0,130,130,470,1
,,,,,,,,,,,,,,,,,,5fa3b4abbcfd0b6c243758bc,2020-11-25_13h08.40.604,lexical_decision_task_MP_exp2,2020.2.5,Win32,60,z,1,0.48601,,,,,,,,0.48601,1,,,,,,394,NW,"ID",16,spaqux,SPAQUX,z,,,,,,0.28055559,-0.211111132,0,0,0,,0,131,131,333,1
,,,,,,,,,,,,,,,,,,5fa3b4abbcfd0b6c243758bc,2020-11-25_13h08.40.604,lexical_decision_task_MP_exp2,2020.2.5,Win32,60,z,1,0.33861,,,,,,,,0.33861,1,,,,,,400,NW,"ID",16,wearox,WEAROX,z,,,,,,0.28055559,-0.211111132,0,0,0,,0,132,132,339,1
,,,,,,,,,,,,,,,,,,5fa3b4abbcfd0b6c243758bc,2020-11-25_13h08.40.604,lexical_decision_task_MP_exp2,2020.2.5,Win32,60,z,1,0.330685,,,,,,,,0.330685,1,,,,,,278,NW,UN,16,celond,UNIGHS,z,,,,,,0.28055559,-0.211111132,0,0,0,,0,133,133,457,1
,,,,,,,,,,,,,,,,,,5fa3b4abbcfd0b6c243758bc,2020-11-25_13h08.40.604,lexical_decision_task_MP_exp2,2020.2.5,Win32,60,z,0,0.40656,,,,,,,,0.40656,0,,,,,,77,WORD,"ID",33,racket,RACKET,m,,,,,,0.28055559,-0.211111132,0,0,0,,0,134,134,16,1
,,,,,,,,,,,,,,,,,,5fa3b4abbcfd0b6c243758bc,2020-11-25_13h08.40.604,lexical_decision_task_MP_exp2,2020.2.5,Win32,60,z,1,0.352555,,,,,,,,0.352555,1,,,,,,342,NW,"ID",33,randow,RANDOW,z,,,,,,0.28055559,-0.211111132,0,0,0,,0,135,135,281,1
,,,,,,,,,,,,,,,,,,5fa3b4abbcfd0b6c243758bc,2020-11-25_13h08.40.604,lexical_decision_task_MP_exp2,2020.2.5,Win32,60,z,0,0.392955,,,,,,,,0.392955,0,,,,,,162,WORD,"ID",16,candle,CANDLE,m,,,,,,0.28055559,-0.211111132,0,0,0,,0,136,136,101,1
,,,,,,,,,,,,,,,,,,5fa3b4abbcfd0b6c243758bc,2020-11-25_13h08.40.604,lexical_decision_task_MP_exp2,2020.2.5,Win32,60,z,0,0.330925,,,,,,,,0.330925,0,,,,,,206,WORD,UN,33,wreath,TAILOR,m,,,,,,0.28055559,-0.211111132,0,0,0,,0,137,137,145,1
,,,,,,,,,,,,,,,,,,5fa3b4abbcfd0b6c243758bc,2020-11-25_13h08.40.604,lexical_decision_task_MP_exp2,2020.2.5,Win32,60,z,0,0.36349,,,,,,,,0.36349,0,,,,,,143,WORD,"ID",16,reason,REASON,m,,,,,,0.28055559,-0.211111132,0,0,0,,0,138,138,82,1
,,,,,,,,,,,,,,,,,,5fa3b4abbcfd0b6c243758bc,2020-11-25_13h08.40.604,lexical_decision_task_MP_exp2,2020.2.5,Win32,60,z,0,0.36073,,,,,,,,0.36073,0,,,,,,189,WORD,UN,33,backup,CENSOR,m,,,,,,0.28055559,-0.211111132,0,0,0,,0,139,139,128,1
,,,,,,,,,,,,,,,,,,5fa3b4abbcfd0b6c243758bc,2020-11-25_13h08.40.604,lexical_decision_task_MP_exp2,2020.2.5,Win32,60,z,0,0.47253,,,,,,,,0.47253,0,,,,,,136,WORD,"ID",16,bleach,BLEACH,m,,,,,,0.28055559,-0.211111132,0,0,0,,0,140,140,75,1
,,,,,,,,,,,,,,,,,,5fa3b4abbcfd0b6c243758bc,2020-11-25_13h08.40.604,lexical_decision_task_MP_exp2,2020.2.5,Win32,60,z,0,0.3766,,,,,,,,0.3766,0,,,,,,240,WORD,UN,33,seldom,FOREST,m,,,,,,0.28055559,-0.211111132,0,0,0,,0,141,141,179,1
,,,,,,,,,,,,,,,,,,5fa3b4abbcfd0b6c243758bc,2020-11-25_13h08.40.604,lexical_decision_task_MP_exp2,2020.2.5,Win32,60,z,1,0.48837,,,,,,,,0.48837,1,,,,,,338,NW,"ID",33,wreash,WREASH,z,,,,,,0.28055559,-0.211111132,0,0,0,,0,142,142,277,1
,,,,,,,,,,,,,,,,,,5fa3b4abbcfd0b6c243758bc,2020-11-25_13h08.40.604,lexical_decision_task_MP_exp2,2020.2.5,Win32,60,z,1,0.480955,,,,,,,,0.480955,1,,,,,,412,NW,"ID",16,jiluer,JILUER,z,,,,,,0.28055559,-0.211111132,0,0,0,,0,143,143,351,1
,,,,,,,,,,,,,,,,,,5fa3b4abbcfd0b6c243758bc,2020-11-25_13h08.40.604,lexical_decision_task_MP_exp2,2020.2.5,Win32,60,z,1,0.772155,,,,,,,,0.772155,1,,,,,,349,NW,"ID",33,asylen,ASYLEN,z,,,,,,0.28055559,-0.211111132,0,0,0,,0,144,144,288,1
,,,,,,,,,,,,,,,,,,5fa3b4abbcfd0b6c243758bc,2020-11-25_13h08.40.604,lexical_decision_task_MP_exp2,2020.2.5,Win32,60,z,1,0.520125,,,,,,,,0.520125,1,,,,,,324,NW,"ID",33,steikh,STEIKH,z,,,,,,0.28055559,-0.211111132,0,0,0,,0,145,145,263,1
,,,,,,,,,,,,,,,,,,5fa3b4abbcfd0b6c243758bc,2020-11-25_13h08.40.604,lexical_decision_task_MP_exp2,2020.2.5,Win32,60,z,0,0.501095,,,,,,,,0.501095,0,,,,,,231,WORD,UN,33,inject,EXPORT,m,,,,,,0.28055559,-0.211111132,0,0,0,,0,146,146,170,1
,,,,,,,,,,,,,,,,,,5fa3b4abbcfd0b6c243758bc,2020-11-25_13h08.40.604,lexical_decision_task_MP_exp2,2020.2.5,Win32,60,z,1,0.37126,,,,,,,,0.37126,1,,,,,,274,NW,UN,16,sleirt,FUMBLO,z,,,,,,0.28055559,-0.211111132,0,0,0,,0,147,147,453,1
,,,,,,,,,,,,,,,,,,5fa3b4abbcfd0b6c243758bc,2020-11-25_13h08.40.604,lexical_decision_task_MP_exp2,2020.2.5,Win32,60,z,0,0.49591,,,,,,,,0.49591,0,,,,,,87,WORD,"ID",33,filter,FILTER,m,,,,,,0.28055559,-0.211111132,0,0,0,,0,148,148,26,1
,,,,,,,,,,,,,,,,,,5fa3b4abbcfd0b6c243758bc,2020-11-25_13h08.40.604,lexical_decision_task_MP_exp2,2020.2.5,Win32,60,z,1,0.523205,,,,,,,,0.523205,1,,,,,,356,NW,"ID",33,othnis,OTHNIS,z,,,,,,0.28055559,-0.211111132,0,0,0,,0,149,149,295,1
,,,,,,,,,,,,,,,,,,5fa3b4abbcfd0b6c243758bc,2020-11-25_13h08.40.604,lexical_decision_task_MP_exp2,2020.2.5,Win32,60,z,0,0.48176,,,,,,,,0.48176,0,,,,,,110,WORD,"ID",33,polite,POLITE,m,,,,,,0.28055559,-0.211111132,0,0,0,,0,150,150,49,1
,,,,,,,,,,,,,,,,,,5fa3b4abbcfd0b6c243758bc,2020-11-25_13h08.40.604,lexical_decision_task_MP_exp2,2020.2.5,Win32,60,z,0,0.413215,,,,,,,,0.413215,0,,,,,,46,WORD,UN,16,income,SINGLE,m,,,,,,0.28055559,-0.211111132,0,0,0,,0,151,151,225,1
,,,,,,,,,,,,,,,,,,5fa3b4abbcfd0b6c243758bc,2020-11-25_13h08.40.604,lexical_decision_task_MP_exp2,2020.2.5,Win32,60,z,0,0.515495,,,,,,,,0.515495,0,,,,,,128,WORD,"ID",16,senior,SENIOR,m,,,,,,0.28055559,-0.211111132,0,0,0,,0,152,152,67,1
,,,,,,,,,,,,,,,,,,5fa3b4abbcfd0b6c243758bc,2020-11-25_13h08.40.604,lexical_decision_task_MP_exp2,2020.2.5,Win32,60,z,0,0.55577,,,,,,,,0.55577,0,,,,,,58,WORD,UN,16,splint,FOSTER,m,,,,,,0.28055559,-0.211111132,0,0,0,,0,153,153,237,1
,,,,,,,,,,,,,,,,,,5fa3b4abbcfd0b6c243758bc,2020-11-25_13h08.40.604,lexical_decision_task_MP_exp2,2020.2.5,Win32,60,z,0,0.58552,,,,,,,,0.58552,0,,,,,,8,WORD,UN,16,hustle,ABRUPT,m,,,,,,0.28055559,-0.211111132,0,0,0,,0,154,154,187,1
,,,,,,,,,,,,,,,,,,5fa3b4abbcfd0b6c243758bc,2020-11-25_13h08.40.604,lexical_decision_task_MP_exp2,2020.2.5,Win32,60,z,0,0.578845,,,,,,,,0.578845,0,,,,,,207,WORD,UN,33,hockey,WREATH,m,,,,,,0.28055559,-0.211111132,0,0,0,,0,155,155,146,1
,,,,,,,,,,,,,,,,,,5fa3b4abbcfd0b6c243758bc,2020-11-25_13h08.40.604,lexical_decision_task_MP_exp2,2020.2.5,Win32,60,z,1,0.5772,,,,,,,,0.5772,1,,,,,,312,NW,"ID",33,nerawl,NERAWL,z,,,,,,0.28055559,-0.211111132,0,0,0,,0,156,156,251,1
,,,,,,,,,,,,,,,,,,5fa3b4abbcfd0b6c243758bc,2020-11-25_13h08.40.604,lexical_decision_task_MP_exp2,2020.2.5,Win32,60,z,0,0.48301,,,,,,,,0.48301,0,,,,,,7,WORD,UN,16,abrupt,ANCHOR,m,,,,,,0.28055559,-0.211111132,0,0,0,,0,157,157,186,1
,,,,,,,,,,,,,,,,,,5fa3b4abbcfd0b6c243758bc,2020-11-25_13h08.40.604,lexical_decision_task_MP_exp2,2020.2.5,Win32,60,z,0,0.532395,,,,,,,,0.532395,0,,,,,,199,WORD,UN,33,plague,INVOKE,m,,,,,,0.28055559,-0.211111132,0,0,0,,0,158,158,138,1
,,,,,,,,,,,,,,,,,,5fa3b4abbcfd0b6c243758bc,2020-11-25_13h08.40.604,lexical_decision_task_MP_exp2,2020.2.5,Win32,60,z,0,0.437475,,,,,,,,0.437475,0,,,,,,100,WORD,"ID",33,carbon,CARBON,m,,,,,,0.28055559,-0.211111132,0,0,0,,0,159,159,39,1
,,,,,,,,,,,,,,,,,,5fa3b4abbcfd0b6c243758bc,2020-11-25_13h08.40.604,lexical_decision_task_MP_exp2,2020.2.5,Win32,60,z,0,0.46705,,,,,,,,0.46705,0,,,,,,221,WORD,UN,33,hinder,MASCOT,m,,,,,,0.28055559,-0.211111132,0,0,0,,0,160,160,160,1
,,,,,,,,,,,,,,,,,,5fa3b4abbcfd0b6c243758bc,2020-11-25_13h08.40.604,lexical_decision_task_MP_exp2,2020.2.5,Win32,60,z,0,0.4056,,,,,,,,0.4056,0,,,,,,152,WORD,"ID",16,rocket,ROCKET,m,,,,,,0.28055559,-0.211111132,0,0,0,,0,161,161,91,1
,,,,,,,,,,,,,,,,,,5fa3b4abbcfd0b6c243758bc,2020-11-25_13h08.40.604,lexical_decision_task_MP_exp2,2020.2.5,Win32,60,z,1,0.448345,,,,,,,,0.448345,1,,,,,,371,NW,"ID",16,geiloy,GEILOY,z,,,,,,0.28055559,-0.211111132,0,0,0,,0,162,162,310,1
,,,,,,,,,,,,,,,,,,5fa3b4abbcfd0b6c243758bc,2020-11-25_13h08.40.604,lexical_decision_task_MP_exp2,2020.2.5,Win32,60,z,0,0.458155,,,,,,,,0.458155,0,,,,,,157,WORD,"ID",16,dragon,DRAGON,m,,,,,,0.28055559,-0.211111132,0,0,0,,0,163,163,96,1
,,,,,,,,,,,,,,,,,,5fa3b4abbcfd0b6c243758bc,2020-11-25_13h08.40.604,lexical_decision_task_MP_exp2,2020.2.5,Win32,60,z,0,0.44646,,,,,,,,0.44646,0,,,,,,147,WORD,"ID",16,garlic,GARLIC,m,,,,,,0.28055559,-0.211111132,0,0,0,,0,164,164,86,1
,,,,,,,,,,,,,,,,,,5fa3b4abbcfd0b6c243758bc,2020-11-25_13h08.40.604,lexical_decision_task_MP_exp2,2020.2.5,Win32,60,z,1,0.414945,,,,,,,,0.414945,1,,,,,,280,NW,UN,16,melaty,CURBOL,z,,,,,,0.28055559,-0.211111132,0,0,0,,0,165,165,459,1
,,,,,,,,,,,,,,,,,,5fa3b4abbcfd0b6c243758bc,2020-11-25_13h08.40.604,lexical_decision_task_MP_exp2,2020.2.5,Win32,60,z,1,0.47552,,,,,,,,0.47552,1,,,,,,436,NW,UN,33,snapel,FRUTAN,z,,,,,,0.28055559,-0.211111132,0,0,0,,0,166,166,375,1
,,,,,,,,,,,,,,,,,,5fa3b4abbcfd0b6c243758bc,2020-11-25_13h08.40.604,lexical_decision_task_MP_exp2,2020.2.5,Win32,60,z,0,0.43681,,,,,,,,0.43681,0,,,,,,54,WORD,UN,16,stroke,RAMBLE,m,,,,,,0.28055559,-0.211111132,0,0,0,,0,167,167,233,1
,,,,,,,,,,,,,,,,,,5fa3b4abbcfd0b6c243758bc,2020-11-25_13h08.40.604,lexical_decision_task_MP_exp2,2020.2.5,Win32,60,z,1,0.49988,,,,,,,,0.49988,1,,,,,,267,NW,UN,16,packes,PASINK,z,,,,,,0.28055559,-0.211111132,0,0,0,,0,168,168,446,1
,,,,,,,,,,,,,,,,,,5fa3b4abbcfd0b6c243758bc,2020-11-25_13h08.40.604,lexical_decision_task_MP_exp2,2020.2.5,Win32,60,z,1,0.49316,,,,,,,,0.49316,1,,,,,,328,NW,"ID",33,broake,BROAKE,z,,,,,,0.28055559,-0.211111132,0,0,0,,0,169,169,267,1
,,,,,,,,,,,,,,,,,,5fa3b4abbcfd0b6c243758bc,2020-11-25_13h08.40.604,lexical_decision_task_MP_exp2,2020.2.5,Win32,60,z,1,0.356055,,,,,,,,0.356055,1,,,,,,353,NW,"ID",33,clurey,CLUREY,z,,,,,,0.28055559,-0.211111132,0,0,0,,0,170,170,292,1
,,,,,,,,,,,,,,,,,,5fa3b4abbcfd0b6c243758bc,2020-11-25_13h08.40.604,lexical_decision_task_MP_exp2,2020.2.5,Win32,60,z,0,0.41743,,,,,,,,0.41743,0,,,,,,109,WORD,"ID",33,wonder,WONDER,m,,,,,,0.28055559,-0.211111132,0,0,0,,0,171,171,48,1
,,,,,,,,,,,,,,,,,,5fa3b4abbcfd0b6c243758bc,2020-11-25_13h08.40.604,lexical_decision_task_MP_exp2,2020.2.5,Win32,60,z,1,0.33811,,,,,,,,0.33811,1,,,,,,260,NW,UN,16,stunch,UNJECT,z,,,,,,0.28055559,-0.211111132,0,0,0,,0,172,172,439,1
,,,,,,,,,,,,,,,,,,5fa3b4abbcfd0b6c243758bc,2020-11-25_13h08.40.604,lexical_decision_task_MP_exp2,2020.2.5,Win32,60,z,1,0.502605,,,,,,,,0.502605,1,,,,,,455,NW,UN,33,broget,TONDLE,z,,,,,,0.28055559,-0.211111132,0,0,0,,0,173,173,394,1
,,,,,,,,,,,,,,,,,,5fa3b4abbcfd0b6c243758bc,2020-11-25_13h08.40.604,lexical_decision_task_MP_exp2,2020.2.5,Win32,60,z,1,0.29601,,,,,,,,0.29601,1,,,,,,380,NW,"ID",16,cavory,CAVORY,z,,,,,,0.28055559,-0.211111132,0,0,0,,0,174,174,319,1
,,,,,,,,,,,,,,,,,,5fa3b4abbcfd0b6c243758bc,2020-11-25_13h08.40.604,lexical_decision_task_MP_exp2,2020.2.5,Win32,60,z,0,0.17681,,,,,,,,0.17681,0,,,,,,239,WORD,UN,33,forest,LUMBER,m,,,,,,0.28055559,-0.211111132,0,0,0,,0,175,175,178,1
,,,,,,,,,,,,,,,,,,5fa3b4abbcfd0b6c243758bc,2020-11-25_13h08.40.604,lexical_decision_task_MP_exp2,2020.2.5,Win32,60,z,1,0.235465,,,,,,,,0.235465,1,,,,,,315,NW,"ID",33,laston,LASTON,z,,,,,,0.28055559,-0.211111132,0,0,0,,0,176,176,254,1
,,,,,,,,,,,,,,,,,,5fa3b4abbcfd0b6c243758bc,2020-11-25_13h08.40.604,lexical_decision_task_MP_exp2,2020.2.5,Win32,60,z,1,0.418,,,,,,,,0.418,1,,,,,,357,NW,"ID",33,derain,DERAIN,z,,,,,,0.28055559,-0.211111132,0,0,0,,0,177,177,296,1
,,,,,,,,,,,,,,,,,,5fa3b4abbcfd0b6c243758bc,2020-11-25_13h08.40.604,lexical_decision_task_MP_exp2,2020.2.5,Win32,60,z,0,0.30714,,,,,,,,0.30714,0,,,,,,183,WORD,UN,33,sleazy,MILDEW,m,,,,,,0.28055559,-0.211111132,0,0,0,,0,178,178,122,1
,,,,,,,,,,,,,,,,,,5fa3b4abbcfd0b6c243758bc,2020-11-25_13h08.40.604,lexical_decision_task_MP_exp2,2020.2.5,Win32,60,z,1,0.42503,,,,,,,,0.42503,1,,,,,,347,NW,"ID",33,kerift,KERIFT,z,,,,,,0.28055559,-0.211111132,0,0,0,,0,179,179,286,1
,,,,,,,,,,,,,,,,,,5fa3b4abbcfd0b6c243758bc,2020-11-25_13h08.40.604,lexical_decision_task_MP_exp2,2020.2.5,Win32,60,z,0,0.35135,,,,,,,,0.35135,0,,,,,,50,WORD,UN,16,hungry,SNATCH,m,,,,,,0.28055559,-0.211111132,0,0,0,,0,180,180,229,1
,,,,,,,,,,,,,,,,,,5fa3b4abbcfd0b6c243758bc,2020-11-25_13h08.40.604,lexical_decision_task_MP_exp2,2020.2.5,Win32,60,z,0,0.450495,,,,,,,,0.450495,0,,,,,,131,WORD,"ID",16,quench,QUENCH,m,,,,,,0.28055559,-0.211111132,0,0,0,,0,181,181,70,1
,,,,,,,,,,,,,,,,,,5fa3b4abbcfd0b6c243758bc,2020-11-25_13h08.40.604,lexical_decision_task_MP_exp2,2020.2.5,Win32,60,z,0,0.370075,,,,,,,,0.370075,0,,,,,,30,WORD,UN,16,weapon,ORIENT,m,,,,,,0.28055559,-0.211111132,0,0,0,,0,182,182,209,1
,,,,,,,,,,,,,,,,,,5fa3b4abbcfd0b6c243758bc,2020-11-25_13h08.40.604,lexical_decision_task_MP_exp2,2020.2.5,Win32,60,z,1,0.34672,,,,,,,,0.34672,1,,,,,,458,NW,UN,33,hocite,BARCET,z,,,,,,0.28055559,-0.211111132,0,0,0,,0,183,183,397,1
,,,,,,,,,,,,,,,,,,5fa3b4abbcfd0b6c243758bc,2020-11-25_13h08.40.604,lexical_decision_task_MP_exp2,2020.2.5,Win32,60,z,1,0.587735,,,,,,,,0.587735,1,,,,,,406,NW,"ID",16,nouply,NOUPLY,z,,,,,,0.28055559,-0.211111132,0,0,0,,0,184,184,345,1
,,,,,,,,,,,,,,,,,,5fa3b4abbcfd0b6c243758bc,2020-11-25_13h08.40.604,lexical_decision_task_MP_exp2,2020.2.5,Win32,60,z,1,0.406095,,,,,,,,0.406095,1,,,,,,372,NW,"ID",16,ramily,RAMILY,z,,,,,,0.28055559,-0.211111132,0,0,0,,0,185,185,311,1
,,,,,,,,,,,,,,,,,,5fa3b4abbcfd0b6c243758bc,2020-11-25_13h08.40.604,lexical_decision_task_MP_exp2,2020.2.5,Win32,60,z,1,0.420975,,,,,,,,0.420975,1,,,,,,457,NW,UN,33,barcet,WANIGH,z,,,,,,0.28055559,-0.211111132,0,0,0,,0,186,186,396,1
,,,,,,,,,,,,,,,,,,5fa3b4abbcfd0b6c243758bc,2020-11-25_13h08.40.604,lexical_decision_task_MP_exp2,2020.2.5,Win32,60,z,1,0.32859,,,,,,,,0.32859,1,,,,,,416,NW,"ID",16,pathel,PATHEL,z,,,,,,0.28055559,-0.211111132,0,0,0,,0,187,187,355,1
,,,,,,,,,,,,,,,,,,5fa3b4abbcfd0b6c243758bc,2020-11-25_13h08.40.604,lexical_decision_task_MP_exp2,2020.2.5,Win32,60,z,0,0.37428,,,,,,,,0.37428,0,,,,,,158,WORD,"ID",16,island,ISLAND,m,,,,,,0.28055559,-0.211111132,0,0,0,,0,188,188,97,1
,,,,,,,,,,,,,,,,,,5fa3b4abbcfd0b6c243758bc,2020-11-25_13h08.40.604,lexical_decision_task_MP_exp2,2020.2.5,Win32,60,z,1,0.29404,,,,,,,,0.29404,1,,,,,,296,NW,UN,16,fertic,BEINCH,z,,,,,,0.28055559,-0.211111132,0,0,0,,0,189,189,475,1
,,,,,,,,,,,,,,,,,,5fa3b4abbcfd0b6c243758bc,2020-11-25_13h08.40.604,lexical_decision_task_MP_exp2,2020.2.5,Win32,60,z,0,0.29991,,,,,,,,0.29991,0,,,,,,101,WORD,"ID",33,wrench,WRENCH,m,,,,,,0.28055559,-0.211111132,0,0,0,,0,190,190,40,1
,,,,,,,,,,,,,,,,,,5fa3b4abbcfd0b6c243758bc,2020-11-25_13h08.40.604,lexical_decision_task_MP_exp2,2020.2.5,Win32,60,z,0,0.35117,,,,,,,,0.35117,0,,,,,,10,WORD,UN,16,cruise,ETHNIC,m,,,,,,0.28055559,-0.211111132,0,0,0,,0,191,191,189,1
,,,,,,,,,,,,,,,,,,5fa3b4abbcfd0b6c243758bc,2020-11-25_13h08.40.604,lexical_decision_task_MP_exp2,2020.2.5,Win32,60,z,1,0.3504,,,,,,,,0.3504,1,,,,,,476,NW,UN,33,photie,JOSTED,z,,,,,,0.28055559,-0.211111132,0,0,0,,0,192,192,415,1
,,,,,,,,,,,,,,,,,,5fa3b4abbcfd0b6c243758bc,2020-11-25_13h08.40.604,lexical_decision_task_MP_exp2,2020.2.5,Win32,60,z,1,0.32411,,,,,,,,0.32411,1,,,,,,281,NW,UN,16,porlex,MELATY,z,,,,,,0.28055559,-0.211111132,0,0,0,,0,193,193,460,1
,,,,,,,,,,,,,,,,,,5fa3b4abbcfd0b6c243758bc,2020-11-25_13h08.40.604,lexical_decision_task_MP_exp2,2020.2.5,Win32,60,z,0,0.333795,,,,,,,,0.333795,0,,,,,,38,WORD,UN,16,insect,POWDER,m,,,,,,0.28055559,-0.211111132,0,0,0,,0,194,194,217,1
,,,,,,,,,,,,,,,,,,5fa3b4abbcfd0b6c243758bc,2020-11-25_13h08.40.604,lexical_decision_task_MP_exp2,2020.2.5,Win32,60,z,1,0.416575,,,,,,,,0.416575,1,,,,,,289,NW,UN,16,splino,STARBY,z,,,,,,0.28055559,-0.211111132,0,0,0,,0,195,195,468,1
,,,,,,,,,,,,,,,,,,5fa3b4abbcfd0b6c243758bc,2020-11-25_13h08.40.604,lexical_decision_task_MP_exp2,2020.2.5,Win32,60,z,0,0.384165,,,,,,,,0.384165,0,,,,,,173,WORD,"ID",16,shower,SHOWER,m,,,,,,0.28055559,-0.211111132,0,0,0,,0,196,196,112,1
,,,,,,,,,,,,,,,,,,5fa3b4abbcfd0b6c243758bc,2020-11-25_13h08.40.604,lexical_decision_task_MP_exp2,2020.2.5,Win32,60,z,1,0.38325,,,,,,,,0.38325,1,,,,,,266,NW,UN,16,pasink,VARMIT,z,,,,,,0.28055559,-0.211111132,0,0,0,,0,197,197,445,1
,,,,,,,,,,,,,,,,,,5fa3b4abbcfd0b6c243758bc,2020-11-25_13h08.40.604,lexical_decision_task_MP_exp2,2020.2.5,Win32,60,z,0,0.38671,,,,,,,,0.38671,0,,,,,,129,WORD,"ID",16,marvel,MARVEL,m,,,,,,0.28055559,-0.211111132,0,0,0,,0,198,198,68,1
,,,,,,,,,,,,,,,,,,5fa3b4abbcfd0b6c243758bc,2020-11-25_13h08.40.604,lexical_decision_task_MP_exp2,2020.2.5,Win32,60,z,1,0.43475,,,,,,,,0.43475,1,,,,,,401,NW,"ID",16,mustil,MUSTIL,z,,,,,,0.28055559,-0.211111132,0,0,0,,0,199,199,340,1
,,,,,,,,,,,,,,,,,,5fa3b4abbcfd0b6c243758bc,2020-11-25_13h08.40.604,lexical_decision_task_MP_exp2,2020.2.5,Win32,60,z,1,0.16051,,,,,,,,0.16051,1,,,,,,273,NW,UN,16,fumblo,SORTEL,z,,,,,,0.28055559,-0.211111132,0,0,0,,0,200,200,452,1
,,,,,,,,,,,,,,,,,,5fa3b4abbcfd0b6c243758bc,2020-11-25_13h08.40.604,lexical_decision_task_MP_exp2,2020.2.5,Win32,60,z,0,0.251715,,,,,,,,0.251715,0,,,,,,127,WORD,"ID",16,castle,CASTLE,m,,,,,,0.28055559,-0.211111132,0,0,0,,0,201,201,66,1
,,,,,,,,,,,,,,,,,,5fa3b4abbcfd0b6c243758bc,2020-11-25_13h08.40.604,lexical_decision_task_MP_exp2,2020.2.5,Win32,60,z,1,0.36772,,,,,,,,0.36772,1,,,,,,339,NW,"ID",33,fachow,FACHOW,z,,,,,,0.28055559,-0.211111132,0,0,0,,0,202,202,278,1
,,,,,,,,,,,,,,,,,,5fa3b4abbcfd0b6c243758bc,2020-11-25_13h08.40.604,lexical_decision_task_MP_exp2,2020.2.5,Win32,60,z,1,0.40865,,,,,,,,0.40865,1,,,,,,426,NW,UN,33,schind,URIVEL,z,,,,,,0.28055559,-0.211111132,0,0,0,,0,203,203,365,1
,,,,,,,,,,,,,,,,,,5fa3b4abbcfd0b6c243758bc,2020-11-25_13h08.40.604,lexical_decision_task_MP_exp2,2020.2.5,Win32,60,z,0,0.500155,,,,,,,,0.500155,0,,,,,,14,WORD,UN,16,orange,ALMOST,m,,,,,,0.28055559,-0.211111132,0,0,0,,0,204,204,193,1
,,,,,,,,,,,,,,,,,,5fa3b4abbcfd0b6c243758bc,2020-11-25_13h08.40.604,lexical_decision_task_MP_exp2,2020.2.5,Win32,60,z,1,0.67261,,,,,,,,0.67261,1,,,,,,337,NW,"ID",33,rejols,REJOLS,z,,,,,,0.28055559,-0.211111132,0,0,0,,0,205,205,276,1
,,,,,,,,,,,,,,,,,,5fa3b4abbcfd0b6c243758bc,2020-11-25_13h08.40.604,lexical_decision_task_MP_exp2,2020.2.5,Win32,60,z,0,0.83586,,,,,,,,0.83586,0,,,,,,20,WORD,UN,16,simple,BREAST,m,,,,,,0.28055559,-0.211111132,0,0,0,,0,206,206,199,1
,,,,,,,,,,,,,,,,,,5fa3b4abbcfd0b6c243758bc,2020-11-25_13h08.40.604,lexical_decision_task_MP_exp2,2020.2.5,Win32,60,m,1,0.62713,,,,,,,,0.62713,1,,,,,,124,WORD,"ID",16,blouse,BLOUSE,m,,,,,,0.28055559,-0.211111132,0,0,0,,0,207,207,63,1
,,,,,,,,,,,,,,,,,,5fa3b4abbcfd0b6c243758bc,2020-11-25_13h08.40.604,lexical_decision_task_MP_exp2,2020.2.5,Win32,60,z,1,0.626485,,,,,,,,0.626485,1,,,,,,404,NW,"ID",16,cluirm,CLUIRM,z,,,,,,0.28055559,-0.211111132,0,0,0,,0,208,208,343,1
,,,,,,,,,,,,,,,,,,5fa3b4abbcfd0b6c243758bc,2020-11-25_13h08.40.604,lexical_decision_task_MP_exp2,2020.2.5,Win32,60,m,1,0.452125,,,,,,,,0.452125,1,,,,,,232,WORD,UN,33,nature,INJECT,m,,,,,,0.28055559,-0.211111132,0,0,0,,0,209,209,171,1
,,,,,,,,,,,,,,,,,,5fa3b4abbcfd0b6c243758bc,2020-11-25_13h08.40.604,lexical_decision_task_MP_exp2,2020.2.5,Win32,60,m,1,0.467585,,,,,,,,0.467585,1,,,,,,39,WORD,UN,16,convey,INSECT,m,,,,,,0.28055559,-0.211111132,0,0,0,,0,210,210,218,1
,,,,,,,,,,,,,,,,,,5fa3b4abbcfd0b6c243758bc,2020-11-25_13h08.40.604,lexical_decision_task_MP_exp2,2020.2.5,Win32,60,z,0,0.45134,,,,,,,,0.45134,0,,,,,,181,WORD,UN,33,winter,GLANCE,m,,,,,,0.28055559,-0.211111132,0,0,0,,0,211,211,120,1
,,,,,,,,,,,,,,,,,,5fa3b4abbcfd0b6c243758bc,2020-11-25_13h08.40.604,lexical_decision_task_MP_exp2,2020.2.5,Win32,60,z,0,0.67678,,,,,,,,0.67678,0,,,,,,192,WORD,UN,33,object,PLAGUE,m,,,,,,0.28055559,-0.211111132,0,0,0,,0,212,212,131,1
,,,,,,,,,,,,,,,,,,5fa3b4abbcfd0b6c243758bc,2020-11-25_13h08.40.604,lexical_decision_task_MP_exp2,2020.2.5,Win32,60,z,1,0.3578,,,,,,,,0.3578,1,,,,,,474,NW,UN,33,acrise,HABLIN,z,,,,,,0.28055559,-0.211111132,0,0,0,,0,213,213,413,1
,,,,,,,,,,,,,,,,,,5fa3b4abbcfd0b6c243758bc,2020-11-25_13h08.40.604,lexical_decision_task_MP_exp2,2020.2.5,Win32,60,z,1,0.404745,,,,,,,,0.404745,1,,,,,,292,NW,UN,16,swance,ABLINT,z,,,,,,0.28055559,-0.211111132,0,0,0,,0,214,214,471,1
,,,,,,,,,,,,,,,,,,5fa3b4abbcfd0b6c243758bc,2020-11-25_13h08.40.604,lexical_decision_task_MP_exp2,2020.2.5,Win32,60,z,1,0.660425,,,,,,,,0.660425,1,,,,,,345,NW,"ID",33,absend,ABSEND,z,,,,,,0.28055559,-0.211111132,0,0,0,,0,215,215,284,1
,,,,,,,,,,,,,,,,,,5fa3b4abbcfd0b6c243758bc,2020-11-25_13h08.40.604,lexical_decision_task_MP_exp2,2020.2.5,Win32,60,m,1,0.50075,,,,,,,,0.50075,1,,,,,,132,WORD,"ID",16,strong,STRONG,m,,,,,,0.28055559,-0.211111132,0,0,0,,0,216,216,71,1
,,,,,,,,,,,,,,,,,,5fa3b4abbcfd0b6c243758bc,2020-11-25_13h08.40.604,lexical_decision_task_MP_exp2,2020.2.5,Win32,60,m,0,0.270505,,,,,,,,0.270505,0,,,,,,302,NW,"ID",33,miluer,MILUER,z,,,,,,0.28055559,-0.211111132,0,0,0,,0,217,217,241,1
,,,,,,,,,,,,,,,,,,5fa3b4abbcfd0b6c243758bc,2020-11-25_13h08.40.604,lexical_decision_task_MP_exp2,2020.2.5,Win32,60,m,0,0.25132,,,,,,,,0.25132,0,,,,,,320,NW,"ID",33,jockal,JOCKAL,z,,,,,,0.28055559,-0.211111132,0,0,0,,0,218,218,259,1
,,,,,,,,,,,,,,,,,,5fa3b4abbcfd0b6c243758bc,2020-11-25_13h08.40.604,lexical_decision_task_MP_exp2,2020.2.5,Win32,60,m,1,0.385015,,,,,,,,0.385015,1,,,,,,57,WORD,UN,16,danger,CHANGE,m,,,,,,0.28055559,-0.211111132,0,0,0,,0,219,219,236,1
,,,,,,,,,,,,,,,,,,5fa3b4abbcfd0b6c243758bc,2020-11-25_13h08.40.604,lexical_decision_task_MP_exp2,2020.2.5,Win32,60,m,1,0.4666,,,,,,,,0.4666,1,,,,,,222,WORD,UN,33,export,HINDER,m,,,,,,0.28055559,-0.211111132,0,0,0,,0,220,220,161,1
,,,,,,,,,,,,,,,,,,5fa3b4abbcfd0b6c243758bc,2020-11-25_13h08.40.604,lexical_decision_task_MP_exp2,2020.2.5,Win32,60,m,0,0.435105,,,,,,,,0.435105,0,,,,,,442,NW,UN,33,dorsex,ABOUNE,z,,,,,,0.28055559,-0.211111132,0,0,0,,0,221,221,381,1
,,,,,,,,,,,,,,,,,,5fa3b4abbcfd0b6c243758bc,2020-11-25_13h08.40.604,lexical_decision_task_MP_exp2,2020.2.5,Win32,60,m,0,0.36212,,,,,,,,0.36212,0,,,,,,247,NW,UN,16,strole,BLARGE,z,,,,,,0.28055559,-0.211111132,0,0,0,,0,222,222,426,1
,,,,,,,,,,,,,,,,,,5fa3b4abbcfd0b6c243758bc,2020-11-25_13h08.40.604,lexical_decision_task_MP_exp2,2020.2.5,Win32,60,m,0,0.40083,,,,,,,,0.40083,0,,,,,,368,NW,"ID",16,hornal,HORNAL,z,,,,,,0.28055559,-0.211111132,0,0,0,,0,223,223,307,1
,,,,,,,,,,,,,,,,,,5fa3b4abbcfd0b6c243758bc,2020-11-25_13h08.40.604,lexical_decision_task_MP_exp2,2020.2.5,Win32,60,m,1,0.47143,,,,,,,,0.47143,1,,,,,,17,WORD,UN,16,humble,CHARGE,m,,,,,,0.28055559,-0.211111132,0,0,0,,0,224,224,196,1
,,,,,,,,,,,,,,,,,,5fa3b4abbcfd0b6c243758bc,2020-11-25_13h08.40.604,lexical_decision_task_MP_exp2,2020.2.5,Win32,60,m,1,0.35725,,,,,,,,0.35725,1,,,,,,166,WORD,"ID",16,starch,STARCH,m,,,,,,0.28055559,-0.211111132,0,0,0,,0,225,225,105,1
,,,,,,,,,,,,,,,,,,5fa3b4abbcfd0b6c243758bc,2020-11-25_13h08.40.604,lexical_decision_task_MP_exp2,2020.2.5,Win32,60,m,1,0.4291,,,,,,,,0.4291,1,,,,,,130,WORD,"ID",16,stupid,STUPID,m,,,,,,0.28055559,-0.211111132,0,0,0,,0,226,226,69,1
,,,,,,,,,,,,,,,,,,5fa3b4abbcfd0b6c243758bc,2020-11-25_13h08.40.604,lexical_decision_task_MP_exp2,2020.2.5,Win32,60,m,1,0.41073,,,,,,,,0.41073,1,,,,,,201,WORD,UN,33,factor,ADMIRE,m,,,,,,0.28055559,-0.211111132,0,0,0,,0,227,227,140,1
,,,,,,,,,,,,,,,,,,5fa3b4abbcfd0b6c243758bc,2020-11-25_13h08.40.604,lexical_decision_task_MP_exp2,2020.2.5,Win32,60,m,1,0.35861,,,,,,,,0.35861,1,,,,,,184,WORD,UN,33,bother,SLEAZY,m,,,,,,0.28055559,-0.211111132,0,0,0,,0,228,228,123,1
,,,,,,,,,,,,,,,,,,5fa3b4abbcfd0b6c243758bc,2020-11-25_13h08.40.604,lexical_decision_task_MP_exp2,2020.2.5,Win32,60,m,0,0.42323,,,,,,,,0.42323,0,,,,,,285,NW,UN,16,reldon,PRUDGE,z,,,,,,0.28055559,-0.211111132,0,0,0,,0,229,229,464,1
,,,,,,,,,,,,,,,,,,5fa3b4abbcfd0b6c243758bc,2020-11-25_13h08.40.604,lexical_decision_task_MP_exp2,2020.2.5,Win32,60,m,1,0.356295,,,,,,,,0.356295,1,,,,,,196,WORD,UN,33,stream,CREDIT,m,,,,,,0.28055559,-0.211111132,0,0,0,,0,230,230,135,1
,,,,,,,,,,,,,,,,,,5fa3b4abbcfd0b6c243758bc,2020-11-25_13h08.40.604,lexical_decision_task_MP_exp2,2020.2.5,Win32,60,m,1,0.395075,,,,,,,,0.395075,1,,,,,,137,WORD,"ID",16,finger,FINGER,m,,,,,,0.28055559,-0.211111132,0,0,0,,0,231,231,76,1
,,,,,,,,,,,,,,,,,,5fa3b4abbcfd0b6c243758bc,2020-11-25_13h08.40.604,lexical_decision_task_MP_exp2,2020.2.5,Win32,60,m,0,0.38418,,,,,,,,0.38418,0,,,,,,311,NW,"ID",33,sproly,SPROLY,z,,,,,,0.28055559,-0.211111132,0,0,0,,0,232,232,250,1
,,,,,,,,,,,,,,,,,,5fa3b4abbcfd0b6c243758bc,2020-11-25_13h08.40.604,lexical_decision_task_MP_exp2,2020.2.5,Win32,60,m,1,0.35814,,,,,,,,0.35814,1,,,,,,65,WORD,"ID",33,symbol,SYMBOL,m,,,,,,0.28055559,-0.211111132,0,0,0,,0,233,233,4,1
,,,,,,,,,,,,,,,,,,5fa3b4abbcfd0b6c243758bc,2020-11-25_13h08.40.604,lexical_decision_task_MP_exp2,2020.2.5,Win32,60,m,1,0.384065,,,,,,,,0.384065,1,,,,,,64,WORD,"ID",33,throne,THRONE,m,,,,,,0.28055559,-0.211111132,0,0,0,,0,234,234,3,1
,,,,,,,,,,,,,,,,,,5fa3b4abbcfd0b6c243758bc,2020-11-25_13h08.40.604,lexical_decision_task_MP_exp2,2020.2.5,Win32,60,m,0,0.387025,,,,,,,,0.387025,0,,,,,,396,NW,"ID",16,flengy,FLENGY,z,,,,,,0.28055559,-0.211111132,0,0,0,,0,235,235,335,1
,,,,,,,,,,,,,,,,,,5fa3b4abbcfd0b6c243758bc,2020-11-25_13h08.40.604,lexical_decision_task_MP_exp2,2020.2.5,Win32,60,m,1,0.36745,,,,,,,,0.36745,1,,,,,,177,WORD,"ID",16,advent,ADVENT,m,,,,,,0.28055559,-0.211111132,0,0,0,,0,236,236,116,1
,,,,,,,,,,,,,,,,,,5fa3b4abbcfd0b6c243758bc,2020-11-25_13h08.40.604,lexical_decision_task_MP_exp2,2020.2.5,Win32,60,m,1,0.405205,,,,,,,,0.405205,1,,,,,,53,WORD,UN,16,ramble,POLICE,m,,,,,,0.28055559,-0.211111132,0,0,0,,0,237,237,232,1
,,,,,,,,,,,,,,,,,,5fa3b4abbcfd0b6c243758bc,2020-11-25_13h08.40.604,lexical_decision_task_MP_exp2,2020.2.5,Win32,60,m,1,0.32824,,,,,,,,0.32824,1,,,,,,90,WORD,"ID",33,relish,RELISH,m,,,,,,0.28055559,-0.211111132,0,0,0,,0,238,238,29,1
,,,,,,,,,,,,,,,,,,5fa3b4abbcfd0b6c243758bc,2020-11-25_13h08.40.604,lexical_decision_task_MP_exp2,2020.2.5,Win32,60,m,1,0.388435,,,,,,,,0.388435,1,,,,,,214,WORD,UN,33,phobia,INTAKE,m,,,,,,0.28055559,-0.211111132,0,0,0,,0,239,239,153,1
,,,,,,,,,,,,,,,,,,5fa3b4abbcfd0b6c243758bc,2020-11-25_13h08.40.604,lexical_decision_task_MP_exp2,2020.2.5,Win32,60,m,0,0.367995,,,,,,,,0.367995,0,,,,,,314,NW,"ID",33,sprine,SPRINE,z,,,,,,0.28055559,-0.211111132,0,0,0,,0,240,240,253,1
,,,,,,,,,,,,,,,,,,5fa3b4abbcfd0b6c243758bc,2020-11-25_13h08.40.604,lexical_decision_task_MP_exp2,2020.2.5,Win32,60,m,1,0.4241,,,,,,,,0.4241,1,,,,,,60,WORD,UN,16,fright,PENCIL,m,,,,,,0.28055559,-0.211111132,0,0,0,,0,241,241,239,1
,,,,,,,,,,,,,,,,,,5fa3b4abbcfd0b6c243758bc,2020-11-25_13h08.40.604,lexical_decision_task_MP_exp2,2020.2.5,Win32,60,m,0,0.538605,,,,,,,,0.538605,0,,,,,,242,NW,UN,16,musied,UNWERT,z,,,,,,0.28055559,-0.211111132,0,0,0,,0,242,242,421,1
,,,,,,,,,,,,,,,,,,5fa3b4abbcfd0b6c243758bc,2020-11-25_13h08.40.604,lexical_decision_task_MP_exp2,2020.2.5,Win32,60,m,1,0.404655,,,,,,,,0.404655,1,,,,,,92,WORD,"ID",33,strand,STRAND,m,,,,,,0.28055559,-0.211111132,0,0,0,,0,243,243,31,1
,,,,,,,,,,,,,,,,,,5fa3b4abbcfd0b6c243758bc,2020-11-25_13h08.40.604,lexical_decision_task_MP_exp2,2020.2.5,Win32,60,m,1,0.32604,,,,,,,,0.32604,1,,,,,,217,WORD,UN,33,shrink,LIQUOR,m,,,,,,0.28055559,-0.211111132,0,0,0,,0,244,244,156,1
,,,,,,,,,,,,,,,,,,5fa3b4abbcfd0b6c243758bc,2020-11-25_13h08.40.604,lexical_decision_task_MP_exp2,2020.2.5,Win32,60,m,0,0.39213,,,,,,,,0.39213,0,,,,,,475,NW,UN,33,josted,PEBRIC,z,,,,,,0.28055559,-0.211111132,0,0,0,,0,245,245,414,1
,,,,,,,,,,,,,,,,,,5fa3b4abbcfd0b6c243758bc,2020-11-25_13h08.40.604,lexical_decision_task_MP_exp2,2020.2.5,Win32,60,m,1,0.433895,,,,,,,,0.433895,1,,,,,,148,WORD,"ID",16,custom,CUSTOM,m,,,,,,0.28055559,-0.211111132,0,0,0,,0,246,246,87,1
,,,,,,,,,,,,,,,,,,5fa3b4abbcfd0b6c243758bc,2020-11-25_13h08.40.604,lexical_decision_task_MP_exp2,2020.2.5,Win32,60,m,1,0.410945,,,,,,,,0.410945,1,,,,,,122,WORD,"ID",16,linger,LINGER,m,,,,,,0.28055559,-0.211111132,0,0,0,,0,247,247,61,1
,,,,,,,,,,,,,,,,,,5fa3b4abbcfd0b6c243758bc,2020-11-25_13h08.40.604,lexical_decision_task_MP_exp2,2020.2.5,Win32,60,m,1,0.418835,,,,,,,,0.418835,1,,,,,,165,WORD,"ID",16,invest,INVEST,m,,,,,,0.28055559,-0.211111132,0,0,0,,0,248,248,104,1
,,,,,,,,,,,,,,,,,,5fa3b4abbcfd0b6c243758bc,2020-11-25_13h08.40.604,lexical_decision_task_MP_exp2,2020.2.5,Win32,60,m,0,0.30001,,,,,,,,0.30001,0,,,,,,432,NW,UN,33,drance,LUNKER,z,,,,,,0.28055559,-0.211111132,0,0,0,,0,249,249,371,1
,,,,,,,,,,,,,,,,,,5fa3b4abbcfd0b6c243758bc,2020-11-25_13h08.40.604,lexical_decision_task_MP_exp2,2020.2.5,Win32,60,m,1,0.335255,,,,,,,,0.335255,1,,,,,,138,WORD,"ID",16,melody,MELODY,m,,,,,,0.28055559,-0.211111132,0,0,0,,0,250,250,77,1
,,,,,,,,,,,,,,,,,,5fa3b4abbcfd0b6c243758bc,2020-11-25_13h08.40.604,lexical_decision_task_MP_exp2,2020.2.5,Win32,60,m,1,0.56212,,,,,,,,0.56212,1,,,,,,195,WORD,UN,33,credit,RESIGN,m,,,,,,0.28055559,-0.211111132,0,0,0,,0,251,251,134,1
,,,,,,,,,,,,,,,,,,5fa3b4abbcfd0b6c243758bc,2020-11-25_13h08.40.604,lexical_decision_task_MP_exp2,2020.2.5,Win32,60,m,1,0.334265,,,,,,,,0.334265,1,,,,,,2,WORD,UN,16,knight,BRIDGE,m,,,,,,0.28055559,-0.211111132,0,0,0,,0,252,252,181,1
,,,,,,,,,,,,,,,,,,5fa3b4abbcfd0b6c243758bc,2020-11-25_13h08.40.604,lexical_decision_task_MP_exp2,2020.2.5,Win32,60,m,1,0.40075,,,,,,,,0.40075,1,,,,,,96,WORD,"ID",33,ignore,IGNORE,m,,,,,,0.28055559,-0.211111132,0,0,0,,0,253,253,35,1
,,,,,,,,,,,,,,,,,,5fa3b4abbcfd0b6c243758bc,2020-11-25_13h08.40.604,lexical_decision_task_MP_exp2,2020.2.5,Win32,60,m,0,0.35283,,,,,,,,0.35283,0,,,,,,477,NW,UN,33,lobush,PHOTIE,z,,,,,,0.28055559,-0.211111132,0,0,0,,0,254,254,416,1
,,,,,,,,,,,,,,,,,,5fa3b4abbcfd0b6c243758bc,2020-11-25_13h08.40.604,lexical_decision_task_MP_exp2,2020.2.5,Win32,60,m,1,0.38444,,,,,,,,0.38444,1,,,,,,218,WORD,UN,33,bucket,SHRINK,m,,,,,,0.28055559,-0.211111132,0,0,0,,0,255,255,157,1
,,,,,,,,,,,,,,,,,,5fa3b4abbcfd0b6c243758bc,2020-11-25_13h08.40.604,lexical_decision_task_MP_exp2,2020.2.5,Win32,60,m,0,0.27474,,,,,,,,0.27474,0,,,,,,329,NW,"ID",33,yarike,YARIKE,z,,,,,,0.28055559,-0.211111132,0,0,0,,0,256,256,268,1
,,,,,,,,,,,,,,,,,,5fa3b4abbcfd0b6c243758bc,2020-11-25_13h08.40.604,lexical_decision_task_MP_exp2,2020.2.5,Win32,60,m,1,0.305425,,,,,,,,0.305425,1,,,,,,114,WORD,"ID",33,placid,PLACID,m,,,,,,0.28055559,-0.211111132,0,0,0,,0,257,257,53,1
,,,,,,,,,,,,,,,,,,5fa3b4abbcfd0b6c243758bc,2020-11-25_13h08.40.604,lexical_decision_task_MP_exp2,2020.2.5,Win32,60,m,0,0.42969,,,,,,,,0.42969,0,,,,,,254,NW,UN,16,apight,VAROSH,z,,,,,,0.28055559,-0.211111132,0,0,0,,0,258,258,433,1
,,,,,,,,,,,,,,,,,,5fa3b4abbcfd0b6c243758bc,2020-11-25_13h08.40.604,lexical_decision_task_MP_exp2,2020.2.5,Win32,60,m,1,0.33413,,,,,,,,0.33413,1,,,,,,4,WORD,UN,16,plunge,TRENCH,m,,,,,,0.28055559,-0.211111132,0,0,0,,0,259,259,183,1
,,,,,,,,,,,,,,,,,,5fa3b4abbcfd0b6c243758bc,2020-11-25_13h08.40.604,lexical_decision_task_MP_exp2,2020.2.5,Win32,60,m,0,0.39495,,,,,,,,0.39495,0,,,,,,463,NW,UN,33,chaite,KISPEL,z,,,,,,0.28055559,-0.211111132,0,0,0,,0,260,260,402,1
,,,,,,,,,,,,,,,,,,5fa3b4abbcfd0b6c243758bc,2020-11-25_13h08.40.604,lexical_decision_task_MP_exp2,2020.2.5,Win32,60,m,0,0.3999,,,,,,,,0.3999,0,,,,,,344,NW,"ID",33,scrily,SCRILY,z,,,,,,0.28055559,-0.211111132,0,0,0,,0,261,261,283,1
,,,,,,,,,,,,,,,,,,5fa3b4abbcfd0b6c243758bc,2020-11-25_13h08.40.604,lexical_decision_task_MP_exp2,2020.2.5,Win32,60,m,0,0.43353,,,,,,,,0.43353,0,,,,,,321,NW,"ID",33,miator,MIATOR,z,,,,,,0.28055559,-0.211111132,0,0,0,,0,262,262,260,1
,,,,,,,,,,,,,,,,,,5fa3b4abbcfd0b6c243758bc,2020-11-25_13h08.40.604,lexical_decision_task_MP_exp2,2020.2.5,Win32,60,m,1,0.43921,,,,,,,,0.43921,1,,,,,,161,WORD,"ID",16,pastor,PASTOR,m,,,,,,0.28055559,-0.211111132,0,0,0,,0,263,263,100,1
,,,,,,,,,,,,,,,,,,5fa3b4abbcfd0b6c243758bc,2020-11-25_13h08.40.604,lexical_decision_task_MP_exp2,2020.2.5,Win32,60,m,0,0.49975,,,,,,,,0.49975,0,,,,,,249,NW,UN,16,milted,BATROL,z,,,,,,0.28055559,-0.211111132,0,0,0,,0,264,264,428,1
,,,,,,,,,,,,,,,,,,5fa3b4abbcfd0b6c243758bc,2020-11-25_13h08.40.604,lexical_decision_task_MP_exp2,2020.2.5,Win32,60,m,0,0.87593,,,,,,,,0.87593,0,,,,,,256,NW,UN,16,veniod,INLORS,z,,,,,,0.887963016,0.167592583,0,0,0,,0,265,265,435,1
,,,,,,,,,,,,,,,,,,5fa3b4abbcfd0b6c243758bc,2020-11-25_13h08.40.604,lexical_decision_task_MP_exp2,2020.2.5,Win32,60,m,0,0.40713,,,,,,,,0.40713,0,,,,,,261,NW,UN,16,quilew,STUNCH,z,,,,,,0.887963016,0.167592583,0,0,0,,0,266,266,440,1
,,,,,,,,,,,,,,,,,,5fa3b4abbcfd0b6c243758bc,2020-11-25_13h08.40.604,lexical_decision_task_MP_exp2,2020.2.5,Win32,60,m,1,0.486495,,,,,,,,0.486495,1,,,,,,198,WORD,UN,33,invoke,WICKED,m,,,,,,0.887963016,0.167592583,0,0,0,,0,267,267,137,1
,,,,,,,,,,,,,,,,,,5fa3b4abbcfd0b6c243758bc,2020-11-25_13h08.40.604,lexical_decision_task_MP_exp2,2020.2.5,Win32,60,m,1,0.417875,,,,,,,,0.417875,1,,,,,,190,WORD,UN,33,stable,BACKUP,m,,,,,,0.887963016,0.167592583,0,0,0,,0,268,268,129,1
,,,,,,,,,,,,,,,,,,5fa3b4abbcfd0b6c243758bc,2020-11-25_13h08.40.604,lexical_decision_task_MP_exp2,2020.2.5,Win32,60,m,1,0.337235,,,,,,,,0.337235,1,,,,,,108,WORD,"ID",33,reckon,RECKON,m,,,,,,0.887963016,0.167592583,0,0,0,,0,269,269,47,1
,,,,,,,,,,,,,,,,,,5fa3b4abbcfd0b6c243758bc,2020-11-25_13h08.40.604,lexical_decision_task_MP_exp2,2020.2.5,Win32,60,m,0,0.31128,,,,,,,,0.31128,0,,,,,,377,NW,"ID",16,injore,INJORE,z,,,,,,0.887963016,0.167592583,0,0,0,,0,270,270,316,1
,,,,,,,,,,,,,,,,,,5fa3b4abbcfd0b6c243758bc,2020-11-25_13h08.40.604,lexical_decision_task_MP_exp2,2020.2.5,Win32,60,m,0,0.32097,,,,,,,,0.32097,0,,,,,,363,NW,"ID",16,breali,BREALI,z,,,,,,0.887963016,0.167592583,0,0,0,,0,271,271,302,1
,,,,,,,,,,,,,,,,,,5fa3b4abbcfd0b6c243758bc,2020-11-25_13h08.40.604,lexical_decision_task_MP_exp2,2020.2.5,Win32,60,m,0,0.28454,,,,,,,,0.28454,0,,,,,,429,NW,UN,33,caroey,FUNTLE,z,,,,,,0.887963016,0.167592583,0,0,0,,0,272,272,368,1
,,,,,,,,,,,,,,,,,,5fa3b4abbcfd0b6c243758bc,2020-11-25_13h08.40.604,lexical_decision_task_MP_exp2,2020.2.5,Win32,60,m,1,0.319645,,,,,,,,0.319645,1,,,,,,144,WORD,"ID",16,sponge,SPONGE,m,,,,,,0.887963016,0.167592583,0,0,0,,0,273,273,83,1
,,,,,,,,,,,,,,,,,,5fa3b4abbcfd0b6c243758bc,2020-11-25_13h08.40.604,lexical_decision_task_MP_exp2,2020.2.5,Win32,60,m,0,0.27632,,,,,,,,0.27632,0,,,,,,381,NW,"ID",16,huniek,HUNIEK,z,,,,,,0.887963016,0.167592583,0,0,0,,0,274,274,320,1
,,,,,,,,,,,,,,,,,,5fa3b4abbcfd0b6c243758bc,2020-11-25_13h08.40.604,lexical_decision_task_MP_exp2,2020.2.5,Win32,60,m,0,0.293625,,,,,,,,0.293625,0,,,,,,451,NW,UN,33,surden,CAINKY,z,,,,,,0.887963016,0.167592583,0,0,0,,0,275,275,390,1
,,,,,,,,,,,,,,,,,,5fa3b4abbcfd0b6c243758bc,2020-11-25_13h08.40.604,lexical_decision_task_MP_exp2,2020.2.5,Win32,60,m,0,0.69006,,,,,,,,0.69006,0,,,,,,290,NW,UN,16,pretch,SPLINO,z,,,,,,0.887963016,0.167592583,0,0,0,,0,276,276,469,1
,,,,,,,,,,,,,,,,,,5fa3b4abbcfd0b6c243758bc,2020-11-25_13h08.40.604,lexical_decision_task_MP_exp2,2020.2.5,Win32,60,m,0,0.35763,,,,,,,,0.35763,0,,,,,,445,NW,UN,33,runamo,MINKEL,z,,,,,,0.887963016,0.167592583,0,0,0,,0,277,277,384,1
,,,,,,,,,,,,,,,,,,5fa3b4abbcfd0b6c243758bc,2020-11-25_13h08.40.604,lexical_decision_task_MP_exp2,2020.2.5,Win32,60,m,0,0.26055,,,,,,,,0.26055,0,,,,,,276,NW,UN,16,petain,YARMON,z,,,,,,0.887963016,0.167592583,0,0,0,,0,278,278,455,1
,,,,,,,,,,,,,,,,,,5fa3b4abbcfd0b6c243758bc,2020-11-25_13h08.40.604,lexical_decision_task_MP_exp2,2020.2.5,Win32,60,m,0,0.31266,,,,,,,,0.31266,0,,,,,,305,NW,"ID",33,forgle,FORGLE,z,,,,,,0.887963016,0.167592583,0,0,0,,0,279,279,244,1
,,,,,,,,,,,,,,,,,,5fa3b4abbcfd0b6c243758bc,2020-11-25_13h08.40.604,lexical_decision_task_MP_exp2,2020.2.5,Win32,60,m,0,0.34467,,,,,,,,0.34467,0,,,,,,449,NW,UN,33,phrect,BRUNGE,z,,,,,,0.887963016,0.167592583,0,0,0,,0,280,280,388,1
,,,,,,,,,,,,,,,,,,5fa3b4abbcfd0b6c243758bc,2020-11-25_13h08.40.604,lexical_decision_task_MP_exp2,2020.2.5,Win32,60,m,0,0.334585,,,,,,,,0.334585,0,,,,,,258,NW,UN,16,soudal,POLUTH,z,,,,,,0.887963016,0.167592583,0,0,0,,0,281,281,437,1
,,,,,,,,,,,,,,,,,,5fa3b4abbcfd0b6c243758bc,2020-11-25_13h08.40.604,lexical_decision_task_MP_exp2,2020.2.5,Win32,60,m,1,0.209695,,,,,,,,0.209695,1,,,,,,80,WORD,"ID",33,family,FAMILY,m,,,,,,0.887963016,0.167592583,0,0,0,,0,282,282,19,1
,,,,,,,,,,,,,,,,,,5fa3b4abbcfd0b6c243758bc,2020-11-25_13h08.40.604,lexical_decision_task_MP_exp2,2020.2.5,Win32,60,m,0,0.039805,,,,,,,,0.039805,0,,,,,,313,NW,"ID",33,paurse,PAURSE,z,,,,,,0.887963016,0.167592583,0,0,0,,0,283,283,252,1
,,,,,,,,,,,,,,,,,,5fa3b4abbcfd0b6c243758bc,2020-11-25_13h08.40.604,lexical_decision_task_MP_exp2,2020.2.5,Win32,60,m,0,0.040285,,,,,,,,0.040285,0,,,,,,332,NW,"ID",33,vangue,VANGUE,z,,,,,,0.887963016,0.167592583,0,0,0,,0,284,284,271,1
,,,,,,,,,,,,,,,,,,5fa3b4abbcfd0b6c243758bc,2020-11-25_13h08.40.604,lexical_decision_task_MP_exp2,2020.2.5,Win32,60,m,1,0.274475,,,,,,,,0.274475,1,,,,,,78,WORD,"ID",33,column,COLUMN,m,,,,,,0.887963016,0.167592583,0,0,0,,0,285,285,17,1
,,,,,,,,,,,,,,,,,,5fa3b4abbcfd0b6c243758bc,2020-11-25_13h08.40.604,lexical_decision_task_MP_exp2,2020.2.5,Win32,60,m,1,0.550185,,,,,,,,0.550185,1,,,,,,215,WORD,UN,33,lumber,PHOBIA,m,,,,,,0.887963016,0.167592583,0,0,0,,0,286,286,154,1
,,,,,,,,,,,,,,,,,,5fa3b4abbcfd0b6c243758bc,2020-11-25_13h08.40.604,lexical_decision_task_MP_exp2,2020.2.5,Win32,60,m,0,0.241605,,,,,,,,0.241605,0,,,,,,330,NW,"ID",33,kensom,KENSOM,z,,,,,,0.887963016,0.167592583,0,0,0,,0,287,287,269,1
,,,,,,,,,,,,,,,,,,5fa3b4abbcfd0b6c243758bc,2020-11-25_13h08.40.604,lexical_decision_task_MP_exp2,2020.2.5,Win32,60,m,0,0.33416,,,,,,,,0.33416,0,,,,,,299,NW,UN,16,yarion,STURCH,z,,,,,,0.887963016,0.167592583,0,0,0,,0,288,288,478,1
,,,,,,,,,,,,,,,,,,5fa3b4abbcfd0b6c243758bc,2020-11-25_13h08.40.604,lexical_decision_task_MP_exp2,2020.2.5,Win32,60,m,0,0.23887,,,,,,,,0.23887,0,,,,,,466,NW,UN,33,robuly,HOCITE,z,,,,,,0.887963016,0.167592583,0,0,0,,0,289,289,405,1
,,,,,,,,,,,,,,,,,,5fa3b4abbcfd0b6c243758bc,2020-11-25_13h08.40.604,lexical_decision_task_MP_exp2,2020.2.5,Win32,60,m,1,0.33891,,,,,,,,0.33891,1,,,,,,81,WORD,"ID",33,friend,FRIEND,m,,,,,,0.887963016,0.167592583,0,0,0,,0,290,290,20,1
,,,,,,,,,,,,,,,,,,5fa3b4abbcfd0b6c243758bc,2020-11-25_13h08.40.604,lexical_decision_task_MP_exp2,2020.2.5,Win32,60,m,0,0.234845,,,,,,,,0.234845,0,,,,,,390,NW,"ID",16,hatrus,HATRUS,z,,,,,,0.887963016,0.167592583,0,0,0,,0,291,291,329,1
,,,,,,,,,,,,,,,,,,5fa3b4abbcfd0b6c243758bc,2020-11-25_13h08.40.604,lexical_decision_task_MP_exp2,2020.2.5,Win32,60,m,1,0.274295,,,,,,,,0.274295,1,,,,,,42,WORD,UN,16,tongue,CHAPEL,m,,,,,,0.887963016,0.167592583,0,0,0,,0,292,292,221,1
,,,,,,,,,,,,,,,,,,5fa3b4abbcfd0b6c243758bc,2020-11-25_13h08.40.604,lexical_decision_task_MP_exp2,2020.2.5,Win32,60,m,0,0.24402,,,,,,,,0.24402,0,,,,,,366,NW,"ID",16,toshel,TOSHEL,z,,,,,,0.887963016,0.167592583,0,0,0,,0,293,293,305,1
,,,,,,,,,,,,,,,,,,5fa3b4abbcfd0b6c243758bc,2020-11-25_13h08.40.604,lexical_decision_task_MP_exp2,2020.2.5,Win32,60,m,0,0.24076,,,,,,,,0.24076,0,,,,,,370,NW,"ID",16,sleact,SLEACT,z,,,,,,0.887963016,0.167592583,0,0,0,,0,294,294,309,1
,,,,,,,,,,,,,,,,,,5fa3b4abbcfd0b6c243758bc,2020-11-25_13h08.40.604,lexical_decision_task_MP_exp2,2020.2.5,Win32,60,m,0,0.22362,,,,,,,,0.22362,0,,,,,,472,NW,UN,33,gorbie,CIGNEY,z,,,,,,0.887963016,0.167592583,0,0,0,,0,295,295,411,1
,,,,,,,,,,,,,,,,,,5fa3b4abbcfd0b6c243758bc,2020-11-25_13h08.40.604,lexical_decision_task_MP_exp2,2020.2.5,Win32,60,m,0,0.300815,,,,,,,,0.300815,0,,,,,,279,NW,UN,16,curbol,CELOND,z,,,,,,0.887963016,0.167592583,0,0,0,,0,296,296,458,1
,,,,,,,,,,,,,,,,,,5fa3b4abbcfd0b6c243758bc,2020-11-25_13h08.40.604,lexical_decision_task_MP_exp2,2020.2.5,Win32,60,m,1,0.33669,,,,,,,,0.33669,1,,,,,,68,WORD,"ID",33,fumble,FUMBLE,m,,,,,,0.887963016,0.167592583,0,0,0,,0,297,297,7,1
,,,,,,,,,,,,,,,,,,5fa3b4abbcfd0b6c243758bc,2020-11-25_13h08.40.604,lexical_decision_task_MP_exp2,2020.2.5,Win32,60,m,0,0.28448,,,,,,,,0.28448,0,,,,,,253,NW,UN,16,varosh,RESAIT,z,,,,,,0.887963016,0.167592583,0,0,0,,0,298,298,432,1
,,,,,,,,,,,,,,,,,,5fa3b4abbcfd0b6c243758bc,2020-11-25_13h08.40.604,lexical_decision_task_MP_exp2,2020.2.5,Win32,60,m,1,0.568915,,,,,,,,0.568915,1,,,,,,186,WORD,UN,33,course,PORTAL,m,,,,,,0.887963016,0.167592583,0,0,0,,0,299,299,125,1
,,,,,,,,,,,,,,,,,,5fa3b4abbcfd0b6c243758bc,2020-11-25_13h08.40.604,lexical_decision_task_MP_exp2,2020.2.5,Win32,60,m,0,0.33923,,,,,,,,0.33923,0,,,,,,248,NW,UN,16,batrol,STROLE,z,,,,,,0.887963016,0.167592583,0,0,0,,0,300,300,427,1
,,,,,,,,,,,,,,,,,,5fa3b4abbcfd0b6c243758bc,2020-11-25_13h08.40.604,lexical_decision_task_MP_exp2,2020.2.5,Win32,60,m,0,0.307065,,,,,,,,0.307065,0,,,,,,446,NW,UN,33,gircue,RUNAMO,z,,,,,,0.887963016,0.167592583,0,0,0,,0,301,301,385,1
,,,,,,,,,,,,,,,,,,5fa3b4abbcfd0b6c243758bc,2020-11-25_13h08.40.604,lexical_decision_task_MP_exp2,2020.2.5,Win32,60,m,1,0.451175,,,,,,,,0.451175,1,,,,,,174,WORD,"ID",16,turkey,TURKEY,m,,,,,,0.887963016,0.167592583,0,0,0,,0,302,302,113,1
,,,,,,,,,,,,,,,,,,5fa3b4abbcfd0b6c243758bc,2020-11-25_13h08.40.604,lexical_decision_task_MP_exp2,2020.2.5,Win32,60,m,1,0.36011,,,,,,,,0.36011,1,,,,,,219,WORD,UN,33,voyage,BUCKET,m,,,,,,0.887963016,0.167592583,0,0,0,,0,303,303,158,1
,,,,,,,,,,,,,,,,,,5fa3b4abbcfd0b6c243758bc,2020-11-25_13h08.40.604,lexical_decision_task_MP_exp2,2020.2.5,Win32,60,m,0,0.38568,,,,,,,,0.38568,0,,,,,,293,NW,UN,16,inhort,SWANCE,z,,,,,,0.887963016,0.167592583,0,0,0,,0,304,304,472,1
,,,,,,,,,,,,,,,,,,5fa3b4abbcfd0b6c243758bc,2020-11-25_13h08.40.604,lexical_decision_task_MP_exp2,2020.2.5,Win32,60,m,0,0.428675,,,,,,,,0.428675,0,,,,,,454,NW,UN,33,tondle,SCOUGE,z,,,,,,0.887963016,0.167592583,0,0,0,,0,305,305,393,1
,,,,,,,,,,,,,,,,,,5fa3b4abbcfd0b6c243758bc,2020-11-25_13h08.40.604,lexical_decision_task_MP_exp2,2020.2.5,Win32,60,m,1,0.383745,,,,,,,,0.383745,1,,,,,,155,WORD,"ID",16,lizard,LIZARD,m,,,,,,0.887963016,0.167592583,0,0,0,,0,306,306,94,1
,,,,,,,,,,,,,,,,,,5fa3b4abbcfd0b6c243758bc,2020-11-25_13h08.40.604,lexical_decision_task_MP_exp2,2020.2.5,Win32,60,m,0,0.244995,,,,,,,,0.244995,0,,,,,,271,NW,UN,16,damilt,AUBRID,z,,,,,,0.887963016,0.167592583,0,0,0,,0,307,307,450,1
,,,,,,,,,,,,,,,,,,5fa3b4abbcfd0b6c243758bc,2020-11-25_13h08.40.604,lexical_decision_task_MP_exp2,2020.2.5,Win32,60,m,1,0.35418,,,,,,,,0.35418,1,,,,,,113,WORD,"ID",33,chorus,CHORUS,m,,,,,,0.887963016,0.167592583,0,0,0,,0,308,308,52,1
,,,,,,,,,,,,,,,,,,5fa3b4abbcfd0b6c243758bc,2020-11-25_13h08.40.604,lexical_decision_task_MP_exp2,2020.2.5,Win32,60,m,1,0.30906,,,,,,,,0.30906,1,,,,,,36,WORD,UN,16,insult,VANISH,m,,,,,,0.887963016,0.167592583,0,0,0,,0,309,309,215,1
,,,,,,,,,,,,,,,,,,5fa3b4abbcfd0b6c243758bc,2020-11-25_13h08.40.604,lexical_decision_task_MP_exp2,2020.2.5,Win32,60,m,1,0.48411,,,,,,,,0.48411,1,,,,,,133,WORD,"ID",16,chrome,CHROME,m,,,,,,0.887963016,0.167592583,0,0,0,,0,310,310,72,1
,,,,,,,,,,,,,,,,,,5fa3b4abbcfd0b6c243758bc,2020-11-25_13h08.40.604,lexical_decision_task_MP_exp2,2020.2.5,Win32,60,m,0,0.324735,,,,,,,,0.324735,0,,,,,,391,NW,"ID",16,theldy,THELDY,z,,,,,,0.887963016,0.167592583,0,0,0,,0,311,311,330,1
,,,,,,,,,,,,,,,,,,5fa3b4abbcfd0b6c243758bc,2020-11-25_13h08.40.604,lexical_decision_task_MP_exp2,2020.2.5,Win32,60,m,0,0.34556,,,,,,,,0.34556,0,,,,,,422,NW,UN,33,streld,ALCOUD,z,,,,,,0.887963016,0.167592583,0,0,0,,0,312,312,361,1
,,,,,,,,,,,,,,,,,,5fa3b4abbcfd0b6c243758bc,2020-11-25_13h08.40.604,lexical_decision_task_MP_exp2,2020.2.5,Win32,60,m,0,0.25668,,,,,,,,0.25668,0,,,,,,418,NW,"ID",16,suidle,SUIDLE,z,,,,,,0.887963016,0.167592583,0,0,0,,0,313,313,357,1
,,,,,,,,,,,,,,,,,,5fa3b4abbcfd0b6c243758bc,2020-11-25_13h08.40.604,lexical_decision_task_MP_exp2,2020.2.5,Win32,60,m,0,0.324875,,,,,,,,0.324875,0,,,,,,379,NW,"ID",16,auting,AUTING,z,,,,,,0.887963016,0.167592583,0,0,0,,0,314,314,318,1
,,,,,,,,,,,,,,,,,,5fa3b4abbcfd0b6c243758bc,2020-11-25_13h08.40.604,lexical_decision_task_MP_exp2,2020.2.5,Win32,60,m,1,0.361625,,,,,,,,0.361625,1,,,,,,230,WORD,UN,33,mother,FRINGE,m,,,,,,0.887963016,0.167592583,0,0,0,,0,315,315,169,1
,,,,,,,,,,,,,,,,,,5fa3b4abbcfd0b6c243758bc,2020-11-25_13h08.40.604,lexical_decision_task_MP_exp2,2020.2.5,Win32,60,m,1,0.356695,,,,,,,,0.356695,1,,,,,,22,WORD,UN,16,wealth,JOCKEY,m,,,,,,0.887963016,0.167592583,0,0,0,,0,316,316,201,1
,,,,,,,,,,,,,,,,,,5fa3b4abbcfd0b6c243758bc,2020-11-25_13h08.40.604,lexical_decision_task_MP_exp2,2020.2.5,Win32,60,m,0,0.334525,,,,,,,,0.334525,0,,,,,,373,NW,"ID",16,bigent,BIGENT,z,,,,,,0.887963016,0.167592583,0,0,0,,0,317,317,312,1
,,,,,,,,,,,,,,,,,,5fa3b4abbcfd0b6c243758bc,2020-11-25_13h08.40.604,lexical_decision_task_MP_exp2,2020.2.5,Win32,60,m,1,0.33466,,,,,,,,0.33466,1,,,,,,35,WORD,UN,16,vanish,SOCKET,m,,,,,,0.887963016,0.167592583,0,0,0,,0,318,318,214,1
,,,,,,,,,,,,,,,,,,5fa3b4abbcfd0b6c243758bc,2020-11-25_13h08.40.604,lexical_decision_task_MP_exp2,2020.2.5,Win32,60,m,0,0.367505,,,,,,,,0.367505,0,,,,,,343,NW,"ID",33,aimosy,AIMOSY,z,,,,,,0.887963016,0.167592583,0,0,0,,0,319,319,282,1
,,,,,,,,,,,,,,,,,,5fa3b4abbcfd0b6c243758bc,2020-11-25_13h08.40.604,lexical_decision_task_MP_exp2,2020.2.5,Win32,60,m,1,0.39307,,,,,,,,0.39307,1,,,,,,229,WORD,UN,33,fringe,MOTHER,m,,,,,,0.887963016,0.167592583,0,0,0,,0,320,320,168,1
,,,,,,,,,,,,,,,,,,5fa3b4abbcfd0b6c243758bc,2020-11-25_13h08.40.604,lexical_decision_task_MP_exp2,2020.2.5,Win32,60,m,1,0.45814,,,,,,,,0.45814,1,,,,,,227,WORD,UN,33,master,SELDOM,m,,,,,,0.887963016,0.167592583,0,0,0,,0,321,321,166,1
,,,,,,,,,,,,,,,,,,5fa3b4abbcfd0b6c243758bc,2020-11-25_13h08.40.604,lexical_decision_task_MP_exp2,2020.2.5,Win32,60,m,1,0.357965,,,,,,,,0.357965,1,,,,,,117,WORD,"ID",33,branch,BRANCH,m,,,,,,0.887963016,0.167592583,0,0,0,,0,322,322,56,1
,,,,,,,,,,,,,,,,,,5fa3b4abbcfd0b6c243758bc,2020-11-25_13h08.40.604,lexical_decision_task_MP_exp2,2020.2.5,Win32,60,m,0,0.31748,,,,,,,,0.31748,0,,,,,,284,NW,UN,16,prudge,SHAPLE,z,,,,,,0.887963016,0.167592583,0,0,0,,0,323,323,463,1
,,,,,,,,,,,,,,,,,,5fa3b4abbcfd0b6c243758bc,2020-11-25_13h08.40.604,lexical_decision_task_MP_exp2,2020.2.5,Win32,60,m,1,0.39688,,,,,,,,0.39688,1,,,,,,180,WORD,"ID",16,silent,SILENT,m,,,,,,0.887963016,0.167592583,0,0,0,,0,324,324,119,1
,,,,,,,,,,,,,,,,,,5fa3b4abbcfd0b6c243758bc,2020-11-25_13h08.40.604,lexical_decision_task_MP_exp2,2020.2.5,Win32,60,m,0,0.401425,,,,,,,,0.401425,0,,,,,,325,NW,"ID",33,thruse,THRUSE,z,,,,,,0.887963016,0.167592583,0,0,0,,0,325,325,264,1
,,,,,,,,,,,,,,,,,,5fa3b4abbcfd0b6c243758bc,2020-11-25_13h08.40.604,lexical_decision_task_MP_exp2,2020.2.5,Win32,60,m,0,0.384395,,,,,,,,0.384395,0,,,,,,277,NW,UN,16,unighs,PETAIN,z,,,,,,0.887963016,0.167592583,0,0,0,,0,326,326,456,1
,,,,,,,,,,,,,,,,,,5fa3b4abbcfd0b6c243758bc,2020-11-25_13h08.40.604,lexical_decision_task_MP_exp2,2020.2.5,Win32,60,m,1,0.619065,,,,,,,,0.619065,1,,,,,,182,WORD,UN,33,absent,WINTER,m,,,,,,0.887963016,0.167592583,0,0,0,,0,327,327,121,1
,,,,,,,,,,,,,,,,,,5fa3b4abbcfd0b6c243758bc,2020-11-25_13h08.40.604,lexical_decision_task_MP_exp2,2020.2.5,Win32,60,m,1,0.462495,,,,,,,,0.462495,1,,,,,,15,WORD,UN,16,faucet,AMOUNT,m,,,,,,0.887963016,0.167592583,0,0,0,,0,328,328,194,1
,,,,,,,,,,,,,,,,,,5fa3b4abbcfd0b6c243758bc,2020-11-25_13h08.40.604,lexical_decision_task_MP_exp2,2020.2.5,Win32,60,m,0,0.66856,,,,,,,,0.66856,0,,,,,,301,NW,"ID",33,fainch,FAINCH,z,,,,,,0.887963016,0.167592583,0,0,0,,0,329,329,240,1
,,,,,,,,,,,,,,,,,,5fa3b4abbcfd0b6c243758bc,2020-11-25_13h08.40.604,lexical_decision_task_MP_exp2,2020.2.5,Win32,60,m,0,0.423765,,,,,,,,0.423765,0,,,,,,430,NW,UN,33,chrums,CAROEY,z,,,,,,0.887963016,0.167592583,0,0,0,,0,330,330,369,1
,,,,,,,,,,,,,,,,,,5fa3b4abbcfd0b6c243758bc,2020-11-25_13h08.40.604,lexical_decision_task_MP_exp2,2020.2.5,Win32,60,m,0,0.45137,,,,,,,,0.45137,0,,,,,,331,NW,"ID",33,gilfew,GILFEW,z,,,,,,0.887963016,0.167592583,0,0,0,,0,331,331,270,1
,,,,,,,,,,,,,,,,,,5fa3b4abbcfd0b6c243758bc,2020-11-25_13h08.40.604,lexical_decision_task_MP_exp2,2020.2.5,Win32,60,m,0,0.512905,,,,,,,,0.512905,0,,,,,,316,NW,"ID",33,scregm,SCREGM,z,,,,,,0.887963016,0.167592583,0,0,0,,0,332,332,255,1
,,,,,,,,,,,,,,,,,,5fa3b4abbcfd0b6c243758bc,2020-11-25_13h08.40.604,lexical_decision_task_MP_exp2,2020.2.5,Win32,60,m,0,0.54378,,,,,,,,0.54378,0,,,,,,450,NW,UN,33,cainky,PHRECT,z,,,,,,0.887963016,0.167592583,0,0,0,,0,333,333,389,1
,,,,,,,,,,,,,,,,,,5fa3b4abbcfd0b6c243758bc,2020-11-25_13h08.40.604,lexical_decision_task_MP_exp2,2020.2.5,Win32,60,m,0,0.48568,,,,,,,,0.48568,0,,,,,,415,NW,"ID",16,higsta,HIGSTA,z,,,,,,0.887963016,0.167592583,0,0,0,,0,334,334,354,1
,,,,,,,,,,,,,,,,,,5fa3b4abbcfd0b6c243758bc,2020-11-25_13h08.40.604,lexical_decision_task_MP_exp2,2020.2.5,Win32,60,m,0,0.576855,,,,,,,,0.576855,0,,,,,,480,NW,UN,33,knisma,ROBULY,z,,,,,,0.887963016,0.167592583,0,0,0,,0,335,335,419,1
,,,,,,,,,,,,,,,,,,5fa3b4abbcfd0b6c243758bc,2020-11-25_13h08.40.604,lexical_decision_task_MP_exp2,2020.2.5,Win32,60,m,0,0.467675,,,,,,,,0.467675,0,,,,,,440,NW,UN,33,rastoe,SARIDE,z,,,,,,0.887963016,0.167592583,0,0,0,,0,336,336,379,1
,,,,,,,,,,,,,,,,,,5fa3b4abbcfd0b6c243758bc,2020-11-25_13h08.40.604,lexical_decision_task_MP_exp2,2020.2.5,Win32,60,m,1,0.67728,,,,,,,,0.67728,1,,,,,,69,WORD,"ID",33,plenty,PLENTY,m,,,,,,0.887963016,0.167592583,0,0,0,,0,337,337,8,1
,,,,,,,,,,,,,,,,,,5fa3b4abbcfd0b6c243758bc,2020-11-25_13h08.40.604,lexical_decision_task_MP_exp2,2020.2.5,Win32,60,m,1,0.5828,,,,,,,,0.5828,1,,,,,,163,WORD,"ID",16,string,STRING,m,,,,,,0.887963016,0.167592583,0,0,0,,0,338,338,102,1
,,,,,,,,,,,,,,,,,,5fa3b4abbcfd0b6c243758bc,2020-11-25_13h08.40.604,lexical_decision_task_MP_exp2,2020.2.5,Win32,60,m,0,0.550175,,,,,,,,0.550175,0,,,,,,350,NW,"ID",33,nagurs,NAGURS,z,,,,,,0.887963016,0.167592583,0,0,0,,0,339,339,289,1
,,,,,,,,,,,,,,,,,,5fa3b4abbcfd0b6c243758bc,2020-11-25_13h08.40.604,lexical_decision_task_MP_exp2,2020.2.5,Win32,60,m,0,0.506565,,,,,,,,0.506565,0,,,,,,264,NW,UN,16,distar,VACKEL,z,,,,,,0.887963016,0.167592583,0,0,0,,0,340,340,443,1
,,,,,,,,,,,,,,,,,,5fa3b4abbcfd0b6c243758bc,2020-11-25_13h08.40.604,lexical_decision_task_MP_exp2,2020.2.5,Win32,60,m,0,0.56895,,,,,,,,0.56895,0,,,,,,478,NW,UN,33,pebric,ACRISE,z,,,,,,0.887963016,0.167592583,0,0,0,,0,341,341,417,1
,,,,,,,,,,,,,,,,,,5fa3b4abbcfd0b6c243758bc,2020-11-25_13h08.40.604,lexical_decision_task_MP_exp2,2020.2.5,Win32,60,m,1,0.651745,,,,,,,,0.651745,1,,,,,,164,WORD,"ID",16,market,MARKET,m,,,,,,0.887963016,0.167592583,0,0,0,,0,342,342,103,1
,,,,,,,,,,,,,,,,,,5fa3b4abbcfd0b6c243758bc,2020-11-25_13h08.40.604,lexical_decision_task_MP_exp2,2020.2.5,Win32,60,m,0,0.505385,,,,,,,,0.505385,0,,,,,,297,NW,UN,16,piergy,FERTIC,z,,,,,,0.887963016,0.167592583,0,0,0,,0,343,343,476,1
,,,,,,,,,,,,,,,,,,5fa3b4abbcfd0b6c243758bc,2020-11-25_13h08.40.604,lexical_decision_task_MP_exp2,2020.2.5,Win32,60,,0,,,,,,,,,0.505385,-1,,,,,,107,WORD,"ID",33,slogan,SLOGAN,m,,,,,,0.887963016,0.167592583,0,0,0,,0,344,344,46,1
,,,,,,,,,,,,,,,,,,5fa3b4abbcfd0b6c243758bc,2020-11-25_13h08.40.604,lexical_decision_task_MP_exp2,2020.2.5,Win32,60,m,1,1.03924,,,,,,,,1.03924,1,,,,,,175,WORD,"ID",16,fabric,FABRIC,m,,,,,,0.887963016,0.167592583,0,0,0,,0,345,345,114,1
,,,,,,,,,,,,,,,,,,5fa3b4abbcfd0b6c243758bc,2020-11-25_13h08.40.604,lexical_decision_task_MP_exp2,2020.2.5,Win32,60,m,1,0.68333,,,,,,,,0.68333,1,,,,,,32,WORD,UN,16,scream,BUCKLE,m,,,,,,0.887963016,0.167592583,0,0,0,,0,346,346,211,1
,,,,,,,,,,,,,,,,,,5fa3b4abbcfd0b6c243758bc,2020-11-25_13h08.40.604,lexical_decision_task_MP_exp2,2020.2.5,Win32,60,z,1,0.666695,,,,,,,,0.666695,1,,,,,,469,NW,UN,33,crudio,PADIFS,z,,,,,,0.887963016,0.167592583,0,0,0,,0,347,347,408,1
,,,,,,,,,,,,,,,,,,5fa3b4abbcfd0b6c243758bc,2020-11-25_13h08.40.604,lexical_decision_task_MP_exp2,2020.2.5,Win32,60,z,1,0.691605,,,,,,,,0.691605,1,,,,,,326,NW,"ID",33,iguade,IGUADE,z,,,,,,0.887963016,0.167592583,0,0,0,,0,348,348,265,1
,,,,,,,,,,,,,,,,,,5fa3b4abbcfd0b6c243758bc,2020-11-25_13h08.40.604,lexical_decision_task_MP_exp2,2020.2.5,Win32,60,m,1,0.53334,,,,,,,,0.53334,1,,,,,,91,WORD,"ID",33,expand,EXPAND,m,,,,,,0.887963016,0.167592583,0,0,0,,0,349,349,30,1
,,,,,,,,,,,,,,,,,,5fa3b4abbcfd0b6c243758bc,2020-11-25_13h08.40.604,lexical_decision_task_MP_exp2,2020.2.5,Win32,60,z,1,1.0857,,,,,,,,1.0857,1,,,,,,286,NW,UN,16,nymbel,RELDON,z,,,,,,0.887963016,0.167592583,0,0,0,,0,350,350,465,1
,,,,,,,,,,,,,,,,,,5fa3b4abbcfd0b6c243758bc,2020-11-25_13h08.40.604,lexical_decision_task_MP_exp2,2020.2.5,Win32,60,z,1,0.62684,,,,,,,,0.62684,1,,,,,,443,NW,UN,33,jaunce,DORSEX,z,,,,,,0.887963016,0.167592583,0,0,0,,0,351,351,382,1
,,,,,,,,,,,,,,,,,,5fa3b4abbcfd0b6c243758bc,2020-11-25_13h08.40.604,lexical_decision_task_MP_exp2,2020.2.5,Win32,60,m,1,0.46722,,,,,,,,0.46722,1,,,,,,12,WORD,UN,16,strive,ORANGE,m,,,,,,0.887963016,0.167592583,0,0,0,,0,352,352,191,1
,,,,,,,,,,,,,,,,,,5fa3b4abbcfd0b6c243758bc,2020-11-25_13h08.40.604,lexical_decision_task_MP_exp2,2020.2.5,Win32,60,m,1,0.51958,,,,,,,,0.51958,1,,,,,,194,WORD,UN,33,resign,ABSENT,m,,,,,,0.887963016,0.167592583,0,0,0,,0,353,353,133,1
,,,,,,,,,,,,,,,,,,5fa3b4abbcfd0b6c243758bc,2020-11-25_13h08.40.604,lexical_decision_task_MP_exp2,2020.2.5,Win32,60,m,1,0.538935,,,,,,,,0.538935,1,,,,,,185,WORD,UN,33,portal,BOTHER,m,,,,,,0.887963016,0.167592583,0,0,0,,0,354,354,124,1
,,,,,,,,,,,,,,,,,,5fa3b4abbcfd0b6c243758bc,2020-11-25_13h08.40.604,lexical_decision_task_MP_exp2,2020.2.5,Win32,60,m,1,0.58471,,,,,,,,0.58471,1,,,,,,99,WORD,"ID",33,fluent,FLUENT,m,,,,,,0.887963016,0.167592583,0,0,0,,0,355,355,38,1
,,,,,,,,,,,,,,,,,,5fa3b4abbcfd0b6c243758bc,2020-11-25_13h08.40.604,lexical_decision_task_MP_exp2,2020.2.5,Win32,60,m,1,0.606535,,,,,,,,0.606535,1,,,,,,205,WORD,UN,33,tailor,LOUNGE,m,,,,,,0.887963016,0.167592583,0,0,0,,0,356,356,144,1
,,,,,,,,,,,,,,,,,,5fa3b4abbcfd0b6c243758bc,2020-11-25_13h08.40.604,lexical_decision_task_MP_exp2,2020.2.5,Win32,60,m,1,0.57974,,,,,,,,0.57974,1,,,,,,187,WORD,UN,33,social,COURSE,m,,,,,,0.887963016,0.167592583,0,0,0,,0,357,357,126,1
,,,,,,,,,,,,,,,,,,5fa3b4abbcfd0b6c243758bc,2020-11-25_13h08.40.604,lexical_decision_task_MP_exp2,2020.2.5,Win32,60,z,0,0.66922,,,,,,,,0.66922,0,,,,,,145,WORD,"ID",16,parish,PARISH,m,,,,,,0.887963016,0.167592583,0,0,0,,0,358,358,84,1
,,,,,,,,,,,,,,,,,,5fa3b4abbcfd0b6c243758bc,2020-11-25_13h08.40.604,lexical_decision_task_MP_exp2,2020.2.5,Win32,60,m,1,1.000035,,,,,,,,1.000035,1,,,,,,62,WORD,"ID",33,region,REGION,m,,,,,,0.887963016,0.167592583,0,0,0,,0,359,359,1,1
,,,,,,,,,,,,,,,,,,5fa3b4abbcfd0b6c243758bc,2020-11-25_13h08.40.604,lexical_decision_task_MP_exp2,2020.2.5,Win32,60,z,1,0.60674,,,,,,,,0.60674,1,,,,,,309,NW,"ID",33,amiloy,AMILOY,z,,,,,,0.887963016,0.167592583,0,0,0,,0,360,360,248,1
,,,,,,,,,,,,,,,,,,5fa3b4abbcfd0b6c243758bc,2020-11-25_13h08.40.604,lexical_decision_task_MP_exp2,2020.2.5,Win32,60,z,1,0.626065,,,,,,,,0.626065,1,,,,,,308,NW,"ID",33,psetch,PSETCH,z,,,,,,0.887963016,0.167592583,0,0,0,,0,361,361,247,1
,,,,,,,,,,,,,,,,,,5fa3b4abbcfd0b6c243758bc,2020-11-25_13h08.40.604,lexical_decision_task_MP_exp2,2020.2.5,Win32,60,m,1,0.523065,,,,,,,,0.523065,1,,,,,,211,WORD,UN,33,verify,INFECT,m,,,,,,0.887963016,0.167592583,0,0,0,,0,362,362,150,1
,,,,,,,,,,,,,,,,,,5fa3b4abbcfd0b6c243758bc,2020-11-25_13h08.40.604,lexical_decision_task_MP_exp2,2020.2.5,Win32,60,m,1,0.58405,,,,,,,,0.58405,1,,,,,,121,WORD,"ID",16,thrive,THRIVE,m,,,,,,0.887963016,0.167592583,0,0,0,,0,363,363,60,1
,,,,,,,,,,,,,,,,,,5fa3b4abbcfd0b6c243758bc,2020-11-25_13h08.40.604,lexical_decision_task_MP_exp2,2020.2.5,Win32,60,z,1,0.60118,,,,,,,,0.60118,1,,,,,,388,NW,"ID",16,cragin,CRAGIN,z,,,,,,0.887963016,0.167592583,0,0,0,,0,364,364,327,1
,,,,,,,,,,,,,,,,,,5fa3b4abbcfd0b6c243758bc,2020-11-25_13h08.40.604,lexical_decision_task_MP_exp2,2020.2.5,Win32,60,z,1,0.58423,,,,,,,,0.58423,1,,,,,,403,NW,"ID",16,bruats,BRUATS,z,,,,,,0.887963016,0.167592583,0,0,0,,0,365,365,342,1
,,,,,,,,,,,,,,,,,,5fa3b4abbcfd0b6c243758bc,2020-11-25_13h08.40.604,lexical_decision_task_MP_exp2,2020.2.5,Win32,60,z,1,0.678505,,,,,,,,0.678505,1,,,,,,419,NW,"ID",16,slount,SLOUNT,z,,,,,,0.887963016,0.167592583,0,0,0,,0,366,366,358,1
,,,,,,,,,,,,,,,,,,5fa3b4abbcfd0b6c243758bc,2020-11-25_13h08.40.604,lexical_decision_task_MP_exp2,2020.2.5,Win32,60,m,1,0.600285,,,,,,,,0.600285,1,,,,,,223,WORD,UN,33,period,KIDNEY,m,,,,,,0.887963016,0.167592583,0,0,0,,0,367,367,162,1
,,,,,,,,,,,,,,,,,,5fa3b4abbcfd0b6c243758bc,2020-11-25_13h08.40.604,lexical_decision_task_MP_exp2,2020.2.5,Win32,60,m,1,0.53323,,,,,,,,0.53323,1,,,,,,75,WORD,"ID",33,trophy,TROPHY,m,,,,,,0.887963016,0.167592583,0,0,0,,0,368,368,14,1
,,,,,,,,,,,,,,,,,,5fa3b4abbcfd0b6c243758bc,2020-11-25_13h08.40.604,lexical_decision_task_MP_exp2,2020.2.5,Win32,60,m,1,0.52574,,,,,,,,0.52574,1,,,,,,111,WORD,"ID",33,induce,INDUCE,m,,,,,,0.887963016,0.167592583,0,0,0,,0,369,369,50,1
,,,,,,,,,,,,,,,,,,5fa3b4abbcfd0b6c243758bc,2020-11-25_13h08.40.604,lexical_decision_task_MP_exp2,2020.2.5,Win32,60,z,1,0.571505,,,,,,,,0.571505,1,,,,,,452,NW,UN,33,bolvis,SURDEN,z,,,,,,0.887963016,0.167592583,0,0,0,,0,370,370,391,1
,,,,,,,,,,,,,,,,,,5fa3b4abbcfd0b6c243758bc,2020-11-25_13h08.40.604,lexical_decision_task_MP_exp2,2020.2.5,Win32,60,m,0,0.5291,,,,,,,,0.5291,0,,,,,,295,NW,UN,16,beinch,GLEATH,z,,,,,,0.887963016,0.167592583,0,0,0,,0,371,371,474,1
,,,,,,,,,,,,,,,,,,5fa3b4abbcfd0b6c243758bc,2020-11-25_13h08.40.604,lexical_decision_task_MP_exp2,2020.2.5,Win32,60,m,1,0.53399,,,,,,,,0.53399,1,,,,,,160,WORD,"ID",16,violet,VIOLET,m,,,,,,0.887963016,0.167592583,0,0,0,,0,372,372,99,1
,,,,,,,,,,,,,,,,,,5fa3b4abbcfd0b6c243758bc,2020-11-25_13h08.40.604,lexical_decision_task_MP_exp2,2020.2.5,Win32,60,m,1,0.72284,,,,,,,,0.72284,1,,,,,,236,WORD,UN,33,grumpy,PIRATE,m,,,,,,0.887963016,0.167592583,0,0,0,,0,373,373,175,1
,,,,,,,,,,,,,,,,,,5fa3b4abbcfd0b6c243758bc,2020-11-25_13h08.40.604,lexical_decision_task_MP_exp2,2020.2.5,Win32,60,m,1,0.650825,,,,,,,,0.650825,1,,,,,,48,WORD,UN,16,survey,WALNUT,m,,,,,,0.887963016,0.167592583,0,0,0,,0,374,374,227,1
,,,,,,,,,,,,,,,,,,5fa3b4abbcfd0b6c243758bc,2020-11-25_13h08.40.604,lexical_decision_task_MP_exp2,2020.2.5,Win32,60,z,1,0.62014,,,,,,,,0.62014,1,,,,,,387,NW,"ID",16,gronce,GRONCE,z,,,,,,0.887963016,0.167592583,0,0,0,,0,375,375,326,1
,,,,,,,,,,,,,,,,,,5fa3b4abbcfd0b6c243758bc,2020-11-25_13h08.40.604,lexical_decision_task_MP_exp2,2020.2.5,Win32,60,z,1,0.720235,,,,,,,,0.720235,1,,,,,,335,NW,"ID",33,desion,DESION,z,,,,,,0.887963016,0.167592583,0,0,0,,0,376,376,274,1
,,,,,,,,,,,,,,,,,,5fa3b4abbcfd0b6c243758bc,2020-11-25_13h08.40.604,lexical_decision_task_MP_exp2,2020.2.5,Win32,60,z,0,0.576155,,,,,,,,0.576155,0,,,,,,216,WORD,UN,33,liquor,BEHALF,m,,,,,,0.887963016,0.167592583,0,0,0,,0,377,377,155,1
,,,,,,,,,,,,,,,,,,5fa3b4abbcfd0b6c243758bc,2020-11-25_13h08.40.604,lexical_decision_task_MP_exp2,2020.2.5,Win32,60,,0,,,,,,,,,0.576155,-1,,,,,,141,WORD,"ID",16,orphan,ORPHAN,m,,,,,,0.887963016,0.167592583,0,0,0,,0,378,378,80,1
,,,,,,,,,,,,,,,,,,5fa3b4abbcfd0b6c243758bc,2020-11-25_13h08.40.604,lexical_decision_task_MP_exp2,2020.2.5,Win32,60,,0,,,,,,,,,0.576155,-1,,,,,,74,WORD,"ID",33,plaque,PLAQUE,m,,,,,,0.887963016,0.167592583,0,0,0,,0,379,379,13,1
,,,,,,,,,,,,,,,,,,5fa3b4abbcfd0b6c243758bc,2020-11-25_13h08.40.604,lexical_decision_task_MP_exp2,2020.2.5,Win32,60,z,1,0.75089,,,,,,,,0.75089,1,,,,,,340,NW,"ID",33,fiatch,FIATCH,z,,,,,,0.887963016,0.167592583,0,0,0,,0,380,380,279,1
,,,,,,,,,,,,,,,,,,5fa3b4abbcfd0b6c243758bc,2020-11-25_13h08.40.604,lexical_decision_task_MP_exp2,2020.2.5,Win32,60,,0,,,,,,,,,0.75089,-1,,,,,,70,WORD,"ID",33,square,SQUARE,m,,,,,,0.887963016,0.167592583,0,0,0,,0,381,381,9,1
,,,,,,,,,,,,,,,,,,5fa3b4abbcfd0b6c243758bc,2020-11-25_13h08.40.604,lexical_decision_task_MP_exp2,2020.2.5,Win32,60,,0,,,,,,,,,0.75089,-1,,,,,,246,NW,UN,16,blarge,PIATON,z,,,,,,0.887963016,0.167592583,0,0,0,,0,382,382,425,1
,,,,,,,,,,,,,,,,,,5fa3b4abbcfd0b6c243758bc,2020-11-25_13h08.40.604,lexical_decision_task_MP_exp2,2020.2.5,Win32,60,z,1,1.333405,,,,,,,,1.333405,1,,,,,,275,NW,UN,16,yarmon,SLEIRT,z,,,,,,0.887963016,0.167592583,0,0,0,,0,383,383,454,1
,,,,,,,,,,,,,,,,,,5fa3b4abbcfd0b6c243758bc,2020-11-25_13h08.40.604,lexical_decision_task_MP_exp2,2020.2.5,Win32,60,z,1,0.733805,,,,,,,,0.733805,1,,,,,,395,NW,"ID",16,colury,COLURY,z,,,,,,0.887963016,0.167592583,0,0,0,,0,384,384,334,1
,,,,,,,,,,,,,,,,,,5fa3b4abbcfd0b6c243758bc,2020-11-25_13h08.40.604,lexical_decision_task_MP_exp2,2020.2.5,Win32,60,m,1,0.76807,,,,,,,,0.76807,1,,,,,,120,WORD,"ID",33,strain,STRAIN,m,,,,,,0.887963016,0.167592583,0,0,0,,0,385,385,59,1
,,,,,,,,,,,,,,,,,,5fa3b4abbcfd0b6c243758bc,2020-11-25_13h08.40.604,lexical_decision_task_MP_exp2,2020.2.5,Win32,60,z,1,0.641245,,,,,,,,0.641245,1,,,,,,317,NW,"ID",33,worbal,WORBAL,z,,,,,,0.887963016,0.167592583,0,0,0,,0,386,386,256,1
,,,,,,,,,,,,,,,,,,5fa3b4abbcfd0b6c243758bc,2020-11-25_13h08.40.604,lexical_decision_task_MP_exp2,2020.2.5,Win32,60,m,1,0.53289,,,,,,,,0.53289,1,,,,,,209,WORD,UN,33,monkey,SEARCH,m,,,,,,0.887963016,0.167592583,0,0,0,,0,387,387,148,1
,,,,,,,,,,,,,,,,,,5fa3b4abbcfd0b6c243758bc,2020-11-25_13h08.40.604,lexical_decision_task_MP_exp2,2020.2.5,Win32,60,m,1,0.500815,,,,,,,,0.500815,1,,,,,,79,WORD,"ID",33,theory,THEORY,m,,,,,,0.887963016,0.167592583,0,0,0,,0,388,388,18,1
,,,,,,,,,,,,,,,,,,5fa3b4abbcfd0b6c243758bc,2020-11-25_13h08.40.604,lexical_decision_task_MP_exp2,2020.2.5,Win32,60,z,1,0.578705,,,,,,,,0.578705,1,,,,,,269,NW,UN,16,wrimsy,ORCHET,z,,,,,,0.887963016,0.167592583,0,0,0,,0,389,389,448,1
,,,,,,,,,,,,,,,,,,5fa3b4abbcfd0b6c243758bc,2020-11-25_13h08.40.604,lexical_decision_task_MP_exp2,2020.2.5,Win32,60,z,1,0.599705,,,,,,,,0.599705,1,,,,,,352,NW,"ID",33,tringe,TRINGE,z,,,,,,0.887963016,0.167592583,0,0,0,,0,390,390,291,1
,,,,,,,,,,,,,,,,,,5fa3b4abbcfd0b6c243758bc,2020-11-25_13h08.40.604,lexical_decision_task_MP_exp2,2020.2.5,Win32,60,z,1,0.629815,,,,,,,,0.629815,1,,,,,,282,NW,UN,16,veralf,PORLEX,z,,,,,,0.887963016,0.167592583,0,0,0,,0,391,391,461,1
,,,,,,,,,,,,,,,,,,5fa3b4abbcfd0b6c243758bc,2020-11-25_13h08.40.604,lexical_decision_task_MP_exp2,2020.2.5,Win32,60,z,1,0.56918,,,,,,,,0.56918,1,,,,,,444,NW,UN,33,minkel,JAUNCE,z,,,,,,0.887963016,0.167592583,0,0,0,,0,392,392,383,1
,,,,,,,,,,,,,,,,,,5fa3b4abbcfd0b6c243758bc,2020-11-25_13h08.40.604,lexical_decision_task_MP_exp2,2020.2.5,Win32,60,z,1,0.549165,,,,,,,,0.549165,1,,,,,,323,NW,"ID",33,rosail,ROSAIL,z,,,,,,0.887963016,0.167592583,0,0,0,,0,393,393,262,1
,,,,,,,,,,,,,,,,,,5fa3b4abbcfd0b6c243758bc,2020-11-25_13h08.40.604,lexical_decision_task_MP_exp2,2020.2.5,Win32,60,m,1,0.560855,,,,,,,,0.560855,1,,,,,,193,WORD,UN,33,mildew,OBJECT,m,,,,,,0.887963016,0.167592583,0,0,0,,0,394,394,132,1
,,,,,,,,,,,,,,,,,,5fa3b4abbcfd0b6c243758bc,2020-11-25_13h08.40.604,lexical_decision_task_MP_exp2,2020.2.5,Win32,60,z,1,0.73429,,,,,,,,0.73429,1,,,,,,431,NW,UN,33,lunker,CHRUMS,z,,,,,,0.887963016,0.167592583,0,0,0,,0,395,395,370,1
,,,,,,,,,,,,,,,,,,5fa3b4abbcfd0b6c243758bc,2020-11-25_13h08.40.604,lexical_decision_task_MP_exp2,2020.2.5,Win32,60,z,1,0.57052,,,,,,,,0.57052,1,,,,,,244,NW,UN,16,anougs,EATRIC,z,,,,,,0.887963016,0.167592583,0,0,0,,0,396,396,423,1
,,,,,,,,,,,,,,,,,,5fa3b4abbcfd0b6c243758bc,2020-11-25_13h08.40.604,lexical_decision_task_MP_exp2,2020.2.5,Win32,60,m,1,0.53881,,,,,,,,0.53881,1,,,,,,112,WORD,"ID",33,breath,BREATH,m,,,,,,0.887963016,0.167592583,0,0,0,,0,397,397,51,1
,,,,,,,,,,,,,,,,,,5fa3b4abbcfd0b6c243758bc,2020-11-25_13h08.40.604,lexical_decision_task_MP_exp2,2020.2.5,Win32,60,z,1,0.617725,,,,,,,,0.617725,1,,,,,,441,NW,UN,33,aboune,RASTOE,z,,,,,,0.887963016,0.167592583,0,0,0,,0,398,398,380,1
,,,,,,,,,,,,,,,,,,5fa3b4abbcfd0b6c243758bc,2020-11-25_13h08.40.604,lexical_decision_task_MP_exp2,2020.2.5,Win32,60,z,1,0.58854,,,,,,,,0.58854,1,,,,,,310,NW,"ID",33,daniet,DANIET,z,,,,,,0.887963016,0.167592583,0,0,0,,0,399,399,249,1
