counterbalancing_condition,instr_done_keyboard.keys,instr_done_keyboard.rt,instr_done_touch.x,instr_done_touch.y,instr_done_touch.leftButton,instr_done_touch.midButton,instr_done_touch.rightButton,instruction_pages.thisRepN,instruction_pages.thisTrialN,instruction_pages.thisN,instruction_pages.thisIndex,instruction_pages.ran,pageN,phase,instruct_text,has_image,instruct_image,participant,date,expName,psychopyVersion,OS,frameRate,response.keys,response.corr,touch_resp.x,touch_resp.y,touch_resp.leftButton,touch_resp.midButton,touch_resp.rightButton,touch_resp.time,touch_resp.clicked_name,rt,corr,practice_trials.thisRepN,practice_trials.thisTrialN,practice_trials.thisN,practice_trials.thisIndex,practice_trials.ran,TrialID,StimulusType,Condition,PrimeDuration,Prime,Target,corrAns,response.rt,end_of_practice_trials_pages.thisRepN,end_of_practice_trials_pages.thisTrialN,end_of_practice_trials_pages.thisN,end_of_practice_trials_pages.thisIndex,end_of_practice_trials_pages.ran,break_done_touch.x,break_done_touch.y,break_done_touch.leftButton,break_done_touch.midButton,break_done_touch.rightButton,break_done_keyboard.keys,experiment_trials.thisRepN,experiment_trials.thisTrialN,experiment_trials.thisN,experiment_trials.thisIndex,experiment_trials.ran,break_done_keyboard.rt
0,space,20.758635,0.738888889,-0.428703704,0,0,0,0,0,0,0,1,1,instructions,"INSTRUCTIONS
At the start of each trial, look at the hash marks (######) in the center of the screen. After a moment, a string of letters will appear. Your task is to indicate if the letter string forms a word or not (i.e., if it is a nonword). For example, AUTHOR is a word while AUTHON is a nonword.

Press the space bar or touch the button below to continue.",0,,5fb3a3c38a7d5903b43c1949,2020-12-03_08h22.00.443,lexical_decision_task_MP_exp2,2020.2.8,Win32,60,,,,,,,,,,,,,,,,,,,,,,,,,,,,,,,,,,,,,,,,,
,space,17.72516,0.887962963,-0.480555556,0,0,0,0,1,1,1,1,2,instructions,"If your device has a keyboard, press the 'Z' key for nonwords and the 'M' key for words.





Press the space bar or touch the button below to continue.",1,keyboard-example.gif,5fb3a3c38a7d5903b43c1949,2020-12-03_08h22.00.443,lexical_decision_task_MP_exp2,2020.2.8,Win32,60,,,,,,,,,,,,,,,,,,,,,,,,,,,,,,,,,,,,,,,,,
,space,3.214745,0.887962963,-0.480555556,0,0,0,0,2,2,2,1,3,instructions,"If you are using a touchscreen only device, use the buttons on the screen. Do not use the mouse.





Press the space bar or touch the button below to continue.",1,touchscreen-example.gif,5fb3a3c38a7d5903b43c1949,2020-12-03_08h22.00.443,lexical_decision_task_MP_exp2,2020.2.8,Win32,60,,,,,,,,,,,,,,,,,,,,,,,,,,,,,,,,,,,,,,,,,
,space,2.35052,0.887962963,-0.480555556,0,0,0,0,3,3,3,1,4,instructions,"It is very important that you respond as quickly and accurately as possible, as each letter string will only be on the screen for two seconds. If you do not respond within this time, the message 'Too slow!' will be displayed and the experiment will progress to the next letter string. The first 20 trials will be practice trials and you will receive feedback on your answers. 

Press the space bar or touch the button below to start the practice trials.",0,,5fb3a3c38a7d5903b43c1949,2020-12-03_08h22.00.443,lexical_decision_task_MP_exp2,2020.2.8,Win32,60,,,,,,,,,,,,,,,,,,,,,,,,,,,,,,,,,,,,,,,,,
,,,,,,,,,,,,,,,,,,5fb3a3c38a7d5903b43c1949,2020-12-03_08h22.00.443,lexical_decision_task_MP_exp2,2020.2.8,Win32,60,,0,,,,,,,,,-1,0,0,0,6,1,1007,WORD,UN,16,tropic,ZOMBIE,m,,,,,,,,,,,,,,,,,,
,,,,,,,,,,,,,,,,,,5fb3a3c38a7d5903b43c1949,2020-12-03_08h22.00.443,lexical_decision_task_MP_exp2,2020.2.8,Win32,60,z,1,,,,,,,,1.383595,1,0,1,1,12,1,1013,NW,UN,33,adveil,SPRINY,z,1.383595,,,,,,,,,,,,,,,,,
,,,,,,,,,,,,,,,,,,5fb3a3c38a7d5903b43c1949,2020-12-03_08h22.00.443,lexical_decision_task_MP_exp2,2020.2.8,Win32,60,m,0,,,,,,,,1.315405,0,0,2,2,9,1,1010,NW,"ID",33,fariny,FARINY,z,1.315405,,,,,,,,,,,,,,,,,
,,,,,,,,,,,,,,,,,,5fb3a3c38a7d5903b43c1949,2020-12-03_08h22.00.443,lexical_decision_task_MP_exp2,2020.2.8,Win32,60,m,1,,,,,,,,1.67654,1,0,3,3,7,1,1008,WORD,UN,16,hurdle,VOLUME,m,1.67654,,,,,,,,,,,,,,,,,
,,,,,,,,,,,,,,,,,,5fb3a3c38a7d5903b43c1949,2020-12-03_08h22.00.443,lexical_decision_task_MP_exp2,2020.2.8,Win32,60,m,1,,,,,,,,0.893675,1,0,4,4,4,1,1005,WORD,UN,33,abound,SQUEAK,m,0.893675,,,,,,,,,,,,,,,,,
,,,,,,,,,,,,,,,,,,5fb3a3c38a7d5903b43c1949,2020-12-03_08h22.00.443,lexical_decision_task_MP_exp2,2020.2.8,Win32,60,z,1,,,,,,,,1.051685,1,0,5,5,15,1,1016,NW,UN,16,mushed,WHAISE,z,1.051685,,,,,,,,,,,,,,,,,
,,,,,,,,,,,,,,,,,,5fb3a3c38a7d5903b43c1949,2020-12-03_08h22.00.443,lexical_decision_task_MP_exp2,2020.2.8,Win32,60,z,1,,,,,,,,1.02102,1,0,6,6,14,1,1015,NW,UN,16,miaber,THRALE,z,1.02102,,,,,,,,,,,,,,,,,
,,,,,,,,,,,,,,,,,,5fb3a3c38a7d5903b43c1949,2020-12-03_08h22.00.443,lexical_decision_task_MP_exp2,2020.2.8,Win32,60,m,1,,,,,,,,0.90103,1,0,7,7,2,1,1003,WORD,"ID",16,almond,ALMOND,m,0.90103,,,,,,,,,,,,,,,,,
,,,,,,,,,,,,,,,,,,5fb3a3c38a7d5903b43c1949,2020-12-03_08h22.00.443,lexical_decision_task_MP_exp2,2020.2.8,Win32,60,z,1,,,,,,,,0.96226,1,0,8,8,8,1,1009,NW,"ID",33,aslert,ASLERT,z,0.96226,,,,,,,,,,,,,,,,,
,,,,,,,,,,,,,,,,,,5fb3a3c38a7d5903b43c1949,2020-12-03_08h22.00.443,lexical_decision_task_MP_exp2,2020.2.8,Win32,60,m,1,,,,,,,,1.3277,1,0,9,9,3,1,1004,WORD,"ID",16,matrix,MATRIX,m,1.3277,,,,,,,,,,,,,,,,,
,,,,,,,,,,,,,,,,,,5fb3a3c38a7d5903b43c1949,2020-12-03_08h22.00.443,lexical_decision_task_MP_exp2,2020.2.8,Win32,60,z,1,,,,,,,,0.798975,1,0,10,10,13,1,1014,NW,UN,33,winfer,ROUPET,z,0.798975,,,,,,,,,,,,,,,,,
,,,,,,,,,,,,,,,,,,5fb3a3c38a7d5903b43c1949,2020-12-03_08h22.00.443,lexical_decision_task_MP_exp2,2020.2.8,Win32,60,m,1,,,,,,,,0.98571,1,0,11,11,1,1,1002,WORD,"ID",33,adjust,ADJUST,m,0.98571,,,,,,,,,,,,,,,,,
,,,,,,,,,,,,,,,,,,5fb3a3c38a7d5903b43c1949,2020-12-03_08h22.00.443,lexical_decision_task_MP_exp2,2020.2.8,Win32,60,m,1,,,,,,,,0.801035,1,0,12,12,0,1,1001,WORD,"ID",33,utopia,UTOPIA,m,0.801035,,,,,,,,,,,,,,,,,
,,,,,,,,,,,,,,,,,,5fb3a3c38a7d5903b43c1949,2020-12-03_08h22.00.443,lexical_decision_task_MP_exp2,2020.2.8,Win32,60,z,1,,,,,,,,0.82093,1,0,13,13,10,1,1011,NW,"ID",16,inlade,INLADE,z,0.82093,,,,,,,,,,,,,,,,,
,,,,,,,,,,,,,,,,,,5fb3a3c38a7d5903b43c1949,2020-12-03_08h22.00.443,lexical_decision_task_MP_exp2,2020.2.8,Win32,60,m,1,,,,,,,,0.906615,1,0,14,14,5,1,1006,WORD,UN,33,frenzy,OBTAIN,m,0.906615,,,,,,,,,,,,,,,,,
,,,,,,,,,,,,,,,,,,5fb3a3c38a7d5903b43c1949,2020-12-03_08h22.00.443,lexical_decision_task_MP_exp2,2020.2.8,Win32,60,z,1,,,,,,,,1.61502,1,0,15,15,11,1,1012,NW,"ID",16,rashet,RASHET,z,1.61502,,,,,,,,,,,,,,,,,
,space,6.17574,0.75462963,-0.37962963,0,0,0,,,,,,1,end_of_practice,"You have completed the practice trials. During the experimental trials, you will not receive feedback, but it is very important that you respond as quickly and accurately as possible. 
Before you begin, please ensure that you are in a comfortable and quiet location and will not be disturbed for about 15 minutes, as we cannot use your data if you do not complete all the trials. 
There will be opportunities to take breaks at regular intervals during the experiment. When you are ready to start the experimental trials, please press space or touch the button below.",,,5fb3a3c38a7d5903b43c1949,2020-12-03_08h22.00.443,lexical_decision_task_MP_exp2,2020.2.8,Win32,60,,,,,,,,,,,,,,,,,,,,,,,,,0,0,0,0,1,,,,,,,,,,,,
,,,,,,,,,,,,,,,,,,5fb3a3c38a7d5903b43c1949,2020-12-03_08h22.00.443,lexical_decision_task_MP_exp2,2020.2.8,Win32,60,z,1,,,,,,,,1.00316,1,,,,,,472,NW,"ID",33,cigney,CIGNEY,z,1.00316,,,,,,0.75462963,-0.378703704,0,0,0,,0,0,0,291,1,
,,,,,,,,,,,,,,,,,,5fb3a3c38a7d5903b43c1949,2020-12-03_08h22.00.443,lexical_decision_task_MP_exp2,2020.2.8,Win32,60,z,1,,,,,,,,0.72492,1,,,,,,360,NW,UN,33,fainch,DESORY,z,0.72492,,,,,,0.75462963,-0.378703704,0,0,0,,0,1,1,419,1,
,,,,,,,,,,,,,,,,,,5fb3a3c38a7d5903b43c1949,2020-12-03_08h22.00.443,lexical_decision_task_MP_exp2,2020.2.8,Win32,60,z,1,,,,,,,,0.649555,1,,,,,,294,NW,"ID",16,inhort,INHORT,z,0.649555,,,,,,0.75462963,-0.378703704,0,0,0,,0,2,2,353,1,
,,,,,,,,,,,,,,,,,,5fb3a3c38a7d5903b43c1949,2020-12-03_08h22.00.443,lexical_decision_task_MP_exp2,2020.2.8,Win32,60,z,1,,,,,,,,0.93635,1,,,,,,332,NW,UN,33,catrie,VANGUE,z,0.93635,,,,,,0.75462963,-0.378703704,0,0,0,,0,3,3,391,1,
,,,,,,,,,,,,,,,,,,5fb3a3c38a7d5903b43c1949,2020-12-03_08h22.00.443,lexical_decision_task_MP_exp2,2020.2.8,Win32,60,m,1,,,,,,,,0.783895,1,,,,,,58,WORD,"ID",16,foster,FOSTER,m,0.783895,,,,,,0.75462963,-0.378703704,0,0,0,,0,4,4,117,1,
,,,,,,,,,,,,,,,,,,5fb3a3c38a7d5903b43c1949,2020-12-03_08h22.00.443,lexical_decision_task_MP_exp2,2020.2.8,Win32,60,z,1,,,,,,,,0.674375,1,,,,,,300,NW,"ID",16,yarion,YARION,z,0.674375,,,,,,0.75462963,-0.378703704,0,0,0,,0,5,5,359,1,
,,,,,,,,,,,,,,,,,,5fb3a3c38a7d5903b43c1949,2020-12-03_08h22.00.443,lexical_decision_task_MP_exp2,2020.2.8,Win32,60,m,1,,,,,,,,0.836955,1,,,,,,147,WORD,UN,16,custom,GARLIC,m,0.836955,,,,,,0.75462963,-0.378703704,0,0,0,,0,6,6,206,1,
,,,,,,,,,,,,,,,,,,5fb3a3c38a7d5903b43c1949,2020-12-03_08h22.00.443,lexical_decision_task_MP_exp2,2020.2.8,Win32,60,z,1,,,,,,,,0.596995,1,,,,,,480,NW,"ID",33,robuly,ROBULY,z,0.596995,,,,,,0.75462963,-0.378703704,0,0,0,,0,7,7,299,1,
,,,,,,,,,,,,,,,,,,5fb3a3c38a7d5903b43c1949,2020-12-03_08h22.00.443,lexical_decision_task_MP_exp2,2020.2.8,Win32,60,z,1,,,,,,,,1.099635,1,,,,,,251,NW,"ID",16,lupict,LUPICT,z,1.099635,,,,,,0.75462963,-0.378703704,0,0,0,,0,8,8,310,1,
,,,,,,,,,,,,,,,,,,5fb3a3c38a7d5903b43c1949,2020-12-03_08h22.00.443,lexical_decision_task_MP_exp2,2020.2.8,Win32,60,m,1,,,,,,,,0.735915,1,,,,,,120,WORD,UN,33,ponder,STRAIN,m,0.735915,,,,,,0.75462963,-0.378703704,0,0,0,,0,9,9,179,1,
,,,,,,,,,,,,,,,,,,5fb3a3c38a7d5903b43c1949,2020-12-03_08h22.00.443,lexical_decision_task_MP_exp2,2020.2.8,Win32,60,m,1,,,,,,,,0.985055,1,,,,,,212,WORD,"ID",33,verify,VERIFY,m,0.985055,,,,,,0.75462963,-0.378703704,0,0,0,,0,10,10,31,1,
,,,,,,,,,,,,,,,,,,5fb3a3c38a7d5903b43c1949,2020-12-03_08h22.00.443,lexical_decision_task_MP_exp2,2020.2.8,Win32,60,m,1,,,,,,,,0.77646,1,,,,,,128,WORD,UN,16,marvel,SENIOR,m,0.77646,,,,,,0.75462963,-0.378703704,0,0,0,,0,11,11,187,1,
,,,,,,,,,,,,,,,,,,5fb3a3c38a7d5903b43c1949,2020-12-03_08h22.00.443,lexical_decision_task_MP_exp2,2020.2.8,Win32,60,z,1,,,,,,,,0.65515,1,,,,,,394,NW,UN,16,colury,SPAQUX,z,0.65515,,,,,,0.75462963,-0.378703704,0,0,0,,0,12,12,453,1,
,,,,,,,,,,,,,,,,,,5fb3a3c38a7d5903b43c1949,2020-12-03_08h22.00.443,lexical_decision_task_MP_exp2,2020.2.8,Win32,60,m,1,,,,,,,,0.738285,1,,,,,,145,WORD,UN,16,couple,PARISH,m,0.738285,,,,,,0.75462963,-0.378703704,0,0,0,,0,13,13,204,1,
,,,,,,,,,,,,,,,,,,5fb3a3c38a7d5903b43c1949,2020-12-03_08h22.00.443,lexical_decision_task_MP_exp2,2020.2.8,Win32,60,m,1,,,,,,,,0.718735,1,,,,,,75,WORD,UN,33,exotic,TROPHY,m,0.718735,,,,,,0.75462963,-0.378703704,0,0,0,,0,14,14,134,1,
,,,,,,,,,,,,,,,,,,5fb3a3c38a7d5903b43c1949,2020-12-03_08h22.00.443,lexical_decision_task_MP_exp2,2020.2.8,Win32,60,m,1,,,,,,,,0.608365,1,,,,,,38,WORD,"ID",16,powder,POWDER,m,0.608365,,,,,,0.75462963,-0.378703704,0,0,0,,0,15,15,97,1,
,,,,,,,,,,,,,,,,,,5fb3a3c38a7d5903b43c1949,2020-12-03_08h22.00.443,lexical_decision_task_MP_exp2,2020.2.8,Win32,60,z,1,,,,,,,,0.643485,1,,,,,,339,NW,UN,33,fiatch,FACHOW,z,0.643485,,,,,,0.75462963,-0.378703704,0,0,0,,0,16,16,398,1,
,,,,,,,,,,,,,,,,,,5fb3a3c38a7d5903b43c1949,2020-12-03_08h22.00.443,lexical_decision_task_MP_exp2,2020.2.8,Win32,60,m,0,,,,,,,,0.880115,0,,,,,,252,NW,"ID",16,stapod,STAPOD,z,0.880115,,,,,,0.75462963,-0.378703704,0,0,0,,0,17,17,311,1,
,,,,,,,,,,,,,,,,,,5fb3a3c38a7d5903b43c1949,2020-12-03_08h22.00.443,lexical_decision_task_MP_exp2,2020.2.8,Win32,60,m,1,,,,,,,,1.10743,1,,,,,,51,WORD,"ID",16,hungry,HUNGRY,m,1.10743,,,,,,0.75462963,-0.378703704,0,0,0,,0,18,18,110,1,
,,,,,,,,,,,,,,,,,,5fb3a3c38a7d5903b43c1949,2020-12-03_08h22.00.443,lexical_decision_task_MP_exp2,2020.2.8,Win32,60,z,1,,,,,,,,1.18181,1,,,,,,424,NW,"ID",33,praile,PRAILE,z,1.18181,,,,,,0.75462963,-0.378703704,0,0,0,,0,19,19,243,1,
,,,,,,,,,,,,,,,,,,5fb3a3c38a7d5903b43c1949,2020-12-03_08h22.00.443,lexical_decision_task_MP_exp2,2020.2.8,Win32,60,z,1,,,,,,,,0.9151,1,,,,,,399,NW,UN,16,wearox,FOURET,z,0.9151,,,,,,0.75462963,-0.378703704,0,0,0,,0,20,20,458,1,
,,,,,,,,,,,,,,,,,,5fb3a3c38a7d5903b43c1949,2020-12-03_08h22.00.443,lexical_decision_task_MP_exp2,2020.2.8,Win32,60,z,1,,,,,,,,0.84074,1,,,,,,285,NW,"ID",16,prudge,PRUDGE,z,0.84074,,,,,,0.75462963,-0.378703704,0,0,0,,0,21,21,344,1,
,,,,,,,,,,,,,,,,,,5fb3a3c38a7d5903b43c1949,2020-12-03_08h22.00.443,lexical_decision_task_MP_exp2,2020.2.8,Win32,60,m,1,,,,,,,,0.72559,1,,,,,,50,WORD,"ID",16,snatch,SNATCH,m,0.72559,,,,,,0.75462963,-0.378703704,0,0,0,,0,22,22,109,1,
,,,,,,,,,,,,,,,,,,5fb3a3c38a7d5903b43c1949,2020-12-03_08h22.00.443,lexical_decision_task_MP_exp2,2020.2.8,Win32,60,m,1,,,,,,,,1.01637,1,,,,,,170,WORD,UN,16,dragon,POUNCE,m,1.01637,,,,,,0.75462963,-0.378703704,0,0,0,,0,23,23,229,1,
,,,,,,,,,,,,,,,,,,5fb3a3c38a7d5903b43c1949,2020-12-03_08h22.00.443,lexical_decision_task_MP_exp2,2020.2.8,Win32,60,m,1,,,,,,,,0.794115,1,,,,,,133,WORD,UN,16,staple,CHROME,m,0.794115,,,,,,0.75462963,-0.378703704,0,0,0,,0,24,24,192,1,
,,,,,,,,,,,,,,,,,,5fb3a3c38a7d5903b43c1949,2020-12-03_08h22.00.443,lexical_decision_task_MP_exp2,2020.2.8,Win32,60,z,1,,,,,,,,0.71136,1,,,,,,278,NW,"ID",16,unighs,UNIGHS,z,0.71136,,,,,,0.75462963,-0.378703704,0,0,0,,0,25,25,337,1,
,,,,,,,,,,,,,,,,,,5fb3a3c38a7d5903b43c1949,2020-12-03_08h22.00.443,lexical_decision_task_MP_exp2,2020.2.8,Win32,60,m,1,,,,,,,,0.6362,1,,,,,,109,WORD,UN,33,polite,WONDER,m,0.6362,,,,,,0.75462963,-0.378703704,0,0,0,,0,26,26,168,1,
,,,,,,,,,,,,,,,,,,5fb3a3c38a7d5903b43c1949,2020-12-03_08h22.00.443,lexical_decision_task_MP_exp2,2020.2.8,Win32,60,m,1,,,,,,,,0.850215,1,,,,,,240,WORD,"ID",33,forest,FOREST,m,0.850215,,,,,,0.75462963,-0.378703704,0,0,0,,0,27,27,59,1,
,,,,,,,,,,,,,,,,,,5fb3a3c38a7d5903b43c1949,2020-12-03_08h22.00.443,lexical_decision_task_MP_exp2,2020.2.8,Win32,60,m,1,,,,,,,,0.73184,1,,,,,,229,WORD,"ID",33,mother,MOTHER,m,0.73184,,,,,,0.75462963,-0.378703704,0,0,0,,0,28,28,48,1,
,,,,,,,,,,,,,,,,,,5fb3a3c38a7d5903b43c1949,2020-12-03_08h22.00.443,lexical_decision_task_MP_exp2,2020.2.8,Win32,60,z,1,,,,,,,,0.70902,1,,,,,,443,NW,"ID",33,dorsex,DORSEX,z,0.70902,,,,,,0.759259259,-0.376851852,0,0,0,,0,29,29,262,1,
,,,,,,,,,,,,,,,,,,5fb3a3c38a7d5903b43c1949,2020-12-03_08h22.00.443,lexical_decision_task_MP_exp2,2020.2.8,Win32,60,z,1,,,,,,,,0.81953,1,,,,,,280,NW,"ID",16,curbol,CURBOL,z,0.81953,,,,,,0.760185185,-0.375925926,0,0,0,,0,30,30,339,1,
,,,,,,,,,,,,,,,,,,5fb3a3c38a7d5903b43c1949,2020-12-03_08h22.00.443,lexical_decision_task_MP_exp2,2020.2.8,Win32,60,m,1,,,,,,,,0.773745,1,,,,,,79,WORD,UN,33,family,THEORY,m,0.773745,,,,,,0.760185185,-0.375925926,0,0,0,,0,31,31,138,1,
,,,,,,,,,,,,,,,,,,5fb3a3c38a7d5903b43c1949,2020-12-03_08h22.00.443,lexical_decision_task_MP_exp2,2020.2.8,Win32,60,m,1,,,,,,,,0.870835,1,,,,,,209,WORD,"ID",33,search,SEARCH,m,0.870835,,,,,,0.760185185,-0.375925926,0,0,0,,0,32,32,28,1,
,,,,,,,,,,,,,,,,,,5fb3a3c38a7d5903b43c1949,2020-12-03_08h22.00.443,lexical_decision_task_MP_exp2,2020.2.8,Win32,60,m,1,,,,,,,,1.34771,1,,,,,,40,WORD,"ID",16,convey,CONVEY,m,1.34771,,,,,,0.760185185,-0.375925926,0,0,0,,0,33,33,99,1,
,,,,,,,,,,,,,,,,,,5fb3a3c38a7d5903b43c1949,2020-12-03_08h22.00.443,lexical_decision_task_MP_exp2,2020.2.8,Win32,60,z,1,,,,,,,,0.75601,1,,,,,,427,NW,"ID",33,schind,SCHIND,z,0.75601,,,,,,0.760185185,-0.375925926,0,0,0,,0,34,34,246,1,
,,,,,,,,,,,,,,,,,,5fb3a3c38a7d5903b43c1949,2020-12-03_08h22.00.443,lexical_decision_task_MP_exp2,2020.2.8,Win32,60,m,1,,,,,,,,0.703355,1,,,,,,36,WORD,"ID",16,vanish,VANISH,m,0.703355,,,,,,0.760185185,-0.375925926,0,0,0,,0,35,35,95,1,
,,,,,,,,,,,,,,,,,,5fb3a3c38a7d5903b43c1949,2020-12-03_08h22.00.443,lexical_decision_task_MP_exp2,2020.2.8,Win32,60,m,1,,,,,,,,0.7885,1,,,,,,139,WORD,UN,16,prince,DEBRIS,m,0.7885,,,,,,0.760185185,-0.375925926,0,0,0,,0,36,36,198,1,
,,,,,,,,,,,,,,,,,,5fb3a3c38a7d5903b43c1949,2020-12-03_08h22.00.443,lexical_decision_task_MP_exp2,2020.2.8,Win32,60,m,1,,,,,,,,0.681995,1,,,,,,11,WORD,"ID",16,cruise,CRUISE,m,0.681995,,,,,,0.760185185,-0.375925926,0,0,0,,0,37,37,70,1,
,,,,,,,,,,,,,,,,,,5fb3a3c38a7d5903b43c1949,2020-12-03_08h22.00.443,lexical_decision_task_MP_exp2,2020.2.8,Win32,60,m,1,,,,,,,,0.693805,1,,,,,,236,WORD,"ID",33,pirate,PIRATE,m,0.693805,,,,,,0.760185185,-0.375925926,0,0,0,,0,38,38,55,1,
,,,,,,,,,,,,,,,,,,5fb3a3c38a7d5903b43c1949,2020-12-03_08h22.00.443,lexical_decision_task_MP_exp2,2020.2.8,Win32,60,m,1,,,,,,,,0.661425,1,,,,,,193,WORD,"ID",33,object,OBJECT,m,0.661425,,,,,,0.760185185,-0.375925926,0,0,0,,0,39,39,12,1,
,,,,,,,,,,,,,,,,,,5fb3a3c38a7d5903b43c1949,2020-12-03_08h22.00.443,lexical_decision_task_MP_exp2,2020.2.8,Win32,60,m,1,,,,,,,,0.603585,1,,,,,,228,WORD,"ID",33,master,MASTER,m,0.603585,,,,,,0.760185185,-0.375925926,0,0,0,,0,40,40,47,1,
,,,,,,,,,,,,,,,,,,5fb3a3c38a7d5903b43c1949,2020-12-03_08h22.00.443,lexical_decision_task_MP_exp2,2020.2.8,Win32,60,m,1,,,,,,,,0.601375,1,,,,,,232,WORD,"ID",33,inject,INJECT,m,0.601375,,,,,,0.760185185,-0.375925926,0,0,0,,0,41,41,51,1,
,,,,,,,,,,,,,,,,,,5fb3a3c38a7d5903b43c1949,2020-12-03_08h22.00.443,lexical_decision_task_MP_exp2,2020.2.8,Win32,60,z,1,,,,,,,,0.702955,1,,,,,,295,NW,"ID",16,gleath,GLEATH,z,0.702955,,,,,,0.760185185,-0.375925926,0,0,0,,0,42,42,354,1,
,,,,,,,,,,,,,,,,,,5fb3a3c38a7d5903b43c1949,2020-12-03_08h22.00.443,lexical_decision_task_MP_exp2,2020.2.8,Win32,60,m,1,,,,,,,,0.61132,1,,,,,,34,WORD,"ID",16,jungle,JUNGLE,m,0.61132,,,,,,0.760185185,-0.375925926,0,0,0,,0,43,43,93,1,
,,,,,,,,,,,,,,,,,,5fb3a3c38a7d5903b43c1949,2020-12-03_08h22.00.443,lexical_decision_task_MP_exp2,2020.2.8,Win32,60,m,1,,,,,,,,0.660315,1,,,,,,76,WORD,UN,33,racket,EXOTIC,m,0.660315,,,,,,0.760185185,-0.375925926,0,0,0,,0,44,44,135,1,
,,,,,,,,,,,,,,,,,,5fb3a3c38a7d5903b43c1949,2020-12-03_08h22.00.443,lexical_decision_task_MP_exp2,2020.2.8,Win32,60,z,1,,,,,,,,0.65369,1,,,,,,323,NW,UN,33,steikh,ROSAIL,z,0.65369,,,,,,0.760185185,-0.375925926,0,0,0,,0,45,45,382,1,
,,,,,,,,,,,,,,,,,,5fb3a3c38a7d5903b43c1949,2020-12-03_08h22.00.443,lexical_decision_task_MP_exp2,2020.2.8,Win32,60,z,1,,,,,,,,0.74289,1,,,,,,477,NW,"ID",33,photie,PHOTIE,z,0.74289,,,,,,0.760185185,-0.375925926,0,0,0,,0,46,46,296,1,
,,,,,,,,,,,,,,,,,,5fb3a3c38a7d5903b43c1949,2020-12-03_08h22.00.443,lexical_decision_task_MP_exp2,2020.2.8,Win32,60,m,1,,,,,,,,0.622635,1,,,,,,35,WORD,"ID",16,socket,SOCKET,m,0.622635,,,,,,0.760185185,-0.375925926,0,0,0,,0,47,47,94,1,
,,,,,,,,,,,,,,,,,,5fb3a3c38a7d5903b43c1949,2020-12-03_08h22.00.443,lexical_decision_task_MP_exp2,2020.2.8,Win32,60,z,1,,,,,,,,0.68658,1,,,,,,436,NW,"ID",33,frutan,FRUTAN,z,0.68658,,,,,,0.760185185,-0.375925926,0,0,0,,0,48,48,255,1,
,,,,,,,,,,,,,,,,,,5fb3a3c38a7d5903b43c1949,2020-12-03_08h22.00.443,lexical_decision_task_MP_exp2,2020.2.8,Win32,60,z,1,,,,,,,,1.01102,1,,,,,,287,NW,"ID",16,nymbel,NYMBEL,z,1.01102,,,,,,0.760185185,-0.375925926,0,0,0,,0,49,49,346,1,
,,,,,,,,,,,,,,,,,,5fb3a3c38a7d5903b43c1949,2020-12-03_08h22.00.443,lexical_decision_task_MP_exp2,2020.2.8,Win32,60,z,1,,,,,,,,0.863265,1,,,,,,279,NW,"ID",16,celond,CELOND,z,0.863265,,,,,,0.760185185,-0.375925926,0,0,0,,0,50,50,338,1,
,,,,,,,,,,,,,,,,,,5fb3a3c38a7d5903b43c1949,2020-12-03_08h22.00.443,lexical_decision_task_MP_exp2,2020.2.8,Win32,60,m,1,,,,,,,,0.83428,1,,,,,,153,WORD,UN,16,author,BEHOLD,m,0.83428,,,,,,0.760185185,-0.375925926,0,0,0,,0,51,51,212,1,
,,,,,,,,,,,,,,,,,,5fb3a3c38a7d5903b43c1949,2020-12-03_08h22.00.443,lexical_decision_task_MP_exp2,2020.2.8,Win32,60,m,1,,,,,,,,0.871035,1,,,,,,230,WORD,"ID",33,fringe,FRINGE,m,0.871035,,,,,,0.760185185,-0.375925926,0,0,0,,0,52,52,49,1,
,,,,,,,,,,,,,,,,,,5fb3a3c38a7d5903b43c1949,2020-12-03_08h22.00.443,lexical_decision_task_MP_exp2,2020.2.8,Win32,60,z,1,,,,,,,,0.68656,1,,,,,,343,NW,UN,33,scrily,AIMOSY,z,0.68656,,,,,,0.760185185,-0.375925926,0,0,0,,0,53,53,402,1,
,,,,,,,,,,,,,,,,,,5fb3a3c38a7d5903b43c1949,2020-12-03_08h22.00.443,lexical_decision_task_MP_exp2,2020.2.8,Win32,60,z,1,,,,,,,,0.81726,1,,,,,,428,NW,"ID",33,tandly,TANDLY,z,0.81726,,,,,,0.760185185,-0.375925926,0,0,0,,0,54,54,247,1,
,,,,,,,,,,,,,,,,,,5fb3a3c38a7d5903b43c1949,2020-12-03_08h22.00.443,lexical_decision_task_MP_exp2,2020.2.8,Win32,60,m,1,,,,,,,,1.047465,1,,,,,,23,WORD,"ID",16,wealth,WEALTH,m,1.047465,,,,,,0.760185185,-0.375925926,0,0,0,,0,55,55,82,1,
,,,,,,,,,,,,,,,,,,5fb3a3c38a7d5903b43c1949,2020-12-03_08h22.00.443,lexical_decision_task_MP_exp2,2020.2.8,Win32,60,z,1,,,,,,,,0.701545,1,,,,,,313,NW,UN,33,sprine,PAURSE,z,0.701545,,,,,,0.760185185,-0.375925926,0,0,0,,0,56,56,372,1,
,,,,,,,,,,,,,,,,,,5fb3a3c38a7d5903b43c1949,2020-12-03_08h22.00.443,lexical_decision_task_MP_exp2,2020.2.8,Win32,60,z,1,,,,,,,,0.776505,1,,,,,,371,NW,UN,16,ramily,GEILOY,z,0.776505,,,,,,0.760185185,-0.375925926,0,0,0,,0,57,57,430,1,
,,,,,,,,,,,,,,,,,,5fb3a3c38a7d5903b43c1949,2020-12-03_08h22.00.443,lexical_decision_task_MP_exp2,2020.2.8,Win32,60,m,1,,,,,,,,0.687855,1,,,,,,115,WORD,UN,33,tumble,GUITAR,m,0.687855,,,,,,0.760185185,-0.375925926,0,0,0,,0,58,58,174,1,
,,,,,,,,,,,,,,,,,,5fb3a3c38a7d5903b43c1949,2020-12-03_08h22.00.443,lexical_decision_task_MP_exp2,2020.2.8,Win32,60,z,1,,,,,,,,1.097345,1,,,,,,314,NW,UN,33,laston,SPRINE,z,1.097345,,,,,,0.760185185,-0.375925926,0,0,0,,0,59,59,373,1,
,,,,,,,,,,,,,,,,,,5fb3a3c38a7d5903b43c1949,2020-12-03_08h22.00.443,lexical_decision_task_MP_exp2,2020.2.8,Win32,60,z,1,,,,,,,,0.75216,1,,,,,,264,NW,"ID",16,vackel,VACKEL,z,0.75216,,,,,,0.760185185,-0.375925926,0,0,0,,0,60,60,323,1,
,,,,,,,,,,,,,,,,,,5fb3a3c38a7d5903b43c1949,2020-12-03_08h22.00.443,lexical_decision_task_MP_exp2,2020.2.8,Win32,60,z,1,,,,,,,,0.62311,1,,,,,,429,NW,"ID",33,funtle,FUNTLE,z,0.62311,,,,,,0.760185185,-0.375925926,0,0,0,,0,61,61,248,1,
,,,,,,,,,,,,,,,,,,5fb3a3c38a7d5903b43c1949,2020-12-03_08h22.00.443,lexical_decision_task_MP_exp2,2020.2.8,Win32,60,z,1,,,,,,,,1.149795,1,,,,,,411,NW,UN,16,jiluer,ORCHIN,z,1.149795,,,,,,0.760185185,-0.375925926,0,0,0,,0,62,62,470,1,
,,,,,,,,,,,,,,,,,,5fb3a3c38a7d5903b43c1949,2020-12-03_08h22.00.443,lexical_decision_task_MP_exp2,2020.2.8,Win32,60,z,1,,,,,,,,0.693875,1,,,,,,442,NW,"ID",33,aboune,ABOUNE,z,0.693875,,,,,,0.760185185,-0.375925926,0,0,0,,0,63,63,261,1,
,,,,,,,,,,,,,,,,,,5fb3a3c38a7d5903b43c1949,2020-12-03_08h22.00.443,lexical_decision_task_MP_exp2,2020.2.8,Win32,60,z,1,,,,,,,,0.78686,1,,,,,,298,NW,"ID",16,piergy,PIERGY,z,0.78686,,,,,,0.760185185,-0.375925926,0,0,0,,0,64,64,357,1,
,,,,,,,,,,,,,,,,,,5fb3a3c38a7d5903b43c1949,2020-12-03_08h22.00.443,lexical_decision_task_MP_exp2,2020.2.8,Win32,60,m,1,,,,,,,,0.845335,1,,,,,,171,WORD,UN,16,patrol,DEPART,m,0.845335,,,,,,0.760185185,-0.375925926,0,0,0,,0,65,65,230,1,
,,,,,,,,,,,,,,,,,,5fb3a3c38a7d5903b43c1949,2020-12-03_08h22.00.443,lexical_decision_task_MP_exp2,2020.2.8,Win32,60,z,1,,,,,,,,0.59488,1,,,,,,256,NW,"ID",16,inlors,INLORS,z,0.59488,,,,,,0.760185185,-0.375925926,0,0,0,,0,66,66,315,1,
,,,,,,,,,,,,,,,,,,5fb3a3c38a7d5903b43c1949,2020-12-03_08h22.00.443,lexical_decision_task_MP_exp2,2020.2.8,Win32,60,z,0,,,,,,,,0.682895,0,,,,,,105,WORD,UN,33,ransom,NUMBER,m,0.682895,,,,,,0.760185185,-0.375925926,0,0,0,,0,67,67,164,1,
,,,,,,,,,,,,,,,,,,5fb3a3c38a7d5903b43c1949,2020-12-03_08h22.00.443,lexical_decision_task_MP_exp2,2020.2.8,Win32,60,m,1,,,,,,,,0.75087,1,,,,,,144,WORD,UN,16,parish,SPONGE,m,0.75087,,,,,,0.760185185,-0.375925926,0,0,0,,0,68,68,203,1,
,,,,,,,,,,,,,,,,,,5fb3a3c38a7d5903b43c1949,2020-12-03_08h22.00.443,lexical_decision_task_MP_exp2,2020.2.8,Win32,60,m,1,,,,,,,,0.68964,1,,,,,,57,WORD,"ID",16,change,CHANGE,m,0.68964,,,,,,0.760185185,-0.375925926,0,0,0,,0,69,69,116,1,
,,,,,,,,,,,,,,,,,,5fb3a3c38a7d5903b43c1949,2020-12-03_08h22.00.443,lexical_decision_task_MP_exp2,2020.2.8,Win32,60,z,1,,,,,,,,0.766895,1,,,,,,290,NW,"ID",16,splino,SPLINO,z,0.766895,,,,,,0.760185185,-0.375925926,0,0,0,,0,70,70,349,1,
,,,,,,,,,,,,,,,,,,5fb3a3c38a7d5903b43c1949,2020-12-03_08h22.00.443,lexical_decision_task_MP_exp2,2020.2.8,Win32,60,z,1,,,,,,,,1.04687,1,,,,,,359,NW,UN,33,desory,FONVER,z,1.04687,,,,,,0.760185185,-0.375925926,0,0,0,,0,71,71,418,1,
,,,,,,,,,,,,,,,,,,5fb3a3c38a7d5903b43c1949,2020-12-03_08h22.00.443,lexical_decision_task_MP_exp2,2020.2.8,Win32,60,m,1,,,,,,,,0.693015,1,,,,,,41,WORD,"ID",16,spring,SPRING,m,0.693015,,,,,,0.760185185,-0.375925926,0,0,0,,0,72,72,100,1,
,,,,,,,,,,,,,,,,,,5fb3a3c38a7d5903b43c1949,2020-12-03_08h22.00.443,lexical_decision_task_MP_exp2,2020.2.8,Win32,60,m,1,,,,,,,,0.84755,1,,,,,,54,WORD,"ID",16,ramble,RAMBLE,m,0.84755,,,,,,0.760185185,-0.375925926,0,0,0,,0,73,73,113,1,
,,,,,,,,,,,,,,,,,,5fb3a3c38a7d5903b43c1949,2020-12-03_08h22.00.443,lexical_decision_task_MP_exp2,2020.2.8,Win32,60,m,1,,,,,,,,0.63645,1,,,,,,104,WORD,UN,33,number,STUDIO,m,0.63645,,,,,,0.760185185,-0.375925926,0,0,0,,0,74,74,163,1,
,,,,,,,,,,,,,,,,,,5fb3a3c38a7d5903b43c1949,2020-12-03_08h22.00.443,lexical_decision_task_MP_exp2,2020.2.8,Win32,60,z,1,,,,,,,,1.17937,1,,,,,,382,NW,UN,16,aungre,SARLEY,z,1.17937,,,,,,0.760185185,-0.375925926,0,0,0,,0,75,75,441,1,
,,,,,,,,,,,,,,,,,,5fb3a3c38a7d5903b43c1949,2020-12-03_08h22.00.443,lexical_decision_task_MP_exp2,2020.2.8,Win32,60,z,1,,,,,,,,0.90332,1,,,,,,466,NW,"ID",33,hocite,HOCITE,z,0.90332,,,,,,0.760185185,-0.375925926,0,0,0,,0,76,76,285,1,
,,,,,,,,,,,,,,,,,,5fb3a3c38a7d5903b43c1949,2020-12-03_08h22.00.443,lexical_decision_task_MP_exp2,2020.2.8,Win32,60,z,1,,,,,,,,0.81721,1,,,,,,459,NW,"ID",33,bafent,BAFENT,z,0.81721,,,,,,0.760185185,-0.375925926,0,0,0,,0,77,77,278,1,
,,,,,,,,,,,,,,,,,,5fb3a3c38a7d5903b43c1949,2020-12-03_08h22.00.443,lexical_decision_task_MP_exp2,2020.2.8,Win32,60,z,1,,,,,,,,0.785475,1,,,,,,385,NW,UN,16,ancust,VEIGMA,z,0.785475,,,,,,0.760185185,-0.375925926,0,0,0,,0,78,78,444,1,
,,,,,,,,,,,,,,,,,,5fb3a3c38a7d5903b43c1949,2020-12-03_08h22.00.443,lexical_decision_task_MP_exp2,2020.2.8,Win32,60,m,1,,,,,,,,0.73721,1,,,,,,81,WORD,UN,33,stigma,FRIEND,m,0.73721,,,,,,0.760185185,-0.375925926,0,0,0,,0,79,79,140,1,
,,,,,,,,,,,,,,,,,,5fb3a3c38a7d5903b43c1949,2020-12-03_08h22.00.443,lexical_decision_task_MP_exp2,2020.2.8,Win32,60,z,1,,,,,,,,0.757375,1,,,,,,475,NW,"ID",33,pebric,PEBRIC,z,0.757375,,,,,,0.760185185,-0.375925926,0,0,0,,0,80,80,294,1,
,,,,,,,,,,,,,,,,,,5fb3a3c38a7d5903b43c1949,2020-12-03_08h22.00.443,lexical_decision_task_MP_exp2,2020.2.8,Win32,60,z,0,,,,,,,,0.728205,0,,,,,,176,WORD,UN,16,advent,STRIFE,m,0.728205,,,,,,0.760185185,-0.375925926,0,0,0,,0,81,81,235,1,
,,,,,,,,,,,,,,,,,,5fb3a3c38a7d5903b43c1949,2020-12-03_08h22.00.443,lexical_decision_task_MP_exp2,2020.2.8,Win32,60,m,0,,,,,,,,0.785245,0,,,,,,263,NW,"ID",16,dolica,DOLICA,z,0.785245,,,,,,0.760185185,-0.375925926,0,0,0,,0,82,82,322,1,
,,,,,,,,,,,,,,,,,,5fb3a3c38a7d5903b43c1949,2020-12-03_08h22.00.443,lexical_decision_task_MP_exp2,2020.2.8,Win32,60,m,1,,,,,,,,1.098465,1,,,,,,117,WORD,UN,33,flight,BRANCH,m,1.098465,,,,,,0.760185185,-0.375925926,0,0,0,,0,83,83,176,1,
,,,,,,,,,,,,,,,,,,5fb3a3c38a7d5903b43c1949,2020-12-03_08h22.00.443,lexical_decision_task_MP_exp2,2020.2.8,Win32,60,m,1,,,,,,,,0.692095,1,,,,,,213,WORD,"ID",33,squeal,SQUEAL,m,0.692095,,,,,,0.760185185,-0.375925926,0,0,0,,0,84,84,32,1,
,,,,,,,,,,,,,,,,,,5fb3a3c38a7d5903b43c1949,2020-12-03_08h22.00.443,lexical_decision_task_MP_exp2,2020.2.8,Win32,60,z,1,,,,,,,,0.802525,1,,,,,,369,NW,UN,16,sleact,WRONCH,z,0.802525,,,,,,0.760185185,-0.375925926,0,0,0,,0,85,85,428,1,
,,,,,,,,,,,,,,,,,,5fb3a3c38a7d5903b43c1949,2020-12-03_08h22.00.443,lexical_decision_task_MP_exp2,2020.2.8,Win32,60,z,1,,,,,,,,0.816025,1,,,,,,321,NW,UN,33,slanch,MIATOR,z,0.816025,,,,,,0.760185185,-0.375925926,0,0,0,,0,86,86,380,1,
,,,,,,,,,,,,,,,,,,5fb3a3c38a7d5903b43c1949,2020-12-03_08h22.00.443,lexical_decision_task_MP_exp2,2020.2.8,Win32,60,m,1,,,,,,,,0.762085,1,,,,,,96,WORD,UN,33,client,IGNORE,m,0.762085,,,,,,0.760185185,-0.375925926,0,0,0,,0,87,87,155,1,
,,,,,,,,,,,,,,,,,,5fb3a3c38a7d5903b43c1949,2020-12-03_08h22.00.443,lexical_decision_task_MP_exp2,2020.2.8,Win32,60,z,1,,,,,,,,0.957725,1,,,,,,281,NW,"ID",16,melaty,MELATY,z,0.957725,,,,,,0.760185185,-0.375925926,0,0,0,,0,88,88,340,1,
,,,,,,,,,,,,,,,,,,5fb3a3c38a7d5903b43c1949,2020-12-03_08h22.00.443,lexical_decision_task_MP_exp2,2020.2.8,Win32,60,m,1,,,,,,,,0.713905,1,,,,,,44,WORD,"ID",16,danger,DANGER,m,0.713905,,,,,,0.760185185,-0.375925926,0,0,0,,0,89,89,103,1,
,,,,,,,,,,,,,,,,,,5fb3a3c38a7d5903b43c1949,2020-12-03_08h22.00.443,lexical_decision_task_MP_exp2,2020.2.8,Win32,60,m,1,,,,,,,,0.752475,1,,,,,,14,WORD,"ID",16,almost,ALMOST,m,0.752475,,,,,,0.760185185,-0.375925926,0,0,0,,0,90,90,73,1,
,,,,,,,,,,,,,,,,,,5fb3a3c38a7d5903b43c1949,2020-12-03_08h22.00.443,lexical_decision_task_MP_exp2,2020.2.8,Win32,60,m,1,,,,,,,,0.67582,1,,,,,,205,WORD,"ID",33,lounge,LOUNGE,m,0.67582,,,,,,0.760185185,-0.375925926,0,0,0,,0,91,91,24,1,
,,,,,,,,,,,,,,,,,,5fb3a3c38a7d5903b43c1949,2020-12-03_08h22.00.443,lexical_decision_task_MP_exp2,2020.2.8,Win32,60,m,1,,,,,,,,0.638405,1,,,,,,33,WORD,"ID",16,butler,BUTLER,m,0.638405,,,,,,0.762037037,-0.375925926,0,0,0,,0,92,92,92,1,
,,,,,,,,,,,,,,,,,,5fb3a3c38a7d5903b43c1949,2020-12-03_08h22.00.443,lexical_decision_task_MP_exp2,2020.2.8,Win32,60,z,1,,,,,,,,0.61446,1,,,,,,384,NW,UN,16,injore,GUESCO,z,0.61446,,,,,,0.833333333,-0.344444444,0,0,0,,0,93,93,443,1,
,,,,,,,,,,,,,,,,,,5fb3a3c38a7d5903b43c1949,2020-12-03_08h22.00.443,lexical_decision_task_MP_exp2,2020.2.8,Win32,60,m,1,,,,,,,,0.63243,1,,,,,,146,WORD,UN,16,garlic,COUPLE,m,0.63243,,,,,,0.833333333,-0.344444444,0,0,0,,0,94,94,205,1,
,,,,,,,,,,,,,,,,,,5fb3a3c38a7d5903b43c1949,2020-12-03_08h22.00.443,lexical_decision_task_MP_exp2,2020.2.8,Win32,60,m,1,,,,,,,,0.686215,1,,,,,,7,WORD,"ID",16,anchor,ANCHOR,m,0.686215,,,,,,0.833333333,-0.344444444,0,0,0,,0,95,95,66,1,
,,,,,,,,,,,,,,,,,,5fb3a3c38a7d5903b43c1949,2020-12-03_08h22.00.443,lexical_decision_task_MP_exp2,2020.2.8,Win32,60,z,1,,,,,,,,1.478235,1,,,,,,259,NW,"ID",16,soudal,SOUDAL,z,1.478235,,,,,,0.833333333,-0.344444444,0,0,0,,0,96,96,318,1,
,,,,,,,,,,,,,,,,,,5fb3a3c38a7d5903b43c1949,2020-12-03_08h22.00.443,lexical_decision_task_MP_exp2,2020.2.8,Win32,60,z,1,,,,,,,,1.27944,1,,,,,,397,NW,UN,16,blunde,CAMBLE,z,1.27944,,,,,,0.833333333,-0.344444444,0,0,0,,0,97,97,456,1,
,,,,,,,,,,,,,,,,,,5fb3a3c38a7d5903b43c1949,2020-12-03_08h22.00.443,lexical_decision_task_MP_exp2,2020.2.8,Win32,60,m,0,,,,,,,,0.66105,0,,,,,,296,NW,"ID",16,beinch,BEINCH,z,0.66105,,,,,,0.833333333,-0.344444444,0,0,0,,0,98,98,355,1,
,,,,,,,,,,,,,,,,,,5fb3a3c38a7d5903b43c1949,2020-12-03_08h22.00.443,lexical_decision_task_MP_exp2,2020.2.8,Win32,60,z,1,,,,,,,,1.05122,1,,,,,,452,NW,"ID",33,surden,SURDEN,z,1.05122,,,,,,0.833333333,-0.344444444,0,0,0,,0,99,99,271,1,
,,,,,,,,,,,,,,,,,,5fb3a3c38a7d5903b43c1949,2020-12-03_08h22.00.443,lexical_decision_task_MP_exp2,2020.2.8,Win32,60,m,1,,,,,,,,1.153335,1,,,,,,95,WORD,UN,33,ignore,THREAD,m,1.153335,,,,,,0.833333333,-0.344444444,0,0,0,,0,100,100,154,1,
,,,,,,,,,,,,,,,,,,5fb3a3c38a7d5903b43c1949,2020-12-03_08h22.00.443,lexical_decision_task_MP_exp2,2020.2.8,Win32,60,m,1,,,,,,,,0.7158,1,,,,,,177,WORD,UN,16,inform,ADVENT,m,0.7158,,,,,,0.833333333,-0.344444444,0,0,0,,0,101,101,236,1,
,,,,,,,,,,,,,,,,,,5fb3a3c38a7d5903b43c1949,2020-12-03_08h22.00.443,lexical_decision_task_MP_exp2,2020.2.8,Win32,60,z,1,,,,,,,,0.706915,1,,,,,,330,NW,UN,33,gilfew,KENSOM,z,0.706915,,,,,,0.833333333,-0.344444444,0,0,0,,0,102,102,389,1,
,,,,,,,,,,,,,,,,,,5fb3a3c38a7d5903b43c1949,2020-12-03_08h22.00.443,lexical_decision_task_MP_exp2,2020.2.8,Win32,60,z,1,,,,,,,,0.76649,1,,,,,,348,NW,UN,33,asylen,DUMPLE,z,0.76649,,,,,,0.833333333,-0.344444444,0,0,0,,0,103,103,407,1,
,,,,,,,,,,,,,,,,,,5fb3a3c38a7d5903b43c1949,2020-12-03_08h22.00.443,lexical_decision_task_MP_exp2,2020.2.8,Win32,60,m,1,,,,,,,,0.713485,1,,,,,,225,WORD,"ID",33,vulgar,VULGAR,m,0.713485,,,,,,0.833333333,-0.344444444,0,0,0,,0,104,104,44,1,
,,,,,,,,,,,,,,,,,,5fb3a3c38a7d5903b43c1949,2020-12-03_08h22.00.443,lexical_decision_task_MP_exp2,2020.2.8,Win32,60,z,0,,,,,,,,0.651045,0,,,,,,204,WORD,"ID",33,burden,BURDEN,m,0.651045,,,,,,0.833333333,-0.344444444,0,0,0,,0,105,105,23,1,
,,,,,,,,,,,,,,,,,,5fb3a3c38a7d5903b43c1949,2020-12-03_08h22.00.443,lexical_decision_task_MP_exp2,2020.2.8,Win32,60,z,1,,,,,,,,0.912815,1,,,,,,468,NW,"ID",33,wictor,WICTOR,z,0.912815,,,,,,0.833333333,-0.344444444,0,0,0,,0,106,106,287,1,
,,,,,,,,,,,,,,,,,,5fb3a3c38a7d5903b43c1949,2020-12-03_08h22.00.443,lexical_decision_task_MP_exp2,2020.2.8,Win32,60,,0,,,,,,,,0.912815,-1,,,,,,370,NW,UN,16,geiloy,SLEACT,z,,,,,,,0.833333333,-0.344444444,0,0,0,,0,107,107,429,1,
,,,,,,,,,,,,,,,,,,5fb3a3c38a7d5903b43c1949,2020-12-03_08h22.00.443,lexical_decision_task_MP_exp2,2020.2.8,Win32,60,m,1,,,,,,,,0.79,1,,,,,,67,WORD,UN,33,fumble,POLICY,m,0.79,,,,,,0.833333333,-0.344444444,0,0,0,,0,108,108,126,1,
,,,,,,,,,,,,,,,,,,5fb3a3c38a7d5903b43c1949,2020-12-03_08h22.00.443,lexical_decision_task_MP_exp2,2020.2.8,Win32,60,m,0,,,,,,,,0.61682,0,,,,,,470,NW,"ID",33,crudio,CRUDIO,z,0.61682,,,,,,0.833333333,-0.344444444,0,0,0,,0,109,109,289,1,
,,,,,,,,,,,,,,,,,,5fb3a3c38a7d5903b43c1949,2020-12-03_08h22.00.443,lexical_decision_task_MP_exp2,2020.2.8,Win32,60,z,0,,,,,,,,0.560735,0,,,,,,121,WORD,UN,16,linger,THRIVE,m,0.560735,,,,,,0.833333333,-0.344444444,0,0,0,,0,110,110,180,1,
,,,,,,,,,,,,,,,,,,5fb3a3c38a7d5903b43c1949,2020-12-03_08h22.00.443,lexical_decision_task_MP_exp2,2020.2.8,Win32,60,m,0,,,,,,,,1.0998,0,,,,,,329,NW,UN,33,kensom,YARIKE,z,1.0998,,,,,,0.833333333,-0.344444444,0,0,0,,0,111,111,388,1,
,,,,,,,,,,,,,,,,,,5fb3a3c38a7d5903b43c1949,2020-12-03_08h22.00.443,lexical_decision_task_MP_exp2,2020.2.8,Win32,60,m,1,,,,,,,,0.73288,1,,,,,,10,WORD,"ID",16,ethnic,ETHNIC,m,0.73288,,,,,,0.833333333,-0.344444444,0,0,0,,0,112,112,69,1,
,,,,,,,,,,,,,,,,,,5fb3a3c38a7d5903b43c1949,2020-12-03_08h22.00.443,lexical_decision_task_MP_exp2,2020.2.8,Win32,60,z,1,,,,,,,,0.839075,1,,,,,,317,NW,UN,33,reagly,WORBAL,z,0.839075,,,,,,0.833333333,-0.344444444,0,0,0,,0,113,113,376,1,
,,,,,,,,,,,,,,,,,,5fb3a3c38a7d5903b43c1949,2020-12-03_08h22.00.443,lexical_decision_task_MP_exp2,2020.2.8,Win32,60,m,1,,,,,,,,0.71407,1,,,,,,141,WORD,UN,16,spruce,ORPHAN,m,0.71407,,,,,,0.833333333,-0.344444444,0,0,0,,0,114,114,200,1,
,,,,,,,,,,,,,,,,,,5fb3a3c38a7d5903b43c1949,2020-12-03_08h22.00.443,lexical_decision_task_MP_exp2,2020.2.8,Win32,60,m,1,,,,,,,,0.749675,1,,,,,,216,WORD,"ID",33,behalf,BEHALF,m,0.749675,,,,,,0.833333333,-0.344444444,0,0,0,,0,115,115,35,1,
,,,,,,,,,,,,,,,,,,5fb3a3c38a7d5903b43c1949,2020-12-03_08h22.00.443,lexical_decision_task_MP_exp2,2020.2.8,Win32,60,z,1,,,,,,,,0.66727,1,,,,,,390,NW,UN,16,theldy,HATRUS,z,0.66727,,,,,,0.833333333,-0.344444444,0,0,0,,0,116,116,449,1,
,,,,,,,,,,,,,,,,,,5fb3a3c38a7d5903b43c1949,2020-12-03_08h22.00.443,lexical_decision_task_MP_exp2,2020.2.8,Win32,60,m,0,,,,,,,,0.753365,0,,,,,,453,NW,"ID",33,bolvis,BOLVIS,z,0.753365,,,,,,0.833333333,-0.344444444,0,0,0,,0,117,117,272,1,
,,,,,,,,,,,,,,,,,,5fb3a3c38a7d5903b43c1949,2020-12-03_08h22.00.443,lexical_decision_task_MP_exp2,2020.2.8,Win32,60,z,1,,,,,,,,1.38342,1,,,,,,260,NW,"ID",16,unject,UNJECT,z,1.38342,,,,,,0.833333333,-0.344444444,0,0,0,,0,118,118,319,1,
,,,,,,,,,,,,,,,,,,5fb3a3c38a7d5903b43c1949,2020-12-03_08h22.00.443,lexical_decision_task_MP_exp2,2020.2.8,Win32,60,m,1,,,,,,,,0.75964,1,,,,,,201,WORD,"ID",33,admire,ADMIRE,m,0.75964,,,,,,0.833333333,-0.344444444,0,0,0,,0,119,119,20,1,
,,,,,,,,,,,,,,,,,,5fb3a3c38a7d5903b43c1949,2020-12-03_08h22.00.443,lexical_decision_task_MP_exp2,2020.2.8,Win32,60,z,1,,,,,,,,0.720795,1,,,,,,440,NW,"ID",33,saride,SARIDE,z,0.720795,,,,,,0.887962963,-0.196296296,0,0,0,space,0,120,120,259,1,29.899795
,,,,,,,,,,,,,,,,,,5fb3a3c38a7d5903b43c1949,2020-12-03_08h22.00.443,lexical_decision_task_MP_exp2,2020.2.8,Win32,60,z,1,,,,,,,,1.77813,1,,,,,,318,NW,UN,33,zomber,REAGLY,z,1.77813,,,,,,0.887962963,-0.196296296,0,0,0,,0,121,121,377,1,
,,,,,,,,,,,,,,,,,,5fb3a3c38a7d5903b43c1949,2020-12-03_08h22.00.443,lexical_decision_task_MP_exp2,2020.2.8,Win32,60,z,1,,,,,,,,0.910975,1,,,,,,418,NW,UN,16,slount,SUIDLE,z,0.910975,,,,,,0.887962963,-0.196296296,0,0,0,,0,122,122,477,1,
,,,,,,,,,,,,,,,,,,5fb3a3c38a7d5903b43c1949,2020-12-03_08h22.00.443,lexical_decision_task_MP_exp2,2020.2.8,Win32,60,z,1,,,,,,,,0.712375,1,,,,,,381,NW,UN,16,sarley,HUNIEK,z,0.712375,,,,,,0.887962963,-0.196296296,0,0,0,,0,123,123,440,1,
,,,,,,,,,,,,,,,,,,5fb3a3c38a7d5903b43c1949,2020-12-03_08h22.00.443,lexical_decision_task_MP_exp2,2020.2.8,Win32,60,z,1,,,,,,,,0.712565,1,,,,,,386,NW,UN,16,gronce,ANCUST,z,0.712565,,,,,,0.887962963,-0.196296296,0,0,0,,0,124,124,445,1,
,,,,,,,,,,,,,,,,,,5fb3a3c38a7d5903b43c1949,2020-12-03_08h22.00.443,lexical_decision_task_MP_exp2,2020.2.8,Win32,60,m,1,,,,,,,,0.80066,1,,,,,,48,WORD,"ID",16,walnut,WALNUT,m,0.80066,,,,,,0.887962963,-0.196296296,0,0,0,,0,125,125,107,1,
,,,,,,,,,,,,,,,,,,5fb3a3c38a7d5903b43c1949,2020-12-03_08h22.00.443,lexical_decision_task_MP_exp2,2020.2.8,Win32,60,m,1,,,,,,,,0.659735,1,,,,,,167,WORD,UN,16,answer,DESIGN,m,0.659735,,,,,,0.887962963,-0.196296296,0,0,0,,0,126,126,226,1,
,,,,,,,,,,,,,,,,,,5fb3a3c38a7d5903b43c1949,2020-12-03_08h22.00.443,lexical_decision_task_MP_exp2,2020.2.8,Win32,60,z,1,,,,,,,,0.631935,1,,,,,,479,NW,"ID",33,lobush,LOBUSH,z,0.631935,,,,,,0.887962963,-0.196296296,0,0,0,,0,127,127,298,1,
,,,,,,,,,,,,,,,,,,5fb3a3c38a7d5903b43c1949,2020-12-03_08h22.00.443,lexical_decision_task_MP_exp2,2020.2.8,Win32,60,m,1,,,,,,,,0.769485,1,,,,,,32,WORD,"ID",16,buckle,BUCKLE,m,0.769485,,,,,,0.887962963,-0.196296296,0,0,0,,0,128,128,91,1,
,,,,,,,,,,,,,,,,,,5fb3a3c38a7d5903b43c1949,2020-12-03_08h22.00.443,lexical_decision_task_MP_exp2,2020.2.8,Win32,60,z,1,,,,,,,,0.65121,1,,,,,,322,NW,UN,33,rosail,SLANCH,z,0.65121,,,,,,0.887962963,-0.196296296,0,0,0,,0,129,129,381,1,
,,,,,,,,,,,,,,,,,,5fb3a3c38a7d5903b43c1949,2020-12-03_08h22.00.443,lexical_decision_task_MP_exp2,2020.2.8,Win32,60,m,0,,,,,,,,0.724065,0,,,,,,380,NW,UN,16,huniek,CAVORY,z,0.724065,,,,,,0.887962963,-0.196296296,0,0,0,,0,130,130,439,1,
,,,,,,,,,,,,,,,,,,5fb3a3c38a7d5903b43c1949,2020-12-03_08h22.00.443,lexical_decision_task_MP_exp2,2020.2.8,Win32,60,z,1,,,,,,,,0.71217,1,,,,,,269,NW,"ID",16,orchet,ORCHET,z,0.71217,,,,,,0.887962963,-0.196296296,0,0,0,,0,131,131,328,1,
,,,,,,,,,,,,,,,,,,5fb3a3c38a7d5903b43c1949,2020-12-03_08h22.00.443,lexical_decision_task_MP_exp2,2020.2.8,Win32,60,m,1,,,,,,,,0.866745,1,,,,,,188,WORD,"ID",33,social,SOCIAL,m,0.866745,,,,,,0.887962963,-0.196296296,0,0,0,,0,132,132,7,1,
,,,,,,,,,,,,,,,,,,5fb3a3c38a7d5903b43c1949,2020-12-03_08h22.00.443,lexical_decision_task_MP_exp2,2020.2.8,Win32,60,z,1,,,,,,,,0.632055,1,,,,,,389,NW,UN,16,hatrus,WITMER,z,0.632055,,,,,,0.887962963,-0.196296296,0,0,0,,0,133,133,448,1,
,,,,,,,,,,,,,,,,,,5fb3a3c38a7d5903b43c1949,2020-12-03_08h22.00.443,lexical_decision_task_MP_exp2,2020.2.8,Win32,60,z,1,,,,,,,,0.817265,1,,,,,,458,NW,"ID",33,barcet,BARCET,z,0.817265,,,,,,0.887962963,-0.196296296,0,0,0,,0,134,134,277,1,
,,,,,,,,,,,,,,,,,,5fb3a3c38a7d5903b43c1949,2020-12-03_08h22.00.443,lexical_decision_task_MP_exp2,2020.2.8,Win32,60,z,1,,,,,,,,0.806055,1,,,,,,402,NW,UN,16,bruats,SYNTIC,z,0.806055,,,,,,0.887962963,-0.196296296,0,0,0,,0,135,135,461,1,
,,,,,,,,,,,,,,,,,,5fb3a3c38a7d5903b43c1949,2020-12-03_08h22.00.443,lexical_decision_task_MP_exp2,2020.2.8,Win32,60,z,1,,,,,,,,0.753715,1,,,,,,446,NW,"ID",33,runamo,RUNAMO,z,0.753715,,,,,,0.887962963,-0.196296296,0,0,0,,0,136,136,265,1,
,,,,,,,,,,,,,,,,,,5fb3a3c38a7d5903b43c1949,2020-12-03_08h22.00.443,lexical_decision_task_MP_exp2,2020.2.8,Win32,60,m,1,,,,,,,,0.75274,1,,,,,,160,WORD,UN,16,pastor,VIOLET,m,0.75274,,,,,,0.887962963,-0.196296296,0,0,0,,0,137,137,219,1,
,,,,,,,,,,,,,,,,,,5fb3a3c38a7d5903b43c1949,2020-12-03_08h22.00.443,lexical_decision_task_MP_exp2,2020.2.8,Win32,60,m,1,,,,,,,,1.151605,1,,,,,,195,WORD,"ID",33,resign,RESIGN,m,1.151605,,,,,,0.887962963,-0.196296296,0,0,0,,0,138,138,14,1,
,,,,,,,,,,,,,,,,,,5fb3a3c38a7d5903b43c1949,2020-12-03_08h22.00.443,lexical_decision_task_MP_exp2,2020.2.8,Win32,60,z,1,,,,,,,,0.63338,1,,,,,,356,NW,UN,33,derain,OTHNIS,z,0.63338,,,,,,0.887962963,-0.196296296,0,0,0,,0,139,139,415,1,
,,,,,,,,,,,,,,,,,,5fb3a3c38a7d5903b43c1949,2020-12-03_08h22.00.443,lexical_decision_task_MP_exp2,2020.2.8,Win32,60,m,1,,,,,,,,0.715255,1,,,,,,219,WORD,"ID",33,bucket,BUCKET,m,0.715255,,,,,,0.887962963,-0.196296296,0,0,0,,0,140,140,38,1,
,,,,,,,,,,,,,,,,,,5fb3a3c38a7d5903b43c1949,2020-12-03_08h22.00.443,lexical_decision_task_MP_exp2,2020.2.8,Win32,60,m,1,,,,,,,,0.675075,1,,,,,,231,WORD,"ID",33,export,EXPORT,m,0.675075,,,,,,0.887962963,-0.196296296,0,0,0,,0,141,141,50,1,
,,,,,,,,,,,,,,,,,,5fb3a3c38a7d5903b43c1949,2020-12-03_08h22.00.443,lexical_decision_task_MP_exp2,2020.2.8,Win32,60,z,1,,,,,,,,0.617385,1,,,,,,361,NW,UN,16,tireau,PAUCHE,z,0.617385,,,,,,0.887962963,-0.196296296,0,0,0,,0,142,142,420,1,
,,,,,,,,,,,,,,,,,,5fb3a3c38a7d5903b43c1949,2020-12-03_08h22.00.443,lexical_decision_task_MP_exp2,2020.2.8,Win32,60,z,1,,,,,,,,0.851545,1,,,,,,465,NW,"ID",33,whivex,WHIVEX,z,0.851545,,,,,,0.887962963,-0.196296296,0,0,0,,0,143,143,284,1,
,,,,,,,,,,,,,,,,,,5fb3a3c38a7d5903b43c1949,2020-12-03_08h22.00.443,lexical_decision_task_MP_exp2,2020.2.8,Win32,60,m,1,,,,,,,,0.57638,1,,,,,,197,WORD,"ID",33,stream,STREAM,m,0.57638,,,,,,0.887962963,-0.196296296,0,0,0,,0,144,144,16,1,
,,,,,,,,,,,,,,,,,,5fb3a3c38a7d5903b43c1949,2020-12-03_08h22.00.443,lexical_decision_task_MP_exp2,2020.2.8,Win32,60,m,1,,,,,,,,0.833335,1,,,,,,98,WORD,UN,33,fluent,BELONG,m,0.833335,,,,,,0.887962963,-0.196296296,0,0,0,,0,145,145,157,1,
,,,,,,,,,,,,,,,,,,5fb3a3c38a7d5903b43c1949,2020-12-03_08h22.00.443,lexical_decision_task_MP_exp2,2020.2.8,Win32,60,z,0,,,,,,,,0.64565,0,,,,,,85,WORD,UN,33,rodent,SPRAWL,m,0.64565,,,,,,0.887962963,-0.196296296,0,0,0,,0,146,146,144,1,
,,,,,,,,,,,,,,,,,,5fb3a3c38a7d5903b43c1949,2020-12-03_08h22.00.443,lexical_decision_task_MP_exp2,2020.2.8,Win32,60,z,1,,,,,,,,0.98446,1,,,,,,316,NW,UN,33,worbal,SCREGM,z,0.98446,,,,,,0.887962963,-0.196296296,0,0,0,,0,147,147,375,1,
,,,,,,,,,,,,,,,,,,5fb3a3c38a7d5903b43c1949,2020-12-03_08h22.00.443,lexical_decision_task_MP_exp2,2020.2.8,Win32,60,z,1,,,,,,,,0.8132,1,,,,,,410,NW,UN,16,orchin,TUNORY,z,0.8132,,,,,,0.887962963,-0.196296296,0,0,0,,0,148,148,469,1,
,,,,,,,,,,,,,,,,,,5fb3a3c38a7d5903b43c1949,2020-12-03_08h22.00.443,lexical_decision_task_MP_exp2,2020.2.8,Win32,60,z,1,,,,,,,,0.738555,1,,,,,,431,NW,"ID",33,chrums,CHRUMS,z,0.738555,,,,,,0.887962963,-0.196296296,0,0,0,,0,149,149,250,1,
,,,,,,,,,,,,,,,,,,5fb3a3c38a7d5903b43c1949,2020-12-03_08h22.00.443,lexical_decision_task_MP_exp2,2020.2.8,Win32,60,z,1,,,,,,,,0.713285,1,,,,,,320,NW,UN,33,miator,JOCKAL,z,0.713285,,,,,,0.887962963,-0.196296296,0,0,0,,0,150,150,379,1,
,,,,,,,,,,,,,,,,,,5fb3a3c38a7d5903b43c1949,2020-12-03_08h22.00.443,lexical_decision_task_MP_exp2,2020.2.8,Win32,60,z,1,,,,,,,,0.738995,1,,,,,,338,NW,UN,33,fachow,WREASH,z,0.738995,,,,,,0.887962963,-0.196296296,0,0,0,,0,151,151,397,1,
,,,,,,,,,,,,,,,,,,5fb3a3c38a7d5903b43c1949,2020-12-03_08h22.00.443,lexical_decision_task_MP_exp2,2020.2.8,Win32,60,m,1,,,,,,,,0.654255,1,,,,,,164,WORD,UN,16,invest,MARKET,m,0.654255,,,,,,0.887962963,-0.196296296,0,0,0,,0,152,152,223,1,
,,,,,,,,,,,,,,,,,,5fb3a3c38a7d5903b43c1949,2020-12-03_08h22.00.443,lexical_decision_task_MP_exp2,2020.2.8,Win32,60,m,1,,,,,,,,0.677705,1,,,,,,77,WORD,UN,33,column,RACKET,m,0.677705,,,,,,0.887962963,-0.196296296,0,0,0,,0,153,153,136,1,
,,,,,,,,,,,,,,,,,,5fb3a3c38a7d5903b43c1949,2020-12-03_08h22.00.443,lexical_decision_task_MP_exp2,2020.2.8,Win32,60,m,1,,,,,,,,1.03535,1,,,,,,196,WORD,"ID",33,credit,CREDIT,m,1.03535,,,,,,0.887962963,-0.196296296,0,0,0,,0,154,154,15,1,
,,,,,,,,,,,,,,,,,,5fb3a3c38a7d5903b43c1949,2020-12-03_08h22.00.443,lexical_decision_task_MP_exp2,2020.2.8,Win32,60,z,1,,,,,,,,0.75399,1,,,,,,266,NW,"ID",16,varmit,VARMIT,z,0.75399,,,,,,0.887962963,-0.196296296,0,0,0,,0,155,155,325,1,
,,,,,,,,,,,,,,,,,,5fb3a3c38a7d5903b43c1949,2020-12-03_08h22.00.443,lexical_decision_task_MP_exp2,2020.2.8,Win32,60,m,1,,,,,,,,0.86677,1,,,,,,99,WORD,UN,33,carbon,FLUENT,m,0.86677,,,,,,0.887962963,-0.196296296,0,0,0,,0,156,156,158,1,
,,,,,,,,,,,,,,,,,,5fb3a3c38a7d5903b43c1949,2020-12-03_08h22.00.443,lexical_decision_task_MP_exp2,2020.2.8,Win32,60,m,1,,,,,,,,1.129255,1,,,,,,206,WORD,"ID",33,tailor,TAILOR,m,1.129255,,,,,,0.887962963,-0.196296296,0,0,0,,0,157,157,25,1,
,,,,,,,,,,,,,,,,,,5fb3a3c38a7d5903b43c1949,2020-12-03_08h22.00.443,lexical_decision_task_MP_exp2,2020.2.8,Win32,60,m,1,,,,,,,,0.64992,1,,,,,,140,WORD,UN,16,chrome,PRINCE,m,0.64992,,,,,,0.887962963,-0.196296296,0,0,0,,0,158,158,199,1,
,,,,,,,,,,,,,,,,,,5fb3a3c38a7d5903b43c1949,2020-12-03_08h22.00.443,lexical_decision_task_MP_exp2,2020.2.8,Win32,60,m,1,,,,,,,,0.63323,1,,,,,,107,WORD,UN,33,reckon,SLOGAN,m,0.63323,,,,,,0.887962963,-0.196296296,0,0,0,,0,159,159,166,1,
,,,,,,,,,,,,,,,,,,5fb3a3c38a7d5903b43c1949,2020-12-03_08h22.00.443,lexical_decision_task_MP_exp2,2020.2.8,Win32,60,m,1,,,,,,,,0.61604,1,,,,,,119,WORD,UN,33,strain,SPIDER,m,0.61604,,,,,,0.887962963,-0.196296296,0,0,0,,0,160,160,178,1,
,,,,,,,,,,,,,,,,,,5fb3a3c38a7d5903b43c1949,2020-12-03_08h22.00.443,lexical_decision_task_MP_exp2,2020.2.8,Win32,60,m,1,,,,,,,,0.541075,1,,,,,,179,WORD,UN,16,silent,BASKET,m,0.541075,,,,,,0.887962963,-0.196296296,0,0,0,,0,161,161,238,1,
,,,,,,,,,,,,,,,,,,5fb3a3c38a7d5903b43c1949,2020-12-03_08h22.00.443,lexical_decision_task_MP_exp2,2020.2.8,Win32,60,z,1,,,,,,,,0.831145,1,,,,,,376,NW,UN,16,veigma,IGUARE,z,0.831145,,,,,,0.887962963,-0.196296296,0,0,0,,0,162,162,435,1,
,,,,,,,,,,,,,,,,,,5fb3a3c38a7d5903b43c1949,2020-12-03_08h22.00.443,lexical_decision_task_MP_exp2,2020.2.8,Win32,60,m,1,,,,,,,,1.01279,1,,,,,,37,WORD,"ID",16,insult,INSULT,m,1.01279,,,,,,0.887962963,-0.196296296,0,0,0,,0,163,163,96,1,
,,,,,,,,,,,,,,,,,,5fb3a3c38a7d5903b43c1949,2020-12-03_08h22.00.443,lexical_decision_task_MP_exp2,2020.2.8,Win32,60,m,1,,,,,,,,0.90553,1,,,,,,122,WORD,UN,16,strike,LINGER,m,0.90553,,,,,,0.887962963,-0.196296296,0,0,0,,0,164,164,181,1,
,,,,,,,,,,,,,,,,,,5fb3a3c38a7d5903b43c1949,2020-12-03_08h22.00.443,lexical_decision_task_MP_exp2,2020.2.8,Win32,60,m,1,,,,,,,,0.6194,1,,,,,,12,WORD,"ID",16,orange,ORANGE,m,0.6194,,,,,,0.887962963,-0.196296296,0,0,0,,0,165,165,71,1,
,,,,,,,,,,,,,,,,,,5fb3a3c38a7d5903b43c1949,2020-12-03_08h22.00.443,lexical_decision_task_MP_exp2,2020.2.8,Win32,60,z,1,,,,,,,,0.79059,1,,,,,,405,NW,UN,16,nouply,FLUMNI,z,0.79059,,,,,,0.887962963,-0.196296296,0,0,0,,0,166,166,464,1,
,,,,,,,,,,,,,,,,,,5fb3a3c38a7d5903b43c1949,2020-12-03_08h22.00.443,lexical_decision_task_MP_exp2,2020.2.8,Win32,60,z,1,,,,,,,,0.872415,1,,,,,,344,NW,UN,33,absend,SCRILY,z,0.872415,,,,,,0.887962963,-0.196296296,0,0,0,,0,167,167,403,1,
,,,,,,,,,,,,,,,,,,5fb3a3c38a7d5903b43c1949,2020-12-03_08h22.00.443,lexical_decision_task_MP_exp2,2020.2.8,Win32,60,z,1,,,,,,,,0.94372,1,,,,,,358,NW,UN,33,fonver,FLEACK,z,0.94372,,,,,,0.887962963,-0.196296296,0,0,0,,0,168,168,417,1,
,,,,,,,,,,,,,,,,,,5fb3a3c38a7d5903b43c1949,2020-12-03_08h22.00.443,lexical_decision_task_MP_exp2,2020.2.8,Win32,60,z,1,,,,,,,,0.68138,1,,,,,,448,NW,"ID",33,sadent,SADENT,z,0.68138,,,,,,0.887962963,-0.196296296,0,0,0,,0,169,169,267,1,
,,,,,,,,,,,,,,,,,,5fb3a3c38a7d5903b43c1949,2020-12-03_08h22.00.443,lexical_decision_task_MP_exp2,2020.2.8,Win32,60,m,1,,,,,,,,0.6663,1,,,,,,26,WORD,"ID",16,sprint,SPRINT,m,0.6663,,,,,,0.887962963,-0.196296296,0,0,0,,0,170,170,85,1,
,,,,,,,,,,,,,,,,,,5fb3a3c38a7d5903b43c1949,2020-12-03_08h22.00.443,lexical_decision_task_MP_exp2,2020.2.8,Win32,60,z,1,,,,,,,,0.653845,1,,,,,,387,NW,UN,16,cragin,GRONCE,z,0.653845,,,,,,0.887962963,-0.196296296,0,0,0,,0,171,171,446,1,
,,,,,,,,,,,,,,,,,,5fb3a3c38a7d5903b43c1949,2020-12-03_08h22.00.443,lexical_decision_task_MP_exp2,2020.2.8,Win32,60,m,1,,,,,,,,0.917205,1,,,,,,87,WORD,UN,33,sprawl,FILTER,m,0.917205,,,,,,0.887962963,-0.196296296,0,0,0,,0,172,172,146,1,
,,,,,,,,,,,,,,,,,,5fb3a3c38a7d5903b43c1949,2020-12-03_08h22.00.443,lexical_decision_task_MP_exp2,2020.2.8,Win32,60,m,1,,,,,,,,0.71877,1,,,,,,72,WORD,UN,33,source,BRIGHT,m,0.71877,,,,,,0.887962963,-0.196296296,0,0,0,,0,173,173,131,1,
,,,,,,,,,,,,,,,,,,5fb3a3c38a7d5903b43c1949,2020-12-03_08h22.00.443,lexical_decision_task_MP_exp2,2020.2.8,Win32,60,m,1,,,,,,,,0.70352,1,,,,,,152,WORD,UN,16,behold,ROCKET,m,0.70352,,,,,,0.887962963,-0.196296296,0,0,0,,0,174,174,211,1,
,,,,,,,,,,,,,,,,,,5fb3a3c38a7d5903b43c1949,2020-12-03_08h22.00.443,lexical_decision_task_MP_exp2,2020.2.8,Win32,60,m,1,,,,,,,,0.784445,1,,,,,,148,WORD,UN,16,invade,CUSTOM,m,0.784445,,,,,,0.887962963,-0.196296296,0,0,0,,0,175,175,207,1,
,,,,,,,,,,,,,,,,,,5fb3a3c38a7d5903b43c1949,2020-12-03_08h22.00.443,lexical_decision_task_MP_exp2,2020.2.8,Win32,60,z,1,,,,,,,,0.798275,1,,,,,,435,NW,"ID",33,impurb,IMPURB,z,0.798275,,,,,,0.887962963,-0.196296296,0,0,0,,0,176,176,254,1,
,,,,,,,,,,,,,,,,,,5fb3a3c38a7d5903b43c1949,2020-12-03_08h22.00.443,lexical_decision_task_MP_exp2,2020.2.8,Win32,60,z,1,,,,,,,,1.0522,1,,,,,,416,NW,UN,16,earoud,PATHEL,z,1.0522,,,,,,0.887962963,-0.196296296,0,0,0,,0,177,177,475,1,
,,,,,,,,,,,,,,,,,,5fb3a3c38a7d5903b43c1949,2020-12-03_08h22.00.443,lexical_decision_task_MP_exp2,2020.2.8,Win32,60,z,1,,,,,,,,0.780415,1,,,,,,407,NW,UN,16,hurnia,SUIVER,z,0.780415,,,,,,0.887962963,-0.196296296,0,0,0,,0,178,178,466,1,
,,,,,,,,,,,,,,,,,,5fb3a3c38a7d5903b43c1949,2020-12-03_08h22.00.443,lexical_decision_task_MP_exp2,2020.2.8,Win32,60,m,1,,,,,,,,0.82889,1,,,,,,215,WORD,"ID",33,phobia,PHOBIA,m,0.82889,,,,,,0.887962963,-0.196296296,0,0,0,,0,179,179,34,1,
,,,,,,,,,,,,,,,,,,5fb3a3c38a7d5903b43c1949,2020-12-03_08h22.00.443,lexical_decision_task_MP_exp2,2020.2.8,Win32,60,m,1,,,,,,,,0.588175,1,,,,,,137,WORD,UN,16,melody,FINGER,m,0.588175,,,,,,0.887962963,-0.196296296,0,0,0,,0,180,180,196,1,
,,,,,,,,,,,,,,,,,,5fb3a3c38a7d5903b43c1949,2020-12-03_08h22.00.443,lexical_decision_task_MP_exp2,2020.2.8,Win32,60,z,1,,,,,,,,0.76809,1,,,,,,319,NW,UN,33,jockal,ZOMBER,z,0.76809,,,,,,0.887962963,-0.196296296,0,0,0,,0,181,181,378,1,
,,,,,,,,,,,,,,,,,,5fb3a3c38a7d5903b43c1949,2020-12-03_08h22.00.443,lexical_decision_task_MP_exp2,2020.2.8,Win32,60,z,1,,,,,,,,0.782675,1,,,,,,241,NW,"ID",16,smenco,SMENCO,z,0.782675,,,,,,0.887962963,-0.196296296,0,0,0,,0,182,182,300,1,
,,,,,,,,,,,,,,,,,,5fb3a3c38a7d5903b43c1949,2020-12-03_08h22.00.443,lexical_decision_task_MP_exp2,2020.2.8,Win32,60,z,1,,,,,,,,0.87642,1,,,,,,249,NW,"ID",16,batrol,BATROL,z,0.87642,,,,,,0.887962963,-0.196296296,0,0,0,,0,183,183,308,1,
,,,,,,,,,,,,,,,,,,5fb3a3c38a7d5903b43c1949,2020-12-03_08h22.00.443,lexical_decision_task_MP_exp2,2020.2.8,Win32,60,m,1,,,,,,,,0.605655,1,,,,,,214,WORD,"ID",33,intake,INTAKE,m,0.605655,,,,,,0.887962963,-0.196296296,0,0,0,,0,184,184,33,1,
,,,,,,,,,,,,,,,,,,5fb3a3c38a7d5903b43c1949,2020-12-03_08h22.00.443,lexical_decision_task_MP_exp2,2020.2.8,Win32,60,z,1,,,,,,,,0.6426,1,,,,,,286,NW,"ID",16,reldon,RELDON,z,0.6426,,,,,,0.887962963,-0.196296296,0,0,0,,0,185,185,345,1,
,,,,,,,,,,,,,,,,,,5fb3a3c38a7d5903b43c1949,2020-12-03_08h22.00.443,lexical_decision_task_MP_exp2,2020.2.8,Win32,60,z,1,,,,,,,,0.77894,1,,,,,,255,NW,"ID",16,apight,APIGHT,z,0.77894,,,,,,0.887962963,-0.196296296,0,0,0,,0,186,186,314,1,
,,,,,,,,,,,,,,,,,,5fb3a3c38a7d5903b43c1949,2020-12-03_08h22.00.443,lexical_decision_task_MP_exp2,2020.2.8,Win32,60,m,1,,,,,,,,0.865495,1,,,,,,131,WORD,UN,16,strong,QUENCH,m,0.865495,,,,,,0.887962963,-0.196296296,0,0,0,,0,187,187,190,1,
,,,,,,,,,,,,,,,,,,5fb3a3c38a7d5903b43c1949,2020-12-03_08h22.00.443,lexical_decision_task_MP_exp2,2020.2.8,Win32,60,m,1,,,,,,,,0.721975,1,,,,,,218,WORD,"ID",33,shrink,SHRINK,m,0.721975,,,,,,0.887962963,-0.196296296,0,0,0,,0,188,188,37,1,
,,,,,,,,,,,,,,,,,,5fb3a3c38a7d5903b43c1949,2020-12-03_08h22.00.443,lexical_decision_task_MP_exp2,2020.2.8,Win32,60,z,1,,,,,,,,0.619435,1,,,,,,315,NW,UN,33,scregm,LASTON,z,0.619435,,,,,,0.887962963,-0.196296296,0,0,0,,0,189,189,374,1,
,,,,,,,,,,,,,,,,,,5fb3a3c38a7d5903b43c1949,2020-12-03_08h22.00.443,lexical_decision_task_MP_exp2,2020.2.8,Win32,60,m,1,,,,,,,,0.755435,1,,,,,,151,WORD,UN,16,rocket,MYSTIC,m,0.755435,,,,,,0.887962963,-0.196296296,0,0,0,,0,190,190,210,1,
,,,,,,,,,,,,,,,,,,5fb3a3c38a7d5903b43c1949,2020-12-03_08h22.00.443,lexical_decision_task_MP_exp2,2020.2.8,Win32,60,m,1,,,,,,,,0.55466,1,,,,,,65,WORD,UN,33,gospel,SYMBOL,m,0.55466,,,,,,0.887962963,-0.196296296,0,0,0,,0,191,191,124,1,
,,,,,,,,,,,,,,,,,,5fb3a3c38a7d5903b43c1949,2020-12-03_08h22.00.443,lexical_decision_task_MP_exp2,2020.2.8,Win32,60,z,1,,,,,,,,0.622035,1,,,,,,274,NW,"ID",16,fumblo,FUMBLO,z,0.622035,,,,,,0.887962963,-0.196296296,0,0,0,,0,192,192,333,1,
,,,,,,,,,,,,,,,,,,5fb3a3c38a7d5903b43c1949,2020-12-03_08h22.00.443,lexical_decision_task_MP_exp2,2020.2.8,Win32,60,z,1,,,,,,,,0.782355,1,,,,,,400,NW,UN,16,mustil,WEAROX,z,0.782355,,,,,,0.887962963,-0.196296296,0,0,0,,0,193,193,459,1,
,,,,,,,,,,,,,,,,,,5fb3a3c38a7d5903b43c1949,2020-12-03_08h22.00.443,lexical_decision_task_MP_exp2,2020.2.8,Win32,60,z,1,,,,,,,,0.617695,1,,,,,,347,NW,UN,33,dumple,KERIFT,z,0.617695,,,,,,0.887962963,-0.196296296,0,0,0,,0,194,194,406,1,
,,,,,,,,,,,,,,,,,,5fb3a3c38a7d5903b43c1949,2020-12-03_08h22.00.443,lexical_decision_task_MP_exp2,2020.2.8,Win32,60,z,1,,,,,,,,0.921105,1,,,,,,346,NW,UN,33,kerift,SAUDIC,z,0.921105,,,,,,0.887962963,-0.196296296,0,0,0,,0,195,195,405,1,
,,,,,,,,,,,,,,,,,,5fb3a3c38a7d5903b43c1949,2020-12-03_08h22.00.443,lexical_decision_task_MP_exp2,2020.2.8,Win32,60,z,1,,,,,,,,0.553455,1,,,,,,366,NW,UN,16,slique,TOSHEL,z,0.553455,,,,,,0.887962963,-0.196296296,0,0,0,,0,196,196,425,1,
,,,,,,,,,,,,,,,,,,5fb3a3c38a7d5903b43c1949,2020-12-03_08h22.00.443,lexical_decision_task_MP_exp2,2020.2.8,Win32,60,m,1,,,,,,,,0.74066,1,,,,,,16,WORD,"ID",16,faucet,FAUCET,m,0.74066,,,,,,0.887962963,-0.196296296,0,0,0,,0,197,197,75,1,
,,,,,,,,,,,,,,,,,,5fb3a3c38a7d5903b43c1949,2020-12-03_08h22.00.443,lexical_decision_task_MP_exp2,2020.2.8,Win32,60,m,1,,,,,,,,0.74906,1,,,,,,168,WORD,UN,16,genius,ANSWER,m,0.74906,,,,,,0.887962963,-0.196296296,0,0,0,,0,198,198,227,1,
,,,,,,,,,,,,,,,,,,5fb3a3c38a7d5903b43c1949,2020-12-03_08h22.00.443,lexical_decision_task_MP_exp2,2020.2.8,Win32,60,m,1,,,,,,,,0.5224,1,,,,,,210,WORD,"ID",33,monkey,MONKEY,m,0.5224,,,,,,0.887962963,-0.196296296,0,0,0,,0,199,199,29,1,
,,,,,,,,,,,,,,,,,,5fb3a3c38a7d5903b43c1949,2020-12-03_08h22.00.443,lexical_decision_task_MP_exp2,2020.2.8,Win32,60,z,1,,,,,,,,0.56995,1,,,,,,451,NW,"ID",33,cainky,CAINKY,z,0.56995,,,,,,0.887962963,-0.196296296,0,0,0,,0,200,200,270,1,
,,,,,,,,,,,,,,,,,,5fb3a3c38a7d5903b43c1949,2020-12-03_08h22.00.443,lexical_decision_task_MP_exp2,2020.2.8,Win32,60,m,1,,,,,,,,0.931355,1,,,,,,84,WORD,UN,33,strand,MORTAL,m,0.931355,,,,,,0.887962963,-0.196296296,0,0,0,,0,201,201,143,1,
,,,,,,,,,,,,,,,,,,5fb3a3c38a7d5903b43c1949,2020-12-03_08h22.00.443,lexical_decision_task_MP_exp2,2020.2.8,Win32,60,m,0,,,,,,,,0.811145,0,,,,,,248,NW,"ID",16,strole,STROLE,z,0.811145,,,,,,0.887962963,-0.196296296,0,0,0,,0,202,202,307,1,
,,,,,,,,,,,,,,,,,,5fb3a3c38a7d5903b43c1949,2020-12-03_08h22.00.443,lexical_decision_task_MP_exp2,2020.2.8,Win32,60,z,1,,,,,,,,0.62424,1,,,,,,308,NW,UN,33,amiloy,PSETCH,z,0.62424,,,,,,0.887962963,-0.196296296,0,0,0,,0,203,203,367,1,
,,,,,,,,,,,,,,,,,,5fb3a3c38a7d5903b43c1949,2020-12-03_08h22.00.443,lexical_decision_task_MP_exp2,2020.2.8,Win32,60,m,1,,,,,,,,0.69789,1,,,,,,92,WORD,UN,33,public,STRAND,m,0.69789,,,,,,0.887962963,-0.196296296,0,0,0,,0,204,204,151,1,
,,,,,,,,,,,,,,,,,,5fb3a3c38a7d5903b43c1949,2020-12-03_08h22.00.443,lexical_decision_task_MP_exp2,2020.2.8,Win32,60,z,1,,,,,,,,0.811195,1,,,,,,460,NW,"ID",33,mingar,MINGAR,z,0.811195,,,,,,0.887962963,-0.196296296,0,0,0,,0,205,205,279,1,
,,,,,,,,,,,,,,,,,,5fb3a3c38a7d5903b43c1949,2020-12-03_08h22.00.443,lexical_decision_task_MP_exp2,2020.2.8,Win32,60,m,0,,,,,,,,0.629365,0,,,,,,254,NW,"ID",16,varosh,VAROSH,z,0.629365,,,,,,0.887962963,-0.196296296,0,0,0,,0,206,206,313,1,
,,,,,,,,,,,,,,,,,,5fb3a3c38a7d5903b43c1949,2020-12-03_08h22.00.443,lexical_decision_task_MP_exp2,2020.2.8,Win32,60,z,1,,,,,,,,0.777475,1,,,,,,412,NW,UN,16,equats,JILUER,z,0.777475,,,,,,0.887962963,-0.196296296,0,0,0,,0,207,207,471,1,
,,,,,,,,,,,,,,,,,,5fb3a3c38a7d5903b43c1949,2020-12-03_08h22.00.443,lexical_decision_task_MP_exp2,2020.2.8,Win32,60,z,1,,,,,,,,0.64442,1,,,,,,417,NW,UN,16,suidle,EAROUD,z,0.64442,,,,,,0.887962963,-0.196296296,0,0,0,,0,208,208,476,1,
,,,,,,,,,,,,,,,,,,5fb3a3c38a7d5903b43c1949,2020-12-03_08h22.00.443,lexical_decision_task_MP_exp2,2020.2.8,Win32,60,z,1,,,,,,,,1.00157,1,,,,,,342,NW,UN,33,aimosy,RANDOW,z,1.00157,,,,,,0.887962963,-0.196296296,0,0,0,,0,209,209,401,1,
,,,,,,,,,,,,,,,,,,5fb3a3c38a7d5903b43c1949,2020-12-03_08h22.00.443,lexical_decision_task_MP_exp2,2020.2.8,Win32,60,m,1,,,,,,,,0.765295,1,,,,,,178,WORD,UN,16,basket,INFORM,m,0.765295,,,,,,0.887962963,-0.196296296,0,0,0,,0,210,210,237,1,
,,,,,,,,,,,,,,,,,,5fb3a3c38a7d5903b43c1949,2020-12-03_08h22.00.443,lexical_decision_task_MP_exp2,2020.2.8,Win32,60,m,0,,,,,,,,0.87351,0,,,,,,303,NW,UN,33,cludie,FIREAM,z,0.87351,,,,,,0.887962963,-0.196296296,0,0,0,,0,211,211,362,1,
,,,,,,,,,,,,,,,,,,5fb3a3c38a7d5903b43c1949,2020-12-03_08h22.00.443,lexical_decision_task_MP_exp2,2020.2.8,Win32,60,z,1,,,,,,,,0.992795,1,,,,,,246,NW,"ID",16,piaton,PIATON,z,0.992795,,,,,,0.887962963,-0.196296296,0,0,0,,0,212,212,305,1,
,,,,,,,,,,,,,,,,,,5fb3a3c38a7d5903b43c1949,2020-12-03_08h22.00.443,lexical_decision_task_MP_exp2,2020.2.8,Win32,60,m,1,,,,,,,,0.813505,1,,,,,,161,WORD,UN,16,candle,PASTOR,m,0.813505,,,,,,0.887962963,-0.196296296,0,0,0,,0,213,213,220,1,
,,,,,,,,,,,,,,,,,,5fb3a3c38a7d5903b43c1949,2020-12-03_08h22.00.443,lexical_decision_task_MP_exp2,2020.2.8,Win32,60,z,1,,,,,,,,0.74296,1,,,,,,271,NW,"ID",16,aubrid,AUBRID,z,0.74296,,,,,,0.887962963,-0.196296296,0,0,0,,0,214,214,330,1,
,,,,,,,,,,,,,,,,,,5fb3a3c38a7d5903b43c1949,2020-12-03_08h22.00.443,lexical_decision_task_MP_exp2,2020.2.8,Win32,60,z,1,,,,,,,,0.79277,1,,,,,,406,NW,UN,16,suiver,NOUPLY,z,0.79277,,,,,,0.887962963,-0.196296296,0,0,0,,0,215,215,465,1,
,,,,,,,,,,,,,,,,,,5fb3a3c38a7d5903b43c1949,2020-12-03_08h22.00.443,lexical_decision_task_MP_exp2,2020.2.8,Win32,60,z,1,,,,,,,,0.70292,1,,,,,,331,NW,UN,33,vangue,GILFEW,z,0.70292,,,,,,0.887962963,-0.196296296,0,0,0,,0,216,216,390,1,
,,,,,,,,,,,,,,,,,,5fb3a3c38a7d5903b43c1949,2020-12-03_08h22.00.443,lexical_decision_task_MP_exp2,2020.2.8,Win32,60,m,1,,,,,,,,1.019875,1,,,,,,113,WORD,UN,33,placid,CHORUS,m,1.019875,,,,,,0.887962963,-0.196296296,0,0,0,,0,217,217,172,1,
,,,,,,,,,,,,,,,,,,5fb3a3c38a7d5903b43c1949,2020-12-03_08h22.00.443,lexical_decision_task_MP_exp2,2020.2.8,Win32,60,z,1,,,,,,,,0.75242,1,,,,,,261,NW,"ID",16,stunch,STUNCH,z,0.75242,,,,,,0.887962963,-0.196296296,0,0,0,,0,218,218,320,1,
,,,,,,,,,,,,,,,,,,5fb3a3c38a7d5903b43c1949,2020-12-03_08h22.00.443,lexical_decision_task_MP_exp2,2020.2.8,Win32,60,z,1,,,,,,,,1.01972,1,,,,,,478,NW,"ID",33,acrise,ACRISE,z,1.01972,,,,,,0.887962963,-0.196296296,0,0,0,,0,219,219,297,1,
,,,,,,,,,,,,,,,,,,5fb3a3c38a7d5903b43c1949,2020-12-03_08h22.00.443,lexical_decision_task_MP_exp2,2020.2.8,Win32,60,z,1,,,,,,,,0.709085,1,,,,,,463,NW,"ID",33,kispel,KISPEL,z,0.709085,,,,,,0.887962963,-0.196296296,0,0,0,,0,220,220,282,1,
,,,,,,,,,,,,,,,,,,5fb3a3c38a7d5903b43c1949,2020-12-03_08h22.00.443,lexical_decision_task_MP_exp2,2020.2.8,Win32,60,z,1,,,,,,,,0.70143,1,,,,,,350,NW,UN,33,tiesch,NAGURS,z,0.70143,,,,,,0.887962963,-0.196296296,0,0,0,,0,221,221,409,1,
,,,,,,,,,,,,,,,,,,5fb3a3c38a7d5903b43c1949,2020-12-03_08h22.00.443,lexical_decision_task_MP_exp2,2020.2.8,Win32,60,m,1,,,,,,,,0.723085,1,,,,,,3,WORD,"ID",16,knight,KNIGHT,m,0.723085,,,,,,0.887962963,-0.196296296,0,0,0,,0,222,222,62,1,
,,,,,,,,,,,,,,,,,,5fb3a3c38a7d5903b43c1949,2020-12-03_08h22.00.443,lexical_decision_task_MP_exp2,2020.2.8,Win32,60,z,1,,,,,,,,0.96745,1,,,,,,363,NW,UN,16,impote,BREALI,z,0.96745,,,,,,0.887962963,-0.196296296,0,0,0,,0,223,223,422,1,
,,,,,,,,,,,,,,,,,,5fb3a3c38a7d5903b43c1949,2020-12-03_08h22.00.443,lexical_decision_task_MP_exp2,2020.2.8,Win32,60,z,1,,,,,,,,0.87172,1,,,,,,420,NW,UN,16,pauche,GUSHOP,z,0.87172,,,,,,0.887962963,-0.196296296,0,0,0,,0,224,224,479,1,
,,,,,,,,,,,,,,,,,,5fb3a3c38a7d5903b43c1949,2020-12-03_08h22.00.443,lexical_decision_task_MP_exp2,2020.2.8,Win32,60,z,1,,,,,,,,1.04988,1,,,,,,473,NW,"ID",33,crible,CRIBLE,z,1.04988,,,,,,0.887962963,-0.196296296,0,0,0,,0,225,225,292,1,
,,,,,,,,,,,,,,,,,,5fb3a3c38a7d5903b43c1949,2020-12-03_08h22.00.443,lexical_decision_task_MP_exp2,2020.2.8,Win32,60,z,1,,,,,,,,0.73071,1,,,,,,354,NW,UN,33,zingly,VIRLEX,z,0.73071,,,,,,0.887962963,-0.196296296,0,0,0,,0,226,226,413,1,
,,,,,,,,,,,,,,,,,,5fb3a3c38a7d5903b43c1949,2020-12-03_08h22.00.443,lexical_decision_task_MP_exp2,2020.2.8,Win32,60,m,1,,,,,,,,0.685975,1,,,,,,221,WORD,"ID",33,mascot,MASCOT,m,0.685975,,,,,,0.887962963,-0.196296296,0,0,0,,0,227,227,40,1,
,,,,,,,,,,,,,,,,,,5fb3a3c38a7d5903b43c1949,2020-12-03_08h22.00.443,lexical_decision_task_MP_exp2,2020.2.8,Win32,60,z,1,,,,,,,,0.75817,1,,,,,,423,NW,"ID",33,streld,STRELD,z,0.75817,,,,,,0.887962963,-0.196296296,0,0,0,,0,228,228,242,1,
,,,,,,,,,,,,,,,,,,5fb3a3c38a7d5903b43c1949,2020-12-03_08h22.00.443,lexical_decision_task_MP_exp2,2020.2.8,Win32,60,z,1,,,,,,,,0.73313,1,,,,,,324,NW,UN,33,thruse,STEIKH,z,0.73313,,,,,,0.887962963,-0.196296296,0,0,0,,0,229,229,383,1,
,,,,,,,,,,,,,,,,,,5fb3a3c38a7d5903b43c1949,2020-12-03_08h22.00.443,lexical_decision_task_MP_exp2,2020.2.8,Win32,60,m,1,,,,,,,,0.834685,1,,,,,,78,WORD,UN,33,theory,COLUMN,m,0.834685,,,,,,0.887962963,-0.196296296,0,0,0,,0,230,230,137,1,
,,,,,,,,,,,,,,,,,,5fb3a3c38a7d5903b43c1949,2020-12-03_08h22.00.443,lexical_decision_task_MP_exp2,2020.2.8,Win32,60,m,1,,,,,,,,0.931885,1,,,,,,158,WORD,UN,16,detail,ISLAND,m,0.931885,,,,,,0.887962963,-0.196296296,0,0,0,,0,231,231,217,1,
,,,,,,,,,,,,,,,,,,5fb3a3c38a7d5903b43c1949,2020-12-03_08h22.00.443,lexical_decision_task_MP_exp2,2020.2.8,Win32,60,m,1,,,,,,,,0.646695,1,,,,,,93,WORD,UN,33,travel,PUBLIC,m,0.646695,,,,,,0.887962963,-0.196296296,0,0,0,,0,232,232,152,1,
,,,,,,,,,,,,,,,,,,5fb3a3c38a7d5903b43c1949,2020-12-03_08h22.00.443,lexical_decision_task_MP_exp2,2020.2.8,Win32,60,z,1,,,,,,,,1.072045,1,,,,,,433,NW,"ID",33,drance,DRANCE,z,1.072045,,,,,,0.887962963,-0.196296296,0,0,0,,0,233,233,252,1,
,,,,,,,,,,,,,,,,,,5fb3a3c38a7d5903b43c1949,2020-12-03_08h22.00.443,lexical_decision_task_MP_exp2,2020.2.8,Win32,60,m,1,,,,,,,,0.82843,1,,,,,,166,WORD,UN,16,design,STARCH,m,0.82843,,,,,,0.887962963,-0.196296296,0,0,0,,0,234,234,225,1,
,,,,,,,,,,,,,,,,,,5fb3a3c38a7d5903b43c1949,2020-12-03_08h22.00.443,lexical_decision_task_MP_exp2,2020.2.8,Win32,60,m,1,,,,,,,,0.683575,1,,,,,,207,WORD,"ID",33,wreath,WREATH,m,0.683575,,,,,,0.887962963,-0.196296296,0,0,0,,0,235,235,26,1,
,,,,,,,,,,,,,,,,,,5fb3a3c38a7d5903b43c1949,2020-12-03_08h22.00.443,lexical_decision_task_MP_exp2,2020.2.8,Win32,60,m,1,,,,,,,,0.81517,1,,,,,,45,WORD,"ID",16,clergy,CLERGY,m,0.81517,,,,,,0.887962963,-0.196296296,0,0,0,,0,236,236,104,1,
,,,,,,,,,,,,,,,,,,5fb3a3c38a7d5903b43c1949,2020-12-03_08h22.00.443,lexical_decision_task_MP_exp2,2020.2.8,Win32,60,z,1,,,,,,,,0.701915,1,,,,,,283,NW,"ID",16,veralf,VERALF,z,0.701915,,,,,,0.887962963,-0.196296296,0,0,0,,0,237,237,342,1,
,,,,,,,,,,,,,,,,,,5fb3a3c38a7d5903b43c1949,2020-12-03_08h22.00.443,lexical_decision_task_MP_exp2,2020.2.8,Win32,60,z,1,,,,,,,,1.014185,1,,,,,,245,NW,"ID",16,anougs,ANOUGS,z,1.014185,,,,,,0.887962963,-0.196296296,0,0,0,,0,238,238,304,1,
,,,,,,,,,,,,,,,,,,5fb3a3c38a7d5903b43c1949,2020-12-03_08h22.00.443,lexical_decision_task_MP_exp2,2020.2.8,Win32,60,z,1,,,,,,,,0.81674,1,,,,,,457,NW,"ID",33,wanigh,WANIGH,z,0.81674,,,,,,0.887962963,-0.196296296,0,0,0,,0,239,239,276,1,
,,,,,,,,,,,,,,,,,,5fb3a3c38a7d5903b43c1949,2020-12-03_08h22.00.443,lexical_decision_task_MP_exp2,2020.2.8,Win32,60,m,1,,,,,,,,0.797885,1,,,,,,21,WORD,"ID",16,simple,SIMPLE,m,0.797885,,,,,,0.887962963,-0.196296296,0,0,0,,0,240,240,80,1,
,,,,,,,,,,,,,,,,,,5fb3a3c38a7d5903b43c1949,2020-12-03_08h22.00.443,lexical_decision_task_MP_exp2,2020.2.8,Win32,60,z,1,,,,,,,,0.916035,1,,,,,,395,NW,UN,16,flengy,COLURY,z,0.916035,,,,,,0.887962963,-0.196296296,0,0,0,space,0,241,241,454,1,11.202085
,,,,,,,,,,,,,,,,,,5fb3a3c38a7d5903b43c1949,2020-12-03_08h22.00.443,lexical_decision_task_MP_exp2,2020.2.8,Win32,60,,0,,,,,,,,0.916035,-1,,,,,,1,WORD,"ID",16,fright,FRIGHT,m,,,,,,,0.887962963,-0.196296296,0,0,0,,0,242,242,60,1,
,,,,,,,,,,,,,,,,,,5fb3a3c38a7d5903b43c1949,2020-12-03_08h22.00.443,lexical_decision_task_MP_exp2,2020.2.8,Win32,60,m,1,,,,,,,,1.027065,1,,,,,,59,WORD,"ID",16,splint,SPLINT,m,1.027065,,,,,,0.887962963,-0.196296296,0,0,0,,0,243,243,118,1,
,,,,,,,,,,,,,,,,,,5fb3a3c38a7d5903b43c1949,2020-12-03_08h22.00.443,lexical_decision_task_MP_exp2,2020.2.8,Win32,60,z,1,,,,,,,,0.598805,1,,,,,,422,NW,"ID",33,alcoud,ALCOUD,z,0.598805,,,,,,0.887962963,-0.196296296,0,0,0,,0,244,244,241,1,
,,,,,,,,,,,,,,,,,,5fb3a3c38a7d5903b43c1949,2020-12-03_08h22.00.443,lexical_decision_task_MP_exp2,2020.2.8,Win32,60,m,1,,,,,,,,0.68362,1,,,,,,202,WORD,"ID",33,factor,FACTOR,m,0.68362,,,,,,0.887962963,-0.196296296,0,0,0,,0,245,245,21,1,
,,,,,,,,,,,,,,,,,,5fb3a3c38a7d5903b43c1949,2020-12-03_08h22.00.443,lexical_decision_task_MP_exp2,2020.2.8,Win32,60,m,1,,,,,,,,0.86288,1,,,,,,118,WORD,UN,33,spider,FLIGHT,m,0.86288,,,,,,0.887962963,-0.196296296,0,0,0,,0,246,246,177,1,
,,,,,,,,,,,,,,,,,,5fb3a3c38a7d5903b43c1949,2020-12-03_08h22.00.443,lexical_decision_task_MP_exp2,2020.2.8,Win32,60,m,1,,,,,,,,0.5894,1,,,,,,91,WORD,UN,33,hunger,EXPAND,m,0.5894,,,,,,0.887962963,-0.196296296,0,0,0,,0,247,247,150,1,
,,,,,,,,,,,,,,,,,,5fb3a3c38a7d5903b43c1949,2020-12-03_08h22.00.443,lexical_decision_task_MP_exp2,2020.2.8,Win32,60,z,1,,,,,,,,0.75513,1,,,,,,409,NW,UN,16,tunory,ELOPIA,z,0.75513,,,,,,0.887962963,-0.196296296,0,0,0,,0,248,248,468,1,
,,,,,,,,,,,,,,,,,,5fb3a3c38a7d5903b43c1949,2020-12-03_08h22.00.443,lexical_decision_task_MP_exp2,2020.2.8,Win32,60,m,1,,,,,,,,0.738655,1,,,,,,63,WORD,UN,33,throne,LAUNCH,m,0.738655,,,,,,0.887962963,-0.196296296,0,0,0,,0,249,249,122,1,
,,,,,,,,,,,,,,,,,,5fb3a3c38a7d5903b43c1949,2020-12-03_08h22.00.443,lexical_decision_task_MP_exp2,2020.2.8,Win32,60,m,1,,,,,,,,0.59312,1,,,,,,174,WORD,UN,16,fabric,TURKEY,m,0.59312,,,,,,0.887962963,-0.196296296,0,0,0,,0,250,250,233,1,
,,,,,,,,,,,,,,,,,,5fb3a3c38a7d5903b43c1949,2020-12-03_08h22.00.443,lexical_decision_task_MP_exp2,2020.2.8,Win32,60,m,1,,,,,,,,0.699205,1,,,,,,165,WORD,UN,16,starch,INVEST,m,0.699205,,,,,,0.887962963,-0.196296296,0,0,0,,0,251,251,224,1,
,,,,,,,,,,,,,,,,,,5fb3a3c38a7d5903b43c1949,2020-12-03_08h22.00.443,lexical_decision_task_MP_exp2,2020.2.8,Win32,60,z,1,,,,,,,,0.759195,1,,,,,,398,NW,UN,16,fouret,BLUNDE,z,0.759195,,,,,,0.887962963,-0.196296296,0,0,0,,0,252,252,457,1,
,,,,,,,,,,,,,,,,,,5fb3a3c38a7d5903b43c1949,2020-12-03_08h22.00.443,lexical_decision_task_MP_exp2,2020.2.8,Win32,60,m,1,,,,,,,,0.58978,1,,,,,,53,WORD,"ID",16,police,POLICE,m,0.58978,,,,,,0.887962963,-0.196296296,0,0,0,,0,253,253,112,1,
,,,,,,,,,,,,,,,,,,5fb3a3c38a7d5903b43c1949,2020-12-03_08h22.00.443,lexical_decision_task_MP_exp2,2020.2.8,Win32,60,z,1,,,,,,,,0.701075,1,,,,,,403,NW,UN,16,cluirm,BRUATS,z,0.701075,,,,,,0.887962963,-0.196296296,0,0,0,,0,254,254,462,1,
,,,,,,,,,,,,,,,,,,5fb3a3c38a7d5903b43c1949,2020-12-03_08h22.00.443,lexical_decision_task_MP_exp2,2020.2.8,Win32,60,z,1,,,,,,,,0.81386,1,,,,,,305,NW,UN,33,sounge,FORGLE,z,0.81386,,,,,,0.887962963,-0.196296296,0,0,0,,0,255,255,364,1,
,,,,,,,,,,,,,,,,,,5fb3a3c38a7d5903b43c1949,2020-12-03_08h22.00.443,lexical_decision_task_MP_exp2,2020.2.8,Win32,60,z,1,,,,,,,,0.617065,1,,,,,,362,NW,UN,16,breali,TIREAU,z,0.617065,,,,,,0.887962963,-0.196296296,0,0,0,,0,256,256,421,1,
,,,,,,,,,,,,,,,,,,5fb3a3c38a7d5903b43c1949,2020-12-03_08h22.00.443,lexical_decision_task_MP_exp2,2020.2.8,Win32,60,m,1,,,,,,,,0.794985,1,,,,,,194,WORD,"ID",33,absent,ABSENT,m,0.794985,,,,,,0.887962963,-0.196296296,0,0,0,,0,257,257,13,1,
,,,,,,,,,,,,,,,,,,5fb3a3c38a7d5903b43c1949,2020-12-03_08h22.00.443,lexical_decision_task_MP_exp2,2020.2.8,Win32,60,m,1,,,,,,,,0.60453,1,,,,,,154,WORD,UN,16,lizard,AUTHOR,m,0.60453,,,,,,0.887962963,-0.196296296,0,0,0,,0,258,258,213,1,
,,,,,,,,,,,,,,,,,,5fb3a3c38a7d5903b43c1949,2020-12-03_08h22.00.443,lexical_decision_task_MP_exp2,2020.2.8,Win32,60,m,1,,,,,,,,0.68372,1,,,,,,175,WORD,UN,16,strife,FABRIC,m,0.68372,,,,,,0.887962963,-0.196296296,0,0,0,,0,259,259,234,1,
,,,,,,,,,,,,,,,,,,5fb3a3c38a7d5903b43c1949,2020-12-03_08h22.00.443,lexical_decision_task_MP_exp2,2020.2.8,Win32,60,m,1,,,,,,,,0.702825,1,,,,,,74,WORD,UN,33,trophy,PLAQUE,m,0.702825,,,,,,0.887962963,-0.196296296,0,0,0,,0,260,260,133,1,
,,,,,,,,,,,,,,,,,,5fb3a3c38a7d5903b43c1949,2020-12-03_08h22.00.443,lexical_decision_task_MP_exp2,2020.2.8,Win32,60,m,1,,,,,,,,0.63194,1,,,,,,129,WORD,UN,16,stupid,MARVEL,m,0.63194,,,,,,0.887962963,-0.196296296,0,0,0,,0,261,261,188,1,
,,,,,,,,,,,,,,,,,,5fb3a3c38a7d5903b43c1949,2020-12-03_08h22.00.443,lexical_decision_task_MP_exp2,2020.2.8,Win32,60,z,1,,,,,,,,0.62904,1,,,,,,415,NW,UN,16,pathel,HIGSTA,z,0.62904,,,,,,0.887962963,-0.196296296,0,0,0,,0,262,262,474,1,
,,,,,,,,,,,,,,,,,,5fb3a3c38a7d5903b43c1949,2020-12-03_08h22.00.443,lexical_decision_task_MP_exp2,2020.2.8,Win32,60,z,1,,,,,,,,1.00346,1,,,,,,277,NW,"ID",16,petain,PETAIN,z,1.00346,,,,,,0.887962963,-0.196296296,0,0,0,,0,263,263,336,1,
,,,,,,,,,,,,,,,,,,5fb3a3c38a7d5903b43c1949,2020-12-03_08h22.00.443,lexical_decision_task_MP_exp2,2020.2.8,Win32,60,z,1,,,,,,,,0.750685,1,,,,,,454,NW,"ID",33,scouge,SCOUGE,z,0.750685,,,,,,0.887962963,-0.196296296,0,0,0,,0,264,264,273,1,
,,,,,,,,,,,,,,,,,,5fb3a3c38a7d5903b43c1949,2020-12-03_08h22.00.443,lexical_decision_task_MP_exp2,2020.2.8,Win32,60,z,0,,,,,,,,0.70296,0,,,,,,46,WORD,"ID",16,single,SINGLE,m,0.70296,,,,,,0.887962963,-0.196296296,0,0,0,,0,265,265,105,1,
,,,,,,,,,,,,,,,,,,5fb3a3c38a7d5903b43c1949,2020-12-03_08h22.00.443,lexical_decision_task_MP_exp2,2020.2.8,Win32,60,z,1,,,,,,,,0.98476,1,,,,,,267,NW,"ID",16,pasink,PASINK,z,0.98476,,,,,,0.887962963,-0.196296296,0,0,0,,0,266,266,326,1,
,,,,,,,,,,,,,,,,,,5fb3a3c38a7d5903b43c1949,2020-12-03_08h22.00.443,lexical_decision_task_MP_exp2,2020.2.8,Win32,60,z,1,,,,,,,,0.69237,1,,,,,,445,NW,"ID",33,minkel,MINKEL,z,0.69237,,,,,,0.887962963,-0.196296296,0,0,0,,0,267,267,264,1,
,,,,,,,,,,,,,,,,,,5fb3a3c38a7d5903b43c1949,2020-12-03_08h22.00.443,lexical_decision_task_MP_exp2,2020.2.8,Win32,60,z,1,,,,,,,,0.752305,1,,,,,,340,NW,UN,33,myrtie,FIATCH,z,0.752305,,,,,,0.887962963,-0.196296296,0,0,0,,0,268,268,399,1,
,,,,,,,,,,,,,,,,,,5fb3a3c38a7d5903b43c1949,2020-12-03_08h22.00.443,lexical_decision_task_MP_exp2,2020.2.8,Win32,60,m,1,,,,,,,,0.7302,1,,,,,,110,WORD,UN,33,induce,POLITE,m,0.7302,,,,,,0.887962963,-0.196296296,0,0,0,,0,269,269,169,1,
,,,,,,,,,,,,,,,,,,5fb3a3c38a7d5903b43c1949,2020-12-03_08h22.00.443,lexical_decision_task_MP_exp2,2020.2.8,Win32,60,m,1,,,,,,,,0.77456,1,,,,,,47,WORD,"ID",16,income,INCOME,m,0.77456,,,,,,0.887962963,-0.196296296,0,0,0,,0,270,270,106,1,
,,,,,,,,,,,,,,,,,,5fb3a3c38a7d5903b43c1949,2020-12-03_08h22.00.443,lexical_decision_task_MP_exp2,2020.2.8,Win32,60,z,1,,,,,,,,0.75129,1,,,,,,404,NW,UN,16,flumni,CLUIRM,z,0.75129,,,,,,0.887962963,-0.196296296,0,0,0,,0,271,271,463,1,
,,,,,,,,,,,,,,,,,,5fb3a3c38a7d5903b43c1949,2020-12-03_08h22.00.443,lexical_decision_task_MP_exp2,2020.2.8,Win32,60,m,1,,,,,,,,0.908505,1,,,,,,187,WORD,"ID",33,course,COURSE,m,0.908505,,,,,,0.887962963,-0.196296296,0,0,0,,0,272,272,6,1,
,,,,,,,,,,,,,,,,,,5fb3a3c38a7d5903b43c1949,2020-12-03_08h22.00.443,lexical_decision_task_MP_exp2,2020.2.8,Win32,60,z,1,,,,,,,,0.793995,1,,,,,,272,NW,"ID",16,damilt,DAMILT,z,0.793995,,,,,,0.887962963,-0.196296296,0,0,0,,0,273,273,331,1,
,,,,,,,,,,,,,,,,,,5fb3a3c38a7d5903b43c1949,2020-12-03_08h22.00.443,lexical_decision_task_MP_exp2,2020.2.8,Win32,60,z,1,,,,,,,,0.68984,1,,,,,,476,NW,"ID",33,josted,JOSTED,z,0.68984,,,,,,0.887962963,-0.196296296,0,0,0,,0,274,274,295,1,
,,,,,,,,,,,,,,,,,,5fb3a3c38a7d5903b43c1949,2020-12-03_08h22.00.443,lexical_decision_task_MP_exp2,2020.2.8,Win32,60,z,0,,,,,,,,0.926375,0,,,,,,106,WORD,UN,33,slogan,RANSOM,m,0.926375,,,,,,0.887962963,-0.196296296,0,0,0,,0,275,275,165,1,
,,,,,,,,,,,,,,,,,,5fb3a3c38a7d5903b43c1949,2020-12-03_08h22.00.443,lexical_decision_task_MP_exp2,2020.2.8,Win32,60,m,1,,,,,,,,0.8422,1,,,,,,68,WORD,UN,33,plenty,FUMBLE,m,0.8422,,,,,,0.887962963,-0.196296296,0,0,0,,0,276,276,127,1,
,,,,,,,,,,,,,,,,,,5fb3a3c38a7d5903b43c1949,2020-12-03_08h22.00.443,lexical_decision_task_MP_exp2,2020.2.8,Win32,60,z,1,,,,,,,,0.633145,1,,,,,,336,NW,UN,33,rejols,GHODUS,z,0.633145,,,,,,0.887962963,-0.196296296,0,0,0,,0,277,277,395,1,
,,,,,,,,,,,,,,,,,,5fb3a3c38a7d5903b43c1949,2020-12-03_08h22.00.443,lexical_decision_task_MP_exp2,2020.2.8,Win32,60,m,1,,,,,,,,0.860065,1,,,,,,82,WORD,UN,33,result,STIGMA,m,0.860065,,,,,,0.887962963,-0.196296296,0,0,0,,0,278,278,141,1,
,,,,,,,,,,,,,,,,,,5fb3a3c38a7d5903b43c1949,2020-12-03_08h22.00.443,lexical_decision_task_MP_exp2,2020.2.8,Win32,60,z,1,,,,,,,,0.76287,1,,,,,,242,NW,"ID",16,unwert,UNWERT,z,0.76287,,,,,,0.887962963,-0.196296296,0,0,0,,0,279,279,301,1,
,,,,,,,,,,,,,,,,,,5fb3a3c38a7d5903b43c1949,2020-12-03_08h22.00.443,lexical_decision_task_MP_exp2,2020.2.8,Win32,60,z,1,,,,,,,,0.761435,1,,,,,,450,NW,"ID",33,phrect,PHRECT,z,0.761435,,,,,,0.887962963,-0.196296296,0,0,0,,0,280,280,269,1,
,,,,,,,,,,,,,,,,,,5fb3a3c38a7d5903b43c1949,2020-12-03_08h22.00.443,lexical_decision_task_MP_exp2,2020.2.8,Win32,60,z,1,,,,,,,,0.69651,1,,,,,,461,NW,"ID",33,justre,JUSTRE,z,0.69651,,,,,,0.887962963,-0.196296296,0,0,0,,0,281,281,280,1,
,,,,,,,,,,,,,,,,,,5fb3a3c38a7d5903b43c1949,2020-12-03_08h22.00.443,lexical_decision_task_MP_exp2,2020.2.8,Win32,60,z,1,,,,,,,,0.762905,1,,,,,,425,NW,"ID",33,frudge,FRUDGE,z,0.762905,,,,,,0.887962963,-0.196296296,0,0,0,,0,282,282,244,1,
,,,,,,,,,,,,,,,,,,5fb3a3c38a7d5903b43c1949,2020-12-03_08h22.00.443,lexical_decision_task_MP_exp2,2020.2.8,Win32,60,m,1,,,,,,,,0.647915,1,,,,,,208,WORD,"ID",33,hockey,HOCKEY,m,0.647915,,,,,,0.887962963,-0.196296296,0,0,0,,0,283,283,27,1,
,,,,,,,,,,,,,,,,,,5fb3a3c38a7d5903b43c1949,2020-12-03_08h22.00.443,lexical_decision_task_MP_exp2,2020.2.8,Win32,60,m,1,,,,,,,,0.71149,1,,,,,,149,WORD,UN,16,random,INVADE,m,0.71149,,,,,,0.887962963,-0.196296296,0,0,0,,0,284,284,208,1,
,,,,,,,,,,,,,,,,,,5fb3a3c38a7d5903b43c1949,2020-12-03_08h22.00.443,lexical_decision_task_MP_exp2,2020.2.8,Win32,60,z,0,,,,,,,,0.86805,0,,,,,,239,WORD,"ID",33,lumber,LUMBER,m,0.86805,,,,,,0.887962963,-0.196296296,0,0,0,,0,285,285,58,1,
,,,,,,,,,,,,,,,,,,5fb3a3c38a7d5903b43c1949,2020-12-03_08h22.00.443,lexical_decision_task_MP_exp2,2020.2.8,Win32,60,m,1,,,,,,,,0.71463,1,,,,,,108,WORD,UN,33,wonder,RECKON,m,0.71463,,,,,,0.887962963,-0.196296296,0,0,0,,0,286,286,167,1,
,,,,,,,,,,,,,,,,,,5fb3a3c38a7d5903b43c1949,2020-12-03_08h22.00.443,lexical_decision_task_MP_exp2,2020.2.8,Win32,60,z,1,,,,,,,,0.926345,1,,,,,,377,NW,UN,16,shrile,INJORE,z,0.926345,,,,,,0.887962963,-0.196296296,0,0,0,,0,287,287,436,1,
,,,,,,,,,,,,,,,,,,5fb3a3c38a7d5903b43c1949,2020-12-03_08h22.00.443,lexical_decision_task_MP_exp2,2020.2.8,Win32,60,m,0,,,,,,,,0.828675,0,,,,,,291,NW,"ID",16,pretch,PRETCH,z,0.828675,,,,,,0.887962963,-0.196296296,0,0,0,,0,288,288,350,1,
,,,,,,,,,,,,,,,,,,5fb3a3c38a7d5903b43c1949,2020-12-03_08h22.00.443,lexical_decision_task_MP_exp2,2020.2.8,Win32,60,z,0,,,,,,,,0.616225,0,,,,,,191,WORD,"ID",33,stable,STABLE,m,0.616225,,,,,,0.887962963,-0.196296296,0,0,0,,0,289,289,10,1,
,,,,,,,,,,,,,,,,,,5fb3a3c38a7d5903b43c1949,2020-12-03_08h22.00.443,lexical_decision_task_MP_exp2,2020.2.8,Win32,60,z,1,,,,,,,,0.717965,1,,,,,,379,NW,UN,16,cavory,AUTING,z,0.717965,,,,,,0.887962963,-0.196296296,0,0,0,,0,290,290,438,1,
,,,,,,,,,,,,,,,,,,5fb3a3c38a7d5903b43c1949,2020-12-03_08h22.00.443,lexical_decision_task_MP_exp2,2020.2.8,Win32,60,m,1,,,,,,,,0.81459,1,,,,,,181,WORD,"ID",33,glance,GLANCE,m,0.81459,,,,,,0.887962963,-0.196296296,0,0,0,,0,291,291,0,1,
,,,,,,,,,,,,,,,,,,5fb3a3c38a7d5903b43c1949,2020-12-03_08h22.00.443,lexical_decision_task_MP_exp2,2020.2.8,Win32,60,m,1,,,,,,,,0.7534,1,,,,,,70,WORD,UN,33,garden,SQUARE,m,0.7534,,,,,,0.887962963,-0.196296296,0,0,0,,0,292,292,129,1,
,,,,,,,,,,,,,,,,,,5fb3a3c38a7d5903b43c1949,2020-12-03_08h22.00.443,lexical_decision_task_MP_exp2,2020.2.8,Win32,60,m,1,,,,,,,,0.70704,1,,,,,,211,WORD,"ID",33,infect,INFECT,m,0.70704,,,,,,0.887962963,-0.196296296,0,0,0,,0,293,293,30,1,
,,,,,,,,,,,,,,,,,,5fb3a3c38a7d5903b43c1949,2020-12-03_08h22.00.443,lexical_decision_task_MP_exp2,2020.2.8,Win32,60,m,1,,,,,,,,0.57798,1,,,,,,132,WORD,UN,16,orphan,STRONG,m,0.57798,,,,,,0.887962963,-0.196296296,0,0,0,,0,294,294,191,1,
,,,,,,,,,,,,,,,,,,5fb3a3c38a7d5903b43c1949,2020-12-03_08h22.00.443,lexical_decision_task_MP_exp2,2020.2.8,Win32,60,z,1,,,,,,,,0.78136,1,,,,,,391,NW,UN,16,rouncy,THELDY,z,0.78136,,,,,,0.887962963,-0.196296296,0,0,0,,0,295,295,450,1,
,,,,,,,,,,,,,,,,,,5fb3a3c38a7d5903b43c1949,2020-12-03_08h22.00.443,lexical_decision_task_MP_exp2,2020.2.8,Win32,60,m,1,,,,,,,,0.86959,1,,,,,,66,WORD,UN,33,policy,GOSPEL,m,0.86959,,,,,,0.887962963,-0.196296296,0,0,0,,0,296,296,125,1,
,,,,,,,,,,,,,,,,,,5fb3a3c38a7d5903b43c1949,2020-12-03_08h22.00.443,lexical_decision_task_MP_exp2,2020.2.8,Win32,60,m,1,,,,,,,,0.8861,1,,,,,,101,WORD,UN,33,direct,WRENCH,m,0.8861,,,,,,0.887962963,-0.196296296,0,0,0,,0,297,297,160,1,
,,,,,,,,,,,,,,,,,,5fb3a3c38a7d5903b43c1949,2020-12-03_08h22.00.443,lexical_decision_task_MP_exp2,2020.2.8,Win32,60,z,1,,,,,,,,0.80962,1,,,,,,378,NW,UN,16,auting,SHRILE,z,0.80962,,,,,,0.887962963,-0.196296296,0,0,0,,0,298,298,437,1,
,,,,,,,,,,,,,,,,,,5fb3a3c38a7d5903b43c1949,2020-12-03_08h22.00.443,lexical_decision_task_MP_exp2,2020.2.8,Win32,60,z,1,,,,,,,,0.74398,1,,,,,,372,NW,UN,16,bigent,RAMILY,z,0.74398,,,,,,0.887962963,-0.196296296,0,0,0,,0,299,299,431,1,
,,,,,,,,,,,,,,,,,,5fb3a3c38a7d5903b43c1949,2020-12-03_08h22.00.443,lexical_decision_task_MP_exp2,2020.2.8,Win32,60,z,1,,,,,,,,0.599585,1,,,,,,367,NW,UN,16,hornal,SLIQUE,z,0.599585,,,,,,0.887962963,-0.196296296,0,0,0,,0,300,300,426,1,
,,,,,,,,,,,,,,,,,,5fb3a3c38a7d5903b43c1949,2020-12-03_08h22.00.443,lexical_decision_task_MP_exp2,2020.2.8,Win32,60,z,1,,,,,,,,0.78043,1,,,,,,244,NW,"ID",16,eatric,EATRIC,z,0.78043,,,,,,0.887962963,-0.196296296,0,0,0,,0,301,301,303,1,
,,,,,,,,,,,,,,,,,,5fb3a3c38a7d5903b43c1949,2020-12-03_08h22.00.443,lexical_decision_task_MP_exp2,2020.2.8,Win32,60,m,1,,,,,,,,0.832185,1,,,,,,189,WORD,"ID",33,censor,CENSOR,m,0.832185,,,,,,0.887962963,-0.196296296,0,0,0,,0,302,302,8,1,
,,,,,,,,,,,,,,,,,,5fb3a3c38a7d5903b43c1949,2020-12-03_08h22.00.443,lexical_decision_task_MP_exp2,2020.2.8,Win32,60,m,1,,,,,,,,0.648435,1,,,,,,112,WORD,UN,33,chorus,BREATH,m,0.648435,,,,,,0.887962963,-0.196296296,0,0,0,,0,303,303,171,1,
,,,,,,,,,,,,,,,,,,5fb3a3c38a7d5903b43c1949,2020-12-03_08h22.00.443,lexical_decision_task_MP_exp2,2020.2.8,Win32,60,z,1,,,,,,,,0.633115,1,,,,,,432,NW,"ID",33,lunker,LUNKER,z,0.633115,,,,,,0.887962963,-0.196296296,0,0,0,,0,304,304,251,1,
,,,,,,,,,,,,,,,,,,5fb3a3c38a7d5903b43c1949,2020-12-03_08h22.00.443,lexical_decision_task_MP_exp2,2020.2.8,Win32,60,m,1,,,,,,,,1.220055,1,,,,,,62,WORD,UN,33,launch,REGION,m,1.220055,,,,,,0.887962963,-0.196296296,0,0,0,,0,305,305,121,1,
,,,,,,,,,,,,,,,,,,5fb3a3c38a7d5903b43c1949,2020-12-03_08h22.00.443,lexical_decision_task_MP_exp2,2020.2.8,Win32,60,m,1,,,,,,,,0.65217,1,,,,,,182,WORD,"ID",33,winter,WINTER,m,0.65217,,,,,,0.887962963,-0.196296296,0,0,0,,0,306,306,1,1,
,,,,,,,,,,,,,,,,,,5fb3a3c38a7d5903b43c1949,2020-12-03_08h22.00.443,lexical_decision_task_MP_exp2,2020.2.8,Win32,60,m,1,,,,,,,,0.94985,1,,,,,,190,WORD,"ID",33,backup,BACKUP,m,0.94985,,,,,,0.887962963,-0.196296296,0,0,0,,0,307,307,9,1,
,,,,,,,,,,,,,,,,,,5fb3a3c38a7d5903b43c1949,2020-12-03_08h22.00.443,lexical_decision_task_MP_exp2,2020.2.8,Win32,60,z,1,,,,,,,,0.613615,1,,,,,,327,NW,UN,33,broake,PLENAC,z,0.613615,,,,,,0.887962963,-0.196296296,0,0,0,,0,308,308,386,1,
,,,,,,,,,,,,,,,,,,5fb3a3c38a7d5903b43c1949,2020-12-03_08h22.00.443,lexical_decision_task_MP_exp2,2020.2.8,Win32,60,m,1,,,,,,,,0.66686,1,,,,,,184,WORD,"ID",33,sleazy,SLEAZY,m,0.66686,,,,,,0.887962963,-0.196296296,0,0,0,,0,309,309,3,1,
,,,,,,,,,,,,,,,,,,5fb3a3c38a7d5903b43c1949,2020-12-03_08h22.00.443,lexical_decision_task_MP_exp2,2020.2.8,Win32,60,m,1,,,,,,,,0.898865,1,,,,,,100,WORD,UN,33,wrench,CARBON,m,0.898865,,,,,,0.887962963,-0.196296296,0,0,0,,0,310,310,159,1,
,,,,,,,,,,,,,,,,,,5fb3a3c38a7d5903b43c1949,2020-12-03_08h22.00.443,lexical_decision_task_MP_exp2,2020.2.8,Win32,60,m,0,,,,,,,,0.70647,0,,,,,,345,NW,UN,33,saudic,ABSEND,z,0.70647,,,,,,0.887962963,-0.196296296,0,0,0,,0,311,311,404,1,
,,,,,,,,,,,,,,,,,,5fb3a3c38a7d5903b43c1949,2020-12-03_08h22.00.443,lexical_decision_task_MP_exp2,2020.2.8,Win32,60,m,1,,,,,,,,0.61766,1,,,,,,126,WORD,UN,16,castle,ENOUGH,m,0.61766,,,,,,0.887962963,-0.196296296,0,0,0,,0,312,312,185,1,
,,,,,,,,,,,,,,,,,,5fb3a3c38a7d5903b43c1949,2020-12-03_08h22.00.443,lexical_decision_task_MP_exp2,2020.2.8,Win32,60,z,1,,,,,,,,0.71758,1,,,,,,449,NW,"ID",33,brunge,BRUNGE,z,0.71758,,,,,,0.887962963,-0.196296296,0,0,0,,0,313,313,268,1,
,,,,,,,,,,,,,,,,,,5fb3a3c38a7d5903b43c1949,2020-12-03_08h22.00.443,lexical_decision_task_MP_exp2,2020.2.8,Win32,60,m,1,,,,,,,,0.60207,1,,,,,,31,WORD,"ID",16,weapon,WEAPON,m,0.60207,,,,,,0.887962963,-0.196296296,0,0,0,,0,314,314,90,1,
,,,,,,,,,,,,,,,,,,5fb3a3c38a7d5903b43c1949,2020-12-03_08h22.00.443,lexical_decision_task_MP_exp2,2020.2.8,Win32,60,m,1,,,,,,,,0.773565,1,,,,,,172,WORD,UN,16,shower,PATROL,m,0.773565,,,,,,0.887962963,-0.196296296,0,0,0,,0,315,315,231,1,
,,,,,,,,,,,,,,,,,,5fb3a3c38a7d5903b43c1949,2020-12-03_08h22.00.443,lexical_decision_task_MP_exp2,2020.2.8,Win32,60,z,1,,,,,,,,0.74371,1,,,,,,413,NW,UN,16,serbol,EQUATS,z,0.74371,,,,,,0.887962963,-0.196296296,0,0,0,,0,316,316,472,1,
,,,,,,,,,,,,,,,,,,5fb3a3c38a7d5903b43c1949,2020-12-03_08h22.00.443,lexical_decision_task_MP_exp2,2020.2.8,Win32,60,z,1,,,,,,,,0.76303,1,,,,,,469,NW,"ID",33,padifs,PADIFS,z,0.76303,,,,,,0.887962963,-0.196296296,0,0,0,,0,317,317,288,1,
,,,,,,,,,,,,,,,,,,5fb3a3c38a7d5903b43c1949,2020-12-03_08h22.00.443,lexical_decision_task_MP_exp2,2020.2.8,Win32,60,m,1,,,,,,,,0.611455,1,,,,,,226,WORD,"ID",33,casino,CASINO,m,0.611455,,,,,,0.887962963,-0.196296296,0,0,0,,0,318,318,45,1,
,,,,,,,,,,,,,,,,,,5fb3a3c38a7d5903b43c1949,2020-12-03_08h22.00.443,lexical_decision_task_MP_exp2,2020.2.8,Win32,60,m,1,,,,,,,,0.931965,1,,,,,,9,WORD,"ID",16,hustle,HUSTLE,m,0.931965,,,,,,0.887962963,-0.196296296,0,0,0,,0,319,319,68,1,
,,,,,,,,,,,,,,,,,,5fb3a3c38a7d5903b43c1949,2020-12-03_08h22.00.443,lexical_decision_task_MP_exp2,2020.2.8,Win32,60,m,1,,,,,,,,0.70217,1,,,,,,234,WORD,"ID",33,clumsy,CLUMSY,m,0.70217,,,,,,0.887962963,-0.196296296,0,0,0,,0,320,320,53,1,
,,,,,,,,,,,,,,,,,,5fb3a3c38a7d5903b43c1949,2020-12-03_08h22.00.443,lexical_decision_task_MP_exp2,2020.2.8,Win32,60,m,1,,,,,,,,0.758205,1,,,,,,24,WORD,"ID",16,praise,PRAISE,m,0.758205,,,,,,0.887962963,-0.196296296,0,0,0,,0,321,321,83,1,
,,,,,,,,,,,,,,,,,,5fb3a3c38a7d5903b43c1949,2020-12-03_08h22.00.443,lexical_decision_task_MP_exp2,2020.2.8,Win32,60,z,1,,,,,,,,0.835645,1,,,,,,352,NW,UN,33,clurey,TRINGE,z,0.835645,,,,,,0.887962963,-0.196296296,0,0,0,,0,322,322,411,1,
,,,,,,,,,,,,,,,,,,5fb3a3c38a7d5903b43c1949,2020-12-03_08h22.00.443,lexical_decision_task_MP_exp2,2020.2.8,Win32,60,z,1,,,,,,,,0.763225,1,,,,,,351,NW,UN,33,tringe,TIESCH,z,0.763225,,,,,,0.887962963,-0.196296296,0,0,0,,0,323,323,410,1,
,,,,,,,,,,,,,,,,,,5fb3a3c38a7d5903b43c1949,2020-12-03_08h22.00.443,lexical_decision_task_MP_exp2,2020.2.8,Win32,60,m,1,,,,,,,,0.73479,1,,,,,,80,WORD,UN,33,friend,FAMILY,m,0.73479,,,,,,0.887962963,-0.196296296,0,0,0,,0,324,324,139,1,
,,,,,,,,,,,,,,,,,,5fb3a3c38a7d5903b43c1949,2020-12-03_08h22.00.443,lexical_decision_task_MP_exp2,2020.2.8,Win32,60,z,1,,,,,,,,0.67932,1,,,,,,247,NW,"ID",16,blarge,BLARGE,z,0.67932,,,,,,0.887962963,-0.196296296,0,0,0,,0,325,325,306,1,
,,,,,,,,,,,,,,,,,,5fb3a3c38a7d5903b43c1949,2020-12-03_08h22.00.443,lexical_decision_task_MP_exp2,2020.2.8,Win32,60,z,1,,,,,,,,0.900395,1,,,,,,333,NW,UN,33,watmeg,CATRIE,z,0.900395,,,,,,0.887962963,-0.196296296,0,0,0,,0,326,326,392,1,
,,,,,,,,,,,,,,,,,,5fb3a3c38a7d5903b43c1949,2020-12-03_08h22.00.443,lexical_decision_task_MP_exp2,2020.2.8,Win32,60,m,1,,,,,,,,0.84972,1,,,,,,25,WORD,"ID",16,domain,DOMAIN,m,0.84972,,,,,,0.887962963,-0.196296296,0,0,0,,0,327,327,84,1,
,,,,,,,,,,,,,,,,,,5fb3a3c38a7d5903b43c1949,2020-12-03_08h22.00.443,lexical_decision_task_MP_exp2,2020.2.8,Win32,60,z,1,,,,,,,,0.738055,1,,,,,,414,NW,UN,16,higsta,SERBOL,z,0.738055,,,,,,0.887962963,-0.196296296,0,0,0,,0,328,328,473,1,
,,,,,,,,,,,,,,,,,,5fb3a3c38a7d5903b43c1949,2020-12-03_08h22.00.443,lexical_decision_task_MP_exp2,2020.2.8,Win32,60,z,1,,,,,,,,0.93251,1,,,,,,447,NW,"ID",33,gircue,GIRCUE,z,0.93251,,,,,,0.887962963,-0.196296296,0,0,0,,0,329,329,266,1,
,,,,,,,,,,,,,,,,,,5fb3a3c38a7d5903b43c1949,2020-12-03_08h22.00.443,lexical_decision_task_MP_exp2,2020.2.8,Win32,60,m,1,,,,,,,,0.56836,1,,,,,,130,WORD,UN,16,quench,STUPID,m,0.56836,,,,,,0.887962963,-0.196296296,0,0,0,,0,330,330,189,1,
,,,,,,,,,,,,,,,,,,5fb3a3c38a7d5903b43c1949,2020-12-03_08h22.00.443,lexical_decision_task_MP_exp2,2020.2.8,Win32,60,m,0,,,,,,,,0.854535,0,,,,,,326,NW,UN,33,plenac,IGUADE,z,0.854535,,,,,,0.887962963,-0.196296296,0,0,0,,0,331,331,385,1,
,,,,,,,,,,,,,,,,,,5fb3a3c38a7d5903b43c1949,2020-12-03_08h22.00.443,lexical_decision_task_MP_exp2,2020.2.8,Win32,60,z,1,,,,,,,,0.86748,1,,,,,,357,NW,UN,33,fleack,DERAIN,z,0.86748,,,,,,0.887962963,-0.196296296,0,0,0,,0,332,332,416,1,
,,,,,,,,,,,,,,,,,,5fb3a3c38a7d5903b43c1949,2020-12-03_08h22.00.443,lexical_decision_task_MP_exp2,2020.2.8,Win32,60,m,1,,,,,,,,0.766605,1,,,,,,8,WORD,"ID",16,abrupt,ABRUPT,m,0.766605,,,,,,0.887962963,-0.196296296,0,0,0,,0,333,333,67,1,
,,,,,,,,,,,,,,,,,,5fb3a3c38a7d5903b43c1949,2020-12-03_08h22.00.443,lexical_decision_task_MP_exp2,2020.2.8,Win32,60,m,1,,,,,,,,0.6191,1,,,,,,237,WORD,"ID",33,poster,POSTER,m,0.6191,,,,,,0.887962963,-0.196296296,0,0,0,,0,334,334,56,1,
,,,,,,,,,,,,,,,,,,5fb3a3c38a7d5903b43c1949,2020-12-03_08h22.00.443,lexical_decision_task_MP_exp2,2020.2.8,Win32,60,m,1,,,,,,,,0.5795,1,,,,,,163,WORD,UN,16,market,STRING,m,0.5795,,,,,,0.887962963,-0.196296296,0,0,0,,0,335,335,222,1,
,,,,,,,,,,,,,,,,,,5fb3a3c38a7d5903b43c1949,2020-12-03_08h22.00.443,lexical_decision_task_MP_exp2,2020.2.8,Win32,60,m,1,,,,,,,,0.849725,1,,,,,,97,WORD,UN,33,belong,CLIENT,m,0.849725,,,,,,0.887962963,-0.196296296,0,0,0,,0,336,336,156,1,
,,,,,,,,,,,,,,,,,,5fb3a3c38a7d5903b43c1949,2020-12-03_08h22.00.443,lexical_decision_task_MP_exp2,2020.2.8,Win32,60,z,1,,,,,,,,0.788275,1,,,,,,276,NW,"ID",16,yarmon,YARMON,z,0.788275,,,,,,0.887962963,-0.196296296,0,0,0,,0,337,337,335,1,
,,,,,,,,,,,,,,,,,,5fb3a3c38a7d5903b43c1949,2020-12-03_08h22.00.443,lexical_decision_task_MP_exp2,2020.2.8,Win32,60,z,1,,,,,,,,0.79675,1,,,,,,456,NW,"ID",33,broget,BROGET,z,0.79675,,,,,,0.887962963,-0.196296296,0,0,0,,0,338,338,275,1,
,,,,,,,,,,,,,,,,,,5fb3a3c38a7d5903b43c1949,2020-12-03_08h22.00.443,lexical_decision_task_MP_exp2,2020.2.8,Win32,60,z,1,,,,,,,,0.67246,1,,,,,,334,NW,UN,33,desion,WATMEG,z,0.67246,,,,,,0.887962963,-0.196296296,0,0,0,,0,339,339,393,1,
,,,,,,,,,,,,,,,,,,5fb3a3c38a7d5903b43c1949,2020-12-03_08h22.00.443,lexical_decision_task_MP_exp2,2020.2.8,Win32,60,m,1,,,,,,,,0.763915,1,,,,,,89,WORD,UN,33,relish,PERMIT,m,0.763915,,,,,,0.887962963,-0.196296296,0,0,0,,0,340,340,148,1,
,,,,,,,,,,,,,,,,,,5fb3a3c38a7d5903b43c1949,2020-12-03_08h22.00.443,lexical_decision_task_MP_exp2,2020.2.8,Win32,60,m,1,,,,,,,,0.70772,1,,,,,,116,WORD,UN,33,branch,TUMBLE,m,0.70772,,,,,,0.887962963,-0.196296296,0,0,0,,0,341,341,175,1,
,,,,,,,,,,,,,,,,,,5fb3a3c38a7d5903b43c1949,2020-12-03_08h22.00.443,lexical_decision_task_MP_exp2,2020.2.8,Win32,60,z,1,,,,,,,,0.683345,1,,,,,,437,NW,"ID",33,snapel,SNAPEL,z,0.683345,,,,,,0.887962963,-0.196296296,0,0,0,,0,342,342,256,1,
,,,,,,,,,,,,,,,,,,5fb3a3c38a7d5903b43c1949,2020-12-03_08h22.00.443,lexical_decision_task_MP_exp2,2020.2.8,Win32,60,m,1,,,,,,,,0.71012,1,,,,,,180,WORD,UN,16,thrive,SILENT,m,0.71012,,,,,,0.887962963,-0.196296296,0,0,0,,0,343,343,239,1,
,,,,,,,,,,,,,,,,,,5fb3a3c38a7d5903b43c1949,2020-12-03_08h22.00.443,lexical_decision_task_MP_exp2,2020.2.8,Win32,60,z,1,,,,,,,,0.620475,1,,,,,,289,NW,"ID",16,starby,STARBY,z,0.620475,,,,,,0.887962963,-0.196296296,0,0,0,,0,344,344,348,1,
,,,,,,,,,,,,,,,,,,5fb3a3c38a7d5903b43c1949,2020-12-03_08h22.00.443,lexical_decision_task_MP_exp2,2020.2.8,Win32,60,z,1,,,,,,,,0.668,1,,,,,,257,NW,"ID",16,veniod,VENIOD,z,0.668,,,,,,0.887962963,-0.196296296,0,0,0,,0,345,345,316,1,
,,,,,,,,,,,,,,,,,,5fb3a3c38a7d5903b43c1949,2020-12-03_08h22.00.443,lexical_decision_task_MP_exp2,2020.2.8,Win32,60,z,1,,,,,,,,0.66303,1,,,,,,464,NW,"ID",33,chaite,CHAITE,z,0.66303,,,,,,0.887962963,-0.196296296,0,0,0,,0,346,346,283,1,
,,,,,,,,,,,,,,,,,,5fb3a3c38a7d5903b43c1949,2020-12-03_08h22.00.443,lexical_decision_task_MP_exp2,2020.2.8,Win32,60,m,0,,,,,,,,0.64358,0,,,,,,284,NW,"ID",16,shaple,SHAPLE,z,0.64358,,,,,,0.887962963,-0.196296296,0,0,0,,0,347,347,343,1,
,,,,,,,,,,,,,,,,,,5fb3a3c38a7d5903b43c1949,2020-12-03_08h22.00.443,lexical_decision_task_MP_exp2,2020.2.8,Win32,60,z,1,,,,,,,,1.247155,1,,,,,,426,NW,"ID",33,urivel,URIVEL,z,1.247155,,,,,,0.887962963,-0.196296296,0,0,0,,0,348,348,245,1,
,,,,,,,,,,,,,,,,,,5fb3a3c38a7d5903b43c1949,2020-12-03_08h22.00.443,lexical_decision_task_MP_exp2,2020.2.8,Win32,60,z,1,,,,,,,,0.76643,1,,,,,,312,NW,UN,33,paurse,NERAWL,z,0.76643,,,,,,0.887962963,-0.196296296,0,0,0,,0,349,349,371,1,
,,,,,,,,,,,,,,,,,,5fb3a3c38a7d5903b43c1949,2020-12-03_08h22.00.443,lexical_decision_task_MP_exp2,2020.2.8,Win32,60,z,1,,,,,,,,0.66912,1,,,,,,262,NW,"ID",16,quilew,QUILEW,z,0.66912,,,,,,0.887962963,-0.196296296,0,0,0,,0,350,350,321,1,
,,,,,,,,,,,,,,,,,,5fb3a3c38a7d5903b43c1949,2020-12-03_08h22.00.443,lexical_decision_task_MP_exp2,2020.2.8,Win32,60,z,1,,,,,,,,0.690685,1,,,,,,301,NW,UN,33,miluer,FAINCH,z,0.690685,,,,,,0.887962963,-0.196296296,0,0,0,,0,351,351,360,1,
,,,,,,,,,,,,,,,,,,5fb3a3c38a7d5903b43c1949,2020-12-03_08h22.00.443,lexical_decision_task_MP_exp2,2020.2.8,Win32,60,z,1,,,,,,,,0.58782,1,,,,,,309,NW,UN,33,daniet,AMILOY,z,0.58782,,,,,,0.887962963,-0.196296296,0,0,0,,0,352,352,368,1,
,,,,,,,,,,,,,,,,,,5fb3a3c38a7d5903b43c1949,2020-12-03_08h22.00.443,lexical_decision_task_MP_exp2,2020.2.8,Win32,60,m,1,,,,,,,,0.684335,1,,,,,,42,WORD,"ID",16,chapel,CHAPEL,m,0.684335,,,,,,0.887962963,-0.196296296,0,0,0,,0,353,353,101,1,
,,,,,,,,,,,,,,,,,,5fb3a3c38a7d5903b43c1949,2020-12-03_08h22.00.443,lexical_decision_task_MP_exp2,2020.2.8,Win32,60,z,1,,,,,,,,0.93098,1,,,,,,325,NW,UN,33,iguade,THRUSE,z,0.93098,,,,,,0.887962963,-0.196296296,0,0,0,,0,354,354,384,1,
,,,,,,,,,,,,,,,,,,5fb3a3c38a7d5903b43c1949,2020-12-03_08h22.00.443,lexical_decision_task_MP_exp2,2020.2.8,Win32,60,m,1,,,,,,,,0.84934,1,,,,,,69,WORD,UN,33,square,PLENTY,m,0.84934,,,,,,0.887962963,-0.196296296,0,0,0,,0,355,355,128,1,
,,,,,,,,,,,,,,,,,,5fb3a3c38a7d5903b43c1949,2020-12-03_08h22.00.443,lexical_decision_task_MP_exp2,2020.2.8,Win32,60,z,1,,,,,,,,0.63692,1,,,,,,304,NW,UN,33,forgle,CLUDIE,z,0.63692,,,,,,0.887962963,-0.196296296,0,0,0,,0,356,356,363,1,
,,,,,,,,,,,,,,,,,,5fb3a3c38a7d5903b43c1949,2020-12-03_08h22.00.443,lexical_decision_task_MP_exp2,2020.2.8,Win32,60,m,1,,,,,,,,0.711485,1,,,,,,114,WORD,UN,33,guitar,PLACID,m,0.711485,,,,,,0.887962963,-0.196296296,0,0,0,,0,357,357,173,1,
,,,,,,,,,,,,,,,,,,5fb3a3c38a7d5903b43c1949,2020-12-03_08h22.00.443,lexical_decision_task_MP_exp2,2020.2.8,Win32,60,m,1,,,,,,,,0.910545,1,,,,,,125,WORD,UN,16,enough,NICKEL,m,0.910545,,,,,,0.887962963,-0.196296296,0,0,0,,0,358,358,184,1,
,,,,,,,,,,,,,,,,,,5fb3a3c38a7d5903b43c1949,2020-12-03_08h22.00.443,lexical_decision_task_MP_exp2,2020.2.8,Win32,60,m,1,,,,,,,,0.648795,1,,,,,,217,WORD,"ID",33,liquor,LIQUOR,m,0.648795,,,,,,0.887962963,-0.196296296,0,0,0,,0,359,359,36,1,
,,,,,,,,,,,,,,,,,,5fb3a3c38a7d5903b43c1949,2020-12-03_08h22.00.443,lexical_decision_task_MP_exp2,2020.2.8,Win32,60,m,1,,,,,,,,0.548195,1,,,,,,71,WORD,UN,33,bright,GARDEN,m,0.548195,,,,,,0.887962963,-0.196296296,0,0,0,,0,360,360,130,1,
,,,,,,,,,,,,,,,,,,5fb3a3c38a7d5903b43c1949,2020-12-03_08h22.00.443,lexical_decision_task_MP_exp2,2020.2.8,Win32,60,m,1,,,,,,,,0.633215,1,,,,,,200,WORD,"ID",33,beacon,BEACON,m,0.633215,,,,,,0.887962963,-0.196296296,0,0,0,,0,361,361,19,1,
,,,,,,,,,,,,,,,,,,5fb3a3c38a7d5903b43c1949,2020-12-03_08h22.00.443,lexical_decision_task_MP_exp2,2020.2.8,Win32,60,z,1,,,,,,,,0.764205,1,,,,,,310,NW,UN,33,sproly,DANIET,z,0.764205,,,,,,0.887962963,-0.196296296,0,0,0,space,0,362,362,369,1,16.682305
,,,,,,,,,,,,,,,,,,5fb3a3c38a7d5903b43c1949,2020-12-03_08h22.00.443,lexical_decision_task_MP_exp2,2020.2.8,Win32,60,m,1,,,,,,,,1.17374,1,,,,,,86,WORD,UN,33,filter,RODENT,m,1.17374,,,,,,0.887962963,-0.196296296,0,0,0,,0,363,363,145,1,
,,,,,,,,,,,,,,,,,,5fb3a3c38a7d5903b43c1949,2020-12-03_08h22.00.443,lexical_decision_task_MP_exp2,2020.2.8,Win32,60,z,1,,,,,,,,0.806495,1,,,,,,253,NW,"ID",16,resait,RESAIT,z,0.806495,,,,,,0.887962963,-0.196296296,0,0,0,,0,364,364,312,1,
,,,,,,,,,,,,,,,,,,5fb3a3c38a7d5903b43c1949,2020-12-03_08h22.00.443,lexical_decision_task_MP_exp2,2020.2.8,Win32,60,m,1,,,,,,,,0.706915,1,,,,,,6,WORD,"ID",16,bundle,BUNDLE,m,0.706915,,,,,,0.887962963,-0.196296296,0,0,0,,0,365,365,65,1,
,,,,,,,,,,,,,,,,,,5fb3a3c38a7d5903b43c1949,2020-12-03_08h22.00.443,lexical_decision_task_MP_exp2,2020.2.8,Win32,60,m,1,,,,,,,,0.66881,1,,,,,,94,WORD,UN,33,thread,TRAVEL,m,0.66881,,,,,,0.887962963,-0.196296296,0,0,0,,0,366,366,153,1,
,,,,,,,,,,,,,,,,,,5fb3a3c38a7d5903b43c1949,2020-12-03_08h22.00.443,lexical_decision_task_MP_exp2,2020.2.8,Win32,60,m,1,,,,,,,,0.567445,1,,,,,,135,WORD,UN,16,bleach,IMPORT,m,0.567445,,,,,,0.887962963,-0.196296296,0,0,0,,0,367,367,194,1,
,,,,,,,,,,,,,,,,,,5fb3a3c38a7d5903b43c1949,2020-12-03_08h22.00.443,lexical_decision_task_MP_exp2,2020.2.8,Win32,60,z,0,,,,,,,,0.72274,0,,,,,,73,WORD,UN,33,plaque,SOURCE,m,0.72274,,,,,,0.887962963,-0.196296296,0,0,0,,0,368,368,132,1,
,,,,,,,,,,,,,,,,,,5fb3a3c38a7d5903b43c1949,2020-12-03_08h22.00.443,lexical_decision_task_MP_exp2,2020.2.8,Win32,60,m,1,,,,,,,,0.64705,1,,,,,,17,WORD,"ID",16,charge,CHARGE,m,0.64705,,,,,,0.887962963,-0.196296296,0,0,0,,0,369,369,76,1,
,,,,,,,,,,,,,,,,,,5fb3a3c38a7d5903b43c1949,2020-12-03_08h22.00.443,lexical_decision_task_MP_exp2,2020.2.8,Win32,60,z,1,,,,,,,,1.057365,1,,,,,,307,NW,UN,33,psetch,KIRAFE,z,1.057365,,,,,,0.887962963,-0.196296296,0,0,0,,0,370,370,366,1,
,,,,,,,,,,,,,,,,,,5fb3a3c38a7d5903b43c1949,2020-12-03_08h22.00.443,lexical_decision_task_MP_exp2,2020.2.8,Win32,60,z,1,,,,,,,,0.79959,1,,,,,,444,NW,"ID",33,jaunce,JAUNCE,z,0.79959,,,,,,0.887962963,-0.196296296,0,0,0,,0,371,371,263,1,
,,,,,,,,,,,,,,,,,,5fb3a3c38a7d5903b43c1949,2020-12-03_08h22.00.443,lexical_decision_task_MP_exp2,2020.2.8,Win32,60,m,1,,,,,,,,0.70141,1,,,,,,19,WORD,"ID",16,patron,PATRON,m,0.70141,,,,,,0.887962963,-0.196296296,0,0,0,,0,372,372,78,1,
,,,,,,,,,,,,,,,,,,5fb3a3c38a7d5903b43c1949,2020-12-03_08h22.00.443,lexical_decision_task_MP_exp2,2020.2.8,Win32,60,z,1,,,,,,,,0.797935,1,,,,,,438,NW,"ID",33,baitch,BAITCH,z,0.797935,,,,,,0.887962963,-0.196296296,0,0,0,,0,373,373,257,1,
,,,,,,,,,,,,,,,,,,5fb3a3c38a7d5903b43c1949,2020-12-03_08h22.00.443,lexical_decision_task_MP_exp2,2020.2.8,Win32,60,m,1,,,,,,,,0.651885,1,,,,,,203,WORD,"ID",33,phrase,PHRASE,m,0.651885,,,,,,0.887962963,-0.196296296,0,0,0,,0,374,374,22,1,
,,,,,,,,,,,,,,,,,,5fb3a3c38a7d5903b43c1949,2020-12-03_08h22.00.443,lexical_decision_task_MP_exp2,2020.2.8,Win32,60,m,1,,,,,,,,0.735815,1,,,,,,199,WORD,"ID",33,invoke,INVOKE,m,0.735815,,,,,,0.887962963,-0.196296296,0,0,0,,0,375,375,18,1,
,,,,,,,,,,,,,,,,,,5fb3a3c38a7d5903b43c1949,2020-12-03_08h22.00.443,lexical_decision_task_MP_exp2,2020.2.8,Win32,60,m,1,,,,,,,,0.686105,1,,,,,,64,WORD,UN,33,symbol,THRONE,m,0.686105,,,,,,0.887962963,-0.196296296,0,0,0,,0,376,376,123,1,
,,,,,,,,,,,,,,,,,,5fb3a3c38a7d5903b43c1949,2020-12-03_08h22.00.443,lexical_decision_task_MP_exp2,2020.2.8,Win32,60,z,1,,,,,,,,0.8525,1,,,,,,365,NW,UN,16,toshel,GUAIRT,z,0.8525,,,,,,0.887962963,-0.196296296,0,0,0,,0,377,377,424,1,
,,,,,,,,,,,,,,,,,,5fb3a3c38a7d5903b43c1949,2020-12-03_08h22.00.443,lexical_decision_task_MP_exp2,2020.2.8,Win32,60,m,1,,,,,,,,0.83376,1,,,,,,103,WORD,UN,33,studio,BOUNCE,m,0.83376,,,,,,0.887962963,-0.196296296,0,0,0,,0,378,378,162,1,
,,,,,,,,,,,,,,,,,,5fb3a3c38a7d5903b43c1949,2020-12-03_08h22.00.443,lexical_decision_task_MP_exp2,2020.2.8,Win32,60,z,1,,,,,,,,0.596275,1,,,,,,288,NW,"ID",16,yaceup,YACEUP,z,0.596275,,,,,,0.887962963,-0.196296296,0,0,0,,0,379,379,347,1,
,,,,,,,,,,,,,,,,,,5fb3a3c38a7d5903b43c1949,2020-12-03_08h22.00.443,lexical_decision_task_MP_exp2,2020.2.8,Win32,60,m,1,,,,,,,,0.84735,1,,,,,,102,WORD,UN,33,bounce,DIRECT,m,0.84735,,,,,,0.887962963,-0.196296296,0,0,0,,0,380,380,161,1,
,,,,,,,,,,,,,,,,,,5fb3a3c38a7d5903b43c1949,2020-12-03_08h22.00.443,lexical_decision_task_MP_exp2,2020.2.8,Win32,60,z,1,,,,,,,,0.94846,1,,,,,,328,NW,UN,33,yarike,BROAKE,z,0.94846,,,,,,0.887962963,-0.196296296,0,0,0,,0,381,381,387,1,
,,,,,,,,,,,,,,,,,,5fb3a3c38a7d5903b43c1949,2020-12-03_08h22.00.443,lexical_decision_task_MP_exp2,2020.2.8,Win32,60,z,1,,,,,,,,0.84984,1,,,,,,292,NW,"ID",16,ablint,ABLINT,z,0.84984,,,,,,0.887962963,-0.196296296,0,0,0,,0,382,382,351,1,
,,,,,,,,,,,,,,,,,,5fb3a3c38a7d5903b43c1949,2020-12-03_08h22.00.443,lexical_decision_task_MP_exp2,2020.2.8,Win32,60,m,1,,,,,,,,0.934785,1,,,,,,83,WORD,UN,33,mortal,RESULT,m,0.934785,,,,,,0.887962963,-0.196296296,0,0,0,,0,383,383,142,1,
,,,,,,,,,,,,,,,,,,5fb3a3c38a7d5903b43c1949,2020-12-03_08h22.00.443,lexical_decision_task_MP_exp2,2020.2.8,Win32,60,m,1,,,,,,,,0.658055,1,,,,,,20,WORD,"ID",16,breast,BREAST,m,0.658055,,,,,,0.887962963,-0.196296296,0,0,0,,0,384,384,79,1,
,,,,,,,,,,,,,,,,,,5fb3a3c38a7d5903b43c1949,2020-12-03_08h22.00.443,lexical_decision_task_MP_exp2,2020.2.8,Win32,60,z,1,,,,,,,,0.652175,1,,,,,,353,NW,UN,33,virlex,CLUREY,z,0.652175,,,,,,0.887962963,-0.196296296,0,0,0,,0,385,385,412,1,
,,,,,,,,,,,,,,,,,,5fb3a3c38a7d5903b43c1949,2020-12-03_08h22.00.443,lexical_decision_task_MP_exp2,2020.2.8,Win32,60,m,1,,,,,,,,0.63443,1,,,,,,90,WORD,UN,33,expand,RELISH,m,0.63443,,,,,,0.887962963,-0.196296296,0,0,0,,0,386,386,149,1,
,,,,,,,,,,,,,,,,,,5fb3a3c38a7d5903b43c1949,2020-12-03_08h22.00.443,lexical_decision_task_MP_exp2,2020.2.8,Win32,60,m,1,,,,,,,,0.676375,1,,,,,,22,WORD,"ID",16,jockey,JOCKEY,m,0.676375,,,,,,0.887962963,-0.196296296,0,0,0,,0,387,387,81,1,
,,,,,,,,,,,,,,,,,,5fb3a3c38a7d5903b43c1949,2020-12-03_08h22.00.443,lexical_decision_task_MP_exp2,2020.2.8,Win32,60,z,1,,,,,,,,0.77113,1,,,,,,293,NW,"ID",16,swance,SWANCE,z,0.77113,,,,,,0.887962963,-0.196296296,0,0,0,,0,388,388,352,1,
,,,,,,,,,,,,,,,,,,5fb3a3c38a7d5903b43c1949,2020-12-03_08h22.00.443,lexical_decision_task_MP_exp2,2020.2.8,Win32,60,m,1,,,,,,,,0.534435,1,,,,,,18,WORD,"ID",16,humble,HUMBLE,m,0.534435,,,,,,0.887962963,-0.196296296,0,0,0,,0,389,389,77,1,
,,,,,,,,,,,,,,,,,,5fb3a3c38a7d5903b43c1949,2020-12-03_08h22.00.443,lexical_decision_task_MP_exp2,2020.2.8,Win32,60,z,1,,,,,,,,0.61141,1,,,,,,383,NW,UN,16,guesco,AUNGRE,z,0.61141,,,,,,0.887962963,-0.196296296,0,0,0,,0,390,390,442,1,
,,,,,,,,,,,,,,,,,,5fb3a3c38a7d5903b43c1949,2020-12-03_08h22.00.443,lexical_decision_task_MP_exp2,2020.2.8,Win32,60,m,1,,,,,,,,0.564105,1,,,,,,173,WORD,UN,16,turkey,SHOWER,m,0.564105,,,,,,0.887962963,-0.196296296,0,0,0,,0,391,391,232,1,
,,,,,,,,,,,,,,,,,,5fb3a3c38a7d5903b43c1949,2020-12-03_08h22.00.443,lexical_decision_task_MP_exp2,2020.2.8,Win32,60,m,1,,,,,,,,0.611805,1,,,,,,186,WORD,"ID",33,portal,PORTAL,m,0.611805,,,,,,0.887962963,-0.196296296,0,0,0,,0,392,392,5,1,
,,,,,,,,,,,,,,,,,,5fb3a3c38a7d5903b43c1949,2020-12-03_08h22.00.443,lexical_decision_task_MP_exp2,2020.2.8,Win32,60,m,1,,,,,,,,0.755,1,,,,,,192,WORD,"ID",33,plague,PLAGUE,m,0.755,,,,,,0.887962963,-0.196296296,0,0,0,,0,393,393,11,1,
,,,,,,,,,,,,,,,,,,5fb3a3c38a7d5903b43c1949,2020-12-03_08h22.00.443,lexical_decision_task_MP_exp2,2020.2.8,Win32,60,z,1,,,,,,,,1.11516,1,,,,,,265,NW,"ID",16,distar,DISTAR,z,1.11516,,,,,,0.887962963,-0.196296296,0,0,0,,0,394,394,324,1,
,,,,,,,,,,,,,,,,,,5fb3a3c38a7d5903b43c1949,2020-12-03_08h22.00.443,lexical_decision_task_MP_exp2,2020.2.8,Win32,60,m,1,,,,,,,,0.81616,1,,,,,,15,WORD,"ID",16,amount,AMOUNT,m,0.81616,,,,,,0.887962963,-0.196296296,0,0,0,,0,395,395,74,1,
