counterbalancing_condition,instr_done_keyboard.keys,instr_done_touch.x,instr_done_touch.y,instr_done_touch.leftButton,instr_done_touch.midButton,instr_done_touch.rightButton,instr_done_touch.clicked_name,instruction_pages.thisRepN,instruction_pages.thisTrialN,instruction_pages.thisN,instruction_pages.thisIndex,instruction_pages.ran,pageN,phase,instruct_text,has_image,instruct_image,participant,date,expName,psychopyVersion,OS,frameRate,response.keys,response.corr,touch_resp.x,touch_resp.y,touch_resp.leftButton,touch_resp.midButton,touch_resp.rightButton,touch_resp.time,touch_resp.clicked_name,rt,corr,practice_trials.thisRepN,practice_trials.thisTrialN,practice_trials.thisN,practice_trials.thisIndex,practice_trials.ran,TrialID,StimulusType,Condition,PrimeDuration,Prime,Target,corrAns,response.rt,instr_done_keyboard.rt,end_of_practice_trials_pages.thisRepN,end_of_practice_trials_pages.thisTrialN,end_of_practice_trials_pages.thisN,end_of_practice_trials_pages.thisIndex,end_of_practice_trials_pages.ran,break_done_touch.x,break_done_touch.y,break_done_touch.leftButton,break_done_touch.midButton,break_done_touch.rightButton,break_done_keyboard.keys,experiment_trials.thisRepN,experiment_trials.thisTrialN,experiment_trials.thisN,experiment_trials.thisIndex,experiment_trials.ran,break_done_touch.clicked_name
1,,0.052064632,-0.408438061,1,0,0,instr_done_button,0,0,0,0,1,1,instructions,"INSTRUCTIONS
At the start of each trial, look at the hash marks (######) in the center of the screen. After a moment, a string of letters will appear. Your task is to indicate if the letter string forms a word or not (i.e., if it is a nonword). For example, AUTHOR is a word while AUTHON is a nonword.

Press the space bar or touch the button below to continue.",0,,5fbcbe35e0fd44188313e19b,2020-11-27_07h08.33.742,lexical_decision_task_MP_exp2,2020.2.5,Win32,60,,,,,,,,,,,,,,,,,,,,,,,,,,,,,,,,,,,,,,,,,,
,,0.052064632,-0.408438061,1,0,0,instr_done_button,0,1,1,1,1,2,instructions,"If your device has a keyboard, press the 'Z' key for nonwords and the 'M' key for words.





Press the space bar or touch the button below to continue.",1,keyboard-example.gif,5fbcbe35e0fd44188313e19b,2020-11-27_07h08.33.742,lexical_decision_task_MP_exp2,2020.2.5,Win32,60,,,,,,,,,,,,,,,,,,,,,,,,,,,,,,,,,,,,,,,,,,
,,0.0502693,-0.3994614,1,0,0,instr_done_button,0,2,2,2,1,3,instructions,"If you are using a touchscreen only device, use the buttons on the screen. Do not use the mouse.





Press the space bar or touch the button below to continue.",1,touchscreen-example.gif,5fbcbe35e0fd44188313e19b,2020-11-27_07h08.33.742,lexical_decision_task_MP_exp2,2020.2.5,Win32,60,,,,,,,,,,,,,,,,,,,,,,,,,,,,,,,,,,,,,,,,,,
,,0.0502693,-0.394075404,1,0,0,instr_done_button,0,3,3,3,1,4,instructions,"It is very important that you respond as quickly and accurately as possible, as each letter string will only be on the screen for two seconds. If you do not respond within this time, the message 'Too slow!' will be displayed and the experiment will progress to the next letter string. The first 20 trials will be practice trials and you will receive feedback on your answers. 

Press the space bar or touch the button below to start the practice trials.",0,,5fbcbe35e0fd44188313e19b,2020-11-27_07h08.33.742,lexical_decision_task_MP_exp2,2020.2.5,Win32,60,,,,,,,,,,,,,,,,,,,,,,,,,,,,,,,,,,,,,,,,,,
,,,,,,,,,,,,,,,,,,5fbcbe35e0fd44188313e19b,2020-11-27_07h08.33.742,lexical_decision_task_MP_exp2,2020.2.5,Win32,60,,0,,,,,,,,,-1,0,0,0,4,1,1005,WORD,UN,33,abound,SQUEAK,m,,,,,,,,,,,,,,,,,,,
,,,,,,,,,,,,,,,,,,5fbcbe35e0fd44188313e19b,2020-11-27_07h08.33.742,lexical_decision_task_MP_exp2,2020.2.5,Win32,60,,0,,,,,,,,,-1,0,1,1,8,1,1009,NW,"ID",33,aslert,ASLERT,z,,,,,,,,,,,,,,,,,,,
,,,,,,,,,,,,,,,,,,5fbcbe35e0fd44188313e19b,2020-11-27_07h08.33.742,lexical_decision_task_MP_exp2,2020.2.5,Win32,60,z,0,,,,,,,,0.124,0,0,2,2,6,1,1007,WORD,UN,16,tropic,ZOMBIE,m,0.124,,,,,,,,,,,,,,,,,,
,,,,,,,,,,,,,,,,,,5fbcbe35e0fd44188313e19b,2020-11-27_07h08.33.742,lexical_decision_task_MP_exp2,2020.2.5,Win32,60,z,1,,,,,,,,1.251,1,0,3,3,9,1,1010,NW,"ID",33,fariny,FARINY,z,1.251,,,,,,,,,,,,,,,,,,
,,,,,,,,,,,,,,,,,,5fbcbe35e0fd44188313e19b,2020-11-27_07h08.33.742,lexical_decision_task_MP_exp2,2020.2.5,Win32,60,z,1,,,,,,,,0.581,1,0,4,4,12,1,1013,NW,UN,33,adveil,SPRINY,z,0.581,,,,,,,,,,,,,,,,,,
,,,,,,,,,,,,,,,,,,5fbcbe35e0fd44188313e19b,2020-11-27_07h08.33.742,lexical_decision_task_MP_exp2,2020.2.5,Win32,60,,0,,,,,,,,0.581,-1,0,5,5,1,1,1002,WORD,"ID",33,adjust,ADJUST,m,,,,,,,,,,,,,,,,,,,
,,,,,,,,,,,,,,,,,,5fbcbe35e0fd44188313e19b,2020-11-27_07h08.33.742,lexical_decision_task_MP_exp2,2020.2.5,Win32,60,m,0,,,,,,,,1.066,0,0,6,6,14,1,1015,NW,UN,16,miaber,THRALE,z,1.066,,,,,,,,,,,,,,,,,,
,,,,,,,,,,,,,,,,,,5fbcbe35e0fd44188313e19b,2020-11-27_07h08.33.742,lexical_decision_task_MP_exp2,2020.2.5,Win32,60,z,1,,,,,,,,0.341,1,0,7,7,10,1,1011,NW,"ID",16,inlade,INLADE,z,0.341,,,,,,,,,,,,,,,,,,
,,,,,,,,,,,,,,,,,,5fbcbe35e0fd44188313e19b,2020-11-27_07h08.33.742,lexical_decision_task_MP_exp2,2020.2.5,Win32,60,m,1,,,,,,,,0.498,1,0,8,8,0,1,1001,WORD,"ID",33,utopia,UTOPIA,m,0.498,,,,,,,,,,,,,,,,,,
,,,,,,,,,,,,,,,,,,5fbcbe35e0fd44188313e19b,2020-11-27_07h08.33.742,lexical_decision_task_MP_exp2,2020.2.5,Win32,60,z,0,,,,,,,,0.363,0,0,9,9,5,1,1006,WORD,UN,33,frenzy,OBTAIN,m,0.363,,,,,,,,,,,,,,,,,,
,,,,,,,,,,,,,,,,,,5fbcbe35e0fd44188313e19b,2020-11-27_07h08.33.742,lexical_decision_task_MP_exp2,2020.2.5,Win32,60,m,0,,,,,,,,0.417,0,0,10,10,11,1,1012,NW,"ID",16,rashet,RASHET,z,0.417,,,,,,,,,,,,,,,,,,
,,,,,,,,,,,,,,,,,,5fbcbe35e0fd44188313e19b,2020-11-27_07h08.33.742,lexical_decision_task_MP_exp2,2020.2.5,Win32,60,z,1,,,,,,,,0.531,1,0,11,11,15,1,1016,NW,UN,16,mushed,WHAISE,z,0.531,,,,,,,,,,,,,,,,,,
,,,,,,,,,,,,,,,,,,5fbcbe35e0fd44188313e19b,2020-11-27_07h08.33.742,lexical_decision_task_MP_exp2,2020.2.5,Win32,60,z,1,,,,,,,,0.319,1,0,12,12,13,1,1014,NW,UN,33,winfer,ROUPET,z,0.319,,,,,,,,,,,,,,,,,,
,,,,,,,,,,,,,,,,,,5fbcbe35e0fd44188313e19b,2020-11-27_07h08.33.742,lexical_decision_task_MP_exp2,2020.2.5,Win32,60,z,0,,,,,,,,0.334,0,0,13,13,3,1,1004,WORD,"ID",16,matrix,MATRIX,m,0.334,,,,,,,,,,,,,,,,,,
,,,,,,,,,,,,,,,,,,5fbcbe35e0fd44188313e19b,2020-11-27_07h08.33.742,lexical_decision_task_MP_exp2,2020.2.5,Win32,60,z,0,,,,,,,,0.308,0,0,14,14,2,1,1003,WORD,"ID",16,almond,ALMOND,m,0.308,,,,,,,,,,,,,,,,,,
,,,,,,,,,,,,,,,,,,5fbcbe35e0fd44188313e19b,2020-11-27_07h08.33.742,lexical_decision_task_MP_exp2,2020.2.5,Win32,60,z,0,,,,,,,,0.188,0,0,15,15,7,1,1008,WORD,UN,16,hurdle,VOLUME,m,0.188,,,,,,,,,,,,,,,,,,
,space,0.0502693,-0.394075404,0,0,0,,,,,,,1,end_of_practice,"You have completed the practice trials. During the experimental trials, you will not receive feedback, but it is very important that you respond as quickly and accurately as possible. 
Before you begin, please ensure that you are in a comfortable and quiet location and will not be disturbed for about 15 minutes, as we cannot use your data if you do not complete all the trials. 
There will be opportunities to take breaks at regular intervals during the experiment. When you are ready to start the experimental trials, please press space or touch the button below.",,,5fbcbe35e0fd44188313e19b,2020-11-27_07h08.33.742,lexical_decision_task_MP_exp2,2020.2.5,Win32,60,,,,,,,,,,,,,,,,,,,,,,,,,2.008,0,0,0,0,1,,,,,,,,,,,,
,,,,,,,,,,,,,,,,,,5fbcbe35e0fd44188313e19b,2020-11-27_07h08.33.742,lexical_decision_task_MP_exp2,2020.2.5,Win32,60,m,1,,,,,,,,0.981,1,,,,,,115,WORD,"ID",16,guitar,GUITAR,m,0.981,,,,,,,0.0502693,-0.394075404,0,0,0,,0,0,0,114,1,
,,,,,,,,,,,,,,,,,,5fbcbe35e0fd44188313e19b,2020-11-27_07h08.33.742,lexical_decision_task_MP_exp2,2020.2.5,Win32,60,m,0,,,,,,,,0.516,0,,,,,,342,NW,"ID",16,randow,RANDOW,z,0.516,,,,,,,0.0502693,-0.394075404,0,0,0,,0,1,1,341,1,
,,,,,,,,,,,,,,,,,,5fbcbe35e0fd44188313e19b,2020-11-27_07h08.33.742,lexical_decision_task_MP_exp2,2020.2.5,Win32,60,m,1,,,,,,,,0.514,1,,,,,,101,WORD,"ID",16,wrench,WRENCH,m,0.514,,,,,,,0.0502693,-0.394075404,0,0,0,,0,2,2,100,1,
,,,,,,,,,,,,,,,,,,5fbcbe35e0fd44188313e19b,2020-11-27_07h08.33.742,lexical_decision_task_MP_exp2,2020.2.5,Win32,60,z,0,,,,,,,,0.283,0,,,,,,54,WORD,"ID",33,ramble,RAMBLE,m,0.283,,,,,,,0.0502693,-0.394075404,0,0,0,,0,3,3,53,1,
,,,,,,,,,,,,,,,,,,5fbcbe35e0fd44188313e19b,2020-11-27_07h08.33.742,lexical_decision_task_MP_exp2,2020.2.5,Win32,60,m,1,,,,,,,,0.286,1,,,,,,132,WORD,UN,33,bleach,STRONG,m,0.286,,,,,,,0.0502693,-0.394075404,0,0,0,,0,4,4,131,1,
,,,,,,,,,,,,,,,,,,5fbcbe35e0fd44188313e19b,2020-11-27_07h08.33.742,lexical_decision_task_MP_exp2,2020.2.5,Win32,60,z,0,,,,,,,,0.073,0,,,,,,33,WORD,"ID",33,butler,BUTLER,m,0.073,,,,,,,0.0502693,-0.394075404,0,0,0,,0,5,5,32,1,
,,,,,,,,,,,,,,,,,,5fbcbe35e0fd44188313e19b,2020-11-27_07h08.33.742,lexical_decision_task_MP_exp2,2020.2.5,Win32,60,z,1,,,,,,,,0.129,1,,,,,,330,NW,"ID",16,kensom,KENSOM,z,0.129,,,,,,,0.0502693,-0.394075404,0,0,0,,0,6,6,329,1,
,,,,,,,,,,,,,,,,,,5fbcbe35e0fd44188313e19b,2020-11-27_07h08.33.742,lexical_decision_task_MP_exp2,2020.2.5,Win32,60,z,1,,,,,,,,0.091,1,,,,,,477,NW,UN,16,acrise,PHOTIE,z,0.091,,,,,,,0.0502693,-0.394075404,0,0,0,,0,7,7,476,1,
,,,,,,,,,,,,,,,,,,5fbcbe35e0fd44188313e19b,2020-11-27_07h08.33.742,lexical_decision_task_MP_exp2,2020.2.5,Win32,60,z,1,,,,,,,,0.008,1,,,,,,396,NW,UN,33,camble,FLENGY,z,0.008,,,,,,,0.0502693,-0.394075404,0,0,0,,0,8,8,395,1,
,,,,,,,,,,,,,,,,,,5fbcbe35e0fd44188313e19b,2020-11-27_07h08.33.742,lexical_decision_task_MP_exp2,2020.2.5,Win32,60,z,0,,,,,,,,0.121,0,,,,,,111,WORD,"ID",16,induce,INDUCE,m,0.121,,,,,,,0.0502693,-0.394075404,0,0,0,,0,9,9,110,1,
,,,,,,,,,,,,,,,,,,5fbcbe35e0fd44188313e19b,2020-11-27_07h08.33.742,lexical_decision_task_MP_exp2,2020.2.5,Win32,60,z,1,,,,,,,,0.099,1,,,,,,341,NW,"ID",16,myrtie,MYRTIE,z,0.099,,,,,,,0.0502693,-0.394075404,0,0,0,,0,10,10,340,1,
,,,,,,,,,,,,,,,,,,5fbcbe35e0fd44188313e19b,2020-11-27_07h08.33.742,lexical_decision_task_MP_exp2,2020.2.5,Win32,60,z,1,,,,,,,,0.033,1,,,,,,390,NW,UN,33,theldy,HATRUS,z,0.033,,,,,,,0.0502693,-0.394075404,0,0,0,,0,11,11,389,1,
,,,,,,,,,,,,,,,,,,5fbcbe35e0fd44188313e19b,2020-11-27_07h08.33.742,lexical_decision_task_MP_exp2,2020.2.5,Win32,60,m,1,,,,,,,,0.071,1,,,,,,156,WORD,UN,33,pastor,CRADLE,m,0.071,,,,,,,0.0502693,-0.394075404,0,0,0,,0,12,12,155,1,
,,,,,,,,,,,,,,,,,,5fbcbe35e0fd44188313e19b,2020-11-27_07h08.33.742,lexical_decision_task_MP_exp2,2020.2.5,Win32,60,z,1,,,,,,,,0.054,1,,,,,,322,NW,"ID",16,slanch,SLANCH,z,0.054,,,,,,,0.0502693,-0.394075404,0,0,0,,0,13,13,321,1,
,,,,,,,,,,,,,,,,,,5fbcbe35e0fd44188313e19b,2020-11-27_07h08.33.742,lexical_decision_task_MP_exp2,2020.2.5,Win32,60,z,1,,,,,,,,0.044,1,,,,,,310,NW,"ID",16,daniet,DANIET,z,0.044,,,,,,,0.0502693,-0.394075404,0,0,0,,0,14,14,309,1,
,,,,,,,,,,,,,,,,,,5fbcbe35e0fd44188313e19b,2020-11-27_07h08.33.742,lexical_decision_task_MP_exp2,2020.2.5,Win32,60,z,0,,,,,,,,0.034,0,,,,,,87,WORD,"ID",16,filter,FILTER,m,0.034,,,,,,,0.0502693,-0.394075404,0,0,0,,0,15,15,86,1,
,,,,,,,,,,,,,,,,,,5fbcbe35e0fd44188313e19b,2020-11-27_07h08.33.742,lexical_decision_task_MP_exp2,2020.2.5,Win32,60,z,0,,,,,,,,0.099,0,,,,,,222,WORD,UN,16,casino,HINDER,m,0.099,,,,,,,0.0502693,-0.394075404,0,0,0,,0,16,16,221,1,
,,,,,,,,,,,,,,,,,,5fbcbe35e0fd44188313e19b,2020-11-27_07h08.33.742,lexical_decision_task_MP_exp2,2020.2.5,Win32,60,z,0,,,,,,,,0.065,0,,,,,,136,WORD,UN,33,finger,BLEACH,m,0.065,,,,,,,0.188509874,-0.347396768,0,0,0,,0,17,17,135,1,
,,,,,,,,,,,,,,,,,,5fbcbe35e0fd44188313e19b,2020-11-27_07h08.33.742,lexical_decision_task_MP_exp2,2020.2.5,Win32,60,z,1,,,,,,,,1.152,1,,,,,,309,NW,"ID",16,amiloy,AMILOY,z,1.152,,,,,,,-0.906642729,-0.250448833,0,0,0,,0,18,18,308,1,
,,,,,,,,,,,,,,,,,,5fbcbe35e0fd44188313e19b,2020-11-27_07h08.33.742,lexical_decision_task_MP_exp2,2020.2.5,Win32,60,,0,,,,,,,,1.152,-1,,,,,,281,NW,"ID",33,melaty,MELATY,z,,,,,,,,-0.861759425,-0.492818671,0,0,0,,0,19,19,280,1,
,,,,,,,,,,,,,,,,,,5fbcbe35e0fd44188313e19b,2020-11-27_07h08.33.742,lexical_decision_task_MP_exp2,2020.2.5,Win32,60,,0,,,,,,,,1.152,-1,,,,,,424,NW,UN,16,urivel,PRAILE,z,,,,,,,,-0.861759425,-0.492818671,0,0,0,,0,20,20,423,1,
,,,,,,,,,,,,,,,,,,5fbcbe35e0fd44188313e19b,2020-11-27_07h08.33.742,lexical_decision_task_MP_exp2,2020.2.5,Win32,60,,0,,,,,,,,1.152,-1,,,,,,270,NW,"ID",33,wrimsy,WRIMSY,z,,,,,,,,-0.861759425,-0.492818671,0,0,0,,0,21,21,269,1,
,,,,,,,,,,,,,,,,,,5fbcbe35e0fd44188313e19b,2020-11-27_07h08.33.742,lexical_decision_task_MP_exp2,2020.2.5,Win32,60,,0,,,,,,,,1.152,-1,,,,,,447,NW,UN,16,sadent,GIRCUE,z,,,,,,,,-0.861759425,-0.492818671,0,0,0,,0,22,22,446,1,
,,,,,,,,,,,,,,,,,,5fbcbe35e0fd44188313e19b,2020-11-27_07h08.33.742,lexical_decision_task_MP_exp2,2020.2.5,Win32,60,,0,,,,,,,,1.152,-1,,,,,,257,NW,"ID",33,veniod,VENIOD,z,,,,,,,,-0.861759425,-0.492818671,0,0,0,,0,23,23,256,1,
,,,,,,,,,,,,,,,,,,5fbcbe35e0fd44188313e19b,2020-11-27_07h08.33.742,lexical_decision_task_MP_exp2,2020.2.5,Win32,60,,0,,,,,,,,1.152,-1,,,,,,308,NW,"ID",16,psetch,PSETCH,z,,,,,,,,-0.861759425,-0.492818671,0,0,0,,0,24,24,307,1,
,,,,,,,,,,,,,,,,,,5fbcbe35e0fd44188313e19b,2020-11-27_07h08.33.742,lexical_decision_task_MP_exp2,2020.2.5,Win32,60,,0,,,,,,,,1.152,-1,,,,,,108,WORD,"ID",16,reckon,RECKON,m,,,,,,,,-0.861759425,-0.492818671,0,0,0,,0,25,25,107,1,
,,,,,,,,,,,,,,,,,,5fbcbe35e0fd44188313e19b,2020-11-27_07h08.33.742,lexical_decision_task_MP_exp2,2020.2.5,Win32,60,m,1,,,,,,,,0.978,1,,,,,,209,WORD,UN,16,monkey,SEARCH,m,0.978,,,,,,,-0.472172352,-0.489228007,0,0,0,,0,26,26,208,1,
,,,,,,,,,,,,,,,,,,5fbcbe35e0fd44188313e19b,2020-11-27_07h08.33.742,lexical_decision_task_MP_exp2,2020.2.5,Win32,60,m,1,,,,,,,,0.033,1,,,,,,68,WORD,"ID",16,fumble,FUMBLE,m,0.033,,,,,,,-0.472172352,-0.489228007,0,0,0,,0,27,27,67,1,
,,,,,,,,,,,,,,,,,,5fbcbe35e0fd44188313e19b,2020-11-27_07h08.33.742,lexical_decision_task_MP_exp2,2020.2.5,Win32,60,m,0,,,,,,,,0.02,0,,,,,,360,NW,"ID",16,desory,DESORY,z,0.02,,,,,,,-0.472172352,-0.489228007,0,0,0,,0,28,28,359,1,
,,,,,,,,,,,,,,,,,,5fbcbe35e0fd44188313e19b,2020-11-27_07h08.33.742,lexical_decision_task_MP_exp2,2020.2.5,Win32,60,z,0,,,,,,,,0.165,0,,,,,,80,WORD,"ID",16,family,FAMILY,m,0.165,,,,,,,-0.472172352,-0.489228007,0,0,0,,0,29,29,79,1,
,,,,,,,,,,,,,,,,,,5fbcbe35e0fd44188313e19b,2020-11-27_07h08.33.742,lexical_decision_task_MP_exp2,2020.2.5,Win32,60,m,1,,,,,,,,0.1,1,,,,,,52,WORD,"ID",33,impose,IMPOSE,m,0.1,,,,,,,-0.472172352,-0.489228007,0,0,0,,0,30,30,51,1,
,,,,,,,,,,,,,,,,,,5fbcbe35e0fd44188313e19b,2020-11-27_07h08.33.742,lexical_decision_task_MP_exp2,2020.2.5,Win32,60,z,1,,,,,,,,0.125,1,,,,,,419,NW,UN,33,gushop,SLOUNT,z,0.125,,,,,,,-0.472172352,-0.489228007,0,0,0,,0,31,31,418,1,
,,,,,,,,,,,,,,,,,,5fbcbe35e0fd44188313e19b,2020-11-27_07h08.33.742,lexical_decision_task_MP_exp2,2020.2.5,Win32,60,z,0,,,,,,,,0.005,0,,,,,,15,WORD,"ID",33,amount,AMOUNT,m,0.005,,,,,,,-0.472172352,-0.489228007,0,0,0,,0,32,32,14,1,
,,,,,,,,,,,,,,,,,,5fbcbe35e0fd44188313e19b,2020-11-27_07h08.33.742,lexical_decision_task_MP_exp2,2020.2.5,Win32,60,z,0,,,,,,,,0.038,0,,,,,,65,WORD,"ID",16,symbol,SYMBOL,m,0.038,,,,,,,-0.472172352,-0.489228007,0,0,0,,0,33,33,64,1,
,,,,,,,,,,,,,,,,,,5fbcbe35e0fd44188313e19b,2020-11-27_07h08.33.742,lexical_decision_task_MP_exp2,2020.2.5,Win32,60,z,0,,,,,,,,0.015,0,,,,,,7,WORD,"ID",33,anchor,ANCHOR,m,0.015,,,,,,,-0.472172352,-0.489228007,0,0,0,,0,34,34,6,1,
,,,,,,,,,,,,,,,,,,5fbcbe35e0fd44188313e19b,2020-11-27_07h08.33.742,lexical_decision_task_MP_exp2,2020.2.5,Win32,60,z,0,,,,,,,,0.003,0,,,,,,103,WORD,"ID",16,bounce,BOUNCE,m,0.003,,,,,,,-0.472172352,-0.489228007,0,0,0,,0,35,35,102,1,
,,,,,,,,,,,,,,,,,,5fbcbe35e0fd44188313e19b,2020-11-27_07h08.33.742,lexical_decision_task_MP_exp2,2020.2.5,Win32,60,z,1,,,,,,,,0,1,,,,,,334,NW,"ID",16,watmeg,WATMEG,z,0,,,,,,,-0.472172352,-0.489228007,0,0,0,,0,36,36,333,1,
,,,,,,,,,,,,,,,,,,5fbcbe35e0fd44188313e19b,2020-11-27_07h08.33.742,lexical_decision_task_MP_exp2,2020.2.5,Win32,60,z,1,,,,,,,,0.037,1,,,,,,245,NW,"ID",33,anougs,ANOUGS,z,0.037,,,,,,,-0.472172352,-0.489228007,0,0,0,,0,37,37,244,1,
,,,,,,,,,,,,,,,,,,5fbcbe35e0fd44188313e19b,2020-11-27_07h08.33.742,lexical_decision_task_MP_exp2,2020.2.5,Win32,60,z,1,,,,,,,,0.056,1,,,,,,329,NW,"ID",16,yarike,YARIKE,z,0.056,,,,,,,-0.472172352,-0.489228007,0,0,0,,0,38,38,328,1,
,,,,,,,,,,,,,,,,,,5fbcbe35e0fd44188313e19b,2020-11-27_07h08.33.742,lexical_decision_task_MP_exp2,2020.2.5,Win32,60,z,1,,,,,,,,0.036,1,,,,,,325,NW,"ID",16,thruse,THRUSE,z,0.036,,,,,,,-0.472172352,-0.489228007,0,0,0,,0,39,39,324,1,
,,,,,,,,,,,,,,,,,,5fbcbe35e0fd44188313e19b,2020-11-27_07h08.33.742,lexical_decision_task_MP_exp2,2020.2.5,Win32,60,z,0,,,,,,,,0.036,0,,,,,,97,WORD,"ID",16,client,CLIENT,m,0.036,,,,,,,-0.472172352,-0.489228007,0,0,0,,0,40,40,96,1,
,,,,,,,,,,,,,,,,,,5fbcbe35e0fd44188313e19b,2020-11-27_07h08.33.742,lexical_decision_task_MP_exp2,2020.2.5,Win32,60,z,0,,,,,,,,0.031,0,,,,,,37,WORD,"ID",33,insult,INSULT,m,0.031,,,,,,,-0.472172352,-0.489228007,0,0,0,,0,41,41,36,1,
,,,,,,,,,,,,,,,,,,5fbcbe35e0fd44188313e19b,2020-11-27_07h08.33.742,lexical_decision_task_MP_exp2,2020.2.5,Win32,60,z,1,,,,,,,,0.002,1,,,,,,439,NW,UN,16,saride,LIMPOR,z,0.002,,,,,,,-0.472172352,-0.489228007,0,0,0,,0,42,42,438,1,
,,,,,,,,,,,,,,,,,,5fbcbe35e0fd44188313e19b,2020-11-27_07h08.33.742,lexical_decision_task_MP_exp2,2020.2.5,Win32,60,z,0,,,,,,,,0.031,0,,,,,,141,WORD,UN,33,spruce,ORPHAN,m,0.031,,,,,,,-0.472172352,-0.489228007,0,0,0,,0,43,43,140,1,
,,,,,,,,,,,,,,,,,,5fbcbe35e0fd44188313e19b,2020-11-27_07h08.33.742,lexical_decision_task_MP_exp2,2020.2.5,Win32,60,z,0,,,,,,,,0.002,0,,,,,,213,WORD,UN,16,intake,SQUEAL,m,0.002,,,,,,,-0.472172352,-0.489228007,0,0,0,,0,44,44,212,1,
,,,,,,,,,,,,,,,,,,5fbcbe35e0fd44188313e19b,2020-11-27_07h08.33.742,lexical_decision_task_MP_exp2,2020.2.5,Win32,60,z,0,,,,,,,,0.003,0,,,,,,113,WORD,"ID",16,chorus,CHORUS,m,0.003,,,,,,,-0.472172352,-0.489228007,0,0,0,,0,45,45,112,1,
,,,,,,,,,,,,,,,,,,5fbcbe35e0fd44188313e19b,2020-11-27_07h08.33.742,lexical_decision_task_MP_exp2,2020.2.5,Win32,60,z,1,,,,,,,,0.007,1,,,,,,391,NW,UN,33,rouncy,THELDY,z,0.007,,,,,,,-0.472172352,-0.489228007,0,0,0,,0,46,46,390,1,
,,,,,,,,,,,,,,,,,,5fbcbe35e0fd44188313e19b,2020-11-27_07h08.33.742,lexical_decision_task_MP_exp2,2020.2.5,Win32,60,m,0,,,,,,,,0.024,0,,,,,,300,NW,"ID",33,yarion,YARION,z,0.024,,,,,,,-0.472172352,-0.489228007,0,0,0,,0,47,47,299,1,
,,,,,,,,,,,,,,,,,,5fbcbe35e0fd44188313e19b,2020-11-27_07h08.33.742,lexical_decision_task_MP_exp2,2020.2.5,Win32,60,z,1,,,,,,,,0.165,1,,,,,,294,NW,"ID",33,inhort,INHORT,z,0.165,,,,,,,-0.472172352,-0.489228007,0,0,0,,0,48,48,293,1,
,,,,,,,,,,,,,,,,,,5fbcbe35e0fd44188313e19b,2020-11-27_07h08.33.742,lexical_decision_task_MP_exp2,2020.2.5,Win32,60,m,1,,,,,,,,0.121,1,,,,,,155,WORD,UN,33,cradle,LIZARD,m,0.121,,,,,,,-0.472172352,-0.489228007,0,0,0,,0,49,49,154,1,
,,,,,,,,,,,,,,,,,,5fbcbe35e0fd44188313e19b,2020-11-27_07h08.33.742,lexical_decision_task_MP_exp2,2020.2.5,Win32,60,m,0,,,,,,,,0.002,0,,,,,,373,NW,UN,33,injore,BIGENT,z,0.002,,,,,,,-0.472172352,-0.489228007,0,0,0,,0,50,50,372,1,
,,,,,,,,,,,,,,,,,,5fbcbe35e0fd44188313e19b,2020-11-27_07h08.33.742,lexical_decision_task_MP_exp2,2020.2.5,Win32,60,m,1,,,,,,,,0.099,1,,,,,,232,WORD,UN,16,nature,INJECT,m,0.099,,,,,,,-0.472172352,-0.489228007,0,0,0,,0,51,51,231,1,
,,,,,,,,,,,,,,,,,,5fbcbe35e0fd44188313e19b,2020-11-27_07h08.33.742,lexical_decision_task_MP_exp2,2020.2.5,Win32,60,m,1,,,,,,,,0.001,1,,,,,,210,WORD,UN,16,infect,MONKEY,m,0.001,,,,,,,-0.472172352,-0.489228007,0,0,0,,0,52,52,209,1,
,,,,,,,,,,,,,,,,,,5fbcbe35e0fd44188313e19b,2020-11-27_07h08.33.742,lexical_decision_task_MP_exp2,2020.2.5,Win32,60,z,1,,,,,,,,0.076,1,,,,,,291,NW,"ID",33,pretch,PRETCH,z,0.076,,,,,,,-0.472172352,-0.489228007,0,0,0,,0,53,53,290,1,
,,,,,,,,,,,,,,,,,,5fbcbe35e0fd44188313e19b,2020-11-27_07h08.33.742,lexical_decision_task_MP_exp2,2020.2.5,Win32,60,m,1,,,,,,,,0.021,1,,,,,,147,WORD,UN,33,custom,GARLIC,m,0.021,,,,,,,-0.472172352,-0.489228007,0,0,0,,0,54,54,146,1,
,,,,,,,,,,,,,,,,,,5fbcbe35e0fd44188313e19b,2020-11-27_07h08.33.742,lexical_decision_task_MP_exp2,2020.2.5,Win32,60,m,0,,,,,,,,0.006,0,,,,,,249,NW,"ID",33,batrol,BATROL,z,0.006,,,,,,,-0.472172352,-0.489228007,0,0,0,,0,55,55,248,1,
,,,,,,,,,,,,,,,,,,5fbcbe35e0fd44188313e19b,2020-11-27_07h08.33.742,lexical_decision_task_MP_exp2,2020.2.5,Win32,60,z,1,,,,,,,,0.149,1,,,,,,410,NW,UN,33,orchin,TUNORY,z,0.149,,,,,,,-0.472172352,-0.489228007,0,0,0,,0,56,56,409,1,
,,,,,,,,,,,,,,,,,,5fbcbe35e0fd44188313e19b,2020-11-27_07h08.33.742,lexical_decision_task_MP_exp2,2020.2.5,Win32,60,,0,,,,,,,,0.149,-1,,,,,,2,WORD,"ID",33,bridge,BRIDGE,m,,,,,,,,-0.829443447,-0.498204668,0,0,0,,0,57,57,1,1,
,,,,,,,,,,,,,,,,,,5fbcbe35e0fd44188313e19b,2020-11-27_07h08.33.742,lexical_decision_task_MP_exp2,2020.2.5,Win32,60,,0,,,,,,,,0.149,-1,,,,,,244,NW,"ID",33,eatric,EATRIC,z,,,,,,,,-0.829443447,-0.498204668,0,0,0,,0,58,58,243,1,
,,,,,,,,,,,,,,,,,,5fbcbe35e0fd44188313e19b,2020-11-27_07h08.33.742,lexical_decision_task_MP_exp2,2020.2.5,Win32,60,z,1,,,,,,,,0.246,1,,,,,,315,NW,"ID",16,laston,LASTON,z,0.246,,,,,,,-0.829443447,-0.498204668,0,0,0,,0,59,59,314,1,
,,,,,,,,,,,,,,,,,,5fbcbe35e0fd44188313e19b,2020-11-27_07h08.33.742,lexical_decision_task_MP_exp2,2020.2.5,Win32,60,z,0,,,,,,,,0.1,0,,,,,,216,WORD,UN,16,liquor,BEHALF,m,0.1,,,,,,,-0.829443447,-0.498204668,0,0,0,,0,60,60,215,1,
,,,,,,,,,,,,,,,,,,5fbcbe35e0fd44188313e19b,2020-11-27_07h08.33.742,lexical_decision_task_MP_exp2,2020.2.5,Win32,60,m,1,,,,,,,,0.148,1,,,,,,133,WORD,UN,33,debris,CHROME,m,0.148,,,,,,,-0.829443447,-0.498204668,0,0,0,,0,61,61,132,1,
,,,,,,,,,,,,,,,,,,5fbcbe35e0fd44188313e19b,2020-11-27_07h08.33.742,lexical_decision_task_MP_exp2,2020.2.5,Win32,60,m,0,,,,,,,,0.076,0,,,,,,289,NW,"ID",33,starby,STARBY,z,0.076,,,,,,,-0.829443447,-0.498204668,0,0,0,,0,62,62,288,1,
,,,,,,,,,,,,,,,,,,5fbcbe35e0fd44188313e19b,2020-11-27_07h08.33.742,lexical_decision_task_MP_exp2,2020.2.5,Win32,60,z,1,,,,,,,,0.001,1,,,,,,305,NW,"ID",16,forgle,FORGLE,z,0.001,,,,,,,-0.829443447,-0.498204668,0,0,0,,0,63,63,304,1,
,,,,,,,,,,,,,,,,,,5fbcbe35e0fd44188313e19b,2020-11-27_07h08.33.742,lexical_decision_task_MP_exp2,2020.2.5,Win32,60,z,0,,,,,,,,0.083,0,,,,,,231,WORD,UN,16,mother,EXPORT,m,0.083,,,,,,,-0.829443447,-0.498204668,0,0,0,,0,64,64,230,1,
,,,,,,,,,,,,,,,,,,5fbcbe35e0fd44188313e19b,2020-11-27_07h08.33.742,lexical_decision_task_MP_exp2,2020.2.5,Win32,60,z,1,,,,,,,,0.109,1,,,,,,451,NW,UN,16,surden,CAINKY,z,0.109,,,,,,,-0.829443447,-0.498204668,0,0,0,,0,65,65,450,1,
,,,,,,,,,,,,,,,,,,5fbcbe35e0fd44188313e19b,2020-11-27_07h08.33.742,lexical_decision_task_MP_exp2,2020.2.5,Win32,60,z,1,,,,,,,,0.067,1,,,,,,260,NW,"ID",33,unject,UNJECT,z,0.067,,,,,,,-0.829443447,-0.498204668,0,0,0,,0,66,66,259,1,
,,,,,,,,,,,,,,,,,,5fbcbe35e0fd44188313e19b,2020-11-27_07h08.33.742,lexical_decision_task_MP_exp2,2020.2.5,Win32,60,z,0,,,,,,,,0.124,0,,,,,,82,WORD,"ID",16,stigma,STIGMA,m,0.124,,,,,,,-0.829443447,-0.498204668,0,0,0,,0,67,67,81,1,
,,,,,,,,,,,,,,,,,,5fbcbe35e0fd44188313e19b,2020-11-27_07h08.33.742,lexical_decision_task_MP_exp2,2020.2.5,Win32,60,z,1,,,,,,,,0.09,1,,,,,,428,NW,UN,16,chrums,TANDLY,z,0.09,,,,,,,-0.829443447,-0.498204668,0,0,0,,0,68,68,427,1,
,,,,,,,,,,,,,,,,,,5fbcbe35e0fd44188313e19b,2020-11-27_07h08.33.742,lexical_decision_task_MP_exp2,2020.2.5,Win32,60,z,1,,,,,,,,0.032,1,,,,,,446,NW,UN,16,gircue,RUNAMO,z,0.032,,,,,,,-0.829443447,-0.498204668,0,0,0,,0,69,69,445,1,
,,,,,,,,,,,,,,,,,,5fbcbe35e0fd44188313e19b,2020-11-27_07h08.33.742,lexical_decision_task_MP_exp2,2020.2.5,Win32,60,z,0,,,,,,,,0.021,0,,,,,,84,WORD,"ID",16,mortal,MORTAL,m,0.021,,,,,,,-0.829443447,-0.498204668,0,0,0,,0,70,70,83,1,
,,,,,,,,,,,,,,,,,,5fbcbe35e0fd44188313e19b,2020-11-27_07h08.33.742,lexical_decision_task_MP_exp2,2020.2.5,Win32,60,z,1,,,,,,,,0.018,1,,,,,,454,NW,UN,16,tondle,SCOUGE,z,0.018,,,,,,,-0.829443447,-0.498204668,0,0,0,,0,71,71,453,1,
,,,,,,,,,,,,,,,,,,5fbcbe35e0fd44188313e19b,2020-11-27_07h08.33.742,lexical_decision_task_MP_exp2,2020.2.5,Win32,60,z,1,,,,,,,,0.117,1,,,,,,480,NW,UN,16,knisma,ROBULY,z,0.117,,,,,,,-0.829443447,-0.498204668,0,0,0,,0,72,72,479,1,
,,,,,,,,,,,,,,,,,,5fbcbe35e0fd44188313e19b,2020-11-27_07h08.33.742,lexical_decision_task_MP_exp2,2020.2.5,Win32,60,z,0,,,,,,,,0.048,0,,,,,,8,WORD,"ID",33,abrupt,ABRUPT,m,0.048,,,,,,,-0.829443447,-0.498204668,0,0,0,,0,73,73,7,1,
,,,,,,,,,,,,,,,,,,5fbcbe35e0fd44188313e19b,2020-11-27_07h08.33.742,lexical_decision_task_MP_exp2,2020.2.5,Win32,60,z,0,,,,,,,,0.033,0,,,,,,76,WORD,"ID",16,exotic,EXOTIC,m,0.033,,,,,,,-0.829443447,-0.498204668,0,0,0,,0,74,74,75,1,
,,,,,,,,,,,,,,,,,,5fbcbe35e0fd44188313e19b,2020-11-27_07h08.33.742,lexical_decision_task_MP_exp2,2020.2.5,Win32,60,z,1,,,,,,,,0.066,1,,,,,,438,NW,UN,16,limpor,BAITCH,z,0.066,,,,,,,-0.829443447,-0.498204668,0,0,0,,0,75,75,437,1,
,,,,,,,,,,,,,,,,,,5fbcbe35e0fd44188313e19b,2020-11-27_07h08.33.742,lexical_decision_task_MP_exp2,2020.2.5,Win32,60,z,0,,,,,,,,0.038,0,,,,,,237,WORD,UN,16,seldom,POSTER,m,0.038,,,,,,,-0.829443447,-0.498204668,0,0,0,,0,76,76,236,1,
,,,,,,,,,,,,,,,,,,5fbcbe35e0fd44188313e19b,2020-11-27_07h08.33.742,lexical_decision_task_MP_exp2,2020.2.5,Win32,60,z,0,,,,,,,,0.031,0,,,,,,78,WORD,"ID",16,column,COLUMN,m,0.031,,,,,,,-0.829443447,-0.498204668,0,0,0,,0,77,77,77,1,
,,,,,,,,,,,,,,,,,,5fbcbe35e0fd44188313e19b,2020-11-27_07h08.33.742,lexical_decision_task_MP_exp2,2020.2.5,Win32,60,z,0,,,,,,,,0.037,0,,,,,,233,WORD,UN,16,clumsy,NATURE,m,0.037,,,,,,,-0.829443447,-0.498204668,0,0,0,,0,78,78,232,1,
,,,,,,,,,,,,,,,,,,5fbcbe35e0fd44188313e19b,2020-11-27_07h08.33.742,lexical_decision_task_MP_exp2,2020.2.5,Win32,60,z,1,,,,,,,,0.066,1,,,,,,470,NW,UN,16,nobest,CRUDIO,z,0.066,,,,,,,-0.829443447,-0.498204668,0,0,0,,0,79,79,469,1,
,,,,,,,,,,,,,,,,,,5fbcbe35e0fd44188313e19b,2020-11-27_07h08.33.742,lexical_decision_task_MP_exp2,2020.2.5,Win32,60,z,1,,,,,,,,0.05,1,,,,,,296,NW,"ID",33,beinch,BEINCH,z,0.05,,,,,,,-0.829443447,-0.498204668,0,0,0,,0,80,80,295,1,
,,,,,,,,,,,,,,,,,,5fbcbe35e0fd44188313e19b,2020-11-27_07h08.33.742,lexical_decision_task_MP_exp2,2020.2.5,Win32,60,z,1,,,,,,,,0.074,1,,,,,,346,NW,"ID",16,saudic,SAUDIC,z,0.074,,,,,,,-0.829443447,-0.498204668,0,0,0,,0,81,81,345,1,
,,,,,,,,,,,,,,,,,,5fbcbe35e0fd44188313e19b,2020-11-27_07h08.33.742,lexical_decision_task_MP_exp2,2020.2.5,Win32,60,z,1,,,,,,,,0.097,1,,,,,,347,NW,"ID",16,kerift,KERIFT,z,0.097,,,,,,,-0.829443447,-0.498204668,0,0,0,,0,82,82,346,1,
,,,,,,,,,,,,,,,,,,5fbcbe35e0fd44188313e19b,2020-11-27_07h08.33.742,lexical_decision_task_MP_exp2,2020.2.5,Win32,60,z,1,,,,,,,,0.048,1,,,,,,413,NW,UN,33,serbol,EQUATS,z,0.048,,,,,,,-0.829443447,-0.498204668,0,0,0,,0,83,83,412,1,
,,,,,,,,,,,,,,,,,,5fbcbe35e0fd44188313e19b,2020-11-27_07h08.33.742,lexical_decision_task_MP_exp2,2020.2.5,Win32,60,z,0,,,,,,,,0.123,0,,,,,,53,WORD,"ID",33,police,POLICE,m,0.123,,,,,,,-0.829443447,-0.498204668,0,0,0,,0,84,84,52,1,
,,,,,,,,,,,,,,,,,,5fbcbe35e0fd44188313e19b,2020-11-27_07h08.33.742,lexical_decision_task_MP_exp2,2020.2.5,Win32,60,m,1,,,,,,,,0.019,1,,,,,,81,WORD,"ID",16,friend,FRIEND,m,0.019,,,,,,,-0.829443447,-0.498204668,0,0,0,,0,85,85,80,1,
,,,,,,,,,,,,,,,,,,5fbcbe35e0fd44188313e19b,2020-11-27_07h08.33.742,lexical_decision_task_MP_exp2,2020.2.5,Win32,60,m,0,,,,,,,,0.034,0,,,,,,323,NW,"ID",16,rosail,ROSAIL,z,0.034,,,,,,,-0.829443447,-0.498204668,0,0,0,,0,86,86,322,1,
,,,,,,,,,,,,,,,,,,5fbcbe35e0fd44188313e19b,2020-11-27_07h08.33.742,lexical_decision_task_MP_exp2,2020.2.5,Win32,60,m,0,,,,,,,,0.04,0,,,,,,354,NW,"ID",16,virlex,VIRLEX,z,0.04,,,,,,,-0.829443447,-0.498204668,0,0,0,,0,87,87,353,1,
,,,,,,,,,,,,,,,,,,5fbcbe35e0fd44188313e19b,2020-11-27_07h08.33.742,lexical_decision_task_MP_exp2,2020.2.5,Win32,60,m,0,,,,,,,,0.165,0,,,,,,320,NW,"ID",16,jockal,JOCKAL,z,0.165,,,,,,,-0.829443447,-0.498204668,0,0,0,,0,88,88,319,1,
,,,,,,,,,,,,,,,,,,5fbcbe35e0fd44188313e19b,2020-11-27_07h08.33.742,lexical_decision_task_MP_exp2,2020.2.5,Win32,60,m,1,,,,,,,,0.05,1,,,,,,197,WORD,UN,16,wicked,STREAM,m,0.05,,,,,,,-0.829443447,-0.498204668,0,0,0,,0,89,89,196,1,
,,,,,,,,,,,,,,,,,,5fbcbe35e0fd44188313e19b,2020-11-27_07h08.33.742,lexical_decision_task_MP_exp2,2020.2.5,Win32,60,m,1,,,,,,,,0.004,1,,,,,,83,WORD,"ID",16,result,RESULT,m,0.004,,,,,,,-0.829443447,-0.498204668,0,0,0,,0,90,90,82,1,
,,,,,,,,,,,,,,,,,,5fbcbe35e0fd44188313e19b,2020-11-27_07h08.33.742,lexical_decision_task_MP_exp2,2020.2.5,Win32,60,m,1,,,,,,,,0.033,1,,,,,,173,WORD,UN,33,turkey,SHOWER,m,0.033,,,,,,,-0.829443447,-0.498204668,0,0,0,,0,91,91,172,1,
,,,,,,,,,,,,,,,,,,5fbcbe35e0fd44188313e19b,2020-11-27_07h08.33.742,lexical_decision_task_MP_exp2,2020.2.5,Win32,60,m,1,,,,,,,,0.126,1,,,,,,167,WORD,UN,33,answer,DESIGN,m,0.126,,,,,,,-0.829443447,-0.498204668,0,0,0,,0,92,92,166,1,
,,,,,,,,,,,,,,,,,,5fbcbe35e0fd44188313e19b,2020-11-27_07h08.33.742,lexical_decision_task_MP_exp2,2020.2.5,Win32,60,m,0,,,,,,,,0.119,0,,,,,,402,NW,UN,33,bruats,SYNTIC,z,0.119,,,,,,,-0.829443447,-0.498204668,0,0,0,,0,93,93,401,1,
,,,,,,,,,,,,,,,,,,5fbcbe35e0fd44188313e19b,2020-11-27_07h08.33.742,lexical_decision_task_MP_exp2,2020.2.5,Win32,60,m,1,,,,,,,,0.136,1,,,,,,130,WORD,UN,33,quench,STUPID,m,0.136,,,,,,,-0.829443447,-0.498204668,0,0,0,,0,94,94,129,1,
,,,,,,,,,,,,,,,,,,5fbcbe35e0fd44188313e19b,2020-11-27_07h08.33.742,lexical_decision_task_MP_exp2,2020.2.5,Win32,60,m,0,,,,,,,,0.004,0,,,,,,328,NW,"ID",16,broake,BROAKE,z,0.004,,,,,,,-0.829443447,-0.498204668,0,0,0,,0,95,95,327,1,
,,,,,,,,,,,,,,,,,,5fbcbe35e0fd44188313e19b,2020-11-27_07h08.33.742,lexical_decision_task_MP_exp2,2020.2.5,Win32,60,m,0,,,,,,,,0.148,0,,,,,,361,NW,UN,33,tireau,PAUCHE,z,0.148,,,,,,,-0.829443447,-0.498204668,0,0,0,,0,96,96,360,1,
,,,,,,,,,,,,,,,,,,5fbcbe35e0fd44188313e19b,2020-11-27_07h08.33.742,lexical_decision_task_MP_exp2,2020.2.5,Win32,60,m,1,,,,,,,,0.103,1,,,,,,10,WORD,"ID",33,ethnic,ETHNIC,m,0.103,,,,,,,-0.829443447,-0.498204668,0,0,0,,0,97,97,9,1,
,,,,,,,,,,,,,,,,,,5fbcbe35e0fd44188313e19b,2020-11-27_07h08.33.742,lexical_decision_task_MP_exp2,2020.2.5,Win32,60,m,0,,,,,,,,0.018,0,,,,,,467,NW,UN,16,wictor,GORBIE,z,0.018,,,,,,,-0.829443447,-0.498204668,0,0,0,,0,98,98,466,1,
,,,,,,,,,,,,,,,,,,5fbcbe35e0fd44188313e19b,2020-11-27_07h08.33.742,lexical_decision_task_MP_exp2,2020.2.5,Win32,60,m,0,,,,,,,,0.017,0,,,,,,290,NW,"ID",33,splino,SPLINO,z,0.017,,,,,,,-0.829443447,-0.498204668,0,0,0,,0,99,99,289,1,
,,,,,,,,,,,,,,,,,,5fbcbe35e0fd44188313e19b,2020-11-27_07h08.33.742,lexical_decision_task_MP_exp2,2020.2.5,Win32,60,m,1,,,,,,,,0.149,1,,,,,,75,WORD,"ID",16,trophy,TROPHY,m,0.149,,,,,,,-0.829443447,-0.498204668,0,0,0,,0,100,100,74,1,
,,,,,,,,,,,,,,,,,,5fbcbe35e0fd44188313e19b,2020-11-27_07h08.33.742,lexical_decision_task_MP_exp2,2020.2.5,Win32,60,m,1,,,,,,,,0.114,1,,,,,,100,WORD,"ID",16,carbon,CARBON,m,0.114,,,,,,,-0.829443447,-0.498204668,0,0,0,,0,101,101,99,1,
,,,,,,,,,,,,,,,,,,5fbcbe35e0fd44188313e19b,2020-11-27_07h08.33.742,lexical_decision_task_MP_exp2,2020.2.5,Win32,60,m,0,,,,,,,,0.467,0,,,,,,479,NW,UN,16,josted,LOBUSH,z,0.467,,,,,,,-0.829443447,-0.498204668,0,0,0,,0,102,102,478,1,
,,,,,,,,,,,,,,,,,,5fbcbe35e0fd44188313e19b,2020-11-27_07h08.33.742,lexical_decision_task_MP_exp2,2020.2.5,Win32,60,m,0,,,,,,,,0.085,0,,,,,,441,NW,UN,16,aboune,RASTOE,z,0.085,,,,,,,-0.829443447,-0.498204668,0,0,0,,0,103,103,440,1,
,,,,,,,,,,,,,,,,,,5fbcbe35e0fd44188313e19b,2020-11-27_07h08.33.742,lexical_decision_task_MP_exp2,2020.2.5,Win32,60,m,1,,,,,,,,0.031,1,,,,,,12,WORD,"ID",33,orange,ORANGE,m,0.031,,,,,,,-0.829443447,-0.498204668,0,0,0,,0,104,104,11,1,
,,,,,,,,,,,,,,,,,,5fbcbe35e0fd44188313e19b,2020-11-27_07h08.33.742,lexical_decision_task_MP_exp2,2020.2.5,Win32,60,m,1,,,,,,,,0.002,1,,,,,,175,WORD,UN,33,strife,FABRIC,m,0.002,,,,,,,-0.829443447,-0.498204668,0,0,0,,0,105,105,174,1,
,,,,,,,,,,,,,,,,,,5fbcbe35e0fd44188313e19b,2020-11-27_07h08.33.742,lexical_decision_task_MP_exp2,2020.2.5,Win32,60,m,1,,,,,,,,0.217,1,,,,,,17,WORD,"ID",33,charge,CHARGE,m,0.217,,,,,,,-0.829443447,-0.498204668,0,0,0,,0,106,106,16,1,
,,,,,,,,,,,,,,,,,,5fbcbe35e0fd44188313e19b,2020-11-27_07h08.33.742,lexical_decision_task_MP_exp2,2020.2.5,Win32,60,m,1,,,,,,,,0.206,1,,,,,,215,WORD,UN,16,behalf,PHOBIA,m,0.206,,,,,,,-0.829443447,-0.498204668,0,0,0,,0,107,107,214,1,
,,,,,,,,,,,,,,,,,,5fbcbe35e0fd44188313e19b,2020-11-27_07h08.33.742,lexical_decision_task_MP_exp2,2020.2.5,Win32,60,m,1,,,,,,,,0.131,1,,,,,,174,WORD,UN,33,fabric,TURKEY,m,0.131,,,,,,,-0.829443447,-0.498204668,0,0,0,,0,108,108,173,1,
,,,,,,,,,,,,,,,,,,5fbcbe35e0fd44188313e19b,2020-11-27_07h08.33.742,lexical_decision_task_MP_exp2,2020.2.5,Win32,60,m,0,,,,,,,,0.216,0,,,,,,369,NW,UN,33,sleact,WRONCH,z,0.216,,,,,,,-0.829443447,-0.498204668,0,0,0,,0,109,109,368,1,
,,,,,,,,,,,,,,,,,,5fbcbe35e0fd44188313e19b,2020-11-27_07h08.33.742,lexical_decision_task_MP_exp2,2020.2.5,Win32,60,m,1,,,,,,,,0.191,1,,,,,,24,WORD,"ID",33,praise,PRAISE,m,0.191,,,,,,,-0.829443447,-0.498204668,0,0,0,,0,110,110,23,1,
,,,,,,,,,,,,,,,,,,5fbcbe35e0fd44188313e19b,2020-11-27_07h08.33.742,lexical_decision_task_MP_exp2,2020.2.5,Win32,60,m,1,,,,,,,,0.234,1,,,,,,92,WORD,"ID",16,strand,STRAND,m,0.234,,,,,,,-0.829443447,-0.498204668,0,0,0,,0,111,111,91,1,
,,,,,,,,,,,,,,,,,,5fbcbe35e0fd44188313e19b,2020-11-27_07h08.33.742,lexical_decision_task_MP_exp2,2020.2.5,Win32,60,m,1,,,,,,,,0.171,1,,,,,,180,WORD,UN,33,thrive,SILENT,m,0.171,,,,,,,-0.829443447,-0.498204668,0,0,0,,0,112,112,179,1,
,,,,,,,,,,,,,,,,,,5fbcbe35e0fd44188313e19b,2020-11-27_07h08.33.742,lexical_decision_task_MP_exp2,2020.2.5,Win32,60,m,0,,,,,,,,0.317,0,,,,,,469,NW,UN,16,crudio,PADIFS,z,0.317,,,,,,,-0.829443447,-0.498204668,0,0,0,,0,113,113,468,1,
,,,,,,,,,,,,,,,,,,5fbcbe35e0fd44188313e19b,2020-11-27_07h08.33.742,lexical_decision_task_MP_exp2,2020.2.5,Win32,60,m,1,,,,,,,,0.065,1,,,,,,185,WORD,UN,16,portal,BOTHER,m,0.065,,,,,,,-0.829443447,-0.498204668,0,0,0,,0,114,114,184,1,
,,,,,,,,,,,,,,,,,,5fbcbe35e0fd44188313e19b,2020-11-27_07h08.33.742,lexical_decision_task_MP_exp2,2020.2.5,Win32,60,m,1,,,,,,,,0.233,1,,,,,,199,WORD,UN,16,beacon,INVOKE,m,0.233,,,,,,,-0.829443447,-0.498204668,0,0,0,,0,115,115,198,1,
,,,,,,,,,,,,,,,,,,5fbcbe35e0fd44188313e19b,2020-11-27_07h08.33.742,lexical_decision_task_MP_exp2,2020.2.5,Win32,60,m,0,,,,,,,,0.002,0,,,,,,457,NW,UN,16,barcet,WANIGH,z,0.002,,,,,,,-0.829443447,-0.498204668,0,0,0,,0,116,116,456,1,
,,,,,,,,,,,,,,,,,,5fbcbe35e0fd44188313e19b,2020-11-27_07h08.33.742,lexical_decision_task_MP_exp2,2020.2.5,Win32,60,m,0,,,,,,,,0.004,0,,,,,,461,NW,UN,16,absult,JUSTRE,z,0.004,,,,,,,-0.829443447,-0.498204668,0,0,0,,0,117,117,460,1,
,,,,,,,,,,,,,,,,,,5fbcbe35e0fd44188313e19b,2020-11-27_07h08.33.742,lexical_decision_task_MP_exp2,2020.2.5,Win32,60,m,0,,,,,,,,0.256,0,,,,,,343,NW,"ID",16,aimosy,AIMOSY,z,0.256,,,,,,,-0.829443447,-0.498204668,0,0,0,,0,118,118,342,1,
,,,,,,,,,,,,,,,,,,5fbcbe35e0fd44188313e19b,2020-11-27_07h08.33.742,lexical_decision_task_MP_exp2,2020.2.5,Win32,60,m,1,,,,,,,,0.217,1,,,,,,42,WORD,"ID",33,chapel,CHAPEL,m,0.217,,,,,,,-0.829443447,-0.498204668,0,0,0,,0,119,119,41,1,
,,,,,,,,,,,,,,,,,,5fbcbe35e0fd44188313e19b,2020-11-27_07h08.33.742,lexical_decision_task_MP_exp2,2020.2.5,Win32,60,m,0,,,,,,,,0.019,0,,,,,,432,NW,UN,16,drance,LUNKER,z,0.019,,,,,,,0.003590664,-0.394075404,1,0,0,,0,120,120,431,1,break_done_button
,,,,,,,,,,,,,,,,,,5fbcbe35e0fd44188313e19b,2020-11-27_07h08.33.742,lexical_decision_task_MP_exp2,2020.2.5,Win32,60,,0,-0.414721724,-0.28994614,1,0,0,0.131,button_left,0.131,1,,,,,,452,NW,UN,16,bolvis,SURDEN,z,,,,,,,,-0.414721724,-0.28994614,1,0,0,,0,121,121,451,1,
,,,,,,,,,,,,,,,,,,5fbcbe35e0fd44188313e19b,2020-11-27_07h08.33.742,lexical_decision_task_MP_exp2,2020.2.5,Win32,60,,0,-0.414721724,-0.28994614,1,0,0,0.132,button_left,0.132,0,,,,,,160,WORD,UN,33,dragon,VIOLET,m,,,,,,,,-0.414721724,-0.28994614,1,0,0,,0,122,122,159,1,
,,,,,,,,,,,,,,,,,,5fbcbe35e0fd44188313e19b,2020-11-27_07h08.33.742,lexical_decision_task_MP_exp2,2020.2.5,Win32,60,,0,-0.414721724,-0.28994614,1,0,0,0.031,button_left,0.031,1,,,,,,416,NW,UN,33,earoud,PATHEL,z,,,,,,,,-0.414721724,-0.28994614,1,0,0,,0,123,123,415,1,
,,,,,,,,,,,,,,,,,,5fbcbe35e0fd44188313e19b,2020-11-27_07h08.33.742,lexical_decision_task_MP_exp2,2020.2.5,Win32,60,,0,-0.414721724,-0.28994614,1,0,0,0.047,button_left,0.047,1,,,,,,375,NW,UN,33,iguare,YORQUE,z,,,,,,,,-0.414721724,-0.28994614,1,0,0,,0,124,124,374,1,
,,,,,,,,,,,,,,,,,,5fbcbe35e0fd44188313e19b,2020-11-27_07h08.33.742,lexical_decision_task_MP_exp2,2020.2.5,Win32,60,z,1,,,,,,,,0.184,1,,,,,,364,NW,UN,33,guairt,IMPOTE,z,0.184,,,,,,,-0.403949731,-0.248653501,0,0,0,,0,125,125,363,1,
,,,,,,,,,,,,,,,,,,5fbcbe35e0fd44188313e19b,2020-11-27_07h08.33.742,lexical_decision_task_MP_exp2,2020.2.5,Win32,60,m,1,,,,,,,,0.001,1,,,,,,148,WORD,UN,33,invade,CUSTOM,m,0.001,,,,,,,-0.403949731,-0.248653501,0,0,0,,0,126,126,147,1,
,,,,,,,,,,,,,,,,,,5fbcbe35e0fd44188313e19b,2020-11-27_07h08.33.742,lexical_decision_task_MP_exp2,2020.2.5,Win32,60,m,1,,,,,,,,0.088,1,,,,,,45,WORD,"ID",33,clergy,CLERGY,m,0.088,,,,,,,-0.403949731,-0.248653501,0,0,0,,0,127,127,44,1,
,,,,,,,,,,,,,,,,,,5fbcbe35e0fd44188313e19b,2020-11-27_07h08.33.742,lexical_decision_task_MP_exp2,2020.2.5,Win32,60,m,0,,,,,,,,0.034,0,,,,,,442,NW,UN,16,dorsex,ABOUNE,z,0.034,,,,,,,-0.403949731,-0.248653501,0,0,0,,0,128,128,441,1,
,,,,,,,,,,,,,,,,,,5fbcbe35e0fd44188313e19b,2020-11-27_07h08.33.742,lexical_decision_task_MP_exp2,2020.2.5,Win32,60,m,1,,,,,,,,0.014,1,,,,,,194,WORD,UN,16,resign,ABSENT,m,0.014,,,,,,,-0.403949731,-0.248653501,0,0,0,,0,129,129,193,1,
,,,,,,,,,,,,,,,,,,5fbcbe35e0fd44188313e19b,2020-11-27_07h08.33.742,lexical_decision_task_MP_exp2,2020.2.5,Win32,60,m,1,,,,,,,,0.067,1,,,,,,90,WORD,"ID",16,relish,RELISH,m,0.067,,,,,,,-0.403949731,-0.248653501,0,0,0,,0,130,130,89,1,
,,,,,,,,,,,,,,,,,,5fbcbe35e0fd44188313e19b,2020-11-27_07h08.33.742,lexical_decision_task_MP_exp2,2020.2.5,Win32,60,z,1,,,,,,,,0.002,1,,,,,,376,NW,UN,33,sliant,IGUARE,z,0.002,,,,,,,-0.403949731,-0.248653501,0,0,0,,0,131,131,375,1,
,,,,,,,,,,,,,,,,,,5fbcbe35e0fd44188313e19b,2020-11-27_07h08.33.742,lexical_decision_task_MP_exp2,2020.2.5,Win32,60,z,1,,,,,,,,0.001,1,,,,,,246,NW,"ID",33,piaton,PIATON,z,0.001,,,,,,,-0.403949731,-0.248653501,0,0,0,,0,132,132,245,1,
,,,,,,,,,,,,,,,,,,5fbcbe35e0fd44188313e19b,2020-11-27_07h08.33.742,lexical_decision_task_MP_exp2,2020.2.5,Win32,60,z,0,,,,,,,,0.032,0,,,,,,118,WORD,"ID",16,flight,FLIGHT,m,0.032,,,,,,,-0.403949731,-0.248653501,0,0,0,,0,133,133,117,1,
,,,,,,,,,,,,,,,,,,5fbcbe35e0fd44188313e19b,2020-11-27_07h08.33.742,lexical_decision_task_MP_exp2,2020.2.5,Win32,60,z,1,,,,,,,,0.03,1,,,,,,256,NW,"ID",33,inlors,INLORS,z,0.03,,,,,,,-0.403949731,-0.248653501,0,0,0,,0,134,134,255,1,
,,,,,,,,,,,,,,,,,,5fbcbe35e0fd44188313e19b,2020-11-27_07h08.33.742,lexical_decision_task_MP_exp2,2020.2.5,Win32,60,m,1,,,,,,,,0.116,1,,,,,,71,WORD,"ID",16,garden,GARDEN,m,0.116,,,,,,,-0.403949731,-0.248653501,0,0,0,,0,135,135,70,1,
,,,,,,,,,,,,,,,,,,5fbcbe35e0fd44188313e19b,2020-11-27_07h08.33.742,lexical_decision_task_MP_exp2,2020.2.5,Win32,60,m,0,,,,,,,,0.079,0,,,,,,365,NW,UN,33,toshel,GUAIRT,z,0.079,,,,,,,-0.403949731,-0.248653501,0,0,0,,0,136,136,364,1,
,,,,,,,,,,,,,,,,,,5fbcbe35e0fd44188313e19b,2020-11-27_07h08.33.742,lexical_decision_task_MP_exp2,2020.2.5,Win32,60,z,1,,,,,,,,0.002,1,,,,,,367,NW,UN,33,hornal,SLIQUE,z,0.002,,,,,,,-0.403949731,-0.248653501,0,0,0,,0,137,137,366,1,
,,,,,,,,,,,,,,,,,,5fbcbe35e0fd44188313e19b,2020-11-27_07h08.33.742,lexical_decision_task_MP_exp2,2020.2.5,Win32,60,m,1,,,,,,,,0.036,1,,,,,,128,WORD,UN,33,marvel,SENIOR,m,0.036,,,,,,,-0.403949731,-0.248653501,0,0,0,,0,138,138,127,1,
,,,,,,,,,,,,,,,,,,5fbcbe35e0fd44188313e19b,2020-11-27_07h08.33.742,lexical_decision_task_MP_exp2,2020.2.5,Win32,60,z,1,,,,,,,,0.066,1,,,,,,324,NW,"ID",16,steikh,STEIKH,z,0.066,,,,,,,-0.403949731,-0.248653501,0,0,0,,0,139,139,323,1,
,,,,,,,,,,,,,,,,,,5fbcbe35e0fd44188313e19b,2020-11-27_07h08.33.742,lexical_decision_task_MP_exp2,2020.2.5,Win32,60,m,0,,,,,,,,0.198,0,,,,,,273,NW,"ID",33,sortel,SORTEL,z,0.198,,,,,,,-0.403949731,-0.248653501,0,0,0,,0,140,140,272,1,
,,,,,,,,,,,,,,,,,,5fbcbe35e0fd44188313e19b,2020-11-27_07h08.33.742,lexical_decision_task_MP_exp2,2020.2.5,Win32,60,m,0,,,,,,,,0.163,0,,,,,,351,NW,"ID",16,tiesch,TIESCH,z,0.163,,,,,,,-0.403949731,-0.248653501,0,0,0,,0,141,141,350,1,
,,,,,,,,,,,,,,,,,,5fbcbe35e0fd44188313e19b,2020-11-27_07h08.33.742,lexical_decision_task_MP_exp2,2020.2.5,Win32,60,m,1,,,,,,,,0.015,1,,,,,,96,WORD,"ID",16,ignore,IGNORE,m,0.015,,,,,,,-0.403949731,-0.248653501,0,0,0,,0,142,142,95,1,
,,,,,,,,,,,,,,,,,,5fbcbe35e0fd44188313e19b,2020-11-27_07h08.33.742,lexical_decision_task_MP_exp2,2020.2.5,Win32,60,m,0,,,,,,,,0.003,0,,,,,,434,NW,UN,16,impurb,PITROM,z,0.003,,,,,,,-0.403949731,-0.248653501,0,0,0,,0,143,143,433,1,
,,,,,,,,,,,,,,,,,,5fbcbe35e0fd44188313e19b,2020-11-27_07h08.33.742,lexical_decision_task_MP_exp2,2020.2.5,Win32,60,m,1,,,,,,,,0.125,1,,,,,,16,WORD,"ID",33,faucet,FAUCET,m,0.125,,,,,,,-0.403949731,-0.248653501,0,0,0,,0,144,144,15,1,
,,,,,,,,,,,,,,,,,,5fbcbe35e0fd44188313e19b,2020-11-27_07h08.33.742,lexical_decision_task_MP_exp2,2020.2.5,Win32,60,z,1,,,,,,,,0.002,1,,,,,,472,NW,UN,16,crible,CIGNEY,z,0.002,,,,,,,-0.403949731,-0.248653501,0,0,0,,0,145,145,471,1,
,,,,,,,,,,,,,,,,,,5fbcbe35e0fd44188313e19b,2020-11-27_07h08.33.742,lexical_decision_task_MP_exp2,2020.2.5,Win32,60,z,1,,,,,,,,0.004,1,,,,,,276,NW,"ID",33,yarmon,YARMON,z,0.004,,,,,,,-0.403949731,-0.248653501,0,0,0,,0,146,146,275,1,
,,,,,,,,,,,,,,,,,,5fbcbe35e0fd44188313e19b,2020-11-27_07h08.33.742,lexical_decision_task_MP_exp2,2020.2.5,Win32,60,m,1,,,,,,,,0.003,1,,,,,,226,WORD,UN,16,flower,CASINO,m,0.003,,,,,,,-0.403949731,-0.248653501,0,0,0,,0,147,147,225,1,
,,,,,,,,,,,,,,,,,,5fbcbe35e0fd44188313e19b,2020-11-27_07h08.33.742,lexical_decision_task_MP_exp2,2020.2.5,Win32,60,m,1,,,,,,,,0.002,1,,,,,,172,WORD,UN,33,shower,PATROL,m,0.002,,,,,,,-0.403949731,-0.248653501,0,0,0,,0,148,148,171,1,
,,,,,,,,,,,,,,,,,,5fbcbe35e0fd44188313e19b,2020-11-27_07h08.33.742,lexical_decision_task_MP_exp2,2020.2.5,Win32,60,z,1,,,,,,,,0.249,1,,,,,,377,NW,UN,33,shrile,INJORE,z,0.249,,,,,,,-0.403949731,-0.248653501,0,0,0,,0,149,149,376,1,
,,,,,,,,,,,,,,,,,,5fbcbe35e0fd44188313e19b,2020-11-27_07h08.33.742,lexical_decision_task_MP_exp2,2020.2.5,Win32,60,z,0,,,,,,,,0.015,0,,,,,,62,WORD,"ID",16,region,REGION,m,0.015,,,,,,,-0.403949731,-0.248653501,0,0,0,,0,150,150,61,1,
,,,,,,,,,,,,,,,,,,5fbcbe35e0fd44188313e19b,2020-11-27_07h08.33.742,lexical_decision_task_MP_exp2,2020.2.5,Win32,60,z,1,,,,,,,,0.151,1,,,,,,348,NW,"ID",16,dumple,DUMPLE,z,0.151,,,,,,,-0.403949731,-0.248653501,0,0,0,,0,151,151,347,1,
,,,,,,,,,,,,,,,,,,5fbcbe35e0fd44188313e19b,2020-11-27_07h08.33.742,lexical_decision_task_MP_exp2,2020.2.5,Win32,60,m,0,,,,,,,,0.058,0,,,,,,417,NW,UN,33,suidle,EAROUD,z,0.058,,,,,,,-0.403949731,-0.248653501,0,0,0,,0,152,152,416,1,
,,,,,,,,,,,,,,,,,,5fbcbe35e0fd44188313e19b,2020-11-27_07h08.33.742,lexical_decision_task_MP_exp2,2020.2.5,Win32,60,z,0,,,,,,,,0.001,0,,,,,,117,WORD,"ID",16,branch,BRANCH,m,0.001,,,,,,,-0.403949731,-0.248653501,0,0,0,,0,153,153,116,1,
,,,,,,,,,,,,,,,,,,5fbcbe35e0fd44188313e19b,2020-11-27_07h08.33.742,lexical_decision_task_MP_exp2,2020.2.5,Win32,60,m,0,,,,,,,,0.015,0,,,,,,386,NW,UN,33,gronce,ANCUST,z,0.015,,,,,,,-0.403949731,-0.248653501,0,0,0,,0,154,154,385,1,
,,,,,,,,,,,,,,,,,,5fbcbe35e0fd44188313e19b,2020-11-27_07h08.33.742,lexical_decision_task_MP_exp2,2020.2.5,Win32,60,z,1,,,,,,,,0.037,1,,,,,,283,NW,"ID",33,veralf,VERALF,z,0.037,,,,,,,-0.403949731,-0.248653501,0,0,0,,0,155,155,282,1,
,,,,,,,,,,,,,,,,,,5fbcbe35e0fd44188313e19b,2020-11-27_07h08.33.742,lexical_decision_task_MP_exp2,2020.2.5,Win32,60,m,0,,,,,,,,0.134,0,,,,,,381,NW,UN,33,sarley,HUNIEK,z,0.134,,,,,,,-0.403949731,-0.248653501,0,0,0,,0,156,156,380,1,
,,,,,,,,,,,,,,,,,,5fbcbe35e0fd44188313e19b,2020-11-27_07h08.33.742,lexical_decision_task_MP_exp2,2020.2.5,Win32,60,z,0,,,,,,,,0.016,0,,,,,,170,WORD,UN,33,depart,POUNCE,m,0.016,,,,,,,-0.403949731,-0.248653501,0,0,0,,0,157,157,169,1,
,,,,,,,,,,,,,,,,,,5fbcbe35e0fd44188313e19b,2020-11-27_07h08.33.742,lexical_decision_task_MP_exp2,2020.2.5,Win32,60,m,0,,,,,,,,0.013,0,,,,,,288,NW,"ID",33,yaceup,YACEUP,z,0.013,,,,,,,-0.403949731,-0.248653501,0,0,0,,0,158,158,287,1,
,,,,,,,,,,,,,,,,,,5fbcbe35e0fd44188313e19b,2020-11-27_07h08.33.742,lexical_decision_task_MP_exp2,2020.2.5,Win32,60,z,0,,,,,,,,0.032,0,,,,,,236,WORD,UN,16,poster,PIRATE,m,0.032,,,,,,,-0.403949731,-0.248653501,0,0,0,,0,159,159,235,1,
,,,,,,,,,,,,,,,,,,5fbcbe35e0fd44188313e19b,2020-11-27_07h08.33.742,lexical_decision_task_MP_exp2,2020.2.5,Win32,60,m,1,,,,,,,,0.023,1,,,,,,119,WORD,"ID",16,spider,SPIDER,m,0.023,,,,,,,-0.403949731,-0.248653501,0,0,0,,0,160,160,118,1,
,,,,,,,,,,,,,,,,,,5fbcbe35e0fd44188313e19b,2020-11-27_07h08.33.742,lexical_decision_task_MP_exp2,2020.2.5,Win32,60,m,1,,,,,,,,0.131,1,,,,,,123,WORD,UN,33,enough,STRIKE,m,0.131,,,,,,,-0.403949731,-0.248653501,0,0,0,,0,161,161,122,1,
,,,,,,,,,,,,,,,,,,5fbcbe35e0fd44188313e19b,2020-11-27_07h08.33.742,lexical_decision_task_MP_exp2,2020.2.5,Win32,60,m,0,,,,,,,,0.066,0,,,,,,445,NW,UN,16,runamo,MINKEL,z,0.066,,,,,,,-0.403949731,-0.248653501,0,0,0,,0,162,162,444,1,
,,,,,,,,,,,,,,,,,,5fbcbe35e0fd44188313e19b,2020-11-27_07h08.33.742,lexical_decision_task_MP_exp2,2020.2.5,Win32,60,z,1,,,,,,,,0.001,1,,,,,,339,NW,"ID",16,fachow,FACHOW,z,0.001,,,,,,,-0.403949731,-0.248653501,0,0,0,,0,163,163,338,1,
,,,,,,,,,,,,,,,,,,5fbcbe35e0fd44188313e19b,2020-11-27_07h08.33.742,lexical_decision_task_MP_exp2,2020.2.5,Win32,60,z,0,,,,,,,,0.074,0,,,,,,35,WORD,"ID",33,socket,SOCKET,m,0.074,,,,,,,-0.403949731,-0.248653501,0,0,0,,0,164,164,34,1,
,,,,,,,,,,,,,,,,,,5fbcbe35e0fd44188313e19b,2020-11-27_07h08.33.742,lexical_decision_task_MP_exp2,2020.2.5,Win32,60,m,0,,,,,,,,0.034,0,,,,,,326,NW,"ID",16,iguade,IGUADE,z,0.034,,,,,,,-0.403949731,-0.248653501,0,0,0,,0,165,165,325,1,
,,,,,,,,,,,,,,,,,,5fbcbe35e0fd44188313e19b,2020-11-27_07h08.33.742,lexical_decision_task_MP_exp2,2020.2.5,Win32,60,m,0,,,,,,,,0.085,0,,,,,,421,NW,UN,16,alcoud,KNISMA,z,0.085,,,,,,,-0.403949731,-0.248653501,0,0,0,,0,166,166,420,1,
,,,,,,,,,,,,,,,,,,5fbcbe35e0fd44188313e19b,2020-11-27_07h08.33.742,lexical_decision_task_MP_exp2,2020.2.5,Win32,60,m,0,,,,,,,,0.102,0,,,,,,299,NW,"ID",33,sturch,STURCH,z,0.102,,,,,,,-0.403949731,-0.248653501,0,0,0,,0,167,167,298,1,
,,,,,,,,,,,,,,,,,,5fbcbe35e0fd44188313e19b,2020-11-27_07h08.33.742,lexical_decision_task_MP_exp2,2020.2.5,Win32,60,m,1,,,,,,,,0.272,1,,,,,,139,WORD,UN,33,prince,DEBRIS,m,0.272,,,,,,,-0.403949731,-0.248653501,0,0,0,,0,168,168,138,1,
,,,,,,,,,,,,,,,,,,5fbcbe35e0fd44188313e19b,2020-11-27_07h08.33.742,lexical_decision_task_MP_exp2,2020.2.5,Win32,60,m,0,,,,,,,,0.071,0,,,,,,384,NW,UN,33,veigma,GUESCO,z,0.071,,,,,,,-0.403949731,-0.248653501,0,0,0,,0,169,169,383,1,
,,,,,,,,,,,,,,,,,,5fbcbe35e0fd44188313e19b,2020-11-27_07h08.33.742,lexical_decision_task_MP_exp2,2020.2.5,Win32,60,z,0,,,,,,,,0.232,0,,,,,,105,WORD,"ID",16,number,NUMBER,m,0.232,,,,,,,-0.403949731,-0.248653501,0,0,0,,0,170,170,104,1,
,,,,,,,,,,,,,,,,,,5fbcbe35e0fd44188313e19b,2020-11-27_07h08.33.742,lexical_decision_task_MP_exp2,2020.2.5,Win32,60,,0,,,,,,,,0.232,-1,,,,,,38,WORD,"ID",33,powder,POWDER,m,,,,,,,,-0.775583483,-0.494614004,0,0,0,,0,171,171,37,1,
,,,,,,,,,,,,,,,,,,5fbcbe35e0fd44188313e19b,2020-11-27_07h08.33.742,lexical_decision_task_MP_exp2,2020.2.5,Win32,60,,0,,,,,,,,0.232,-1,,,,,,149,WORD,UN,33,random,INVADE,m,,,,,,,,-0.775583483,-0.494614004,0,0,0,,0,172,172,148,1,
,,,,,,,,,,,,,,,,,,5fbcbe35e0fd44188313e19b,2020-11-27_07h08.33.742,lexical_decision_task_MP_exp2,2020.2.5,Win32,60,,0,,,,,,,,0.232,-1,,,,,,157,WORD,UN,33,island,DRAGON,m,,,,,,,,-0.775583483,-0.494614004,0,0,0,,0,173,173,156,1,
,,,,,,,,,,,,,,,,,,5fbcbe35e0fd44188313e19b,2020-11-27_07h08.33.742,lexical_decision_task_MP_exp2,2020.2.5,Win32,60,,0,,,,,,,,0.232,-1,,,,,,5,WORD,"ID",33,plunge,PLUNGE,m,,,,,,,,-0.775583483,-0.494614004,0,0,0,,0,174,174,4,1,
,,,,,,,,,,,,,,,,,,5fbcbe35e0fd44188313e19b,2020-11-27_07h08.33.742,lexical_decision_task_MP_exp2,2020.2.5,Win32,60,,0,,,,,,,,0.232,-1,,,,,,67,WORD,"ID",16,policy,POLICY,m,,,,,,,,-0.775583483,-0.494614004,0,0,0,,0,175,175,66,1,
,,,,,,,,,,,,,,,,,,5fbcbe35e0fd44188313e19b,2020-11-27_07h08.33.742,lexical_decision_task_MP_exp2,2020.2.5,Win32,60,z,0,,,,,,,,1.607,0,,,,,,107,WORD,"ID",16,slogan,SLOGAN,m,1.607,,,,,,,-0.775583483,-0.494614004,0,0,0,,0,176,176,106,1,
,,,,,,,,,,,,,,,,,,5fbcbe35e0fd44188313e19b,2020-11-27_07h08.33.742,lexical_decision_task_MP_exp2,2020.2.5,Win32,60,z,1,,,,,,,,1.235,1,,,,,,293,NW,"ID",33,swance,SWANCE,z,1.235,,,,,,,-0.775583483,-0.494614004,0,0,0,,0,177,177,292,1,
,,,,,,,,,,,,,,,,,,5fbcbe35e0fd44188313e19b,2020-11-27_07h08.33.742,lexical_decision_task_MP_exp2,2020.2.5,Win32,60,z,1,,,,,,,,0.184,1,,,,,,371,NW,UN,33,ramily,GEILOY,z,0.184,,,,,,,-0.775583483,-0.494614004,0,0,0,,0,178,178,370,1,
,,,,,,,,,,,,,,,,,,5fbcbe35e0fd44188313e19b,2020-11-27_07h08.33.742,lexical_decision_task_MP_exp2,2020.2.5,Win32,60,,0,,,,,,,,0.184,-1,,,,,,412,NW,UN,33,equats,JILUER,z,,,,,,,,-0.775583483,-0.494614004,0,0,0,,0,179,179,411,1,
,,,,,,,,,,,,,,,,,,5fbcbe35e0fd44188313e19b,2020-11-27_07h08.33.742,lexical_decision_task_MP_exp2,2020.2.5,Win32,60,,0,,,,,,,,0.184,-1,,,,,,59,WORD,"ID",33,splint,SPLINT,m,,,,,,,,-0.775583483,-0.494614004,0,0,0,,0,180,180,58,1,
,,,,,,,,,,,,,,,,,,5fbcbe35e0fd44188313e19b,2020-11-27_07h08.33.742,lexical_decision_task_MP_exp2,2020.2.5,Win32,60,z,1,,,,,,,,0.02,1,,,,,,420,NW,UN,33,pauche,GUSHOP,z,0.02,,,,,,,-0.775583483,-0.494614004,0,0,0,,0,181,181,419,1,
,,,,,,,,,,,,,,,,,,5fbcbe35e0fd44188313e19b,2020-11-27_07h08.33.742,lexical_decision_task_MP_exp2,2020.2.5,Win32,60,z,1,,,,,,,,0.223,1,,,,,,400,NW,UN,33,mustil,WEAROX,z,0.223,,,,,,,-0.775583483,-0.494614004,0,0,0,,0,182,182,399,1,
,,,,,,,,,,,,,,,,,,5fbcbe35e0fd44188313e19b,2020-11-27_07h08.33.742,lexical_decision_task_MP_exp2,2020.2.5,Win32,60,z,0,,,,,,,,0.966,0,,,,,,142,WORD,UN,33,orphan,SPRUCE,m,0.966,,,,,,,-0.775583483,-0.494614004,0,0,0,,0,183,183,141,1,
,,,,,,,,,,,,,,,,,,5fbcbe35e0fd44188313e19b,2020-11-27_07h08.33.742,lexical_decision_task_MP_exp2,2020.2.5,Win32,60,z,1,,,,,,,,0.066,1,,,,,,335,NW,"ID",16,desion,DESION,z,0.066,,,,,,,-0.775583483,-0.494614004,0,0,0,,0,184,184,334,1,
,,,,,,,,,,,,,,,,,,5fbcbe35e0fd44188313e19b,2020-11-27_07h08.33.742,lexical_decision_task_MP_exp2,2020.2.5,Win32,60,z,0,,,,,,,,0.021,0,,,,,,55,WORD,"ID",33,stroke,STROKE,m,0.021,,,,,,,-0.775583483,-0.494614004,0,0,0,,0,185,185,54,1,
,,,,,,,,,,,,,,,,,,5fbcbe35e0fd44188313e19b,2020-11-27_07h08.33.742,lexical_decision_task_MP_exp2,2020.2.5,Win32,60,z,1,,,,,,,,0.61,1,,,,,,423,NW,UN,16,praile,STRELD,z,0.61,,,,,,,-0.775583483,-0.494614004,0,0,0,,0,186,186,422,1,
,,,,,,,,,,,,,,,,,,5fbcbe35e0fd44188313e19b,2020-11-27_07h08.33.742,lexical_decision_task_MP_exp2,2020.2.5,Win32,60,m,1,,,,,,,,0.249,1,,,,,,177,WORD,UN,33,inform,ADVENT,m,0.249,,,,,,,-0.775583483,-0.494614004,0,0,0,,0,187,187,176,1,
,,,,,,,,,,,,,,,,,,5fbcbe35e0fd44188313e19b,2020-11-27_07h08.33.742,lexical_decision_task_MP_exp2,2020.2.5,Win32,60,z,0,,,,,,,,0.152,0,,,,,,93,WORD,"ID",16,public,PUBLIC,m,0.152,,,,,,,-0.775583483,-0.494614004,0,0,0,,0,188,188,92,1,
,,,,,,,,,,,,,,,,,,5fbcbe35e0fd44188313e19b,2020-11-27_07h08.33.742,lexical_decision_task_MP_exp2,2020.2.5,Win32,60,z,0,,,,,,,,0.002,0,,,,,,70,WORD,"ID",16,square,SQUARE,m,0.002,,,,,,,-0.775583483,-0.494614004,0,0,0,,0,189,189,69,1,
,,,,,,,,,,,,,,,,,,5fbcbe35e0fd44188313e19b,2020-11-27_07h08.33.742,lexical_decision_task_MP_exp2,2020.2.5,Win32,60,m,0,,,,,,,,0.426,0,,,,,,399,NW,UN,33,wearox,FOURET,z,0.426,,,,,,,-0.775583483,-0.494614004,0,0,0,,0,190,190,398,1,
,,,,,,,,,,,,,,,,,,5fbcbe35e0fd44188313e19b,2020-11-27_07h08.33.742,lexical_decision_task_MP_exp2,2020.2.5,Win32,60,z,1,,,,,,,,0.068,1,,,,,,258,NW,"ID",33,poluth,POLUTH,z,0.068,,,,,,,-0.775583483,-0.494614004,0,0,0,,0,191,191,257,1,
,,,,,,,,,,,,,,,,,,5fbcbe35e0fd44188313e19b,2020-11-27_07h08.33.742,lexical_decision_task_MP_exp2,2020.2.5,Win32,60,m,1,,,,,,,,0.141,1,,,,,,13,WORD,"ID",33,strive,STRIVE,m,0.141,,,,,,,-0.775583483,-0.494614004,0,0,0,,0,192,192,12,1,
,,,,,,,,,,,,,,,,,,5fbcbe35e0fd44188313e19b,2020-11-27_07h08.33.742,lexical_decision_task_MP_exp2,2020.2.5,Win32,60,z,0,,,,,,,,0.131,0,,,,,,34,WORD,"ID",33,jungle,JUNGLE,m,0.131,,,,,,,-0.775583483,-0.494614004,0,0,0,,0,193,193,33,1,
,,,,,,,,,,,,,,,,,,5fbcbe35e0fd44188313e19b,2020-11-27_07h08.33.742,lexical_decision_task_MP_exp2,2020.2.5,Win32,60,m,0,,,,,,,,0.116,0,,,,,,427,NW,UN,16,tandly,SCHIND,z,0.116,,,,,,,-0.775583483,-0.494614004,0,0,0,,0,194,194,426,1,
,,,,,,,,,,,,,,,,,,5fbcbe35e0fd44188313e19b,2020-11-27_07h08.33.742,lexical_decision_task_MP_exp2,2020.2.5,Win32,60,m,1,,,,,,,,0.331,1,,,,,,186,WORD,UN,16,course,PORTAL,m,0.331,,,,,,,-0.775583483,-0.494614004,0,0,0,,0,195,195,185,1,
,,,,,,,,,,,,,,,,,,5fbcbe35e0fd44188313e19b,2020-11-27_07h08.33.742,lexical_decision_task_MP_exp2,2020.2.5,Win32,60,m,0,,,,,,,,0.116,0,,,,,,393,NW,UN,33,spaqux,GANOUS,z,0.116,,,,,,,-0.775583483,-0.494614004,0,0,0,,0,196,196,392,1,
,,,,,,,,,,,,,,,,,,5fbcbe35e0fd44188313e19b,2020-11-27_07h08.33.742,lexical_decision_task_MP_exp2,2020.2.5,Win32,60,z,1,,,,,,,,0.097,1,,,,,,366,NW,UN,33,slique,TOSHEL,z,0.097,,,,,,,-0.775583483,-0.494614004,0,0,0,,0,197,197,365,1,
,,,,,,,,,,,,,,,,,,5fbcbe35e0fd44188313e19b,2020-11-27_07h08.33.742,lexical_decision_task_MP_exp2,2020.2.5,Win32,60,z,0,,,,,,,,0.214,0,,,,,,126,WORD,UN,33,castle,ENOUGH,m,0.214,,,,,,,-0.775583483,-0.494614004,0,0,0,,0,198,198,125,1,
,,,,,,,,,,,,,,,,,,5fbcbe35e0fd44188313e19b,2020-11-27_07h08.33.742,lexical_decision_task_MP_exp2,2020.2.5,Win32,60,m,1,,,,,,,,0.154,1,,,,,,223,WORD,UN,16,period,KIDNEY,m,0.154,,,,,,,-0.775583483,-0.494614004,0,0,0,,0,199,199,222,1,
,,,,,,,,,,,,,,,,,,5fbcbe35e0fd44188313e19b,2020-11-27_07h08.33.742,lexical_decision_task_MP_exp2,2020.2.5,Win32,60,z,1,,,,,,,,0.1,1,,,,,,353,NW,"ID",16,clurey,CLUREY,z,0.1,,,,,,,-0.775583483,-0.494614004,0,0,0,,0,200,200,352,1,
,,,,,,,,,,,,,,,,,,5fbcbe35e0fd44188313e19b,2020-11-27_07h08.33.742,lexical_decision_task_MP_exp2,2020.2.5,Win32,60,m,0,,,,,,,,0.287,0,,,,,,336,NW,"ID",16,ghodus,GHODUS,z,0.287,,,,,,,-0.775583483,-0.494614004,0,0,0,,0,201,201,335,1,
,,,,,,,,,,,,,,,,,,5fbcbe35e0fd44188313e19b,2020-11-27_07h08.33.742,lexical_decision_task_MP_exp2,2020.2.5,Win32,60,m,1,,,,,,,,0.236,1,,,,,,27,WORD,"ID",33,scream,SCREAM,m,0.236,,,,,,,-0.775583483,-0.494614004,0,0,0,,0,202,202,26,1,
,,,,,,,,,,,,,,,,,,5fbcbe35e0fd44188313e19b,2020-11-27_07h08.33.742,lexical_decision_task_MP_exp2,2020.2.5,Win32,60,m,1,,,,,,,,0.071,1,,,,,,23,WORD,"ID",33,wealth,WEALTH,m,0.071,,,,,,,-0.775583483,-0.494614004,0,0,0,,0,203,203,22,1,
,,,,,,,,,,,,,,,,,,5fbcbe35e0fd44188313e19b,2020-11-27_07h08.33.742,lexical_decision_task_MP_exp2,2020.2.5,Win32,60,m,0,,,,,,,,0.183,0,,,,,,471,NW,UN,16,cigney,NOBEST,z,0.183,,,,,,,-0.775583483,-0.494614004,0,0,0,,0,204,204,470,1,
,,,,,,,,,,,,,,,,,,5fbcbe35e0fd44188313e19b,2020-11-27_07h08.33.742,lexical_decision_task_MP_exp2,2020.2.5,Win32,60,z,1,,,,,,,,0.022,1,,,,,,359,NW,"ID",16,fonver,FONVER,z,0.022,,,,,,,-0.775583483,-0.494614004,0,0,0,,0,205,205,358,1,
,,,,,,,,,,,,,,,,,,5fbcbe35e0fd44188313e19b,2020-11-27_07h08.33.742,lexical_decision_task_MP_exp2,2020.2.5,Win32,60,m,1,,,,,,,,0.02,1,,,,,,72,WORD,"ID",16,bright,BRIGHT,m,0.02,,,,,,,-0.775583483,-0.494614004,0,0,0,,0,206,206,71,1,
,,,,,,,,,,,,,,,,,,5fbcbe35e0fd44188313e19b,2020-11-27_07h08.33.742,lexical_decision_task_MP_exp2,2020.2.5,Win32,60,m,0,,,,,,,,0.065,0,,,,,,403,NW,UN,33,cluirm,BRUATS,z,0.065,,,,,,,-0.775583483,-0.494614004,0,0,0,,0,207,207,402,1,
,,,,,,,,,,,,,,,,,,5fbcbe35e0fd44188313e19b,2020-11-27_07h08.33.742,lexical_decision_task_MP_exp2,2020.2.5,Win32,60,z,0,,,,,,,,0.184,0,,,,,,99,WORD,"ID",16,fluent,FLUENT,m,0.184,,,,,,,-0.775583483,-0.494614004,0,0,0,,0,208,208,98,1,
,,,,,,,,,,,,,,,,,,5fbcbe35e0fd44188313e19b,2020-11-27_07h08.33.742,lexical_decision_task_MP_exp2,2020.2.5,Win32,60,m,1,,,,,,,,0.033,1,,,,,,36,WORD,"ID",33,vanish,VANISH,m,0.033,,,,,,,-0.775583483,-0.494614004,0,0,0,,0,209,209,35,1,
,,,,,,,,,,,,,,,,,,5fbcbe35e0fd44188313e19b,2020-11-27_07h08.33.742,lexical_decision_task_MP_exp2,2020.2.5,Win32,60,z,1,,,,,,,,0.265,1,,,,,,443,NW,UN,16,jaunce,DORSEX,z,0.265,,,,,,,-0.775583483,-0.494614004,0,0,0,,0,210,210,442,1,
,,,,,,,,,,,,,,,,,,5fbcbe35e0fd44188313e19b,2020-11-27_07h08.33.742,lexical_decision_task_MP_exp2,2020.2.5,Win32,60,m,1,,,,,,,,0.044,1,,,,,,44,WORD,"ID",33,danger,DANGER,m,0.044,,,,,,,-0.775583483,-0.494614004,0,0,0,,0,211,211,43,1,
,,,,,,,,,,,,,,,,,,5fbcbe35e0fd44188313e19b,2020-11-27_07h08.33.742,lexical_decision_task_MP_exp2,2020.2.5,Win32,60,z,0,,,,,,,,0.099,0,,,,,,51,WORD,"ID",33,hungry,HUNGRY,m,0.099,,,,,,,-0.775583483,-0.494614004,0,0,0,,0,212,212,50,1,
,,,,,,,,,,,,,,,,,,5fbcbe35e0fd44188313e19b,2020-11-27_07h08.33.742,lexical_decision_task_MP_exp2,2020.2.5,Win32,60,z,1,,,,,,,,0.216,1,,,,,,321,NW,"ID",16,miator,MIATOR,z,0.216,,,,,,,-0.775583483,-0.494614004,0,0,0,,0,213,213,320,1,
,,,,,,,,,,,,,,,,,,5fbcbe35e0fd44188313e19b,2020-11-27_07h08.33.742,lexical_decision_task_MP_exp2,2020.2.5,Win32,60,z,0,,,,,,,,0.125,0,,,,,,179,WORD,UN,33,silent,BASKET,m,0.125,,,,,,,-0.775583483,-0.494614004,0,0,0,,0,214,214,178,1,
,,,,,,,,,,,,,,,,,,5fbcbe35e0fd44188313e19b,2020-11-27_07h08.33.742,lexical_decision_task_MP_exp2,2020.2.5,Win32,60,z,1,,,,,,,,0.166,1,,,,,,444,NW,UN,16,minkel,JAUNCE,z,0.166,,,,,,,-0.775583483,-0.494614004,0,0,0,,0,215,215,443,1,
,,,,,,,,,,,,,,,,,,5fbcbe35e0fd44188313e19b,2020-11-27_07h08.33.742,lexical_decision_task_MP_exp2,2020.2.5,Win32,60,z,1,,,,,,,,0.123,1,,,,,,303,NW,"ID",16,fiream,FIREAM,z,0.123,,,,,,,-0.775583483,-0.494614004,0,0,0,,0,216,216,302,1,
,,,,,,,,,,,,,,,,,,5fbcbe35e0fd44188313e19b,2020-11-27_07h08.33.742,lexical_decision_task_MP_exp2,2020.2.5,Win32,60,z,1,,,,,,,,0.106,1,,,,,,266,NW,"ID",33,varmit,VARMIT,z,0.106,,,,,,,-0.775583483,-0.494614004,0,0,0,,0,217,217,265,1,
,,,,,,,,,,,,,,,,,,5fbcbe35e0fd44188313e19b,2020-11-27_07h08.33.742,lexical_decision_task_MP_exp2,2020.2.5,Win32,60,z,0,,,,,,,,0.133,0,,,,,,234,WORD,UN,16,lumber,CLUMSY,m,0.133,,,,,,,-0.775583483,-0.494614004,0,0,0,,0,218,218,233,1,
,,,,,,,,,,,,,,,,,,5fbcbe35e0fd44188313e19b,2020-11-27_07h08.33.742,lexical_decision_task_MP_exp2,2020.2.5,Win32,60,z,1,,,,,,,,0.117,1,,,,,,425,NW,UN,16,schind,FRUDGE,z,0.117,,,,,,,-0.775583483,-0.494614004,0,0,0,,0,219,219,424,1,
,,,,,,,,,,,,,,,,,,5fbcbe35e0fd44188313e19b,2020-11-27_07h08.33.742,lexical_decision_task_MP_exp2,2020.2.5,Win32,60,z,1,,,,,,,,0.156,1,,,,,,465,NW,UN,16,hocite,WHIVEX,z,0.156,,,,,,,-0.775583483,-0.494614004,0,0,0,,0,220,220,464,1,
,,,,,,,,,,,,,,,,,,5fbcbe35e0fd44188313e19b,2020-11-27_07h08.33.742,lexical_decision_task_MP_exp2,2020.2.5,Win32,60,z,1,,,,,,,,0.207,1,,,,,,242,NW,"ID",33,unwert,UNWERT,z,0.207,,,,,,,-0.775583483,-0.494614004,0,0,0,,0,221,221,241,1,
,,,,,,,,,,,,,,,,,,5fbcbe35e0fd44188313e19b,2020-11-27_07h08.33.742,lexical_decision_task_MP_exp2,2020.2.5,Win32,60,,0,,,,,,,,0.207,-1,,,,,,370,NW,UN,33,geiloy,SLEACT,z,,,,,,,,-0.775583483,-0.494614004,0,0,0,,0,222,222,369,1,
,,,,,,,,,,,,,,,,,,5fbcbe35e0fd44188313e19b,2020-11-27_07h08.33.742,lexical_decision_task_MP_exp2,2020.2.5,Win32,60,z,1,,,,,,,,0.006,1,,,,,,463,NW,UN,16,bafent,KISPEL,z,0.006,,,,,,,-0.775583483,-0.494614004,0,0,0,,0,223,223,462,1,
,,,,,,,,,,,,,,,,,,5fbcbe35e0fd44188313e19b,2020-11-27_07h08.33.742,lexical_decision_task_MP_exp2,2020.2.5,Win32,60,z,0,,,,,,,,0.05,0,,,,,,6,WORD,"ID",33,bundle,BUNDLE,m,0.05,,,,,,,-0.775583483,-0.494614004,0,0,0,,0,224,224,5,1,
,,,,,,,,,,,,,,,,,,5fbcbe35e0fd44188313e19b,2020-11-27_07h08.33.742,lexical_decision_task_MP_exp2,2020.2.5,Win32,60,z,0,,,,,,,,0.008,0,,,,,,102,WORD,"ID",16,direct,DIRECT,m,0.008,,,,,,,-0.775583483,-0.494614004,0,0,0,,0,225,225,101,1,
,,,,,,,,,,,,,,,,,,5fbcbe35e0fd44188313e19b,2020-11-27_07h08.33.742,lexical_decision_task_MP_exp2,2020.2.5,Win32,60,z,0,,,,,,,,0.186,0,,,,,,32,WORD,"ID",33,buckle,BUCKLE,m,0.186,,,,,,,-0.775583483,-0.494614004,0,0,0,,0,226,226,31,1,
,,,,,,,,,,,,,,,,,,5fbcbe35e0fd44188313e19b,2020-11-27_07h08.33.742,lexical_decision_task_MP_exp2,2020.2.5,Win32,60,z,1,,,,,,,,0.171,1,,,,,,478,NW,UN,16,lobush,ACRISE,z,0.171,,,,,,,-0.775583483,-0.494614004,0,0,0,,0,227,227,477,1,
,,,,,,,,,,,,,,,,,,5fbcbe35e0fd44188313e19b,2020-11-27_07h08.33.742,lexical_decision_task_MP_exp2,2020.2.5,Win32,60,,0,,,,,,,,0.171,-1,,,,,,280,NW,"ID",33,curbol,CURBOL,z,,,,,,,,-0.775583483,-0.494614004,0,0,0,,0,228,228,279,1,
,,,,,,,,,,,,,,,,,,5fbcbe35e0fd44188313e19b,2020-11-27_07h08.33.742,lexical_decision_task_MP_exp2,2020.2.5,Win32,60,z,0,,,,,,,,0.134,0,,,,,,219,WORD,UN,16,voyage,BUCKET,m,0.134,,,,,,,-0.775583483,-0.494614004,0,0,0,,0,229,229,218,1,
,,,,,,,,,,,,,,,,,,5fbcbe35e0fd44188313e19b,2020-11-27_07h08.33.742,lexical_decision_task_MP_exp2,2020.2.5,Win32,60,z,1,,,,,,,,0.15,1,,,,,,248,NW,"ID",33,strole,STROLE,z,0.15,,,,,,,-0.775583483,-0.494614004,0,0,0,,0,230,230,247,1,
,,,,,,,,,,,,,,,,,,5fbcbe35e0fd44188313e19b,2020-11-27_07h08.33.742,lexical_decision_task_MP_exp2,2020.2.5,Win32,60,z,0,,,,,,,,0.087,0,,,,,,192,WORD,UN,16,object,PLAGUE,m,0.087,,,,,,,-0.775583483,-0.494614004,0,0,0,,0,231,231,191,1,
,,,,,,,,,,,,,,,,,,5fbcbe35e0fd44188313e19b,2020-11-27_07h08.33.742,lexical_decision_task_MP_exp2,2020.2.5,Win32,60,z,1,,,,,,,,0.064,1,,,,,,263,NW,"ID",33,dolica,DOLICA,z,0.064,,,,,,,-0.775583483,-0.494614004,0,0,0,,0,232,232,262,1,
,,,,,,,,,,,,,,,,,,5fbcbe35e0fd44188313e19b,2020-11-27_07h08.33.742,lexical_decision_task_MP_exp2,2020.2.5,Win32,60,z,0,,,,,,,,0.116,0,,,,,,212,WORD,UN,16,squeal,VERIFY,m,0.116,,,,,,,-0.775583483,-0.494614004,0,0,0,,0,233,233,211,1,
,,,,,,,,,,,,,,,,,,5fbcbe35e0fd44188313e19b,2020-11-27_07h08.33.742,lexical_decision_task_MP_exp2,2020.2.5,Win32,60,z,1,,,,,,,,0.099,1,,,,,,254,NW,"ID",33,varosh,VAROSH,z,0.099,,,,,,,-0.775583483,-0.494614004,0,0,0,,0,234,234,253,1,
,,,,,,,,,,,,,,,,,,5fbcbe35e0fd44188313e19b,2020-11-27_07h08.33.742,lexical_decision_task_MP_exp2,2020.2.5,Win32,60,z,0,,,,,,,,0.121,0,,,,,,206,WORD,UN,16,wreath,TAILOR,m,0.121,,,,,,,-0.775583483,-0.494614004,0,0,0,,0,235,235,205,1,
,,,,,,,,,,,,,,,,,,5fbcbe35e0fd44188313e19b,2020-11-27_07h08.33.742,lexical_decision_task_MP_exp2,2020.2.5,Win32,60,z,0,,,,,,,,0.204,0,,,,,,3,WORD,"ID",33,knight,KNIGHT,m,0.204,,,,,,,-0.775583483,-0.494614004,0,0,0,,0,236,236,2,1,
,,,,,,,,,,,,,,,,,,5fbcbe35e0fd44188313e19b,2020-11-27_07h08.33.742,lexical_decision_task_MP_exp2,2020.2.5,Win32,60,z,1,,,,,,,,0.682,1,,,,,,401,NW,UN,33,elopia,MUSTIL,z,0.682,,,,,,,-0.775583483,-0.494614004,0,0,0,,0,237,237,400,1,
,,,,,,,,,,,,,,,,,,5fbcbe35e0fd44188313e19b,2020-11-27_07h08.33.742,lexical_decision_task_MP_exp2,2020.2.5,Win32,60,z,1,,,,,,,,0.073,1,,,,,,269,NW,"ID",33,orchet,ORCHET,z,0.073,,,,,,,-0.775583483,-0.494614004,0,0,0,,0,238,238,268,1,
,,,,,,,,,,,,,,,,,,5fbcbe35e0fd44188313e19b,2020-11-27_07h08.33.742,lexical_decision_task_MP_exp2,2020.2.5,Win32,60,z,1,,,,,,,,0.167,1,,,,,,394,NW,UN,33,colury,SPAQUX,z,0.167,,,,,,,-0.775583483,-0.494614004,0,0,0,,0,239,239,393,1,
,,,,,,,,,,,,,,,,,,5fbcbe35e0fd44188313e19b,2020-11-27_07h08.33.742,lexical_decision_task_MP_exp2,2020.2.5,Win32,60,z,1,,,,,,,,1.347,1,,,,,,363,NW,UN,33,impote,BREALI,z,1.347,,,,,,,-0.775583483,-0.494614004,0,0,0,,0,240,240,362,1,
,,,,,,,,,,,,,,,,,,5fbcbe35e0fd44188313e19b,2020-11-27_07h08.33.742,lexical_decision_task_MP_exp2,2020.2.5,Win32,60,z,0,,,,,,,,0.373,0,,,,,,159,WORD,UN,33,violet,DETAIL,m,0.373,,,,,,,0.091561939,-0.39048474,1,0,0,,0,241,241,158,1,break_done_button
,,,,,,,,,,,,,,,,,,5fbcbe35e0fd44188313e19b,2020-11-27_07h08.33.742,lexical_decision_task_MP_exp2,2020.2.5,Win32,60,,0,-0.337522442,-0.300718133,1,0,0,0.312,button_left,0.312,1,,,,,,372,NW,UN,33,bigent,RAMILY,z,,,,,,,,-0.337522442,-0.300718133,1,0,0,,0,242,242,371,1,
,,,,,,,,,,,,,,,,,,5fbcbe35e0fd44188313e19b,2020-11-27_07h08.33.742,lexical_decision_task_MP_exp2,2020.2.5,Win32,60,,0,-0.337522442,-0.300718133,1,0,0,0.032,button_left,0.032,0,,,,,,69,WORD,"ID",16,plenty,PLENTY,m,,,,,,,,-0.337522442,-0.300718133,1,0,0,,0,243,243,68,1,
,,,,,,,,,,,,,,,,,,5fbcbe35e0fd44188313e19b,2020-11-27_07h08.33.742,lexical_decision_task_MP_exp2,2020.2.5,Win32,60,,0,-0.337522442,-0.300718133,1,0,0,0.081,button_left,0.081,0,,,,,,49,WORD,"ID",33,survey,SURVEY,m,,,,,,,,-0.337522442,-0.300718133,1,0,0,,0,244,244,48,1,
,,,,,,,,,,,,,,,,,,5fbcbe35e0fd44188313e19b,2020-11-27_07h08.33.742,lexical_decision_task_MP_exp2,2020.2.5,Win32,60,,0,-0.337522442,-0.300718133,1,0,0,0.098,button_left,0.098,1,,,,,,395,NW,UN,33,flengy,COLURY,z,,,,,,,,-0.337522442,-0.300718133,1,0,0,,0,245,245,394,1,
,,,,,,,,,,,,,,,,,,5fbcbe35e0fd44188313e19b,2020-11-27_07h08.33.742,lexical_decision_task_MP_exp2,2020.2.5,Win32,60,,0,-0.337522442,-0.300718133,1,0,0,0.13,button_left,0.13,1,,,,,,437,NW,UN,16,baitch,SNAPEL,z,,,,,,,,-0.337522442,-0.300718133,1,0,0,,0,246,246,436,1,
,,,,,,,,,,,,,,,,,,5fbcbe35e0fd44188313e19b,2020-11-27_07h08.33.742,lexical_decision_task_MP_exp2,2020.2.5,Win32,60,,0,0.718132855,-0.28994614,1,0,0,0.263,button_right,0.263,0,,,,,,350,NW,"ID",16,nagurs,NAGURS,z,,,,,,,,0.23518851,-0.350987433,1,0,0,,0,247,247,349,1,
,,,,,,,,,,,,,,,,,,5fbcbe35e0fd44188313e19b,2020-11-27_07h08.33.742,lexical_decision_task_MP_exp2,2020.2.5,Win32,60,,0,0.238779174,-0.350987433,1,0,0,0.081,button_right,0.081,1,,,,,,220,WORD,UN,16,mascot,VOYAGE,m,,,,,,,,0.238779174,-0.350987433,1,0,0,,0,248,248,219,1,
,,,,,,,,,,,,,,,,,,5fbcbe35e0fd44188313e19b,2020-11-27_07h08.33.742,lexical_decision_task_MP_exp2,2020.2.5,Win32,60,,0,0.238779174,-0.350987433,1,0,0,0.114,button_right,0.114,0,,,,,,304,NW,"ID",16,cludie,CLUDIE,z,,,,,,,,0.238779174,-0.350987433,1,0,0,,0,249,249,303,1,
,,,,,,,,,,,,,,,,,,5fbcbe35e0fd44188313e19b,2020-11-27_07h08.33.742,lexical_decision_task_MP_exp2,2020.2.5,Win32,60,,0,0.238779174,-0.350987433,1,0,0,0.113,button_right,0.113,1,,,,,,18,WORD,"ID",33,humble,HUMBLE,m,,,,,,,,0.238779174,-0.350987433,1,0,0,,0,250,250,17,1,
,,,,,,,,,,,,,,,,,,5fbcbe35e0fd44188313e19b,2020-11-27_07h08.33.742,lexical_decision_task_MP_exp2,2020.2.5,Win32,60,,0,0.238779174,-0.350987433,1,0,0,0.116,button_right,0.116,1,,,,,,162,WORD,UN,33,string,CANDLE,m,,,,,,,,0.238779174,-0.350987433,1,0,0,,0,251,251,161,1,
,,,,,,,,,,,,,,,,,,5fbcbe35e0fd44188313e19b,2020-11-27_07h08.33.742,lexical_decision_task_MP_exp2,2020.2.5,Win32,60,,0,0.238779174,-0.350987433,1,0,0,0.113,button_right,0.113,1,,,,,,9,WORD,"ID",33,hustle,HUSTLE,m,,,,,,,,0.238779174,-0.350987433,1,0,0,,0,252,252,8,1,
,,,,,,,,,,,,,,,,,,5fbcbe35e0fd44188313e19b,2020-11-27_07h08.33.742,lexical_decision_task_MP_exp2,2020.2.5,Win32,60,,0,0.238779174,-0.350987433,1,0,0,0.148,button_right,0.148,1,,,,,,21,WORD,"ID",33,simple,SIMPLE,m,,,,,,,,0.238779174,-0.350987433,1,0,0,,0,253,253,20,1,
,,,,,,,,,,,,,,,,,,5fbcbe35e0fd44188313e19b,2020-11-27_07h08.33.742,lexical_decision_task_MP_exp2,2020.2.5,Win32,60,,0,0.238779174,-0.350987433,1,0,0,0.18,button_right,0.18,0,,,,,,380,NW,UN,33,huniek,CAVORY,z,,,,,,,,0.238779174,-0.350987433,1,0,0,,0,254,254,379,1,
,,,,,,,,,,,,,,,,,,5fbcbe35e0fd44188313e19b,2020-11-27_07h08.33.742,lexical_decision_task_MP_exp2,2020.2.5,Win32,60,,0,0.238779174,-0.350987433,1,0,0,0.131,button_right,0.131,0,,,,,,466,NW,UN,16,pebric,HOCITE,z,,,,,,,,0.238779174,-0.350987433,1,0,0,,0,255,255,465,1,
,,,,,,,,,,,,,,,,,,5fbcbe35e0fd44188313e19b,2020-11-27_07h08.33.742,lexical_decision_task_MP_exp2,2020.2.5,Win32,60,,0,0.238779174,-0.350987433,1,0,0,0.147,button_right,0.147,1,,,,,,109,WORD,"ID",16,wonder,WONDER,m,,,,,,,,0.238779174,-0.350987433,1,0,0,,0,256,256,108,1,
,,,,,,,,,,,,,,,,,,5fbcbe35e0fd44188313e19b,2020-11-27_07h08.33.742,lexical_decision_task_MP_exp2,2020.2.5,Win32,60,,0,0.238779174,-0.350987433,1,0,0,0.129,button_right,0.129,1,,,,,,120,WORD,"ID",16,strain,STRAIN,m,,,,,,,,0.238779174,-0.350987433,1,0,0,,0,257,257,119,1,
,,,,,,,,,,,,,,,,,,5fbcbe35e0fd44188313e19b,2020-11-27_07h08.33.742,lexical_decision_task_MP_exp2,2020.2.5,Win32,60,,0,0.238779174,-0.350987433,1,0,0,0.097,button_right,0.097,1,,,,,,129,WORD,UN,33,stupid,MARVEL,m,,,,,,,,0.238779174,-0.350987433,1,0,0,,0,258,258,128,1,
,,,,,,,,,,,,,,,,,,5fbcbe35e0fd44188313e19b,2020-11-27_07h08.33.742,lexical_decision_task_MP_exp2,2020.2.5,Win32,60,,0,0.238779174,-0.350987433,1,0,0,0.098,button_right,0.098,1,,,,,,95,WORD,"ID",16,thread,THREAD,m,,,,,,,,0.238779174,-0.350987433,1,0,0,,0,259,259,94,1,
,,,,,,,,,,,,,,,,,,5fbcbe35e0fd44188313e19b,2020-11-27_07h08.33.742,lexical_decision_task_MP_exp2,2020.2.5,Win32,60,,0,0.238779174,-0.350987433,1,0,0,0.131,button_right,0.131,0,,,,,,426,NW,UN,16,frudge,URIVEL,z,,,,,,,,0.238779174,-0.350987433,1,0,0,,0,260,260,425,1,
,,,,,,,,,,,,,,,,,,5fbcbe35e0fd44188313e19b,2020-11-27_07h08.33.742,lexical_decision_task_MP_exp2,2020.2.5,Win32,60,,0,0.238779174,-0.350987433,1,0,0,0.121,button_right,0.121,0,,,,,,268,NW,"ID",33,packes,PACKES,z,,,,,,,,0.238779174,-0.350987433,1,0,0,,0,261,261,267,1,
,,,,,,,,,,,,,,,,,,5fbcbe35e0fd44188313e19b,2020-11-27_07h08.33.742,lexical_decision_task_MP_exp2,2020.2.5,Win32,60,,0,0.238779174,-0.350987433,1,0,0,0.082,button_right,0.082,1,,,,,,138,WORD,UN,33,staple,MELODY,m,,,,,,,,0.238779174,-0.350987433,1,0,0,,0,262,262,137,1,
,,,,,,,,,,,,,,,,,,5fbcbe35e0fd44188313e19b,2020-11-27_07h08.33.742,lexical_decision_task_MP_exp2,2020.2.5,Win32,60,,0,-0.330341113,-0.363554758,1,0,0,0.046,button_left,0.046,1,,,,,,271,NW,"ID",33,aubrid,AUBRID,z,,,,,,,,-0.330341113,-0.363554758,1,0,0,,0,263,263,270,1,
,,,,,,,,,,,,,,,,,,5fbcbe35e0fd44188313e19b,2020-11-27_07h08.33.742,lexical_decision_task_MP_exp2,2020.2.5,Win32,60,,0,-0.330341113,-0.363554758,1,0,0,0.081,button_left,0.081,0,,,,,,89,WORD,"ID",16,permit,PERMIT,m,,,,,,,,-0.330341113,-0.363554758,1,0,0,,0,264,264,88,1,
,,,,,,,,,,,,,,,,,,5fbcbe35e0fd44188313e19b,2020-11-27_07h08.33.742,lexical_decision_task_MP_exp2,2020.2.5,Win32,60,,0,-0.330341113,-0.363554758,1,0,0,0.18,button_left,0.18,0,,,,,,47,WORD,"ID",33,income,INCOME,m,,,,,,,,-0.330341113,-0.363554758,1,0,0,,0,265,265,46,1,
,,,,,,,,,,,,,,,,,,5fbcbe35e0fd44188313e19b,2020-11-27_07h08.33.742,lexical_decision_task_MP_exp2,2020.2.5,Win32,60,,0,-0.330341113,-0.363554758,1,0,0,0.164,button_left,0.164,0,,,,,,41,WORD,"ID",33,spring,SPRING,m,,,,,,,,-0.330341113,-0.363554758,1,0,0,,0,266,266,40,1,
,,,,,,,,,,,,,,,,,,5fbcbe35e0fd44188313e19b,2020-11-27_07h08.33.742,lexical_decision_task_MP_exp2,2020.2.5,Win32,60,,0,-0.330341113,-0.363554758,1,0,0,0.13,button_left,0.13,0,,,,,,165,WORD,UN,33,starch,INVEST,m,,,,,,,,-0.330341113,-0.363554758,1,0,0,,0,267,267,164,1,
,,,,,,,,,,,,,,,,,,5fbcbe35e0fd44188313e19b,2020-11-27_07h08.33.742,lexical_decision_task_MP_exp2,2020.2.5,Win32,60,,0,-0.330341113,-0.363554758,1,0,0,0.147,button_left,0.147,0,,,,,,116,WORD,"ID",16,tumble,TUMBLE,m,,,,,,,,-0.330341113,-0.363554758,1,0,0,,0,268,268,115,1,
,,,,,,,,,,,,,,,,,,5fbcbe35e0fd44188313e19b,2020-11-27_07h08.33.742,lexical_decision_task_MP_exp2,2020.2.5,Win32,60,,0,-0.330341113,-0.363554758,1,0,0,0.363,button_left,0.363,1,,,,,,430,NW,UN,16,funtle,CAROEY,z,,,,,,,,-0.330341113,-0.363554758,1,0,0,,0,269,269,429,1,
,,,,,,,,,,,,,,,,,,5fbcbe35e0fd44188313e19b,2020-11-27_07h08.33.742,lexical_decision_task_MP_exp2,2020.2.5,Win32,60,,0,-0.330341113,-0.363554758,1,0,0,0.163,button_left,0.163,1,,,,,,429,NW,UN,16,caroey,FUNTLE,z,,,,,,,,-0.330341113,-0.363554758,1,0,0,,0,270,270,428,1,
,,,,,,,,,,,,,,,,,,5fbcbe35e0fd44188313e19b,2020-11-27_07h08.33.742,lexical_decision_task_MP_exp2,2020.2.5,Win32,60,,0,-0.330341113,-0.363554758,1,0,0,0.198,button_left,0.198,1,,,,,,262,NW,"ID",33,quilew,QUILEW,z,,,,,,,,-0.330341113,-0.363554758,1,0,0,,0,271,271,261,1,
,,,,,,,,,,,,,,,,,,5fbcbe35e0fd44188313e19b,2020-11-27_07h08.33.742,lexical_decision_task_MP_exp2,2020.2.5,Win32,60,,0,-0.330341113,-0.363554758,1,0,0,0.097,button_left,0.097,0,,,,,,112,WORD,"ID",16,breath,BREATH,m,,,,,,,,-0.330341113,-0.363554758,1,0,0,,0,272,272,111,1,
,,,,,,,,,,,,,,,,,,5fbcbe35e0fd44188313e19b,2020-11-27_07h08.33.742,lexical_decision_task_MP_exp2,2020.2.5,Win32,60,,0,-0.330341113,-0.363554758,1,0,0,0.163,button_left,0.163,0,,,,,,110,WORD,"ID",16,polite,POLITE,m,,,,,,,,-0.330341113,-0.363554758,1,0,0,,0,273,273,109,1,
,,,,,,,,,,,,,,,,,,5fbcbe35e0fd44188313e19b,2020-11-27_07h08.33.742,lexical_decision_task_MP_exp2,2020.2.5,Win32,60,,0,-0.330341113,-0.363554758,1,0,0,0.197,button_left,0.197,1,,,,,,275,NW,"ID",33,sleirt,SLEIRT,z,,,,,,,,-0.330341113,-0.363554758,1,0,0,,0,274,274,274,1,
,,,,,,,,,,,,,,,,,,5fbcbe35e0fd44188313e19b,2020-11-27_07h08.33.742,lexical_decision_task_MP_exp2,2020.2.5,Win32,60,,0,,,,,,,,0.197,-1,,,,,,301,NW,"ID",16,fainch,FAINCH,z,,,,,,,,-0.897286822,-0.656976744,0,0,0,,0,275,275,300,1,
,,,,,,,,,,,,,,,,,,5fbcbe35e0fd44188313e19b,2020-11-27_07h08.33.742,lexical_decision_task_MP_exp2,2020.2.5,Win32,60,,0,,,,,,,,0.197,-1,,,,,,224,WORD,UN,16,vulgar,PERIOD,m,,,,,,,,-0.166666667,-0.215116279,1,0,0,,0,276,276,223,1,
,,,,,,,,,,,,,,,,,,5fbcbe35e0fd44188313e19b,2020-11-27_07h08.33.742,lexical_decision_task_MP_exp2,2020.2.5,Win32,60,,0,-0.273255814,-0.271317829,1,0,0,0.197,button_left,0.197,1,,,,,,241,NW,"ID",33,smenco,SMENCO,z,,,,,,,,-0.273255814,-0.271317829,1,0,0,,0,277,277,240,1,
,,,,,,,,,,,,,,,,,,5fbcbe35e0fd44188313e19b,2020-11-27_07h08.33.742,lexical_decision_task_MP_exp2,2020.2.5,Win32,60,,0,-0.273255814,-0.271317829,1,0,0,0.146,button_left,0.146,0,,,,,,98,WORD,"ID",16,belong,BELONG,m,,,,,,,,-0.273255814,-0.271317829,1,0,0,,0,278,278,97,1,
,,,,,,,,,,,,,,,,,,5fbcbe35e0fd44188313e19b,2020-11-27_07h08.33.742,lexical_decision_task_MP_exp2,2020.2.5,Win32,60,,0,-0.273255814,-0.271317829,1,0,0,0.196,button_left,0.196,1,,,,,,473,NW,UN,16,hablin,CRIBLE,z,,,,,,,,-0.273255814,-0.271317829,1,0,0,,0,279,279,472,1,
,,,,,,,,,,,,,,,,,,5fbcbe35e0fd44188313e19b,2020-11-27_07h08.33.742,lexical_decision_task_MP_exp2,2020.2.5,Win32,60,,0,-0.273255814,-0.271317829,1,0,0,0.363,button_left,0.363,1,,,,,,302,NW,"ID",16,miluer,MILUER,z,,,,,,,,-0.273255814,-0.271317829,1,0,0,,0,280,280,301,1,
,,,,,,,,,,,,,,,,,,5fbcbe35e0fd44188313e19b,2020-11-27_07h08.33.742,lexical_decision_task_MP_exp2,2020.2.5,Win32,60,,0,-0.273255814,-0.271317829,1,0,0,0.114,button_left,0.114,1,,,,,,311,NW,"ID",16,sproly,SPROLY,z,,,,,,,,-0.273255814,-0.271317829,1,0,0,,0,281,281,310,1,
,,,,,,,,,,,,,,,,,,5fbcbe35e0fd44188313e19b,2020-11-27_07h08.33.742,lexical_decision_task_MP_exp2,2020.2.5,Win32,60,,0,-0.273255814,-0.271317829,1,0,0,0.178,button_left,0.178,1,,,,,,385,NW,UN,33,ancust,VEIGMA,z,,,,,,,,-0.273255814,-0.271317829,1,0,0,,0,282,282,384,1,
,,,,,,,,,,,,,,,,,,5fbcbe35e0fd44188313e19b,2020-11-27_07h08.33.742,lexical_decision_task_MP_exp2,2020.2.5,Win32,60,,0,,,,,,,,0.178,-1,,,,,,468,NW,UN,16,padifs,WICTOR,z,,,,,,,,-0.275193798,-0.029069767,0,0,0,,0,283,283,467,1,
,,,,,,,,,,,,,,,,,,5fbcbe35e0fd44188313e19b,2020-11-27_07h08.33.742,lexical_decision_task_MP_exp2,2020.2.5,Win32,60,,0,-0.358527132,-0.263565891,1,0,0,0.164,button_left,0.164,0,,,,,,217,WORD,UN,16,shrink,LIQUOR,m,,,,,,,,-0.358527132,-0.263565891,1,0,0,,0,284,284,216,1,
,,,,,,,,,,,,,,,,,,5fbcbe35e0fd44188313e19b,2020-11-27_07h08.33.742,lexical_decision_task_MP_exp2,2020.2.5,Win32,60,,0,-0.358527132,-0.263565891,1,0,0,0.163,button_left,0.163,1,,,,,,450,NW,UN,16,rastoe,PHRECT,z,,,,,,,,-0.358527132,-0.263565891,1,0,0,,0,285,285,449,1,
,,,,,,,,,,,,,,,,,,5fbcbe35e0fd44188313e19b,2020-11-27_07h08.33.742,lexical_decision_task_MP_exp2,2020.2.5,Win32,60,,0,-0.358527132,-0.263565891,1,0,0,0.114,button_left,0.114,0,,,,,,151,WORD,UN,33,rocket,MYSTIC,m,,,,,,,,-0.358527132,-0.263565891,1,0,0,,0,286,286,150,1,
,,,,,,,,,,,,,,,,,,5fbcbe35e0fd44188313e19b,2020-11-27_07h08.33.742,lexical_decision_task_MP_exp2,2020.2.5,Win32,60,,0,-0.358527132,-0.263565891,1,0,0,0.214,button_left,0.214,1,,,,,,460,NW,UN,16,justre,MINGAR,z,,,,,,,,-0.358527132,-0.263565891,1,0,0,,0,287,287,459,1,
,,,,,,,,,,,,,,,,,,5fbcbe35e0fd44188313e19b,2020-11-27_07h08.33.742,lexical_decision_task_MP_exp2,2020.2.5,Win32,60,,0,-0.358527132,-0.263565891,1,0,0,0.18,button_left,0.18,0,,,,,,235,WORD,UN,16,pirate,GRUMPY,m,,,,,,,,-0.358527132,-0.263565891,1,0,0,,0,288,288,234,1,
,,,,,,,,,,,,,,,,,,5fbcbe35e0fd44188313e19b,2020-11-27_07h08.33.742,lexical_decision_task_MP_exp2,2020.2.5,Win32,60,,0,-0.358527132,-0.263565891,1,0,0,0.413,button_left,0.413,0,,,,,,171,WORD,UN,33,patrol,DEPART,m,,,,,,,,-0.358527132,-0.263565891,1,0,0,,0,289,289,170,1,
,,,,,,,,,,,,,,,,,,5fbcbe35e0fd44188313e19b,2020-11-27_07h08.33.742,lexical_decision_task_MP_exp2,2020.2.5,Win32,60,,0,-0.358527132,-0.263565891,1,0,0,0.163,button_left,0.163,1,,,,,,272,NW,"ID",33,damilt,DAMILT,z,,,,,,,,-0.358527132,-0.263565891,1,0,0,,0,290,290,271,1,
,,,,,,,,,,,,,,,,,,5fbcbe35e0fd44188313e19b,2020-11-27_07h08.33.742,lexical_decision_task_MP_exp2,2020.2.5,Win32,60,,0,-0.358527132,-0.263565891,1,0,0,0.164,button_left,0.164,0,,,,,,73,WORD,"ID",16,source,SOURCE,m,,,,,,,,-0.358527132,-0.263565891,1,0,0,,0,291,291,72,1,
,,,,,,,,,,,,,,,,,,5fbcbe35e0fd44188313e19b,2020-11-27_07h08.33.742,lexical_decision_task_MP_exp2,2020.2.5,Win32,60,,0,-0.358527132,-0.263565891,1,0,0,0.131,button_left,0.131,0,,,,,,66,WORD,"ID",16,gospel,GOSPEL,m,,,,,,,,-0.358527132,-0.263565891,1,0,0,,0,292,292,65,1,
,,,,,,,,,,,,,,,,,,5fbcbe35e0fd44188313e19b,2020-11-27_07h08.33.742,lexical_decision_task_MP_exp2,2020.2.5,Win32,60,,0,-0.358527132,-0.263565891,1,0,0,0.196,button_left,0.196,0,,,,,,74,WORD,"ID",16,plaque,PLAQUE,m,,,,,,,,-0.358527132,-0.263565891,1,0,0,,0,293,293,73,1,
,,,,,,,,,,,,,,,,,,5fbcbe35e0fd44188313e19b,2020-11-27_07h08.33.742,lexical_decision_task_MP_exp2,2020.2.5,Win32,60,,0,-0.358527132,-0.263565891,1,0,0,0.612,button_left,0.612,0,,,,,,178,WORD,UN,33,mildew,INFORM,m,,,,,,,,-0.358527132,-0.263565891,1,0,0,,0,294,294,177,1,
,,,,,,,,,,,,,,,,,,5fbcbe35e0fd44188313e19b,2020-11-27_07h08.33.742,lexical_decision_task_MP_exp2,2020.2.5,Win32,60,,0,-0.358527132,-0.263565891,1,0,0,0.331,button_left,0.331,1,,,,,,406,NW,UN,33,suiver,NOUPLY,z,,,,,,,,-0.358527132,-0.263565891,1,0,0,,0,295,295,405,1,
,,,,,,,,,,,,,,,,,,5fbcbe35e0fd44188313e19b,2020-11-27_07h08.33.742,lexical_decision_task_MP_exp2,2020.2.5,Win32,60,,0,-0.358527132,-0.263565891,1,0,0,0.263,button_left,0.263,1,,,,,,388,NW,UN,33,witmer,CRAGIN,z,,,,,,,,-0.358527132,-0.263565891,1,0,0,,0,296,296,387,1,
,,,,,,,,,,,,,,,,,,5fbcbe35e0fd44188313e19b,2020-11-27_07h08.33.742,lexical_decision_task_MP_exp2,2020.2.5,Win32,60,,0,-0.358527132,-0.263565891,1,0,0,0.281,button_left,0.281,0,,,,,,182,WORD,UN,16,basket,WINTER,m,,,,,,,,-0.358527132,-0.263565891,1,0,0,,0,297,297,181,1,
,,,,,,,,,,,,,,,,,,5fbcbe35e0fd44188313e19b,2020-11-27_07h08.33.742,lexical_decision_task_MP_exp2,2020.2.5,Win32,60,,0,-0.358527132,-0.263565891,1,0,0,0.365,button_left,0.365,0,,,,,,56,WORD,"ID",33,ambush,AMBUSH,m,,,,,,,,-0.358527132,-0.263565891,1,0,0,,0,298,298,55,1,
,,,,,,,,,,,,,,,,,,5fbcbe35e0fd44188313e19b,2020-11-27_07h08.33.742,lexical_decision_task_MP_exp2,2020.2.5,Win32,60,,0,-0.358527132,-0.263565891,1,0,0,0.298,button_left,0.298,0,,,,,,166,WORD,UN,33,design,STARCH,m,,,,,,,,-0.358527132,-0.263565891,1,0,0,,0,299,299,165,1,
,,,,,,,,,,,,,,,,,,5fbcbe35e0fd44188313e19b,2020-11-27_07h08.33.742,lexical_decision_task_MP_exp2,2020.2.5,Win32,60,,0,-0.358527132,-0.263565891,1,0,0,0.579,button_left,0.579,0,,,,,,187,WORD,UN,16,social,COURSE,m,,,,,,,,-0.358527132,-0.263565891,1,0,0,,0,300,300,186,1,
,,,,,,,,,,,,,,,,,,5fbcbe35e0fd44188313e19b,2020-11-27_07h08.33.742,lexical_decision_task_MP_exp2,2020.2.5,Win32,60,,0,-0.358527132,-0.263565891,1,0,0,0.275,button_left,0.275,0,,,,,,176,WORD,UN,33,advent,STRIFE,m,,,,,,,,-0.358527132,-0.263565891,1,0,0,,0,301,301,175,1,
,,,,,,,,,,,,,,,,,,5fbcbe35e0fd44188313e19b,2020-11-27_07h08.33.742,lexical_decision_task_MP_exp2,2020.2.5,Win32,60,,0,-0.358527132,-0.263565891,1,0,0,0.462,button_left,0.462,1,,,,,,292,NW,"ID",33,ablint,ABLINT,z,,,,,,,,-0.358527132,-0.263565891,1,0,0,,0,302,302,291,1,
,,,,,,,,,,,,,,,,,,5fbcbe35e0fd44188313e19b,2020-11-27_07h08.33.742,lexical_decision_task_MP_exp2,2020.2.5,Win32,60,,0,-0.358527132,-0.263565891,1,0,0,0.514,button_left,0.514,0,,,,,,208,WORD,UN,16,search,HOCKEY,m,,,,,,,,-0.358527132,-0.263565891,1,0,0,,0,303,303,207,1,
,,,,,,,,,,,,,,,,,,5fbcbe35e0fd44188313e19b,2020-11-27_07h08.33.742,lexical_decision_task_MP_exp2,2020.2.5,Win32,60,,0,-0.358527132,-0.263565891,1,0,0,0.446,button_left,0.446,0,,,,,,240,WORD,UN,16,glance,FOREST,m,,,,,,,,-0.358527132,-0.263565891,1,0,0,,0,304,304,239,1,
,,,,,,,,,,,,,,,,,,5fbcbe35e0fd44188313e19b,2020-11-27_07h08.33.742,lexical_decision_task_MP_exp2,2020.2.5,Win32,60,,0,-0.358527132,-0.263565891,1,0,0,0.334,button_left,0.334,1,,,,,,338,NW,"ID",16,wreash,WREASH,z,,,,,,,,-0.358527132,-0.263565891,1,0,0,,0,305,305,337,1,
,,,,,,,,,,,,,,,,,,5fbcbe35e0fd44188313e19b,2020-11-27_07h08.33.742,lexical_decision_task_MP_exp2,2020.2.5,Win32,60,,0,-0.358527132,-0.263565891,1,0,0,0.379,button_left,0.379,1,,,,,,340,NW,"ID",16,fiatch,FIATCH,z,,,,,,,,-0.358527132,-0.263565891,1,0,0,,0,306,306,339,1,
,,,,,,,,,,,,,,,,,,5fbcbe35e0fd44188313e19b,2020-11-27_07h08.33.742,lexical_decision_task_MP_exp2,2020.2.5,Win32,60,,0,-0.358527132,-0.263565891,1,0,0,0.714,button_left,0.714,0,,,,,,1,WORD,"ID",33,fright,FRIGHT,m,,,,,,,,-0.358527132,-0.263565891,1,0,0,,0,307,307,0,1,
,,,,,,,,,,,,,,,,,,5fbcbe35e0fd44188313e19b,2020-11-27_07h08.33.742,lexical_decision_task_MP_exp2,2020.2.5,Win32,60,,0,-0.358527132,-0.263565891,1,0,0,0.566,button_left,0.566,0,,,,,,50,WORD,"ID",33,snatch,SNATCH,m,,,,,,,,-0.358527132,-0.263565891,1,0,0,,0,308,308,49,1,
,,,,,,,,,,,,,,,,,,5fbcbe35e0fd44188313e19b,2020-11-27_07h08.33.742,lexical_decision_task_MP_exp2,2020.2.5,Win32,60,,0,-0.358527132,-0.263565891,1,0,0,0.378,button_left,0.378,1,,,,,,358,NW,"ID",16,fleack,FLEACK,z,,,,,,,,-0.358527132,-0.263565891,1,0,0,,0,309,309,357,1,
,,,,,,,,,,,,,,,,,,5fbcbe35e0fd44188313e19b,2020-11-27_07h08.33.742,lexical_decision_task_MP_exp2,2020.2.5,Win32,60,,0,-0.358527132,-0.263565891,1,0,0,0.4,button_left,0.4,1,,,,,,253,NW,"ID",33,resait,RESAIT,z,,,,,,,,-0.358527132,-0.263565891,1,0,0,,0,310,310,252,1,
,,,,,,,,,,,,,,,,,,5fbcbe35e0fd44188313e19b,2020-11-27_07h08.33.742,lexical_decision_task_MP_exp2,2020.2.5,Win32,60,,0,-0.358527132,-0.263565891,1,0,0,0.621,button_left,0.621,1,,,,,,337,NW,"ID",16,rejols,REJOLS,z,,,,,,,,-0.358527132,-0.263565891,1,0,0,,0,311,311,336,1,
,,,,,,,,,,,,,,,,,,5fbcbe35e0fd44188313e19b,2020-11-27_07h08.33.742,lexical_decision_task_MP_exp2,2020.2.5,Win32,60,,0,,,,,,,,0.621,-1,,,,,,153,WORD,UN,33,author,BEHOLD,m,,,,,,,,-0.705426357,-0.494186047,0,0,0,,0,312,312,152,1,
,,,,,,,,,,,,,,,,,,5fbcbe35e0fd44188313e19b,2020-11-27_07h08.33.742,lexical_decision_task_MP_exp2,2020.2.5,Win32,60,,0,,,,,,,,0.621,-1,,,,,,169,WORD,UN,33,pounce,GENIUS,m,,,,,,,,-0.705426357,-0.494186047,0,0,0,,0,313,313,168,1,
,,,,,,,,,,,,,,,,,,5fbcbe35e0fd44188313e19b,2020-11-27_07h08.33.742,lexical_decision_task_MP_exp2,2020.2.5,Win32,60,,0,,,,,,,,0.621,-1,,,,,,64,WORD,"ID",16,throne,THRONE,m,,,,,,,,-0.343023256,-0.284883721,0,0,0,,0,314,314,63,1,
,,,,,,,,,,,,,,,,,,5fbcbe35e0fd44188313e19b,2020-11-27_07h08.33.742,lexical_decision_task_MP_exp2,2020.2.5,Win32,60,,0,-0.343023256,-0.286821705,1,0,0,0.079,button_left,0.079,1,,,,,,332,NW,"ID",16,vangue,VANGUE,z,,,,,,,,-0.343023256,-0.286821705,1,0,0,,0,315,315,331,1,
,,,,,,,,,,,,,,,,,,5fbcbe35e0fd44188313e19b,2020-11-27_07h08.33.742,lexical_decision_task_MP_exp2,2020.2.5,Win32,60,,0,-0.343023256,-0.286821705,1,0,0,0.166,button_left,0.166,0,,,,,,229,WORD,UN,16,fringe,MOTHER,m,,,,,,,,-0.343023256,-0.286821705,1,0,0,,0,316,316,228,1,
,,,,,,,,,,,,,,,,,,5fbcbe35e0fd44188313e19b,2020-11-27_07h08.33.742,lexical_decision_task_MP_exp2,2020.2.5,Win32,60,,0,-0.343023256,-0.286821705,1,0,0,0.209,button_left,0.209,0,,,,,,198,WORD,UN,16,invoke,WICKED,m,,,,,,,,-0.343023256,-0.286821705,1,0,0,,0,317,317,197,1,
,,,,,,,,,,,,,,,,,,5fbcbe35e0fd44188313e19b,2020-11-27_07h08.33.742,lexical_decision_task_MP_exp2,2020.2.5,Win32,60,,0,-0.343023256,-0.286821705,1,0,0,0.358,button_left,0.358,1,,,,,,382,NW,UN,33,aungre,SARLEY,z,,,,,,,,-0.343023256,-0.286821705,1,0,0,,0,318,318,381,1,
,,,,,,,,,,,,,,,,,,5fbcbe35e0fd44188313e19b,2020-11-27_07h08.33.742,lexical_decision_task_MP_exp2,2020.2.5,Win32,60,,0,-0.343023256,-0.286821705,1,0,0,0.26,button_left,0.26,0,,,,,,205,WORD,UN,16,tailor,LOUNGE,m,,,,,,,,-0.343023256,-0.286821705,1,0,0,,0,319,319,204,1,
,,,,,,,,,,,,,,,,,,5fbcbe35e0fd44188313e19b,2020-11-27_07h08.33.742,lexical_decision_task_MP_exp2,2020.2.5,Win32,60,,0,-0.343023256,-0.286821705,1,0,0,0.178,button_left,0.178,1,,,,,,345,NW,"ID",16,absend,ABSEND,z,,,,,,,,-0.343023256,-0.286821705,1,0,0,,0,320,320,344,1,
,,,,,,,,,,,,,,,,,,5fbcbe35e0fd44188313e19b,2020-11-27_07h08.33.742,lexical_decision_task_MP_exp2,2020.2.5,Win32,60,,0,-0.343023256,-0.286821705,1,0,0,0.136,button_left,0.136,0,,,,,,203,WORD,UN,16,burden,PHRASE,m,,,,,,,,-0.343023256,-0.286821705,1,0,0,,0,321,321,202,1,
,,,,,,,,,,,,,,,,,,5fbcbe35e0fd44188313e19b,2020-11-27_07h08.33.742,lexical_decision_task_MP_exp2,2020.2.5,Win32,60,,0,-0.343023256,-0.286821705,1,0,0,0.113,button_left,0.113,0,,,,,,135,WORD,UN,33,chrome,IMPORT,m,,,,,,,,-0.343023256,-0.286821705,1,0,0,,0,322,322,134,1,
,,,,,,,,,,,,,,,,,,5fbcbe35e0fd44188313e19b,2020-11-27_07h08.33.742,lexical_decision_task_MP_exp2,2020.2.5,Win32,60,,0,-0.343023256,-0.286821705,1,0,0,0.157,button_left,0.157,1,,,,,,333,NW,"ID",16,catrie,CATRIE,z,,,,,,,,-0.343023256,-0.286821705,1,0,0,,0,323,323,332,1,
,,,,,,,,,,,,,,,,,,5fbcbe35e0fd44188313e19b,2020-11-27_07h08.33.742,lexical_decision_task_MP_exp2,2020.2.5,Win32,60,,0,-0.343023256,-0.286821705,1,0,0,0.029,button_left,0.029,0,,,,,,25,WORD,"ID",33,domain,DOMAIN,m,,,,,,,,-0.343023256,-0.286821705,1,0,0,,0,324,324,24,1,
,,,,,,,,,,,,,,,,,,5fbcbe35e0fd44188313e19b,2020-11-27_07h08.33.742,lexical_decision_task_MP_exp2,2020.2.5,Win32,60,,0,-0.343023256,-0.286821705,1,0,0,0.144,button_left,0.144,0,,,,,,161,WORD,UN,33,candle,PASTOR,m,,,,,,,,-0.343023256,-0.286821705,1,0,0,,0,325,325,160,1,
,,,,,,,,,,,,,,,,,,5fbcbe35e0fd44188313e19b,2020-11-27_07h08.33.742,lexical_decision_task_MP_exp2,2020.2.5,Win32,60,,0,-0.343023256,-0.286821705,1,0,0,0.133,button_left,0.133,1,,,,,,355,NW,"ID",16,zingly,ZINGLY,z,,,,,,,,-0.343023256,-0.286821705,1,0,0,,0,326,326,354,1,
,,,,,,,,,,,,,,,,,,5fbcbe35e0fd44188313e19b,2020-11-27_07h08.33.742,lexical_decision_task_MP_exp2,2020.2.5,Win32,60,,0,-0.343023256,-0.286821705,1,0,0,0.136,button_left,0.136,0,,,,,,137,WORD,UN,33,melody,FINGER,m,,,,,,,,-0.343023256,-0.286821705,1,0,0,,0,327,327,136,1,
,,,,,,,,,,,,,,,,,,5fbcbe35e0fd44188313e19b,2020-11-27_07h08.33.742,lexical_decision_task_MP_exp2,2020.2.5,Win32,60,,0,-0.343023256,-0.286821705,1,0,0,0.119,button_left,0.119,0,,,,,,190,WORD,UN,16,stable,BACKUP,m,,,,,,,,-0.343023256,-0.286821705,1,0,0,,0,328,328,189,1,
,,,,,,,,,,,,,,,,,,5fbcbe35e0fd44188313e19b,2020-11-27_07h08.33.742,lexical_decision_task_MP_exp2,2020.2.5,Win32,60,,0,-0.343023256,-0.286821705,1,0,0,0.095,button_left,0.095,1,,,,,,261,NW,"ID",33,stunch,STUNCH,z,,,,,,,,-0.343023256,-0.286821705,1,0,0,,0,329,329,260,1,
,,,,,,,,,,,,,,,,,,5fbcbe35e0fd44188313e19b,2020-11-27_07h08.33.742,lexical_decision_task_MP_exp2,2020.2.5,Win32,60,,0,-0.343023256,-0.286821705,1,0,0,0.168,button_left,0.168,1,,,,,,286,NW,"ID",33,reldon,RELDON,z,,,,,,,,-0.343023256,-0.286821705,1,0,0,,0,330,330,285,1,
,,,,,,,,,,,,,,,,,,5fbcbe35e0fd44188313e19b,2020-11-27_07h08.33.742,lexical_decision_task_MP_exp2,2020.2.5,Win32,60,,0,-0.343023256,-0.286821705,1,0,0,0.436,button_left,0.436,0,,,,,,39,WORD,"ID",33,insect,INSECT,m,,,,,,,,-0.343023256,-0.286821705,1,0,0,,0,331,331,38,1,
,,,,,,,,,,,,,,,,,,5fbcbe35e0fd44188313e19b,2020-11-27_07h08.33.742,lexical_decision_task_MP_exp2,2020.2.5,Win32,60,,0,-0.343023256,-0.286821705,1,0,0,0.147,button_left,0.147,1,,,,,,422,NW,UN,16,streld,ALCOUD,z,,,,,,,,-0.343023256,-0.286821705,1,0,0,,0,332,332,421,1,
,,,,,,,,,,,,,,,,,,5fbcbe35e0fd44188313e19b,2020-11-27_07h08.33.742,lexical_decision_task_MP_exp2,2020.2.5,Win32,60,,0,-0.343023256,-0.286821705,1,0,0,0.197,button_left,0.197,1,,,,,,407,NW,UN,33,hurnia,SUIVER,z,,,,,,,,-0.343023256,-0.286821705,1,0,0,,0,333,333,406,1,
,,,,,,,,,,,,,,,,,,5fbcbe35e0fd44188313e19b,2020-11-27_07h08.33.742,lexical_decision_task_MP_exp2,2020.2.5,Win32,60,,0,-0.343023256,-0.286821705,1,0,0,0.235,button_left,0.235,0,,,,,,19,WORD,"ID",33,patron,PATRON,m,,,,,,,,-0.343023256,-0.286821705,1,0,0,,0,334,334,18,1,
,,,,,,,,,,,,,,,,,,5fbcbe35e0fd44188313e19b,2020-11-27_07h08.33.742,lexical_decision_task_MP_exp2,2020.2.5,Win32,60,,0,-0.343023256,-0.286821705,1,0,0,0.062,button_left,0.062,0,,,,,,227,WORD,UN,16,master,SELDOM,m,,,,,,,,-0.343023256,-0.286821705,1,0,0,,0,335,335,226,1,
,,,,,,,,,,,,,,,,,,5fbcbe35e0fd44188313e19b,2020-11-27_07h08.33.742,lexical_decision_task_MP_exp2,2020.2.5,Win32,60,,0,-0.343023256,-0.286821705,1,0,0,0.099,button_left,0.099,1,,,,,,344,NW,"ID",16,scrily,SCRILY,z,,,,,,,,-0.343023256,-0.286821705,1,0,0,,0,336,336,343,1,
,,,,,,,,,,,,,,,,,,5fbcbe35e0fd44188313e19b,2020-11-27_07h08.33.742,lexical_decision_task_MP_exp2,2020.2.5,Win32,60,,0,-0.343023256,-0.286821705,1,0,0,0.135,button_left,0.135,0,,,,,,239,WORD,UN,16,forest,LUMBER,m,,,,,,,,-0.343023256,-0.286821705,1,0,0,,0,337,337,238,1,
,,,,,,,,,,,,,,,,,,5fbcbe35e0fd44188313e19b,2020-11-27_07h08.33.742,lexical_decision_task_MP_exp2,2020.2.5,Win32,60,,0,-0.343023256,-0.286821705,1,0,0,0.116,button_left,0.116,1,,,,,,277,NW,"ID",33,petain,PETAIN,z,,,,,,,,-0.343023256,-0.286821705,1,0,0,,0,338,338,276,1,
,,,,,,,,,,,,,,,,,,5fbcbe35e0fd44188313e19b,2020-11-27_07h08.33.742,lexical_decision_task_MP_exp2,2020.2.5,Win32,60,,0,-0.343023256,-0.286821705,1,0,0,0.085,button_left,0.085,0,,,,,,131,WORD,UN,33,strong,QUENCH,m,,,,,,,,-0.343023256,-0.286821705,1,0,0,,0,339,339,130,1,
,,,,,,,,,,,,,,,,,,5fbcbe35e0fd44188313e19b,2020-11-27_07h08.33.742,lexical_decision_task_MP_exp2,2020.2.5,Win32,60,,0,-0.343023256,-0.286821705,1,0,0,0.211,button_left,0.211,1,,,,,,247,NW,"ID",33,blarge,BLARGE,z,,,,,,,,-0.343023256,-0.286821705,1,0,0,,0,340,340,246,1,
,,,,,,,,,,,,,,,,,,5fbcbe35e0fd44188313e19b,2020-11-27_07h08.33.742,lexical_decision_task_MP_exp2,2020.2.5,Win32,60,,0,-0.343023256,-0.286821705,1,0,0,0.562,button_left,0.562,0,,,,,,211,WORD,UN,16,verify,INFECT,m,,,,,,,,-0.343023256,-0.286821705,1,0,0,,0,341,341,210,1,
,,,,,,,,,,,,,,,,,,5fbcbe35e0fd44188313e19b,2020-11-27_07h08.33.742,lexical_decision_task_MP_exp2,2020.2.5,Win32,60,,0,-0.343023256,-0.286821705,1,0,0,0.157,button_left,0.157,1,,,,,,431,NW,UN,16,lunker,CHRUMS,z,,,,,,,,-0.343023256,-0.286821705,1,0,0,,0,342,342,430,1,
,,,,,,,,,,,,,,,,,,5fbcbe35e0fd44188313e19b,2020-11-27_07h08.33.742,lexical_decision_task_MP_exp2,2020.2.5,Win32,60,,0,-0.343023256,-0.286821705,1,0,0,0.18,button_left,0.18,0,,,,,,230,WORD,UN,16,export,FRINGE,m,,,,,,,,-0.343023256,-0.286821705,1,0,0,,0,343,343,229,1,
,,,,,,,,,,,,,,,,,,5fbcbe35e0fd44188313e19b,2020-11-27_07h08.33.742,lexical_decision_task_MP_exp2,2020.2.5,Win32,60,,0,-0.343023256,-0.286821705,1,0,0,0.219,button_left,0.219,1,,,,,,418,NW,UN,33,slount,SUIDLE,z,,,,,,,,-0.343023256,-0.286821705,1,0,0,,0,344,344,417,1,
,,,,,,,,,,,,,,,,,,5fbcbe35e0fd44188313e19b,2020-11-27_07h08.33.742,lexical_decision_task_MP_exp2,2020.2.5,Win32,60,,0,-0.343023256,-0.286821705,1,0,0,0.154,button_left,0.154,0,,,,,,104,WORD,"ID",16,studio,STUDIO,m,,,,,,,,-0.343023256,-0.286821705,1,0,0,,0,345,345,103,1,
,,,,,,,,,,,,,,,,,,5fbcbe35e0fd44188313e19b,2020-11-27_07h08.33.742,lexical_decision_task_MP_exp2,2020.2.5,Win32,60,,0,-0.343023256,-0.286821705,1,0,0,0.122,button_left,0.122,1,,,,,,414,NW,UN,33,higsta,SERBOL,z,,,,,,,,-0.343023256,-0.286821705,1,0,0,,0,346,346,413,1,
,,,,,,,,,,,,,,,,,,5fbcbe35e0fd44188313e19b,2020-11-27_07h08.33.742,lexical_decision_task_MP_exp2,2020.2.5,Win32,60,,0,-0.343023256,-0.286821705,1,0,0,0.131,button_left,0.131,1,,,,,,250,NW,"ID",33,milted,MILTED,z,,,,,,,,-0.343023256,-0.286821705,1,0,0,,0,347,347,249,1,
,,,,,,,,,,,,,,,,,,5fbcbe35e0fd44188313e19b,2020-11-27_07h08.33.742,lexical_decision_task_MP_exp2,2020.2.5,Win32,60,,0,-0.343023256,-0.286821705,1,0,0,0.164,button_left,0.164,0,,,,,,85,WORD,"ID",16,sprawl,SPRAWL,m,,,,,,,,-0.343023256,-0.286821705,1,0,0,,0,348,348,84,1,
,,,,,,,,,,,,,,,,,,5fbcbe35e0fd44188313e19b,2020-11-27_07h08.33.742,lexical_decision_task_MP_exp2,2020.2.5,Win32,60,,0,-0.343023256,-0.286821705,1,0,0,0.092,button_left,0.092,0,,,,,,60,WORD,"ID",33,pencil,PENCIL,m,,,,,,,,-0.343023256,-0.286821705,1,0,0,,0,349,349,59,1,
,,,,,,,,,,,,,,,,,,5fbcbe35e0fd44188313e19b,2020-11-27_07h08.33.742,lexical_decision_task_MP_exp2,2020.2.5,Win32,60,,0,-0.343023256,-0.286821705,1,0,0,0.168,button_left,0.168,0,,,,,,63,WORD,"ID",16,launch,LAUNCH,m,,,,,,,,-0.343023256,-0.286821705,1,0,0,,0,350,350,62,1,
,,,,,,,,,,,,,,,,,,5fbcbe35e0fd44188313e19b,2020-11-27_07h08.33.742,lexical_decision_task_MP_exp2,2020.2.5,Win32,60,,0,-0.343023256,-0.286821705,1,0,0,0.071,button_left,0.071,1,,,,,,265,NW,"ID",33,distar,DISTAR,z,,,,,,,,-0.343023256,-0.286821705,1,0,0,,0,351,351,264,1,
,,,,,,,,,,,,,,,,,,5fbcbe35e0fd44188313e19b,2020-11-27_07h08.33.742,lexical_decision_task_MP_exp2,2020.2.5,Win32,60,,0,-0.343023256,-0.286821705,1,0,0,0.14,button_left,0.14,1,,,,,,474,NW,UN,16,gorbie,HABLIN,z,,,,,,,,-0.343023256,-0.286821705,1,0,0,,0,352,352,473,1,
,,,,,,,,,,,,,,,,,,5fbcbe35e0fd44188313e19b,2020-11-27_07h08.33.742,lexical_decision_task_MP_exp2,2020.2.5,Win32,60,,0,-0.343023256,-0.286821705,1,0,0,0.107,button_left,0.107,0,,,,,,77,WORD,"ID",16,racket,RACKET,m,,,,,,,,-0.343023256,-0.286821705,1,0,0,,0,353,353,76,1,
,,,,,,,,,,,,,,,,,,5fbcbe35e0fd44188313e19b,2020-11-27_07h08.33.742,lexical_decision_task_MP_exp2,2020.2.5,Win32,60,,0,-0.343023256,-0.286821705,1,0,0,0.151,button_left,0.151,0,,,,,,122,WORD,UN,33,strike,LINGER,m,,,,,,,,-0.343023256,-0.286821705,1,0,0,,0,354,354,121,1,
,,,,,,,,,,,,,,,,,,5fbcbe35e0fd44188313e19b,2020-11-27_07h08.33.742,lexical_decision_task_MP_exp2,2020.2.5,Win32,60,,0,-0.343023256,-0.286821705,1,0,0,0.089,button_left,0.089,0,,,,,,58,WORD,"ID",33,foster,FOSTER,m,,,,,,,,-0.343023256,-0.286821705,1,0,0,,0,355,355,57,1,
,,,,,,,,,,,,,,,,,,5fbcbe35e0fd44188313e19b,2020-11-27_07h08.33.742,lexical_decision_task_MP_exp2,2020.2.5,Win32,60,,0,-0.343023256,-0.286821705,1,0,0,0.049,button_left,0.049,0,,,,,,158,WORD,UN,33,detail,ISLAND,m,,,,,,,,-0.343023256,-0.286821705,1,0,0,,0,356,356,157,1,
,,,,,,,,,,,,,,,,,,5fbcbe35e0fd44188313e19b,2020-11-27_07h08.33.742,lexical_decision_task_MP_exp2,2020.2.5,Win32,60,,0,-0.343023256,-0.286821705,1,0,0,0.19,button_left,0.19,1,,,,,,458,NW,UN,16,chaite,BARCET,z,,,,,,,,-0.343023256,-0.286821705,1,0,0,,0,357,357,457,1,
,,,,,,,,,,,,,,,,,,5fbcbe35e0fd44188313e19b,2020-11-27_07h08.33.742,lexical_decision_task_MP_exp2,2020.2.5,Win32,60,,0,-0.343023256,-0.286821705,1,0,0,0.028,button_left,0.028,1,,,,,,278,NW,"ID",33,unighs,UNIGHS,z,,,,,,,,-0.343023256,-0.286821705,1,0,0,,0,358,358,277,1,
,,,,,,,,,,,,,,,,,,5fbcbe35e0fd44188313e19b,2020-11-27_07h08.33.742,lexical_decision_task_MP_exp2,2020.2.5,Win32,60,,0,-0.343023256,-0.286821705,1,0,0,0.112,button_left,0.112,0,,,,,,43,WORD,"ID",33,tongue,TONGUE,m,,,,,,,,-0.343023256,-0.286821705,1,0,0,,0,359,359,42,1,
,,,,,,,,,,,,,,,,,,5fbcbe35e0fd44188313e19b,2020-11-27_07h08.33.742,lexical_decision_task_MP_exp2,2020.2.5,Win32,60,,0,-0.343023256,-0.286821705,1,0,0,0.203,button_left,0.203,0,,,,,,46,WORD,"ID",33,single,SINGLE,m,,,,,,,,-0.343023256,-0.286821705,1,0,0,,0,360,360,45,1,
,,,,,,,,,,,,,,,,,,5fbcbe35e0fd44188313e19b,2020-11-27_07h08.33.742,lexical_decision_task_MP_exp2,2020.2.5,Win32,60,,0,-0.343023256,-0.286821705,1,0,0,0.128,button_left,0.128,0,,,,,,202,WORD,UN,16,phrase,FACTOR,m,,,,,,,,-0.343023256,-0.286821705,1,0,0,,0,361,361,201,1,
,,,,,,,,,,,,,,,,,,5fbcbe35e0fd44188313e19b,2020-11-27_07h08.33.742,lexical_decision_task_MP_exp2,2020.2.5,Win32,60,,0,-0.343023256,-0.286821705,1,0,0,0.102,button_left,0.102,1,,,,,,464,NW,UN,16,whivex,CHAITE,z,,,,,,,,-0.03875969,-0.414728682,1,0,0,,0,362,362,463,1,break_done_button
,,,,,,,,,,,,,,,,,,5fbcbe35e0fd44188313e19b,2020-11-27_07h08.33.742,lexical_decision_task_MP_exp2,2020.2.5,Win32,60,,0,0.46124031,-0.317829457,1,0,0,0.755,button_right,0.755,1,,,,,,145,WORD,UN,33,couple,PARISH,m,,,,,,,,0.46124031,-0.317829457,1,0,0,,0,363,363,144,1,
,,,,,,,,,,,,,,,,,,5fbcbe35e0fd44188313e19b,2020-11-27_07h08.33.742,lexical_decision_task_MP_exp2,2020.2.5,Win32,60,,0,0.470930233,-0.317829457,1,0,0,0.165,button_right,0.165,1,,,,,,88,WORD,"ID",16,hunger,HUNGER,m,,,,,,,,0.470930233,-0.317829457,1,0,0,,0,364,364,87,1,
,,,,,,,,,,,,,,,,,,5fbcbe35e0fd44188313e19b,2020-11-27_07h08.33.742,lexical_decision_task_MP_exp2,2020.2.5,Win32,60,,0,0.470930233,-0.317829457,1,0,0,0.141,button_right,0.141,0,,,,,,316,NW,"ID",16,scregm,SCREGM,z,,,,,,,,0.470930233,-0.317829457,1,0,0,,0,365,365,315,1,
,,,,,,,,,,,,,,,,,,5fbcbe35e0fd44188313e19b,2020-11-27_07h08.33.742,lexical_decision_task_MP_exp2,2020.2.5,Win32,60,,0,0.470930233,-0.317829457,1,0,0,0.19,button_right,0.19,0,,,,,,312,NW,"ID",16,nerawl,NERAWL,z,,,,,,,,0.470930233,-0.317829457,1,0,0,,0,366,366,311,1,
,,,,,,,,,,,,,,,,,,5fbcbe35e0fd44188313e19b,2020-11-27_07h08.33.742,lexical_decision_task_MP_exp2,2020.2.5,Win32,60,,0,-0.286821705,-0.370155039,1,0,0,0.38,button_left,0.38,0,,,,,,11,WORD,"ID",33,cruise,CRUISE,m,,,,,,,,-0.286821705,-0.370155039,1,0,0,,0,367,367,10,1,
,,,,,,,,,,,,,,,,,,5fbcbe35e0fd44188313e19b,2020-11-27_07h08.33.742,lexical_decision_task_MP_exp2,2020.2.5,Win32,60,,0,-0.51744186,-0.315891473,1,0,0,0.22,button_left,0.22,1,,,,,,362,NW,UN,33,breali,TIREAU,z,,,,,,,,-0.51744186,-0.315891473,1,0,0,,0,368,368,361,1,
,,,,,,,,,,,,,,,,,,5fbcbe35e0fd44188313e19b,2020-11-27_07h08.33.742,lexical_decision_task_MP_exp2,2020.2.5,Win32,60,,0,-0.695736434,-0.273255814,1,0,0,0.185,button_left,0.185,1,,,,,,274,NW,"ID",33,fumblo,FUMBLO,z,,,,,,,,-0.44379845,-0.255813953,1,0,0,,0,369,369,273,1,
,,,,,,,,,,,,,,,,,,5fbcbe35e0fd44188313e19b,2020-11-27_07h08.33.742,lexical_decision_task_MP_exp2,2020.2.5,Win32,60,,0,-0.434108527,-0.296511628,1,0,0,0.126,button_left,0.126,0,,,,,,106,WORD,"ID",16,ransom,RANSOM,m,,,,,,,,-0.434108527,-0.296511628,1,0,0,,0,370,370,105,1,
,,,,,,,,,,,,,,,,,,5fbcbe35e0fd44188313e19b,2020-11-27_07h08.33.742,lexical_decision_task_MP_exp2,2020.2.5,Win32,60,,0,-0.451550388,-0.377906977,1,0,0,0.179,button_left,0.179,1,,,,,,433,NW,UN,16,pitrom,DRANCE,z,,,,,,,,-0.451550388,-0.377906977,1,0,0,,0,371,371,432,1,
,,,,,,,,,,,,,,,,,,5fbcbe35e0fd44188313e19b,2020-11-27_07h08.33.742,lexical_decision_task_MP_exp2,2020.2.5,Win32,60,,0,-0.600775194,-0.341085271,1,0,0,0.12,button_right,0.12,1,,,,,,201,WORD,UN,16,factor,ADMIRE,m,,,,,,,,0.364341085,-0.343023256,1,0,0,,0,372,372,200,1,
,,,,,,,,,,,,,,,,,,5fbcbe35e0fd44188313e19b,2020-11-27_07h08.33.742,lexical_decision_task_MP_exp2,2020.2.5,Win32,60,,0,0.28875969,-0.290697674,1,0,0,0.056,button_right,0.056,0,,,,,,411,NW,UN,33,jiluer,ORCHIN,z,,,,,,,,0.28875969,-0.290697674,1,0,0,,0,373,373,410,1,
,,,,,,,,,,,,,,,,,,5fbcbe35e0fd44188313e19b,2020-11-27_07h08.33.742,lexical_decision_task_MP_exp2,2020.2.5,Win32,60,,0,0.449612403,-0.26744186,1,0,0,0.153,button_right,0.153,1,,,,,,188,WORD,UN,16,censor,SOCIAL,m,,,,,,,,0.449612403,-0.26744186,1,0,0,,0,374,374,187,1,
,,,,,,,,,,,,,,,,,,5fbcbe35e0fd44188313e19b,2020-11-27_07h08.33.742,lexical_decision_task_MP_exp2,2020.2.5,Win32,60,,0,0.32751938,-0.286821705,1,0,0,0.122,button_right,0.122,0,,,,,,476,NW,UN,16,photie,JOSTED,z,,,,,,,,0.32751938,-0.286821705,1,0,0,,0,375,375,475,1,
,,,,,,,,,,,,,,,,,,5fbcbe35e0fd44188313e19b,2020-11-27_07h08.33.742,lexical_decision_task_MP_exp2,2020.2.5,Win32,60,,0,0.337209302,-0.296511628,1,0,0,0.131,button_right,0.131,0,,,,,,356,NW,"ID",16,othnis,OTHNIS,z,,,,,,,,0.337209302,-0.296511628,1,0,0,,0,376,376,355,1,
,,,,,,,,,,,,,,,,,,5fbcbe35e0fd44188313e19b,2020-11-27_07h08.33.742,lexical_decision_task_MP_exp2,2020.2.5,Win32,60,,0,0.560077519,-0.26744186,1,0,0,0.331,button_right,0.331,0,,,,,,383,NW,UN,33,guesco,AUNGRE,z,,,,,,,,0.560077519,-0.26744186,1,0,0,,0,377,377,382,1,
,,,,,,,,,,,,,,,,,,5fbcbe35e0fd44188313e19b,2020-11-27_07h08.33.742,lexical_decision_task_MP_exp2,2020.2.5,Win32,60,,0,0.757751938,-0.292635659,1,0,0,0.16,button_right,0.16,1,,,,,,181,WORD,UN,16,winter,GLANCE,m,,,,,,,,0.486434109,-0.298449612,1,0,0,,0,378,378,180,1,
,,,,,,,,,,,,,,,,,,5fbcbe35e0fd44188313e19b,2020-11-27_07h08.33.742,lexical_decision_task_MP_exp2,2020.2.5,Win32,60,,0,-0.478682171,-0.294573643,1,0,0,0.163,button_left,0.163,1,,,,,,243,NW,"ID",33,musied,MUSIED,z,,,,,,,,-0.478682171,-0.294573643,1,0,0,,0,379,379,242,1,
