counterbalancing_condition,instr_done_keyboard.keys,instr_done_keyboard.rt,instr_done_touch.x,instr_done_touch.y,instr_done_touch.leftButton,instr_done_touch.midButton,instr_done_touch.rightButton,instruction_pages.thisRepN,instruction_pages.thisTrialN,instruction_pages.thisN,instruction_pages.thisIndex,instruction_pages.ran,pageN,phase,instruct_text,has_image,instruct_image,participant,date,expName,psychopyVersion,OS,frameRate,response.keys,response.corr,response.rt,touch_resp.x,touch_resp.y,touch_resp.leftButton,touch_resp.midButton,touch_resp.rightButton,touch_resp.time,touch_resp.clicked_name,rt,corr,practice_trials.thisRepN,practice_trials.thisTrialN,practice_trials.thisN,practice_trials.thisIndex,practice_trials.ran,TrialID,StimulusType,Condition,PrimeDuration,Prime,Target,corrAns,end_of_practice_trials_pages.thisRepN,end_of_practice_trials_pages.thisTrialN,end_of_practice_trials_pages.thisN,end_of_practice_trials_pages.thisIndex,end_of_practice_trials_pages.ran,break_done_touch.x,break_done_touch.y,break_done_touch.leftButton,break_done_touch.midButton,break_done_touch.rightButton,break_done_keyboard.keys,experiment_trials.thisRepN,experiment_trials.thisTrialN,experiment_trials.thisN,experiment_trials.thisIndex,experiment_trials.ran,break_done_keyboard.rt
1,space,9.3898,-0.022792969,-0.390195313,0,0,0,0,0,0,0,1,1,instructions,"INSTRUCTIONS
At the start of each trial, look at the hash marks (######) in the center of the screen. After a moment, a string of letters will appear. Your task is to indicate if the letter string forms a word or not (i.e., if it is a nonword). For example, AUTHOR is a word while AUTHON is a nonword.

Press the space bar or touch the button below to continue.",0,,5fbd3476ab057909b0e2fc42,2020-11-26_15h58.12.768,lexical_decision_task_MP_exp2,2020.2.5,MacIntel,60,,,,,,,,,,,,,,,,,,,,,,,,,,,,,,,,,,,,,,,,,
,space,13.44523,-0.022792969,-0.390195313,0,0,0,0,1,1,1,1,2,instructions,"If your device has a keyboard, press the 'Z' key for nonwords and the 'M' key for words.





Press the space bar or touch the button below to continue.",1,keyboard-example.gif,5fbd3476ab057909b0e2fc42,2020-11-26_15h58.12.768,lexical_decision_task_MP_exp2,2020.2.5,MacIntel,60,,,,,,,,,,,,,,,,,,,,,,,,,,,,,,,,,,,,,,,,,
,space,1.956355,-0.022792969,-0.390195313,0,0,0,0,2,2,2,1,3,instructions,"If you are using a touchscreen only device, use the buttons on the screen. Do not use the mouse.





Press the space bar or touch the button below to continue.",1,touchscreen-example.gif,5fbd3476ab057909b0e2fc42,2020-11-26_15h58.12.768,lexical_decision_task_MP_exp2,2020.2.5,MacIntel,60,,,,,,,,,,,,,,,,,,,,,,,,,,,,,,,,,,,,,,,,,
,space,2.21477,-0.022792969,-0.390195313,0,0,0,0,3,3,3,1,4,instructions,"It is very important that you respond as quickly and accurately as possible, as each letter string will only be on the screen for two seconds. If you do not respond within this time, the message 'Too slow!' will be displayed and the experiment will progress to the next letter string. The first 20 trials will be practice trials and you will receive feedback on your answers. 

Press the space bar or touch the button below to start the practice trials.",0,,5fbd3476ab057909b0e2fc42,2020-11-26_15h58.12.768,lexical_decision_task_MP_exp2,2020.2.5,MacIntel,60,,,,,,,,,,,,,,,,,,,,,,,,,,,,,,,,,,,,,,,,,
,,,,,,,,,,,,,,,,,,5fbd3476ab057909b0e2fc42,2020-11-26_15h58.12.768,lexical_decision_task_MP_exp2,2020.2.5,MacIntel,60,m,0,1.41803,,,,,,,,1.41803,0,0,0,0,9,1,1010,NW,"ID",33,fariny,FARINY,z,,,,,,,,,,,,,,,,,
,,,,,,,,,,,,,,,,,,5fbd3476ab057909b0e2fc42,2020-11-26_15h58.12.768,lexical_decision_task_MP_exp2,2020.2.5,MacIntel,60,m,1,1.00463,,,,,,,,1.00463,1,0,1,1,1,1,1002,WORD,"ID",33,adjust,ADJUST,m,,,,,,,,,,,,,,,,,
,,,,,,,,,,,,,,,,,,5fbd3476ab057909b0e2fc42,2020-11-26_15h58.12.768,lexical_decision_task_MP_exp2,2020.2.5,MacIntel,60,m,1,1.26757,,,,,,,,1.26757,1,0,2,2,2,1,1003,WORD,"ID",16,almond,ALMOND,m,,,,,,,,,,,,,,,,,
,,,,,,,,,,,,,,,,,,5fbd3476ab057909b0e2fc42,2020-11-26_15h58.12.768,lexical_decision_task_MP_exp2,2020.2.5,MacIntel,60,m,1,1.667775,,,,,,,,1.667775,1,0,3,3,5,1,1006,WORD,UN,33,frenzy,OBTAIN,m,,,,,,,,,,,,,,,,,
,,,,,,,,,,,,,,,,,,5fbd3476ab057909b0e2fc42,2020-11-26_15h58.12.768,lexical_decision_task_MP_exp2,2020.2.5,MacIntel,60,z,1,0.702835,,,,,,,,0.702835,1,0,4,4,14,1,1015,NW,UN,16,miaber,THRALE,z,,,,,,,,,,,,,,,,,
,,,,,,,,,,,,,,,,,,5fbd3476ab057909b0e2fc42,2020-11-26_15h58.12.768,lexical_decision_task_MP_exp2,2020.2.5,MacIntel,60,m,1,0.63451,,,,,,,,0.63451,1,0,5,5,6,1,1007,WORD,UN,16,tropic,ZOMBIE,m,,,,,,,,,,,,,,,,,
,,,,,,,,,,,,,,,,,,5fbd3476ab057909b0e2fc42,2020-11-26_15h58.12.768,lexical_decision_task_MP_exp2,2020.2.5,MacIntel,60,m,1,0.725705,,,,,,,,0.725705,1,0,6,6,7,1,1008,WORD,UN,16,hurdle,VOLUME,m,,,,,,,,,,,,,,,,,
,,,,,,,,,,,,,,,,,,5fbd3476ab057909b0e2fc42,2020-11-26_15h58.12.768,lexical_decision_task_MP_exp2,2020.2.5,MacIntel,60,m,1,0.600955,,,,,,,,0.600955,1,0,7,7,4,1,1005,WORD,UN,33,abound,SQUEAK,m,,,,,,,,,,,,,,,,,
,,,,,,,,,,,,,,,,,,5fbd3476ab057909b0e2fc42,2020-11-26_15h58.12.768,lexical_decision_task_MP_exp2,2020.2.5,MacIntel,60,z,1,0.692315,,,,,,,,0.692315,1,0,8,8,10,1,1011,NW,"ID",16,inlade,INLADE,z,,,,,,,,,,,,,,,,,
,,,,,,,,,,,,,,,,,,5fbd3476ab057909b0e2fc42,2020-11-26_15h58.12.768,lexical_decision_task_MP_exp2,2020.2.5,MacIntel,60,m,1,1.00467,,,,,,,,1.00467,1,0,9,9,0,1,1001,WORD,"ID",33,utopia,UTOPIA,m,,,,,,,,,,,,,,,,,
,,,,,,,,,,,,,,,,,,5fbd3476ab057909b0e2fc42,2020-11-26_15h58.12.768,lexical_decision_task_MP_exp2,2020.2.5,MacIntel,60,z,1,0.75431,,,,,,,,0.75431,1,0,10,10,11,1,1012,NW,"ID",16,rashet,RASHET,z,,,,,,,,,,,,,,,,,
,,,,,,,,,,,,,,,,,,5fbd3476ab057909b0e2fc42,2020-11-26_15h58.12.768,lexical_decision_task_MP_exp2,2020.2.5,MacIntel,60,m,1,0.65031,,,,,,,,0.65031,1,0,11,11,3,1,1004,WORD,"ID",16,matrix,MATRIX,m,,,,,,,,,,,,,,,,,
,,,,,,,,,,,,,,,,,,5fbd3476ab057909b0e2fc42,2020-11-26_15h58.12.768,lexical_decision_task_MP_exp2,2020.2.5,MacIntel,60,z,1,0.767885,,,,,,,,0.767885,1,0,12,12,8,1,1009,NW,"ID",33,aslert,ASLERT,z,,,,,,,,,,,,,,,,,
,,,,,,,,,,,,,,,,,,5fbd3476ab057909b0e2fc42,2020-11-26_15h58.12.768,lexical_decision_task_MP_exp2,2020.2.5,MacIntel,60,z,1,0.722955,,,,,,,,0.722955,1,0,13,13,13,1,1014,NW,UN,33,winfer,ROUPET,z,,,,,,,,,,,,,,,,,
,,,,,,,,,,,,,,,,,,5fbd3476ab057909b0e2fc42,2020-11-26_15h58.12.768,lexical_decision_task_MP_exp2,2020.2.5,MacIntel,60,z,1,0.820305,,,,,,,,0.820305,1,0,14,14,15,1,1016,NW,UN,16,mushed,WHAISE,z,,,,,,,,,,,,,,,,,
,,,,,,,,,,,,,,,,,,5fbd3476ab057909b0e2fc42,2020-11-26_15h58.12.768,lexical_decision_task_MP_exp2,2020.2.5,MacIntel,60,z,1,0.90137,,,,,,,,0.90137,1,0,15,15,12,1,1013,NW,UN,33,adveil,SPRINY,z,,,,,,,,,,,,,,,,,
,space,1.222975,-0.022792969,-0.390195313,0,0,0,,,,,,1,end_of_practice,"You have completed the practice trials. During the experimental trials, you will not receive feedback, but it is very important that you respond as quickly and accurately as possible. 
Before you begin, please ensure that you are in a comfortable and quiet location and will not be disturbed for about 15 minutes, as we cannot use your data if you do not complete all the trials. 
There will be opportunities to take breaks at regular intervals during the experiment. When you are ready to start the experimental trials, please press space or touch the button below.",,,5fbd3476ab057909b0e2fc42,2020-11-26_15h58.12.768,lexical_decision_task_MP_exp2,2020.2.5,MacIntel,60,,,,,,,,,,,,,,,,,,,,,,,,,0,0,0,0,1,,,,,,,,,,,,
,,,,,,,,,,,,,,,,,,5fbd3476ab057909b0e2fc42,2020-11-26_15h58.12.768,lexical_decision_task_MP_exp2,2020.2.5,MacIntel,60,z,1,0.787665,,,,,,,,0.787665,1,,,,,,280,NW,"ID",33,curbol,CURBOL,z,,,,,,-0.022792969,-0.390195313,0,0,0,,0,0,0,279,1,
,,,,,,,,,,,,,,,,,,5fbd3476ab057909b0e2fc42,2020-11-26_15h58.12.768,lexical_decision_task_MP_exp2,2020.2.5,MacIntel,60,m,1,0.58381,,,,,,,,0.58381,1,,,,,,190,WORD,UN,16,stable,BACKUP,m,,,,,,-0.022792969,-0.390195313,0,0,0,,0,1,1,189,1,
,,,,,,,,,,,,,,,,,,5fbd3476ab057909b0e2fc42,2020-11-26_15h58.12.768,lexical_decision_task_MP_exp2,2020.2.5,MacIntel,60,m,1,0.751665,,,,,,,,0.751665,1,,,,,,19,WORD,"ID",33,patron,PATRON,m,,,,,,-0.022792969,-0.390195313,0,0,0,,0,2,2,18,1,
,,,,,,,,,,,,,,,,,,5fbd3476ab057909b0e2fc42,2020-11-26_15h58.12.768,lexical_decision_task_MP_exp2,2020.2.5,MacIntel,60,m,1,0.56767,,,,,,,,0.56767,1,,,,,,6,WORD,"ID",33,bundle,BUNDLE,m,,,,,,-0.022792969,-0.390195313,0,0,0,,0,3,3,5,1,
,,,,,,,,,,,,,,,,,,5fbd3476ab057909b0e2fc42,2020-11-26_15h58.12.768,lexical_decision_task_MP_exp2,2020.2.5,MacIntel,60,m,1,0.6672,,,,,,,,0.6672,1,,,,,,24,WORD,"ID",33,praise,PRAISE,m,,,,,,-0.022792969,-0.390195313,0,0,0,,0,4,4,23,1,
,,,,,,,,,,,,,,,,,,5fbd3476ab057909b0e2fc42,2020-11-26_15h58.12.768,lexical_decision_task_MP_exp2,2020.2.5,MacIntel,60,m,1,0.50089,,,,,,,,0.50089,1,,,,,,169,WORD,UN,33,pounce,GENIUS,m,,,,,,-0.022792969,-0.390195313,0,0,0,,0,5,5,168,1,
,,,,,,,,,,,,,,,,,,5fbd3476ab057909b0e2fc42,2020-11-26_15h58.12.768,lexical_decision_task_MP_exp2,2020.2.5,MacIntel,60,m,1,0.56755,,,,,,,,0.56755,1,,,,,,205,WORD,UN,16,tailor,LOUNGE,m,,,,,,-0.022792969,-0.390195313,0,0,0,,0,6,6,204,1,
,,,,,,,,,,,,,,,,,,5fbd3476ab057909b0e2fc42,2020-11-26_15h58.12.768,lexical_decision_task_MP_exp2,2020.2.5,MacIntel,60,m,1,0.586595,,,,,,,,0.586595,1,,,,,,62,WORD,"ID",16,region,REGION,m,,,,,,-0.022792969,-0.390195313,0,0,0,,0,7,7,61,1,
,,,,,,,,,,,,,,,,,,5fbd3476ab057909b0e2fc42,2020-11-26_15h58.12.768,lexical_decision_task_MP_exp2,2020.2.5,MacIntel,60,m,1,0.58793,,,,,,,,0.58793,1,,,,,,160,WORD,UN,33,dragon,VIOLET,m,,,,,,-0.022792969,-0.390195313,0,0,0,,0,8,8,159,1,
,,,,,,,,,,,,,,,,,,5fbd3476ab057909b0e2fc42,2020-11-26_15h58.12.768,lexical_decision_task_MP_exp2,2020.2.5,MacIntel,60,m,1,0.718395,,,,,,,,0.718395,1,,,,,,58,WORD,"ID",33,foster,FOSTER,m,,,,,,-0.022792969,-0.390195313,0,0,0,,0,9,9,57,1,
,,,,,,,,,,,,,,,,,,5fbd3476ab057909b0e2fc42,2020-11-26_15h58.12.768,lexical_decision_task_MP_exp2,2020.2.5,MacIntel,60,m,1,0.50055,,,,,,,,0.50055,1,,,,,,80,WORD,"ID",16,family,FAMILY,m,,,,,,-0.022792969,-0.390195313,0,0,0,,0,10,10,79,1,
,,,,,,,,,,,,,,,,,,5fbd3476ab057909b0e2fc42,2020-11-26_15h58.12.768,lexical_decision_task_MP_exp2,2020.2.5,MacIntel,60,m,1,0.79473,,,,,,,,0.79473,1,,,,,,106,WORD,"ID",16,ransom,RANSOM,m,,,,,,-0.022792969,-0.390195313,0,0,0,,0,11,11,105,1,
,,,,,,,,,,,,,,,,,,5fbd3476ab057909b0e2fc42,2020-11-26_15h58.12.768,lexical_decision_task_MP_exp2,2020.2.5,MacIntel,60,z,1,0.801275,,,,,,,,0.801275,1,,,,,,394,NW,UN,33,colury,SPAQUX,z,,,,,,-0.022792969,-0.390195313,0,0,0,,0,12,12,393,1,
,,,,,,,,,,,,,,,,,,5fbd3476ab057909b0e2fc42,2020-11-26_15h58.12.768,lexical_decision_task_MP_exp2,2020.2.5,MacIntel,60,m,1,0.6509,,,,,,,,0.6509,1,,,,,,168,WORD,UN,33,genius,ANSWER,m,,,,,,-0.022792969,-0.390195313,0,0,0,,0,13,13,167,1,
,,,,,,,,,,,,,,,,,,5fbd3476ab057909b0e2fc42,2020-11-26_15h58.12.768,lexical_decision_task_MP_exp2,2020.2.5,MacIntel,60,z,1,0.69793,,,,,,,,0.69793,1,,,,,,423,NW,UN,16,praile,STRELD,z,,,,,,-0.022792969,-0.390195313,0,0,0,,0,14,14,422,1,
,,,,,,,,,,,,,,,,,,5fbd3476ab057909b0e2fc42,2020-11-26_15h58.12.768,lexical_decision_task_MP_exp2,2020.2.5,MacIntel,60,z,1,0.750425,,,,,,,,0.750425,1,,,,,,437,NW,UN,16,baitch,SNAPEL,z,,,,,,-0.022792969,-0.390195313,0,0,0,,0,15,15,436,1,
,,,,,,,,,,,,,,,,,,5fbd3476ab057909b0e2fc42,2020-11-26_15h58.12.768,lexical_decision_task_MP_exp2,2020.2.5,MacIntel,60,m,1,0.66601,,,,,,,,0.66601,1,,,,,,226,WORD,UN,16,flower,CASINO,m,,,,,,-0.022792969,-0.390195313,0,0,0,,0,16,16,225,1,
,,,,,,,,,,,,,,,,,,5fbd3476ab057909b0e2fc42,2020-11-26_15h58.12.768,lexical_decision_task_MP_exp2,2020.2.5,MacIntel,60,m,1,0.53606,,,,,,,,0.53606,1,,,,,,105,WORD,"ID",16,number,NUMBER,m,,,,,,-0.022792969,-0.390195313,0,0,0,,0,17,17,104,1,
,,,,,,,,,,,,,,,,,,5fbd3476ab057909b0e2fc42,2020-11-26_15h58.12.768,lexical_decision_task_MP_exp2,2020.2.5,MacIntel,60,m,1,0.739915,,,,,,,,0.739915,1,,,,,,203,WORD,UN,16,burden,PHRASE,m,,,,,,-0.022792969,-0.390195313,0,0,0,,0,18,18,202,1,
,,,,,,,,,,,,,,,,,,5fbd3476ab057909b0e2fc42,2020-11-26_15h58.12.768,lexical_decision_task_MP_exp2,2020.2.5,MacIntel,60,z,1,1.1855,,,,,,,,1.1855,1,,,,,,245,NW,"ID",33,anougs,ANOUGS,z,,,,,,-0.022792969,-0.390195313,0,0,0,,0,19,19,244,1,
,,,,,,,,,,,,,,,,,,5fbd3476ab057909b0e2fc42,2020-11-26_15h58.12.768,lexical_decision_task_MP_exp2,2020.2.5,MacIntel,60,m,1,0.738235,,,,,,,,0.738235,1,,,,,,48,WORD,"ID",33,walnut,WALNUT,m,,,,,,-0.022792969,-0.390195313,0,0,0,,0,20,20,47,1,
,,,,,,,,,,,,,,,,,,5fbd3476ab057909b0e2fc42,2020-11-26_15h58.12.768,lexical_decision_task_MP_exp2,2020.2.5,MacIntel,60,z,1,0.773505,,,,,,,,0.773505,1,,,,,,393,NW,UN,33,spaqux,GANOUS,z,,,,,,-0.022792969,-0.390195313,0,0,0,,0,21,21,392,1,
,,,,,,,,,,,,,,,,,,5fbd3476ab057909b0e2fc42,2020-11-26_15h58.12.768,lexical_decision_task_MP_exp2,2020.2.5,MacIntel,60,m,1,0.534295,,,,,,,,0.534295,1,,,,,,116,WORD,"ID",16,tumble,TUMBLE,m,,,,,,-0.022792969,-0.390195313,0,0,0,,0,22,22,115,1,
,,,,,,,,,,,,,,,,,,5fbd3476ab057909b0e2fc42,2020-11-26_15h58.12.768,lexical_decision_task_MP_exp2,2020.2.5,MacIntel,60,m,1,0.495055,,,,,,,,0.495055,1,,,,,,43,WORD,"ID",33,tongue,TONGUE,m,,,,,,-0.022792969,-0.390195313,0,0,0,,0,23,23,42,1,
,,,,,,,,,,,,,,,,,,5fbd3476ab057909b0e2fc42,2020-11-26_15h58.12.768,lexical_decision_task_MP_exp2,2020.2.5,MacIntel,60,z,1,0.66723,,,,,,,,0.66723,1,,,,,,264,NW,"ID",33,vackel,VACKEL,z,,,,,,-0.022792969,-0.390195313,0,0,0,,0,24,24,263,1,
,,,,,,,,,,,,,,,,,,5fbd3476ab057909b0e2fc42,2020-11-26_15h58.12.768,lexical_decision_task_MP_exp2,2020.2.5,MacIntel,60,z,1,0.639195,,,,,,,,0.639195,1,,,,,,310,NW,"ID",16,daniet,DANIET,z,,,,,,-0.022792969,-0.390195313,0,0,0,,0,25,25,309,1,
,,,,,,,,,,,,,,,,,,5fbd3476ab057909b0e2fc42,2020-11-26_15h58.12.768,lexical_decision_task_MP_exp2,2020.2.5,MacIntel,60,m,1,0.551905,,,,,,,,0.551905,1,,,,,,112,WORD,"ID",16,breath,BREATH,m,,,,,,-0.022792969,-0.390195313,0,0,0,,0,26,26,111,1,
,,,,,,,,,,,,,,,,,,5fbd3476ab057909b0e2fc42,2020-11-26_15h58.12.768,lexical_decision_task_MP_exp2,2020.2.5,MacIntel,60,z,1,1.034645,,,,,,,,1.034645,1,,,,,,370,NW,UN,33,geiloy,SLEACT,z,,,,,,-0.022792969,-0.390195313,0,0,0,,0,27,27,369,1,
,,,,,,,,,,,,,,,,,,5fbd3476ab057909b0e2fc42,2020-11-26_15h58.12.768,lexical_decision_task_MP_exp2,2020.2.5,MacIntel,60,z,1,0.76728,,,,,,,,0.76728,1,,,,,,330,NW,"ID",16,kensom,KENSOM,z,,,,,,-0.022792969,-0.390195313,0,0,0,,0,28,28,329,1,
,,,,,,,,,,,,,,,,,,5fbd3476ab057909b0e2fc42,2020-11-26_15h58.12.768,lexical_decision_task_MP_exp2,2020.2.5,MacIntel,60,z,1,1.051565,,,,,,,,1.051565,1,,,,,,449,NW,UN,16,phrect,BRUNGE,z,,,,,,-0.022792969,-0.390195313,0,0,0,,0,29,29,448,1,
,,,,,,,,,,,,,,,,,,5fbd3476ab057909b0e2fc42,2020-11-26_15h58.12.768,lexical_decision_task_MP_exp2,2020.2.5,MacIntel,60,z,1,0.716415,,,,,,,,0.716415,1,,,,,,372,NW,UN,33,bigent,RAMILY,z,,,,,,-0.022792969,-0.390195313,0,0,0,,0,30,30,371,1,
,,,,,,,,,,,,,,,,,,5fbd3476ab057909b0e2fc42,2020-11-26_15h58.12.768,lexical_decision_task_MP_exp2,2020.2.5,MacIntel,60,m,1,0.934775,,,,,,,,0.934775,1,,,,,,199,WORD,UN,16,beacon,INVOKE,m,,,,,,-0.022792969,-0.390195313,0,0,0,,0,31,31,198,1,
,,,,,,,,,,,,,,,,,,5fbd3476ab057909b0e2fc42,2020-11-26_15h58.12.768,lexical_decision_task_MP_exp2,2020.2.5,MacIntel,60,m,1,0.73362,,,,,,,,0.73362,1,,,,,,158,WORD,UN,33,detail,ISLAND,m,,,,,,-0.022792969,-0.390195313,0,0,0,,0,32,32,157,1,
,,,,,,,,,,,,,,,,,,5fbd3476ab057909b0e2fc42,2020-11-26_15h58.12.768,lexical_decision_task_MP_exp2,2020.2.5,MacIntel,60,z,1,0.655705,,,,,,,,0.655705,1,,,,,,465,NW,UN,16,hocite,WHIVEX,z,,,,,,-0.022792969,-0.390195313,0,0,0,,0,33,33,464,1,
,,,,,,,,,,,,,,,,,,5fbd3476ab057909b0e2fc42,2020-11-26_15h58.12.768,lexical_decision_task_MP_exp2,2020.2.5,MacIntel,60,m,1,1.50349,,,,,,,,1.50349,1,,,,,,82,WORD,"ID",16,stigma,STIGMA,m,,,,,,-0.022792969,-0.390195313,0,0,0,,0,34,34,81,1,
,,,,,,,,,,,,,,,,,,5fbd3476ab057909b0e2fc42,2020-11-26_15h58.12.768,lexical_decision_task_MP_exp2,2020.2.5,MacIntel,60,m,1,0.698965,,,,,,,,0.698965,1,,,,,,140,WORD,UN,33,reason,PRINCE,m,,,,,,-0.022792969,-0.390195313,0,0,0,,0,35,35,139,1,
,,,,,,,,,,,,,,,,,,5fbd3476ab057909b0e2fc42,2020-11-26_15h58.12.768,lexical_decision_task_MP_exp2,2020.2.5,MacIntel,60,z,1,0.720435,,,,,,,,0.720435,1,,,,,,263,NW,"ID",33,dolica,DOLICA,z,,,,,,-0.022792969,-0.390195313,0,0,0,,0,36,36,262,1,
,,,,,,,,,,,,,,,,,,5fbd3476ab057909b0e2fc42,2020-11-26_15h58.12.768,lexical_decision_task_MP_exp2,2020.2.5,MacIntel,60,m,1,0.700775,,,,,,,,0.700775,1,,,,,,39,WORD,"ID",33,insect,INSECT,m,,,,,,-0.022792969,-0.390195313,0,0,0,,0,37,37,38,1,
,,,,,,,,,,,,,,,,,,5fbd3476ab057909b0e2fc42,2020-11-26_15h58.12.768,lexical_decision_task_MP_exp2,2020.2.5,MacIntel,60,z,1,0.73177,,,,,,,,0.73177,1,,,,,,468,NW,UN,16,padifs,WICTOR,z,,,,,,-0.022792969,-0.390195313,0,0,0,,0,38,38,467,1,
,,,,,,,,,,,,,,,,,,5fbd3476ab057909b0e2fc42,2020-11-26_15h58.12.768,lexical_decision_task_MP_exp2,2020.2.5,MacIntel,60,m,1,0.601665,,,,,,,,0.601665,1,,,,,,21,WORD,"ID",33,simple,SIMPLE,m,,,,,,-0.022792969,-0.390195313,0,0,0,,0,39,39,20,1,
,,,,,,,,,,,,,,,,,,5fbd3476ab057909b0e2fc42,2020-11-26_15h58.12.768,lexical_decision_task_MP_exp2,2020.2.5,MacIntel,60,z,1,0.70325,,,,,,,,0.70325,1,,,,,,470,NW,UN,16,nobest,CRUDIO,z,,,,,,-0.022792969,-0.390195313,0,0,0,,0,40,40,469,1,
,,,,,,,,,,,,,,,,,,5fbd3476ab057909b0e2fc42,2020-11-26_15h58.12.768,lexical_decision_task_MP_exp2,2020.2.5,MacIntel,60,z,1,0.667205,,,,,,,,0.667205,1,,,,,,415,NW,UN,33,pathel,HIGSTA,z,,,,,,-0.022792969,-0.390195313,0,0,0,,0,41,41,414,1,
,,,,,,,,,,,,,,,,,,5fbd3476ab057909b0e2fc42,2020-11-26_15h58.12.768,lexical_decision_task_MP_exp2,2020.2.5,MacIntel,60,z,1,0.551975,,,,,,,,0.551975,1,,,,,,362,NW,UN,33,breali,TIREAU,z,,,,,,-0.022792969,-0.390195313,0,0,0,,0,42,42,361,1,
,,,,,,,,,,,,,,,,,,5fbd3476ab057909b0e2fc42,2020-11-26_15h58.12.768,lexical_decision_task_MP_exp2,2020.2.5,MacIntel,60,z,1,0.756815,,,,,,,,0.756815,1,,,,,,265,NW,"ID",33,distar,DISTAR,z,,,,,,-0.022792969,-0.390195313,0,0,0,,0,43,43,264,1,
,,,,,,,,,,,,,,,,,,5fbd3476ab057909b0e2fc42,2020-11-26_15h58.12.768,lexical_decision_task_MP_exp2,2020.2.5,MacIntel,60,z,1,0.64818,,,,,,,,0.64818,1,,,,,,258,NW,"ID",33,poluth,POLUTH,z,,,,,,-0.022792969,-0.390195313,0,0,0,,0,44,44,257,1,
,,,,,,,,,,,,,,,,,,5fbd3476ab057909b0e2fc42,2020-11-26_15h58.12.768,lexical_decision_task_MP_exp2,2020.2.5,MacIntel,60,m,1,0.685305,,,,,,,,0.685305,1,,,,,,129,WORD,UN,33,stupid,MARVEL,m,,,,,,-0.022792969,-0.390195313,0,0,0,,0,45,45,128,1,
,,,,,,,,,,,,,,,,,,5fbd3476ab057909b0e2fc42,2020-11-26_15h58.12.768,lexical_decision_task_MP_exp2,2020.2.5,MacIntel,60,z,1,0.71642,,,,,,,,0.71642,1,,,,,,475,NW,UN,16,robuly,PEBRIC,z,,,,,,-0.022792969,-0.390195313,0,0,0,,0,46,46,474,1,
,,,,,,,,,,,,,,,,,,5fbd3476ab057909b0e2fc42,2020-11-26_15h58.12.768,lexical_decision_task_MP_exp2,2020.2.5,MacIntel,60,m,1,0.61654,,,,,,,,0.61654,1,,,,,,191,WORD,UN,16,absent,STABLE,m,,,,,,-0.022792969,-0.390195313,0,0,0,,0,47,47,190,1,
,,,,,,,,,,,,,,,,,,5fbd3476ab057909b0e2fc42,2020-11-26_15h58.12.768,lexical_decision_task_MP_exp2,2020.2.5,MacIntel,60,m,1,0.569685,,,,,,,,0.569685,1,,,,,,192,WORD,UN,16,object,PLAGUE,m,,,,,,-0.022792969,-0.390195313,0,0,0,,0,48,48,191,1,
,,,,,,,,,,,,,,,,,,5fbd3476ab057909b0e2fc42,2020-11-26_15h58.12.768,lexical_decision_task_MP_exp2,2020.2.5,MacIntel,60,m,1,0.46211,,,,,,,,0.46211,1,,,,,,51,WORD,"ID",33,hungry,HUNGRY,m,,,,,,-0.022792969,-0.390195313,0,0,0,,0,49,49,50,1,
,,,,,,,,,,,,,,,,,,5fbd3476ab057909b0e2fc42,2020-11-26_15h58.12.768,lexical_decision_task_MP_exp2,2020.2.5,MacIntel,60,m,1,0.58397,,,,,,,,0.58397,1,,,,,,81,WORD,"ID",16,friend,FRIEND,m,,,,,,-0.022792969,-0.390195313,0,0,0,,0,50,50,80,1,
,,,,,,,,,,,,,,,,,,5fbd3476ab057909b0e2fc42,2020-11-26_15h58.12.768,lexical_decision_task_MP_exp2,2020.2.5,MacIntel,60,m,1,0.71684,,,,,,,,0.71684,1,,,,,,120,WORD,"ID",16,strain,STRAIN,m,,,,,,-0.022792969,-0.390195313,0,0,0,,0,51,51,119,1,
,,,,,,,,,,,,,,,,,,5fbd3476ab057909b0e2fc42,2020-11-26_15h58.12.768,lexical_decision_task_MP_exp2,2020.2.5,MacIntel,60,z,1,0.676145,,,,,,,,0.676145,1,,,,,,458,NW,UN,16,chaite,BARCET,z,,,,,,-0.022792969,-0.390195313,0,0,0,,0,52,52,457,1,
,,,,,,,,,,,,,,,,,,5fbd3476ab057909b0e2fc42,2020-11-26_15h58.12.768,lexical_decision_task_MP_exp2,2020.2.5,MacIntel,60,z,1,0.671275,,,,,,,,0.671275,1,,,,,,400,NW,UN,33,mustil,WEAROX,z,,,,,,-0.022792969,-0.390195313,0,0,0,,0,53,53,399,1,
,,,,,,,,,,,,,,,,,,5fbd3476ab057909b0e2fc42,2020-11-26_15h58.12.768,lexical_decision_task_MP_exp2,2020.2.5,MacIntel,60,m,1,0.654265,,,,,,,,0.654265,1,,,,,,215,WORD,UN,16,behalf,PHOBIA,m,,,,,,-0.022792969,-0.390195313,0,0,0,,0,54,54,214,1,
,,,,,,,,,,,,,,,,,,5fbd3476ab057909b0e2fc42,2020-11-26_15h58.12.768,lexical_decision_task_MP_exp2,2020.2.5,MacIntel,60,z,1,0.767555,,,,,,,,0.767555,1,,,,,,369,NW,UN,33,sleact,WRONCH,z,,,,,,-0.022792969,-0.390195313,0,0,0,,0,55,55,368,1,
,,,,,,,,,,,,,,,,,,5fbd3476ab057909b0e2fc42,2020-11-26_15h58.12.768,lexical_decision_task_MP_exp2,2020.2.5,MacIntel,60,z,1,0.67209,,,,,,,,0.67209,1,,,,,,286,NW,"ID",33,reldon,RELDON,z,,,,,,-0.022792969,-0.390195313,0,0,0,,0,56,56,285,1,
,,,,,,,,,,,,,,,,,,5fbd3476ab057909b0e2fc42,2020-11-26_15h58.12.768,lexical_decision_task_MP_exp2,2020.2.5,MacIntel,60,m,1,0.667385,,,,,,,,0.667385,1,,,,,,109,WORD,"ID",16,wonder,WONDER,m,,,,,,-0.022792969,-0.390195313,0,0,0,,0,57,57,108,1,
,,,,,,,,,,,,,,,,,,5fbd3476ab057909b0e2fc42,2020-11-26_15h58.12.768,lexical_decision_task_MP_exp2,2020.2.5,MacIntel,60,z,1,0.84644,,,,,,,,0.84644,1,,,,,,306,NW,"ID",16,sounge,SOUNGE,z,,,,,,-0.022792969,-0.390195313,0,0,0,,0,58,58,305,1,
,,,,,,,,,,,,,,,,,,5fbd3476ab057909b0e2fc42,2020-11-26_15h58.12.768,lexical_decision_task_MP_exp2,2020.2.5,MacIntel,60,m,1,0.66731,,,,,,,,0.66731,1,,,,,,1,WORD,"ID",33,fright,FRIGHT,m,,,,,,-0.022792969,-0.390195313,0,0,0,,0,59,59,0,1,
,,,,,,,,,,,,,,,,,,5fbd3476ab057909b0e2fc42,2020-11-26_15h58.12.768,lexical_decision_task_MP_exp2,2020.2.5,MacIntel,60,z,0,0.553885,,,,,,,,0.553885,0,,,,,,180,WORD,UN,33,thrive,SILENT,m,,,,,,-0.022792969,-0.390195313,0,0,0,,0,60,60,179,1,
,,,,,,,,,,,,,,,,,,5fbd3476ab057909b0e2fc42,2020-11-26_15h58.12.768,lexical_decision_task_MP_exp2,2020.2.5,MacIntel,60,z,1,0.740745,,,,,,,,0.740745,1,,,,,,290,NW,"ID",33,splino,SPLINO,z,,,,,,-0.022792969,-0.390195313,0,0,0,,0,61,61,289,1,
,,,,,,,,,,,,,,,,,,5fbd3476ab057909b0e2fc42,2020-11-26_15h58.12.768,lexical_decision_task_MP_exp2,2020.2.5,MacIntel,60,z,1,1.119975,,,,,,,,1.119975,1,,,,,,416,NW,UN,33,earoud,PATHEL,z,,,,,,-0.022792969,-0.390195313,0,0,0,,0,62,62,415,1,
,,,,,,,,,,,,,,,,,,5fbd3476ab057909b0e2fc42,2020-11-26_15h58.12.768,lexical_decision_task_MP_exp2,2020.2.5,MacIntel,60,z,1,0.813545,,,,,,,,0.813545,1,,,,,,421,NW,UN,16,alcoud,KNISMA,z,,,,,,-0.022792969,-0.390195313,0,0,0,,0,63,63,420,1,
,,,,,,,,,,,,,,,,,,5fbd3476ab057909b0e2fc42,2020-11-26_15h58.12.768,lexical_decision_task_MP_exp2,2020.2.5,MacIntel,60,m,1,0.73468,,,,,,,,0.73468,1,,,,,,98,WORD,"ID",16,belong,BELONG,m,,,,,,-0.022792969,-0.390195313,0,0,0,,0,64,64,97,1,
,,,,,,,,,,,,,,,,,,5fbd3476ab057909b0e2fc42,2020-11-26_15h58.12.768,lexical_decision_task_MP_exp2,2020.2.5,MacIntel,60,m,1,0.83346,,,,,,,,0.83346,1,,,,,,224,WORD,UN,16,vulgar,PERIOD,m,,,,,,-0.022792969,-0.390195313,0,0,0,,0,65,65,223,1,
,,,,,,,,,,,,,,,,,,5fbd3476ab057909b0e2fc42,2020-11-26_15h58.12.768,lexical_decision_task_MP_exp2,2020.2.5,MacIntel,60,m,1,0.72077,,,,,,,,0.72077,1,,,,,,174,WORD,UN,33,fabric,TURKEY,m,,,,,,-0.022792969,-0.390195313,0,0,0,,0,66,66,173,1,
,,,,,,,,,,,,,,,,,,5fbd3476ab057909b0e2fc42,2020-11-26_15h58.12.768,lexical_decision_task_MP_exp2,2020.2.5,MacIntel,60,m,1,0.751325,,,,,,,,0.751325,1,,,,,,184,WORD,UN,16,bother,SLEAZY,m,,,,,,-0.022792969,-0.390195313,0,0,0,,0,67,67,183,1,
,,,,,,,,,,,,,,,,,,5fbd3476ab057909b0e2fc42,2020-11-26_15h58.12.768,lexical_decision_task_MP_exp2,2020.2.5,MacIntel,60,m,1,0.58566,,,,,,,,0.58566,1,,,,,,68,WORD,"ID",16,fumble,FUMBLE,m,,,,,,-0.022792969,-0.390195313,0,0,0,,0,68,68,67,1,
,,,,,,,,,,,,,,,,,,5fbd3476ab057909b0e2fc42,2020-11-26_15h58.12.768,lexical_decision_task_MP_exp2,2020.2.5,MacIntel,60,m,1,0.62888,,,,,,,,0.62888,1,,,,,,208,WORD,UN,16,search,HOCKEY,m,,,,,,-0.022792969,-0.390195313,0,0,0,,0,69,69,207,1,
,,,,,,,,,,,,,,,,,,5fbd3476ab057909b0e2fc42,2020-11-26_15h58.12.768,lexical_decision_task_MP_exp2,2020.2.5,MacIntel,60,m,1,0.619605,,,,,,,,0.619605,1,,,,,,99,WORD,"ID",16,fluent,FLUENT,m,,,,,,-0.022792969,-0.390195313,0,0,0,,0,70,70,98,1,
,,,,,,,,,,,,,,,,,,5fbd3476ab057909b0e2fc42,2020-11-26_15h58.12.768,lexical_decision_task_MP_exp2,2020.2.5,MacIntel,60,z,1,0.772495,,,,,,,,0.772495,1,,,,,,460,NW,UN,16,justre,MINGAR,z,,,,,,-0.022792969,-0.390195313,0,0,0,,0,71,71,459,1,
,,,,,,,,,,,,,,,,,,5fbd3476ab057909b0e2fc42,2020-11-26_15h58.12.768,lexical_decision_task_MP_exp2,2020.2.5,MacIntel,60,z,1,0.61775,,,,,,,,0.61775,1,,,,,,366,NW,UN,33,slique,TOSHEL,z,,,,,,-0.022792969,-0.390195313,0,0,0,,0,72,72,365,1,
,,,,,,,,,,,,,,,,,,5fbd3476ab057909b0e2fc42,2020-11-26_15h58.12.768,lexical_decision_task_MP_exp2,2020.2.5,MacIntel,60,z,1,0.717465,,,,,,,,0.717465,1,,,,,,472,NW,UN,16,crible,CIGNEY,z,,,,,,-0.022792969,-0.390195313,0,0,0,,0,73,73,471,1,
,,,,,,,,,,,,,,,,,,5fbd3476ab057909b0e2fc42,2020-11-26_15h58.12.768,lexical_decision_task_MP_exp2,2020.2.5,MacIntel,60,m,1,0.61998,,,,,,,,0.61998,1,,,,,,182,WORD,UN,16,basket,WINTER,m,,,,,,-0.022792969,-0.390195313,0,0,0,,0,74,74,181,1,
,,,,,,,,,,,,,,,,,,5fbd3476ab057909b0e2fc42,2020-11-26_15h58.12.768,lexical_decision_task_MP_exp2,2020.2.5,MacIntel,60,z,1,0.93426,,,,,,,,0.93426,1,,,,,,349,NW,"ID",16,asylen,ASYLEN,z,,,,,,-0.022792969,-0.390195313,0,0,0,,0,75,75,348,1,
,,,,,,,,,,,,,,,,,,5fbd3476ab057909b0e2fc42,2020-11-26_15h58.12.768,lexical_decision_task_MP_exp2,2020.2.5,MacIntel,60,z,1,1.152965,,,,,,,,1.152965,1,,,,,,308,NW,"ID",16,psetch,PSETCH,z,,,,,,-0.022792969,-0.390195313,0,0,0,,0,76,76,307,1,
,,,,,,,,,,,,,,,,,,5fbd3476ab057909b0e2fc42,2020-11-26_15h58.12.768,lexical_decision_task_MP_exp2,2020.2.5,MacIntel,60,z,1,0.883785,,,,,,,,0.883785,1,,,,,,376,NW,UN,33,sliant,IGUARE,z,,,,,,-0.022792969,-0.390195313,0,0,0,,0,77,77,375,1,
,,,,,,,,,,,,,,,,,,5fbd3476ab057909b0e2fc42,2020-11-26_15h58.12.768,lexical_decision_task_MP_exp2,2020.2.5,MacIntel,60,m,1,1.20149,,,,,,,,1.20149,1,,,,,,218,WORD,UN,16,bucket,SHRINK,m,,,,,,-0.022792969,-0.390195313,0,0,0,,0,78,78,217,1,
,,,,,,,,,,,,,,,,,,5fbd3476ab057909b0e2fc42,2020-11-26_15h58.12.768,lexical_decision_task_MP_exp2,2020.2.5,MacIntel,60,z,1,1.002675,,,,,,,,1.002675,1,,,,,,332,NW,"ID",16,vangue,VANGUE,z,,,,,,-0.022792969,-0.390195313,0,0,0,,0,79,79,331,1,
,,,,,,,,,,,,,,,,,,5fbd3476ab057909b0e2fc42,2020-11-26_15h58.12.768,lexical_decision_task_MP_exp2,2020.2.5,MacIntel,60,m,1,0.65198,,,,,,,,0.65198,1,,,,,,90,WORD,"ID",16,relish,RELISH,m,,,,,,-0.022792969,-0.390195313,0,0,0,,0,80,80,89,1,
,,,,,,,,,,,,,,,,,,5fbd3476ab057909b0e2fc42,2020-11-26_15h58.12.768,lexical_decision_task_MP_exp2,2020.2.5,MacIntel,60,m,1,0.584655,,,,,,,,0.584655,1,,,,,,144,WORD,UN,33,parish,SPONGE,m,,,,,,-0.022792969,-0.390195313,0,0,0,,0,81,81,143,1,
,,,,,,,,,,,,,,,,,,5fbd3476ab057909b0e2fc42,2020-11-26_15h58.12.768,lexical_decision_task_MP_exp2,2020.2.5,MacIntel,60,z,1,1.50885,,,,,,,,1.50885,1,,,,,,413,NW,UN,33,serbol,EQUATS,z,,,,,,-0.022792969,-0.390195313,0,0,0,,0,82,82,412,1,
,,,,,,,,,,,,,,,,,,5fbd3476ab057909b0e2fc42,2020-11-26_15h58.12.768,lexical_decision_task_MP_exp2,2020.2.5,MacIntel,60,m,1,1.07225,,,,,,,,1.07225,1,,,,,,177,WORD,UN,33,inform,ADVENT,m,,,,,,-0.022792969,-0.390195313,0,0,0,,0,83,83,176,1,
,,,,,,,,,,,,,,,,,,5fbd3476ab057909b0e2fc42,2020-11-26_15h58.12.768,lexical_decision_task_MP_exp2,2020.2.5,MacIntel,60,m,1,0.631125,,,,,,,,0.631125,1,,,,,,47,WORD,"ID",33,income,INCOME,m,,,,,,-0.022792969,-0.390195313,0,0,0,,0,84,84,46,1,
,,,,,,,,,,,,,,,,,,5fbd3476ab057909b0e2fc42,2020-11-26_15h58.12.768,lexical_decision_task_MP_exp2,2020.2.5,MacIntel,60,m,1,0.653765,,,,,,,,0.653765,1,,,,,,33,WORD,"ID",33,butler,BUTLER,m,,,,,,-0.022792969,-0.390195313,0,0,0,,0,85,85,32,1,
,,,,,,,,,,,,,,,,,,5fbd3476ab057909b0e2fc42,2020-11-26_15h58.12.768,lexical_decision_task_MP_exp2,2020.2.5,MacIntel,60,z,1,0.66766,,,,,,,,0.66766,1,,,,,,318,NW,"ID",16,reagly,REAGLY,z,,,,,,-0.022792969,-0.390195313,0,0,0,,0,86,86,317,1,
,,,,,,,,,,,,,,,,,,5fbd3476ab057909b0e2fc42,2020-11-26_15h58.12.768,lexical_decision_task_MP_exp2,2020.2.5,MacIntel,60,m,1,0.651015,,,,,,,,0.651015,1,,,,,,28,WORD,"ID",33,comedy,COMEDY,m,,,,,,-0.022792969,-0.390195313,0,0,0,,0,87,87,27,1,
,,,,,,,,,,,,,,,,,,5fbd3476ab057909b0e2fc42,2020-11-26_15h58.12.768,lexical_decision_task_MP_exp2,2020.2.5,MacIntel,60,m,1,0.563705,,,,,,,,0.563705,1,,,,,,113,WORD,"ID",16,chorus,CHORUS,m,,,,,,-0.022792969,-0.390195313,0,0,0,,0,88,88,112,1,
,,,,,,,,,,,,,,,,,,5fbd3476ab057909b0e2fc42,2020-11-26_15h58.12.768,lexical_decision_task_MP_exp2,2020.2.5,MacIntel,60,z,1,0.604795,,,,,,,,0.604795,1,,,,,,387,NW,UN,33,cragin,GRONCE,z,,,,,,-0.022792969,-0.390195313,0,0,0,,0,89,89,386,1,
,,,,,,,,,,,,,,,,,,5fbd3476ab057909b0e2fc42,2020-11-26_15h58.12.768,lexical_decision_task_MP_exp2,2020.2.5,MacIntel,60,m,1,0.5675,,,,,,,,0.5675,1,,,,,,136,WORD,UN,33,finger,BLEACH,m,,,,,,-0.022792969,-0.390195313,0,0,0,,0,90,90,135,1,
,,,,,,,,,,,,,,,,,,5fbd3476ab057909b0e2fc42,2020-11-26_15h58.12.768,lexical_decision_task_MP_exp2,2020.2.5,MacIntel,60,z,1,0.703835,,,,,,,,0.703835,1,,,,,,418,NW,UN,33,slount,SUIDLE,z,,,,,,-0.022792969,-0.390195313,0,0,0,,0,91,91,417,1,
,,,,,,,,,,,,,,,,,,5fbd3476ab057909b0e2fc42,2020-11-26_15h58.12.768,lexical_decision_task_MP_exp2,2020.2.5,MacIntel,60,z,1,0.60074,,,,,,,,0.60074,1,,,,,,309,NW,"ID",16,amiloy,AMILOY,z,,,,,,-0.022792969,-0.390195313,0,0,0,,0,92,92,308,1,
,,,,,,,,,,,,,,,,,,5fbd3476ab057909b0e2fc42,2020-11-26_15h58.12.768,lexical_decision_task_MP_exp2,2020.2.5,MacIntel,60,m,1,0.601135,,,,,,,,0.601135,1,,,,,,220,WORD,UN,16,mascot,VOYAGE,m,,,,,,-0.022792969,-0.390195313,0,0,0,,0,93,93,219,1,
,,,,,,,,,,,,,,,,,,5fbd3476ab057909b0e2fc42,2020-11-26_15h58.12.768,lexical_decision_task_MP_exp2,2020.2.5,MacIntel,60,z,1,0.76905,,,,,,,,0.76905,1,,,,,,473,NW,UN,16,hablin,CRIBLE,z,,,,,,-0.022792969,-0.390195313,0,0,0,,0,94,94,472,1,
,,,,,,,,,,,,,,,,,,5fbd3476ab057909b0e2fc42,2020-11-26_15h58.12.768,lexical_decision_task_MP_exp2,2020.2.5,MacIntel,60,z,1,0.674565,,,,,,,,0.674565,1,,,,,,476,NW,UN,16,photie,JOSTED,z,,,,,,-0.022792969,-0.390195313,0,0,0,,0,95,95,475,1,
,,,,,,,,,,,,,,,,,,5fbd3476ab057909b0e2fc42,2020-11-26_15h58.12.768,lexical_decision_task_MP_exp2,2020.2.5,MacIntel,60,m,1,0.56879,,,,,,,,0.56879,1,,,,,,18,WORD,"ID",33,humble,HUMBLE,m,,,,,,-0.022792969,-0.390195313,0,0,0,,0,96,96,17,1,
,,,,,,,,,,,,,,,,,,5fbd3476ab057909b0e2fc42,2020-11-26_15h58.12.768,lexical_decision_task_MP_exp2,2020.2.5,MacIntel,60,m,1,1.107555,,,,,,,,1.107555,1,,,,,,159,WORD,UN,33,violet,DETAIL,m,,,,,,-0.022792969,-0.390195313,0,0,0,,0,97,97,158,1,
,,,,,,,,,,,,,,,,,,5fbd3476ab057909b0e2fc42,2020-11-26_15h58.12.768,lexical_decision_task_MP_exp2,2020.2.5,MacIntel,60,z,1,0.80057,,,,,,,,0.80057,1,,,,,,302,NW,"ID",16,miluer,MILUER,z,,,,,,-0.022792969,-0.390195313,0,0,0,,0,98,98,301,1,
,,,,,,,,,,,,,,,,,,5fbd3476ab057909b0e2fc42,2020-11-26_15h58.12.768,lexical_decision_task_MP_exp2,2020.2.5,MacIntel,60,z,1,0.666645,,,,,,,,0.666645,1,,,,,,271,NW,"ID",33,aubrid,AUBRID,z,,,,,,-0.022792969,-0.390195313,0,0,0,,0,99,99,270,1,
,,,,,,,,,,,,,,,,,,5fbd3476ab057909b0e2fc42,2020-11-26_15h58.12.768,lexical_decision_task_MP_exp2,2020.2.5,MacIntel,60,z,1,0.912595,,,,,,,,0.912595,1,,,,,,255,NW,"ID",33,apight,APIGHT,z,,,,,,-0.022792969,-0.390195313,0,0,0,,0,100,100,254,1,
,,,,,,,,,,,,,,,,,,5fbd3476ab057909b0e2fc42,2020-11-26_15h58.12.768,lexical_decision_task_MP_exp2,2020.2.5,MacIntel,60,m,1,0.650755,,,,,,,,0.650755,1,,,,,,230,WORD,UN,16,export,FRINGE,m,,,,,,-0.022792969,-0.390195313,0,0,0,,0,101,101,229,1,
,,,,,,,,,,,,,,,,,,5fbd3476ab057909b0e2fc42,2020-11-26_15h58.12.768,lexical_decision_task_MP_exp2,2020.2.5,MacIntel,60,z,0,0.61877,,,,,,,,0.61877,0,,,,,,145,WORD,UN,33,couple,PARISH,m,,,,,,-0.022792969,-0.390195313,0,0,0,,0,102,102,144,1,
,,,,,,,,,,,,,,,,,,5fbd3476ab057909b0e2fc42,2020-11-26_15h58.12.768,lexical_decision_task_MP_exp2,2020.2.5,MacIntel,60,m,1,0.587395,,,,,,,,0.587395,1,,,,,,240,WORD,UN,16,glance,FOREST,m,,,,,,-0.022792969,-0.390195313,0,0,0,,0,103,103,239,1,
,,,,,,,,,,,,,,,,,,5fbd3476ab057909b0e2fc42,2020-11-26_15h58.12.768,lexical_decision_task_MP_exp2,2020.2.5,MacIntel,60,m,1,0.589605,,,,,,,,0.589605,1,,,,,,87,WORD,"ID",16,filter,FILTER,m,,,,,,-0.022792969,-0.390195313,0,0,0,,0,104,104,86,1,
,,,,,,,,,,,,,,,,,,5fbd3476ab057909b0e2fc42,2020-11-26_15h58.12.768,lexical_decision_task_MP_exp2,2020.2.5,MacIntel,60,z,1,0.61848,,,,,,,,0.61848,1,,,,,,337,NW,"ID",16,rejols,REJOLS,z,,,,,,-0.022792969,-0.390195313,0,0,0,,0,105,105,336,1,
,,,,,,,,,,,,,,,,,,5fbd3476ab057909b0e2fc42,2020-11-26_15h58.12.768,lexical_decision_task_MP_exp2,2020.2.5,MacIntel,60,m,1,0.552755,,,,,,,,0.552755,1,,,,,,23,WORD,"ID",33,wealth,WEALTH,m,,,,,,-0.022792969,-0.390195313,0,0,0,,0,106,106,22,1,
,,,,,,,,,,,,,,,,,,5fbd3476ab057909b0e2fc42,2020-11-26_15h58.12.768,lexical_decision_task_MP_exp2,2020.2.5,MacIntel,60,z,1,0.684765,,,,,,,,0.684765,1,,,,,,301,NW,"ID",16,fainch,FAINCH,z,,,,,,-0.022792969,-0.390195313,0,0,0,,0,107,107,300,1,
,,,,,,,,,,,,,,,,,,5fbd3476ab057909b0e2fc42,2020-11-26_15h58.12.768,lexical_decision_task_MP_exp2,2020.2.5,MacIntel,60,z,1,0.58611,,,,,,,,0.58611,1,,,,,,328,NW,"ID",16,broake,BROAKE,z,,,,,,-0.022792969,-0.390195313,0,0,0,,0,108,108,327,1,
,,,,,,,,,,,,,,,,,,5fbd3476ab057909b0e2fc42,2020-11-26_15h58.12.768,lexical_decision_task_MP_exp2,2020.2.5,MacIntel,60,m,1,0.619745,,,,,,,,0.619745,1,,,,,,155,WORD,UN,33,cradle,LIZARD,m,,,,,,-0.022792969,-0.390195313,0,0,0,,0,109,109,154,1,
,,,,,,,,,,,,,,,,,,5fbd3476ab057909b0e2fc42,2020-11-26_15h58.12.768,lexical_decision_task_MP_exp2,2020.2.5,MacIntel,60,z,1,0.516595,,,,,,,,0.516595,1,,,,,,359,NW,"ID",16,fonver,FONVER,z,,,,,,-0.022792969,-0.390195313,0,0,0,,0,110,110,358,1,
,,,,,,,,,,,,,,,,,,5fbd3476ab057909b0e2fc42,2020-11-26_15h58.12.768,lexical_decision_task_MP_exp2,2020.2.5,MacIntel,60,m,1,0.64087,,,,,,,,0.64087,1,,,,,,157,WORD,UN,33,island,DRAGON,m,,,,,,-0.022792969,-0.390195313,0,0,0,,0,111,111,156,1,
,,,,,,,,,,,,,,,,,,5fbd3476ab057909b0e2fc42,2020-11-26_15h58.12.768,lexical_decision_task_MP_exp2,2020.2.5,MacIntel,60,z,1,0.52018,,,,,,,,0.52018,1,,,,,,383,NW,UN,33,guesco,AUNGRE,z,,,,,,-0.022792969,-0.390195313,0,0,0,,0,112,112,382,1,
,,,,,,,,,,,,,,,,,,5fbd3476ab057909b0e2fc42,2020-11-26_15h58.12.768,lexical_decision_task_MP_exp2,2020.2.5,MacIntel,60,z,1,0.588265,,,,,,,,0.588265,1,,,,,,368,NW,UN,33,wronch,HORNAL,z,,,,,,-0.022792969,-0.390195313,0,0,0,,0,113,113,367,1,
,,,,,,,,,,,,,,,,,,5fbd3476ab057909b0e2fc42,2020-11-26_15h58.12.768,lexical_decision_task_MP_exp2,2020.2.5,MacIntel,60,m,1,0.567725,,,,,,,,0.567725,1,,,,,,188,WORD,UN,16,censor,SOCIAL,m,,,,,,-0.022792969,-0.390195313,0,0,0,,0,114,114,187,1,
,,,,,,,,,,,,,,,,,,5fbd3476ab057909b0e2fc42,2020-11-26_15h58.12.768,lexical_decision_task_MP_exp2,2020.2.5,MacIntel,60,m,1,0.704515,,,,,,,,0.704515,1,,,,,,123,WORD,UN,33,enough,STRIKE,m,,,,,,-0.022792969,-0.390195313,0,0,0,,0,115,115,122,1,
,,,,,,,,,,,,,,,,,,5fbd3476ab057909b0e2fc42,2020-11-26_15h58.12.768,lexical_decision_task_MP_exp2,2020.2.5,MacIntel,60,z,1,0.631065,,,,,,,,0.631065,1,,,,,,390,NW,UN,33,theldy,HATRUS,z,,,,,,-0.022792969,-0.390195313,0,0,0,,0,116,116,389,1,
,,,,,,,,,,,,,,,,,,5fbd3476ab057909b0e2fc42,2020-11-26_15h58.12.768,lexical_decision_task_MP_exp2,2020.2.5,MacIntel,60,m,1,0.935275,,,,,,,,0.935275,1,,,,,,179,WORD,UN,33,silent,BASKET,m,,,,,,-0.022792969,-0.390195313,0,0,0,,0,117,117,178,1,
,,,,,,,,,,,,,,,,,,5fbd3476ab057909b0e2fc42,2020-11-26_15h58.12.768,lexical_decision_task_MP_exp2,2020.2.5,MacIntel,60,z,1,0.64186,,,,,,,,0.64186,1,,,,,,345,NW,"ID",16,absend,ABSEND,z,,,,,,-0.022792969,-0.390195313,0,0,0,,0,118,118,344,1,
,,,,,,,,,,,,,,,,,,5fbd3476ab057909b0e2fc42,2020-11-26_15h58.12.768,lexical_decision_task_MP_exp2,2020.2.5,MacIntel,60,z,1,0.752295,,,,,,,,0.752295,1,,,,,,377,NW,UN,33,shrile,INJORE,z,,,,,,-0.022792969,-0.390195313,0,0,0,,0,119,119,376,1,
,,,,,,,,,,,,,,,,,,5fbd3476ab057909b0e2fc42,2020-11-26_15h58.12.768,lexical_decision_task_MP_exp2,2020.2.5,MacIntel,60,z,1,0.685115,,,,,,,,0.685115,1,,,,,,279,NW,"ID",33,celond,CELOND,z,,,,,,-0.022792969,-0.390195313,0,0,0,space,0,120,120,278,1,8.38757
,,,,,,,,,,,,,,,,,,5fbd3476ab057909b0e2fc42,2020-11-26_15h58.12.768,lexical_decision_task_MP_exp2,2020.2.5,MacIntel,60,m,1,0.5844,,,,,,,,0.5844,1,,,,,,178,WORD,UN,33,mildew,INFORM,m,,,,,,-0.022792969,-0.390195313,0,0,0,,0,121,121,177,1,
,,,,,,,,,,,,,,,,,,5fbd3476ab057909b0e2fc42,2020-11-26_15h58.12.768,lexical_decision_task_MP_exp2,2020.2.5,MacIntel,60,m,1,0.551725,,,,,,,,0.551725,1,,,,,,229,WORD,UN,16,fringe,MOTHER,m,,,,,,-0.022792969,-0.390195313,0,0,0,,0,122,122,228,1,
,,,,,,,,,,,,,,,,,,5fbd3476ab057909b0e2fc42,2020-11-26_15h58.12.768,lexical_decision_task_MP_exp2,2020.2.5,MacIntel,60,z,1,0.75065,,,,,,,,0.75065,1,,,,,,450,NW,UN,16,rastoe,PHRECT,z,,,,,,-0.022792969,-0.390195313,0,0,0,,0,123,123,449,1,
,,,,,,,,,,,,,,,,,,5fbd3476ab057909b0e2fc42,2020-11-26_15h58.12.768,lexical_decision_task_MP_exp2,2020.2.5,MacIntel,60,m,1,0.834215,,,,,,,,0.834215,1,,,,,,50,WORD,"ID",33,snatch,SNATCH,m,,,,,,-0.022792969,-0.390195313,0,0,0,,0,124,124,49,1,
,,,,,,,,,,,,,,,,,,5fbd3476ab057909b0e2fc42,2020-11-26_15h58.12.768,lexical_decision_task_MP_exp2,2020.2.5,MacIntel,60,m,1,0.56761,,,,,,,,0.56761,1,,,,,,217,WORD,UN,16,shrink,LIQUOR,m,,,,,,-0.022792969,-0.390195313,0,0,0,,0,125,125,216,1,
,,,,,,,,,,,,,,,,,,5fbd3476ab057909b0e2fc42,2020-11-26_15h58.12.768,lexical_decision_task_MP_exp2,2020.2.5,MacIntel,60,z,1,0.68425,,,,,,,,0.68425,1,,,,,,429,NW,UN,16,caroey,FUNTLE,z,,,,,,-0.022792969,-0.390195313,0,0,0,,0,126,126,428,1,
,,,,,,,,,,,,,,,,,,5fbd3476ab057909b0e2fc42,2020-11-26_15h58.12.768,lexical_decision_task_MP_exp2,2020.2.5,MacIntel,60,m,1,0.599455,,,,,,,,0.599455,1,,,,,,202,WORD,UN,16,phrase,FACTOR,m,,,,,,-0.022792969,-0.390195313,0,0,0,,0,127,127,201,1,
,,,,,,,,,,,,,,,,,,5fbd3476ab057909b0e2fc42,2020-11-26_15h58.12.768,lexical_decision_task_MP_exp2,2020.2.5,MacIntel,60,m,1,0.534195,,,,,,,,0.534195,1,,,,,,138,WORD,UN,33,staple,MELODY,m,,,,,,-0.022792969,-0.390195313,0,0,0,,0,128,128,137,1,
,,,,,,,,,,,,,,,,,,5fbd3476ab057909b0e2fc42,2020-11-26_15h58.12.768,lexical_decision_task_MP_exp2,2020.2.5,MacIntel,60,z,0,0.589705,,,,,,,,0.589705,0,,,,,,183,WORD,UN,16,sleazy,MILDEW,m,,,,,,-0.022792969,-0.390195313,0,0,0,,0,129,129,182,1,
,,,,,,,,,,,,,,,,,,5fbd3476ab057909b0e2fc42,2020-11-26_15h58.12.768,lexical_decision_task_MP_exp2,2020.2.5,MacIntel,60,m,1,0.68468,,,,,,,,0.68468,1,,,,,,171,WORD,UN,33,patrol,DEPART,m,,,,,,-0.022792969,-0.390195313,0,0,0,,0,130,130,170,1,
,,,,,,,,,,,,,,,,,,5fbd3476ab057909b0e2fc42,2020-11-26_15h58.12.768,lexical_decision_task_MP_exp2,2020.2.5,MacIntel,60,z,0,0.60081,,,,,,,,0.60081,0,,,,,,114,WORD,"ID",16,placid,PLACID,m,,,,,,-0.022792969,-0.390195313,0,0,0,,0,131,131,113,1,
,,,,,,,,,,,,,,,,,,5fbd3476ab057909b0e2fc42,2020-11-26_15h58.12.768,lexical_decision_task_MP_exp2,2020.2.5,MacIntel,60,m,1,0.7023,,,,,,,,0.7023,1,,,,,,128,WORD,UN,33,marvel,SENIOR,m,,,,,,-0.022792969,-0.390195313,0,0,0,,0,132,132,127,1,
,,,,,,,,,,,,,,,,,,5fbd3476ab057909b0e2fc42,2020-11-26_15h58.12.768,lexical_decision_task_MP_exp2,2020.2.5,MacIntel,60,m,1,0.52302,,,,,,,,0.52302,1,,,,,,132,WORD,UN,33,bleach,STRONG,m,,,,,,-0.022792969,-0.390195313,0,0,0,,0,133,133,131,1,
,,,,,,,,,,,,,,,,,,5fbd3476ab057909b0e2fc42,2020-11-26_15h58.12.768,lexical_decision_task_MP_exp2,2020.2.5,MacIntel,60,z,1,0.5838,,,,,,,,0.5838,1,,,,,,353,NW,"ID",16,clurey,CLUREY,z,,,,,,-0.022792969,-0.390195313,0,0,0,,0,134,134,352,1,
,,,,,,,,,,,,,,,,,,5fbd3476ab057909b0e2fc42,2020-11-26_15h58.12.768,lexical_decision_task_MP_exp2,2020.2.5,MacIntel,60,m,0,0.70085,,,,,,,,0.70085,0,,,,,,402,NW,UN,33,bruats,SYNTIC,z,,,,,,-0.022792969,-0.390195313,0,0,0,,0,135,135,401,1,
,,,,,,,,,,,,,,,,,,5fbd3476ab057909b0e2fc42,2020-11-26_15h58.12.768,lexical_decision_task_MP_exp2,2020.2.5,MacIntel,60,m,1,1.550685,,,,,,,,1.550685,1,,,,,,207,WORD,UN,16,hockey,WREATH,m,,,,,,-0.022792969,-0.390195313,0,0,0,,0,136,136,206,1,
,,,,,,,,,,,,,,,,,,5fbd3476ab057909b0e2fc42,2020-11-26_15h58.12.768,lexical_decision_task_MP_exp2,2020.2.5,MacIntel,60,m,1,0.61296,,,,,,,,0.61296,1,,,,,,201,WORD,UN,16,factor,ADMIRE,m,,,,,,-0.022792969,-0.390195313,0,0,0,,0,137,137,200,1,
,,,,,,,,,,,,,,,,,,5fbd3476ab057909b0e2fc42,2020-11-26_15h58.12.768,lexical_decision_task_MP_exp2,2020.2.5,MacIntel,60,z,0,0.569265,,,,,,,,0.569265,0,,,,,,161,WORD,UN,33,candle,PASTOR,m,,,,,,-0.022792969,-0.390195313,0,0,0,,0,138,138,160,1,
,,,,,,,,,,,,,,,,,,5fbd3476ab057909b0e2fc42,2020-11-26_15h58.12.768,lexical_decision_task_MP_exp2,2020.2.5,MacIntel,60,z,1,0.851345,,,,,,,,0.851345,1,,,,,,397,NW,UN,33,blunde,CAMBLE,z,,,,,,-0.022792969,-0.390195313,0,0,0,,0,139,139,396,1,
,,,,,,,,,,,,,,,,,,5fbd3476ab057909b0e2fc42,2020-11-26_15h58.12.768,lexical_decision_task_MP_exp2,2020.2.5,MacIntel,60,z,1,0.78715,,,,,,,,0.78715,1,,,,,,454,NW,UN,16,tondle,SCOUGE,z,,,,,,-0.022792969,-0.390195313,0,0,0,,0,140,140,453,1,
,,,,,,,,,,,,,,,,,,5fbd3476ab057909b0e2fc42,2020-11-26_15h58.12.768,lexical_decision_task_MP_exp2,2020.2.5,MacIntel,60,m,1,0.573315,,,,,,,,0.573315,1,,,,,,70,WORD,"ID",16,square,SQUARE,m,,,,,,-0.022792969,-0.390195313,0,0,0,,0,141,141,69,1,
,,,,,,,,,,,,,,,,,,5fbd3476ab057909b0e2fc42,2020-11-26_15h58.12.768,lexical_decision_task_MP_exp2,2020.2.5,MacIntel,60,z,0,0.78409,,,,,,,,0.78409,0,,,,,,111,WORD,"ID",16,induce,INDUCE,m,,,,,,-0.022792969,-0.390195313,0,0,0,,0,142,142,110,1,
,,,,,,,,,,,,,,,,,,5fbd3476ab057909b0e2fc42,2020-11-26_15h58.12.768,lexical_decision_task_MP_exp2,2020.2.5,MacIntel,60,z,1,0.857395,,,,,,,,0.857395,1,,,,,,247,NW,"ID",33,blarge,BLARGE,z,,,,,,-0.022792969,-0.390195313,0,0,0,,0,143,143,246,1,
,,,,,,,,,,,,,,,,,,5fbd3476ab057909b0e2fc42,2020-11-26_15h58.12.768,lexical_decision_task_MP_exp2,2020.2.5,MacIntel,60,m,1,0.656605,,,,,,,,0.656605,1,,,,,,115,WORD,"ID",16,guitar,GUITAR,m,,,,,,-0.022792969,-0.390195313,0,0,0,,0,144,144,114,1,
,,,,,,,,,,,,,,,,,,5fbd3476ab057909b0e2fc42,2020-11-26_15h58.12.768,lexical_decision_task_MP_exp2,2020.2.5,MacIntel,60,m,1,0.9008,,,,,,,,0.9008,1,,,,,,52,WORD,"ID",33,impose,IMPOSE,m,,,,,,-0.022792969,-0.390195313,0,0,0,,0,145,145,51,1,
,,,,,,,,,,,,,,,,,,5fbd3476ab057909b0e2fc42,2020-11-26_15h58.12.768,lexical_decision_task_MP_exp2,2020.2.5,MacIntel,60,m,1,0.93452,,,,,,,,0.93452,1,,,,,,77,WORD,"ID",16,racket,RACKET,m,,,,,,-0.022792969,-0.390195313,0,0,0,,0,146,146,76,1,
,,,,,,,,,,,,,,,,,,5fbd3476ab057909b0e2fc42,2020-11-26_15h58.12.768,lexical_decision_task_MP_exp2,2020.2.5,MacIntel,60,z,1,0.64955,,,,,,,,0.64955,1,,,,,,346,NW,"ID",16,saudic,SAUDIC,z,,,,,,-0.022792969,-0.390195313,0,0,0,,0,147,147,345,1,
,,,,,,,,,,,,,,,,,,5fbd3476ab057909b0e2fc42,2020-11-26_15h58.12.768,lexical_decision_task_MP_exp2,2020.2.5,MacIntel,60,z,1,0.65128,,,,,,,,0.65128,1,,,,,,282,NW,"ID",33,porlex,PORLEX,z,,,,,,-0.022792969,-0.390195313,0,0,0,,0,148,148,281,1,
,,,,,,,,,,,,,,,,,,5fbd3476ab057909b0e2fc42,2020-11-26_15h58.12.768,lexical_decision_task_MP_exp2,2020.2.5,MacIntel,60,z,1,1.101185,,,,,,,,1.101185,1,,,,,,313,NW,"ID",16,paurse,PAURSE,z,,,,,,-0.022792969,-0.390195313,0,0,0,,0,149,149,312,1,
,,,,,,,,,,,,,,,,,,5fbd3476ab057909b0e2fc42,2020-11-26_15h58.12.768,lexical_decision_task_MP_exp2,2020.2.5,MacIntel,60,z,1,0.884505,,,,,,,,0.884505,1,,,,,,448,NW,UN,16,brunge,SADENT,z,,,,,,-0.022792969,-0.390195313,0,0,0,,0,150,150,447,1,
,,,,,,,,,,,,,,,,,,5fbd3476ab057909b0e2fc42,2020-11-26_15h58.12.768,lexical_decision_task_MP_exp2,2020.2.5,MacIntel,60,m,1,0.61797,,,,,,,,0.61797,1,,,,,,71,WORD,"ID",16,garden,GARDEN,m,,,,,,-0.022792969,-0.390195313,0,0,0,,0,151,151,70,1,
,,,,,,,,,,,,,,,,,,5fbd3476ab057909b0e2fc42,2020-11-26_15h58.12.768,lexical_decision_task_MP_exp2,2020.2.5,MacIntel,60,m,1,0.651695,,,,,,,,0.651695,1,,,,,,37,WORD,"ID",33,insult,INSULT,m,,,,,,-0.022792969,-0.390195313,0,0,0,,0,152,152,36,1,
,,,,,,,,,,,,,,,,,,5fbd3476ab057909b0e2fc42,2020-11-26_15h58.12.768,lexical_decision_task_MP_exp2,2020.2.5,MacIntel,60,z,1,0.63348,,,,,,,,0.63348,1,,,,,,419,NW,UN,33,gushop,SLOUNT,z,,,,,,-0.022792969,-0.390195313,0,0,0,,0,153,153,418,1,
,,,,,,,,,,,,,,,,,,5fbd3476ab057909b0e2fc42,2020-11-26_15h58.12.768,lexical_decision_task_MP_exp2,2020.2.5,MacIntel,60,z,1,0.78416,,,,,,,,0.78416,1,,,,,,408,NW,UN,33,flumni,HURNIA,z,,,,,,-0.022792969,-0.390195313,0,0,0,,0,154,154,407,1,
,,,,,,,,,,,,,,,,,,5fbd3476ab057909b0e2fc42,2020-11-26_15h58.12.768,lexical_decision_task_MP_exp2,2020.2.5,MacIntel,60,m,1,0.86738,,,,,,,,0.86738,1,,,,,,195,WORD,UN,16,credit,RESIGN,m,,,,,,-0.022792969,-0.390195313,0,0,0,,0,155,155,194,1,
,,,,,,,,,,,,,,,,,,5fbd3476ab057909b0e2fc42,2020-11-26_15h58.12.768,lexical_decision_task_MP_exp2,2020.2.5,MacIntel,60,z,1,0.95133,,,,,,,,0.95133,1,,,,,,293,NW,"ID",33,swance,SWANCE,z,,,,,,-0.022792969,-0.390195313,0,0,0,,0,156,156,292,1,
,,,,,,,,,,,,,,,,,,5fbd3476ab057909b0e2fc42,2020-11-26_15h58.12.768,lexical_decision_task_MP_exp2,2020.2.5,MacIntel,60,m,1,0.734305,,,,,,,,0.734305,1,,,,,,234,WORD,UN,16,lumber,CLUMSY,m,,,,,,-0.022792969,-0.390195313,0,0,0,,0,157,157,233,1,
,,,,,,,,,,,,,,,,,,5fbd3476ab057909b0e2fc42,2020-11-26_15h58.12.768,lexical_decision_task_MP_exp2,2020.2.5,MacIntel,60,z,1,0.86776,,,,,,,,0.86776,1,,,,,,300,NW,"ID",33,yarion,YARION,z,,,,,,-0.022792969,-0.390195313,0,0,0,,0,158,158,299,1,
,,,,,,,,,,,,,,,,,,5fbd3476ab057909b0e2fc42,2020-11-26_15h58.12.768,lexical_decision_task_MP_exp2,2020.2.5,MacIntel,60,z,1,0.839415,,,,,,,,0.839415,1,,,,,,435,NW,UN,16,frutan,IMPURB,z,,,,,,-0.022792969,-0.390195313,0,0,0,,0,159,159,434,1,
,,,,,,,,,,,,,,,,,,5fbd3476ab057909b0e2fc42,2020-11-26_15h58.12.768,lexical_decision_task_MP_exp2,2020.2.5,MacIntel,60,m,1,0.551515,,,,,,,,0.551515,1,,,,,,9,WORD,"ID",33,hustle,HUSTLE,m,,,,,,-0.022792969,-0.390195313,0,0,0,,0,160,160,8,1,
,,,,,,,,,,,,,,,,,,5fbd3476ab057909b0e2fc42,2020-11-26_15h58.12.768,lexical_decision_task_MP_exp2,2020.2.5,MacIntel,60,z,1,0.650005,,,,,,,,0.650005,1,,,,,,401,NW,UN,33,elopia,MUSTIL,z,,,,,,-0.022792969,-0.390195313,0,0,0,,0,161,161,400,1,
,,,,,,,,,,,,,,,,,,5fbd3476ab057909b0e2fc42,2020-11-26_15h58.12.768,lexical_decision_task_MP_exp2,2020.2.5,MacIntel,60,z,1,0.56768,,,,,,,,0.56768,1,,,,,,430,NW,UN,16,funtle,CAROEY,z,,,,,,-0.022792969,-0.390195313,0,0,0,,0,162,162,429,1,
,,,,,,,,,,,,,,,,,,5fbd3476ab057909b0e2fc42,2020-11-26_15h58.12.768,lexical_decision_task_MP_exp2,2020.2.5,MacIntel,60,z,1,0.724455,,,,,,,,0.724455,1,,,,,,314,NW,"ID",16,sprine,SPRINE,z,,,,,,-0.022792969,-0.390195313,0,0,0,,0,163,163,313,1,
,,,,,,,,,,,,,,,,,,5fbd3476ab057909b0e2fc42,2020-11-26_15h58.12.768,lexical_decision_task_MP_exp2,2020.2.5,MacIntel,60,z,1,0.53406,,,,,,,,0.53406,1,,,,,,273,NW,"ID",33,sortel,SORTEL,z,,,,,,-0.022792969,-0.390195313,0,0,0,,0,164,164,272,1,
,,,,,,,,,,,,,,,,,,5fbd3476ab057909b0e2fc42,2020-11-26_15h58.12.768,lexical_decision_task_MP_exp2,2020.2.5,MacIntel,60,z,1,0.540795,,,,,,,,0.540795,1,,,,,,343,NW,"ID",16,aimosy,AIMOSY,z,,,,,,-0.022792969,-0.390195313,0,0,0,,0,165,165,342,1,
,,,,,,,,,,,,,,,,,,5fbd3476ab057909b0e2fc42,2020-11-26_15h58.12.768,lexical_decision_task_MP_exp2,2020.2.5,MacIntel,60,z,1,0.60094,,,,,,,,0.60094,1,,,,,,388,NW,UN,33,witmer,CRAGIN,z,,,,,,-0.022792969,-0.390195313,0,0,0,,0,166,166,387,1,
,,,,,,,,,,,,,,,,,,5fbd3476ab057909b0e2fc42,2020-11-26_15h58.12.768,lexical_decision_task_MP_exp2,2020.2.5,MacIntel,60,z,1,0.55307,,,,,,,,0.55307,1,,,,,,480,NW,UN,16,knisma,ROBULY,z,,,,,,-0.022792969,-0.390195313,0,0,0,,0,167,167,479,1,
,,,,,,,,,,,,,,,,,,5fbd3476ab057909b0e2fc42,2020-11-26_15h58.12.768,lexical_decision_task_MP_exp2,2020.2.5,MacIntel,60,m,1,0.573845,,,,,,,,0.573845,1,,,,,,76,WORD,"ID",16,exotic,EXOTIC,m,,,,,,-0.022792969,-0.390195313,0,0,0,,0,168,168,75,1,
,,,,,,,,,,,,,,,,,,5fbd3476ab057909b0e2fc42,2020-11-26_15h58.12.768,lexical_decision_task_MP_exp2,2020.2.5,MacIntel,60,m,1,0.583405,,,,,,,,0.583405,1,,,,,,20,WORD,"ID",33,breast,BREAST,m,,,,,,-0.022792969,-0.390195313,0,0,0,,0,169,169,19,1,
,,,,,,,,,,,,,,,,,,5fbd3476ab057909b0e2fc42,2020-11-26_15h58.12.768,lexical_decision_task_MP_exp2,2020.2.5,MacIntel,60,z,1,0.61903,,,,,,,,0.61903,1,,,,,,464,NW,UN,16,whivex,CHAITE,z,,,,,,-0.022792969,-0.390195313,0,0,0,,0,170,170,463,1,
,,,,,,,,,,,,,,,,,,5fbd3476ab057909b0e2fc42,2020-11-26_15h58.12.768,lexical_decision_task_MP_exp2,2020.2.5,MacIntel,60,m,1,0.58652,,,,,,,,0.58652,1,,,,,,165,WORD,UN,33,starch,INVEST,m,,,,,,-0.022792969,-0.390195313,0,0,0,,0,171,171,164,1,
,,,,,,,,,,,,,,,,,,5fbd3476ab057909b0e2fc42,2020-11-26_15h58.12.768,lexical_decision_task_MP_exp2,2020.2.5,MacIntel,60,m,0,0.77192,,,,,,,,0.77192,0,,,,,,352,NW,"ID",16,tringe,TRINGE,z,,,,,,-0.022792969,-0.390195313,0,0,0,,0,172,172,351,1,
,,,,,,,,,,,,,,,,,,5fbd3476ab057909b0e2fc42,2020-11-26_15h58.12.768,lexical_decision_task_MP_exp2,2020.2.5,MacIntel,60,m,1,0.5911,,,,,,,,0.5911,1,,,,,,196,WORD,UN,16,stream,CREDIT,m,,,,,,-0.022792969,-0.390195313,0,0,0,,0,173,173,195,1,
,,,,,,,,,,,,,,,,,,5fbd3476ab057909b0e2fc42,2020-11-26_15h58.12.768,lexical_decision_task_MP_exp2,2020.2.5,MacIntel,60,z,0,0.63211,,,,,,,,0.63211,0,,,,,,38,WORD,"ID",33,powder,POWDER,m,,,,,,-0.022792969,-0.390195313,0,0,0,,0,174,174,37,1,
,,,,,,,,,,,,,,,,,,5fbd3476ab057909b0e2fc42,2020-11-26_15h58.12.768,lexical_decision_task_MP_exp2,2020.2.5,MacIntel,60,m,1,0.735995,,,,,,,,0.735995,1,,,,,,72,WORD,"ID",16,bright,BRIGHT,m,,,,,,-0.022792969,-0.390195313,0,0,0,,0,175,175,71,1,
,,,,,,,,,,,,,,,,,,5fbd3476ab057909b0e2fc42,2020-11-26_15h58.12.768,lexical_decision_task_MP_exp2,2020.2.5,MacIntel,60,m,1,1.77212,,,,,,,,1.77212,1,,,,,,110,WORD,"ID",16,polite,POLITE,m,,,,,,-0.022792969,-0.390195313,0,0,0,,0,176,176,109,1,
,,,,,,,,,,,,,,,,,,5fbd3476ab057909b0e2fc42,2020-11-26_15h58.12.768,lexical_decision_task_MP_exp2,2020.2.5,MacIntel,60,m,1,0.607205,,,,,,,,0.607205,1,,,,,,206,WORD,UN,16,wreath,TAILOR,m,,,,,,-0.022792969,-0.390195313,0,0,0,,0,177,177,205,1,
,,,,,,,,,,,,,,,,,,5fbd3476ab057909b0e2fc42,2020-11-26_15h58.12.768,lexical_decision_task_MP_exp2,2020.2.5,MacIntel,60,m,1,0.60157,,,,,,,,0.60157,1,,,,,,11,WORD,"ID",33,cruise,CRUISE,m,,,,,,-0.022792969,-0.390195313,0,0,0,,0,178,178,10,1,
,,,,,,,,,,,,,,,,,,5fbd3476ab057909b0e2fc42,2020-11-26_15h58.12.768,lexical_decision_task_MP_exp2,2020.2.5,MacIntel,60,m,1,0.904685,,,,,,,,0.904685,1,,,,,,156,WORD,UN,33,pastor,CRADLE,m,,,,,,-0.022792969,-0.390195313,0,0,0,,0,179,179,155,1,
,,,,,,,,,,,,,,,,,,5fbd3476ab057909b0e2fc42,2020-11-26_15h58.12.768,lexical_decision_task_MP_exp2,2020.2.5,MacIntel,60,m,1,0.700965,,,,,,,,0.700965,1,,,,,,59,WORD,"ID",33,splint,SPLINT,m,,,,,,-0.022792969,-0.390195313,0,0,0,,0,180,180,58,1,
,,,,,,,,,,,,,,,,,,5fbd3476ab057909b0e2fc42,2020-11-26_15h58.12.768,lexical_decision_task_MP_exp2,2020.2.5,MacIntel,60,z,1,0.785555,,,,,,,,0.785555,1,,,,,,411,NW,UN,33,jiluer,ORCHIN,z,,,,,,-0.022792969,-0.390195313,0,0,0,,0,181,181,410,1,
,,,,,,,,,,,,,,,,,,5fbd3476ab057909b0e2fc42,2020-11-26_15h58.12.768,lexical_decision_task_MP_exp2,2020.2.5,MacIntel,60,m,1,0.771865,,,,,,,,0.771865,1,,,,,,97,WORD,"ID",16,client,CLIENT,m,,,,,,-0.022792969,-0.390195313,0,0,0,,0,182,182,96,1,
,,,,,,,,,,,,,,,,,,5fbd3476ab057909b0e2fc42,2020-11-26_15h58.12.768,lexical_decision_task_MP_exp2,2020.2.5,MacIntel,60,m,1,0.667965,,,,,,,,0.667965,1,,,,,,118,WORD,"ID",16,flight,FLIGHT,m,,,,,,-0.022792969,-0.390195313,0,0,0,,0,183,183,117,1,
,,,,,,,,,,,,,,,,,,5fbd3476ab057909b0e2fc42,2020-11-26_15h58.12.768,lexical_decision_task_MP_exp2,2020.2.5,MacIntel,60,m,1,0.54164,,,,,,,,0.54164,1,,,,,,95,WORD,"ID",16,thread,THREAD,m,,,,,,-0.022792969,-0.390195313,0,0,0,,0,184,184,94,1,
,,,,,,,,,,,,,,,,,,5fbd3476ab057909b0e2fc42,2020-11-26_15h58.12.768,lexical_decision_task_MP_exp2,2020.2.5,MacIntel,60,m,1,1.260055,,,,,,,,1.260055,1,,,,,,223,WORD,UN,16,period,KIDNEY,m,,,,,,-0.022792969,-0.390195313,0,0,0,,0,185,185,222,1,
,,,,,,,,,,,,,,,,,,5fbd3476ab057909b0e2fc42,2020-11-26_15h58.12.768,lexical_decision_task_MP_exp2,2020.2.5,MacIntel,60,z,1,0.6557,,,,,,,,0.6557,1,,,,,,410,NW,UN,33,orchin,TUNORY,z,,,,,,-0.022792969,-0.390195313,0,0,0,,0,186,186,409,1,
,,,,,,,,,,,,,,,,,,5fbd3476ab057909b0e2fc42,2020-11-26_15h58.12.768,lexical_decision_task_MP_exp2,2020.2.5,MacIntel,60,z,1,0.51901,,,,,,,,0.51901,1,,,,,,252,NW,"ID",33,stapod,STAPOD,z,,,,,,-0.022792969,-0.390195313,0,0,0,,0,187,187,251,1,
,,,,,,,,,,,,,,,,,,5fbd3476ab057909b0e2fc42,2020-11-26_15h58.12.768,lexical_decision_task_MP_exp2,2020.2.5,MacIntel,60,z,1,0.485,,,,,,,,0.485,1,,,,,,288,NW,"ID",33,yaceup,YACEUP,z,,,,,,-0.022792969,-0.390195313,0,0,0,,0,188,188,287,1,
,,,,,,,,,,,,,,,,,,5fbd3476ab057909b0e2fc42,2020-11-26_15h58.12.768,lexical_decision_task_MP_exp2,2020.2.5,MacIntel,60,m,0,0.649265,,,,,,,,0.649265,0,,,,,,303,NW,"ID",16,fiream,FIREAM,z,,,,,,-0.022792969,-0.390195313,0,0,0,,0,189,189,302,1,
,,,,,,,,,,,,,,,,,,5fbd3476ab057909b0e2fc42,2020-11-26_15h58.12.768,lexical_decision_task_MP_exp2,2020.2.5,MacIntel,60,m,1,1.032355,,,,,,,,1.032355,1,,,,,,130,WORD,UN,33,quench,STUPID,m,,,,,,-0.022792969,-0.390195313,0,0,0,,0,190,190,129,1,
,,,,,,,,,,,,,,,,,,5fbd3476ab057909b0e2fc42,2020-11-26_15h58.12.768,lexical_decision_task_MP_exp2,2020.2.5,MacIntel,60,m,1,0.73556,,,,,,,,0.73556,1,,,,,,49,WORD,"ID",33,survey,SURVEY,m,,,,,,-0.022792969,-0.390195313,0,0,0,,0,191,191,48,1,
,,,,,,,,,,,,,,,,,,5fbd3476ab057909b0e2fc42,2020-11-26_15h58.12.768,lexical_decision_task_MP_exp2,2020.2.5,MacIntel,60,m,1,0.92234,,,,,,,,0.92234,1,,,,,,124,WORD,UN,33,nickel,BLOUSE,m,,,,,,-0.022792969,-0.390195313,0,0,0,,0,192,192,123,1,
,,,,,,,,,,,,,,,,,,5fbd3476ab057909b0e2fc42,2020-11-26_15h58.12.768,lexical_decision_task_MP_exp2,2020.2.5,MacIntel,60,m,1,0.90136,,,,,,,,0.90136,1,,,,,,150,WORD,UN,33,mystic,RANDOM,m,,,,,,-0.022792969,-0.390195313,0,0,0,,0,193,193,149,1,
,,,,,,,,,,,,,,,,,,5fbd3476ab057909b0e2fc42,2020-11-26_15h58.12.768,lexical_decision_task_MP_exp2,2020.2.5,MacIntel,60,m,0,0.60106,,,,,,,,0.60106,0,,,,,,367,NW,UN,33,hornal,SLIQUE,z,,,,,,-0.022792969,-0.390195313,0,0,0,,0,194,194,366,1,
,,,,,,,,,,,,,,,,,,5fbd3476ab057909b0e2fc42,2020-11-26_15h58.12.768,lexical_decision_task_MP_exp2,2020.2.5,MacIntel,60,z,1,0.89855,,,,,,,,0.89855,1,,,,,,325,NW,"ID",16,thruse,THRUSE,z,,,,,,-0.022792969,-0.390195313,0,0,0,,0,195,195,324,1,
,,,,,,,,,,,,,,,,,,5fbd3476ab057909b0e2fc42,2020-11-26_15h58.12.768,lexical_decision_task_MP_exp2,2020.2.5,MacIntel,60,z,1,0.65026,,,,,,,,0.65026,1,,,,,,322,NW,"ID",16,slanch,SLANCH,z,,,,,,-0.022792969,-0.390195313,0,0,0,,0,196,196,321,1,
,,,,,,,,,,,,,,,,,,5fbd3476ab057909b0e2fc42,2020-11-26_15h58.12.768,lexical_decision_task_MP_exp2,2020.2.5,MacIntel,60,z,1,1.689515,,,,,,,,1.689515,1,,,,,,462,NW,UN,16,kispel,ABSULT,z,,,,,,-0.022792969,-0.390195313,0,0,0,,0,197,197,461,1,
,,,,,,,,,,,,,,,,,,5fbd3476ab057909b0e2fc42,2020-11-26_15h58.12.768,lexical_decision_task_MP_exp2,2020.2.5,MacIntel,60,m,1,0.55127,,,,,,,,0.55127,1,,,,,,44,WORD,"ID",33,danger,DANGER,m,,,,,,-0.022792969,-0.390195313,0,0,0,,0,198,198,43,1,
,,,,,,,,,,,,,,,,,,5fbd3476ab057909b0e2fc42,2020-11-26_15h58.12.768,lexical_decision_task_MP_exp2,2020.2.5,MacIntel,60,z,1,1.025095,,,,,,,,1.025095,1,,,,,,417,NW,UN,33,suidle,EAROUD,z,,,,,,-0.022792969,-0.390195313,0,0,0,,0,199,199,416,1,
,,,,,,,,,,,,,,,,,,5fbd3476ab057909b0e2fc42,2020-11-26_15h58.12.768,lexical_decision_task_MP_exp2,2020.2.5,MacIntel,60,m,1,0.801445,,,,,,,,0.801445,1,,,,,,167,WORD,UN,33,answer,DESIGN,m,,,,,,-0.022792969,-0.390195313,0,0,0,,0,200,200,166,1,
,,,,,,,,,,,,,,,,,,5fbd3476ab057909b0e2fc42,2020-11-26_15h58.12.768,lexical_decision_task_MP_exp2,2020.2.5,MacIntel,60,z,1,0.651785,,,,,,,,0.651785,1,,,,,,320,NW,"ID",16,jockal,JOCKAL,z,,,,,,-0.022792969,-0.390195313,0,0,0,,0,201,201,319,1,
,,,,,,,,,,,,,,,,,,5fbd3476ab057909b0e2fc42,2020-11-26_15h58.12.768,lexical_decision_task_MP_exp2,2020.2.5,MacIntel,60,z,1,0.634445,,,,,,,,0.634445,1,,,,,,457,NW,UN,16,barcet,WANIGH,z,,,,,,-0.022792969,-0.390195313,0,0,0,,0,202,202,456,1,
,,,,,,,,,,,,,,,,,,5fbd3476ab057909b0e2fc42,2020-11-26_15h58.12.768,lexical_decision_task_MP_exp2,2020.2.5,MacIntel,60,m,1,0.618255,,,,,,,,0.618255,1,,,,,,25,WORD,"ID",33,domain,DOMAIN,m,,,,,,-0.022792969,-0.390195313,0,0,0,,0,203,203,24,1,
,,,,,,,,,,,,,,,,,,5fbd3476ab057909b0e2fc42,2020-11-26_15h58.12.768,lexical_decision_task_MP_exp2,2020.2.5,MacIntel,60,z,1,0.586065,,,,,,,,0.586065,1,,,,,,278,NW,"ID",33,unighs,UNIGHS,z,,,,,,-0.022792969,-0.390195313,0,0,0,,0,204,204,277,1,
,,,,,,,,,,,,,,,,,,5fbd3476ab057909b0e2fc42,2020-11-26_15h58.12.768,lexical_decision_task_MP_exp2,2020.2.5,MacIntel,60,z,1,0.699645,,,,,,,,0.699645,1,,,,,,442,NW,UN,16,dorsex,ABOUNE,z,,,,,,-0.022792969,-0.390195313,0,0,0,,0,205,205,441,1,
,,,,,,,,,,,,,,,,,,5fbd3476ab057909b0e2fc42,2020-11-26_15h58.12.768,lexical_decision_task_MP_exp2,2020.2.5,MacIntel,60,z,1,0.73391,,,,,,,,0.73391,1,,,,,,438,NW,UN,16,limpor,BAITCH,z,,,,,,-0.022792969,-0.390195313,0,0,0,,0,206,206,437,1,
,,,,,,,,,,,,,,,,,,5fbd3476ab057909b0e2fc42,2020-11-26_15h58.12.768,lexical_decision_task_MP_exp2,2020.2.5,MacIntel,60,m,1,0.685185,,,,,,,,0.685185,1,,,,,,134,WORD,UN,33,import,STAPLE,m,,,,,,-0.022792969,-0.390195313,0,0,0,,0,207,207,133,1,
,,,,,,,,,,,,,,,,,,5fbd3476ab057909b0e2fc42,2020-11-26_15h58.12.768,lexical_decision_task_MP_exp2,2020.2.5,MacIntel,60,m,1,0.60093,,,,,,,,0.60093,1,,,,,,96,WORD,"ID",16,ignore,IGNORE,m,,,,,,-0.022792969,-0.390195313,0,0,0,,0,208,208,95,1,
,,,,,,,,,,,,,,,,,,5fbd3476ab057909b0e2fc42,2020-11-26_15h58.12.768,lexical_decision_task_MP_exp2,2020.2.5,MacIntel,60,m,0,0.66867,,,,,,,,0.66867,0,,,,,,319,NW,"ID",16,zomber,ZOMBER,z,,,,,,-0.022792969,-0.390195313,0,0,0,,0,209,209,318,1,
,,,,,,,,,,,,,,,,,,5fbd3476ab057909b0e2fc42,2020-11-26_15h58.12.768,lexical_decision_task_MP_exp2,2020.2.5,MacIntel,60,m,1,0.916795,,,,,,,,0.916795,1,,,,,,146,WORD,UN,33,garlic,COUPLE,m,,,,,,-0.022792969,-0.390195313,0,0,0,,0,210,210,145,1,
,,,,,,,,,,,,,,,,,,5fbd3476ab057909b0e2fc42,2020-11-26_15h58.12.768,lexical_decision_task_MP_exp2,2020.2.5,MacIntel,60,m,1,1.15072,,,,,,,,1.15072,1,,,,,,148,WORD,UN,33,invade,CUSTOM,m,,,,,,-0.022792969,-0.390195313,0,0,0,,0,211,211,147,1,
,,,,,,,,,,,,,,,,,,5fbd3476ab057909b0e2fc42,2020-11-26_15h58.12.768,lexical_decision_task_MP_exp2,2020.2.5,MacIntel,60,m,1,0.985735,,,,,,,,0.985735,1,,,,,,66,WORD,"ID",16,gospel,GOSPEL,m,,,,,,-0.022792969,-0.390195313,0,0,0,,0,212,212,65,1,
,,,,,,,,,,,,,,,,,,5fbd3476ab057909b0e2fc42,2020-11-26_15h58.12.768,lexical_decision_task_MP_exp2,2020.2.5,MacIntel,60,m,1,0.66738,,,,,,,,0.66738,1,,,,,,163,WORD,UN,33,market,STRING,m,,,,,,-0.022792969,-0.390195313,0,0,0,,0,213,213,162,1,
,,,,,,,,,,,,,,,,,,5fbd3476ab057909b0e2fc42,2020-11-26_15h58.12.768,lexical_decision_task_MP_exp2,2020.2.5,MacIntel,60,z,1,1.01895,,,,,,,,1.01895,1,,,,,,380,NW,UN,33,huniek,CAVORY,z,,,,,,-0.022792969,-0.390195313,0,0,0,,0,214,214,379,1,
,,,,,,,,,,,,,,,,,,5fbd3476ab057909b0e2fc42,2020-11-26_15h58.12.768,lexical_decision_task_MP_exp2,2020.2.5,MacIntel,60,m,1,0.749955,,,,,,,,0.749955,1,,,,,,219,WORD,UN,16,voyage,BUCKET,m,,,,,,-0.022792969,-0.390195313,0,0,0,,0,215,215,218,1,
,,,,,,,,,,,,,,,,,,5fbd3476ab057909b0e2fc42,2020-11-26_15h58.12.768,lexical_decision_task_MP_exp2,2020.2.5,MacIntel,60,z,1,1.021685,,,,,,,,1.021685,1,,,,,,425,NW,UN,16,schind,FRUDGE,z,,,,,,-0.022792969,-0.390195313,0,0,0,,0,216,216,424,1,
,,,,,,,,,,,,,,,,,,5fbd3476ab057909b0e2fc42,2020-11-26_15h58.12.768,lexical_decision_task_MP_exp2,2020.2.5,MacIntel,60,m,1,1.03869,,,,,,,,1.03869,1,,,,,,104,WORD,"ID",16,studio,STUDIO,m,,,,,,-0.022792969,-0.390195313,0,0,0,,0,217,217,103,1,
,,,,,,,,,,,,,,,,,,5fbd3476ab057909b0e2fc42,2020-11-26_15h58.12.768,lexical_decision_task_MP_exp2,2020.2.5,MacIntel,60,z,1,0.5907,,,,,,,,0.5907,1,,,,,,477,NW,UN,16,acrise,PHOTIE,z,,,,,,-0.022792969,-0.390195313,0,0,0,,0,218,218,476,1,
,,,,,,,,,,,,,,,,,,5fbd3476ab057909b0e2fc42,2020-11-26_15h58.12.768,lexical_decision_task_MP_exp2,2020.2.5,MacIntel,60,m,1,0.68815,,,,,,,,0.68815,1,,,,,,225,WORD,UN,16,kidney,VULGAR,m,,,,,,-0.022792969,-0.390195313,0,0,0,,0,219,219,224,1,
,,,,,,,,,,,,,,,,,,5fbd3476ab057909b0e2fc42,2020-11-26_15h58.12.768,lexical_decision_task_MP_exp2,2020.2.5,MacIntel,60,m,1,0.63502,,,,,,,,0.63502,1,,,,,,187,WORD,UN,16,social,COURSE,m,,,,,,-0.022792969,-0.390195313,0,0,0,,0,220,220,186,1,
,,,,,,,,,,,,,,,,,,5fbd3476ab057909b0e2fc42,2020-11-26_15h58.12.768,lexical_decision_task_MP_exp2,2020.2.5,MacIntel,60,z,1,0.711755,,,,,,,,0.711755,1,,,,,,281,NW,"ID",33,melaty,MELATY,z,,,,,,-0.022792969,-0.390195313,0,0,0,,0,221,221,280,1,
,,,,,,,,,,,,,,,,,,5fbd3476ab057909b0e2fc42,2020-11-26_15h58.12.768,lexical_decision_task_MP_exp2,2020.2.5,MacIntel,60,m,1,0.55474,,,,,,,,0.55474,1,,,,,,65,WORD,"ID",16,symbol,SYMBOL,m,,,,,,-0.022792969,-0.390195313,0,0,0,,0,222,222,64,1,
,,,,,,,,,,,,,,,,,,5fbd3476ab057909b0e2fc42,2020-11-26_15h58.12.768,lexical_decision_task_MP_exp2,2020.2.5,MacIntel,60,z,0,0.637495,,,,,,,,0.637495,0,,,,,,175,WORD,UN,33,strife,FABRIC,m,,,,,,-0.022792969,-0.390195313,0,0,0,,0,223,223,174,1,
,,,,,,,,,,,,,,,,,,5fbd3476ab057909b0e2fc42,2020-11-26_15h58.12.768,lexical_decision_task_MP_exp2,2020.2.5,MacIntel,60,z,1,0.702065,,,,,,,,0.702065,1,,,,,,440,NW,UN,16,cainky,SARIDE,z,,,,,,-0.022792969,-0.390195313,0,0,0,,0,224,224,439,1,
,,,,,,,,,,,,,,,,,,5fbd3476ab057909b0e2fc42,2020-11-26_15h58.12.768,lexical_decision_task_MP_exp2,2020.2.5,MacIntel,60,z,1,0.52311,,,,,,,,0.52311,1,,,,,,312,NW,"ID",16,nerawl,NERAWL,z,,,,,,-0.022792969,-0.390195313,0,0,0,,0,225,225,311,1,
,,,,,,,,,,,,,,,,,,5fbd3476ab057909b0e2fc42,2020-11-26_15h58.12.768,lexical_decision_task_MP_exp2,2020.2.5,MacIntel,60,m,1,0.601375,,,,,,,,0.601375,1,,,,,,153,WORD,UN,33,author,BEHOLD,m,,,,,,-0.022792969,-0.390195313,0,0,0,,0,226,226,152,1,
,,,,,,,,,,,,,,,,,,5fbd3476ab057909b0e2fc42,2020-11-26_15h58.12.768,lexical_decision_task_MP_exp2,2020.2.5,MacIntel,60,m,1,0.58526,,,,,,,,0.58526,1,,,,,,29,WORD,"ID",33,sketch,SKETCH,m,,,,,,-0.022792969,-0.390195313,0,0,0,,0,227,227,28,1,
,,,,,,,,,,,,,,,,,,5fbd3476ab057909b0e2fc42,2020-11-26_15h58.12.768,lexical_decision_task_MP_exp2,2020.2.5,MacIntel,60,z,1,0.76703,,,,,,,,0.76703,1,,,,,,342,NW,"ID",16,randow,RANDOW,z,,,,,,-0.022792969,-0.390195313,0,0,0,,0,228,228,341,1,
,,,,,,,,,,,,,,,,,,5fbd3476ab057909b0e2fc42,2020-11-26_15h58.12.768,lexical_decision_task_MP_exp2,2020.2.5,MacIntel,60,z,1,0.57408,,,,,,,,0.57408,1,,,,,,427,NW,UN,16,tandly,SCHIND,z,,,,,,-0.022792969,-0.390195313,0,0,0,,0,229,229,426,1,
,,,,,,,,,,,,,,,,,,5fbd3476ab057909b0e2fc42,2020-11-26_15h58.12.768,lexical_decision_task_MP_exp2,2020.2.5,MacIntel,60,z,1,0.56835,,,,,,,,0.56835,1,,,,,,467,NW,UN,16,wictor,GORBIE,z,,,,,,-0.022792969,-0.390195313,0,0,0,,0,230,230,466,1,
,,,,,,,,,,,,,,,,,,5fbd3476ab057909b0e2fc42,2020-11-26_15h58.12.768,lexical_decision_task_MP_exp2,2020.2.5,MacIntel,60,z,1,0.65115,,,,,,,,0.65115,1,,,,,,347,NW,"ID",16,kerift,KERIFT,z,,,,,,-0.022792969,-0.390195313,0,0,0,,0,231,231,346,1,
,,,,,,,,,,,,,,,,,,5fbd3476ab057909b0e2fc42,2020-11-26_15h58.12.768,lexical_decision_task_MP_exp2,2020.2.5,MacIntel,60,z,1,0.57125,,,,,,,,0.57125,1,,,,,,374,NW,UN,33,yorque,SLIANT,z,,,,,,-0.022792969,-0.390195313,0,0,0,,0,232,232,373,1,
,,,,,,,,,,,,,,,,,,5fbd3476ab057909b0e2fc42,2020-11-26_15h58.12.768,lexical_decision_task_MP_exp2,2020.2.5,MacIntel,60,z,1,0.61774,,,,,,,,0.61774,1,,,,,,243,NW,"ID",33,musied,MUSIED,z,,,,,,-0.022792969,-0.390195313,0,0,0,,0,233,233,242,1,
,,,,,,,,,,,,,,,,,,5fbd3476ab057909b0e2fc42,2020-11-26_15h58.12.768,lexical_decision_task_MP_exp2,2020.2.5,MacIntel,60,m,1,0.622035,,,,,,,,0.622035,1,,,,,,101,WORD,"ID",16,wrench,WRENCH,m,,,,,,-0.022792969,-0.390195313,0,0,0,,0,234,234,100,1,
,,,,,,,,,,,,,,,,,,5fbd3476ab057909b0e2fc42,2020-11-26_15h58.12.768,lexical_decision_task_MP_exp2,2020.2.5,MacIntel,60,z,1,0.735305,,,,,,,,0.735305,1,,,,,,305,NW,"ID",16,forgle,FORGLE,z,,,,,,-0.022792969,-0.390195313,0,0,0,,0,235,235,304,1,
,,,,,,,,,,,,,,,,,,5fbd3476ab057909b0e2fc42,2020-11-26_15h58.12.768,lexical_decision_task_MP_exp2,2020.2.5,MacIntel,60,z,1,0.83524,,,,,,,,0.83524,1,,,,,,466,NW,UN,16,pebric,HOCITE,z,,,,,,-0.022792969,-0.390195313,0,0,0,,0,236,236,465,1,
,,,,,,,,,,,,,,,,,,5fbd3476ab057909b0e2fc42,2020-11-26_15h58.12.768,lexical_decision_task_MP_exp2,2020.2.5,MacIntel,60,m,1,0.834235,,,,,,,,0.834235,1,,,,,,197,WORD,UN,16,wicked,STREAM,m,,,,,,-0.022792969,-0.390195313,0,0,0,,0,237,237,196,1,
,,,,,,,,,,,,,,,,,,5fbd3476ab057909b0e2fc42,2020-11-26_15h58.12.768,lexical_decision_task_MP_exp2,2020.2.5,MacIntel,60,m,1,0.80225,,,,,,,,0.80225,1,,,,,,125,WORD,UN,33,blouse,NICKEL,m,,,,,,-0.022792969,-0.390195313,0,0,0,,0,238,238,124,1,
,,,,,,,,,,,,,,,,,,5fbd3476ab057909b0e2fc42,2020-11-26_15h58.12.768,lexical_decision_task_MP_exp2,2020.2.5,MacIntel,60,m,1,0.763885,,,,,,,,0.763885,1,,,,,,139,WORD,UN,33,prince,DEBRIS,m,,,,,,-0.022792969,-0.390195313,0,0,0,,0,239,239,138,1,
,,,,,,,,,,,,,,,,,,5fbd3476ab057909b0e2fc42,2020-11-26_15h58.12.768,lexical_decision_task_MP_exp2,2020.2.5,MacIntel,60,z,1,0.77371,,,,,,,,0.77371,1,,,,,,434,NW,UN,16,impurb,PITROM,z,,,,,,-0.022792969,-0.390195313,0,0,0,,0,240,240,433,1,
,,,,,,,,,,,,,,,,,,5fbd3476ab057909b0e2fc42,2020-11-26_15h58.12.768,lexical_decision_task_MP_exp2,2020.2.5,MacIntel,60,m,1,0.70034,,,,,,,,0.70034,1,,,,,,232,WORD,UN,16,nature,INJECT,m,,,,,,-0.022792969,-0.390195313,0,0,0,space,0,241,241,231,1,3.339365
,,,,,,,,,,,,,,,,,,5fbd3476ab057909b0e2fc42,2020-11-26_15h58.12.768,lexical_decision_task_MP_exp2,2020.2.5,MacIntel,60,z,1,0.56785,,,,,,,,0.56785,1,,,,,,356,NW,"ID",16,othnis,OTHNIS,z,,,,,,-0.022792969,-0.390195313,0,0,0,,0,242,242,355,1,
,,,,,,,,,,,,,,,,,,5fbd3476ab057909b0e2fc42,2020-11-26_15h58.12.768,lexical_decision_task_MP_exp2,2020.2.5,MacIntel,60,z,1,0.535645,,,,,,,,0.535645,1,,,,,,341,NW,"ID",16,myrtie,MYRTIE,z,,,,,,-0.022792969,-0.390195313,0,0,0,,0,243,243,340,1,
,,,,,,,,,,,,,,,,,,5fbd3476ab057909b0e2fc42,2020-11-26_15h58.12.768,lexical_decision_task_MP_exp2,2020.2.5,MacIntel,60,m,1,0.60448,,,,,,,,0.60448,1,,,,,,164,WORD,UN,33,invest,MARKET,m,,,,,,-0.022792969,-0.390195313,0,0,0,,0,244,244,163,1,
,,,,,,,,,,,,,,,,,,5fbd3476ab057909b0e2fc42,2020-11-26_15h58.12.768,lexical_decision_task_MP_exp2,2020.2.5,MacIntel,60,m,1,1.189135,,,,,,,,1.189135,1,,,,,,45,WORD,"ID",33,clergy,CLERGY,m,,,,,,-0.022792969,-0.390195313,0,0,0,,0,245,245,44,1,
,,,,,,,,,,,,,,,,,,5fbd3476ab057909b0e2fc42,2020-11-26_15h58.12.768,lexical_decision_task_MP_exp2,2020.2.5,MacIntel,60,z,1,0.5511,,,,,,,,0.5511,1,,,,,,375,NW,UN,33,iguare,YORQUE,z,,,,,,-0.022792969,-0.390195313,0,0,0,,0,246,246,374,1,
,,,,,,,,,,,,,,,,,,5fbd3476ab057909b0e2fc42,2020-11-26_15h58.12.768,lexical_decision_task_MP_exp2,2020.2.5,MacIntel,60,m,0,0.63379,,,,,,,,0.63379,0,,,,,,373,NW,UN,33,injore,BIGENT,z,,,,,,-0.022792969,-0.390195313,0,0,0,,0,247,247,372,1,
,,,,,,,,,,,,,,,,,,5fbd3476ab057909b0e2fc42,2020-11-26_15h58.12.768,lexical_decision_task_MP_exp2,2020.2.5,MacIntel,60,z,1,0.68955,,,,,,,,0.68955,1,,,,,,446,NW,UN,16,gircue,RUNAMO,z,,,,,,-0.022792969,-0.390195313,0,0,0,,0,248,248,445,1,
,,,,,,,,,,,,,,,,,,5fbd3476ab057909b0e2fc42,2020-11-26_15h58.12.768,lexical_decision_task_MP_exp2,2020.2.5,MacIntel,60,m,1,0.720235,,,,,,,,0.720235,1,,,,,,186,WORD,UN,16,course,PORTAL,m,,,,,,-0.022792969,-0.390195313,0,0,0,,0,249,249,185,1,
,,,,,,,,,,,,,,,,,,5fbd3476ab057909b0e2fc42,2020-11-26_15h58.12.768,lexical_decision_task_MP_exp2,2020.2.5,MacIntel,60,z,1,0.65087,,,,,,,,0.65087,1,,,,,,299,NW,"ID",33,sturch,STURCH,z,,,,,,-0.022792969,-0.390195313,0,0,0,,0,250,250,298,1,
,,,,,,,,,,,,,,,,,,5fbd3476ab057909b0e2fc42,2020-11-26_15h58.12.768,lexical_decision_task_MP_exp2,2020.2.5,MacIntel,60,z,1,0.802985,,,,,,,,0.802985,1,,,,,,304,NW,"ID",16,cludie,CLUDIE,z,,,,,,-0.022792969,-0.390195313,0,0,0,,0,251,251,303,1,
,,,,,,,,,,,,,,,,,,5fbd3476ab057909b0e2fc42,2020-11-26_15h58.12.768,lexical_decision_task_MP_exp2,2020.2.5,MacIntel,60,z,1,0.567505,,,,,,,,0.567505,1,,,,,,327,NW,"ID",16,plenac,PLENAC,z,,,,,,-0.022792969,-0.390195313,0,0,0,,0,252,252,326,1,
,,,,,,,,,,,,,,,,,,5fbd3476ab057909b0e2fc42,2020-11-26_15h58.12.768,lexical_decision_task_MP_exp2,2020.2.5,MacIntel,60,m,1,0.68055,,,,,,,,0.68055,1,,,,,,189,WORD,UN,16,backup,CENSOR,m,,,,,,-0.022792969,-0.390195313,0,0,0,,0,253,253,188,1,
,,,,,,,,,,,,,,,,,,5fbd3476ab057909b0e2fc42,2020-11-26_15h58.12.768,lexical_decision_task_MP_exp2,2020.2.5,MacIntel,60,z,1,0.700495,,,,,,,,0.700495,1,,,,,,261,NW,"ID",33,stunch,STUNCH,z,,,,,,-0.022792969,-0.390195313,0,0,0,,0,254,254,260,1,
,,,,,,,,,,,,,,,,,,5fbd3476ab057909b0e2fc42,2020-11-26_15h58.12.768,lexical_decision_task_MP_exp2,2020.2.5,MacIntel,60,z,1,0.74638,,,,,,,,0.74638,1,,,,,,471,NW,UN,16,cigney,NOBEST,z,,,,,,-0.022792969,-0.390195313,0,0,0,,0,255,255,470,1,
,,,,,,,,,,,,,,,,,,5fbd3476ab057909b0e2fc42,2020-11-26_15h58.12.768,lexical_decision_task_MP_exp2,2020.2.5,MacIntel,60,z,1,0.667635,,,,,,,,0.667635,1,,,,,,276,NW,"ID",33,yarmon,YARMON,z,,,,,,-0.022792969,-0.390195313,0,0,0,,0,256,256,275,1,
,,,,,,,,,,,,,,,,,,5fbd3476ab057909b0e2fc42,2020-11-26_15h58.12.768,lexical_decision_task_MP_exp2,2020.2.5,MacIntel,60,z,0,0.70053,,,,,,,,0.70053,0,,,,,,16,WORD,"ID",33,faucet,FAUCET,m,,,,,,-0.022792969,-0.390195313,0,0,0,,0,257,257,15,1,
,,,,,,,,,,,,,,,,,,5fbd3476ab057909b0e2fc42,2020-11-26_15h58.12.768,lexical_decision_task_MP_exp2,2020.2.5,MacIntel,60,m,1,0.983845,,,,,,,,0.983845,1,,,,,,107,WORD,"ID",16,slogan,SLOGAN,m,,,,,,-0.022792969,-0.390195313,0,0,0,,0,258,258,106,1,
,,,,,,,,,,,,,,,,,,5fbd3476ab057909b0e2fc42,2020-11-26_15h58.12.768,lexical_decision_task_MP_exp2,2020.2.5,MacIntel,60,m,1,0.801015,,,,,,,,0.801015,1,,,,,,122,WORD,UN,33,strike,LINGER,m,,,,,,-0.022792969,-0.390195313,0,0,0,,0,259,259,121,1,
,,,,,,,,,,,,,,,,,,5fbd3476ab057909b0e2fc42,2020-11-26_15h58.12.768,lexical_decision_task_MP_exp2,2020.2.5,MacIntel,60,m,1,0.61808,,,,,,,,0.61808,1,,,,,,147,WORD,UN,33,custom,GARLIC,m,,,,,,-0.022792969,-0.390195313,0,0,0,,0,260,260,146,1,
,,,,,,,,,,,,,,,,,,5fbd3476ab057909b0e2fc42,2020-11-26_15h58.12.768,lexical_decision_task_MP_exp2,2020.2.5,MacIntel,60,z,1,0.6186,,,,,,,,0.6186,1,,,,,,267,NW,"ID",33,pasink,PASINK,z,,,,,,-0.022792969,-0.390195313,0,0,0,,0,261,261,266,1,
,,,,,,,,,,,,,,,,,,5fbd3476ab057909b0e2fc42,2020-11-26_15h58.12.768,lexical_decision_task_MP_exp2,2020.2.5,MacIntel,60,m,1,0.58407,,,,,,,,0.58407,1,,,,,,83,WORD,"ID",16,result,RESULT,m,,,,,,-0.022792969,-0.390195313,0,0,0,,0,262,262,82,1,
,,,,,,,,,,,,,,,,,,5fbd3476ab057909b0e2fc42,2020-11-26_15h58.12.768,lexical_decision_task_MP_exp2,2020.2.5,MacIntel,60,m,0,0.620555,,,,,,,,0.620555,0,,,,,,398,NW,UN,33,fouret,BLUNDE,z,,,,,,-0.022792969,-0.390195313,0,0,0,,0,263,263,397,1,
,,,,,,,,,,,,,,,,,,5fbd3476ab057909b0e2fc42,2020-11-26_15h58.12.768,lexical_decision_task_MP_exp2,2020.2.5,MacIntel,60,z,1,0.68525,,,,,,,,0.68525,1,,,,,,307,NW,"ID",16,kirafe,KIRAFE,z,,,,,,-0.022792969,-0.390195313,0,0,0,,0,264,264,306,1,
,,,,,,,,,,,,,,,,,,5fbd3476ab057909b0e2fc42,2020-11-26_15h58.12.768,lexical_decision_task_MP_exp2,2020.2.5,MacIntel,60,z,1,0.733515,,,,,,,,0.733515,1,,,,,,456,NW,UN,16,wanigh,BROGET,z,,,,,,-0.022792969,-0.390195313,0,0,0,,0,265,265,455,1,
,,,,,,,,,,,,,,,,,,5fbd3476ab057909b0e2fc42,2020-11-26_15h58.12.768,lexical_decision_task_MP_exp2,2020.2.5,MacIntel,60,m,1,0.63459,,,,,,,,0.63459,1,,,,,,93,WORD,"ID",16,public,PUBLIC,m,,,,,,-0.022792969,-0.390195313,0,0,0,,0,266,266,92,1,
,,,,,,,,,,,,,,,,,,5fbd3476ab057909b0e2fc42,2020-11-26_15h58.12.768,lexical_decision_task_MP_exp2,2020.2.5,MacIntel,60,z,1,0.850565,,,,,,,,0.850565,1,,,,,,407,NW,UN,33,hurnia,SUIVER,z,,,,,,-0.022792969,-0.390195313,0,0,0,,0,267,267,406,1,
,,,,,,,,,,,,,,,,,,5fbd3476ab057909b0e2fc42,2020-11-26_15h58.12.768,lexical_decision_task_MP_exp2,2020.2.5,MacIntel,60,m,1,0.757465,,,,,,,,0.757465,1,,,,,,40,WORD,"ID",33,convey,CONVEY,m,,,,,,-0.022792969,-0.390195313,0,0,0,,0,268,268,39,1,
,,,,,,,,,,,,,,,,,,5fbd3476ab057909b0e2fc42,2020-11-26_15h58.12.768,lexical_decision_task_MP_exp2,2020.2.5,MacIntel,60,m,1,0.639595,,,,,,,,0.639595,1,,,,,,14,WORD,"ID",33,almost,ALMOST,m,,,,,,-0.022792969,-0.390195313,0,0,0,,0,269,269,13,1,
,,,,,,,,,,,,,,,,,,5fbd3476ab057909b0e2fc42,2020-11-26_15h58.12.768,lexical_decision_task_MP_exp2,2020.2.5,MacIntel,60,m,1,0.568515,,,,,,,,0.568515,1,,,,,,135,WORD,UN,33,chrome,IMPORT,m,,,,,,-0.022792969,-0.390195313,0,0,0,,0,270,270,134,1,
,,,,,,,,,,,,,,,,,,5fbd3476ab057909b0e2fc42,2020-11-26_15h58.12.768,lexical_decision_task_MP_exp2,2020.2.5,MacIntel,60,z,1,0.734435,,,,,,,,0.734435,1,,,,,,455,NW,UN,16,broget,TONDLE,z,,,,,,-0.022792969,-0.390195313,0,0,0,,0,271,271,454,1,
,,,,,,,,,,,,,,,,,,5fbd3476ab057909b0e2fc42,2020-11-26_15h58.12.768,lexical_decision_task_MP_exp2,2020.2.5,MacIntel,60,z,1,0.60713,,,,,,,,0.60713,1,,,,,,426,NW,UN,16,frudge,URIVEL,z,,,,,,-0.022792969,-0.390195313,0,0,0,,0,272,272,425,1,
,,,,,,,,,,,,,,,,,,5fbd3476ab057909b0e2fc42,2020-11-26_15h58.12.768,lexical_decision_task_MP_exp2,2020.2.5,MacIntel,60,z,1,0.735765,,,,,,,,0.735765,1,,,,,,244,NW,"ID",33,eatric,EATRIC,z,,,,,,-0.022792969,-0.390195313,0,0,0,,0,273,273,243,1,
,,,,,,,,,,,,,,,,,,5fbd3476ab057909b0e2fc42,2020-11-26_15h58.12.768,lexical_decision_task_MP_exp2,2020.2.5,MacIntel,60,m,1,0.635325,,,,,,,,0.635325,1,,,,,,12,WORD,"ID",33,orange,ORANGE,m,,,,,,-0.022792969,-0.390195313,0,0,0,,0,274,274,11,1,
,,,,,,,,,,,,,,,,,,5fbd3476ab057909b0e2fc42,2020-11-26_15h58.12.768,lexical_decision_task_MP_exp2,2020.2.5,MacIntel,60,m,1,0.61269,,,,,,,,0.61269,1,,,,,,127,WORD,UN,33,senior,CASTLE,m,,,,,,-0.022792969,-0.390195313,0,0,0,,0,275,275,126,1,
,,,,,,,,,,,,,,,,,,5fbd3476ab057909b0e2fc42,2020-11-26_15h58.12.768,lexical_decision_task_MP_exp2,2020.2.5,MacIntel,60,z,1,0.59708,,,,,,,,0.59708,1,,,,,,382,NW,UN,33,aungre,SARLEY,z,,,,,,-0.022792969,-0.390195313,0,0,0,,0,276,276,381,1,
,,,,,,,,,,,,,,,,,,5fbd3476ab057909b0e2fc42,2020-11-26_15h58.12.768,lexical_decision_task_MP_exp2,2020.2.5,MacIntel,60,z,1,0.883925,,,,,,,,0.883925,1,,,,,,396,NW,UN,33,camble,FLENGY,z,,,,,,-0.022792969,-0.390195313,0,0,0,,0,277,277,395,1,
,,,,,,,,,,,,,,,,,,5fbd3476ab057909b0e2fc42,2020-11-26_15h58.12.768,lexical_decision_task_MP_exp2,2020.2.5,MacIntel,60,z,1,0.6346,,,,,,,,0.6346,1,,,,,,344,NW,"ID",16,scrily,SCRILY,z,,,,,,-0.022792969,-0.390195313,0,0,0,,0,278,278,343,1,
,,,,,,,,,,,,,,,,,,5fbd3476ab057909b0e2fc42,2020-11-26_15h58.12.768,lexical_decision_task_MP_exp2,2020.2.5,MacIntel,60,z,1,0.73845,,,,,,,,0.73845,1,,,,,,274,NW,"ID",33,fumblo,FUMBLO,z,,,,,,-0.022792969,-0.390195313,0,0,0,,0,279,279,273,1,
,,,,,,,,,,,,,,,,,,5fbd3476ab057909b0e2fc42,2020-11-26_15h58.12.768,lexical_decision_task_MP_exp2,2020.2.5,MacIntel,60,m,1,0.67933,,,,,,,,0.67933,1,,,,,,13,WORD,"ID",33,strive,STRIVE,m,,,,,,-0.022792969,-0.390195313,0,0,0,,0,280,280,12,1,
,,,,,,,,,,,,,,,,,,5fbd3476ab057909b0e2fc42,2020-11-26_15h58.12.768,lexical_decision_task_MP_exp2,2020.2.5,MacIntel,60,z,1,0.619215,,,,,,,,0.619215,1,,,,,,242,NW,"ID",33,unwert,UNWERT,z,,,,,,-0.022792969,-0.390195313,0,0,0,,0,281,281,241,1,
,,,,,,,,,,,,,,,,,,5fbd3476ab057909b0e2fc42,2020-11-26_15h58.12.768,lexical_decision_task_MP_exp2,2020.2.5,MacIntel,60,z,1,0.78739,,,,,,,,0.78739,1,,,,,,459,NW,UN,16,mingar,BAFENT,z,,,,,,-0.022792969,-0.390195313,0,0,0,,0,282,282,458,1,
,,,,,,,,,,,,,,,,,,5fbd3476ab057909b0e2fc42,2020-11-26_15h58.12.768,lexical_decision_task_MP_exp2,2020.2.5,MacIntel,60,m,1,0.66769,,,,,,,,0.66769,1,,,,,,142,WORD,UN,33,orphan,SPRUCE,m,,,,,,-0.022792969,-0.390195313,0,0,0,,0,283,283,141,1,
,,,,,,,,,,,,,,,,,,5fbd3476ab057909b0e2fc42,2020-11-26_15h58.12.768,lexical_decision_task_MP_exp2,2020.2.5,MacIntel,60,m,1,0.572125,,,,,,,,0.572125,1,,,,,,36,WORD,"ID",33,vanish,VANISH,m,,,,,,-0.022792969,-0.390195313,0,0,0,,0,284,284,35,1,
,,,,,,,,,,,,,,,,,,5fbd3476ab057909b0e2fc42,2020-11-26_15h58.12.768,lexical_decision_task_MP_exp2,2020.2.5,MacIntel,60,z,1,0.679515,,,,,,,,0.679515,1,,,,,,266,NW,"ID",33,varmit,VARMIT,z,,,,,,-0.022792969,-0.390195313,0,0,0,,0,285,285,265,1,
,,,,,,,,,,,,,,,,,,5fbd3476ab057909b0e2fc42,2020-11-26_15h58.12.768,lexical_decision_task_MP_exp2,2020.2.5,MacIntel,60,m,1,0.51609,,,,,,,,0.51609,1,,,,,,209,WORD,UN,16,monkey,SEARCH,m,,,,,,-0.022792969,-0.390195313,0,0,0,,0,286,286,208,1,
,,,,,,,,,,,,,,,,,,5fbd3476ab057909b0e2fc42,2020-11-26_15h58.12.768,lexical_decision_task_MP_exp2,2020.2.5,MacIntel,60,m,1,0.736105,,,,,,,,0.736105,1,,,,,,204,WORD,UN,16,lounge,BURDEN,m,,,,,,-0.022792969,-0.390195313,0,0,0,,0,287,287,203,1,
,,,,,,,,,,,,,,,,,,5fbd3476ab057909b0e2fc42,2020-11-26_15h58.12.768,lexical_decision_task_MP_exp2,2020.2.5,MacIntel,60,m,1,0.663035,,,,,,,,0.663035,1,,,,,,86,WORD,"ID",16,rodent,RODENT,m,,,,,,-0.022792969,-0.390195313,0,0,0,,0,288,288,85,1,
,,,,,,,,,,,,,,,,,,5fbd3476ab057909b0e2fc42,2020-11-26_15h58.12.768,lexical_decision_task_MP_exp2,2020.2.5,MacIntel,60,z,1,0.691185,,,,,,,,0.691185,1,,,,,,443,NW,UN,16,jaunce,DORSEX,z,,,,,,-0.022792969,-0.390195313,0,0,0,,0,289,289,442,1,
,,,,,,,,,,,,,,,,,,5fbd3476ab057909b0e2fc42,2020-11-26_15h58.12.768,lexical_decision_task_MP_exp2,2020.2.5,MacIntel,60,m,1,0.55306,,,,,,,,0.55306,1,,,,,,119,WORD,"ID",16,spider,SPIDER,m,,,,,,-0.022792969,-0.390195313,0,0,0,,0,290,290,118,1,
,,,,,,,,,,,,,,,,,,5fbd3476ab057909b0e2fc42,2020-11-26_15h58.12.768,lexical_decision_task_MP_exp2,2020.2.5,MacIntel,60,z,1,0.868135,,,,,,,,0.868135,1,,,,,,409,NW,UN,33,tunory,ELOPIA,z,,,,,,-0.022792969,-0.390195313,0,0,0,,0,291,291,408,1,
,,,,,,,,,,,,,,,,,,5fbd3476ab057909b0e2fc42,2020-11-26_15h58.12.768,lexical_decision_task_MP_exp2,2020.2.5,MacIntel,60,z,1,0.66091,,,,,,,,0.66091,1,,,,,,249,NW,"ID",33,batrol,BATROL,z,,,,,,-0.022792969,-0.390195313,0,0,0,,0,292,292,248,1,
,,,,,,,,,,,,,,,,,,5fbd3476ab057909b0e2fc42,2020-11-26_15h58.12.768,lexical_decision_task_MP_exp2,2020.2.5,MacIntel,60,z,0,0.8654,,,,,,,,0.8654,0,,,,,,46,WORD,"ID",33,single,SINGLE,m,,,,,,-0.022792969,-0.390195313,0,0,0,,0,293,293,45,1,
,,,,,,,,,,,,,,,,,,5fbd3476ab057909b0e2fc42,2020-11-26_15h58.12.768,lexical_decision_task_MP_exp2,2020.2.5,MacIntel,60,z,1,0.85398,,,,,,,,0.85398,1,,,,,,251,NW,"ID",33,lupict,LUPICT,z,,,,,,-0.022792969,-0.390195313,0,0,0,,0,294,294,250,1,
,,,,,,,,,,,,,,,,,,5fbd3476ab057909b0e2fc42,2020-11-26_15h58.12.768,lexical_decision_task_MP_exp2,2020.2.5,MacIntel,60,m,1,0.75095,,,,,,,,0.75095,1,,,,,,61,WORD,"ID",16,ponder,PONDER,m,,,,,,-0.022792969,-0.390195313,0,0,0,,0,295,295,60,1,
,,,,,,,,,,,,,,,,,,5fbd3476ab057909b0e2fc42,2020-11-26_15h58.12.768,lexical_decision_task_MP_exp2,2020.2.5,MacIntel,60,z,1,0.78473,,,,,,,,0.78473,1,,,,,,270,NW,"ID",33,wrimsy,WRIMSY,z,,,,,,-0.022792969,-0.390195313,0,0,0,,0,296,296,269,1,
,,,,,,,,,,,,,,,,,,5fbd3476ab057909b0e2fc42,2020-11-26_15h58.12.768,lexical_decision_task_MP_exp2,2020.2.5,MacIntel,60,m,1,0.717345,,,,,,,,0.717345,1,,,,,,67,WORD,"ID",16,policy,POLICY,m,,,,,,-0.022792969,-0.390195313,0,0,0,,0,297,297,66,1,
,,,,,,,,,,,,,,,,,,5fbd3476ab057909b0e2fc42,2020-11-26_15h58.12.768,lexical_decision_task_MP_exp2,2020.2.5,MacIntel,60,m,1,0.51868,,,,,,,,0.51868,1,,,,,,126,WORD,UN,33,castle,ENOUGH,m,,,,,,-0.022792969,-0.390195313,0,0,0,,0,298,298,125,1,
,,,,,,,,,,,,,,,,,,5fbd3476ab057909b0e2fc42,2020-11-26_15h58.12.768,lexical_decision_task_MP_exp2,2020.2.5,MacIntel,60,z,1,0.584425,,,,,,,,0.584425,1,,,,,,403,NW,UN,33,cluirm,BRUATS,z,,,,,,-0.022792969,-0.390195313,0,0,0,,0,299,299,402,1,
,,,,,,,,,,,,,,,,,,5fbd3476ab057909b0e2fc42,2020-11-26_15h58.12.768,lexical_decision_task_MP_exp2,2020.2.5,MacIntel,60,m,1,0.484775,,,,,,,,0.484775,1,,,,,,60,WORD,"ID",33,pencil,PENCIL,m,,,,,,-0.022792969,-0.390195313,0,0,0,,0,300,300,59,1,
,,,,,,,,,,,,,,,,,,5fbd3476ab057909b0e2fc42,2020-11-26_15h58.12.768,lexical_decision_task_MP_exp2,2020.2.5,MacIntel,60,z,1,0.81758,,,,,,,,0.81758,1,,,,,,452,NW,UN,16,bolvis,SURDEN,z,,,,,,-0.022792969,-0.390195313,0,0,0,,0,301,301,451,1,
,,,,,,,,,,,,,,,,,,5fbd3476ab057909b0e2fc42,2020-11-26_15h58.12.768,lexical_decision_task_MP_exp2,2020.2.5,MacIntel,60,m,1,0.706135,,,,,,,,0.706135,1,,,,,,8,WORD,"ID",33,abrupt,ABRUPT,m,,,,,,-0.022792969,-0.390195313,0,0,0,,0,302,302,7,1,
,,,,,,,,,,,,,,,,,,5fbd3476ab057909b0e2fc42,2020-11-26_15h58.12.768,lexical_decision_task_MP_exp2,2020.2.5,MacIntel,60,m,1,0.70359,,,,,,,,0.70359,1,,,,,,5,WORD,"ID",33,plunge,PLUNGE,m,,,,,,-0.022792969,-0.390195313,0,0,0,,0,303,303,4,1,
,,,,,,,,,,,,,,,,,,5fbd3476ab057909b0e2fc42,2020-11-26_15h58.12.768,lexical_decision_task_MP_exp2,2020.2.5,MacIntel,60,z,1,0.55601,,,,,,,,0.55601,1,,,,,,371,NW,UN,33,ramily,GEILOY,z,,,,,,-0.022792969,-0.390195313,0,0,0,,0,304,304,370,1,
,,,,,,,,,,,,,,,,,,5fbd3476ab057909b0e2fc42,2020-11-26_15h58.12.768,lexical_decision_task_MP_exp2,2020.2.5,MacIntel,60,z,1,0.817465,,,,,,,,0.817465,1,,,,,,324,NW,"ID",16,steikh,STEIKH,z,,,,,,-0.022792969,-0.390195313,0,0,0,,0,305,305,323,1,
,,,,,,,,,,,,,,,,,,5fbd3476ab057909b0e2fc42,2020-11-26_15h58.12.768,lexical_decision_task_MP_exp2,2020.2.5,MacIntel,60,z,1,0.600825,,,,,,,,0.600825,1,,,,,,246,NW,"ID",33,piaton,PIATON,z,,,,,,-0.022792969,-0.390195313,0,0,0,,0,306,306,245,1,
,,,,,,,,,,,,,,,,,,5fbd3476ab057909b0e2fc42,2020-11-26_15h58.12.768,lexical_decision_task_MP_exp2,2020.2.5,MacIntel,60,m,1,0.618,,,,,,,,0.618,1,,,,,,63,WORD,"ID",16,launch,LAUNCH,m,,,,,,-0.022792969,-0.390195313,0,0,0,,0,307,307,62,1,
,,,,,,,,,,,,,,,,,,5fbd3476ab057909b0e2fc42,2020-11-26_15h58.12.768,lexical_decision_task_MP_exp2,2020.2.5,MacIntel,60,z,1,0.76889,,,,,,,,0.76889,1,,,,,,291,NW,"ID",33,pretch,PRETCH,z,,,,,,-0.022792969,-0.390195313,0,0,0,,0,308,308,290,1,
,,,,,,,,,,,,,,,,,,5fbd3476ab057909b0e2fc42,2020-11-26_15h58.12.768,lexical_decision_task_MP_exp2,2020.2.5,MacIntel,60,m,1,0.619235,,,,,,,,0.619235,1,,,,,,162,WORD,UN,33,string,CANDLE,m,,,,,,-0.022792969,-0.390195313,0,0,0,,0,309,309,161,1,
,,,,,,,,,,,,,,,,,,5fbd3476ab057909b0e2fc42,2020-11-26_15h58.12.768,lexical_decision_task_MP_exp2,2020.2.5,MacIntel,60,z,1,0.63397,,,,,,,,0.63397,1,,,,,,381,NW,UN,33,sarley,HUNIEK,z,,,,,,-0.022792969,-0.390195313,0,0,0,,0,310,310,380,1,
,,,,,,,,,,,,,,,,,,5fbd3476ab057909b0e2fc42,2020-11-26_15h58.12.768,lexical_decision_task_MP_exp2,2020.2.5,MacIntel,60,m,1,0.5398,,,,,,,,0.5398,1,,,,,,102,WORD,"ID",16,direct,DIRECT,m,,,,,,-0.022792969,-0.390195313,0,0,0,,0,311,311,101,1,
,,,,,,,,,,,,,,,,,,5fbd3476ab057909b0e2fc42,2020-11-26_15h58.12.768,lexical_decision_task_MP_exp2,2020.2.5,MacIntel,60,m,1,0.594435,,,,,,,,0.594435,1,,,,,,69,WORD,"ID",16,plenty,PLENTY,m,,,,,,-0.022792969,-0.390195313,0,0,0,,0,312,312,68,1,
,,,,,,,,,,,,,,,,,,5fbd3476ab057909b0e2fc42,2020-11-26_15h58.12.768,lexical_decision_task_MP_exp2,2020.2.5,MacIntel,60,z,1,0.867835,,,,,,,,0.867835,1,,,,,,316,NW,"ID",16,scregm,SCREGM,z,,,,,,-0.022792969,-0.390195313,0,0,0,,0,313,313,315,1,
,,,,,,,,,,,,,,,,,,5fbd3476ab057909b0e2fc42,2020-11-26_15h58.12.768,lexical_decision_task_MP_exp2,2020.2.5,MacIntel,60,m,1,0.616175,,,,,,,,0.616175,1,,,,,,88,WORD,"ID",16,hunger,HUNGER,m,,,,,,-0.022792969,-0.390195313,0,0,0,,0,314,314,87,1,
,,,,,,,,,,,,,,,,,,5fbd3476ab057909b0e2fc42,2020-11-26_15h58.12.768,lexical_decision_task_MP_exp2,2020.2.5,MacIntel,60,m,1,1.01779,,,,,,,,1.01779,1,,,,,,42,WORD,"ID",33,chapel,CHAPEL,m,,,,,,-0.022792969,-0.390195313,0,0,0,,0,315,315,41,1,
,,,,,,,,,,,,,,,,,,5fbd3476ab057909b0e2fc42,2020-11-26_15h58.12.768,lexical_decision_task_MP_exp2,2020.2.5,MacIntel,60,m,1,0.617195,,,,,,,,0.617195,1,,,,,,100,WORD,"ID",16,carbon,CARBON,m,,,,,,-0.022792969,-0.390195313,0,0,0,,0,316,316,99,1,
,,,,,,,,,,,,,,,,,,5fbd3476ab057909b0e2fc42,2020-11-26_15h58.12.768,lexical_decision_task_MP_exp2,2020.2.5,MacIntel,60,m,1,0.76203,,,,,,,,0.76203,1,,,,,,108,WORD,"ID",16,reckon,RECKON,m,,,,,,-0.022792969,-0.390195313,0,0,0,,0,317,317,107,1,
,,,,,,,,,,,,,,,,,,5fbd3476ab057909b0e2fc42,2020-11-26_15h58.12.768,lexical_decision_task_MP_exp2,2020.2.5,MacIntel,60,z,1,0.885745,,,,,,,,0.885745,1,,,,,,338,NW,"ID",16,wreash,WREASH,z,,,,,,-0.022792969,-0.390195313,0,0,0,,0,318,318,337,1,
,,,,,,,,,,,,,,,,,,5fbd3476ab057909b0e2fc42,2020-11-26_15h58.12.768,lexical_decision_task_MP_exp2,2020.2.5,MacIntel,60,z,1,0.584325,,,,,,,,0.584325,1,,,,,,334,NW,"ID",16,watmeg,WATMEG,z,,,,,,-0.022792969,-0.390195313,0,0,0,,0,319,319,333,1,
,,,,,,,,,,,,,,,,,,5fbd3476ab057909b0e2fc42,2020-11-26_15h58.12.768,lexical_decision_task_MP_exp2,2020.2.5,MacIntel,60,z,1,0.583515,,,,,,,,0.583515,1,,,,,,275,NW,"ID",33,sleirt,SLEIRT,z,,,,,,-0.022792969,-0.390195313,0,0,0,,0,320,320,274,1,
,,,,,,,,,,,,,,,,,,5fbd3476ab057909b0e2fc42,2020-11-26_15h58.12.768,lexical_decision_task_MP_exp2,2020.2.5,MacIntel,60,z,1,0.53391,,,,,,,,0.53391,1,,,,,,355,NW,"ID",16,zingly,ZINGLY,z,,,,,,-0.022792969,-0.390195313,0,0,0,,0,321,321,354,1,
,,,,,,,,,,,,,,,,,,5fbd3476ab057909b0e2fc42,2020-11-26_15h58.12.768,lexical_decision_task_MP_exp2,2020.2.5,MacIntel,60,z,1,0.6516,,,,,,,,0.6516,1,,,,,,297,NW,"ID",33,fertic,FERTIC,z,,,,,,-0.022792969,-0.390195313,0,0,0,,0,322,322,296,1,
,,,,,,,,,,,,,,,,,,5fbd3476ab057909b0e2fc42,2020-11-26_15h58.12.768,lexical_decision_task_MP_exp2,2020.2.5,MacIntel,60,m,1,0.634135,,,,,,,,0.634135,1,,,,,,172,WORD,UN,33,shower,PATROL,m,,,,,,-0.022792969,-0.390195313,0,0,0,,0,323,323,171,1,
,,,,,,,,,,,,,,,,,,5fbd3476ab057909b0e2fc42,2020-11-26_15h58.12.768,lexical_decision_task_MP_exp2,2020.2.5,MacIntel,60,z,1,0.6342,,,,,,,,0.6342,1,,,,,,441,NW,UN,16,aboune,RASTOE,z,,,,,,-0.022792969,-0.390195313,0,0,0,,0,324,324,440,1,
,,,,,,,,,,,,,,,,,,5fbd3476ab057909b0e2fc42,2020-11-26_15h58.12.768,lexical_decision_task_MP_exp2,2020.2.5,MacIntel,60,z,1,0.607385,,,,,,,,0.607385,1,,,,,,379,NW,UN,33,cavory,AUTING,z,,,,,,-0.022792969,-0.390195313,0,0,0,,0,325,325,378,1,
,,,,,,,,,,,,,,,,,,5fbd3476ab057909b0e2fc42,2020-11-26_15h58.12.768,lexical_decision_task_MP_exp2,2020.2.5,MacIntel,60,z,1,0.92081,,,,,,,,0.92081,1,,,,,,384,NW,UN,33,veigma,GUESCO,z,,,,,,-0.022792969,-0.390195313,0,0,0,,0,326,326,383,1,
,,,,,,,,,,,,,,,,,,5fbd3476ab057909b0e2fc42,2020-11-26_15h58.12.768,lexical_decision_task_MP_exp2,2020.2.5,MacIntel,60,z,1,1.302195,,,,,,,,1.302195,1,,,,,,260,NW,"ID",33,unject,UNJECT,z,,,,,,-0.022792969,-0.390195313,0,0,0,,0,327,327,259,1,
,,,,,,,,,,,,,,,,,,5fbd3476ab057909b0e2fc42,2020-11-26_15h58.12.768,lexical_decision_task_MP_exp2,2020.2.5,MacIntel,60,z,1,0.65127,,,,,,,,0.65127,1,,,,,,354,NW,"ID",16,virlex,VIRLEX,z,,,,,,-0.022792969,-0.390195313,0,0,0,,0,328,328,353,1,
,,,,,,,,,,,,,,,,,,5fbd3476ab057909b0e2fc42,2020-11-26_15h58.12.768,lexical_decision_task_MP_exp2,2020.2.5,MacIntel,60,m,1,0.78453,,,,,,,,0.78453,1,,,,,,227,WORD,UN,16,master,SELDOM,m,,,,,,-0.022792969,-0.390195313,0,0,0,,0,329,329,226,1,
,,,,,,,,,,,,,,,,,,5fbd3476ab057909b0e2fc42,2020-11-26_15h58.12.768,lexical_decision_task_MP_exp2,2020.2.5,MacIntel,60,m,1,0.51774,,,,,,,,0.51774,1,,,,,,30,WORD,"ID",33,orient,ORIENT,m,,,,,,-0.022792969,-0.390195313,0,0,0,,0,330,330,29,1,
,,,,,,,,,,,,,,,,,,5fbd3476ab057909b0e2fc42,2020-11-26_15h58.12.768,lexical_decision_task_MP_exp2,2020.2.5,MacIntel,60,m,1,0.48828,,,,,,,,0.48828,1,,,,,,94,WORD,"ID",16,travel,TRAVEL,m,,,,,,-0.022792969,-0.390195313,0,0,0,,0,331,331,93,1,
,,,,,,,,,,,,,,,,,,5fbd3476ab057909b0e2fc42,2020-11-26_15h58.12.768,lexical_decision_task_MP_exp2,2020.2.5,MacIntel,60,z,1,0.653445,,,,,,,,0.653445,1,,,,,,294,NW,"ID",33,inhort,INHORT,z,,,,,,-0.022792969,-0.390195313,0,0,0,,0,332,332,293,1,
,,,,,,,,,,,,,,,,,,5fbd3476ab057909b0e2fc42,2020-11-26_15h58.12.768,lexical_decision_task_MP_exp2,2020.2.5,MacIntel,60,m,1,0.60057,,,,,,,,0.60057,1,,,,,,32,WORD,"ID",33,buckle,BUCKLE,m,,,,,,-0.022792969,-0.390195313,0,0,0,,0,333,333,31,1,
,,,,,,,,,,,,,,,,,,5fbd3476ab057909b0e2fc42,2020-11-26_15h58.12.768,lexical_decision_task_MP_exp2,2020.2.5,MacIntel,60,m,1,0.50168,,,,,,,,0.50168,1,,,,,,41,WORD,"ID",33,spring,SPRING,m,,,,,,-0.022792969,-0.390195313,0,0,0,,0,334,334,40,1,
,,,,,,,,,,,,,,,,,,5fbd3476ab057909b0e2fc42,2020-11-26_15h58.12.768,lexical_decision_task_MP_exp2,2020.2.5,MacIntel,60,m,1,0.81261,,,,,,,,0.81261,1,,,,,,10,WORD,"ID",33,ethnic,ETHNIC,m,,,,,,-0.022792969,-0.390195313,0,0,0,,0,335,335,9,1,
,,,,,,,,,,,,,,,,,,5fbd3476ab057909b0e2fc42,2020-11-26_15h58.12.768,lexical_decision_task_MP_exp2,2020.2.5,MacIntel,60,m,1,0.61776,,,,,,,,0.61776,1,,,,,,89,WORD,"ID",16,permit,PERMIT,m,,,,,,-0.022792969,-0.390195313,0,0,0,,0,336,336,88,1,
,,,,,,,,,,,,,,,,,,5fbd3476ab057909b0e2fc42,2020-11-26_15h58.12.768,lexical_decision_task_MP_exp2,2020.2.5,MacIntel,60,z,1,0.72403,,,,,,,,0.72403,1,,,,,,311,NW,"ID",16,sproly,SPROLY,z,,,,,,-0.022792969,-0.390195313,0,0,0,,0,337,337,310,1,
,,,,,,,,,,,,,,,,,,5fbd3476ab057909b0e2fc42,2020-11-26_15h58.12.768,lexical_decision_task_MP_exp2,2020.2.5,MacIntel,60,m,1,0.751905,,,,,,,,0.751905,1,,,,,,17,WORD,"ID",33,charge,CHARGE,m,,,,,,-0.022792969,-0.390195313,0,0,0,,0,338,338,16,1,
,,,,,,,,,,,,,,,,,,5fbd3476ab057909b0e2fc42,2020-11-26_15h58.12.768,lexical_decision_task_MP_exp2,2020.2.5,MacIntel,60,m,1,0.69108,,,,,,,,0.69108,1,,,,,,53,WORD,"ID",33,police,POLICE,m,,,,,,-0.022792969,-0.390195313,0,0,0,,0,339,339,52,1,
,,,,,,,,,,,,,,,,,,5fbd3476ab057909b0e2fc42,2020-11-26_15h58.12.768,lexical_decision_task_MP_exp2,2020.2.5,MacIntel,60,m,1,0.64218,,,,,,,,0.64218,1,,,,,,194,WORD,UN,16,resign,ABSENT,m,,,,,,-0.022792969,-0.390195313,0,0,0,,0,340,340,193,1,
,,,,,,,,,,,,,,,,,,5fbd3476ab057909b0e2fc42,2020-11-26_15h58.12.768,lexical_decision_task_MP_exp2,2020.2.5,MacIntel,60,m,1,0.67319,,,,,,,,0.67319,1,,,,,,91,WORD,"ID",16,expand,EXPAND,m,,,,,,-0.022792969,-0.390195313,0,0,0,,0,341,341,90,1,
,,,,,,,,,,,,,,,,,,5fbd3476ab057909b0e2fc42,2020-11-26_15h58.12.768,lexical_decision_task_MP_exp2,2020.2.5,MacIntel,60,m,1,0.648835,,,,,,,,0.648835,1,,,,,,235,WORD,UN,16,pirate,GRUMPY,m,,,,,,-0.022792969,-0.390195313,0,0,0,,0,342,342,234,1,
,,,,,,,,,,,,,,,,,,5fbd3476ab057909b0e2fc42,2020-11-26_15h58.12.768,lexical_decision_task_MP_exp2,2020.2.5,MacIntel,60,z,1,0.76616,,,,,,,,0.76616,1,,,,,,259,NW,"ID",33,soudal,SOUDAL,z,,,,,,-0.022792969,-0.390195313,0,0,0,,0,343,343,258,1,
,,,,,,,,,,,,,,,,,,5fbd3476ab057909b0e2fc42,2020-11-26_15h58.12.768,lexical_decision_task_MP_exp2,2020.2.5,MacIntel,60,z,1,0.600285,,,,,,,,0.600285,1,,,,,,431,NW,UN,16,lunker,CHRUMS,z,,,,,,-0.022792969,-0.390195313,0,0,0,,0,344,344,430,1,
,,,,,,,,,,,,,,,,,,5fbd3476ab057909b0e2fc42,2020-11-26_15h58.12.768,lexical_decision_task_MP_exp2,2020.2.5,MacIntel,60,m,1,0.53919,,,,,,,,0.53919,1,,,,,,73,WORD,"ID",16,source,SOURCE,m,,,,,,-0.022792969,-0.390195313,0,0,0,,0,345,345,72,1,
,,,,,,,,,,,,,,,,,,5fbd3476ab057909b0e2fc42,2020-11-26_15h58.12.768,lexical_decision_task_MP_exp2,2020.2.5,MacIntel,60,z,1,0.51834,,,,,,,,0.51834,1,,,,,,451,NW,UN,16,surden,CAINKY,z,,,,,,-0.022792969,-0.390195313,0,0,0,,0,346,346,450,1,
,,,,,,,,,,,,,,,,,,5fbd3476ab057909b0e2fc42,2020-11-26_15h58.12.768,lexical_decision_task_MP_exp2,2020.2.5,MacIntel,60,m,1,0.534735,,,,,,,,0.534735,1,,,,,,200,WORD,UN,16,admire,BEACON,m,,,,,,-0.022792969,-0.390195313,0,0,0,,0,347,347,199,1,
,,,,,,,,,,,,,,,,,,5fbd3476ab057909b0e2fc42,2020-11-26_15h58.12.768,lexical_decision_task_MP_exp2,2020.2.5,MacIntel,60,m,1,0.57483,,,,,,,,0.57483,1,,,,,,4,WORD,"ID",33,trench,TRENCH,m,,,,,,-0.022792969,-0.390195313,0,0,0,,0,348,348,3,1,
,,,,,,,,,,,,,,,,,,5fbd3476ab057909b0e2fc42,2020-11-26_15h58.12.768,lexical_decision_task_MP_exp2,2020.2.5,MacIntel,60,z,1,0.53437,,,,,,,,0.53437,1,,,,,,406,NW,UN,33,suiver,NOUPLY,z,,,,,,-0.022792969,-0.390195313,0,0,0,,0,349,349,405,1,
,,,,,,,,,,,,,,,,,,5fbd3476ab057909b0e2fc42,2020-11-26_15h58.12.768,lexical_decision_task_MP_exp2,2020.2.5,MacIntel,60,z,1,0.621425,,,,,,,,0.621425,1,,,,,,272,NW,"ID",33,damilt,DAMILT,z,,,,,,-0.022792969,-0.390195313,0,0,0,,0,350,350,271,1,
,,,,,,,,,,,,,,,,,,5fbd3476ab057909b0e2fc42,2020-11-26_15h58.12.768,lexical_decision_task_MP_exp2,2020.2.5,MacIntel,60,z,1,0.55053,,,,,,,,0.55053,1,,,,,,428,NW,UN,16,chrums,TANDLY,z,,,,,,-0.022792969,-0.390195313,0,0,0,,0,351,351,427,1,
,,,,,,,,,,,,,,,,,,5fbd3476ab057909b0e2fc42,2020-11-26_15h58.12.768,lexical_decision_task_MP_exp2,2020.2.5,MacIntel,60,z,1,0.544875,,,,,,,,0.544875,1,,,,,,389,NW,UN,33,hatrus,WITMER,z,,,,,,-0.022792969,-0.390195313,0,0,0,,0,352,352,388,1,
,,,,,,,,,,,,,,,,,,5fbd3476ab057909b0e2fc42,2020-11-26_15h58.12.768,lexical_decision_task_MP_exp2,2020.2.5,MacIntel,60,z,1,0.52386,,,,,,,,0.52386,1,,,,,,262,NW,"ID",33,quilew,QUILEW,z,,,,,,-0.022792969,-0.390195313,0,0,0,,0,353,353,261,1,
,,,,,,,,,,,,,,,,,,5fbd3476ab057909b0e2fc42,2020-11-26_15h58.12.768,lexical_decision_task_MP_exp2,2020.2.5,MacIntel,60,z,1,0.717605,,,,,,,,0.717605,1,,,,,,331,NW,"ID",16,gilfew,GILFEW,z,,,,,,-0.022792969,-0.390195313,0,0,0,,0,354,354,330,1,
,,,,,,,,,,,,,,,,,,5fbd3476ab057909b0e2fc42,2020-11-26_15h58.12.768,lexical_decision_task_MP_exp2,2020.2.5,MacIntel,60,m,1,0.75141,,,,,,,,0.75141,1,,,,,,64,WORD,"ID",16,throne,THRONE,m,,,,,,-0.022792969,-0.390195313,0,0,0,,0,355,355,63,1,
,,,,,,,,,,,,,,,,,,5fbd3476ab057909b0e2fc42,2020-11-26_15h58.12.768,lexical_decision_task_MP_exp2,2020.2.5,MacIntel,60,m,1,0.83377,,,,,,,,0.83377,1,,,,,,151,WORD,UN,33,rocket,MYSTIC,m,,,,,,-0.022792969,-0.390195313,0,0,0,,0,356,356,150,1,
,,,,,,,,,,,,,,,,,,5fbd3476ab057909b0e2fc42,2020-11-26_15h58.12.768,lexical_decision_task_MP_exp2,2020.2.5,MacIntel,60,m,1,0.48885,,,,,,,,0.48885,1,,,,,,56,WORD,"ID",33,ambush,AMBUSH,m,,,,,,-0.022792969,-0.390195313,0,0,0,,0,357,357,55,1,
,,,,,,,,,,,,,,,,,,5fbd3476ab057909b0e2fc42,2020-11-26_15h58.12.768,lexical_decision_task_MP_exp2,2020.2.5,MacIntel,60,z,1,0.638815,,,,,,,,0.638815,1,,,,,,469,NW,UN,16,crudio,PADIFS,z,,,,,,-0.022792969,-0.390195313,0,0,0,,0,358,358,468,1,
,,,,,,,,,,,,,,,,,,5fbd3476ab057909b0e2fc42,2020-11-26_15h58.12.768,lexical_decision_task_MP_exp2,2020.2.5,MacIntel,60,z,1,0.67099,,,,,,,,0.67099,1,,,,,,439,NW,UN,16,saride,LIMPOR,z,,,,,,-0.022792969,-0.390195313,0,0,0,,0,359,359,438,1,
,,,,,,,,,,,,,,,,,,5fbd3476ab057909b0e2fc42,2020-11-26_15h58.12.768,lexical_decision_task_MP_exp2,2020.2.5,MacIntel,60,m,1,0.66746,,,,,,,,0.66746,1,,,,,,212,WORD,UN,16,squeal,VERIFY,m,,,,,,-0.022792969,-0.390195313,0,0,0,,0,360,360,211,1,
,,,,,,,,,,,,,,,,,,5fbd3476ab057909b0e2fc42,2020-11-26_15h58.12.768,lexical_decision_task_MP_exp2,2020.2.5,MacIntel,60,m,1,0.62103,,,,,,,,0.62103,1,,,,,,236,WORD,UN,16,poster,PIRATE,m,,,,,,-0.022792969,-0.390195313,0,0,0,,0,361,361,235,1,
,,,,,,,,,,,,,,,,,,5fbd3476ab057909b0e2fc42,2020-11-26_15h58.12.768,lexical_decision_task_MP_exp2,2020.2.5,MacIntel,60,z,1,0.700955,,,,,,,,0.700955,1,,,,,,479,NW,UN,16,josted,LOBUSH,z,,,,,,-0.022792969,-0.390195313,0,0,0,space,0,362,362,478,1,12.857445
,,,,,,,,,,,,,,,,,,5fbd3476ab057909b0e2fc42,2020-11-26_15h58.12.768,lexical_decision_task_MP_exp2,2020.2.5,MacIntel,60,z,1,0.634065,,,,,,,,0.634065,1,,,,,,289,NW,"ID",33,starby,STARBY,z,,,,,,-0.022792969,-0.390195313,0,0,0,,0,363,363,288,1,
,,,,,,,,,,,,,,,,,,5fbd3476ab057909b0e2fc42,2020-11-26_15h58.12.768,lexical_decision_task_MP_exp2,2020.2.5,MacIntel,60,z,1,0.95345,,,,,,,,0.95345,1,,,,,,364,NW,UN,33,guairt,IMPOTE,z,,,,,,-0.022792969,-0.390195313,0,0,0,,0,364,364,363,1,
,,,,,,,,,,,,,,,,,,5fbd3476ab057909b0e2fc42,2020-11-26_15h58.12.768,lexical_decision_task_MP_exp2,2020.2.5,MacIntel,60,m,1,0.617295,,,,,,,,0.617295,1,,,,,,55,WORD,"ID",33,stroke,STROKE,m,,,,,,-0.022792969,-0.390195313,0,0,0,,0,365,365,54,1,
,,,,,,,,,,,,,,,,,,5fbd3476ab057909b0e2fc42,2020-11-26_15h58.12.768,lexical_decision_task_MP_exp2,2020.2.5,MacIntel,60,z,1,0.50011,,,,,,,,0.50011,1,,,,,,365,NW,UN,33,toshel,GUAIRT,z,,,,,,-0.022792969,-0.390195313,0,0,0,,0,366,366,364,1,
,,,,,,,,,,,,,,,,,,5fbd3476ab057909b0e2fc42,2020-11-26_15h58.12.768,lexical_decision_task_MP_exp2,2020.2.5,MacIntel,60,z,1,0.601515,,,,,,,,0.601515,1,,,,,,292,NW,"ID",33,ablint,ABLINT,z,,,,,,-0.022792969,-0.390195313,0,0,0,,0,367,367,291,1,
,,,,,,,,,,,,,,,,,,5fbd3476ab057909b0e2fc42,2020-11-26_15h58.12.768,lexical_decision_task_MP_exp2,2020.2.5,MacIntel,60,z,1,0.531485,,,,,,,,0.531485,1,,,,,,444,NW,UN,16,minkel,JAUNCE,z,,,,,,-0.022792969,-0.390195313,0,0,0,,0,368,368,443,1,
,,,,,,,,,,,,,,,,,,5fbd3476ab057909b0e2fc42,2020-11-26_15h58.12.768,lexical_decision_task_MP_exp2,2020.2.5,MacIntel,60,z,1,0.51751,,,,,,,,0.51751,1,,,,,,453,NW,UN,16,scouge,BOLVIS,z,,,,,,-0.022792969,-0.390195313,0,0,0,,0,369,369,452,1,
,,,,,,,,,,,,,,,,,,5fbd3476ab057909b0e2fc42,2020-11-26_15h58.12.768,lexical_decision_task_MP_exp2,2020.2.5,MacIntel,60,m,1,0.507245,,,,,,,,0.507245,1,,,,,,31,WORD,"ID",33,weapon,WEAPON,m,,,,,,-0.022792969,-0.390195313,0,0,0,,0,370,370,30,1,
,,,,,,,,,,,,,,,,,,5fbd3476ab057909b0e2fc42,2020-11-26_15h58.12.768,lexical_decision_task_MP_exp2,2020.2.5,MacIntel,60,z,1,0.504725,,,,,,,,0.504725,1,,,,,,317,NW,"ID",16,worbal,WORBAL,z,,,,,,-0.022792969,-0.390195313,0,0,0,,0,371,371,316,1,
,,,,,,,,,,,,,,,,,,5fbd3476ab057909b0e2fc42,2020-11-26_15h58.12.768,lexical_decision_task_MP_exp2,2020.2.5,MacIntel,60,z,1,0.634635,,,,,,,,0.634635,1,,,,,,268,NW,"ID",33,packes,PACKES,z,,,,,,-0.022792969,-0.390195313,0,0,0,,0,372,372,267,1,
,,,,,,,,,,,,,,,,,,5fbd3476ab057909b0e2fc42,2020-11-26_15h58.12.768,lexical_decision_task_MP_exp2,2020.2.5,MacIntel,60,m,1,0.583875,,,,,,,,0.583875,1,,,,,,54,WORD,"ID",33,ramble,RAMBLE,m,,,,,,-0.022792969,-0.390195313,0,0,0,,0,373,373,53,1,
,,,,,,,,,,,,,,,,,,5fbd3476ab057909b0e2fc42,2020-11-26_15h58.12.768,lexical_decision_task_MP_exp2,2020.2.5,MacIntel,60,z,1,0.60613,,,,,,,,0.60613,1,,,,,,254,NW,"ID",33,varosh,VAROSH,z,,,,,,-0.022792969,-0.390195313,0,0,0,,0,374,374,253,1,
,,,,,,,,,,,,,,,,,,5fbd3476ab057909b0e2fc42,2020-11-26_15h58.12.768,lexical_decision_task_MP_exp2,2020.2.5,MacIntel,60,m,1,0.73436,,,,,,,,0.73436,1,,,,,,2,WORD,"ID",33,bridge,BRIDGE,m,,,,,,-0.022792969,-0.390195313,0,0,0,,0,375,375,1,1,
,,,,,,,,,,,,,,,,,,5fbd3476ab057909b0e2fc42,2020-11-26_15h58.12.768,lexical_decision_task_MP_exp2,2020.2.5,MacIntel,60,m,1,0.68229,,,,,,,,0.68229,1,,,,,,131,WORD,UN,33,strong,QUENCH,m,,,,,,-0.022792969,-0.390195313,0,0,0,,0,376,376,130,1,
,,,,,,,,,,,,,,,,,,5fbd3476ab057909b0e2fc42,2020-11-26_15h58.12.768,lexical_decision_task_MP_exp2,2020.2.5,MacIntel,60,z,1,0.583555,,,,,,,,0.583555,1,,,,,,287,NW,"ID",33,nymbel,NYMBEL,z,,,,,,-0.022792969,-0.390195313,0,0,0,,0,377,377,286,1,
,,,,,,,,,,,,,,,,,,5fbd3476ab057909b0e2fc42,2020-11-26_15h58.12.768,lexical_decision_task_MP_exp2,2020.2.5,MacIntel,60,m,1,0.817295,,,,,,,,0.817295,1,,,,,,221,WORD,UN,16,hinder,MASCOT,m,,,,,,-0.022792969,-0.390195313,0,0,0,,0,378,378,220,1,
,,,,,,,,,,,,,,,,,,5fbd3476ab057909b0e2fc42,2020-11-26_15h58.12.768,lexical_decision_task_MP_exp2,2020.2.5,MacIntel,60,z,1,0.68963,,,,,,,,0.68963,1,,,,,,392,NW,UN,33,ganous,ROUNCY,z,,,,,,-0.022792969,-0.390195313,0,0,0,,0,379,379,391,1,
,,,,,,,,,,,,,,,,,,5fbd3476ab057909b0e2fc42,2020-11-26_15h58.12.768,lexical_decision_task_MP_exp2,2020.2.5,MacIntel,60,z,1,0.58401,,,,,,,,0.58401,1,,,,,,422,NW,UN,16,streld,ALCOUD,z,,,,,,-0.022792969,-0.390195313,0,0,0,,0,380,380,421,1,
,,,,,,,,,,,,,,,,,,5fbd3476ab057909b0e2fc42,2020-11-26_15h58.12.768,lexical_decision_task_MP_exp2,2020.2.5,MacIntel,60,z,1,0.522065,,,,,,,,0.522065,1,,,,,,315,NW,"ID",16,laston,LASTON,z,,,,,,-0.022792969,-0.390195313,0,0,0,,0,381,381,314,1,
,,,,,,,,,,,,,,,,,,5fbd3476ab057909b0e2fc42,2020-11-26_15h58.12.768,lexical_decision_task_MP_exp2,2020.2.5,MacIntel,60,z,1,0.59072,,,,,,,,0.59072,1,,,,,,323,NW,"ID",16,rosail,ROSAIL,z,,,,,,-0.022792969,-0.390195313,0,0,0,,0,382,382,322,1,
,,,,,,,,,,,,,,,,,,5fbd3476ab057909b0e2fc42,2020-11-26_15h58.12.768,lexical_decision_task_MP_exp2,2020.2.5,MacIntel,60,m,1,0.584425,,,,,,,,0.584425,1,,,,,,152,WORD,UN,33,behold,ROCKET,m,,,,,,-0.022792969,-0.390195313,0,0,0,,0,383,383,151,1,
,,,,,,,,,,,,,,,,,,5fbd3476ab057909b0e2fc42,2020-11-26_15h58.12.768,lexical_decision_task_MP_exp2,2020.2.5,MacIntel,60,m,1,0.61796,,,,,,,,0.61796,1,,,,,,185,WORD,UN,16,portal,BOTHER,m,,,,,,-0.022792969,-0.390195313,0,0,0,,0,384,384,184,1,
,,,,,,,,,,,,,,,,,,5fbd3476ab057909b0e2fc42,2020-11-26_15h58.12.768,lexical_decision_task_MP_exp2,2020.2.5,MacIntel,60,m,1,0.506415,,,,,,,,0.506415,1,,,,,,143,WORD,UN,33,sponge,REASON,m,,,,,,-0.022792969,-0.390195313,0,0,0,,0,385,385,142,1,
,,,,,,,,,,,,,,,,,,5fbd3476ab057909b0e2fc42,2020-11-26_15h58.12.768,lexical_decision_task_MP_exp2,2020.2.5,MacIntel,60,m,1,0.51786,,,,,,,,0.51786,1,,,,,,213,WORD,UN,16,intake,SQUEAL,m,,,,,,-0.022792969,-0.390195313,0,0,0,,0,386,386,212,1,
,,,,,,,,,,,,,,,,,,5fbd3476ab057909b0e2fc42,2020-11-26_15h58.12.768,lexical_decision_task_MP_exp2,2020.2.5,MacIntel,60,z,1,0.534275,,,,,,,,0.534275,1,,,,,,351,NW,"ID",16,tiesch,TIESCH,z,,,,,,-0.022792969,-0.390195313,0,0,0,,0,387,387,350,1,
