counterbalancing_condition,instr_done_keyboard.keys,instr_done_keyboard.rt,instr_done_touch.x,instr_done_touch.y,instr_done_touch.leftButton,instr_done_touch.midButton,instr_done_touch.rightButton,instruction_pages.thisRepN,instruction_pages.thisTrialN,instruction_pages.thisN,instruction_pages.thisIndex,instruction_pages.ran,pageN,phase,instruct_text,has_image,instruct_image,participant,date,expName,psychopyVersion,OS,frameRate,response.keys,response.corr,touch_resp.x,touch_resp.y,touch_resp.leftButton,touch_resp.midButton,touch_resp.rightButton,touch_resp.time,touch_resp.clicked_name,rt,corr,practice_trials.thisRepN,practice_trials.thisTrialN,practice_trials.thisN,practice_trials.thisIndex,practice_trials.ran,TrialID,StimulusType,Condition,PrimeDuration,Prime,Target,corrAns,response.rt,end_of_practice_trials_pages.thisRepN,end_of_practice_trials_pages.thisTrialN,end_of_practice_trials_pages.thisN,end_of_practice_trials_pages.thisIndex,end_of_practice_trials_pages.ran,break_done_touch.x,break_done_touch.y,break_done_touch.leftButton,break_done_touch.midButton,break_done_touch.rightButton,break_done_keyboard.keys,trials.thisRepN,trials.thisTrialN,trials.thisN,trials.thisIndex,trials.ran
2,space,17.132965,0.177777778,-0.136111111,0,0,0,0,0,0,0,1,1,instructions,"INSTRUCTIONS
At the start of each trial, look at the hash marks (######) in the center of the screen. After a moment, a string of letters will appear. Your task is to indicate if the letter string forms a word or not (i.e., if it is a nonword). For example, AUTHOR is a word while AUTHON is a nonword.

Press the space bar or touch the button below to continue.",0,,5fbd8615d29543198393bdc7,2020-11-25_17h30.00.431,lexical_decision_task_MP_exp2,2020.2.5,Win32,60,,,,,,,,,,,,,,,,,,,,,,,,,,,,,,,,,,,,,,,,
,space,12.20783,0.177777778,-0.136111111,0,0,0,0,1,1,1,1,2,instructions,"If your device has a keyboard, press the 'Z' key for nonwords and the 'M' key for words.





Press the space bar or touch the button below to continue.",1,keyboard-example.gif,5fbd8615d29543198393bdc7,2020-11-25_17h30.00.431,lexical_decision_task_MP_exp2,2020.2.5,Win32,60,,,,,,,,,,,,,,,,,,,,,,,,,,,,,,,,,,,,,,,,
,space,5.918905,0.177777778,-0.136111111,0,0,0,0,2,2,2,1,3,instructions,"If you are using a touchscreen only device, use the buttons on the screen. Do not use the mouse.





Press the space bar or touch the button below to continue.",1,touchscreen-example.gif,5fbd8615d29543198393bdc7,2020-11-25_17h30.00.431,lexical_decision_task_MP_exp2,2020.2.5,Win32,60,,,,,,,,,,,,,,,,,,,,,,,,,,,,,,,,,,,,,,,,
,space,5.79844,0.177777778,-0.136111111,0,0,0,0,3,3,3,1,4,instructions,"It is very important that you respond as quickly and accurately as possible, as each letter string will only be on the screen for two seconds. If you do not respond within this time, the message 'Too slow!' will be displayed and the experiment will progress to the next letter string. The first 20 trials will be practice trials and you will receive feedback on your answers. 

Press the space bar or touch the button below to start the practice trials.",0,,5fbd8615d29543198393bdc7,2020-11-25_17h30.00.431,lexical_decision_task_MP_exp2,2020.2.5,Win32,60,,,,,,,,,,,,,,,,,,,,,,,,,,,,,,,,,,,,,,,,
,,,,,,,,,,,,,,,,,,5fbd8615d29543198393bdc7,2020-11-25_17h30.00.431,lexical_decision_task_MP_exp2,2020.2.5,Win32,60,,0,,,,,,,,,-1,0,0,0,14,1,1015,NW,UN,16,miaber,THRALE,z,,,,,,,,,,,,,,,,,
,,,,,,,,,,,,,,,,,,5fbd8615d29543198393bdc7,2020-11-25_17h30.00.431,lexical_decision_task_MP_exp2,2020.2.5,Win32,60,z,1,,,,,,,,0.91619,1,0,1,1,11,1,1012,NW,"ID",16,rashet,RASHET,z,0.91619,,,,,,,,,,,,,,,,
,,,,,,,,,,,,,,,,,,5fbd8615d29543198393bdc7,2020-11-25_17h30.00.431,lexical_decision_task_MP_exp2,2020.2.5,Win32,60,m,1,,,,,,,,0.683525,1,0,2,2,0,1,1001,WORD,"ID",33,utopia,UTOPIA,m,0.683525,,,,,,,,,,,,,,,,
,,,,,,,,,,,,,,,,,,5fbd8615d29543198393bdc7,2020-11-25_17h30.00.431,lexical_decision_task_MP_exp2,2020.2.5,Win32,60,m,1,,,,,,,,0.681245,1,0,3,3,3,1,1004,WORD,"ID",16,matrix,MATRIX,m,0.681245,,,,,,,,,,,,,,,,
,,,,,,,,,,,,,,,,,,5fbd8615d29543198393bdc7,2020-11-25_17h30.00.431,lexical_decision_task_MP_exp2,2020.2.5,Win32,60,m,1,,,,,,,,0.664105,1,0,4,4,4,1,1005,WORD,UN,33,abound,SQUEAK,m,0.664105,,,,,,,,,,,,,,,,
,,,,,,,,,,,,,,,,,,5fbd8615d29543198393bdc7,2020-11-25_17h30.00.431,lexical_decision_task_MP_exp2,2020.2.5,Win32,60,m,0,,,,,,,,0.800345,0,0,5,5,13,1,1014,NW,UN,33,winfer,ROUPET,z,0.800345,,,,,,,,,,,,,,,,
,,,,,,,,,,,,,,,,,,5fbd8615d29543198393bdc7,2020-11-25_17h30.00.431,lexical_decision_task_MP_exp2,2020.2.5,Win32,60,m,1,,,,,,,,0.603105,1,0,6,6,5,1,1006,WORD,UN,33,frenzy,OBTAIN,m,0.603105,,,,,,,,,,,,,,,,
,,,,,,,,,,,,,,,,,,5fbd8615d29543198393bdc7,2020-11-25_17h30.00.431,lexical_decision_task_MP_exp2,2020.2.5,Win32,60,m,1,,,,,,,,0.567335,1,0,7,7,2,1,1003,WORD,"ID",16,almond,ALMOND,m,0.567335,,,,,,,,,,,,,,,,
,,,,,,,,,,,,,,,,,,5fbd8615d29543198393bdc7,2020-11-25_17h30.00.431,lexical_decision_task_MP_exp2,2020.2.5,Win32,60,m,0,,,,,,,,0.586855,0,0,8,8,10,1,1011,NW,"ID",16,inlade,INLADE,z,0.586855,,,,,,,,,,,,,,,,
,,,,,,,,,,,,,,,,,,5fbd8615d29543198393bdc7,2020-11-25_17h30.00.431,lexical_decision_task_MP_exp2,2020.2.5,Win32,60,m,1,,,,,,,,0.6444,1,0,9,9,6,1,1007,WORD,UN,16,tropic,ZOMBIE,m,0.6444,,,,,,,,,,,,,,,,
,,,,,,,,,,,,,,,,,,5fbd8615d29543198393bdc7,2020-11-25_17h30.00.431,lexical_decision_task_MP_exp2,2020.2.5,Win32,60,z,1,,,,,,,,0.62847,1,0,10,10,8,1,1009,NW,"ID",33,aslert,ASLERT,z,0.62847,,,,,,,,,,,,,,,,
,,,,,,,,,,,,,,,,,,5fbd8615d29543198393bdc7,2020-11-25_17h30.00.431,lexical_decision_task_MP_exp2,2020.2.5,Win32,60,m,1,,,,,,,,0.608505,1,0,11,11,7,1,1008,WORD,UN,16,hurdle,VOLUME,m,0.608505,,,,,,,,,,,,,,,,
,,,,,,,,,,,,,,,,,,5fbd8615d29543198393bdc7,2020-11-25_17h30.00.431,lexical_decision_task_MP_exp2,2020.2.5,Win32,60,z,1,,,,,,,,0.70026,1,0,12,12,15,1,1016,NW,UN,16,mushed,WHAISE,z,0.70026,,,,,,,,,,,,,,,,
,,,,,,,,,,,,,,,,,,5fbd8615d29543198393bdc7,2020-11-25_17h30.00.431,lexical_decision_task_MP_exp2,2020.2.5,Win32,60,z,1,,,,,,,,0.705495,1,0,13,13,9,1,1010,NW,"ID",33,fariny,FARINY,z,0.705495,,,,,,,,,,,,,,,,
,,,,,,,,,,,,,,,,,,5fbd8615d29543198393bdc7,2020-11-25_17h30.00.431,lexical_decision_task_MP_exp2,2020.2.5,Win32,60,m,1,,,,,,,,0.579825,1,0,14,14,1,1,1002,WORD,"ID",33,adjust,ADJUST,m,0.579825,,,,,,,,,,,,,,,,
,,,,,,,,,,,,,,,,,,5fbd8615d29543198393bdc7,2020-11-25_17h30.00.431,lexical_decision_task_MP_exp2,2020.2.5,Win32,60,z,1,,,,,,,,0.68361,1,0,15,15,12,1,1013,NW,UN,33,adveil,SPRINY,z,0.68361,,,,,,,,,,,,,,,,
,space,24.43233,0.177777778,-0.136111111,0,0,0,,,,,,1,end_of_practice,"You have completed the practice trials. During the experimental trials, you will not receive feedback, but it is very important that you respond as quickly and accurately as possible. 
Before you begin, please ensure that you are in a comfortable and quiet location and will not be disturbed for about 15 minutes, as we cannot use your data if you do not complete all the trials. 
There will be opportunities to take breaks at regular intervals during the experiment. When you are ready to start the experimental trials, please press space or touch the button below.",,,5fbd8615d29543198393bdc7,2020-11-25_17h30.00.431,lexical_decision_task_MP_exp2,2020.2.5,Win32,60,,,,,,,,,,,,,,,,,,,,,,,,,0,0,0,0,1,,,,,,,,,,,
,,,,,,,,,,,,,,,,,,5fbd8615d29543198393bdc7,2020-11-25_17h30.00.431,lexical_decision_task_MP_exp2,2020.2.5,Win32,60,m,1,,,,,,,,0.49611,1,,,,,,31,WORD,UN,16,buckle,WEAPON,m,0.49611,,,,,,0.177777778,-0.136111111,0,0,0,,0,0,0,210,1
,,,,,,,,,,,,,,,,,,5fbd8615d29543198393bdc7,2020-11-25_17h30.00.431,lexical_decision_task_MP_exp2,2020.2.5,Win32,60,m,1,,,,,,,,0.50498,1,,,,,,190,WORD,UN,33,stable,BACKUP,m,0.50498,,,,,,0.177777778,-0.136111111,0,0,0,,0,1,1,129,1
,,,,,,,,,,,,,,,,,,5fbd8615d29543198393bdc7,2020-11-25_17h30.00.431,lexical_decision_task_MP_exp2,2020.2.5,Win32,60,m,0,,,,,,,,0.496875,0,,,,,,411,NW,"ID",16,orchin,ORCHIN,z,0.496875,,,,,,0.177777778,-0.136111111,0,0,0,,0,2,2,350,1
,,,,,,,,,,,,,,,,,,5fbd8615d29543198393bdc7,2020-11-25_17h30.00.431,lexical_decision_task_MP_exp2,2020.2.5,Win32,60,m,1,,,,,,,,0.584815,1,,,,,,215,WORD,UN,33,lumber,PHOBIA,m,0.584815,,,,,,0.177777778,-0.136111111,0,0,0,,0,3,3,154,1
,,,,,,,,,,,,,,,,,,5fbd8615d29543198393bdc7,2020-11-25_17h30.00.431,lexical_decision_task_MP_exp2,2020.2.5,Win32,60,m,1,,,,,,,,0.781915,1,,,,,,139,WORD,"ID",16,debris,DEBRIS,m,0.781915,,,,,,0.177777778,-0.136111111,0,0,0,,0,4,4,78,1
,,,,,,,,,,,,,,,,,,5fbd8615d29543198393bdc7,2020-11-25_17h30.00.431,lexical_decision_task_MP_exp2,2020.2.5,Win32,60,z,1,,,,,,,,0.6049,1,,,,,,408,NW,"ID",16,hurnia,HURNIA,z,0.6049,,,,,,0.177777778,-0.136111111,0,0,0,,0,5,5,347,1
,,,,,,,,,,,,,,,,,,5fbd8615d29543198393bdc7,2020-11-25_17h30.00.431,lexical_decision_task_MP_exp2,2020.2.5,Win32,60,z,1,,,,,,,,0.85448,1,,,,,,343,NW,"ID",33,aimosy,AIMOSY,z,0.85448,,,,,,0.177777778,-0.136111111,0,0,0,,0,6,6,282,1
,,,,,,,,,,,,,,,,,,5fbd8615d29543198393bdc7,2020-11-25_17h30.00.431,lexical_decision_task_MP_exp2,2020.2.5,Win32,60,m,1,,,,,,,,0.726525,1,,,,,,75,WORD,"ID",33,trophy,TROPHY,m,0.726525,,,,,,0.177777778,-0.136111111,0,0,0,,0,7,7,14,1
,,,,,,,,,,,,,,,,,,5fbd8615d29543198393bdc7,2020-11-25_17h30.00.431,lexical_decision_task_MP_exp2,2020.2.5,Win32,60,z,1,,,,,,,,0.786455,1,,,,,,296,NW,UN,16,fertic,BEINCH,z,0.786455,,,,,,0.177777778,-0.136111111,0,0,0,,0,8,8,475,1
,,,,,,,,,,,,,,,,,,5fbd8615d29543198393bdc7,2020-11-25_17h30.00.431,lexical_decision_task_MP_exp2,2020.2.5,Win32,60,z,1,,,,,,,,0.9018,1,,,,,,376,NW,"ID",16,iguare,IGUARE,z,0.9018,,,,,,0.177777778,-0.136111111,0,0,0,,0,9,9,315,1
,,,,,,,,,,,,,,,,,,5fbd8615d29543198393bdc7,2020-11-25_17h30.00.431,lexical_decision_task_MP_exp2,2020.2.5,Win32,60,m,0,,,,,,,,0.926015,0,,,,,,394,NW,"ID",16,spaqux,SPAQUX,z,0.926015,,,,,,0.177777778,-0.136111111,0,0,0,,0,10,10,333,1
,,,,,,,,,,,,,,,,,,5fbd8615d29543198393bdc7,2020-11-25_17h30.00.431,lexical_decision_task_MP_exp2,2020.2.5,Win32,60,m,1,,,,,,,,0.595235,1,,,,,,54,WORD,UN,16,stroke,RAMBLE,m,0.595235,,,,,,0.177777778,-0.136111111,0,0,0,,0,11,11,233,1
,,,,,,,,,,,,,,,,,,5fbd8615d29543198393bdc7,2020-11-25_17h30.00.431,lexical_decision_task_MP_exp2,2020.2.5,Win32,60,m,1,,,,,,,,0.63666,1,,,,,,98,WORD,"ID",33,belong,BELONG,m,0.63666,,,,,,0.177777778,-0.136111111,0,0,0,,0,12,12,37,1
,,,,,,,,,,,,,,,,,,5fbd8615d29543198393bdc7,2020-11-25_17h30.00.431,lexical_decision_task_MP_exp2,2020.2.5,Win32,60,z,1,,,,,,,,0.63669,1,,,,,,417,NW,"ID",16,earoud,EAROUD,z,0.63669,,,,,,0.177777778,-0.136111111,0,0,0,,0,13,13,356,1
,,,,,,,,,,,,,,,,,,5fbd8615d29543198393bdc7,2020-11-25_17h30.00.431,lexical_decision_task_MP_exp2,2020.2.5,Win32,60,m,1,,,,,,,,0.895545,1,,,,,,19,WORD,UN,16,breast,PATRON,m,0.895545,,,,,,0.177777778,-0.136111111,0,0,0,,0,14,14,198,1
,,,,,,,,,,,,,,,,,,5fbd8615d29543198393bdc7,2020-11-25_17h30.00.431,lexical_decision_task_MP_exp2,2020.2.5,Win32,60,m,1,,,,,,,,0.59949,1,,,,,,123,WORD,"ID",16,strike,STRIKE,m,0.59949,,,,,,0.177777778,-0.136111111,0,0,0,,0,15,15,62,1
,,,,,,,,,,,,,,,,,,5fbd8615d29543198393bdc7,2020-11-25_17h30.00.431,lexical_decision_task_MP_exp2,2020.2.5,Win32,60,m,1,,,,,,,,0.686955,1,,,,,,228,WORD,UN,33,kidney,MASTER,m,0.686955,,,,,,0.177777778,-0.136111111,0,0,0,,0,16,16,167,1
,,,,,,,,,,,,,,,,,,5fbd8615d29543198393bdc7,2020-11-25_17h30.00.431,lexical_decision_task_MP_exp2,2020.2.5,Win32,60,m,1,,,,,,,,0.7161,1,,,,,,70,WORD,"ID",33,square,SQUARE,m,0.7161,,,,,,0.177777778,-0.136111111,0,0,0,,0,17,17,9,1
,,,,,,,,,,,,,,,,,,5fbd8615d29543198393bdc7,2020-11-25_17h30.00.431,lexical_decision_task_MP_exp2,2020.2.5,Win32,60,z,1,,,,,,,,0.785265,1,,,,,,465,NW,UN,33,bafent,WHIVEX,z,0.785265,,,,,,0.177777778,-0.136111111,0,0,0,,0,18,18,404,1
,,,,,,,,,,,,,,,,,,5fbd8615d29543198393bdc7,2020-11-25_17h30.00.431,lexical_decision_task_MP_exp2,2020.2.5,Win32,60,m,0,,,,,,,,0.77013,0,,,,,,422,NW,UN,33,streld,ALCOUD,z,0.77013,,,,,,0.177777778,-0.136111111,0,0,0,,0,19,19,361,1
,,,,,,,,,,,,,,,,,,5fbd8615d29543198393bdc7,2020-11-25_17h30.00.431,lexical_decision_task_MP_exp2,2020.2.5,Win32,60,m,1,,,,,,,,0.655535,1,,,,,,83,WORD,"ID",33,result,RESULT,m,0.655535,,,,,,0.177777778,-0.136111111,0,0,0,,0,20,20,22,1
,,,,,,,,,,,,,,,,,,5fbd8615d29543198393bdc7,2020-11-25_17h30.00.431,lexical_decision_task_MP_exp2,2020.2.5,Win32,60,z,1,,,,,,,,0.751055,1,,,,,,369,NW,"ID",16,wronch,WRONCH,z,0.751055,,,,,,0.177777778,-0.136111111,0,0,0,,0,21,21,308,1
,,,,,,,,,,,,,,,,,,5fbd8615d29543198393bdc7,2020-11-25_17h30.00.431,lexical_decision_task_MP_exp2,2020.2.5,Win32,60,z,1,,,,,,,,0.83397,1,,,,,,285,NW,UN,16,reldon,PRUDGE,z,0.83397,,,,,,0.177777778,-0.136111111,0,0,0,,0,22,22,464,1
,,,,,,,,,,,,,,,,,,5fbd8615d29543198393bdc7,2020-11-25_17h30.00.431,lexical_decision_task_MP_exp2,2020.2.5,Win32,60,m,1,,,,,,,,0.751255,1,,,,,,227,WORD,UN,33,master,SELDOM,m,0.751255,,,,,,0.177777778,-0.136111111,0,0,0,,0,23,23,166,1
,,,,,,,,,,,,,,,,,,5fbd8615d29543198393bdc7,2020-11-25_17h30.00.431,lexical_decision_task_MP_exp2,2020.2.5,Win32,60,m,1,,,,,,,,0.70308,1,,,,,,115,WORD,"ID",33,guitar,GUITAR,m,0.70308,,,,,,0.177777778,-0.136111111,0,0,0,,0,24,24,54,1
,,,,,,,,,,,,,,,,,,5fbd8615d29543198393bdc7,2020-11-25_17h30.00.431,lexical_decision_task_MP_exp2,2020.2.5,Win32,60,z,1,,,,,,,,0.734185,1,,,,,,480,NW,UN,33,knisma,ROBULY,z,0.734185,,,,,,0.177777778,-0.136111111,0,0,0,,0,25,25,419,1
,,,,,,,,,,,,,,,,,,5fbd8615d29543198393bdc7,2020-11-25_17h30.00.431,lexical_decision_task_MP_exp2,2020.2.5,Win32,60,z,1,,,,,,,,0.77768,1,,,,,,333,NW,"ID",33,catrie,CATRIE,z,0.77768,,,,,,0.177777778,-0.136111111,0,0,0,,0,26,26,272,1
,,,,,,,,,,,,,,,,,,5fbd8615d29543198393bdc7,2020-11-25_17h30.00.431,lexical_decision_task_MP_exp2,2020.2.5,Win32,60,z,1,,,,,,,,0.817655,1,,,,,,331,NW,"ID",33,gilfew,GILFEW,z,0.817655,,,,,,0.177777778,-0.136111111,0,0,0,,0,27,27,270,1
,,,,,,,,,,,,,,,,,,5fbd8615d29543198393bdc7,2020-11-25_17h30.00.431,lexical_decision_task_MP_exp2,2020.2.5,Win32,60,m,1,,,,,,,,0.715055,1,,,,,,218,WORD,UN,33,bucket,SHRINK,m,0.715055,,,,,,0.177777778,-0.136111111,0,0,0,,0,28,28,157,1
,,,,,,,,,,,,,,,,,,5fbd8615d29543198393bdc7,2020-11-25_17h30.00.431,lexical_decision_task_MP_exp2,2020.2.5,Win32,60,z,1,,,,,,,,0.6678,1,,,,,,308,NW,"ID",33,psetch,PSETCH,z,0.6678,,,,,,0.177777778,-0.136111111,0,0,0,,0,29,29,247,1
,,,,,,,,,,,,,,,,,,5fbd8615d29543198393bdc7,2020-11-25_17h30.00.431,lexical_decision_task_MP_exp2,2020.2.5,Win32,60,m,0,,,,,,,,0.692355,0,,,,,,464,NW,UN,33,whivex,CHAITE,z,0.692355,,,,,,0.177777778,-0.136111111,0,0,0,,0,30,30,403,1
,,,,,,,,,,,,,,,,,,5fbd8615d29543198393bdc7,2020-11-25_17h30.00.431,lexical_decision_task_MP_exp2,2020.2.5,Win32,60,z,1,,,,,,,,0.685815,1,,,,,,304,NW,"ID",33,cludie,CLUDIE,z,0.685815,,,,,,0.177777778,-0.136111111,0,0,0,,0,31,31,243,1
,,,,,,,,,,,,,,,,,,5fbd8615d29543198393bdc7,2020-11-25_17h30.00.431,lexical_decision_task_MP_exp2,2020.2.5,Win32,60,z,1,,,,,,,,1.014465,1,,,,,,299,NW,UN,16,yarion,STURCH,z,1.014465,,,,,,0.177777778,-0.136111111,0,0,0,,0,32,32,478,1
,,,,,,,,,,,,,,,,,,5fbd8615d29543198393bdc7,2020-11-25_17h30.00.431,lexical_decision_task_MP_exp2,2020.2.5,Win32,60,z,1,,,,,,,,0.602455,1,,,,,,405,NW,"ID",16,flumni,FLUMNI,z,0.602455,,,,,,0.177777778,-0.136111111,0,0,0,,0,33,33,344,1
,,,,,,,,,,,,,,,,,,5fbd8615d29543198393bdc7,2020-11-25_17h30.00.431,lexical_decision_task_MP_exp2,2020.2.5,Win32,60,m,1,,,,,,,,0.58729,1,,,,,,221,WORD,UN,33,hinder,MASCOT,m,0.58729,,,,,,0.177777778,-0.136111111,0,0,0,,0,34,34,160,1
,,,,,,,,,,,,,,,,,,5fbd8615d29543198393bdc7,2020-11-25_17h30.00.431,lexical_decision_task_MP_exp2,2020.2.5,Win32,60,z,1,,,,,,,,0.75292,1,,,,,,407,NW,"ID",16,suiver,SUIVER,z,0.75292,,,,,,0.177777778,-0.136111111,0,0,0,,0,35,35,346,1
,,,,,,,,,,,,,,,,,,5fbd8615d29543198393bdc7,2020-11-25_17h30.00.431,lexical_decision_task_MP_exp2,2020.2.5,Win32,60,m,1,,,,,,,,0.636,1,,,,,,174,WORD,"ID",16,turkey,TURKEY,m,0.636,,,,,,0.177777778,-0.136111111,0,0,0,,0,36,36,113,1
,,,,,,,,,,,,,,,,,,5fbd8615d29543198393bdc7,2020-11-25_17h30.00.431,lexical_decision_task_MP_exp2,2020.2.5,Win32,60,m,1,,,,,,,,0.595745,1,,,,,,202,WORD,UN,33,phrase,FACTOR,m,0.595745,,,,,,0.177777778,-0.136111111,0,0,0,,0,37,37,141,1
,,,,,,,,,,,,,,,,,,5fbd8615d29543198393bdc7,2020-11-25_17h30.00.431,lexical_decision_task_MP_exp2,2020.2.5,Win32,60,z,1,,,,,,,,0.57328,1,,,,,,307,NW,"ID",33,kirafe,KIRAFE,z,0.57328,,,,,,0.177777778,-0.136111111,0,0,0,,0,38,38,246,1
,,,,,,,,,,,,,,,,,,5fbd8615d29543198393bdc7,2020-11-25_17h30.00.431,lexical_decision_task_MP_exp2,2020.2.5,Win32,60,m,1,,,,,,,,0.624275,1,,,,,,206,WORD,UN,33,wreath,TAILOR,m,0.624275,,,,,,0.177777778,-0.136111111,0,0,0,,0,39,39,145,1
,,,,,,,,,,,,,,,,,,5fbd8615d29543198393bdc7,2020-11-25_17h30.00.431,lexical_decision_task_MP_exp2,2020.2.5,Win32,60,m,0,,,,,,,,0.54605,0,,,,,,342,NW,"ID",33,randow,RANDOW,z,0.54605,,,,,,0.177777778,-0.136111111,0,0,0,,0,40,40,281,1
,,,,,,,,,,,,,,,,,,5fbd8615d29543198393bdc7,2020-11-25_17h30.00.431,lexical_decision_task_MP_exp2,2020.2.5,Win32,60,m,0,,,,,,,,0.729915,0,,,,,,403,NW,"ID",16,bruats,BRUATS,z,0.729915,,,,,,0.177777778,-0.136111111,0,0,0,,0,41,41,342,1
,,,,,,,,,,,,,,,,,,5fbd8615d29543198393bdc7,2020-11-25_17h30.00.431,lexical_decision_task_MP_exp2,2020.2.5,Win32,60,z,1,,,,,,,,0.55661,1,,,,,,269,NW,UN,16,wrimsy,ORCHET,z,0.55661,,,,,,0.177777778,-0.136111111,0,0,0,,0,42,42,448,1
,,,,,,,,,,,,,,,,,,5fbd8615d29543198393bdc7,2020-11-25_17h30.00.431,lexical_decision_task_MP_exp2,2020.2.5,Win32,60,z,0,,,,,,,,0.682655,0,,,,,,131,WORD,"ID",16,quench,QUENCH,m,0.682655,,,,,,0.177777778,-0.136111111,0,0,0,,0,43,43,70,1
,,,,,,,,,,,,,,,,,,5fbd8615d29543198393bdc7,2020-11-25_17h30.00.431,lexical_decision_task_MP_exp2,2020.2.5,Win32,60,m,1,,,,,,,,0.670675,1,,,,,,169,WORD,"ID",16,genius,GENIUS,m,0.670675,,,,,,0.177777778,-0.136111111,0,0,0,,0,44,44,108,1
,,,,,,,,,,,,,,,,,,5fbd8615d29543198393bdc7,2020-11-25_17h30.00.431,lexical_decision_task_MP_exp2,2020.2.5,Win32,60,m,1,,,,,,,,0.57121,1,,,,,,132,WORD,"ID",16,strong,STRONG,m,0.57121,,,,,,0.177777778,-0.136111111,0,0,0,,0,45,45,71,1
,,,,,,,,,,,,,,,,,,5fbd8615d29543198393bdc7,2020-11-25_17h30.00.431,lexical_decision_task_MP_exp2,2020.2.5,Win32,60,m,1,,,,,,,,0.578415,1,,,,,,229,WORD,UN,33,fringe,MOTHER,m,0.578415,,,,,,0.177777778,-0.136111111,0,0,0,,0,46,46,168,1
,,,,,,,,,,,,,,,,,,5fbd8615d29543198393bdc7,2020-11-25_17h30.00.431,lexical_decision_task_MP_exp2,2020.2.5,Win32,60,z,1,,,,,,,,0.58411,1,,,,,,427,NW,UN,33,tandly,SCHIND,z,0.58411,,,,,,0.177777778,-0.136111111,0,0,0,,0,47,47,366,1
,,,,,,,,,,,,,,,,,,5fbd8615d29543198393bdc7,2020-11-25_17h30.00.431,lexical_decision_task_MP_exp2,2020.2.5,Win32,60,z,1,,,,,,,,0.725465,1,,,,,,434,NW,UN,33,impurb,PITROM,z,0.725465,,,,,,0.177777778,-0.136111111,0,0,0,,0,48,48,373,1
,,,,,,,,,,,,,,,,,,5fbd8615d29543198393bdc7,2020-11-25_17h30.00.431,lexical_decision_task_MP_exp2,2020.2.5,Win32,60,z,1,,,,,,,,0.779455,1,,,,,,310,NW,"ID",33,daniet,DANIET,z,0.779455,,,,,,0.177777778,-0.136111111,0,0,0,,0,49,49,249,1
,,,,,,,,,,,,,,,,,,5fbd8615d29543198393bdc7,2020-11-25_17h30.00.431,lexical_decision_task_MP_exp2,2020.2.5,Win32,60,z,1,,,,,,,,0.77465,1,,,,,,244,NW,UN,16,anougs,EATRIC,z,0.77465,,,,,,0.177777778,-0.136111111,0,0,0,,0,50,50,423,1
,,,,,,,,,,,,,,,,,,5fbd8615d29543198393bdc7,2020-11-25_17h30.00.431,lexical_decision_task_MP_exp2,2020.2.5,Win32,60,z,1,,,,,,,,0.750155,1,,,,,,399,NW,"ID",16,fouret,FOURET,z,0.750155,,,,,,0.177777778,-0.136111111,0,0,0,,0,51,51,338,1
,,,,,,,,,,,,,,,,,,5fbd8615d29543198393bdc7,2020-11-25_17h30.00.431,lexical_decision_task_MP_exp2,2020.2.5,Win32,60,m,1,,,,,,,,0.668295,1,,,,,,91,WORD,"ID",33,expand,EXPAND,m,0.668295,,,,,,0.177777778,-0.136111111,0,0,0,,0,52,52,30,1
,,,,,,,,,,,,,,,,,,5fbd8615d29543198393bdc7,2020-11-25_17h30.00.431,lexical_decision_task_MP_exp2,2020.2.5,Win32,60,z,1,,,,,,,,0.922475,1,,,,,,416,NW,"ID",16,pathel,PATHEL,z,0.922475,,,,,,0.177777778,-0.136111111,0,0,0,,0,53,53,355,1
,,,,,,,,,,,,,,,,,,5fbd8615d29543198393bdc7,2020-11-25_17h30.00.431,lexical_decision_task_MP_exp2,2020.2.5,Win32,60,z,1,,,,,,,,0.63581,1,,,,,,445,NW,UN,33,runamo,MINKEL,z,0.63581,,,,,,0.177777778,-0.136111111,0,0,0,,0,54,54,384,1
,,,,,,,,,,,,,,,,,,5fbd8615d29543198393bdc7,2020-11-25_17h30.00.431,lexical_decision_task_MP_exp2,2020.2.5,Win32,60,z,1,,,,,,,,0.68398,1,,,,,,313,NW,"ID",33,paurse,PAURSE,z,0.68398,,,,,,0.177777778,-0.136111111,0,0,0,,0,55,55,252,1
,,,,,,,,,,,,,,,,,,5fbd8615d29543198393bdc7,2020-11-25_17h30.00.431,lexical_decision_task_MP_exp2,2020.2.5,Win32,60,z,0,,,,,,,,0.62198,0,,,,,,74,WORD,"ID",33,plaque,PLAQUE,m,0.62198,,,,,,0.177777778,-0.136111111,0,0,0,,0,56,56,13,1
,,,,,,,,,,,,,,,,,,5fbd8615d29543198393bdc7,2020-11-25_17h30.00.431,lexical_decision_task_MP_exp2,2020.2.5,Win32,60,z,1,,,,,,,,0.633365,1,,,,,,290,NW,UN,16,pretch,SPLINO,z,0.633365,,,,,,0.177777778,-0.136111111,0,0,0,,0,57,57,469,1
,,,,,,,,,,,,,,,,,,5fbd8615d29543198393bdc7,2020-11-25_17h30.00.431,lexical_decision_task_MP_exp2,2020.2.5,Win32,60,m,1,,,,,,,,0.56819,1,,,,,,32,WORD,UN,16,scream,BUCKLE,m,0.56819,,,,,,0.177777778,-0.136111111,0,0,0,,0,58,58,211,1
,,,,,,,,,,,,,,,,,,5fbd8615d29543198393bdc7,2020-11-25_17h30.00.431,lexical_decision_task_MP_exp2,2020.2.5,Win32,60,z,1,,,,,,,,0.81697,1,,,,,,474,NW,UN,33,acrise,HABLIN,z,0.81697,,,,,,0.177777778,-0.136111111,0,0,0,,0,59,59,413,1
,,,,,,,,,,,,,,,,,,5fbd8615d29543198393bdc7,2020-11-25_17h30.00.431,lexical_decision_task_MP_exp2,2020.2.5,Win32,60,m,1,,,,,,,,0.642765,1,,,,,,61,WORD,"ID",33,ponder,PONDER,m,0.642765,,,,,,0.177777778,-0.136111111,0,0,0,,0,60,60,0,1
,,,,,,,,,,,,,,,,,,5fbd8615d29543198393bdc7,2020-11-25_17h30.00.431,lexical_decision_task_MP_exp2,2020.2.5,Win32,60,z,1,,,,,,,,0.69498,1,,,,,,397,NW,"ID",16,camble,CAMBLE,z,0.69498,,,,,,0.177777778,-0.136111111,0,0,0,,0,61,61,336,1
,,,,,,,,,,,,,,,,,,5fbd8615d29543198393bdc7,2020-11-25_17h30.00.431,lexical_decision_task_MP_exp2,2020.2.5,Win32,60,m,1,,,,,,,,0.643095,1,,,,,,56,WORD,UN,16,change,AMBUSH,m,0.643095,,,,,,0.177777778,-0.136111111,0,0,0,,0,62,62,235,1
,,,,,,,,,,,,,,,,,,5fbd8615d29543198393bdc7,2020-11-25_17h30.00.431,lexical_decision_task_MP_exp2,2020.2.5,Win32,60,z,1,,,,,,,,0.65161,1,,,,,,386,NW,"ID",16,ancust,ANCUST,z,0.65161,,,,,,0.177777778,-0.136111111,0,0,0,,0,63,63,325,1
,,,,,,,,,,,,,,,,,,5fbd8615d29543198393bdc7,2020-11-25_17h30.00.431,lexical_decision_task_MP_exp2,2020.2.5,Win32,60,m,1,,,,,,,,0.73415,1,,,,,,211,WORD,UN,33,verify,INFECT,m,0.73415,,,,,,0.177777778,-0.136111111,0,0,0,,0,64,64,150,1
,,,,,,,,,,,,,,,,,,5fbd8615d29543198393bdc7,2020-11-25_17h30.00.431,lexical_decision_task_MP_exp2,2020.2.5,Win32,60,z,1,,,,,,,,0.70557,1,,,,,,462,NW,UN,33,kispel,ABSULT,z,0.70557,,,,,,0.177777778,-0.136111111,0,0,0,,0,65,65,401,1
,,,,,,,,,,,,,,,,,,5fbd8615d29543198393bdc7,2020-11-25_17h30.00.431,lexical_decision_task_MP_exp2,2020.2.5,Win32,60,m,1,,,,,,,,0.616265,1,,,,,,88,WORD,"ID",33,hunger,HUNGER,m,0.616265,,,,,,0.177777778,-0.136111111,0,0,0,,0,66,66,27,1
,,,,,,,,,,,,,,,,,,5fbd8615d29543198393bdc7,2020-11-25_17h30.00.431,lexical_decision_task_MP_exp2,2020.2.5,Win32,60,z,1,,,,,,,,0.68629,1,,,,,,289,NW,UN,16,splino,STARBY,z,0.68629,,,,,,0.177777778,-0.136111111,0,0,0,,0,67,67,468,1
,,,,,,,,,,,,,,,,,,5fbd8615d29543198393bdc7,2020-11-25_17h30.00.431,lexical_decision_task_MP_exp2,2020.2.5,Win32,60,z,1,,,,,,,,0.622635,1,,,,,,414,NW,"ID",16,serbol,SERBOL,z,0.622635,,,,,,0.177777778,-0.136111111,0,0,0,,0,68,68,353,1
,,,,,,,,,,,,,,,,,,5fbd8615d29543198393bdc7,2020-11-25_17h30.00.431,lexical_decision_task_MP_exp2,2020.2.5,Win32,60,m,1,,,,,,,,0.542355,1,,,,,,41,WORD,UN,16,chapel,SPRING,m,0.542355,,,,,,0.177777778,-0.136111111,0,0,0,,0,69,69,220,1
,,,,,,,,,,,,,,,,,,5fbd8615d29543198393bdc7,2020-11-25_17h30.00.431,lexical_decision_task_MP_exp2,2020.2.5,Win32,60,z,0,,,,,,,,0.50631,0,,,,,,146,WORD,"ID",16,couple,COUPLE,m,0.50631,,,,,,0.177777778,-0.136111111,0,0,0,,0,70,70,85,1
,,,,,,,,,,,,,,,,,,5fbd8615d29543198393bdc7,2020-11-25_17h30.00.431,lexical_decision_task_MP_exp2,2020.2.5,Win32,60,m,0,,,,,,,,0.601055,0,,,,,,303,NW,"ID",33,fiream,FIREAM,z,0.601055,,,,,,0.177777778,-0.136111111,0,0,0,,0,71,71,242,1
,,,,,,,,,,,,,,,,,,5fbd8615d29543198393bdc7,2020-11-25_17h30.00.431,lexical_decision_task_MP_exp2,2020.2.5,Win32,60,z,1,,,,,,,,0.65069,1,,,,,,366,NW,"ID",16,toshel,TOSHEL,z,0.65069,,,,,,0.177777778,-0.136111111,0,0,0,,0,72,72,305,1
,,,,,,,,,,,,,,,,,,5fbd8615d29543198393bdc7,2020-11-25_17h30.00.431,lexical_decision_task_MP_exp2,2020.2.5,Win32,60,m,0,,,,,,,,0.82325,0,,,,,,435,NW,UN,33,frutan,IMPURB,z,0.82325,,,,,,0.177777778,-0.136111111,0,0,0,,0,73,73,374,1
,,,,,,,,,,,,,,,,,,5fbd8615d29543198393bdc7,2020-11-25_17h30.00.431,lexical_decision_task_MP_exp2,2020.2.5,Win32,60,z,1,,,,,,,,0.88477,1,,,,,,360,NW,"ID",33,desory,DESORY,z,0.88477,,,,,,0.177777778,-0.136111111,0,0,0,,0,74,74,299,1
,,,,,,,,,,,,,,,,,,5fbd8615d29543198393bdc7,2020-11-25_17h30.00.431,lexical_decision_task_MP_exp2,2020.2.5,Win32,60,m,1,,,,,,,,0.606555,1,,,,,,65,WORD,"ID",33,symbol,SYMBOL,m,0.606555,,,,,,0.177777778,-0.136111111,0,0,0,,0,75,75,4,1
,,,,,,,,,,,,,,,,,,5fbd8615d29543198393bdc7,2020-11-25_17h30.00.431,lexical_decision_task_MP_exp2,2020.2.5,Win32,60,m,1,,,,,,,,0.57065,1,,,,,,220,WORD,UN,33,mascot,VOYAGE,m,0.57065,,,,,,0.177777778,-0.136111111,0,0,0,,0,76,76,159,1
,,,,,,,,,,,,,,,,,,5fbd8615d29543198393bdc7,2020-11-25_17h30.00.431,lexical_decision_task_MP_exp2,2020.2.5,Win32,60,m,1,,,,,,,,0.633735,1,,,,,,14,WORD,UN,16,orange,ALMOST,m,0.633735,,,,,,0.177777778,-0.136111111,0,0,0,,0,77,77,193,1
,,,,,,,,,,,,,,,,,,5fbd8615d29543198393bdc7,2020-11-25_17h30.00.431,lexical_decision_task_MP_exp2,2020.2.5,Win32,60,z,1,,,,,,,,0.697055,1,,,,,,264,NW,UN,16,distar,VACKEL,z,0.697055,,,,,,0.177777778,-0.136111111,0,0,0,,0,78,78,443,1
,,,,,,,,,,,,,,,,,,5fbd8615d29543198393bdc7,2020-11-25_17h30.00.431,lexical_decision_task_MP_exp2,2020.2.5,Win32,60,z,1,,,,,,,,0.805225,1,,,,,,335,NW,"ID",33,desion,DESION,z,0.805225,,,,,,0.177777778,-0.136111111,0,0,0,,0,79,79,274,1
,,,,,,,,,,,,,,,,,,5fbd8615d29543198393bdc7,2020-11-25_17h30.00.431,lexical_decision_task_MP_exp2,2020.2.5,Win32,60,z,1,,,,,,,,0.820425,1,,,,,,305,NW,"ID",33,forgle,FORGLE,z,0.820425,,,,,,0.177777778,-0.136111111,0,0,0,,0,80,80,244,1
,,,,,,,,,,,,,,,,,,5fbd8615d29543198393bdc7,2020-11-25_17h30.00.431,lexical_decision_task_MP_exp2,2020.2.5,Win32,60,z,0,,,,,,,,0.68337,0,,,,,,161,WORD,"ID",16,pastor,PASTOR,m,0.68337,,,,,,0.177777778,-0.136111111,0,0,0,,0,81,81,100,1
,,,,,,,,,,,,,,,,,,5fbd8615d29543198393bdc7,2020-11-25_17h30.00.431,lexical_decision_task_MP_exp2,2020.2.5,Win32,60,z,1,,,,,,,,0.754235,1,,,,,,336,NW,"ID",33,ghodus,GHODUS,z,0.754235,,,,,,0.177777778,-0.136111111,0,0,0,,0,82,82,275,1
,,,,,,,,,,,,,,,,,,5fbd8615d29543198393bdc7,2020-11-25_17h30.00.431,lexical_decision_task_MP_exp2,2020.2.5,Win32,60,m,1,,,,,,,,0.688315,1,,,,,,217,WORD,UN,33,shrink,LIQUOR,m,0.688315,,,,,,0.177777778,-0.136111111,0,0,0,,0,83,83,156,1
,,,,,,,,,,,,,,,,,,5fbd8615d29543198393bdc7,2020-11-25_17h30.00.431,lexical_decision_task_MP_exp2,2020.2.5,Win32,60,m,1,,,,,,,,0.558425,1,,,,,,110,WORD,"ID",33,polite,POLITE,m,0.558425,,,,,,0.177777778,-0.136111111,0,0,0,,0,84,84,49,1
,,,,,,,,,,,,,,,,,,5fbd8615d29543198393bdc7,2020-11-25_17h30.00.431,lexical_decision_task_MP_exp2,2020.2.5,Win32,60,m,1,,,,,,,,0.723045,1,,,,,,172,WORD,"ID",16,patrol,PATROL,m,0.723045,,,,,,0.177777778,-0.136111111,0,0,0,,0,85,85,111,1
,,,,,,,,,,,,,,,,,,5fbd8615d29543198393bdc7,2020-11-25_17h30.00.431,lexical_decision_task_MP_exp2,2020.2.5,Win32,60,z,1,,,,,,,,0.6882,1,,,,,,463,NW,UN,33,chaite,KISPEL,z,0.6882,,,,,,0.177777778,-0.136111111,0,0,0,,0,86,86,402,1
,,,,,,,,,,,,,,,,,,5fbd8615d29543198393bdc7,2020-11-25_17h30.00.431,lexical_decision_task_MP_exp2,2020.2.5,Win32,60,m,1,,,,,,,,0.631975,1,,,,,,173,WORD,"ID",16,shower,SHOWER,m,0.631975,,,,,,0.177777778,-0.136111111,0,0,0,,0,87,87,112,1
,,,,,,,,,,,,,,,,,,5fbd8615d29543198393bdc7,2020-11-25_17h30.00.431,lexical_decision_task_MP_exp2,2020.2.5,Win32,60,m,1,,,,,,,,0.601675,1,,,,,,133,WORD,"ID",16,chrome,CHROME,m,0.601675,,,,,,0.177777778,-0.136111111,0,0,0,,0,88,88,72,1
,,,,,,,,,,,,,,,,,,5fbd8615d29543198393bdc7,2020-11-25_17h30.00.431,lexical_decision_task_MP_exp2,2020.2.5,Win32,60,m,1,,,,,,,,0.68943,1,,,,,,36,WORD,UN,16,insult,VANISH,m,0.68943,,,,,,0.177777778,-0.136111111,0,0,0,,0,89,89,215,1
,,,,,,,,,,,,,,,,,,5fbd8615d29543198393bdc7,2020-11-25_17h30.00.431,lexical_decision_task_MP_exp2,2020.2.5,Win32,60,z,1,,,,,,,,0.73384,1,,,,,,250,NW,UN,16,lupict,MILTED,z,0.73384,,,,,,0.177777778,-0.136111111,0,0,0,,0,90,90,429,1
,,,,,,,,,,,,,,,,,,5fbd8615d29543198393bdc7,2020-11-25_17h30.00.431,lexical_decision_task_MP_exp2,2020.2.5,Win32,60,z,1,,,,,,,,0.73518,1,,,,,,468,NW,UN,33,padifs,WICTOR,z,0.73518,,,,,,0.177777778,-0.136111111,0,0,0,,0,91,91,407,1
,,,,,,,,,,,,,,,,,,5fbd8615d29543198393bdc7,2020-11-25_17h30.00.431,lexical_decision_task_MP_exp2,2020.2.5,Win32,60,z,1,,,,,,,,0.80691,1,,,,,,382,NW,"ID",16,sarley,SARLEY,z,0.80691,,,,,,0.177777778,-0.136111111,0,0,0,,0,92,92,321,1
,,,,,,,,,,,,,,,,,,5fbd8615d29543198393bdc7,2020-11-25_17h30.00.431,lexical_decision_task_MP_exp2,2020.2.5,Win32,60,m,1,,,,,,,,0.87248,1,,,,,,171,WORD,"ID",16,depart,DEPART,m,0.87248,,,,,,0.177777778,-0.136111111,0,0,0,,0,93,93,110,1
,,,,,,,,,,,,,,,,,,5fbd8615d29543198393bdc7,2020-11-25_17h30.00.431,lexical_decision_task_MP_exp2,2020.2.5,Win32,60,z,1,,,,,,,,0.80324,1,,,,,,279,NW,UN,16,curbol,CELOND,z,0.80324,,,,,,0.177777778,-0.136111111,0,0,0,,0,94,94,458,1
,,,,,,,,,,,,,,,,,,5fbd8615d29543198393bdc7,2020-11-25_17h30.00.431,lexical_decision_task_MP_exp2,2020.2.5,Win32,60,m,1,,,,,,,,0.629385,1,,,,,,72,WORD,"ID",33,bright,BRIGHT,m,0.629385,,,,,,0.177777778,-0.136111111,0,0,0,,0,95,95,11,1
,,,,,,,,,,,,,,,,,,5fbd8615d29543198393bdc7,2020-11-25_17h30.00.431,lexical_decision_task_MP_exp2,2020.2.5,Win32,60,m,1,,,,,,,,0.65651,1,,,,,,67,WORD,"ID",33,policy,POLICY,m,0.65651,,,,,,0.177777778,-0.136111111,0,0,0,,0,96,96,6,1
,,,,,,,,,,,,,,,,,,5fbd8615d29543198393bdc7,2020-11-25_17h30.00.431,lexical_decision_task_MP_exp2,2020.2.5,Win32,60,m,0,,,,,,,,0.75247,0,,,,,,357,NW,"ID",33,derain,DERAIN,z,0.75247,,,,,,0.177777778,-0.136111111,0,0,0,,0,97,97,296,1
,,,,,,,,,,,,,,,,,,5fbd8615d29543198393bdc7,2020-11-25_17h30.00.431,lexical_decision_task_MP_exp2,2020.2.5,Win32,60,z,1,,,,,,,,0.89231,1,,,,,,242,NW,UN,16,musied,UNWERT,z,0.89231,,,,,,0.177777778,-0.136111111,0,0,0,,0,98,98,421,1
,,,,,,,,,,,,,,,,,,5fbd8615d29543198393bdc7,2020-11-25_17h30.00.431,lexical_decision_task_MP_exp2,2020.2.5,Win32,60,z,1,,,,,,,,0.97313,1,,,,,,418,NW,"ID",16,suidle,SUIDLE,z,0.97313,,,,,,0.177777778,-0.136111111,0,0,0,,0,99,99,357,1
,,,,,,,,,,,,,,,,,,5fbd8615d29543198393bdc7,2020-11-25_17h30.00.431,lexical_decision_task_MP_exp2,2020.2.5,Win32,60,z,1,,,,,,,,0.73677,1,,,,,,287,NW,UN,16,yaceup,NYMBEL,z,0.73677,,,,,,0.177777778,-0.136111111,0,0,0,,0,100,100,466,1
,,,,,,,,,,,,,,,,,,5fbd8615d29543198393bdc7,2020-11-25_17h30.00.431,lexical_decision_task_MP_exp2,2020.2.5,Win32,60,m,1,,,,,,,,0.599925,1,,,,,,141,WORD,"ID",16,orphan,ORPHAN,m,0.599925,,,,,,0.177777778,-0.136111111,0,0,0,,0,101,101,80,1
,,,,,,,,,,,,,,,,,,5fbd8615d29543198393bdc7,2020-11-25_17h30.00.431,lexical_decision_task_MP_exp2,2020.2.5,Win32,60,m,1,,,,,,,,0.60545,1,,,,,,24,WORD,UN,16,domain,PRAISE,m,0.60545,,,,,,0.177777778,-0.136111111,0,0,0,,0,102,102,203,1
,,,,,,,,,,,,,,,,,,5fbd8615d29543198393bdc7,2020-11-25_17h30.00.431,lexical_decision_task_MP_exp2,2020.2.5,Win32,60,m,1,,,,,,,,0.70419,1,,,,,,85,WORD,"ID",33,sprawl,SPRAWL,m,0.70419,,,,,,0.177777778,-0.136111111,0,0,0,,0,103,103,24,1
,,,,,,,,,,,,,,,,,,5fbd8615d29543198393bdc7,2020-11-25_17h30.00.431,lexical_decision_task_MP_exp2,2020.2.5,Win32,60,z,1,,,,,,,,0.719365,1,,,,,,423,NW,UN,33,praile,STRELD,z,0.719365,,,,,,0.177777778,-0.136111111,0,0,0,,0,104,104,362,1
,,,,,,,,,,,,,,,,,,5fbd8615d29543198393bdc7,2020-11-25_17h30.00.431,lexical_decision_task_MP_exp2,2020.2.5,Win32,60,z,1,,,,,,,,0.68199,1,,,,,,446,NW,UN,33,gircue,RUNAMO,z,0.68199,,,,,,0.177777778,-0.136111111,0,0,0,,0,105,105,385,1
,,,,,,,,,,,,,,,,,,5fbd8615d29543198393bdc7,2020-11-25_17h30.00.431,lexical_decision_task_MP_exp2,2020.2.5,Win32,60,z,1,,,,,,,,0.71793,1,,,,,,356,NW,"ID",33,othnis,OTHNIS,z,0.71793,,,,,,0.177777778,-0.136111111,0,0,0,,0,106,106,295,1
,,,,,,,,,,,,,,,,,,5fbd8615d29543198393bdc7,2020-11-25_17h30.00.431,lexical_decision_task_MP_exp2,2020.2.5,Win32,60,z,1,,,,,,,,0.71148,1,,,,,,329,NW,"ID",33,yarike,YARIKE,z,0.71148,,,,,,0.177777778,-0.136111111,0,0,0,,0,107,107,268,1
,,,,,,,,,,,,,,,,,,5fbd8615d29543198393bdc7,2020-11-25_17h30.00.431,lexical_decision_task_MP_exp2,2020.2.5,Win32,60,m,1,,,,,,,,0.586385,1,,,,,,185,WORD,UN,33,portal,BOTHER,m,0.586385,,,,,,0.177777778,-0.136111111,0,0,0,,0,108,108,124,1
,,,,,,,,,,,,,,,,,,5fbd8615d29543198393bdc7,2020-11-25_17h30.00.431,lexical_decision_task_MP_exp2,2020.2.5,Win32,60,z,1,,,,,,,,0.857445,1,,,,,,253,NW,UN,16,varosh,RESAIT,z,0.857445,,,,,,0.177777778,-0.136111111,0,0,0,,0,109,109,432,1
,,,,,,,,,,,,,,,,,,5fbd8615d29543198393bdc7,2020-11-25_17h30.00.431,lexical_decision_task_MP_exp2,2020.2.5,Win32,60,m,1,,,,,,,,0.606075,1,,,,,,166,WORD,"ID",16,starch,STARCH,m,0.606075,,,,,,0.177777778,-0.136111111,0,0,0,,0,110,110,105,1
,,,,,,,,,,,,,,,,,,5fbd8615d29543198393bdc7,2020-11-25_17h30.00.431,lexical_decision_task_MP_exp2,2020.2.5,Win32,60,z,1,,,,,,,,0.7754,1,,,,,,345,NW,"ID",33,absend,ABSEND,z,0.7754,,,,,,0.177777778,-0.136111111,0,0,0,,0,111,111,284,1
,,,,,,,,,,,,,,,,,,5fbd8615d29543198393bdc7,2020-11-25_17h30.00.431,lexical_decision_task_MP_exp2,2020.2.5,Win32,60,m,1,,,,,,,,0.706715,1,,,,,,194,WORD,UN,33,resign,ABSENT,m,0.706715,,,,,,0.177777778,-0.136111111,0,0,0,,0,112,112,133,1
,,,,,,,,,,,,,,,,,,5fbd8615d29543198393bdc7,2020-11-25_17h30.00.431,lexical_decision_task_MP_exp2,2020.2.5,Win32,60,m,1,,,,,,,,0.683955,1,,,,,,138,WORD,"ID",16,melody,MELODY,m,0.683955,,,,,,0.177777778,-0.136111111,0,0,0,,0,113,113,77,1
,,,,,,,,,,,,,,,,,,5fbd8615d29543198393bdc7,2020-11-25_17h30.00.431,lexical_decision_task_MP_exp2,2020.2.5,Win32,60,z,0,,,,,,,,1.0917,0,,,,,,57,WORD,UN,16,danger,CHANGE,m,1.0917,,,,,,0.177777778,-0.136111111,0,0,0,,0,114,114,236,1
,,,,,,,,,,,,,,,,,,5fbd8615d29543198393bdc7,2020-11-25_17h30.00.431,lexical_decision_task_MP_exp2,2020.2.5,Win32,60,m,0,,,,,,,,0.67577,0,,,,,,280,NW,UN,16,melaty,CURBOL,z,0.67577,,,,,,0.177777778,-0.136111111,0,0,0,,0,115,115,459,1
,,,,,,,,,,,,,,,,,,5fbd8615d29543198393bdc7,2020-11-25_17h30.00.431,lexical_decision_task_MP_exp2,2020.2.5,Win32,60,m,1,,,,,,,,0.60605,1,,,,,,55,WORD,UN,16,ambush,STROKE,m,0.60605,,,,,,0.177777778,-0.136111111,0,0,0,,0,116,116,234,1
,,,,,,,,,,,,,,,,,,5fbd8615d29543198393bdc7,2020-11-25_17h30.00.431,lexical_decision_task_MP_exp2,2020.2.5,Win32,60,m,0,,,,,,,,1.072905,0,,,,,,268,NW,UN,16,orchet,PACKES,z,1.072905,,,,,,0.177777778,-0.136111111,0,0,0,,0,117,117,447,1
,,,,,,,,,,,,,,,,,,5fbd8615d29543198393bdc7,2020-11-25_17h30.00.431,lexical_decision_task_MP_exp2,2020.2.5,Win32,60,m,1,,,,,,,,0.805385,1,,,,,,42,WORD,UN,16,tongue,CHAPEL,m,0.805385,,,,,,0.177777778,-0.136111111,0,0,0,,0,118,118,221,1
,,,,,,,,,,,,,,,,,,5fbd8615d29543198393bdc7,2020-11-25_17h30.00.431,lexical_decision_task_MP_exp2,2020.2.5,Win32,60,m,1,,,,,,,,0.686695,1,,,,,,182,WORD,UN,33,absent,WINTER,m,0.686695,,,,,,0.177777778,-0.136111111,0,0,0,,0,119,119,121,1
,,,,,,,,,,,,,,,,,,5fbd8615d29543198393bdc7,2020-11-25_17h30.00.431,lexical_decision_task_MP_exp2,2020.2.5,Win32,60,m,1,,,,,,,,0.597725,1,,,,,,210,WORD,UN,33,infect,MONKEY,m,0.597725,,,,,,0.177777778,-0.136111111,0,0,0,,0,120,120,149,1
,,,,,,,,,,,,,,,,,,5fbd8615d29543198393bdc7,2020-11-25_17h30.00.431,lexical_decision_task_MP_exp2,2020.2.5,Win32,60,m,1,,,,,,,,0.576485,1,,,,,,104,WORD,"ID",33,studio,STUDIO,m,0.576485,,,,,,0.177777778,-0.136111111,0,0,0,,0,121,121,43,1
,,,,,,,,,,,,,,,,,,5fbd8615d29543198393bdc7,2020-11-25_17h30.00.431,lexical_decision_task_MP_exp2,2020.2.5,Win32,60,z,1,,,,,,,,0.811335,1,,,,,,326,NW,"ID",33,iguade,IGUADE,z,0.811335,,,,,,0.177777778,-0.136111111,0,0,0,,0,122,122,265,1
,,,,,,,,,,,,,,,,,,5fbd8615d29543198393bdc7,2020-11-25_17h30.00.431,lexical_decision_task_MP_exp2,2020.2.5,Win32,60,z,1,,,,,,,,0.84157,1,,,,,,359,NW,"ID",33,fonver,FONVER,z,0.84157,,,,,,0.177777778,-0.136111111,0,0,0,,0,123,123,298,1
,,,,,,,,,,,,,,,,,,5fbd8615d29543198393bdc7,2020-11-25_17h30.00.431,lexical_decision_task_MP_exp2,2020.2.5,Win32,60,z,1,,,,,,,,0.708915,1,,,,,,251,NW,UN,16,stapod,LUPICT,z,0.708915,,,,,,0.177777778,-0.136111111,0,0,0,,0,124,124,430,1
,,,,,,,,,,,,,,,,,,5fbd8615d29543198393bdc7,2020-11-25_17h30.00.431,lexical_decision_task_MP_exp2,2020.2.5,Win32,60,z,1,,,,,,,,0.70666,1,,,,,,420,NW,"ID",16,gushop,GUSHOP,z,0.70666,,,,,,0.177777778,-0.136111111,0,0,0,,0,125,125,359,1
,,,,,,,,,,,,,,,,,,5fbd8615d29543198393bdc7,2020-11-25_17h30.00.431,lexical_decision_task_MP_exp2,2020.2.5,Win32,60,z,1,,,,,,,,1.192395,1,,,,,,363,NW,"ID",16,breali,BREALI,z,1.192395,,,,,,0.177777778,-0.136111111,0,0,0,,0,126,126,302,1
,,,,,,,,,,,,,,,,,,5fbd8615d29543198393bdc7,2020-11-25_17h30.00.431,lexical_decision_task_MP_exp2,2020.2.5,Win32,60,m,1,,,,,,,,0.62556,1,,,,,,116,WORD,"ID",33,tumble,TUMBLE,m,0.62556,,,,,,0.177777778,-0.136111111,0,0,0,,0,127,127,55,1
,,,,,,,,,,,,,,,,,,5fbd8615d29543198393bdc7,2020-11-25_17h30.00.431,lexical_decision_task_MP_exp2,2020.2.5,Win32,60,m,0,,,,,,,,1.07529,0,,,,,,318,NW,"ID",33,reagly,REAGLY,z,1.07529,,,,,,0.177777778,-0.136111111,0,0,0,,0,128,128,257,1
,,,,,,,,,,,,,,,,,,5fbd8615d29543198393bdc7,2020-11-25_17h30.00.431,lexical_decision_task_MP_exp2,2020.2.5,Win32,60,m,1,,,,,,,,1.265265,1,,,,,,186,WORD,UN,33,course,PORTAL,m,1.265265,,,,,,0.177777778,-0.136111111,0,0,0,,0,129,129,125,1
,,,,,,,,,,,,,,,,,,5fbd8615d29543198393bdc7,2020-11-25_17h30.00.431,lexical_decision_task_MP_exp2,2020.2.5,Win32,60,z,1,,,,,,,,0.75343,1,,,,,,379,NW,"ID",16,auting,AUTING,z,0.75343,,,,,,0.177777778,-0.136111111,0,0,0,,0,130,130,318,1
,,,,,,,,,,,,,,,,,,5fbd8615d29543198393bdc7,2020-11-25_17h30.00.431,lexical_decision_task_MP_exp2,2020.2.5,Win32,60,m,1,,,,,,,,0.89895,1,,,,,,99,WORD,"ID",33,fluent,FLUENT,m,0.89895,,,,,,0.177777778,-0.136111111,0,0,0,,0,131,131,38,1
,,,,,,,,,,,,,,,,,,5fbd8615d29543198393bdc7,2020-11-25_17h30.00.431,lexical_decision_task_MP_exp2,2020.2.5,Win32,60,z,1,,,,,,,,0.81446,1,,,,,,311,NW,"ID",33,sproly,SPROLY,z,0.81446,,,,,,0.177777778,-0.136111111,0,0,0,,0,132,132,250,1
,,,,,,,,,,,,,,,,,,5fbd8615d29543198393bdc7,2020-11-25_17h30.00.431,lexical_decision_task_MP_exp2,2020.2.5,Win32,60,m,1,,,,,,,,0.96547,1,,,,,,184,WORD,UN,33,bother,SLEAZY,m,0.96547,,,,,,0.177777778,-0.136111111,0,0,0,,0,133,133,123,1
,,,,,,,,,,,,,,,,,,5fbd8615d29543198393bdc7,2020-11-25_17h30.00.431,lexical_decision_task_MP_exp2,2020.2.5,Win32,60,z,1,,,,,,,,0.91931,1,,,,,,256,NW,UN,16,veniod,INLORS,z,0.91931,,,,,,0.177777778,-0.136111111,0,0,0,,0,134,134,435,1
,,,,,,,,,,,,,,,,,,5fbd8615d29543198393bdc7,2020-11-25_17h30.00.431,lexical_decision_task_MP_exp2,2020.2.5,Win32,60,z,1,,,,,,,,0.76581,1,,,,,,479,NW,UN,33,crible,LOBUSH,z,0.76581,,,,,,0.177777778,-0.136111111,0,0,0,,0,135,135,418,1
,,,,,,,,,,,,,,,,,,5fbd8615d29543198393bdc7,2020-11-25_17h30.00.431,lexical_decision_task_MP_exp2,2020.2.5,Win32,60,m,1,,,,,,,,0.668115,1,,,,,,165,WORD,"ID",16,invest,INVEST,m,0.668115,,,,,,0.177777778,-0.136111111,0,0,0,,0,136,136,104,1
,,,,,,,,,,,,,,,,,,5fbd8615d29543198393bdc7,2020-11-25_17h30.00.431,lexical_decision_task_MP_exp2,2020.2.5,Win32,60,z,1,,,,,,,,0.752685,1,,,,,,339,NW,"ID",33,fachow,FACHOW,z,0.752685,,,,,,0.177777778,-0.136111111,0,0,0,,0,137,137,278,1
,,,,,,,,,,,,,,,,,,5fbd8615d29543198393bdc7,2020-11-25_17h30.00.431,lexical_decision_task_MP_exp2,2020.2.5,Win32,60,z,1,,,,,,,,0.92295,1,,,,,,327,NW,"ID",33,plenac,PLENAC,z,0.92295,,,,,,0.177777778,-0.136111111,0,0,0,,0,138,138,266,1
,,,,,,,,,,,,,,,,,,5fbd8615d29543198393bdc7,2020-11-25_17h30.00.431,lexical_decision_task_MP_exp2,2020.2.5,Win32,60,m,1,,,,,,,,0.92434,1,,,,,,15,WORD,UN,16,faucet,AMOUNT,m,0.92434,,,,,,0.177777778,-0.136111111,0,0,0,,0,139,139,194,1
,,,,,,,,,,,,,,,,,,5fbd8615d29543198393bdc7,2020-11-25_17h30.00.431,lexical_decision_task_MP_exp2,2020.2.5,Win32,60,z,1,,,,,,,,1.035045,1,,,,,,245,NW,UN,16,piaton,ANOUGS,z,1.035045,,,,,,0.177777778,-0.136111111,0,0,0,,0,140,140,424,1
,,,,,,,,,,,,,,,,,,5fbd8615d29543198393bdc7,2020-11-25_17h30.00.431,lexical_decision_task_MP_exp2,2020.2.5,Win32,60,z,1,,,,,,,,0.81811,1,,,,,,362,NW,"ID",16,tireau,TIREAU,z,0.81811,,,,,,0.177777778,-0.136111111,0,0,0,,0,141,141,301,1
,,,,,,,,,,,,,,,,,,5fbd8615d29543198393bdc7,2020-11-25_17h30.00.431,lexical_decision_task_MP_exp2,2020.2.5,Win32,60,m,1,,,,,,,,0.61489,1,,,,,,94,WORD,"ID",33,travel,TRAVEL,m,0.61489,,,,,,0.177777778,-0.136111111,0,0,0,,0,142,142,33,1
,,,,,,,,,,,,,,,,,,5fbd8615d29543198393bdc7,2020-11-25_17h30.00.431,lexical_decision_task_MP_exp2,2020.2.5,Win32,60,z,1,,,,,,,,0.973195,1,,,,,,340,NW,"ID",33,fiatch,FIATCH,z,0.973195,,,,,,0.177777778,-0.136111111,0,0,0,,0,143,143,279,1
,,,,,,,,,,,,,,,,,,5fbd8615d29543198393bdc7,2020-11-25_17h30.00.431,lexical_decision_task_MP_exp2,2020.2.5,Win32,60,z,1,,,,,,,,1.56031,1,,,,,,433,NW,UN,33,pitrom,DRANCE,z,1.56031,,,,,,0.177777778,-0.136111111,0,0,0,,0,144,144,372,1
,,,,,,,,,,,,,,,,,,5fbd8615d29543198393bdc7,2020-11-25_17h30.00.431,lexical_decision_task_MP_exp2,2020.2.5,Win32,60,z,1,,,,,,,,0.733585,1,,,,,,259,NW,UN,16,unject,SOUDAL,z,0.733585,,,,,,0.177777778,-0.136111111,0,0,0,,0,145,145,438,1
,,,,,,,,,,,,,,,,,,5fbd8615d29543198393bdc7,2020-11-25_17h30.00.431,lexical_decision_task_MP_exp2,2020.2.5,Win32,60,z,1,,,,,,,,0.602735,1,,,,,,447,NW,UN,33,sadent,GIRCUE,z,0.602735,,,,,,0.177777778,-0.136111111,0,0,0,,0,146,146,386,1
,,,,,,,,,,,,,,,,,,5fbd8615d29543198393bdc7,2020-11-25_17h30.00.431,lexical_decision_task_MP_exp2,2020.2.5,Win32,60,z,1,,,,,,,,0.763705,1,,,,,,426,NW,UN,33,schind,URIVEL,z,0.763705,,,,,,0.177777778,-0.136111111,0,0,0,,0,147,147,365,1
,,,,,,,,,,,,,,,,,,5fbd8615d29543198393bdc7,2020-11-25_17h30.00.431,lexical_decision_task_MP_exp2,2020.2.5,Win32,60,z,1,,,,,,,,0.70249,1,,,,,,297,NW,UN,16,piergy,FERTIC,z,0.70249,,,,,,0.177777778,-0.136111111,0,0,0,,0,148,148,476,1
,,,,,,,,,,,,,,,,,,5fbd8615d29543198393bdc7,2020-11-25_17h30.00.431,lexical_decision_task_MP_exp2,2020.2.5,Win32,60,z,1,,,,,,,,0.851335,1,,,,,,410,NW,"ID",16,tunory,TUNORY,z,0.851335,,,,,,0.177777778,-0.136111111,0,0,0,,0,149,149,349,1
,,,,,,,,,,,,,,,,,,5fbd8615d29543198393bdc7,2020-11-25_17h30.00.431,lexical_decision_task_MP_exp2,2020.2.5,Win32,60,m,1,,,,,,,,0.60075,1,,,,,,5,WORD,UN,16,bundle,PLUNGE,m,0.60075,,,,,,0.177777778,-0.136111111,0,0,0,,0,150,150,184,1
,,,,,,,,,,,,,,,,,,5fbd8615d29543198393bdc7,2020-11-25_17h30.00.431,lexical_decision_task_MP_exp2,2020.2.5,Win32,60,m,1,,,,,,,,0.74926,1,,,,,,7,WORD,UN,16,abrupt,ANCHOR,m,0.74926,,,,,,0.177777778,-0.136111111,0,0,0,,0,151,151,186,1
,,,,,,,,,,,,,,,,,,5fbd8615d29543198393bdc7,2020-11-25_17h30.00.431,lexical_decision_task_MP_exp2,2020.2.5,Win32,60,m,1,,,,,,,,0.66856,1,,,,,,97,WORD,"ID",33,client,CLIENT,m,0.66856,,,,,,0.177777778,-0.136111111,0,0,0,,0,152,152,36,1
,,,,,,,,,,,,,,,,,,5fbd8615d29543198393bdc7,2020-11-25_17h30.00.431,lexical_decision_task_MP_exp2,2020.2.5,Win32,60,m,1,,,,,,,,0.620885,1,,,,,,106,WORD,"ID",33,ransom,RANSOM,m,0.620885,,,,,,0.177777778,-0.136111111,0,0,0,,0,153,153,45,1
,,,,,,,,,,,,,,,,,,5fbd8615d29543198393bdc7,2020-11-25_17h30.00.431,lexical_decision_task_MP_exp2,2020.2.5,Win32,60,m,1,,,,,,,,0.705815,1,,,,,,162,WORD,"ID",16,candle,CANDLE,m,0.705815,,,,,,0.177777778,-0.136111111,0,0,0,,0,154,154,101,1
,,,,,,,,,,,,,,,,,,5fbd8615d29543198393bdc7,2020-11-25_17h30.00.431,lexical_decision_task_MP_exp2,2020.2.5,Win32,60,z,1,,,,,,,,0.65884,1,,,,,,375,NW,"ID",16,yorque,YORQUE,z,0.65884,,,,,,0.177777778,-0.136111111,0,0,0,,0,155,155,314,1
,,,,,,,,,,,,,,,,,,5fbd8615d29543198393bdc7,2020-11-25_17h30.00.431,lexical_decision_task_MP_exp2,2020.2.5,Win32,60,z,1,,,,,,,,0.70078,1,,,,,,387,NW,"ID",16,gronce,GRONCE,z,0.70078,,,,,,0.177777778,-0.136111111,0,0,0,,0,156,156,326,1
,,,,,,,,,,,,,,,,,,5fbd8615d29543198393bdc7,2020-11-25_17h30.00.431,lexical_decision_task_MP_exp2,2020.2.5,Win32,60,m,1,,,,,,,,0.75227,1,,,,,,23,WORD,UN,16,praise,WEALTH,m,0.75227,,,,,,0.177777778,-0.136111111,0,0,0,,0,157,157,202,1
,,,,,,,,,,,,,,,,,,5fbd8615d29543198393bdc7,2020-11-25_17h30.00.431,lexical_decision_task_MP_exp2,2020.2.5,Win32,60,z,1,,,,,,,,0.762535,1,,,,,,341,NW,"ID",33,myrtie,MYRTIE,z,0.762535,,,,,,0.177777778,-0.136111111,0,0,0,,0,158,158,280,1
,,,,,,,,,,,,,,,,,,5fbd8615d29543198393bdc7,2020-11-25_17h30.00.431,lexical_decision_task_MP_exp2,2020.2.5,Win32,60,z,1,,,,,,,,0.896245,1,,,,,,383,NW,"ID",16,aungre,AUNGRE,z,0.896245,,,,,,0.177777778,-0.136111111,0,0,0,,0,159,159,322,1
,,,,,,,,,,,,,,,,,,5fbd8615d29543198393bdc7,2020-11-25_17h30.00.431,lexical_decision_task_MP_exp2,2020.2.5,Win32,60,m,1,,,,,,,,0.710745,1,,,,,,140,WORD,"ID",16,prince,PRINCE,m,0.710745,,,,,,0.177777778,-0.136111111,0,0,0,,0,160,160,79,1
,,,,,,,,,,,,,,,,,,5fbd8615d29543198393bdc7,2020-11-25_17h30.00.431,lexical_decision_task_MP_exp2,2020.2.5,Win32,60,m,1,,,,,,,,0.62488,1,,,,,,113,WORD,"ID",33,chorus,CHORUS,m,0.62488,,,,,,0.177777778,-0.136111111,0,0,0,,0,161,161,52,1
,,,,,,,,,,,,,,,,,,5fbd8615d29543198393bdc7,2020-11-25_17h30.00.431,lexical_decision_task_MP_exp2,2020.2.5,Win32,60,m,1,,,,,,,,0.757385,1,,,,,,177,WORD,"ID",16,advent,ADVENT,m,0.757385,,,,,,0.177777778,-0.136111111,0,0,0,,0,162,162,116,1
,,,,,,,,,,,,,,,,,,5fbd8615d29543198393bdc7,2020-11-25_17h30.00.431,lexical_decision_task_MP_exp2,2020.2.5,Win32,60,z,1,,,,,,,,0.735315,1,,,,,,466,NW,UN,33,robuly,HOCITE,z,0.735315,,,,,,0.177777778,-0.136111111,0,0,0,,0,163,163,405,1
,,,,,,,,,,,,,,,,,,5fbd8615d29543198393bdc7,2020-11-25_17h30.00.431,lexical_decision_task_MP_exp2,2020.2.5,Win32,60,z,1,,,,,,,,0.762315,1,,,,,,257,NW,UN,16,poluth,VENIOD,z,0.762315,,,,,,0.177777778,-0.136111111,0,0,0,,0,164,164,436,1
,,,,,,,,,,,,,,,,,,5fbd8615d29543198393bdc7,2020-11-25_17h30.00.431,lexical_decision_task_MP_exp2,2020.2.5,Win32,60,z,1,,,,,,,,0.736565,1,,,,,,278,NW,UN,16,celond,UNIGHS,z,0.736565,,,,,,0.177777778,-0.136111111,0,0,0,,0,165,165,457,1
,,,,,,,,,,,,,,,,,,5fbd8615d29543198393bdc7,2020-11-25_17h30.00.431,lexical_decision_task_MP_exp2,2020.2.5,Win32,60,z,1,,,,,,,,0.764285,1,,,,,,354,NW,"ID",33,virlex,VIRLEX,z,0.764285,,,,,,0.177777778,-0.136111111,0,0,0,,0,166,166,293,1
,,,,,,,,,,,,,,,,,,5fbd8615d29543198393bdc7,2020-11-25_17h30.00.431,lexical_decision_task_MP_exp2,2020.2.5,Win32,60,z,1,,,,,,,,0.856345,1,,,,,,373,NW,"ID",16,bigent,BIGENT,z,0.856345,,,,,,0.177777778,-0.136111111,0,0,0,,0,167,167,312,1
,,,,,,,,,,,,,,,,,,5fbd8615d29543198393bdc7,2020-11-25_17h30.00.431,lexical_decision_task_MP_exp2,2020.2.5,Win32,60,m,1,,,,,,,,0.62507,1,,,,,,145,WORD,"ID",16,parish,PARISH,m,0.62507,,,,,,0.177777778,-0.136111111,0,0,0,,0,168,168,84,1
,,,,,,,,,,,,,,,,,,5fbd8615d29543198393bdc7,2020-11-25_17h30.00.431,lexical_decision_task_MP_exp2,2020.2.5,Win32,60,z,1,,,,,,,,0.764755,1,,,,,,252,NW,UN,16,resait,STAPOD,z,0.764755,,,,,,0.177777778,-0.136111111,0,0,0,,0,169,169,431,1
,,,,,,,,,,,,,,,,,,5fbd8615d29543198393bdc7,2020-11-25_17h30.00.431,lexical_decision_task_MP_exp2,2020.2.5,Win32,60,m,1,,,,,,,,1.156935,1,,,,,,142,WORD,"ID",16,spruce,SPRUCE,m,1.156935,,,,,,0.177777778,-0.136111111,0,0,0,,0,170,170,81,1
,,,,,,,,,,,,,,,,,,5fbd8615d29543198393bdc7,2020-11-25_17h30.00.431,lexical_decision_task_MP_exp2,2020.2.5,Win32,60,z,1,,,,,,,,0.87255,1,,,,,,312,NW,"ID",33,nerawl,NERAWL,z,0.87255,,,,,,0.177777778,-0.136111111,0,0,0,,0,171,171,251,1
,,,,,,,,,,,,,,,,,,5fbd8615d29543198393bdc7,2020-11-25_17h30.00.431,lexical_decision_task_MP_exp2,2020.2.5,Win32,60,z,1,,,,,,,,0.68927,1,,,,,,350,NW,"ID",33,nagurs,NAGURS,z,0.68927,,,,,,0.177777778,-0.136111111,0,0,0,,0,172,172,289,1
,,,,,,,,,,,,,,,,,,5fbd8615d29543198393bdc7,2020-11-25_17h30.00.431,lexical_decision_task_MP_exp2,2020.2.5,Win32,60,m,1,,,,,,,,0.734195,1,,,,,,119,WORD,"ID",33,spider,SPIDER,m,0.734195,,,,,,0.177777778,-0.136111111,0,0,0,,0,173,173,58,1
,,,,,,,,,,,,,,,,,,5fbd8615d29543198393bdc7,2020-11-25_17h30.00.431,lexical_decision_task_MP_exp2,2020.2.5,Win32,60,z,1,,,,,,,,0.898035,1,,,,,,389,NW,"ID",16,witmer,WITMER,z,0.898035,,,,,,0.177777778,-0.136111111,0,0,0,,0,174,174,328,1
,,,,,,,,,,,,,,,,,,5fbd8615d29543198393bdc7,2020-11-25_17h30.00.431,lexical_decision_task_MP_exp2,2020.2.5,Win32,60,m,1,,,,,,,,0.63027,1,,,,,,120,WORD,"ID",33,strain,STRAIN,m,0.63027,,,,,,0.177777778,-0.136111111,0,0,0,,0,175,175,59,1
,,,,,,,,,,,,,,,,,,5fbd8615d29543198393bdc7,2020-11-25_17h30.00.431,lexical_decision_task_MP_exp2,2020.2.5,Win32,60,z,1,,,,,,,,0.613195,1,,,,,,317,NW,"ID",33,worbal,WORBAL,z,0.613195,,,,,,0.177777778,-0.136111111,0,0,0,,0,176,176,256,1
,,,,,,,,,,,,,,,,,,5fbd8615d29543198393bdc7,2020-11-25_17h30.00.431,lexical_decision_task_MP_exp2,2020.2.5,Win32,60,z,1,,,,,,,,0.595885,1,,,,,,337,NW,"ID",33,rejols,REJOLS,z,0.595885,,,,,,0.177777778,-0.136111111,0,0,0,,0,177,177,276,1
,,,,,,,,,,,,,,,,,,5fbd8615d29543198393bdc7,2020-11-25_17h30.00.431,lexical_decision_task_MP_exp2,2020.2.5,Win32,60,m,1,,,,,,,,0.626165,1,,,,,,37,WORD,UN,16,powder,INSULT,m,0.626165,,,,,,0.177777778,-0.136111111,0,0,0,,0,178,178,216,1
,,,,,,,,,,,,,,,,,,5fbd8615d29543198393bdc7,2020-11-25_17h30.00.431,lexical_decision_task_MP_exp2,2020.2.5,Win32,60,z,1,,,,,,,,0.721585,1,,,,,,477,NW,UN,33,lobush,PHOTIE,z,0.721585,,,,,,0.177777778,-0.136111111,0,0,0,,0,179,179,416,1
,,,,,,,,,,,,,,,,,,5fbd8615d29543198393bdc7,2020-11-25_17h30.00.431,lexical_decision_task_MP_exp2,2020.2.5,Win32,60,z,1,,,,,,,,0.717165,1,,,,,,428,NW,UN,33,funtle,TANDLY,z,0.717165,,,,,,0.177777778,-0.136111111,0,0,0,,0,180,180,367,1
,,,,,,,,,,,,,,,,,,5fbd8615d29543198393bdc7,2020-11-25_17h30.00.431,lexical_decision_task_MP_exp2,2020.2.5,Win32,60,m,1,,,,,,,,0.750805,1,,,,,,159,WORD,"ID",16,detail,DETAIL,m,0.750805,,,,,,0.177777778,-0.136111111,0,0,0,,0,181,181,98,1
,,,,,,,,,,,,,,,,,,5fbd8615d29543198393bdc7,2020-11-25_17h30.00.431,lexical_decision_task_MP_exp2,2020.2.5,Win32,60,m,1,,,,,,,,0.92786,1,,,,,,240,WORD,UN,33,seldom,FOREST,m,0.92786,,,,,,0.177777778,-0.136111111,0,0,0,,0,182,182,179,1
,,,,,,,,,,,,,,,,,,5fbd8615d29543198393bdc7,2020-11-25_17h30.00.431,lexical_decision_task_MP_exp2,2020.2.5,Win32,60,m,1,,,,,,,,0.65959,1,,,,,,157,WORD,"ID",16,dragon,DRAGON,m,0.65959,,,,,,0.177777778,-0.136111111,0,0,0,,0,183,183,96,1
,,,,,,,,,,,,,,,,,,5fbd8615d29543198393bdc7,2020-11-25_17h30.00.431,lexical_decision_task_MP_exp2,2020.2.5,Win32,60,z,1,,,,,,,,0.844685,1,,,,,,241,NW,UN,16,unwert,SMENCO,z,0.844685,,,,,,0.177777778,-0.136111111,0,0,0,,0,184,184,420,1
,,,,,,,,,,,,,,,,,,5fbd8615d29543198393bdc7,2020-11-25_17h30.00.431,lexical_decision_task_MP_exp2,2020.2.5,Win32,60,z,1,,,,,,,,0.774365,1,,,,,,283,NW,UN,16,shaple,VERALF,z,0.774365,,,,,,0.177777778,-0.136111111,0,0,0,,0,185,185,462,1
,,,,,,,,,,,,,,,,,,5fbd8615d29543198393bdc7,2020-11-25_17h30.00.431,lexical_decision_task_MP_exp2,2020.2.5,Win32,60,z,1,,,,,,,,0.81186,1,,,,,,266,NW,UN,16,pasink,VARMIT,z,0.81186,,,,,,0.177777778,-0.136111111,0,0,0,,0,186,186,445,1
,,,,,,,,,,,,,,,,,,5fbd8615d29543198393bdc7,2020-11-25_17h30.00.431,lexical_decision_task_MP_exp2,2020.2.5,Win32,60,m,1,,,,,,,,0.99398,1,,,,,,8,WORD,UN,16,hustle,ABRUPT,m,0.99398,,,,,,0.177777778,-0.136111111,0,0,0,,0,187,187,187,1
,,,,,,,,,,,,,,,,,,5fbd8615d29543198393bdc7,2020-11-25_17h30.00.431,lexical_decision_task_MP_exp2,2020.2.5,Win32,60,z,1,,,,,,,,0.88335,1,,,,,,436,NW,UN,33,snapel,FRUTAN,z,0.88335,,,,,,0.177777778,-0.136111111,0,0,0,,0,188,188,375,1
,,,,,,,,,,,,,,,,,,5fbd8615d29543198393bdc7,2020-11-25_17h30.00.431,lexical_decision_task_MP_exp2,2020.2.5,Win32,60,m,1,,,,,,,,0.650745,1,,,,,,103,WORD,"ID",33,bounce,BOUNCE,m,0.650745,,,,,,0.177777778,-0.136111111,0,0,0,,0,189,189,42,1
,,,,,,,,,,,,,,,,,,5fbd8615d29543198393bdc7,2020-11-25_17h30.00.431,lexical_decision_task_MP_exp2,2020.2.5,Win32,60,z,1,,,,,,,,0.9729,1,,,,,,404,NW,"ID",16,cluirm,CLUIRM,z,0.9729,,,,,,0.177777778,-0.136111111,0,0,0,,0,190,190,343,1
,,,,,,,,,,,,,,,,,,5fbd8615d29543198393bdc7,2020-11-25_17h30.00.431,lexical_decision_task_MP_exp2,2020.2.5,Win32,60,m,1,,,,,,,,0.65797,1,,,,,,196,WORD,UN,33,stream,CREDIT,m,0.65797,,,,,,0.177777778,-0.136111111,0,0,0,,0,191,191,135,1
,,,,,,,,,,,,,,,,,,5fbd8615d29543198393bdc7,2020-11-25_17h30.00.431,lexical_decision_task_MP_exp2,2020.2.5,Win32,60,m,1,,,,,,,,0.711975,1,,,,,,48,WORD,UN,16,survey,WALNUT,m,0.711975,,,,,,0.177777778,-0.136111111,0,0,0,,0,192,192,227,1
,,,,,,,,,,,,,,,,,,5fbd8615d29543198393bdc7,2020-11-25_17h30.00.431,lexical_decision_task_MP_exp2,2020.2.5,Win32,60,m,1,,,,,,,,0.633155,1,,,,,,35,WORD,UN,16,vanish,SOCKET,m,0.633155,,,,,,0.177777778,-0.136111111,0,0,0,,0,193,193,214,1
,,,,,,,,,,,,,,,,,,5fbd8615d29543198393bdc7,2020-11-25_17h30.00.431,lexical_decision_task_MP_exp2,2020.2.5,Win32,60,m,1,,,,,,,,0.885965,1,,,,,,44,WORD,UN,16,clergy,DANGER,m,0.885965,,,,,,0.177777778,-0.136111111,0,0,0,,0,194,194,223,1
,,,,,,,,,,,,,,,,,,5fbd8615d29543198393bdc7,2020-11-25_17h30.00.431,lexical_decision_task_MP_exp2,2020.2.5,Win32,60,m,1,,,,,,,,0.80365,1,,,,,,81,WORD,"ID",33,friend,FRIEND,m,0.80365,,,,,,0.177777778,-0.136111111,0,0,0,,0,195,195,20,1
,,,,,,,,,,,,,,,,,,5fbd8615d29543198393bdc7,2020-11-25_17h30.00.431,lexical_decision_task_MP_exp2,2020.2.5,Win32,60,z,1,,,,,,,,0.87059,1,,,,,,467,NW,UN,33,wictor,GORBIE,z,0.87059,,,,,,0.177777778,-0.136111111,0,0,0,,0,196,196,406,1
,,,,,,,,,,,,,,,,,,5fbd8615d29543198393bdc7,2020-11-25_17h30.00.431,lexical_decision_task_MP_exp2,2020.2.5,Win32,60,m,1,,,,,,,,0.708685,1,,,,,,73,WORD,"ID",33,source,SOURCE,m,0.708685,,,,,,0.177777778,-0.136111111,0,0,0,,0,197,197,12,1
,,,,,,,,,,,,,,,,,,5fbd8615d29543198393bdc7,2020-11-25_17h30.00.431,lexical_decision_task_MP_exp2,2020.2.5,Win32,60,m,1,,,,,,,,0.73088,1,,,,,,199,WORD,UN,33,plague,INVOKE,m,0.73088,,,,,,0.177777778,-0.136111111,0,0,0,,0,198,198,138,1
,,,,,,,,,,,,,,,,,,5fbd8615d29543198393bdc7,2020-11-25_17h30.00.431,lexical_decision_task_MP_exp2,2020.2.5,Win32,60,z,1,,,,,,,,1.31991,1,,,,,,247,NW,UN,16,strole,BLARGE,z,1.31991,,,,,,0.177777778,-0.136111111,0,0,0,,0,199,199,426,1
,,,,,,,,,,,,,,,,,,5fbd8615d29543198393bdc7,2020-11-25_17h30.00.431,lexical_decision_task_MP_exp2,2020.2.5,Win32,60,z,1,,,,,,,,1.1968,1,,,,,,425,NW,UN,33,urivel,FRUDGE,z,1.1968,,,,,,0.177777778,-0.136111111,0,0,0,,0,200,200,364,1
,,,,,,,,,,,,,,,,,,5fbd8615d29543198393bdc7,2020-11-25_17h30.00.431,lexical_decision_task_MP_exp2,2020.2.5,Win32,60,m,1,,,,,,,,0.61762,1,,,,,,17,WORD,UN,16,humble,CHARGE,m,0.61762,,,,,,0.177777778,-0.136111111,0,0,0,,0,201,201,196,1
,,,,,,,,,,,,,,,,,,5fbd8615d29543198393bdc7,2020-11-25_17h30.00.431,lexical_decision_task_MP_exp2,2020.2.5,Win32,60,m,1,,,,,,,,0.577025,1,,,,,,147,WORD,"ID",16,garlic,GARLIC,m,0.577025,,,,,,0.177777778,-0.136111111,0,0,0,,0,202,202,86,1
,,,,,,,,,,,,,,,,,,5fbd8615d29543198393bdc7,2020-11-25_17h30.00.431,lexical_decision_task_MP_exp2,2020.2.5,Win32,60,z,1,,,,,,,,0.73056,1,,,,,,300,NW,UN,16,smenco,YARION,z,0.73056,,,,,,0.177777778,-0.136111111,0,0,0,,0,203,203,479,1
,,,,,,,,,,,,,,,,,,5fbd8615d29543198393bdc7,2020-11-25_17h30.00.431,lexical_decision_task_MP_exp2,2020.2.5,Win32,60,m,0,,,,,,,,0.684845,0,,,,,,348,NW,"ID",33,dumple,DUMPLE,z,0.684845,,,,,,0.177777778,-0.136111111,0,0,0,,0,204,204,287,1
,,,,,,,,,,,,,,,,,,5fbd8615d29543198393bdc7,2020-11-25_17h30.00.431,lexical_decision_task_MP_exp2,2020.2.5,Win32,60,z,1,,,,,,,,0.989465,1,,,,,,431,NW,UN,33,lunker,CHRUMS,z,0.989465,,,,,,0.177777778,-0.136111111,0,0,0,,0,205,205,370,1
,,,,,,,,,,,,,,,,,,5fbd8615d29543198393bdc7,2020-11-25_17h30.00.431,lexical_decision_task_MP_exp2,2020.2.5,Win32,60,z,1,,,,,,,,0.87189,1,,,,,,265,NW,UN,16,varmit,DISTAR,z,0.87189,,,,,,0.177777778,-0.136111111,0,0,0,,0,206,206,444,1
,,,,,,,,,,,,,,,,,,5fbd8615d29543198393bdc7,2020-11-25_17h30.00.431,lexical_decision_task_MP_exp2,2020.2.5,Win32,60,z,1,,,,,,,,0.72745,1,,,,,,282,NW,UN,16,veralf,PORLEX,z,0.72745,,,,,,0.177777778,-0.136111111,0,0,0,,0,207,207,461,1
,,,,,,,,,,,,,,,,,,5fbd8615d29543198393bdc7,2020-11-25_17h30.00.431,lexical_decision_task_MP_exp2,2020.2.5,Win32,60,m,1,,,,,,,,0.71954,1,,,,,,219,WORD,UN,33,voyage,BUCKET,m,0.71954,,,,,,0.177777778,-0.136111111,0,0,0,,0,208,208,158,1
,,,,,,,,,,,,,,,,,,5fbd8615d29543198393bdc7,2020-11-25_17h30.00.431,lexical_decision_task_MP_exp2,2020.2.5,Win32,60,z,1,,,,,,,,0.700905,1,,,,,,415,NW,"ID",16,higsta,HIGSTA,z,0.700905,,,,,,0.177777778,-0.136111111,0,0,0,,0,209,209,354,1
,,,,,,,,,,,,,,,,,,5fbd8615d29543198393bdc7,2020-11-25_17h30.00.431,lexical_decision_task_MP_exp2,2020.2.5,Win32,60,m,1,,,,,,,,0.704305,1,,,,,,134,WORD,"ID",16,staple,STAPLE,m,0.704305,,,,,,0.177777778,-0.136111111,0,0,0,,0,210,210,73,1
,,,,,,,,,,,,,,,,,,5fbd8615d29543198393bdc7,2020-11-25_17h30.00.431,lexical_decision_task_MP_exp2,2020.2.5,Win32,60,m,1,,,,,,,,0.78766,1,,,,,,86,WORD,"ID",33,rodent,RODENT,m,0.78766,,,,,,0.177777778,-0.136111111,0,0,0,,0,211,211,25,1
,,,,,,,,,,,,,,,,,,5fbd8615d29543198393bdc7,2020-11-25_17h30.00.431,lexical_decision_task_MP_exp2,2020.2.5,Win32,60,z,1,,,,,,,,0.758725,1,,,,,,301,NW,"ID",33,fainch,FAINCH,z,0.758725,,,,,,0.177777778,-0.136111111,0,0,0,,0,212,212,240,1
,,,,,,,,,,,,,,,,,,5fbd8615d29543198393bdc7,2020-11-25_17h30.00.431,lexical_decision_task_MP_exp2,2020.2.5,Win32,60,z,1,,,,,,,,0.876585,1,,,,,,367,NW,"ID",16,slique,SLIQUE,z,0.876585,,,,,,0.177777778,-0.136111111,0,0,0,,0,213,213,306,1
,,,,,,,,,,,,,,,,,,5fbd8615d29543198393bdc7,2020-11-25_17h30.00.431,lexical_decision_task_MP_exp2,2020.2.5,Win32,60,m,1,,,,,,,,0.688065,1,,,,,,239,WORD,UN,33,forest,LUMBER,m,0.688065,,,,,,0.177777778,-0.136111111,0,0,0,,0,214,214,178,1
,,,,,,,,,,,,,,,,,,5fbd8615d29543198393bdc7,2020-11-25_17h30.00.431,lexical_decision_task_MP_exp2,2020.2.5,Win32,60,z,1,,,,,,,,0.82228,1,,,,,,401,NW,"ID",16,mustil,MUSTIL,z,0.82228,,,,,,0.177777778,-0.136111111,0,0,0,,0,215,215,340,1
,,,,,,,,,,,,,,,,,,5fbd8615d29543198393bdc7,2020-11-25_17h30.00.431,lexical_decision_task_MP_exp2,2020.2.5,Win32,60,z,1,,,,,,,,0.854735,1,,,,,,458,NW,UN,33,hocite,BARCET,z,0.854735,,,,,,0.177777778,-0.136111111,0,0,0,,0,216,216,397,1
,,,,,,,,,,,,,,,,,,5fbd8615d29543198393bdc7,2020-11-25_17h30.00.431,lexical_decision_task_MP_exp2,2020.2.5,Win32,60,z,1,,,,,,,,0.712105,1,,,,,,275,NW,UN,16,yarmon,SLEIRT,z,0.712105,,,,,,0.177777778,-0.136111111,0,0,0,,0,217,217,454,1
,,,,,,,,,,,,,,,,,,5fbd8615d29543198393bdc7,2020-11-25_17h30.00.431,lexical_decision_task_MP_exp2,2020.2.5,Win32,60,m,1,,,,,,,,0.668505,1,,,,,,167,WORD,"ID",16,design,DESIGN,m,0.668505,,,,,,0.177777778,-0.136111111,0,0,0,,0,218,218,106,1
,,,,,,,,,,,,,,,,,,5fbd8615d29543198393bdc7,2020-11-25_17h30.00.431,lexical_decision_task_MP_exp2,2020.2.5,Win32,60,z,1,,,,,,,,0.723135,1,,,,,,443,NW,UN,33,jaunce,DORSEX,z,0.723135,,,,,,0.177777778,-0.136111111,0,0,0,,0,219,219,382,1
,,,,,,,,,,,,,,,,,,5fbd8615d29543198393bdc7,2020-11-25_17h30.00.431,lexical_decision_task_MP_exp2,2020.2.5,Win32,60,z,1,,,,,,,,0.80032,1,,,,,,391,NW,"ID",16,theldy,THELDY,z,0.80032,,,,,,0.177777778,-0.136111111,0,0,0,,0,220,220,330,1
,,,,,,,,,,,,,,,,,,5fbd8615d29543198393bdc7,2020-11-25_17h30.00.431,lexical_decision_task_MP_exp2,2020.2.5,Win32,60,z,1,,,,,,,,1.067965,1,,,,,,441,NW,UN,33,aboune,RASTOE,z,1.067965,,,,,,0.177777778,-0.136111111,0,0,0,,0,221,221,380,1
,,,,,,,,,,,,,,,,,,5fbd8615d29543198393bdc7,2020-11-25_17h30.00.431,lexical_decision_task_MP_exp2,2020.2.5,Win32,60,z,1,,,,,,,,0.818555,1,,,,,,309,NW,"ID",33,amiloy,AMILOY,z,0.818555,,,,,,0.177777778,-0.136111111,0,0,0,,0,222,222,248,1
,,,,,,,,,,,,,,,,,,5fbd8615d29543198393bdc7,2020-11-25_17h30.00.431,lexical_decision_task_MP_exp2,2020.2.5,Win32,60,z,1,,,,,,,,1.134365,1,,,,,,328,NW,"ID",33,broake,BROAKE,z,1.134365,,,,,,0.177777778,-0.136111111,0,0,0,,0,223,223,267,1
,,,,,,,,,,,,,,,,,,5fbd8615d29543198393bdc7,2020-11-25_17h30.00.431,lexical_decision_task_MP_exp2,2020.2.5,Win32,60,m,1,,,,,,,,0.68368,1,,,,,,155,WORD,"ID",16,lizard,LIZARD,m,0.68368,,,,,,0.177777778,-0.136111111,0,0,0,,0,224,224,94,1
,,,,,,,,,,,,,,,,,,5fbd8615d29543198393bdc7,2020-11-25_17h30.00.431,lexical_decision_task_MP_exp2,2020.2.5,Win32,60,m,1,,,,,,,,0.6121,1,,,,,,149,WORD,"ID",16,invade,INVADE,m,0.6121,,,,,,0.177777778,-0.136111111,0,0,0,,0,225,225,88,1
,,,,,,,,,,,,,,,,,,5fbd8615d29543198393bdc7,2020-11-25_17h30.00.431,lexical_decision_task_MP_exp2,2020.2.5,Win32,60,m,1,,,,,,,,0.637835,1,,,,,,136,WORD,"ID",16,bleach,BLEACH,m,0.637835,,,,,,0.177777778,-0.136111111,0,0,0,,0,226,226,75,1
,,,,,,,,,,,,,,,,,,5fbd8615d29543198393bdc7,2020-11-25_17h30.00.431,lexical_decision_task_MP_exp2,2020.2.5,Win32,60,m,1,,,,,,,,0.5898,1,,,,,,148,WORD,"ID",16,custom,CUSTOM,m,0.5898,,,,,,0.177777778,-0.136111111,0,0,0,,0,227,227,87,1
,,,,,,,,,,,,,,,,,,5fbd8615d29543198393bdc7,2020-11-25_17h30.00.431,lexical_decision_task_MP_exp2,2020.2.5,Win32,60,m,1,,,,,,,,0.728855,1,,,,,,213,WORD,UN,33,intake,SQUEAL,m,0.728855,,,,,,0.177777778,-0.136111111,0,0,0,,0,228,228,152,1
,,,,,,,,,,,,,,,,,,5fbd8615d29543198393bdc7,2020-11-25_17h30.00.431,lexical_decision_task_MP_exp2,2020.2.5,Win32,60,m,1,,,,,,,,1.1838,1,,,,,,192,WORD,UN,33,object,PLAGUE,m,1.1838,,,,,,0.177777778,-0.136111111,0,0,0,,0,229,229,131,1
,,,,,,,,,,,,,,,,,,5fbd8615d29543198393bdc7,2020-11-25_17h30.00.431,lexical_decision_task_MP_exp2,2020.2.5,Win32,60,m,1,,,,,,,,0.63845,1,,,,,,46,WORD,UN,16,income,SINGLE,m,0.63845,,,,,,0.177777778,-0.136111111,0,0,0,,0,230,230,225,1
,,,,,,,,,,,,,,,,,,5fbd8615d29543198393bdc7,2020-11-25_17h30.00.431,lexical_decision_task_MP_exp2,2020.2.5,Win32,60,z,1,,,,,,,,1.169195,1,,,,,,351,NW,"ID",33,tiesch,TIESCH,z,1.169195,,,,,,0.177777778,-0.136111111,0,0,0,,0,231,231,290,1
,,,,,,,,,,,,,,,,,,5fbd8615d29543198393bdc7,2020-11-25_17h30.00.431,lexical_decision_task_MP_exp2,2020.2.5,Win32,60,m,1,,,,,,,,0.61811,1,,,,,,205,WORD,UN,33,tailor,LOUNGE,m,0.61811,,,,,,0.177777778,-0.136111111,0,0,0,,0,232,232,144,1
,,,,,,,,,,,,,,,,,,5fbd8615d29543198393bdc7,2020-11-25_17h30.00.431,lexical_decision_task_MP_exp2,2020.2.5,Win32,60,m,1,,,,,,,,0.61924,1,,,,,,22,WORD,UN,16,wealth,JOCKEY,m,0.61924,,,,,,0.177777778,-0.136111111,0,0,0,,0,233,233,201,1
,,,,,,,,,,,,,,,,,,5fbd8615d29543198393bdc7,2020-11-25_17h30.00.431,lexical_decision_task_MP_exp2,2020.2.5,Win32,60,m,1,,,,,,,,0.67692,1,,,,,,108,WORD,"ID",33,reckon,RECKON,m,0.67692,,,,,,0.177777778,-0.136111111,0,0,0,,0,234,234,47,1
,,,,,,,,,,,,,,,,,,5fbd8615d29543198393bdc7,2020-11-25_17h30.00.431,lexical_decision_task_MP_exp2,2020.2.5,Win32,60,z,1,,,,,,,,0.784375,1,,,,,,419,NW,"ID",16,slount,SLOUNT,z,0.784375,,,,,,0.177777778,-0.136111111,0,0,0,,0,235,235,358,1
,,,,,,,,,,,,,,,,,,5fbd8615d29543198393bdc7,2020-11-25_17h30.00.431,lexical_decision_task_MP_exp2,2020.2.5,Win32,60,m,1,,,,,,,,0.666125,1,,,,,,9,WORD,UN,16,bridge,HUSTLE,m,0.666125,,,,,,0.177777778,-0.136111111,0,0,0,,0,236,236,188,1
,,,,,,,,,,,,,,,,,,5fbd8615d29543198393bdc7,2020-11-25_17h30.00.431,lexical_decision_task_MP_exp2,2020.2.5,Win32,60,m,1,,,,,,,,0.563925,1,,,,,,150,WORD,"ID",16,random,RANDOM,m,0.563925,,,,,,0.177777778,-0.136111111,0,0,0,,0,237,237,89,1
,,,,,,,,,,,,,,,,,,5fbd8615d29543198393bdc7,2020-11-25_17h30.00.431,lexical_decision_task_MP_exp2,2020.2.5,Win32,60,m,1,,,,,,,,0.68113,1,,,,,,29,WORD,UN,16,orient,SKETCH,m,0.68113,,,,,,0.177777778,-0.136111111,0,0,0,,0,238,238,208,1
,,,,,,,,,,,,,,,,,,5fbd8615d29543198393bdc7,2020-11-25_17h30.00.431,lexical_decision_task_MP_exp2,2020.2.5,Win32,60,m,1,,,,,,,,0.634425,1,,,,,,3,WORD,UN,16,trench,KNIGHT,m,0.634425,,,,,,0.177777778,-0.136111111,0,0,0,,0,239,239,182,1
,,,,,,,,,,,,,,,,,,5fbd8615d29543198393bdc7,2020-11-25_17h30.00.431,lexical_decision_task_MP_exp2,2020.2.5,Win32,60,z,1,,,,,,,,0.902925,1,,,,,,432,NW,UN,33,drance,LUNKER,z,0.902925,,,,,,0.177777778,-0.136111111,0,0,0,,0,240,240,371,1
,,,,,,,,,,,,,,,,,,5fbd8615d29543198393bdc7,2020-11-25_17h30.00.431,lexical_decision_task_MP_exp2,2020.2.5,Win32,60,z,1,,,,,,,,0.765425,1,,,,,,371,NW,"ID",16,geiloy,GEILOY,z,0.765425,,,,,,0.177777778,-0.136111111,0,0,0,,0,241,241,310,1
,,,,,,,,,,,,,,,,,,5fbd8615d29543198393bdc7,2020-11-25_17h30.00.431,lexical_decision_task_MP_exp2,2020.2.5,Win32,60,m,1,,,,,,,,0.64767,1,,,,,,100,WORD,"ID",33,carbon,CARBON,m,0.64767,,,,,,0.177777778,-0.136111111,0,0,0,,0,242,242,39,1
,,,,,,,,,,,,,,,,,,5fbd8615d29543198393bdc7,2020-11-25_17h30.00.431,lexical_decision_task_MP_exp2,2020.2.5,Win32,60,z,1,,,,,,,,0.799795,1,,,,,,295,NW,UN,16,beinch,GLEATH,z,0.799795,,,,,,0.177777778,-0.136111111,0,0,0,,0,243,243,474,1
,,,,,,,,,,,,,,,,,,5fbd8615d29543198393bdc7,2020-11-25_17h30.00.431,lexical_decision_task_MP_exp2,2020.2.5,Win32,60,m,1,,,,,,,,0.93582,1,,,,,,135,WORD,"ID",16,import,IMPORT,m,0.93582,,,,,,0.177777778,-0.136111111,0,0,0,,0,244,244,74,1
,,,,,,,,,,,,,,,,,,5fbd8615d29543198393bdc7,2020-11-25_17h30.00.431,lexical_decision_task_MP_exp2,2020.2.5,Win32,60,m,1,,,,,,,,0.616985,1,,,,,,59,WORD,UN,16,pencil,SPLINT,m,0.616985,,,,,,0.177777778,-0.136111111,0,0,0,,0,245,245,238,1
,,,,,,,,,,,,,,,,,,5fbd8615d29543198393bdc7,2020-11-25_17h30.00.431,lexical_decision_task_MP_exp2,2020.2.5,Win32,60,z,1,,,,,,,,0.968975,1,,,,,,461,NW,UN,33,absult,JUSTRE,z,0.968975,,,,,,0.177777778,-0.136111111,0,0,0,,0,246,246,400,1
,,,,,,,,,,,,,,,,,,5fbd8615d29543198393bdc7,2020-11-25_17h30.00.431,lexical_decision_task_MP_exp2,2020.2.5,Win32,60,m,1,,,,,,,,0.73832,1,,,,,,1,WORD,UN,16,ethnic,FRIGHT,m,0.73832,,,,,,0.177777778,-0.136111111,0,0,0,,0,247,247,180,1
,,,,,,,,,,,,,,,,,,5fbd8615d29543198393bdc7,2020-11-25_17h30.00.431,lexical_decision_task_MP_exp2,2020.2.5,Win32,60,z,1,,,,,,,,0.70037,1,,,,,,274,NW,UN,16,sleirt,FUMBLO,z,0.70037,,,,,,0.177777778,-0.136111111,0,0,0,,0,248,248,453,1
,,,,,,,,,,,,,,,,,,5fbd8615d29543198393bdc7,2020-11-25_17h30.00.431,lexical_decision_task_MP_exp2,2020.2.5,Win32,60,m,1,,,,,,,,0.626355,1,,,,,,143,WORD,"ID",16,reason,REASON,m,0.626355,,,,,,0.177777778,-0.136111111,0,0,0,,0,249,249,82,1
,,,,,,,,,,,,,,,,,,5fbd8615d29543198393bdc7,2020-11-25_17h30.00.431,lexical_decision_task_MP_exp2,2020.2.5,Win32,60,m,0,,,,,,,,0.80243,0,,,,,,398,NW,"ID",16,blunde,BLUNDE,z,0.80243,,,,,,0.177777778,-0.136111111,0,0,0,,0,250,250,337,1
,,,,,,,,,,,,,,,,,,5fbd8615d29543198393bdc7,2020-11-25_17h30.00.431,lexical_decision_task_MP_exp2,2020.2.5,Win32,60,z,1,,,,,,,,0.833975,1,,,,,,347,NW,"ID",33,kerift,KERIFT,z,0.833975,,,,,,0.177777778,-0.136111111,0,0,0,,0,251,251,286,1
,,,,,,,,,,,,,,,,,,5fbd8615d29543198393bdc7,2020-11-25_17h30.00.431,lexical_decision_task_MP_exp2,2020.2.5,Win32,60,z,1,,,,,,,,0.801,1,,,,,,320,NW,"ID",33,jockal,JOCKAL,z,0.801,,,,,,0.177777778,-0.136111111,0,0,0,,0,252,252,259,1
,,,,,,,,,,,,,,,,,,5fbd8615d29543198393bdc7,2020-11-25_17h30.00.431,lexical_decision_task_MP_exp2,2020.2.5,Win32,60,m,1,,,,,,,,0.684875,1,,,,,,238,WORD,UN,33,behalf,FLOWER,m,0.684875,,,,,,0.177777778,-0.136111111,0,0,0,,0,253,253,177,1
,,,,,,,,,,,,,,,,,,5fbd8615d29543198393bdc7,2020-11-25_17h30.00.431,lexical_decision_task_MP_exp2,2020.2.5,Win32,60,z,1,,,,,,,,1.000215,1,,,,,,286,NW,UN,16,nymbel,RELDON,z,1.000215,,,,,,0.177777778,-0.136111111,0,0,0,,0,254,254,465,1
,,,,,,,,,,,,,,,,,,5fbd8615d29543198393bdc7,2020-11-25_17h30.00.431,lexical_decision_task_MP_exp2,2020.2.5,Win32,60,z,0,,,,,,,,0.65523,0,,,,,,16,WORD,UN,16,charge,FAUCET,m,0.65523,,,,,,0.177777778,-0.136111111,0,0,0,,0,255,255,195,1
,,,,,,,,,,,,,,,,,,5fbd8615d29543198393bdc7,2020-11-25_17h30.00.431,lexical_decision_task_MP_exp2,2020.2.5,Win32,60,m,1,,,,,,,,0.807555,1,,,,,,122,WORD,"ID",16,linger,LINGER,m,0.807555,,,,,,0.177777778,-0.136111111,0,0,0,,0,256,256,61,1
,,,,,,,,,,,,,,,,,,5fbd8615d29543198393bdc7,2020-11-25_17h30.00.431,lexical_decision_task_MP_exp2,2020.2.5,Win32,60,m,1,,,,,,,,0.6204,1,,,,,,175,WORD,"ID",16,fabric,FABRIC,m,0.6204,,,,,,0.177777778,-0.136111111,0,0,0,,0,257,257,114,1
,,,,,,,,,,,,,,,,,,5fbd8615d29543198393bdc7,2020-11-25_17h30.00.431,lexical_decision_task_MP_exp2,2020.2.5,Win32,60,z,1,,,,,,,,0.734625,1,,,,,,437,NW,UN,33,baitch,SNAPEL,z,0.734625,,,,,,0.177777778,-0.136111111,0,0,0,,0,258,258,376,1
,,,,,,,,,,,,,,,,,,5fbd8615d29543198393bdc7,2020-11-25_17h30.00.431,lexical_decision_task_MP_exp2,2020.2.5,Win32,60,z,1,,,,,,,,0.702645,1,,,,,,270,NW,UN,16,aubrid,WRIMSY,z,0.702645,,,,,,0.177777778,-0.136111111,0,0,0,,0,259,259,449,1
,,,,,,,,,,,,,,,,,,5fbd8615d29543198393bdc7,2020-11-25_17h30.00.431,lexical_decision_task_MP_exp2,2020.2.5,Win32,60,m,1,,,,,,,,0.651465,1,,,,,,2,WORD,UN,16,knight,BRIDGE,m,0.651465,,,,,,0.177777778,-0.136111111,0,0,0,,0,260,260,181,1
,,,,,,,,,,,,,,,,,,5fbd8615d29543198393bdc7,2020-11-25_17h30.00.431,lexical_decision_task_MP_exp2,2020.2.5,Win32,60,m,1,,,,,,,,0.97329,1,,,,,,168,WORD,"ID",16,answer,ANSWER,m,0.97329,,,,,,0.177777778,-0.136111111,0,0,0,,0,261,261,107,1
,,,,,,,,,,,,,,,,,,5fbd8615d29543198393bdc7,2020-11-25_17h30.00.431,lexical_decision_task_MP_exp2,2020.2.5,Win32,60,z,1,,,,,,,,0.69595,1,,,,,,381,NW,"ID",16,huniek,HUNIEK,z,0.69595,,,,,,0.177777778,-0.136111111,0,0,0,,0,262,262,320,1
,,,,,,,,,,,,,,,,,,5fbd8615d29543198393bdc7,2020-11-25_17h30.00.431,lexical_decision_task_MP_exp2,2020.2.5,Win32,60,m,1,,,,,,,,0.82974,1,,,,,,216,WORD,UN,33,liquor,BEHALF,m,0.82974,,,,,,0.177777778,-0.136111111,0,0,0,,0,263,263,155,1
,,,,,,,,,,,,,,,,,,5fbd8615d29543198393bdc7,2020-11-25_17h30.00.431,lexical_decision_task_MP_exp2,2020.2.5,Win32,60,m,1,,,,,,,,0.66978,1,,,,,,189,WORD,UN,33,backup,CENSOR,m,0.66978,,,,,,0.177777778,-0.136111111,0,0,0,,0,264,264,128,1
,,,,,,,,,,,,,,,,,,5fbd8615d29543198393bdc7,2020-11-25_17h30.00.431,lexical_decision_task_MP_exp2,2020.2.5,Win32,60,m,1,,,,,,,,0.834825,1,,,,,,101,WORD,"ID",33,wrench,WRENCH,m,0.834825,,,,,,0.177777778,-0.136111111,0,0,0,,0,265,265,40,1
,,,,,,,,,,,,,,,,,,5fbd8615d29543198393bdc7,2020-11-25_17h30.00.431,lexical_decision_task_MP_exp2,2020.2.5,Win32,60,z,1,,,,,,,,0.70868,1,,,,,,395,NW,"ID",16,colury,COLURY,z,0.70868,,,,,,0.177777778,-0.136111111,0,0,0,,0,266,266,334,1
,,,,,,,,,,,,,,,,,,5fbd8615d29543198393bdc7,2020-11-25_17h30.00.431,lexical_decision_task_MP_exp2,2020.2.5,Win32,60,m,1,,,,,,,,0.75515,1,,,,,,125,WORD,"ID",16,nickel,NICKEL,m,0.75515,,,,,,0.177777778,-0.136111111,0,0,0,,0,267,267,64,1
,,,,,,,,,,,,,,,,,,5fbd8615d29543198393bdc7,2020-11-25_17h30.00.431,lexical_decision_task_MP_exp2,2020.2.5,Win32,60,z,1,,,,,,,,0.73448,1,,,,,,365,NW,"ID",16,guairt,GUAIRT,z,0.73448,,,,,,0.177777778,-0.136111111,0,0,0,,0,268,268,304,1
,,,,,,,,,,,,,,,,,,5fbd8615d29543198393bdc7,2020-11-25_17h30.00.431,lexical_decision_task_MP_exp2,2020.2.5,Win32,60,m,1,,,,,,,,0.84409,1,,,,,,230,WORD,UN,33,mother,FRINGE,m,0.84409,,,,,,0.177777778,-0.136111111,0,0,0,,0,269,269,169,1
,,,,,,,,,,,,,,,,,,5fbd8615d29543198393bdc7,2020-11-25_17h30.00.431,lexical_decision_task_MP_exp2,2020.2.5,Win32,60,m,1,,,,,,,,0.71708,1,,,,,,121,WORD,"ID",16,thrive,THRIVE,m,0.71708,,,,,,0.177777778,-0.136111111,0,0,0,,0,270,270,60,1
,,,,,,,,,,,,,,,,,,5fbd8615d29543198393bdc7,2020-11-25_17h30.00.431,lexical_decision_task_MP_exp2,2020.2.5,Win32,60,z,1,,,,,,,,0.726285,1,,,,,,439,NW,UN,33,saride,LIMPOR,z,0.726285,,,,,,0.177777778,-0.136111111,0,0,0,,0,271,271,378,1
,,,,,,,,,,,,,,,,,,5fbd8615d29543198393bdc7,2020-11-25_17h30.00.431,lexical_decision_task_MP_exp2,2020.2.5,Win32,60,m,1,,,,,,,,0.61145,1,,,,,,237,WORD,UN,33,glance,POSTER,m,0.61145,,,,,,0.177777778,-0.136111111,0,0,0,,0,272,272,176,1
,,,,,,,,,,,,,,,,,,5fbd8615d29543198393bdc7,2020-11-25_17h30.00.431,lexical_decision_task_MP_exp2,2020.2.5,Win32,60,m,1,,,,,,,,0.606105,1,,,,,,49,WORD,UN,16,snatch,SURVEY,m,0.606105,,,,,,0.177777778,-0.136111111,0,0,0,,0,273,273,228,1
,,,,,,,,,,,,,,,,,,5fbd8615d29543198393bdc7,2020-11-25_17h30.00.431,lexical_decision_task_MP_exp2,2020.2.5,Win32,60,z,1,,,,,,,,1.05557,1,,,,,,402,NW,"ID",16,syntic,SYNTIC,z,1.05557,,,,,,0.177777778,-0.136111111,0,0,0,,0,274,274,341,1
,,,,,,,,,,,,,,,,,,5fbd8615d29543198393bdc7,2020-11-25_17h30.00.431,lexical_decision_task_MP_exp2,2020.2.5,Win32,60,z,1,,,,,,,,0.711575,1,,,,,,385,NW,"ID",16,veigma,VEIGMA,z,0.711575,,,,,,0.177777778,-0.136111111,0,0,0,,0,275,275,324,1
,,,,,,,,,,,,,,,,,,5fbd8615d29543198393bdc7,2020-11-25_17h30.00.431,lexical_decision_task_MP_exp2,2020.2.5,Win32,60,m,1,,,,,,,,0.62086,1,,,,,,203,WORD,UN,33,burden,PHRASE,m,0.62086,,,,,,0.177777778,-0.136111111,0,0,0,,0,276,276,142,1
,,,,,,,,,,,,,,,,,,5fbd8615d29543198393bdc7,2020-11-25_17h30.00.431,lexical_decision_task_MP_exp2,2020.2.5,Win32,60,m,1,,,,,,,,0.61719,1,,,,,,38,WORD,UN,16,insect,POWDER,m,0.61719,,,,,,0.177777778,-0.136111111,0,0,0,,0,277,277,217,1
,,,,,,,,,,,,,,,,,,5fbd8615d29543198393bdc7,2020-11-25_17h30.00.431,lexical_decision_task_MP_exp2,2020.2.5,Win32,60,z,1,,,,,,,,0.783065,1,,,,,,390,NW,"ID",16,hatrus,HATRUS,z,0.783065,,,,,,0.177777778,-0.136111111,0,0,0,,0,278,278,329,1
,,,,,,,,,,,,,,,,,,5fbd8615d29543198393bdc7,2020-11-25_17h30.00.431,lexical_decision_task_MP_exp2,2020.2.5,Win32,60,z,1,,,,,,,,0.80096,1,,,,,,298,NW,UN,16,sturch,PIERGY,z,0.80096,,,,,,0.177777778,-0.136111111,0,0,0,,0,279,279,477,1
,,,,,,,,,,,,,,,,,,5fbd8615d29543198393bdc7,2020-11-25_17h30.00.431,lexical_decision_task_MP_exp2,2020.2.5,Win32,60,m,1,,,,,,,,1.168035,1,,,,,,117,WORD,"ID",33,branch,BRANCH,m,1.168035,,,,,,0.177777778,-0.136111111,0,0,0,,0,280,280,56,1
,,,,,,,,,,,,,,,,,,5fbd8615d29543198393bdc7,2020-11-25_17h30.00.431,lexical_decision_task_MP_exp2,2020.2.5,Win32,60,m,1,,,,,,,,0.63408,1,,,,,,197,WORD,UN,33,wicked,STREAM,m,0.63408,,,,,,0.177777778,-0.136111111,0,0,0,,0,281,281,136,1
,,,,,,,,,,,,,,,,,,5fbd8615d29543198393bdc7,2020-11-25_17h30.00.431,lexical_decision_task_MP_exp2,2020.2.5,Win32,60,m,1,,,,,,,,0.64644,1,,,,,,153,WORD,"ID",16,behold,BEHOLD,m,0.64644,,,,,,0.177777778,-0.136111111,0,0,0,,0,282,282,92,1
,,,,,,,,,,,,,,,,,,5fbd8615d29543198393bdc7,2020-11-25_17h30.00.431,lexical_decision_task_MP_exp2,2020.2.5,Win32,60,m,0,,,,,,,,1.49443,0,,,,,,277,NW,UN,16,unighs,PETAIN,z,1.49443,,,,,,0.177777778,-0.136111111,0,0,0,,0,283,283,456,1
,,,,,,,,,,,,,,,,,,5fbd8615d29543198393bdc7,2020-11-25_17h30.00.431,lexical_decision_task_MP_exp2,2020.2.5,Win32,60,z,1,,,,,,,,0.636505,1,,,,,,459,NW,UN,33,mingar,BAFENT,z,0.636505,,,,,,0.177777778,-0.136111111,0,0,0,,0,284,284,398,1
,,,,,,,,,,,,,,,,,,5fbd8615d29543198393bdc7,2020-11-25_17h30.00.431,lexical_decision_task_MP_exp2,2020.2.5,Win32,60,z,1,,,,,,,,0.762655,1,,,,,,255,NW,UN,16,inlors,APIGHT,z,0.762655,,,,,,0.177777778,-0.136111111,0,0,0,,0,285,285,434,1
,,,,,,,,,,,,,,,,,,5fbd8615d29543198393bdc7,2020-11-25_17h30.00.431,lexical_decision_task_MP_exp2,2020.2.5,Win32,60,m,1,,,,,,,,0.721335,1,,,,,,144,WORD,"ID",16,sponge,SPONGE,m,0.721335,,,,,,0.177777778,-0.136111111,0,0,0,,0,286,286,83,1
,,,,,,,,,,,,,,,,,,5fbd8615d29543198393bdc7,2020-11-25_17h30.00.431,lexical_decision_task_MP_exp2,2020.2.5,Win32,60,m,1,,,,,,,,0.967915,1,,,,,,154,WORD,"ID",16,author,AUTHOR,m,0.967915,,,,,,0.177777778,-0.136111111,0,0,0,,0,287,287,93,1
,,,,,,,,,,,,,,,,,,5fbd8615d29543198393bdc7,2020-11-25_17h30.00.431,lexical_decision_task_MP_exp2,2020.2.5,Win32,60,m,1,,,,,,,,0.759065,1,,,,,,214,WORD,UN,33,phobia,INTAKE,m,0.759065,,,,,,0.177777778,-0.136111111,0,0,0,,0,288,288,153,1
,,,,,,,,,,,,,,,,,,5fbd8615d29543198393bdc7,2020-11-25_17h30.00.431,lexical_decision_task_MP_exp2,2020.2.5,Win32,60,z,1,,,,,,,,0.787115,1,,,,,,302,NW,"ID",33,miluer,MILUER,z,0.787115,,,,,,0.177777778,-0.136111111,0,0,0,,0,289,289,241,1
,,,,,,,,,,,,,,,,,,5fbd8615d29543198393bdc7,2020-11-25_17h30.00.431,lexical_decision_task_MP_exp2,2020.2.5,Win32,60,z,1,,,,,,,,1.134035,1,,,,,,332,NW,"ID",33,vangue,VANGUE,z,1.134035,,,,,,0.177777778,-0.136111111,0,0,0,,0,290,290,271,1
,,,,,,,,,,,,,,,,,,5fbd8615d29543198393bdc7,2020-11-25_17h30.00.431,lexical_decision_task_MP_exp2,2020.2.5,Win32,60,m,1,,,,,,,,1.273715,1,,,,,,176,WORD,"ID",16,strife,STRIFE,m,1.273715,,,,,,0.177777778,-0.136111111,0,0,0,,0,291,291,115,1
,,,,,,,,,,,,,,,,,,5fbd8615d29543198393bdc7,2020-11-25_17h30.00.431,lexical_decision_task_MP_exp2,2020.2.5,Win32,60,m,1,,,,,,,,0.591775,1,,,,,,109,WORD,"ID",33,wonder,WONDER,m,0.591775,,,,,,0.177777778,-0.136111111,0,0,0,,0,292,292,48,1
,,,,,,,,,,,,,,,,,,5fbd8615d29543198393bdc7,2020-11-25_17h30.00.431,lexical_decision_task_MP_exp2,2020.2.5,Win32,60,m,1,,,,,,,,0.66899,1,,,,,,191,WORD,UN,33,beacon,STABLE,m,0.66899,,,,,,0.177777778,-0.136111111,0,0,0,,0,293,293,130,1
,,,,,,,,,,,,,,,,,,5fbd8615d29543198393bdc7,2020-11-25_17h30.00.431,lexical_decision_task_MP_exp2,2020.2.5,Win32,60,z,1,,,,,,,,0.78518,1,,,,,,273,NW,UN,16,fumblo,SORTEL,z,0.78518,,,,,,0.177777778,-0.136111111,0,0,0,,0,294,294,452,1
,,,,,,,,,,,,,,,,,,5fbd8615d29543198393bdc7,2020-11-25_17h30.00.431,lexical_decision_task_MP_exp2,2020.2.5,Win32,60,z,1,,,,,,,,1.307455,1,,,,,,409,NW,"ID",16,elopia,ELOPIA,z,1.307455,,,,,,0.177777778,-0.136111111,0,0,0,,0,295,295,348,1
,,,,,,,,,,,,,,,,,,5fbd8615d29543198393bdc7,2020-11-25_17h30.00.431,lexical_decision_task_MP_exp2,2020.2.5,Win32,60,z,1,,,,,,,,0.66771,1,,,,,,453,NW,UN,33,scouge,BOLVIS,z,0.66771,,,,,,0.177777778,-0.136111111,0,0,0,,0,296,296,392,1
,,,,,,,,,,,,,,,,,,5fbd8615d29543198393bdc7,2020-11-25_17h30.00.431,lexical_decision_task_MP_exp2,2020.2.5,Win32,60,m,1,,,,,,,,0.784955,1,,,,,,160,WORD,"ID",16,violet,VIOLET,m,0.784955,,,,,,0.177777778,-0.136111111,0,0,0,,0,297,297,99,1
,,,,,,,,,,,,,,,,,,5fbd8615d29543198393bdc7,2020-11-25_17h30.00.431,lexical_decision_task_MP_exp2,2020.2.5,Win32,60,z,1,,,,,,,,0.810825,1,,,,,,476,NW,UN,33,photie,JOSTED,z,0.810825,,,,,,0.177777778,-0.136111111,0,0,0,,0,298,298,415,1
,,,,,,,,,,,,,,,,,,5fbd8615d29543198393bdc7,2020-11-25_17h30.00.431,lexical_decision_task_MP_exp2,2020.2.5,Win32,60,m,1,,,,,,,,0.702635,1,,,,,,118,WORD,"ID",33,flight,FLIGHT,m,0.702635,,,,,,0.177777778,-0.136111111,0,0,0,,0,299,299,57,1
,,,,,,,,,,,,,,,,,,5fbd8615d29543198393bdc7,2020-11-25_17h30.00.431,lexical_decision_task_MP_exp2,2020.2.5,Win32,60,m,1,,,,,,,,1.16961,1,,,,,,137,WORD,"ID",16,finger,FINGER,m,1.16961,,,,,,0.177777778,-0.136111111,0,0,0,,0,300,300,76,1
,,,,,,,,,,,,,,,,,,5fbd8615d29543198393bdc7,2020-11-25_17h30.00.431,lexical_decision_task_MP_exp2,2020.2.5,Win32,60,m,1,,,,,,,,0.64779,1,,,,,,223,WORD,UN,33,period,KIDNEY,m,0.64779,,,,,,0.177777778,-0.136111111,0,0,0,,0,301,301,162,1
,,,,,,,,,,,,,,,,,,5fbd8615d29543198393bdc7,2020-11-25_17h30.00.431,lexical_decision_task_MP_exp2,2020.2.5,Win32,60,z,1,,,,,,,,0.750035,1,,,,,,421,NW,UN,33,alcoud,KNISMA,z,0.750035,,,,,,0.177777778,-0.136111111,0,0,0,,0,302,302,360,1
,,,,,,,,,,,,,,,,,,5fbd8615d29543198393bdc7,2020-11-25_17h30.00.431,lexical_decision_task_MP_exp2,2020.2.5,Win32,60,z,1,,,,,,,,1.159985,1,,,,,,306,NW,"ID",33,sounge,SOUNGE,z,1.159985,,,,,,0.177777778,-0.136111111,0,0,0,,0,303,303,245,1
,,,,,,,,,,,,,,,,,,5fbd8615d29543198393bdc7,2020-11-25_17h30.00.431,lexical_decision_task_MP_exp2,2020.2.5,Win32,60,m,1,,,,,,,,0.74812,1,,,,,,236,WORD,UN,33,grumpy,PIRATE,m,0.74812,,,,,,0.177777778,-0.136111111,0,0,0,,0,304,304,175,1
,,,,,,,,,,,,,,,,,,5fbd8615d29543198393bdc7,2020-11-25_17h30.00.431,lexical_decision_task_MP_exp2,2020.2.5,Win32,60,m,1,,,,,,,,0.82336,1,,,,,,232,WORD,UN,33,nature,INJECT,m,0.82336,,,,,,0.177777778,-0.136111111,0,0,0,,0,305,305,171,1
,,,,,,,,,,,,,,,,,,5fbd8615d29543198393bdc7,2020-11-25_17h30.00.431,lexical_decision_task_MP_exp2,2020.2.5,Win32,60,m,1,,,,,,,,1.040065,1,,,,,,77,WORD,"ID",33,racket,RACKET,m,1.040065,,,,,,0.177777778,-0.136111111,0,0,0,,0,306,306,16,1
,,,,,,,,,,,,,,,,,,5fbd8615d29543198393bdc7,2020-11-25_17h30.00.431,lexical_decision_task_MP_exp2,2020.2.5,Win32,60,m,1,,,,,,,,0.767045,1,,,,,,107,WORD,"ID",33,slogan,SLOGAN,m,0.767045,,,,,,0.177777778,-0.136111111,0,0,0,,0,307,307,46,1
,,,,,,,,,,,,,,,,,,5fbd8615d29543198393bdc7,2020-11-25_17h30.00.431,lexical_decision_task_MP_exp2,2020.2.5,Win32,60,z,1,,,,,,,,0.778645,1,,,,,,267,NW,UN,16,packes,PASINK,z,0.778645,,,,,,0.177777778,-0.136111111,0,0,0,,0,308,308,446,1
,,,,,,,,,,,,,,,,,,5fbd8615d29543198393bdc7,2020-11-25_17h30.00.431,lexical_decision_task_MP_exp2,2020.2.5,Win32,60,z,1,,,,,,,,0.933945,1,,,,,,322,NW,"ID",33,slanch,SLANCH,z,0.933945,,,,,,0.177777778,-0.136111111,0,0,0,,0,309,309,261,1
,,,,,,,,,,,,,,,,,,5fbd8615d29543198393bdc7,2020-11-25_17h30.00.431,lexical_decision_task_MP_exp2,2020.2.5,Win32,60,z,1,,,,,,,,0.99982,1,,,,,,325,NW,"ID",33,thruse,THRUSE,z,0.99982,,,,,,0.177777778,-0.136111111,0,0,0,,0,310,310,264,1
,,,,,,,,,,,,,,,,,,5fbd8615d29543198393bdc7,2020-11-25_17h30.00.431,lexical_decision_task_MP_exp2,2020.2.5,Win32,60,m,1,,,,,,,,0.729485,1,,,,,,18,WORD,UN,16,patron,HUMBLE,m,0.729485,,,,,,0.177777778,-0.136111111,0,0,0,,0,311,311,197,1
,,,,,,,,,,,,,,,,,,5fbd8615d29543198393bdc7,2020-11-25_17h30.00.431,lexical_decision_task_MP_exp2,2020.2.5,Win32,60,m,1,,,,,,,,0.688135,1,,,,,,13,WORD,UN,16,almost,STRIVE,m,0.688135,,,,,,0.177777778,-0.136111111,0,0,0,,0,312,312,192,1
,,,,,,,,,,,,,,,,,,5fbd8615d29543198393bdc7,2020-11-25_17h30.00.431,lexical_decision_task_MP_exp2,2020.2.5,Win32,60,z,1,,,,,,,,0.900955,1,,,,,,449,NW,UN,33,phrect,BRUNGE,z,0.900955,,,,,,0.177777778,-0.136111111,0,0,0,,0,313,313,388,1
,,,,,,,,,,,,,,,,,,5fbd8615d29543198393bdc7,2020-11-25_17h30.00.431,lexical_decision_task_MP_exp2,2020.2.5,Win32,60,m,1,,,,,,,,0.66041,1,,,,,,164,WORD,"ID",16,market,MARKET,m,0.66041,,,,,,0.177777778,-0.136111111,0,0,0,,0,314,314,103,1
,,,,,,,,,,,,,,,,,,5fbd8615d29543198393bdc7,2020-11-25_17h30.00.431,lexical_decision_task_MP_exp2,2020.2.5,Win32,60,m,1,,,,,,,,0.61849,1,,,,,,21,WORD,UN,16,jockey,SIMPLE,m,0.61849,,,,,,0.177777778,-0.136111111,0,0,0,,0,315,315,200,1
,,,,,,,,,,,,,,,,,,5fbd8615d29543198393bdc7,2020-11-25_17h30.00.431,lexical_decision_task_MP_exp2,2020.2.5,Win32,60,m,1,,,,,,,,0.58613,1,,,,,,34,WORD,UN,16,socket,JUNGLE,m,0.58613,,,,,,0.177777778,-0.136111111,0,0,0,,0,316,316,213,1
,,,,,,,,,,,,,,,,,,5fbd8615d29543198393bdc7,2020-11-25_17h30.00.431,lexical_decision_task_MP_exp2,2020.2.5,Win32,60,m,1,,,,,,,,0.60118,1,,,,,,92,WORD,"ID",33,strand,STRAND,m,0.60118,,,,,,0.177777778,-0.136111111,0,0,0,,0,317,317,31,1
,,,,,,,,,,,,,,,,,,5fbd8615d29543198393bdc7,2020-11-25_17h30.00.431,lexical_decision_task_MP_exp2,2020.2.5,Win32,60,z,1,,,,,,,,0.80032,1,,,,,,380,NW,"ID",16,cavory,CAVORY,z,0.80032,,,,,,0.177777778,-0.136111111,0,0,0,,0,318,318,319,1
,,,,,,,,,,,,,,,,,,5fbd8615d29543198393bdc7,2020-11-25_17h30.00.431,lexical_decision_task_MP_exp2,2020.2.5,Win32,60,m,1,,,,,,,,0.955035,1,,,,,,170,WORD,"ID",16,pounce,POUNCE,m,0.955035,,,,,,0.177777778,-0.136111111,0,0,0,,0,319,319,109,1
,,,,,,,,,,,,,,,,,,5fbd8615d29543198393bdc7,2020-11-25_17h30.00.431,lexical_decision_task_MP_exp2,2020.2.5,Win32,60,z,1,,,,,,,,1.021045,1,,,,,,456,NW,UN,33,wanigh,BROGET,z,1.021045,,,,,,0.177777778,-0.136111111,0,0,0,,0,320,320,395,1
,,,,,,,,,,,,,,,,,,5fbd8615d29543198393bdc7,2020-11-25_17h30.00.431,lexical_decision_task_MP_exp2,2020.2.5,Win32,60,z,1,,,,,,,,0.941245,1,,,,,,396,NW,"ID",16,flengy,FLENGY,z,0.941245,,,,,,0.177777778,-0.136111111,0,0,0,,0,321,321,335,1
,,,,,,,,,,,,,,,,,,5fbd8615d29543198393bdc7,2020-11-25_17h30.00.431,lexical_decision_task_MP_exp2,2020.2.5,Win32,60,m,1,,,,,,,,0.673235,1,,,,,,76,WORD,"ID",33,exotic,EXOTIC,m,0.673235,,,,,,0.177777778,-0.136111111,0,0,0,,0,322,322,15,1
,,,,,,,,,,,,,,,,,,5fbd8615d29543198393bdc7,2020-11-25_17h30.00.431,lexical_decision_task_MP_exp2,2020.2.5,Win32,60,m,1,,,,,,,,0.82678,1,,,,,,30,WORD,UN,16,weapon,ORIENT,m,0.82678,,,,,,0.177777778,-0.136111111,0,0,0,,0,323,323,209,1
,,,,,,,,,,,,,,,,,,5fbd8615d29543198393bdc7,2020-11-25_17h30.00.431,lexical_decision_task_MP_exp2,2020.2.5,Win32,60,m,1,,,,,,,,0.641505,1,,,,,,195,WORD,UN,33,credit,RESIGN,m,0.641505,,,,,,0.177777778,-0.136111111,0,0,0,,0,324,324,134,1
,,,,,,,,,,,,,,,,,,5fbd8615d29543198393bdc7,2020-11-25_17h30.00.431,lexical_decision_task_MP_exp2,2020.2.5,Win32,60,m,1,,,,,,,,1.041925,1,,,,,,39,WORD,UN,16,convey,INSECT,m,1.041925,,,,,,0.177777778,-0.136111111,0,0,0,,0,325,325,218,1
,,,,,,,,,,,,,,,,,,5fbd8615d29543198393bdc7,2020-11-25_17h30.00.431,lexical_decision_task_MP_exp2,2020.2.5,Win32,60,z,1,,,,,,,,0.766335,1,,,,,,470,NW,UN,33,nobest,CRUDIO,z,0.766335,,,,,,0.177777778,-0.136111111,0,0,0,,0,326,326,409,1
,,,,,,,,,,,,,,,,,,5fbd8615d29543198393bdc7,2020-11-25_17h30.00.431,lexical_decision_task_MP_exp2,2020.2.5,Win32,60,z,1,,,,,,,,0.676375,1,,,,,,288,NW,UN,16,starby,YACEUP,z,0.676375,,,,,,0.177777778,-0.136111111,0,0,0,,0,327,327,467,1
,,,,,,,,,,,,,,,,,,5fbd8615d29543198393bdc7,2020-11-25_17h30.00.431,lexical_decision_task_MP_exp2,2020.2.5,Win32,60,z,1,,,,,,,,1.12428,1,,,,,,293,NW,UN,16,inhort,SWANCE,z,1.12428,,,,,,0.177777778,-0.136111111,0,0,0,,0,328,328,472,1
,,,,,,,,,,,,,,,,,,5fbd8615d29543198393bdc7,2020-11-25_17h30.00.431,lexical_decision_task_MP_exp2,2020.2.5,Win32,60,z,1,,,,,,,,0.697725,1,,,,,,262,NW,UN,16,dolica,QUILEW,z,0.697725,,,,,,0.177777778,-0.136111111,0,0,0,,0,329,329,441,1
,,,,,,,,,,,,,,,,,,5fbd8615d29543198393bdc7,2020-11-25_17h30.00.431,lexical_decision_task_MP_exp2,2020.2.5,Win32,60,m,1,,,,,,,,0.70385,1,,,,,,50,WORD,UN,16,hungry,SNATCH,m,0.70385,,,,,,0.177777778,-0.136111111,0,0,0,,0,330,330,229,1
,,,,,,,,,,,,,,,,,,5fbd8615d29543198393bdc7,2020-11-25_17h30.00.431,lexical_decision_task_MP_exp2,2020.2.5,Win32,60,m,1,,,,,,,,0.612205,1,,,,,,163,WORD,"ID",16,string,STRING,m,0.612205,,,,,,0.177777778,-0.136111111,0,0,0,,0,331,331,102,1
,,,,,,,,,,,,,,,,,,5fbd8615d29543198393bdc7,2020-11-25_17h30.00.431,lexical_decision_task_MP_exp2,2020.2.5,Win32,60,z,1,,,,,,,,0.886075,1,,,,,,358,NW,"ID",33,fleack,FLEACK,z,0.886075,,,,,,0.177777778,-0.136111111,0,0,0,,0,332,332,297,1
,,,,,,,,,,,,,,,,,,5fbd8615d29543198393bdc7,2020-11-25_17h30.00.431,lexical_decision_task_MP_exp2,2020.2.5,Win32,60,m,1,,,,,,,,0.677915,1,,,,,,63,WORD,"ID",33,launch,LAUNCH,m,0.677915,,,,,,0.177777778,-0.136111111,0,0,0,,0,333,333,2,1
,,,,,,,,,,,,,,,,,,5fbd8615d29543198393bdc7,2020-11-25_17h30.00.431,lexical_decision_task_MP_exp2,2020.2.5,Win32,60,m,1,,,,,,,,0.59516,1,,,,,,6,WORD,UN,16,anchor,BUNDLE,m,0.59516,,,,,,0.177777778,-0.136111111,0,0,0,,0,334,334,185,1
,,,,,,,,,,,,,,,,,,5fbd8615d29543198393bdc7,2020-11-25_17h30.00.431,lexical_decision_task_MP_exp2,2020.2.5,Win32,60,m,1,,,,,,,,0.662835,1,,,,,,127,WORD,"ID",16,castle,CASTLE,m,0.662835,,,,,,0.177777778,-0.136111111,0,0,0,,0,335,335,66,1
,,,,,,,,,,,,,,,,,,5fbd8615d29543198393bdc7,2020-11-25_17h30.00.431,lexical_decision_task_MP_exp2,2020.2.5,Win32,60,m,1,,,,,,,,0.68452,1,,,,,,82,WORD,"ID",33,stigma,STIGMA,m,0.68452,,,,,,0.177777778,-0.136111111,0,0,0,,0,336,336,21,1
,,,,,,,,,,,,,,,,,,5fbd8615d29543198393bdc7,2020-11-25_17h30.00.431,lexical_decision_task_MP_exp2,2020.2.5,Win32,60,m,0,,,,,,,,0.77833,0,,,,,,392,NW,"ID",16,rouncy,ROUNCY,z,0.77833,,,,,,0.177777778,-0.136111111,0,0,0,,0,337,337,331,1
,,,,,,,,,,,,,,,,,,5fbd8615d29543198393bdc7,2020-11-25_17h30.00.431,lexical_decision_task_MP_exp2,2020.2.5,Win32,60,m,1,,,,,,,,0.76546,1,,,,,,58,WORD,UN,16,splint,FOSTER,m,0.76546,,,,,,0.177777778,-0.136111111,0,0,0,,0,338,338,237,1
,,,,,,,,,,,,,,,,,,5fbd8615d29543198393bdc7,2020-11-25_17h30.00.431,lexical_decision_task_MP_exp2,2020.2.5,Win32,60,z,1,,,,,,,,0.71792,1,,,,,,263,NW,UN,16,vackel,DOLICA,z,0.71792,,,,,,0.177777778,-0.136111111,0,0,0,,0,339,339,442,1
,,,,,,,,,,,,,,,,,,5fbd8615d29543198393bdc7,2020-11-25_17h30.00.431,lexical_decision_task_MP_exp2,2020.2.5,Win32,60,z,1,,,,,,,,0.943845,1,,,,,,413,NW,"ID",16,equats,EQUATS,z,0.943845,,,,,,0.177777778,-0.136111111,0,0,0,,0,340,340,352,1
,,,,,,,,,,,,,,,,,,5fbd8615d29543198393bdc7,2020-11-25_17h30.00.431,lexical_decision_task_MP_exp2,2020.2.5,Win32,60,z,1,,,,,,,,0.77291,1,,,,,,388,NW,"ID",16,cragin,CRAGIN,z,0.77291,,,,,,0.177777778,-0.136111111,0,0,0,,0,341,341,327,1
,,,,,,,,,,,,,,,,,,5fbd8615d29543198393bdc7,2020-11-25_17h30.00.431,lexical_decision_task_MP_exp2,2020.2.5,Win32,60,z,1,,,,,,,,0.734265,1,,,,,,272,NW,UN,16,sortel,DAMILT,z,0.734265,,,,,,0.177777778,-0.136111111,0,0,0,,0,342,342,451,1
,,,,,,,,,,,,,,,,,,5fbd8615d29543198393bdc7,2020-11-25_17h30.00.431,lexical_decision_task_MP_exp2,2020.2.5,Win32,60,m,1,,,,,,,,0.60067,1,,,,,,68,WORD,"ID",33,fumble,FUMBLE,m,0.60067,,,,,,0.177777778,-0.136111111,0,0,0,,0,343,343,7,1
,,,,,,,,,,,,,,,,,,5fbd8615d29543198393bdc7,2020-11-25_17h30.00.431,lexical_decision_task_MP_exp2,2020.2.5,Win32,60,m,1,,,,,,,,0.87445,1,,,,,,222,WORD,UN,33,export,HINDER,m,0.87445,,,,,,0.177777778,-0.136111111,0,0,0,,0,344,344,161,1
,,,,,,,,,,,,,,,,,,5fbd8615d29543198393bdc7,2020-11-25_17h30.00.431,lexical_decision_task_MP_exp2,2020.2.5,Win32,60,z,1,,,,,,,,0.81766,1,,,,,,469,NW,UN,33,crudio,PADIFS,z,0.81766,,,,,,0.177777778,-0.136111111,0,0,0,,0,345,345,408,1
,,,,,,,,,,,,,,,,,,5fbd8615d29543198393bdc7,2020-11-25_17h30.00.431,lexical_decision_task_MP_exp2,2020.2.5,Win32,60,z,1,,,,,,,,0.77084,1,,,,,,346,NW,"ID",33,saudic,SAUDIC,z,0.77084,,,,,,0.177777778,-0.136111111,0,0,0,,0,346,346,285,1
,,,,,,,,,,,,,,,,,,5fbd8615d29543198393bdc7,2020-11-25_17h30.00.431,lexical_decision_task_MP_exp2,2020.2.5,Win32,60,m,1,,,,,,,,0.67679,1,,,,,,27,WORD,UN,16,comedy,SCREAM,m,0.67679,,,,,,0.177777778,-0.136111111,0,0,0,,0,347,347,206,1
,,,,,,,,,,,,,,,,,,5fbd8615d29543198393bdc7,2020-11-25_17h30.00.431,lexical_decision_task_MP_exp2,2020.2.5,Win32,60,m,1,,,,,,,,0.750615,1,,,,,,204,WORD,UN,33,lounge,BURDEN,m,0.750615,,,,,,0.177777778,-0.136111111,0,0,0,,0,348,348,143,1
,,,,,,,,,,,,,,,,,,5fbd8615d29543198393bdc7,2020-11-25_17h30.00.431,lexical_decision_task_MP_exp2,2020.2.5,Win32,60,z,1,,,,,,,,0.95301,1,,,,,,460,NW,UN,33,justre,MINGAR,z,0.95301,,,,,,0.177777778,-0.136111111,0,0,0,,0,349,349,399,1
,,,,,,,,,,,,,,,,,,5fbd8615d29543198393bdc7,2020-11-25_17h30.00.431,lexical_decision_task_MP_exp2,2020.2.5,Win32,60,z,1,,,,,,,,0.778155,1,,,,,,370,NW,"ID",16,sleact,SLEACT,z,0.778155,,,,,,0.177777778,-0.136111111,0,0,0,,0,350,350,309,1
,,,,,,,,,,,,,,,,,,5fbd8615d29543198393bdc7,2020-11-25_17h30.00.431,lexical_decision_task_MP_exp2,2020.2.5,Win32,60,z,1,,,,,,,,0.846155,1,,,,,,473,NW,UN,33,hablin,CRIBLE,z,0.846155,,,,,,0.177777778,-0.136111111,0,0,0,,0,351,351,412,1
,,,,,,,,,,,,,,,,,,5fbd8615d29543198393bdc7,2020-11-25_17h30.00.431,lexical_decision_task_MP_exp2,2020.2.5,Win32,60,m,1,,,,,,,,0.694395,1,,,,,,71,WORD,"ID",33,garden,GARDEN,m,0.694395,,,,,,0.177777778,-0.136111111,0,0,0,,0,352,352,10,1
,,,,,,,,,,,,,,,,,,5fbd8615d29543198393bdc7,2020-11-25_17h30.00.431,lexical_decision_task_MP_exp2,2020.2.5,Win32,60,z,1,,,,,,,,0.6911,1,,,,,,448,NW,UN,33,brunge,SADENT,z,0.6911,,,,,,0.177777778,-0.136111111,0,0,0,,0,353,353,387,1
,,,,,,,,,,,,,,,,,,5fbd8615d29543198393bdc7,2020-11-25_17h30.00.431,lexical_decision_task_MP_exp2,2020.2.5,Win32,60,m,1,,,,,,,,0.63314,1,,,,,,78,WORD,"ID",33,column,COLUMN,m,0.63314,,,,,,0.177777778,-0.136111111,0,0,0,,0,354,354,17,1
,,,,,,,,,,,,,,,,,,5fbd8615d29543198393bdc7,2020-11-25_17h30.00.431,lexical_decision_task_MP_exp2,2020.2.5,Win32,60,z,1,,,,,,,,0.71468,1,,,,,,472,NW,UN,33,gorbie,CIGNEY,z,0.71468,,,,,,0.177777778,-0.136111111,0,0,0,,0,355,355,411,1
,,,,,,,,,,,,,,,,,,5fbd8615d29543198393bdc7,2020-11-25_17h30.00.431,lexical_decision_task_MP_exp2,2020.2.5,Win32,60,m,1,,,,,,,,0.68948,1,,,,,,105,WORD,"ID",33,number,NUMBER,m,0.68948,,,,,,0.177777778,-0.136111111,0,0,0,,0,356,356,44,1
,,,,,,,,,,,,,,,,,,5fbd8615d29543198393bdc7,2020-11-25_17h30.00.431,lexical_decision_task_MP_exp2,2020.2.5,Win32,60,m,1,,,,,,,,0.72623,1,,,,,,209,WORD,UN,33,monkey,SEARCH,m,0.72623,,,,,,0.177777778,-0.136111111,0,0,0,,0,357,357,148,1
,,,,,,,,,,,,,,,,,,5fbd8615d29543198393bdc7,2020-11-25_17h30.00.431,lexical_decision_task_MP_exp2,2020.2.5,Win32,60,z,1,,,,,,,,0.64216,1,,,,,,384,NW,"ID",16,guesco,GUESCO,z,0.64216,,,,,,0.177777778,-0.136111111,0,0,0,,0,358,358,323,1
,,,,,,,,,,,,,,,,,,5fbd8615d29543198393bdc7,2020-11-25_17h30.00.431,lexical_decision_task_MP_exp2,2020.2.5,Win32,60,m,1,,,,,,,,0.673955,1,,,,,,33,WORD,UN,16,jungle,BUTLER,m,0.673955,,,,,,0.177777778,-0.136111111,0,0,0,,0,359,359,212,1
,,,,,,,,,,,,,,,,,,5fbd8615d29543198393bdc7,2020-11-25_17h30.00.431,lexical_decision_task_MP_exp2,2020.2.5,Win32,60,z,1,,,,,,,,0.785905,1,,,,,,378,NW,"ID",16,shrile,SHRILE,z,0.785905,,,,,,0.177777778,-0.136111111,0,0,0,,0,360,360,317,1
,,,,,,,,,,,,,,,,,,5fbd8615d29543198393bdc7,2020-11-25_17h30.00.431,lexical_decision_task_MP_exp2,2020.2.5,Win32,60,z,1,,,,,,,,0.717075,1,,,,,,393,NW,"ID",16,ganous,GANOUS,z,0.717075,,,,,,0.177777778,-0.136111111,0,0,0,,0,361,361,332,1
,,,,,,,,,,,,,,,,,,5fbd8615d29543198393bdc7,2020-11-25_17h30.00.431,lexical_decision_task_MP_exp2,2020.2.5,Win32,60,z,1,,,,,,,,0.62311,1,,,,,,355,NW,"ID",33,zingly,ZINGLY,z,0.62311,,,,,,0.177777778,-0.136111111,0,0,0,,0,362,362,294,1
,,,,,,,,,,,,,,,,,,5fbd8615d29543198393bdc7,2020-11-25_17h30.00.431,lexical_decision_task_MP_exp2,2020.2.5,Win32,60,m,1,,,,,,,,0.552285,1,,,,,,152,WORD,"ID",16,rocket,ROCKET,m,0.552285,,,,,,0.177777778,-0.136111111,0,0,0,,0,363,363,91,1
,,,,,,,,,,,,,,,,,,5fbd8615d29543198393bdc7,2020-11-25_17h30.00.431,lexical_decision_task_MP_exp2,2020.2.5,Win32,60,m,1,,,,,,,,0.587915,1,,,,,,207,WORD,UN,33,hockey,WREATH,m,0.587915,,,,,,0.177777778,-0.136111111,0,0,0,,0,364,364,146,1
,,,,,,,,,,,,,,,,,,5fbd8615d29543198393bdc7,2020-11-25_17h30.00.431,lexical_decision_task_MP_exp2,2020.2.5,Win32,60,m,1,,,,,,,,0.67187,1,,,,,,156,WORD,"ID",16,cradle,CRADLE,m,0.67187,,,,,,0.177777778,-0.136111111,0,0,0,,0,365,365,95,1
,,,,,,,,,,,,,,,,,,5fbd8615d29543198393bdc7,2020-11-25_17h30.00.431,lexical_decision_task_MP_exp2,2020.2.5,Win32,60,z,1,,,,,,,,0.73384,1,,,,,,292,NW,UN,16,swance,ABLINT,z,0.73384,,,,,,0.177777778,-0.136111111,0,0,0,,0,366,366,471,1
,,,,,,,,,,,,,,,,,,5fbd8615d29543198393bdc7,2020-11-25_17h30.00.431,lexical_decision_task_MP_exp2,2020.2.5,Win32,60,m,1,,,,,,,,0.734775,1,,,,,,235,WORD,UN,33,pirate,GRUMPY,m,0.734775,,,,,,0.177777778,-0.136111111,0,0,0,,0,367,367,174,1
,,,,,,,,,,,,,,,,,,5fbd8615d29543198393bdc7,2020-11-25_17h30.00.431,lexical_decision_task_MP_exp2,2020.2.5,Win32,60,m,1,,,,,,,,0.549825,1,,,,,,69,WORD,"ID",33,plenty,PLENTY,m,0.549825,,,,,,0.177777778,-0.136111111,0,0,0,,0,368,368,8,1
,,,,,,,,,,,,,,,,,,5fbd8615d29543198393bdc7,2020-11-25_17h30.00.431,lexical_decision_task_MP_exp2,2020.2.5,Win32,60,m,1,,,,,,,,0.56988,1,,,,,,43,WORD,UN,16,foster,TONGUE,m,0.56988,,,,,,0.177777778,-0.136111111,0,0,0,,0,369,369,222,1
,,,,,,,,,,,,,,,,,,5fbd8615d29543198393bdc7,2020-11-25_17h30.00.431,lexical_decision_task_MP_exp2,2020.2.5,Win32,60,z,1,,,,,,,,0.727845,1,,,,,,323,NW,"ID",33,rosail,ROSAIL,z,0.727845,,,,,,0.177777778,-0.136111111,0,0,0,,0,370,370,262,1
,,,,,,,,,,,,,,,,,,5fbd8615d29543198393bdc7,2020-11-25_17h30.00.431,lexical_decision_task_MP_exp2,2020.2.5,Win32,60,m,1,,,,,,,,0.706635,1,,,,,,225,WORD,UN,33,casino,VULGAR,m,0.706635,,,,,,0.177777778,-0.136111111,0,0,0,,0,371,371,164,1
,,,,,,,,,,,,,,,,,,5fbd8615d29543198393bdc7,2020-11-25_17h30.00.431,lexical_decision_task_MP_exp2,2020.2.5,Win32,60,z,1,,,,,,,,0.823875,1,,,,,,372,NW,"ID",16,ramily,RAMILY,z,0.823875,,,,,,0.177777778,-0.136111111,0,0,0,,0,372,372,311,1
,,,,,,,,,,,,,,,,,,5fbd8615d29543198393bdc7,2020-11-25_17h30.00.431,lexical_decision_task_MP_exp2,2020.2.5,Win32,60,z,1,,,,,,,,0.80151,1,,,,,,254,NW,UN,16,apight,VAROSH,z,0.80151,,,,,,0.177777778,-0.136111111,0,0,0,,0,373,373,433,1
,,,,,,,,,,,,,,,,,,5fbd8615d29543198393bdc7,2020-11-25_17h30.00.431,lexical_decision_task_MP_exp2,2020.2.5,Win32,60,m,1,,,,,,,,0.601175,1,,,,,,25,WORD,UN,16,sprint,DOMAIN,m,0.601175,,,,,,0.177777778,-0.136111111,0,0,0,,0,374,374,204,1
,,,,,,,,,,,,,,,,,,5fbd8615d29543198393bdc7,2020-11-25_17h30.00.431,lexical_decision_task_MP_exp2,2020.2.5,Win32,60,m,1,,,,,,,,0.61122,1,,,,,,80,WORD,"ID",33,family,FAMILY,m,0.61122,,,,,,0.177777778,-0.136111111,0,0,0,,0,375,375,19,1
,,,,,,,,,,,,,,,,,,5fbd8615d29543198393bdc7,2020-11-25_17h30.00.431,lexical_decision_task_MP_exp2,2020.2.5,Win32,60,m,1,,,,,,,,0.703865,1,,,,,,66,WORD,"ID",33,gospel,GOSPEL,m,0.703865,,,,,,0.177777778,-0.136111111,0,0,0,,0,376,376,5,1
,,,,,,,,,,,,,,,,,,5fbd8615d29543198393bdc7,2020-11-25_17h30.00.431,lexical_decision_task_MP_exp2,2020.2.5,Win32,60,z,1,,,,,,,,0.802695,1,,,,,,406,NW,"ID",16,nouply,NOUPLY,z,0.802695,,,,,,0.177777778,-0.136111111,0,0,0,,0,377,377,345,1
,,,,,,,,,,,,,,,,,,5fbd8615d29543198393bdc7,2020-11-25_17h30.00.431,lexical_decision_task_MP_exp2,2020.2.5,Win32,60,z,1,,,,,,,,0.77091,1,,,,,,478,NW,UN,33,pebric,ACRISE,z,0.77091,,,,,,0.177777778,-0.136111111,0,0,0,,0,378,378,417,1
,,,,,,,,,,,,,,,,,,5fbd8615d29543198393bdc7,2020-11-25_17h30.00.431,lexical_decision_task_MP_exp2,2020.2.5,Win32,60,m,1,,,,,,,,0.679965,1,,,,,,28,WORD,UN,16,sketch,COMEDY,m,0.679965,,,,,,0.177777778,-0.136111111,0,0,0,,0,379,379,207,1
,,,,,,,,,,,,,,,,,,5fbd8615d29543198393bdc7,2020-11-25_17h30.00.431,lexical_decision_task_MP_exp2,2020.2.5,Win32,60,m,0,,,,,,,,0.76884,0,,,,,,314,NW,"ID",33,sprine,SPRINE,z,0.76884,,,,,,0.177777778,-0.136111111,0,0,0,,0,380,380,253,1
,,,,,,,,,,,,,,,,,,5fbd8615d29543198393bdc7,2020-11-25_17h30.00.431,lexical_decision_task_MP_exp2,2020.2.5,Win32,60,m,0,,,,,,,,1.483405,0,,,,,,374,NW,"ID",16,sliant,SLIANT,z,1.483405,,,,,,0.177777778,-0.136111111,0,0,0,,0,381,381,313,1
,,,,,,,,,,,,,,,,,,5fbd8615d29543198393bdc7,2020-11-25_17h30.00.431,lexical_decision_task_MP_exp2,2020.2.5,Win32,60,z,1,,,,,,,,0.785895,1,,,,,,455,NW,UN,33,broget,TONDLE,z,0.785895,,,,,,0.177777778,-0.136111111,0,0,0,,0,382,382,394,1
,,,,,,,,,,,,,,,,,,5fbd8615d29543198393bdc7,2020-11-25_17h30.00.431,lexical_decision_task_MP_exp2,2020.2.5,Win32,60,z,1,,,,,,,,0.80986,1,,,,,,400,NW,"ID",16,wearox,WEAROX,z,0.80986,,,,,,0.177777778,-0.136111111,0,0,0,,0,383,383,339,1
,,,,,,,,,,,,,,,,,,5fbd8615d29543198393bdc7,2020-11-25_17h30.00.431,lexical_decision_task_MP_exp2,2020.2.5,Win32,60,m,1,,,,,,,,0.84505,1,,,,,,89,WORD,"ID",33,permit,PERMIT,m,0.84505,,,,,,0.177777778,-0.136111111,0,0,0,,0,384,384,28,1
,,,,,,,,,,,,,,,,,,5fbd8615d29543198393bdc7,2020-11-25_17h30.00.431,lexical_decision_task_MP_exp2,2020.2.5,Win32,60,m,1,,,,,,,,0.86051,1,,,,,,179,WORD,"ID",16,basket,BASKET,m,0.86051,,,,,,0.177777778,-0.136111111,0,0,0,,0,385,385,118,1
,,,,,,,,,,,,,,,,,,5fbd8615d29543198393bdc7,2020-11-25_17h30.00.431,lexical_decision_task_MP_exp2,2020.2.5,Win32,60,z,0,,,,,,,,0.795935,0,,,,,,11,WORD,UN,16,amount,CRUISE,m,0.795935,,,,,,0.177777778,-0.136111111,0,0,0,,0,386,386,190,1
,,,,,,,,,,,,,,,,,,5fbd8615d29543198393bdc7,2020-11-25_17h30.00.431,lexical_decision_task_MP_exp2,2020.2.5,Win32,60,m,0,,,,,,,,0.573535,0,,,,,,319,NW,"ID",33,zomber,ZOMBER,z,0.573535,,,,,,0.177777778,-0.136111111,0,0,0,,0,387,387,258,1
,,,,,,,,,,,,,,,,,,5fbd8615d29543198393bdc7,2020-11-25_17h30.00.431,lexical_decision_task_MP_exp2,2020.2.5,Win32,60,m,1,,,,,,,,0.617165,1,,,,,,20,WORD,UN,16,simple,BREAST,m,0.617165,,,,,,0.177777778,-0.136111111,0,0,0,,0,388,388,199,1
,,,,,,,,,,,,,,,,,,5fbd8615d29543198393bdc7,2020-11-25_17h30.00.431,lexical_decision_task_MP_exp2,2020.2.5,Win32,60,z,0,,,,,,,,0.906625,0,,,,,,128,WORD,"ID",16,senior,SENIOR,m,0.906625,,,,,,0.177777778,-0.136111111,0,0,0,,0,389,389,67,1
,,,,,,,,,,,,,,,,,,5fbd8615d29543198393bdc7,2020-11-25_17h30.00.431,lexical_decision_task_MP_exp2,2020.2.5,Win32,60,m,1,,,,,,,,0.672575,1,,,,,,10,WORD,UN,16,cruise,ETHNIC,m,0.672575,,,,,,0.177777778,-0.136111111,0,0,0,,0,390,390,189,1
,,,,,,,,,,,,,,,,,,5fbd8615d29543198393bdc7,2020-11-25_17h30.00.431,lexical_decision_task_MP_exp2,2020.2.5,Win32,60,m,1,,,,,,,,0.685965,1,,,,,,231,WORD,UN,33,inject,EXPORT,m,0.685965,,,,,,0.177777778,-0.136111111,0,0,0,,0,391,391,170,1
,,,,,,,,,,,,,,,,,,5fbd8615d29543198393bdc7,2020-11-25_17h30.00.431,lexical_decision_task_MP_exp2,2020.2.5,Win32,60,z,1,,,,,,,,0.812345,1,,,,,,361,NW,"ID",16,pauche,PAUCHE,z,0.812345,,,,,,0.177777778,-0.136111111,0,0,0,,0,392,392,300,1
,,,,,,,,,,,,,,,,,,5fbd8615d29543198393bdc7,2020-11-25_17h30.00.431,lexical_decision_task_MP_exp2,2020.2.5,Win32,60,z,1,,,,,,,,0.708305,1,,,,,,248,NW,UN,16,batrol,STROLE,z,0.708305,,,,,,0.177777778,-0.136111111,0,0,0,,0,393,393,427,1
,,,,,,,,,,,,,,,,,,5fbd8615d29543198393bdc7,2020-11-25_17h30.00.431,lexical_decision_task_MP_exp2,2020.2.5,Win32,60,z,1,,,,,,,,0.723935,1,,,,,,246,NW,UN,16,blarge,PIATON,z,0.723935,,,,,,0.177777778,-0.136111111,0,0,0,,0,394,394,425,1
,,,,,,,,,,,,,,,,,,5fbd8615d29543198393bdc7,2020-11-25_17h30.00.431,lexical_decision_task_MP_exp2,2020.2.5,Win32,60,z,1,,,,,,,,1.264055,1,,,,,,438,NW,UN,33,limpor,BAITCH,z,1.264055,,,,,,0.177777778,-0.136111111,0,0,0,,0,395,395,377,1
,,,,,,,,,,,,,,,,,,5fbd8615d29543198393bdc7,2020-11-25_17h30.00.431,lexical_decision_task_MP_exp2,2020.2.5,Win32,60,z,1,,,,,,,,0.719725,1,,,,,,444,NW,UN,33,minkel,JAUNCE,z,0.719725,,,,,,0.177777778,-0.136111111,0,0,0,,0,396,396,383,1
