counterbalancing_condition,instr_done_keyboard.keys,instr_done_keyboard.rt,instr_done_touch.x,instr_done_touch.y,instr_done_touch.leftButton,instr_done_touch.midButton,instr_done_touch.rightButton,instruction_pages.thisRepN,instruction_pages.thisTrialN,instruction_pages.thisN,instruction_pages.thisIndex,instruction_pages.ran,pageN,phase,instruct_text,has_image,instruct_image,participant,date,expName,psychopyVersion,OS,frameRate,response.keys,response.corr,response.rt,touch_resp.x,touch_resp.y,touch_resp.leftButton,touch_resp.midButton,touch_resp.rightButton,touch_resp.time,touch_resp.clicked_name,rt,corr,practice_trials.thisRepN,practice_trials.thisTrialN,practice_trials.thisN,practice_trials.thisIndex,practice_trials.ran,TrialID,StimulusType,Condition,PrimeDuration,Prime,Target,corrAns,end_of_practice_trials_pages.thisRepN,end_of_practice_trials_pages.thisTrialN,end_of_practice_trials_pages.thisN,end_of_practice_trials_pages.thisIndex,end_of_practice_trials_pages.ran,break_done_touch.x,break_done_touch.y,break_done_touch.leftButton,break_done_touch.midButton,break_done_touch.rightButton,break_done_keyboard.keys,trials.thisRepN,trials.thisTrialN,trials.thisN,trials.thisIndex,trials.ran
1,space,1.388,-0.050925926,-0.144444444,0,0,0,0,0,0,0,1,1,instructions,"INSTRUCTIONS
At the start of each trial, look at the hash marks (######) in the center of the screen. After a moment, a string of letters will appear. Your task is to indicate if the letter string forms a word or not (i.e., if it is a nonword). For example, AUTHOR is a word while AUTHON is a nonword.

Press the space bar or touch the button below to continue.",0,,999,2020-11-26_10h16.32.037,lexical_decision_task_MP_exp2,2020.2.5,Win32,60,,,,,,,,,,,,,,,,,,,,,,,,,,,,,,,,,,,,,,,,
,space,0.354,-0.053703704,-0.148148148,0,0,0,0,1,1,1,1,2,instructions,"If your device has a keyboard, press the 'Z' key for nonwords and the 'M' key for words.





Press the space bar or touch the button below to continue.",1,keyboard-example.gif,999,2020-11-26_10h16.32.037,lexical_decision_task_MP_exp2,2020.2.5,Win32,60,,,,,,,,,,,,,,,,,,,,,,,,,,,,,,,,,,,,,,,,
,space,0.419,-0.053703704,-0.148148148,0,0,0,0,2,2,2,1,3,instructions,"If you are using a touchscreen only device, use the buttons on the screen. Do not use the mouse.





Press the space bar or touch the button below to continue.",1,touchscreen-example.gif,999,2020-11-26_10h16.32.037,lexical_decision_task_MP_exp2,2020.2.5,Win32,60,,,,,,,,,,,,,,,,,,,,,,,,,,,,,,,,,,,,,,,,
,space,0.608,-0.053703704,-0.148148148,0,0,0,0,3,3,3,1,4,instructions,"It is very important that you respond as quickly and accurately as possible, as each letter string will only be on the screen for two seconds. If you do not respond within this time, the message 'Too slow!' will be displayed and the experiment will progress to the next letter string. The first 20 trials will be practice trials and you will receive feedback on your answers. 

Press the space bar or touch the button below to start the practice trials.",0,,999,2020-11-26_10h16.32.037,lexical_decision_task_MP_exp2,2020.2.5,Win32,60,,,,,,,,,,,,,,,,,,,,,,,,,,,,,,,,,,,,,,,,
,,,,,,,,,,,,,,,,,,999,2020-11-26_10h16.32.037,lexical_decision_task_MP_exp2,2020.2.5,Win32,60,z,0,0.866,,,,,,,,0.866,0,0,0,0,0,1,1001,WORD,"ID",33,utopia,UTOPIA,m,,,,,,,,,,,,,,,,
,,,,,,,,,,,,,,,,,,999,2020-11-26_10h16.32.037,lexical_decision_task_MP_exp2,2020.2.5,Win32,60,m,0,0.284,,,,,,,,0.284,0,0,1,1,14,1,1015,NW,UN,16,miaber,THRALE,z,,,,,,,,,,,,,,,,
,,,,,,,,,,,,,,,,,,999,2020-11-26_10h16.32.037,lexical_decision_task_MP_exp2,2020.2.5,Win32,60,m,0,0.514,,,,,,,,0.514,0,0,2,2,10,1,1011,NW,"ID",16,inlade,INLADE,z,,,,,,,,,,,,,,,,
,,,,,,,,,,,,,,,,,,999,2020-11-26_10h16.32.037,lexical_decision_task_MP_exp2,2020.2.5,Win32,60,m,0,0.021,,,,,,,,0.021,0,0,3,3,13,1,1014,NW,UN,33,winfer,ROUPET,z,,,,,,,,,,,,,,,,
,,,,,,,,,,,,,,,,,,999,2020-11-26_10h16.32.037,lexical_decision_task_MP_exp2,2020.2.5,Win32,60,m,0,0.067,,,,,,,,0.067,0,0,4,4,15,1,1016,NW,UN,16,mushed,WHAISE,z,,,,,,,,,,,,,,,,
,,,,,,,,,,,,,,,,,,999,2020-11-26_10h16.32.037,lexical_decision_task_MP_exp2,2020.2.5,Win32,60,,0,,,,,,,,,0.067,-1,0,5,5,5,1,1006,WORD,UN,33,frenzy,OBTAIN,m,,,,,,,,,,,,,,,,
,,,,,,,,,,,,,,,,,,999,2020-11-26_10h16.32.037,lexical_decision_task_MP_exp2,2020.2.5,Win32,60,m,0,0.301,,,,,,,,0.301,0,0,6,6,9,1,1010,NW,"ID",33,fariny,FARINY,z,,,,,,,,,,,,,,,,
,,,,,,,,,,,,,,,,,,999,2020-11-26_10h16.32.037,lexical_decision_task_MP_exp2,2020.2.5,Win32,60,z,0,0.151,,,,,,,,0.151,0,0,7,7,1,1,1002,WORD,"ID",33,adjust,ADJUST,m,,,,,,,,,,,,,,,,
,,,,,,,,,,,,,,,,,,999,2020-11-26_10h16.32.037,lexical_decision_task_MP_exp2,2020.2.5,Win32,60,m,1,0.247,,,,,,,,0.247,1,0,8,8,6,1,1007,WORD,UN,16,tropic,ZOMBIE,m,,,,,,,,,,,,,,,,
,,,,,,,,,,,,,,,,,,999,2020-11-26_10h16.32.037,lexical_decision_task_MP_exp2,2020.2.5,Win32,60,z,0,0.134,,,,,,,,0.134,0,0,9,9,3,1,1004,WORD,"ID",16,matrix,MATRIX,m,,,,,,,,,,,,,,,,
,,,,,,,,,,,,,,,,,,999,2020-11-26_10h16.32.037,lexical_decision_task_MP_exp2,2020.2.5,Win32,60,m,0,0.611,,,,,,,,0.611,0,0,10,10,8,1,1009,NW,"ID",33,aslert,ASLERT,z,,,,,,,,,,,,,,,,
,,,,,,,,,,,,,,,,,,999,2020-11-26_10h16.32.037,lexical_decision_task_MP_exp2,2020.2.5,Win32,60,z,1,0.716,,,,,,,,0.716,1,0,11,11,11,1,1012,NW,"ID",16,rashet,RASHET,z,,,,,,,,,,,,,,,,
,,,,,,,,,,,,,,,,,,999,2020-11-26_10h16.32.037,lexical_decision_task_MP_exp2,2020.2.5,Win32,60,z,0,0.369,,,,,,,,0.369,0,0,12,12,4,1,1005,WORD,UN,33,abound,SQUEAK,m,,,,,,,,,,,,,,,,
,,,,,,,,,,,,,,,,,,999,2020-11-26_10h16.32.037,lexical_decision_task_MP_exp2,2020.2.5,Win32,60,m,0,1.115,,,,,,,,1.115,0,0,13,13,12,1,1013,NW,UN,33,adveil,SPRINY,z,,,,,,,,,,,,,,,,
,,,,,,,,,,,,,,,,,,999,2020-11-26_10h16.32.037,lexical_decision_task_MP_exp2,2020.2.5,Win32,60,m,1,0.599,,,,,,,,0.599,1,0,14,14,2,1,1003,WORD,"ID",16,almond,ALMOND,m,,,,,,,,,,,,,,,,
,,,,,,,,,,,,,,,,,,999,2020-11-26_10h16.32.037,lexical_decision_task_MP_exp2,2020.2.5,Win32,60,m,1,0.453,,,,,,,,0.453,1,0,15,15,7,1,1008,WORD,UN,16,hurdle,VOLUME,m,,,,,,,,,,,,,,,,
,space,2.24,0.684259259,-0.242592593,0,0,0,,,,,,1,end_of_practice,"You have completed the practice trials. During the experimental trials, you will not receive feedback, but it is very important that you respond as quickly and accurately as possible. 
Before you begin, please ensure that you are in a comfortable and quiet location and will not be disturbed for about 15 minutes, as we cannot use your data if you do not complete all the trials. 
There will be opportunities to take breaks at regular intervals during the experiment. When you are ready to start the experimental trials, please press space or touch the button below.",,,999,2020-11-26_10h16.32.037,lexical_decision_task_MP_exp2,2020.2.5,Win32,60,,,,,,,,,,,,,,,,,,,,,,,,,0,0,0,0,1,,,,,,,,,,,
,,,,,,,,,,,,,,,,,,999,2020-11-26_10h16.32.037,lexical_decision_task_MP_exp2,2020.2.5,Win32,60,m,1,0.1,,,,,,,,0.1,1,,,,,,145,WORD,UN,33,couple,PARISH,m,,,,,,0.684259259,-0.242592593,0,0,0,,0,0,0,144,1
,,,,,,,,,,,,,,,,,,999,2020-11-26_10h16.32.037,lexical_decision_task_MP_exp2,2020.2.5,Win32,60,m,1,0.002,,,,,,,,0.002,1,,,,,,112,WORD,"ID",16,breath,BREATH,m,,,,,,0.684259259,-0.242592593,0,0,0,,0,1,1,111,1
,,,,,,,,,,,,,,,,,,999,2020-11-26_10h16.32.037,lexical_decision_task_MP_exp2,2020.2.5,Win32,60,m,0,0.066,,,,,,,,0.066,0,,,,,,258,NW,"ID",33,poluth,POLUTH,z,,,,,,0.684259259,-0.242592593,0,0,0,,0,2,2,257,1
,,,,,,,,,,,,,,,,,,999,2020-11-26_10h16.32.037,lexical_decision_task_MP_exp2,2020.2.5,Win32,60,m,0,0.049,,,,,,,,0.049,0,,,,,,244,NW,"ID",33,eatric,EATRIC,z,,,,,,0.684259259,-0.242592593,0,0,0,,0,3,3,243,1
,,,,,,,,,,,,,,,,,,999,2020-11-26_10h16.32.037,lexical_decision_task_MP_exp2,2020.2.5,Win32,60,m,0,0.034,,,,,,,,0.034,0,,,,,,379,NW,UN,33,cavory,AUTING,z,,,,,,0.684259259,-0.242592593,0,0,0,,0,4,4,378,1
,,,,,,,,,,,,,,,,,,999,2020-11-26_10h16.32.037,lexical_decision_task_MP_exp2,2020.2.5,Win32,60,m,1,0.051,,,,,,,,0.051,1,,,,,,189,WORD,UN,16,backup,CENSOR,m,,,,,,0.684259259,-0.242592593,0,0,0,,0,5,5,188,1
,,,,,,,,,,,,,,,,,,999,2020-11-26_10h16.32.037,lexical_decision_task_MP_exp2,2020.2.5,Win32,60,m,1,0.02,,,,,,,,0.02,1,,,,,,238,WORD,UN,16,grumpy,FLOWER,m,,,,,,0.684259259,-0.242592593,0,0,0,,0,6,6,237,1
,,,,,,,,,,,,,,,,,,999,2020-11-26_10h16.32.037,lexical_decision_task_MP_exp2,2020.2.5,Win32,60,z,1,0.133,,,,,,,,0.133,1,,,,,,418,NW,UN,33,slount,SUIDLE,z,,,,,,0.684259259,-0.242592593,0,0,0,,0,7,7,417,1
,,,,,,,,,,,,,,,,,,999,2020-11-26_10h16.32.037,lexical_decision_task_MP_exp2,2020.2.5,Win32,60,m,1,0.129,,,,,,,,0.129,1,,,,,,180,WORD,UN,33,thrive,SILENT,m,,,,,,0.684259259,-0.242592593,0,0,0,,0,8,8,179,1
,,,,,,,,,,,,,,,,,,999,2020-11-26_10h16.32.037,lexical_decision_task_MP_exp2,2020.2.5,Win32,60,m,1,0.079,,,,,,,,0.079,1,,,,,,142,WORD,UN,33,orphan,SPRUCE,m,,,,,,0.684259259,-0.242592593,0,0,0,,0,9,9,141,1
,,,,,,,,,,,,,,,,,,999,2020-11-26_10h16.32.037,lexical_decision_task_MP_exp2,2020.2.5,Win32,60,m,1,0.002,,,,,,,,0.002,1,,,,,,209,WORD,UN,16,monkey,SEARCH,m,,,,,,0.684259259,-0.242592593,0,0,0,,0,10,10,208,1
,,,,,,,,,,,,,,,,,,999,2020-11-26_10h16.32.037,lexical_decision_task_MP_exp2,2020.2.5,Win32,60,m,0,0.049,,,,,,,,0.049,0,,,,,,273,NW,"ID",33,sortel,SORTEL,z,,,,,,0.684259259,-0.242592593,0,0,0,,0,11,11,272,1
,,,,,,,,,,,,,,,,,,999,2020-11-26_10h16.32.037,lexical_decision_task_MP_exp2,2020.2.5,Win32,60,m,1,0.017,,,,,,,,0.017,1,,,,,,204,WORD,UN,16,lounge,BURDEN,m,,,,,,0.684259259,-0.242592593,0,0,0,,0,12,12,203,1
,,,,,,,,,,,,,,,,,,999,2020-11-26_10h16.32.037,lexical_decision_task_MP_exp2,2020.2.5,Win32,60,m,0,0.084,,,,,,,,0.084,0,,,,,,321,NW,"ID",16,miator,MIATOR,z,,,,,,0.684259259,-0.242592593,0,0,0,,0,13,13,320,1
,,,,,,,,,,,,,,,,,,999,2020-11-26_10h16.32.037,lexical_decision_task_MP_exp2,2020.2.5,Win32,60,m,1,0.044,,,,,,,,0.044,1,,,,,,216,WORD,UN,16,liquor,BEHALF,m,,,,,,0.684259259,-0.242592593,0,0,0,,0,14,14,215,1
,,,,,,,,,,,,,,,,,,999,2020-11-26_10h16.32.037,lexical_decision_task_MP_exp2,2020.2.5,Win32,60,m,0,0.066,,,,,,,,0.066,0,,,,,,430,NW,UN,16,funtle,CAROEY,z,,,,,,0.684259259,-0.242592593,0,0,0,,0,15,15,429,1
,,,,,,,,,,,,,,,,,,999,2020-11-26_10h16.32.037,lexical_decision_task_MP_exp2,2020.2.5,Win32,60,m,1,0.12,,,,,,,,0.12,1,,,,,,89,WORD,"ID",16,permit,PERMIT,m,,,,,,0.684259259,-0.242592593,0,0,0,,0,16,16,88,1
,,,,,,,,,,,,,,,,,,999,2020-11-26_10h16.32.037,lexical_decision_task_MP_exp2,2020.2.5,Win32,60,m,1,0.016,,,,,,,,0.016,1,,,,,,183,WORD,UN,16,sleazy,MILDEW,m,,,,,,0.684259259,-0.242592593,0,0,0,,0,17,17,182,1
,,,,,,,,,,,,,,,,,,999,2020-11-26_10h16.32.037,lexical_decision_task_MP_exp2,2020.2.5,Win32,60,m,0,0.102,,,,,,,,0.102,0,,,,,,274,NW,"ID",33,fumblo,FUMBLO,z,,,,,,0.684259259,-0.242592593,0,0,0,,0,18,18,273,1
,,,,,,,,,,,,,,,,,,999,2020-11-26_10h16.32.037,lexical_decision_task_MP_exp2,2020.2.5,Win32,60,z,1,0.116,,,,,,,,0.116,1,,,,,,309,NW,"ID",16,amiloy,AMILOY,z,,,,,,0.684259259,-0.242592593,0,0,0,,0,19,19,308,1
,,,,,,,,,,,,,,,,,,999,2020-11-26_10h16.32.037,lexical_decision_task_MP_exp2,2020.2.5,Win32,60,m,0,0.018,,,,,,,,0.018,0,,,,,,388,NW,UN,33,witmer,CRAGIN,z,,,,,,0.684259259,-0.242592593,0,0,0,,0,20,20,387,1
,,,,,,,,,,,,,,,,,,999,2020-11-26_10h16.32.037,lexical_decision_task_MP_exp2,2020.2.5,Win32,60,m,0,0.184,,,,,,,,0.184,0,,,,,,279,NW,"ID",33,celond,CELOND,z,,,,,,0.684259259,-0.242592593,0,0,0,,0,21,21,278,1
,,,,,,,,,,,,,,,,,,999,2020-11-26_10h16.32.037,lexical_decision_task_MP_exp2,2020.2.5,Win32,60,m,1,0.116,,,,,,,,0.116,1,,,,,,132,WORD,UN,33,bleach,STRONG,m,,,,,,0.684259259,-0.242592593,0,0,0,,0,22,22,131,1
,,,,,,,,,,,,,,,,,,999,2020-11-26_10h16.32.037,lexical_decision_task_MP_exp2,2020.2.5,Win32,60,m,0,0.069,,,,,,,,0.069,0,,,,,,371,NW,UN,33,ramily,GEILOY,z,,,,,,0.684259259,-0.242592593,0,0,0,,0,23,23,370,1
,,,,,,,,,,,,,,,,,,999,2020-11-26_10h16.32.037,lexical_decision_task_MP_exp2,2020.2.5,Win32,60,m,1,0.152,,,,,,,,0.152,1,,,,,,100,WORD,"ID",16,carbon,CARBON,m,,,,,,0.684259259,-0.242592593,0,0,0,,0,24,24,99,1
,,,,,,,,,,,,,,,,,,999,2020-11-26_10h16.32.037,lexical_decision_task_MP_exp2,2020.2.5,Win32,60,m,1,0.118,,,,,,,,0.118,1,,,,,,194,WORD,UN,16,resign,ABSENT,m,,,,,,0.684259259,-0.242592593,0,0,0,,0,25,25,193,1
,,,,,,,,,,,,,,,,,,999,2020-11-26_10h16.32.037,lexical_decision_task_MP_exp2,2020.2.5,Win32,60,m,0,0.101,,,,,,,,0.101,0,,,,,,347,NW,"ID",16,kerift,KERIFT,z,,,,,,0.684259259,-0.242592593,0,0,0,,0,26,26,346,1
,,,,,,,,,,,,,,,,,,999,2020-11-26_10h16.32.037,lexical_decision_task_MP_exp2,2020.2.5,Win32,60,m,1,0.117,,,,,,,,0.117,1,,,,,,151,WORD,UN,33,rocket,MYSTIC,m,,,,,,0.684259259,-0.242592593,0,0,0,,0,27,27,150,1
,,,,,,,,,,,,,,,,,,999,2020-11-26_10h16.32.037,lexical_decision_task_MP_exp2,2020.2.5,Win32,60,m,1,0.433,,,,,,,,0.433,1,,,,,,217,WORD,UN,16,shrink,LIQUOR,m,,,,,,0.684259259,-0.242592593,0,0,0,,0,28,28,216,1
,,,,,,,,,,,,,,,,,,999,2020-11-26_10h16.32.037,lexical_decision_task_MP_exp2,2020.2.5,Win32,60,m,1,0.184,,,,,,,,0.184,1,,,,,,103,WORD,"ID",16,bounce,BOUNCE,m,,,,,,0.684259259,-0.242592593,0,0,0,,0,29,29,102,1
,,,,,,,,,,,,,,,,,,999,2020-11-26_10h16.32.037,lexical_decision_task_MP_exp2,2020.2.5,Win32,60,z,1,0.25,,,,,,,,0.25,1,,,,,,337,NW,"ID",16,rejols,REJOLS,z,,,,,,0.684259259,-0.242592593,0,0,0,,0,30,30,336,1
,,,,,,,,,,,,,,,,,,999,2020-11-26_10h16.32.037,lexical_decision_task_MP_exp2,2020.2.5,Win32,60,z,1,0.334,,,,,,,,0.334,1,,,,,,378,NW,UN,33,auting,SHRILE,z,,,,,,0.684259259,-0.242592593,0,0,0,,0,31,31,377,1
,,,,,,,,,,,,,,,,,,999,2020-11-26_10h16.32.037,lexical_decision_task_MP_exp2,2020.2.5,Win32,60,z,1,0.1,,,,,,,,0.1,1,,,,,,271,NW,"ID",33,aubrid,AUBRID,z,,,,,,0.684259259,-0.242592593,0,0,0,,0,32,32,270,1
,,,,,,,,,,,,,,,,,,999,2020-11-26_10h16.32.037,lexical_decision_task_MP_exp2,2020.2.5,Win32,60,m,0,0.101,,,,,,,,0.101,0,,,,,,327,NW,"ID",16,plenac,PLENAC,z,,,,,,0.691666667,-0.166666667,0,0,0,,0,33,33,326,1
,,,,,,,,,,,,,,,,,,999,2020-11-26_10h16.32.037,lexical_decision_task_MP_exp2,2020.2.5,Win32,60,z,0,0.316,,,,,,,,0.316,0,,,,,,29,WORD,"ID",33,sketch,SKETCH,m,,,,,,0.808333333,-0.143518519,0,0,0,,0,34,34,28,1
,,,,,,,,,,,,,,,,,,999,2020-11-26_10h16.32.037,lexical_decision_task_MP_exp2,2020.2.5,Win32,60,z,1,0.104,,,,,,,,0.104,1,,,,,,304,NW,"ID",16,cludie,CLUDIE,z,,,,,,1.172222222,-0.091666667,0,0,0,,0,35,35,303,1
,,,,,,,,,,,,,,,,,,999,2020-11-26_10h16.32.037,lexical_decision_task_MP_exp2,2020.2.5,Win32,60,m,0,0.045,,,,,,,,0.045,0,,,,,,280,NW,"ID",33,curbol,CURBOL,z,,,,,,1.172222222,-0.091666667,0,0,0,,0,36,36,279,1
,,,,,,,,,,,,,,,,,,999,2020-11-26_10h16.32.037,lexical_decision_task_MP_exp2,2020.2.5,Win32,60,z,1,0.002,,,,,,,,0.002,1,,,,,,330,NW,"ID",16,kensom,KENSOM,z,,,,,,1.172222222,-0.091666667,0,0,0,,0,37,37,329,1
,,,,,,,,,,,,,,,,,,999,2020-11-26_10h16.32.037,lexical_decision_task_MP_exp2,2020.2.5,Win32,60,m,0,0.132,,,,,,,,0.132,0,,,,,,360,NW,"ID",16,desory,DESORY,z,,,,,,1.172222222,-0.091666667,0,0,0,,0,38,38,359,1
,,,,,,,,,,,,,,,,,,999,2020-11-26_10h16.32.037,lexical_decision_task_MP_exp2,2020.2.5,Win32,60,m,0,0.216,,,,,,,,0.216,0,,,,,,265,NW,"ID",33,distar,DISTAR,z,,,,,,1.172222222,-0.091666667,0,0,0,,0,39,39,264,1
,,,,,,,,,,,,,,,,,,999,2020-11-26_10h16.32.037,lexical_decision_task_MP_exp2,2020.2.5,Win32,60,m,0,0.281,,,,,,,,0.281,0,,,,,,334,NW,"ID",16,watmeg,WATMEG,z,,,,,,1.172222222,-0.091666667,0,0,0,,0,40,40,333,1
,,,,,,,,,,,,,,,,,,999,2020-11-26_10h16.32.037,lexical_decision_task_MP_exp2,2020.2.5,Win32,60,m,0,0.248,,,,,,,,0.248,0,,,,,,291,NW,"ID",33,pretch,PRETCH,z,,,,,,1.172222222,-0.091666667,0,0,0,,0,41,41,290,1
,,,,,,,,,,,,,,,,,,999,2020-11-26_10h16.32.037,lexical_decision_task_MP_exp2,2020.2.5,Win32,60,m,1,0.268,,,,,,,,0.268,1,,,,,,167,WORD,UN,33,answer,DESIGN,m,,,,,,1.172222222,-0.091666667,0,0,0,,0,42,42,166,1
,,,,,,,,,,,,,,,,,,999,2020-11-26_10h16.32.037,lexical_decision_task_MP_exp2,2020.2.5,Win32,60,m,0,0.234,,,,,,,,0.234,0,,,,,,420,NW,UN,33,pauche,GUSHOP,z,,,,,,1.172222222,-0.091666667,0,0,0,,0,43,43,419,1
,,,,,,,,,,,,,,,,,,999,2020-11-26_10h16.32.037,lexical_decision_task_MP_exp2,2020.2.5,Win32,60,m,1,0.215,,,,,,,,0.215,1,,,,,,222,WORD,UN,16,casino,HINDER,m,,,,,,1.172222222,-0.091666667,0,0,0,,0,44,44,221,1
,,,,,,,,,,,,,,,,,,999,2020-11-26_10h16.32.037,lexical_decision_task_MP_exp2,2020.2.5,Win32,60,m,1,0.263,,,,,,,,0.263,1,,,,,,19,WORD,"ID",33,patron,PATRON,m,,,,,,1.172222222,-0.091666667,0,0,0,,0,45,45,18,1
,,,,,,,,,,,,,,,,,,999,2020-11-26_10h16.32.037,lexical_decision_task_MP_exp2,2020.2.5,Win32,60,m,1,0.132,,,,,,,,0.132,1,,,,,,98,WORD,"ID",16,belong,BELONG,m,,,,,,1.172222222,-0.091666667,0,0,0,,0,46,46,97,1
,,,,,,,,,,,,,,,,,,999,2020-11-26_10h16.32.037,lexical_decision_task_MP_exp2,2020.2.5,Win32,60,m,1,0.231,,,,,,,,0.231,1,,,,,,65,WORD,"ID",16,symbol,SYMBOL,m,,,,,,1.172222222,-0.091666667,0,0,0,,0,47,47,64,1
,,,,,,,,,,,,,,,,,,999,2020-11-26_10h16.32.037,lexical_decision_task_MP_exp2,2020.2.5,Win32,60,m,0,0.183,,,,,,,,0.183,0,,,,,,393,NW,UN,33,spaqux,GANOUS,z,,,,,,1.172222222,-0.091666667,0,0,0,,0,48,48,392,1
,,,,,,,,,,,,,,,,,,999,2020-11-26_10h16.32.037,lexical_decision_task_MP_exp2,2020.2.5,Win32,60,m,0,0.216,,,,,,,,0.216,0,,,,,,476,NW,UN,16,photie,JOSTED,z,,,,,,1.172222222,-0.091666667,0,0,0,,0,49,49,475,1
,,,,,,,,,,,,,,,,,,999,2020-11-26_10h16.32.037,lexical_decision_task_MP_exp2,2020.2.5,Win32,60,m,1,0.234,,,,,,,,0.234,1,,,,,,69,WORD,"ID",16,plenty,PLENTY,m,,,,,,1.172222222,-0.091666667,0,0,0,,0,50,50,68,1
,,,,,,,,,,,,,,,,,,999,2020-11-26_10h16.32.037,lexical_decision_task_MP_exp2,2020.2.5,Win32,60,m,0,0.202,,,,,,,,0.202,0,,,,,,442,NW,UN,16,dorsex,ABOUNE,z,,,,,,1.172222222,-0.091666667,0,0,0,,0,51,51,441,1
,,,,,,,,,,,,,,,,,,999,2020-11-26_10h16.32.037,lexical_decision_task_MP_exp2,2020.2.5,Win32,60,m,1,0.217,,,,,,,,0.217,1,,,,,,5,WORD,"ID",33,plunge,PLUNGE,m,,,,,,1.172222222,-0.091666667,0,0,0,,0,52,52,4,1
,,,,,,,,,,,,,,,,,,999,2020-11-26_10h16.32.037,lexical_decision_task_MP_exp2,2020.2.5,Win32,60,m,1,0.347,,,,,,,,0.347,1,,,,,,75,WORD,"ID",16,trophy,TROPHY,m,,,,,,1.172222222,-0.091666667,0,0,0,,0,53,53,74,1
,,,,,,,,,,,,,,,,,,999,2020-11-26_10h16.32.037,lexical_decision_task_MP_exp2,2020.2.5,Win32,60,m,0,0.245,,,,,,,,0.245,0,,,,,,311,NW,"ID",16,sproly,SPROLY,z,,,,,,1.172222222,-0.091666667,0,0,0,,0,54,54,310,1
,,,,,,,,,,,,,,,,,,999,2020-11-26_10h16.32.037,lexical_decision_task_MP_exp2,2020.2.5,Win32,60,m,0,0.317,,,,,,,,0.317,0,,,,,,364,NW,UN,33,guairt,IMPOTE,z,,,,,,1.172222222,-0.091666667,0,0,0,,0,55,55,363,1
,,,,,,,,,,,,,,,,,,999,2020-11-26_10h16.32.037,lexical_decision_task_MP_exp2,2020.2.5,Win32,60,m,1,0.183,,,,,,,,0.183,1,,,,,,74,WORD,"ID",16,plaque,PLAQUE,m,,,,,,1.172222222,-0.091666667,0,0,0,,0,56,56,73,1
,,,,,,,,,,,,,,,,,,999,2020-11-26_10h16.32.037,lexical_decision_task_MP_exp2,2020.2.5,Win32,60,m,0,0.184,,,,,,,,0.184,0,,,,,,307,NW,"ID",16,kirafe,KIRAFE,z,,,,,,1.172222222,-0.091666667,0,0,0,,0,57,57,306,1
,,,,,,,,,,,,,,,,,,999,2020-11-26_10h16.32.037,lexical_decision_task_MP_exp2,2020.2.5,Win32,60,m,1,0.31,,,,,,,,0.31,1,,,,,,45,WORD,"ID",33,clergy,CLERGY,m,,,,,,1.172222222,-0.091666667,0,0,0,,0,58,58,44,1
,,,,,,,,,,,,,,,,,,999,2020-11-26_10h16.32.037,lexical_decision_task_MP_exp2,2020.2.5,Win32,60,m,1,0.101,,,,,,,,0.101,1,,,,,,68,WORD,"ID",16,fumble,FUMBLE,m,,,,,,1.172222222,-0.091666667,0,0,0,,0,59,59,67,1
,,,,,,,,,,,,,,,,,,999,2020-11-26_10h16.32.037,lexical_decision_task_MP_exp2,2020.2.5,Win32,60,m,1,0.217,,,,,,,,0.217,1,,,,,,8,WORD,"ID",33,abrupt,ABRUPT,m,,,,,,1.172222222,-0.091666667,0,0,0,,0,60,60,7,1
,,,,,,,,,,,,,,,,,,999,2020-11-26_10h16.32.037,lexical_decision_task_MP_exp2,2020.2.5,Win32,60,m,1,0.133,,,,,,,,0.133,1,,,,,,3,WORD,"ID",33,knight,KNIGHT,m,,,,,,1.172222222,-0.091666667,0,0,0,,0,61,61,2,1
,,,,,,,,,,,,,,,,,,999,2020-11-26_10h16.32.037,lexical_decision_task_MP_exp2,2020.2.5,Win32,60,m,1,0.187,,,,,,,,0.187,1,,,,,,27,WORD,"ID",33,scream,SCREAM,m,,,,,,1.172222222,-0.091666667,0,0,0,,0,62,62,26,1
,,,,,,,,,,,,,,,,,,999,2020-11-26_10h16.32.037,lexical_decision_task_MP_exp2,2020.2.5,Win32,60,m,1,0.345,,,,,,,,0.345,1,,,,,,33,WORD,"ID",33,butler,BUTLER,m,,,,,,1.172222222,-0.091666667,0,0,0,,0,63,63,32,1
,,,,,,,,,,,,,,,,,,999,2020-11-26_10h16.32.037,lexical_decision_task_MP_exp2,2020.2.5,Win32,60,z,1,0.201,,,,,,,,0.201,1,,,,,,339,NW,"ID",16,fachow,FACHOW,z,,,,,,1.172222222,-0.091666667,0,0,0,,0,64,64,338,1
,,,,,,,,,,,,,,,,,,999,2020-11-26_10h16.32.037,lexical_decision_task_MP_exp2,2020.2.5,Win32,60,m,1,0.218,,,,,,,,0.218,1,,,,,,188,WORD,UN,16,censor,SOCIAL,m,,,,,,1.172222222,-0.091666667,0,0,0,,0,65,65,187,1
,,,,,,,,,,,,,,,,,,999,2020-11-26_10h16.32.037,lexical_decision_task_MP_exp2,2020.2.5,Win32,60,m,1,0.184,,,,,,,,0.184,1,,,,,,25,WORD,"ID",33,domain,DOMAIN,m,,,,,,1.172222222,-0.091666667,0,0,0,,0,66,66,24,1
,,,,,,,,,,,,,,,,,,999,2020-11-26_10h16.32.037,lexical_decision_task_MP_exp2,2020.2.5,Win32,60,m,0,0.182,,,,,,,,0.182,0,,,,,,359,NW,"ID",16,fonver,FONVER,z,,,,,,1.172222222,-0.091666667,0,0,0,,0,67,67,358,1
,,,,,,,,,,,,,,,,,,999,2020-11-26_10h16.32.037,lexical_decision_task_MP_exp2,2020.2.5,Win32,60,m,0,0.249,,,,,,,,0.249,0,,,,,,310,NW,"ID",16,daniet,DANIET,z,,,,,,1.172222222,-0.091666667,0,0,0,,0,68,68,309,1
,,,,,,,,,,,,,,,,,,999,2020-11-26_10h16.32.037,lexical_decision_task_MP_exp2,2020.2.5,Win32,60,m,0,0.2,,,,,,,,0.2,0,,,,,,320,NW,"ID",16,jockal,JOCKAL,z,,,,,,1.172222222,-0.091666667,0,0,0,,0,69,69,319,1
,,,,,,,,,,,,,,,,,,999,2020-11-26_10h16.32.037,lexical_decision_task_MP_exp2,2020.2.5,Win32,60,m,0,0.45,,,,,,,,0.45,0,,,,,,381,NW,UN,33,sarley,HUNIEK,z,,,,,,1.172222222,-0.091666667,0,0,0,,0,70,70,380,1
,,,,,,,,,,,,,,,,,,999,2020-11-26_10h16.32.037,lexical_decision_task_MP_exp2,2020.2.5,Win32,60,m,0,0.431,,,,,,,,0.431,0,,,,,,365,NW,UN,33,toshel,GUAIRT,z,,,,,,1.172222222,-0.091666667,0,0,0,,0,71,71,364,1
,,,,,,,,,,,,,,,,,,999,2020-11-26_10h16.32.037,lexical_decision_task_MP_exp2,2020.2.5,Win32,60,m,0,0.188,,,,,,,,0.188,0,,,,,,454,NW,UN,16,tondle,SCOUGE,z,,,,,,1.172222222,-0.091666667,0,0,0,,0,72,72,453,1
,,,,,,,,,,,,,,,,,,999,2020-11-26_10h16.32.037,lexical_decision_task_MP_exp2,2020.2.5,Win32,60,m,1,0.184,,,,,,,,0.184,1,,,,,,178,WORD,UN,33,mildew,INFORM,m,,,,,,1.172222222,-0.091666667,0,0,0,,0,73,73,177,1
,,,,,,,,,,,,,,,,,,999,2020-11-26_10h16.32.037,lexical_decision_task_MP_exp2,2020.2.5,Win32,60,m,1,0.329,,,,,,,,0.329,1,,,,,,49,WORD,"ID",33,survey,SURVEY,m,,,,,,1.172222222,-0.091666667,0,0,0,,0,74,74,48,1
,,,,,,,,,,,,,,,,,,999,2020-11-26_10h16.32.037,lexical_decision_task_MP_exp2,2020.2.5,Win32,60,m,1,0.404,,,,,,,,0.404,1,,,,,,193,WORD,UN,16,plague,OBJECT,m,,,,,,1.172222222,-0.091666667,0,0,0,,0,75,75,192,1
,,,,,,,,,,,,,,,,,,999,2020-11-26_10h16.32.037,lexical_decision_task_MP_exp2,2020.2.5,Win32,60,m,0,0.367,,,,,,,,0.367,0,,,,,,286,NW,"ID",33,reldon,RELDON,z,,,,,,1.172222222,-0.091666667,0,0,0,,0,76,76,285,1
,,,,,,,,,,,,,,,,,,999,2020-11-26_10h16.32.037,lexical_decision_task_MP_exp2,2020.2.5,Win32,60,m,0,0.403,,,,,,,,0.403,0,,,,,,452,NW,UN,16,bolvis,SURDEN,z,,,,,,1.172222222,-0.091666667,0,0,0,,0,77,77,451,1
,,,,,,,,,,,,,,,,,,999,2020-11-26_10h16.32.037,lexical_decision_task_MP_exp2,2020.2.5,Win32,60,m,0,0.296,,,,,,,,0.296,0,,,,,,243,NW,"ID",33,musied,MUSIED,z,,,,,,1.172222222,-0.091666667,0,0,0,,0,78,78,242,1
,,,,,,,,,,,,,,,,,,999,2020-11-26_10h16.32.037,lexical_decision_task_MP_exp2,2020.2.5,Win32,60,m,0,0.63,,,,,,,,0.63,0,,,,,,434,NW,UN,16,impurb,PITROM,z,,,,,,1.172222222,-0.091666667,0,0,0,,0,79,79,433,1
,,,,,,,,,,,,,,,,,,999,2020-11-26_10h16.32.037,lexical_decision_task_MP_exp2,2020.2.5,Win32,60,m,0,0.584,,,,,,,,0.584,0,,,,,,248,NW,"ID",33,strole,STROLE,z,,,,,,1.172222222,-0.091666667,0,0,0,,0,80,80,247,1
,,,,,,,,,,,,,,,,,,999,2020-11-26_10h16.32.037,lexical_decision_task_MP_exp2,2020.2.5,Win32,60,m,0,0.067,,,,,,,,0.067,0,,,,,,441,NW,UN,16,aboune,RASTOE,z,,,,,,1.172222222,-0.091666667,0,0,0,,0,81,81,440,1
,,,,,,,,,,,,,,,,,,999,2020-11-26_10h16.32.037,lexical_decision_task_MP_exp2,2020.2.5,Win32,60,m,1,0.1,,,,,,,,0.1,1,,,,,,141,WORD,UN,33,spruce,ORPHAN,m,,,,,,1.172222222,-0.091666667,0,0,0,,0,82,82,140,1
,,,,,,,,,,,,,,,,,,999,2020-11-26_10h16.32.037,lexical_decision_task_MP_exp2,2020.2.5,Win32,60,z,0,0.238,,,,,,,,0.238,0,,,,,,48,WORD,"ID",33,walnut,WALNUT,m,,,,,,1.172222222,-0.091666667,0,0,0,,0,83,83,47,1
,,,,,,,,,,,,,,,,,,999,2020-11-26_10h16.32.037,lexical_decision_task_MP_exp2,2020.2.5,Win32,60,z,0,0.465,,,,,,,,0.465,0,,,,,,72,WORD,"ID",16,bright,BRIGHT,m,,,,,,1.172222222,-0.091666667,0,0,0,,0,84,84,71,1
,,,,,,,,,,,,,,,,,,999,2020-11-26_10h16.32.037,lexical_decision_task_MP_exp2,2020.2.5,Win32,60,z,1,0.117,,,,,,,,0.117,1,,,,,,444,NW,UN,16,minkel,JAUNCE,z,,,,,,1.172222222,-0.091666667,0,0,0,,0,85,85,443,1
,,,,,,,,,,,,,,,,,,999,2020-11-26_10h16.32.037,lexical_decision_task_MP_exp2,2020.2.5,Win32,60,z,0,0.032,,,,,,,,0.032,0,,,,,,76,WORD,"ID",16,exotic,EXOTIC,m,,,,,,1.172222222,-0.091666667,0,0,0,,0,86,86,75,1
,,,,,,,,,,,,,,,,,,999,2020-11-26_10h16.32.037,lexical_decision_task_MP_exp2,2020.2.5,Win32,60,z,1,0.5,,,,,,,,0.5,1,,,,,,422,NW,UN,16,streld,ALCOUD,z,,,,,,1.172222222,-0.091666667,0,0,0,,0,87,87,421,1
,,,,,,,,,,,,,,,,,,999,2020-11-26_10h16.32.037,lexical_decision_task_MP_exp2,2020.2.5,Win32,60,z,1,0.097,,,,,,,,0.097,1,,,,,,383,NW,UN,33,guesco,AUNGRE,z,,,,,,1.172222222,-0.091666667,0,0,0,,0,88,88,382,1
,,,,,,,,,,,,,,,,,,999,2020-11-26_10h16.32.037,lexical_decision_task_MP_exp2,2020.2.5,Win32,60,z,0,0.201,,,,,,,,0.201,0,,,,,,77,WORD,"ID",16,racket,RACKET,m,,,,,,1.172222222,-0.091666667,0,0,0,,0,89,89,76,1
,,,,,,,,,,,,,,,,,,999,2020-11-26_10h16.32.037,lexical_decision_task_MP_exp2,2020.2.5,Win32,60,m,1,0.553,,,,,,,,0.553,1,,,,,,52,WORD,"ID",33,impose,IMPOSE,m,,,,,,1.172222222,-0.091666667,0,0,0,,0,90,90,51,1
,,,,,,,,,,,,,,,,,,999,2020-11-26_10h16.32.037,lexical_decision_task_MP_exp2,2020.2.5,Win32,60,m,1,0.197,,,,,,,,0.197,1,,,,,,218,WORD,UN,16,bucket,SHRINK,m,,,,,,1.172222222,-0.091666667,0,0,0,,0,91,91,217,1
,,,,,,,,,,,,,,,,,,999,2020-11-26_10h16.32.037,lexical_decision_task_MP_exp2,2020.2.5,Win32,60,z,0,0.168,,,,,,,,0.168,0,,,,,,102,WORD,"ID",16,direct,DIRECT,m,,,,,,1.172222222,-0.091666667,0,0,0,,0,92,92,101,1
,,,,,,,,,,,,,,,,,,999,2020-11-26_10h16.32.037,lexical_decision_task_MP_exp2,2020.2.5,Win32,60,m,0,0.029,,,,,,,,0.029,0,,,,,,396,NW,UN,33,camble,FLENGY,z,,,,,,1.172222222,-0.091666667,0,0,0,,0,93,93,395,1
,,,,,,,,,,,,,,,,,,999,2020-11-26_10h16.32.037,lexical_decision_task_MP_exp2,2020.2.5,Win32,60,m,0,0.502,,,,,,,,0.502,0,,,,,,249,NW,"ID",33,batrol,BATROL,z,,,,,,1.172222222,-0.091666667,0,0,0,,0,94,94,248,1
,,,,,,,,,,,,,,,,,,999,2020-11-26_10h16.32.037,lexical_decision_task_MP_exp2,2020.2.5,Win32,60,z,1,0.001,,,,,,,,0.001,1,,,,,,356,NW,"ID",16,othnis,OTHNIS,z,,,,,,1.172222222,-0.091666667,0,0,0,,0,95,95,355,1
,,,,,,,,,,,,,,,,,,999,2020-11-26_10h16.32.037,lexical_decision_task_MP_exp2,2020.2.5,Win32,60,m,0,0.102,,,,,,,,0.102,0,,,,,,255,NW,"ID",33,apight,APIGHT,z,,,,,,1.172222222,-0.091666667,0,0,0,,0,96,96,254,1
,,,,,,,,,,,,,,,,,,999,2020-11-26_10h16.32.037,lexical_decision_task_MP_exp2,2020.2.5,Win32,60,z,0,0.019,,,,,,,,0.019,0,,,,,,227,WORD,UN,16,master,SELDOM,m,,,,,,1.172222222,-0.091666667,0,0,0,,0,97,97,226,1
,,,,,,,,,,,,,,,,,,999,2020-11-26_10h16.32.037,lexical_decision_task_MP_exp2,2020.2.5,Win32,60,m,0,0.075,,,,,,,,0.075,0,,,,,,408,NW,UN,33,flumni,HURNIA,z,,,,,,1.172222222,-0.091666667,0,0,0,,0,98,98,407,1
,,,,,,,,,,,,,,,,,,999,2020-11-26_10h16.32.037,lexical_decision_task_MP_exp2,2020.2.5,Win32,60,z,0,0.05,,,,,,,,0.05,0,,,,,,81,WORD,"ID",16,friend,FRIEND,m,,,,,,1.172222222,-0.091666667,0,0,0,,0,99,99,80,1
,,,,,,,,,,,,,,,,,,999,2020-11-26_10h16.32.037,lexical_decision_task_MP_exp2,2020.2.5,Win32,60,m,0,0.053,,,,,,,,0.053,0,,,,,,290,NW,"ID",33,splino,SPLINO,z,,,,,,1.172222222,-0.091666667,0,0,0,,0,100,100,289,1
,,,,,,,,,,,,,,,,,,999,2020-11-26_10h16.32.037,lexical_decision_task_MP_exp2,2020.2.5,Win32,60,m,1,0.604,,,,,,,,0.604,1,,,,,,146,WORD,UN,33,garlic,COUPLE,m,,,,,,1.172222222,-0.091666667,0,0,0,,0,101,101,145,1
,,,,,,,,,,,,,,,,,,999,2020-11-26_10h16.32.037,lexical_decision_task_MP_exp2,2020.2.5,Win32,60,z,1,0.001,,,,,,,,0.001,1,,,,,,438,NW,UN,16,limpor,BAITCH,z,,,,,,1.172222222,-0.091666667,0,0,0,,0,102,102,437,1
,,,,,,,,,,,,,,,,,,999,2020-11-26_10h16.32.037,lexical_decision_task_MP_exp2,2020.2.5,Win32,60,m,0,0.002,,,,,,,,0.002,0,,,,,,247,NW,"ID",33,blarge,BLARGE,z,,,,,,1.172222222,-0.091666667,0,0,0,,0,103,103,246,1
,,,,,,,,,,,,,,,,,,999,2020-11-26_10h16.32.037,lexical_decision_task_MP_exp2,2020.2.5,Win32,60,m,0,0.466,,,,,,,,0.466,0,,,,,,313,NW,"ID",16,paurse,PAURSE,z,,,,,,1.172222222,-0.091666667,0,0,0,,0,104,104,312,1
,,,,,,,,,,,,,,,,,,999,2020-11-26_10h16.32.037,lexical_decision_task_MP_exp2,2020.2.5,Win32,60,m,0,0.252,,,,,,,,0.252,0,,,,,,256,NW,"ID",33,inlors,INLORS,z,,,,,,1.172222222,-0.091666667,0,0,0,,0,105,105,255,1
,,,,,,,,,,,,,,,,,,999,2020-11-26_10h16.32.037,lexical_decision_task_MP_exp2,2020.2.5,Win32,60,m,1,0.431,,,,,,,,0.431,1,,,,,,197,WORD,UN,16,wicked,STREAM,m,,,,,,1.172222222,-0.091666667,0,0,0,,0,106,106,196,1
,,,,,,,,,,,,,,,,,,999,2020-11-26_10h16.32.037,lexical_decision_task_MP_exp2,2020.2.5,Win32,60,z,0,0.067,,,,,,,,0.067,0,,,,,,122,WORD,UN,33,strike,LINGER,m,,,,,,1.172222222,-0.091666667,0,0,0,,0,107,107,121,1
,,,,,,,,,,,,,,,,,,999,2020-11-26_10h16.32.037,lexical_decision_task_MP_exp2,2020.2.5,Win32,60,m,1,0.199,,,,,,,,0.199,1,,,,,,111,WORD,"ID",16,induce,INDUCE,m,,,,,,1.172222222,-0.091666667,0,0,0,,0,108,108,110,1
,,,,,,,,,,,,,,,,,,999,2020-11-26_10h16.32.037,lexical_decision_task_MP_exp2,2020.2.5,Win32,60,z,0,0.003,,,,,,,,0.003,0,,,,,,96,WORD,"ID",16,ignore,IGNORE,m,,,,,,1.172222222,-0.091666667,0,0,0,,0,109,109,95,1
,,,,,,,,,,,,,,,,,,999,2020-11-26_10h16.32.037,lexical_decision_task_MP_exp2,2020.2.5,Win32,60,z,1,0.3,,,,,,,,0.3,1,,,,,,295,NW,"ID",33,gleath,GLEATH,z,,,,,,1.172222222,-0.091666667,0,0,0,,0,110,110,294,1
,,,,,,,,,,,,,,,,,,999,2020-11-26_10h16.32.037,lexical_decision_task_MP_exp2,2020.2.5,Win32,60,m,0,0.083,,,,,,,,0.083,0,,,,,,449,NW,UN,16,phrect,BRUNGE,z,,,,,,1.172222222,-0.091666667,0,0,0,,0,111,111,448,1
,,,,,,,,,,,,,,,,,,999,2020-11-26_10h16.32.037,lexical_decision_task_MP_exp2,2020.2.5,Win32,60,m,1,0.665,,,,,,,,0.665,1,,,,,,61,WORD,"ID",16,ponder,PONDER,m,,,,,,1.172222222,-0.091666667,0,0,0,,0,112,112,60,1
,,,,,,,,,,,,,,,,,,999,2020-11-26_10h16.32.037,lexical_decision_task_MP_exp2,2020.2.5,Win32,60,m,0,0.497,,,,,,,,0.497,0,,,,,,467,NW,UN,16,wictor,GORBIE,z,,,,,,1.172222222,-0.091666667,0,0,0,,0,113,113,466,1
,,,,,,,,,,,,,,,,,,999,2020-11-26_10h16.32.037,lexical_decision_task_MP_exp2,2020.2.5,Win32,60,m,0,0.635,,,,,,,,0.635,0,,,,,,358,NW,"ID",16,fleack,FLEACK,z,,,,,,1.172222222,-0.091666667,0,0,0,,0,114,114,357,1
,,,,,,,,,,,,,,,,,,999,2020-11-26_10h16.32.037,lexical_decision_task_MP_exp2,2020.2.5,Win32,60,z,1,0.018,,,,,,,,0.018,1,,,,,,446,NW,UN,16,gircue,RUNAMO,z,,,,,,1.172222222,-0.091666667,0,0,0,,0,115,115,445,1
,,,,,,,,,,,,,,,,,,999,2020-11-26_10h16.32.037,lexical_decision_task_MP_exp2,2020.2.5,Win32,60,z,1,0.514,,,,,,,,0.514,1,,,,,,395,NW,UN,33,flengy,COLURY,z,,,,,,1.172222222,-0.091666667,0,0,0,,0,116,116,394,1
,,,,,,,,,,,,,,,,,,999,2020-11-26_10h16.32.037,lexical_decision_task_MP_exp2,2020.2.5,Win32,60,z,0,0.503,,,,,,,,0.503,0,,,,,,22,WORD,"ID",33,jockey,JOCKEY,m,,,,,,1.172222222,-0.091666667,0,0,0,,0,117,117,21,1
,,,,,,,,,,,,,,,,,,999,2020-11-26_10h16.32.037,lexical_decision_task_MP_exp2,2020.2.5,Win32,60,z,0,0.232,,,,,,,,0.232,0,,,,,,62,WORD,"ID",16,region,REGION,m,,,,,,1.172222222,-0.091666667,0,0,0,,0,118,118,61,1
,,,,,,,,,,,,,,,,,,999,2020-11-26_10h16.32.037,lexical_decision_task_MP_exp2,2020.2.5,Win32,60,m,1,0.055,,,,,,,,0.055,1,,,,,,40,WORD,"ID",33,convey,CONVEY,m,,,,,,1.172222222,-0.091666667,0,0,0,,0,119,119,39,1
,,,,,,,,,,,,,,,,,,999,2020-11-26_10h16.32.037,lexical_decision_task_MP_exp2,2020.2.5,Win32,60,z,0,0.12,,,,,,,,0.12,0,,,,,,240,WORD,UN,16,glance,FOREST,m,,,,,,1.172222222,-0.091666667,0,0,0,,0,120,120,239,1
,,,,,,,,,,,,,,,,,,999,2020-11-26_10h16.32.037,lexical_decision_task_MP_exp2,2020.2.5,Win32,60,m,0,0.199,,,,,,,,0.199,0,,,,,,362,NW,UN,33,breali,TIREAU,z,,,,,,1.172222222,-0.091666667,0,0,0,,0,121,121,361,1
,,,,,,,,,,,,,,,,,,999,2020-11-26_10h16.32.037,lexical_decision_task_MP_exp2,2020.2.5,Win32,60,z,1,0.054,,,,,,,,0.054,1,,,,,,412,NW,UN,33,equats,JILUER,z,,,,,,1.172222222,-0.091666667,0,0,0,,0,122,122,411,1
,,,,,,,,,,,,,,,,,,999,2020-11-26_10h16.32.037,lexical_decision_task_MP_exp2,2020.2.5,Win32,60,m,0,0.066,,,,,,,,0.066,0,,,,,,475,NW,UN,16,robuly,PEBRIC,z,,,,,,1.172222222,-0.091666667,0,0,0,,0,123,123,474,1
,,,,,,,,,,,,,,,,,,999,2020-11-26_10h16.32.037,lexical_decision_task_MP_exp2,2020.2.5,Win32,60,m,0,0.651,,,,,,,,0.651,0,,,,,,380,NW,UN,33,huniek,CAVORY,z,,,,,,1.172222222,-0.091666667,0,0,0,,0,124,124,379,1
,,,,,,,,,,,,,,,,,,999,2020-11-26_10h16.32.037,lexical_decision_task_MP_exp2,2020.2.5,Win32,60,z,1,0.065,,,,,,,,0.065,1,,,,,,464,NW,UN,16,whivex,CHAITE,z,,,,,,1.172222222,-0.091666667,0,0,0,,0,125,125,463,1
,,,,,,,,,,,,,,,,,,999,2020-11-26_10h16.32.037,lexical_decision_task_MP_exp2,2020.2.5,Win32,60,m,1,0.144,,,,,,,,0.144,1,,,,,,234,WORD,UN,16,lumber,CLUMSY,m,,,,,,1.172222222,-0.091666667,0,0,0,,0,126,126,233,1
,,,,,,,,,,,,,,,,,,999,2020-11-26_10h16.32.037,lexical_decision_task_MP_exp2,2020.2.5,Win32,60,z,1,0.134,,,,,,,,0.134,1,,,,,,242,NW,"ID",33,unwert,UNWERT,z,,,,,,1.172222222,-0.091666667,0,0,0,,0,127,127,241,1
,,,,,,,,,,,,,,,,,,999,2020-11-26_10h16.32.037,lexical_decision_task_MP_exp2,2020.2.5,Win32,60,z,1,0.185,,,,,,,,0.185,1,,,,,,427,NW,UN,16,tandly,SCHIND,z,,,,,,1.172222222,-0.091666667,0,0,0,,0,128,128,426,1
,,,,,,,,,,,,,,,,,,999,2020-11-26_10h16.32.037,lexical_decision_task_MP_exp2,2020.2.5,Win32,60,m,1,0.033,,,,,,,,0.033,1,,,,,,185,WORD,UN,16,portal,BOTHER,m,,,,,,1.172222222,-0.091666667,0,0,0,,0,129,129,184,1
,,,,,,,,,,,,,,,,,,999,2020-11-26_10h16.32.037,lexical_decision_task_MP_exp2,2020.2.5,Win32,60,z,1,0.098,,,,,,,,0.098,1,,,,,,262,NW,"ID",33,quilew,QUILEW,z,,,,,,1.172222222,-0.091666667,0,0,0,,0,130,130,261,1
,,,,,,,,,,,,,,,,,,999,2020-11-26_10h16.32.037,lexical_decision_task_MP_exp2,2020.2.5,Win32,60,m,0,0.015,,,,,,,,0.015,0,,,,,,366,NW,UN,33,slique,TOSHEL,z,,,,,,1.172222222,-0.091666667,0,0,0,,0,131,131,365,1
,,,,,,,,,,,,,,,,,,999,2020-11-26_10h16.32.037,lexical_decision_task_MP_exp2,2020.2.5,Win32,60,z,1,0.118,,,,,,,,0.118,1,,,,,,328,NW,"ID",16,broake,BROAKE,z,,,,,,1.172222222,-0.091666667,0,0,0,,0,132,132,327,1
,,,,,,,,,,,,,,,,,,999,2020-11-26_10h16.32.037,lexical_decision_task_MP_exp2,2020.2.5,Win32,60,m,1,0.181,,,,,,,,0.181,1,,,,,,156,WORD,UN,33,pastor,CRADLE,m,,,,,,1.172222222,-0.091666667,0,0,0,,0,133,133,155,1
,,,,,,,,,,,,,,,,,,999,2020-11-26_10h16.32.037,lexical_decision_task_MP_exp2,2020.2.5,Win32,60,z,1,0.167,,,,,,,,0.167,1,,,,,,431,NW,UN,16,lunker,CHRUMS,z,,,,,,1.172222222,-0.091666667,0,0,0,,0,134,134,430,1
,,,,,,,,,,,,,,,,,,999,2020-11-26_10h16.32.037,lexical_decision_task_MP_exp2,2020.2.5,Win32,60,m,1,0.083,,,,,,,,0.083,1,,,,,,155,WORD,UN,33,cradle,LIZARD,m,,,,,,1.172222222,-0.091666667,0,0,0,,0,135,135,154,1
,,,,,,,,,,,,,,,,,,999,2020-11-26_10h16.32.037,lexical_decision_task_MP_exp2,2020.2.5,Win32,60,z,0,0.149,,,,,,,,0.149,0,,,,,,99,WORD,"ID",16,fluent,FLUENT,m,,,,,,1.172222222,-0.091666667,0,0,0,,0,136,136,98,1
,,,,,,,,,,,,,,,,,,999,2020-11-26_10h16.32.037,lexical_decision_task_MP_exp2,2020.2.5,Win32,60,m,1,0.089,,,,,,,,0.089,1,,,,,,94,WORD,"ID",16,travel,TRAVEL,m,,,,,,1.172222222,-0.091666667,0,0,0,,0,137,137,93,1
,,,,,,,,,,,,,,,,,,999,2020-11-26_10h16.32.037,lexical_decision_task_MP_exp2,2020.2.5,Win32,60,z,0,0.001,,,,,,,,0.001,0,,,,,,196,WORD,UN,16,stream,CREDIT,m,,,,,,1.172222222,-0.091666667,0,0,0,,0,138,138,195,1
,,,,,,,,,,,,,,,,,,999,2020-11-26_10h16.32.037,lexical_decision_task_MP_exp2,2020.2.5,Win32,60,m,0,0.181,,,,,,,,0.181,0,,,,,,346,NW,"ID",16,saudic,SAUDIC,z,,,,,,1.172222222,-0.091666667,0,0,0,,0,139,139,345,1
,,,,,,,,,,,,,,,,,,999,2020-11-26_10h16.32.037,lexical_decision_task_MP_exp2,2020.2.5,Win32,60,z,0,0.105,,,,,,,,0.105,0,,,,,,228,WORD,UN,16,inject,MASTER,m,,,,,,1.172222222,-0.091666667,0,0,0,,0,140,140,227,1
,,,,,,,,,,,,,,,,,,999,2020-11-26_10h16.32.037,lexical_decision_task_MP_exp2,2020.2.5,Win32,60,m,1,0.162,,,,,,,,0.162,1,,,,,,198,WORD,UN,16,invoke,WICKED,m,,,,,,1.172222222,-0.091666667,0,0,0,,0,141,141,197,1
,,,,,,,,,,,,,,,,,,999,2020-11-26_10h16.32.037,lexical_decision_task_MP_exp2,2020.2.5,Win32,60,m,0,0.135,,,,,,,,0.135,0,,,,,,252,NW,"ID",33,stapod,STAPOD,z,,,,,,1.172222222,-0.091666667,0,0,0,,0,142,142,251,1
,,,,,,,,,,,,,,,,,,999,2020-11-26_10h16.32.037,lexical_decision_task_MP_exp2,2020.2.5,Win32,60,m,1,0.137,,,,,,,,0.137,1,,,,,,105,WORD,"ID",16,number,NUMBER,m,,,,,,1.172222222,-0.091666667,0,0,0,,0,143,143,104,1
,,,,,,,,,,,,,,,,,,999,2020-11-26_10h16.32.037,lexical_decision_task_MP_exp2,2020.2.5,Win32,60,z,0,0.116,,,,,,,,0.116,0,,,,,,86,WORD,"ID",16,rodent,RODENT,m,,,,,,1.172222222,-0.091666667,0,0,0,,0,144,144,85,1
,,,,,,,,,,,,,,,,,,999,2020-11-26_10h16.32.037,lexical_decision_task_MP_exp2,2020.2.5,Win32,60,m,0,0.119,,,,,,,,0.119,0,,,,,,435,NW,UN,16,frutan,IMPURB,z,,,,,,1.172222222,-0.091666667,0,0,0,,0,145,145,434,1
,,,,,,,,,,,,,,,,,,999,2020-11-26_10h16.32.037,lexical_decision_task_MP_exp2,2020.2.5,Win32,60,z,0,0.202,,,,,,,,0.202,0,,,,,,211,WORD,UN,16,verify,INFECT,m,,,,,,1.172222222,-0.091666667,0,0,0,,0,146,146,210,1
,,,,,,,,,,,,,,,,,,999,2020-11-26_10h16.32.037,lexical_decision_task_MP_exp2,2020.2.5,Win32,60,m,1,0.27,,,,,,,,0.27,1,,,,,,35,WORD,"ID",33,socket,SOCKET,m,,,,,,1.172222222,-0.091666667,0,0,0,,0,147,147,34,1
,,,,,,,,,,,,,,,,,,999,2020-11-26_10h16.32.037,lexical_decision_task_MP_exp2,2020.2.5,Win32,60,z,0,0.045,,,,,,,,0.045,0,,,,,,212,WORD,UN,16,squeal,VERIFY,m,,,,,,1.172222222,-0.091666667,0,0,0,,0,148,148,211,1
,,,,,,,,,,,,,,,,,,999,2020-11-26_10h16.32.037,lexical_decision_task_MP_exp2,2020.2.5,Win32,60,m,1,0.257,,,,,,,,0.257,1,,,,,,36,WORD,"ID",33,vanish,VANISH,m,,,,,,1.172222222,-0.091666667,0,0,0,,0,149,149,35,1
,,,,,,,,,,,,,,,,,,999,2020-11-26_10h16.32.037,lexical_decision_task_MP_exp2,2020.2.5,Win32,60,z,1,0.132,,,,,,,,0.132,1,,,,,,450,NW,UN,16,rastoe,PHRECT,z,,,,,,1.172222222,-0.091666667,0,0,0,,0,150,150,449,1
,,,,,,,,,,,,,,,,,,999,2020-11-26_10h16.32.037,lexical_decision_task_MP_exp2,2020.2.5,Win32,60,m,0,0.183,,,,,,,,0.183,0,,,,,,325,NW,"ID",16,thruse,THRUSE,z,,,,,,1.172222222,-0.091666667,0,0,0,,0,151,151,324,1
,,,,,,,,,,,,,,,,,,999,2020-11-26_10h16.32.037,lexical_decision_task_MP_exp2,2020.2.5,Win32,60,z,0,0.068,,,,,,,,0.068,0,,,,,,23,WORD,"ID",33,wealth,WEALTH,m,,,,,,1.172222222,-0.091666667,0,0,0,,0,152,152,22,1
,,,,,,,,,,,,,,,,,,999,2020-11-26_10h16.32.037,lexical_decision_task_MP_exp2,2020.2.5,Win32,60,m,1,0.168,,,,,,,,0.168,1,,,,,,181,WORD,UN,16,winter,GLANCE,m,,,,,,1.172222222,-0.091666667,0,0,0,,0,153,153,180,1
,,,,,,,,,,,,,,,,,,999,2020-11-26_10h16.32.037,lexical_decision_task_MP_exp2,2020.2.5,Win32,60,m,1,0.584,,,,,,,,0.584,1,,,,,,104,WORD,"ID",16,studio,STUDIO,m,,,,,,1.172222222,-0.091666667,0,0,0,,0,154,154,103,1
,,,,,,,,,,,,,,,,,,999,2020-11-26_10h16.32.037,lexical_decision_task_MP_exp2,2020.2.5,Win32,60,m,0,0.335,,,,,,,,0.335,0,,,,,,410,NW,UN,33,orchin,TUNORY,z,,,,,,1.172222222,-0.091666667,0,0,0,,0,155,155,409,1
,,,,,,,,,,,,,,,,,,999,2020-11-26_10h16.32.037,lexical_decision_task_MP_exp2,2020.2.5,Win32,60,z,0,0.165,,,,,,,,0.165,0,,,,,,236,WORD,UN,16,poster,PIRATE,m,,,,,,1.172222222,-0.091666667,0,0,0,,0,156,156,235,1
,,,,,,,,,,,,,,,,,,999,2020-11-26_10h16.32.037,lexical_decision_task_MP_exp2,2020.2.5,Win32,60,m,1,0.607,,,,,,,,0.607,1,,,,,,83,WORD,"ID",16,result,RESULT,m,,,,,,1.172222222,-0.091666667,0,0,0,,0,157,157,82,1
,,,,,,,,,,,,,,,,,,999,2020-11-26_10h16.32.037,lexical_decision_task_MP_exp2,2020.2.5,Win32,60,m,1,0.418,,,,,,,,0.418,1,,,,,,50,WORD,"ID",33,snatch,SNATCH,m,,,,,,1.172222222,-0.091666667,0,0,0,,0,158,158,49,1
,,,,,,,,,,,,,,,,,,999,2020-11-26_10h16.32.037,lexical_decision_task_MP_exp2,2020.2.5,Win32,60,z,0,0.485,,,,,,,,0.485,0,,,,,,237,WORD,UN,16,seldom,POSTER,m,,,,,,1.172222222,-0.091666667,0,0,0,,0,159,159,236,1
,,,,,,,,,,,,,,,,,,999,2020-11-26_10h16.32.037,lexical_decision_task_MP_exp2,2020.2.5,Win32,60,m,1,0.099,,,,,,,,0.099,1,,,,,,24,WORD,"ID",33,praise,PRAISE,m,,,,,,1.172222222,-0.091666667,0,0,0,,0,160,160,23,1
,,,,,,,,,,,,,,,,,,999,2020-11-26_10h16.32.037,lexical_decision_task_MP_exp2,2020.2.5,Win32,60,z,0,0.272,,,,,,,,0.272,0,,,,,,182,WORD,UN,16,basket,WINTER,m,,,,,,1.172222222,-0.091666667,0,0,0,,0,161,161,181,1
,,,,,,,,,,,,,,,,,,999,2020-11-26_10h16.32.037,lexical_decision_task_MP_exp2,2020.2.5,Win32,60,m,0,0.05,,,,,,,,0.05,0,,,,,,426,NW,UN,16,frudge,URIVEL,z,,,,,,1.172222222,-0.091666667,0,0,0,,0,162,162,425,1
,,,,,,,,,,,,,,,,,,999,2020-11-26_10h16.32.037,lexical_decision_task_MP_exp2,2020.2.5,Win32,60,z,0,0.537,,,,,,,,0.537,0,,,,,,235,WORD,UN,16,pirate,GRUMPY,m,,,,,,1.172222222,-0.091666667,0,0,0,,0,163,163,234,1
,,,,,,,,,,,,,,,,,,999,2020-11-26_10h16.32.037,lexical_decision_task_MP_exp2,2020.2.5,Win32,60,z,0,0.516,,,,,,,,0.516,0,,,,,,60,WORD,"ID",33,pencil,PENCIL,m,,,,,,1.172222222,-0.091666667,0,0,0,,0,164,164,59,1
,,,,,,,,,,,,,,,,,,999,2020-11-26_10h16.32.037,lexical_decision_task_MP_exp2,2020.2.5,Win32,60,z,1,0.484,,,,,,,,0.484,1,,,,,,411,NW,UN,33,jiluer,ORCHIN,z,,,,,,1.172222222,-0.091666667,0,0,0,,0,165,165,410,1
,,,,,,,,,,,,,,,,,,999,2020-11-26_10h16.32.037,lexical_decision_task_MP_exp2,2020.2.5,Win32,60,m,0,0.299,,,,,,,,0.299,0,,,,,,437,NW,UN,16,baitch,SNAPEL,z,,,,,,1.172222222,-0.091666667,0,0,0,,0,166,166,436,1
,,,,,,,,,,,,,,,,,,999,2020-11-26_10h16.32.037,lexical_decision_task_MP_exp2,2020.2.5,Win32,60,m,0,0.767,,,,,,,,0.767,0,,,,,,478,NW,UN,16,lobush,ACRISE,z,,,,,,1.172222222,-0.091666667,0,0,0,,0,167,167,477,1
,,,,,,,,,,,,,,,,,,999,2020-11-26_10h16.32.037,lexical_decision_task_MP_exp2,2020.2.5,Win32,60,m,0,0.469,,,,,,,,0.469,0,,,,,,461,NW,UN,16,absult,JUSTRE,z,,,,,,1.172222222,-0.091666667,0,0,0,,0,168,168,460,1
,,,,,,,,,,,,,,,,,,999,2020-11-26_10h16.32.037,lexical_decision_task_MP_exp2,2020.2.5,Win32,60,m,1,0.567,,,,,,,,0.567,1,,,,,,113,WORD,"ID",16,chorus,CHORUS,m,,,,,,1.172222222,-0.091666667,0,0,0,,0,169,169,112,1
,,,,,,,,,,,,,,,,,,999,2020-11-26_10h16.32.037,lexical_decision_task_MP_exp2,2020.2.5,Win32,60,m,1,0.415,,,,,,,,0.415,1,,,,,,12,WORD,"ID",33,orange,ORANGE,m,,,,,,1.172222222,-0.091666667,0,0,0,,0,170,170,11,1
,,,,,,,,,,,,,,,,,,999,2020-11-26_10h16.32.037,lexical_decision_task_MP_exp2,2020.2.5,Win32,60,z,0,0.485,,,,,,,,0.485,0,,,,,,176,WORD,UN,33,advent,STRIFE,m,,,,,,1.172222222,-0.091666667,0,0,0,,0,171,171,175,1
,,,,,,,,,,,,,,,,,,999,2020-11-26_10h16.32.037,lexical_decision_task_MP_exp2,2020.2.5,Win32,60,z,1,1.367,,,,,,,,1.367,1,,,,,,398,NW,UN,33,fouret,BLUNDE,z,,,,,,1.172222222,-0.091666667,0,0,0,,0,172,172,397,1
,,,,,,,,,,,,,,,,,,999,2020-11-26_10h16.32.037,lexical_decision_task_MP_exp2,2020.2.5,Win32,60,z,0,1.151,,,,,,,,1.151,0,,,,,,136,WORD,UN,33,finger,BLEACH,m,,,,,,1.172222222,-0.091666667,0,0,0,,0,173,173,135,1
,,,,,,,,,,,,,,,,,,999,2020-11-26_10h16.32.037,lexical_decision_task_MP_exp2,2020.2.5,Win32,60,z,1,0.518,,,,,,,,0.518,1,,,,,,409,NW,UN,33,tunory,ELOPIA,z,,,,,,1.172222222,-0.091666667,0,0,0,,0,174,174,408,1
,,,,,,,,,,,,,,,,,,999,2020-11-26_10h16.32.037,lexical_decision_task_MP_exp2,2020.2.5,Win32,60,z,0,1.05,,,,,,,,1.05,0,,,,,,16,WORD,"ID",33,faucet,FAUCET,m,,,,,,1.172222222,-0.091666667,0,0,0,,0,175,175,15,1
,,,,,,,,,,,,,,,,,,999,2020-11-26_10h16.32.037,lexical_decision_task_MP_exp2,2020.2.5,Win32,60,z,1,0.403,,,,,,,,0.403,1,,,,,,370,NW,UN,33,geiloy,SLEACT,z,,,,,,1.172222222,-0.091666667,0,0,0,,0,176,176,369,1
,,,,,,,,,,,,,,,,,,999,2020-11-26_10h16.32.037,lexical_decision_task_MP_exp2,2020.2.5,Win32,60,m,0,0.049,,,,,,,,0.049,0,,,,,,363,NW,UN,33,impote,BREALI,z,,,,,,1.172222222,-0.091666667,0,0,0,,0,177,177,362,1
,,,,,,,,,,,,,,,,,,999,2020-11-26_10h16.32.037,lexical_decision_task_MP_exp2,2020.2.5,Win32,60,m,0,0.665,,,,,,,,0.665,0,,,,,,276,NW,"ID",33,yarmon,YARMON,z,,,,,,1.172222222,-0.091666667,0,0,0,,0,178,178,275,1
,,,,,,,,,,,,,,,,,,999,2020-11-26_10h16.32.037,lexical_decision_task_MP_exp2,2020.2.5,Win32,60,z,1,0.347,,,,,,,,0.347,1,,,,,,394,NW,UN,33,colury,SPAQUX,z,,,,,,1.172222222,-0.091666667,0,0,0,,0,179,179,393,1
,,,,,,,,,,,,,,,,,,999,2020-11-26_10h16.32.037,lexical_decision_task_MP_exp2,2020.2.5,Win32,60,m,0,0.253,,,,,,,,0.253,0,,,,,,350,NW,"ID",16,nagurs,NAGURS,z,,,,,,1.172222222,-0.091666667,0,0,0,,0,180,180,349,1
,,,,,,,,,,,,,,,,,,999,2020-11-26_10h16.32.037,lexical_decision_task_MP_exp2,2020.2.5,Win32,60,z,1,0.216,,,,,,,,0.216,1,,,,,,245,NW,"ID",33,anougs,ANOUGS,z,,,,,,1.172222222,-0.091666667,0,0,0,,0,181,181,244,1
,,,,,,,,,,,,,,,,,,999,2020-11-26_10h16.32.037,lexical_decision_task_MP_exp2,2020.2.5,Win32,60,z,1,0.166,,,,,,,,0.166,1,,,,,,401,NW,UN,33,elopia,MUSTIL,z,,,,,,1.172222222,-0.091666667,0,0,0,,0,182,182,400,1
,,,,,,,,,,,,,,,,,,999,2020-11-26_10h16.32.037,lexical_decision_task_MP_exp2,2020.2.5,Win32,60,m,0,0.118,,,,,,,,0.118,0,,,,,,458,NW,UN,16,chaite,BARCET,z,,,,,,1.172222222,-0.091666667,0,0,0,,0,183,183,457,1
,,,,,,,,,,,,,,,,,,999,2020-11-26_10h16.32.037,lexical_decision_task_MP_exp2,2020.2.5,Win32,60,z,0,0.049,,,,,,,,0.049,0,,,,,,164,WORD,UN,33,invest,MARKET,m,,,,,,1.172222222,-0.091666667,0,0,0,,0,184,184,163,1
,,,,,,,,,,,,,,,,,,999,2020-11-26_10h16.32.037,lexical_decision_task_MP_exp2,2020.2.5,Win32,60,z,0,0.149,,,,,,,,0.149,0,,,,,,229,WORD,UN,16,fringe,MOTHER,m,,,,,,1.172222222,-0.091666667,0,0,0,,0,185,185,228,1
,,,,,,,,,,,,,,,,,,999,2020-11-26_10h16.32.037,lexical_decision_task_MP_exp2,2020.2.5,Win32,60,z,0,0.667,,,,,,,,0.667,0,,,,,,157,WORD,UN,33,island,DRAGON,m,,,,,,1.172222222,-0.091666667,0,0,0,,0,186,186,156,1
,,,,,,,,,,,,,,,,,,999,2020-11-26_10h16.32.037,lexical_decision_task_MP_exp2,2020.2.5,Win32,60,m,0,0.166,,,,,,,,0.166,0,,,,,,351,NW,"ID",16,tiesch,TIESCH,z,,,,,,1.172222222,-0.091666667,0,0,0,,0,187,187,350,1
,,,,,,,,,,,,,,,,,,999,2020-11-26_10h16.32.037,lexical_decision_task_MP_exp2,2020.2.5,Win32,60,z,1,0.184,,,,,,,,0.184,1,,,,,,332,NW,"ID",16,vangue,VANGUE,z,,,,,,1.172222222,-0.091666667,0,0,0,,0,188,188,331,1
,,,,,,,,,,,,,,,,,,999,2020-11-26_10h16.32.037,lexical_decision_task_MP_exp2,2020.2.5,Win32,60,m,1,0.069,,,,,,,,0.069,1,,,,,,137,WORD,UN,33,melody,FINGER,m,,,,,,1.172222222,-0.091666667,0,0,0,,0,189,189,136,1
,,,,,,,,,,,,,,,,,,999,2020-11-26_10h16.32.037,lexical_decision_task_MP_exp2,2020.2.5,Win32,60,z,1,0.172,,,,,,,,0.172,1,,,,,,466,NW,UN,16,pebric,HOCITE,z,,,,,,1.172222222,-0.091666667,0,0,0,,0,190,190,465,1
,,,,,,,,,,,,,,,,,,999,2020-11-26_10h16.32.037,lexical_decision_task_MP_exp2,2020.2.5,Win32,60,m,1,0.118,,,,,,,,0.118,1,,,,,,168,WORD,UN,33,genius,ANSWER,m,,,,,,1.172222222,-0.091666667,0,0,0,,0,191,191,167,1
,,,,,,,,,,,,,,,,,,999,2020-11-26_10h16.32.037,lexical_decision_task_MP_exp2,2020.2.5,Win32,60,z,1,0.083,,,,,,,,0.083,1,,,,,,403,NW,UN,33,cluirm,BRUATS,z,,,,,,1.172222222,-0.091666667,0,0,0,,0,192,192,402,1
,,,,,,,,,,,,,,,,,,999,2020-11-26_10h16.32.037,lexical_decision_task_MP_exp2,2020.2.5,Win32,60,m,1,0.15,,,,,,,,0.15,1,,,,,,106,WORD,"ID",16,ransom,RANSOM,m,,,,,,1.172222222,-0.091666667,0,0,0,,0,193,193,105,1
,,,,,,,,,,,,,,,,,,999,2020-11-26_10h16.32.037,lexical_decision_task_MP_exp2,2020.2.5,Win32,60,z,1,0.083,,,,,,,,0.083,1,,,,,,316,NW,"ID",16,scregm,SCREGM,z,,,,,,1.172222222,-0.091666667,0,0,0,,0,194,194,315,1
,,,,,,,,,,,,,,,,,,999,2020-11-26_10h16.32.037,lexical_decision_task_MP_exp2,2020.2.5,Win32,60,m,1,0.054,,,,,,,,0.054,1,,,,,,1,WORD,"ID",33,fright,FRIGHT,m,,,,,,1.172222222,-0.091666667,0,0,0,,0,195,195,0,1
,,,,,,,,,,,,,,,,,,999,2020-11-26_10h16.32.037,lexical_decision_task_MP_exp2,2020.2.5,Win32,60,z,1,0.099,,,,,,,,0.099,1,,,,,,340,NW,"ID",16,fiatch,FIATCH,z,,,,,,1.172222222,-0.091666667,0,0,0,,0,196,196,339,1
,,,,,,,,,,,,,,,,,,999,2020-11-26_10h16.32.037,lexical_decision_task_MP_exp2,2020.2.5,Win32,60,m,1,0.084,,,,,,,,0.084,1,,,,,,58,WORD,"ID",33,foster,FOSTER,m,,,,,,1.172222222,-0.091666667,0,0,0,,0,197,197,57,1
,,,,,,,,,,,,,,,,,,999,2020-11-26_10h16.32.037,lexical_decision_task_MP_exp2,2020.2.5,Win32,60,z,0,0.1,,,,,,,,0.1,0,,,,,,124,WORD,UN,33,nickel,BLOUSE,m,,,,,,1.172222222,-0.091666667,0,0,0,,0,198,198,123,1
,,,,,,,,,,,,,,,,,,999,2020-11-26_10h16.32.037,lexical_decision_task_MP_exp2,2020.2.5,Win32,60,m,1,0.05,,,,,,,,0.05,1,,,,,,17,WORD,"ID",33,charge,CHARGE,m,,,,,,1.172222222,-0.091666667,0,0,0,,0,199,199,16,1
,,,,,,,,,,,,,,,,,,999,2020-11-26_10h16.32.037,lexical_decision_task_MP_exp2,2020.2.5,Win32,60,z,0,0.12,,,,,,,,0.12,0,,,,,,42,WORD,"ID",33,chapel,CHAPEL,m,,,,,,1.172222222,-0.091666667,0,0,0,,0,200,200,41,1
,,,,,,,,,,,,,,,,,,999,2020-11-26_10h16.32.037,lexical_decision_task_MP_exp2,2020.2.5,Win32,60,z,1,0.666,,,,,,,,0.666,1,,,,,,293,NW,"ID",33,swance,SWANCE,z,,,,,,1.172222222,-0.091666667,0,0,0,,0,201,201,292,1
,,,,,,,,,,,,,,,,,,999,2020-11-26_10h16.32.037,lexical_decision_task_MP_exp2,2020.2.5,Win32,60,m,0,0.063,,,,,,,,0.063,0,,,,,,451,NW,UN,16,surden,CAINKY,z,,,,,,1.172222222,-0.091666667,0,0,0,,0,202,202,450,1
,,,,,,,,,,,,,,,,,,999,2020-11-26_10h16.32.037,lexical_decision_task_MP_exp2,2020.2.5,Win32,60,z,0,0.099,,,,,,,,0.099,0,,,,,,79,WORD,"ID",16,theory,THEORY,m,,,,,,1.172222222,-0.091666667,0,0,0,,0,203,203,78,1
,,,,,,,,,,,,,,,,,,999,2020-11-26_10h16.32.037,lexical_decision_task_MP_exp2,2020.2.5,Win32,60,m,0,0.215,,,,,,,,0.215,0,,,,,,373,NW,UN,33,injore,BIGENT,z,,,,,,1.172222222,-0.091666667,0,0,0,,0,204,204,372,1
,,,,,,,,,,,,,,,,,,999,2020-11-26_10h16.32.037,lexical_decision_task_MP_exp2,2020.2.5,Win32,60,z,0,0.068,,,,,,,,0.068,0,,,,,,162,WORD,UN,33,string,CANDLE,m,,,,,,1.172222222,-0.091666667,0,0,0,,0,205,205,161,1
,,,,,,,,,,,,,,,,,,999,2020-11-26_10h16.32.037,lexical_decision_task_MP_exp2,2020.2.5,Win32,60,m,0,0.037,,,,,,,,0.037,0,,,,,,468,NW,UN,16,padifs,WICTOR,z,,,,,,1.172222222,-0.091666667,0,0,0,,0,206,206,467,1
,,,,,,,,,,,,,,,,,,999,2020-11-26_10h16.32.037,lexical_decision_task_MP_exp2,2020.2.5,Win32,60,z,0,0.067,,,,,,,,0.067,0,,,,,,115,WORD,"ID",16,guitar,GUITAR,m,,,,,,1.172222222,-0.091666667,0,0,0,,0,207,207,114,1
,,,,,,,,,,,,,,,,,,999,2020-11-26_10h16.32.037,lexical_decision_task_MP_exp2,2020.2.5,Win32,60,m,1,0.055,,,,,,,,0.055,1,,,,,,120,WORD,"ID",16,strain,STRAIN,m,,,,,,1.172222222,-0.091666667,0,0,0,,0,208,208,119,1
,,,,,,,,,,,,,,,,,,999,2020-11-26_10h16.32.037,lexical_decision_task_MP_exp2,2020.2.5,Win32,60,z,1,0.079,,,,,,,,0.079,1,,,,,,407,NW,UN,33,hurnia,SUIVER,z,,,,,,1.172222222,-0.091666667,0,0,0,,0,209,209,406,1
,,,,,,,,,,,,,,,,,,999,2020-11-26_10h16.32.037,lexical_decision_task_MP_exp2,2020.2.5,Win32,60,m,1,0.117,,,,,,,,0.117,1,,,,,,210,WORD,UN,16,infect,MONKEY,m,,,,,,1.172222222,-0.091666667,0,0,0,,0,210,210,209,1
,,,,,,,,,,,,,,,,,,999,2020-11-26_10h16.32.037,lexical_decision_task_MP_exp2,2020.2.5,Win32,60,z,1,0.032,,,,,,,,0.032,1,,,,,,331,NW,"ID",16,gilfew,GILFEW,z,,,,,,1.172222222,-0.091666667,0,0,0,,0,211,211,330,1
,,,,,,,,,,,,,,,,,,999,2020-11-26_10h16.32.037,lexical_decision_task_MP_exp2,2020.2.5,Win32,60,m,0,0.05,,,,,,,,0.05,0,,,,,,463,NW,UN,16,bafent,KISPEL,z,,,,,,1.172222222,-0.091666667,0,0,0,,0,212,212,462,1
,,,,,,,,,,,,,,,,,,999,2020-11-26_10h16.32.037,lexical_decision_task_MP_exp2,2020.2.5,Win32,60,m,0,0.633,,,,,,,,0.633,0,,,,,,281,NW,"ID",33,melaty,MELATY,z,,,,,,1.172222222,-0.091666667,0,0,0,,0,213,213,280,1
,,,,,,,,,,,,,,,,,,999,2020-11-26_10h16.32.037,lexical_decision_task_MP_exp2,2020.2.5,Win32,60,z,1,0.117,,,,,,,,0.117,1,,,,,,278,NW,"ID",33,unighs,UNIGHS,z,,,,,,1.172222222,-0.091666667,0,0,0,,0,214,214,277,1
,,,,,,,,,,,,,,,,,,999,2020-11-26_10h16.32.037,lexical_decision_task_MP_exp2,2020.2.5,Win32,60,z,1,0.597,,,,,,,,0.597,1,,,,,,392,NW,UN,33,ganous,ROUNCY,z,,,,,,1.172222222,-0.091666667,0,0,0,,0,215,215,391,1
,,,,,,,,,,,,,,,,,,999,2020-11-26_10h16.32.037,lexical_decision_task_MP_exp2,2020.2.5,Win32,60,m,1,0.002,,,,,,,,0.002,1,,,,,,195,WORD,UN,16,credit,RESIGN,m,,,,,,1.172222222,-0.091666667,0,0,0,,0,216,216,194,1
,,,,,,,,,,,,,,,,,,999,2020-11-26_10h16.32.037,lexical_decision_task_MP_exp2,2020.2.5,Win32,60,z,1,0.086,,,,,,,,0.086,1,,,,,,390,NW,UN,33,theldy,HATRUS,z,,,,,,1.172222222,-0.091666667,0,0,0,,0,217,217,389,1
,,,,,,,,,,,,,,,,,,999,2020-11-26_10h16.32.037,lexical_decision_task_MP_exp2,2020.2.5,Win32,60,m,0,0.101,,,,,,,,0.101,0,,,,,,445,NW,UN,16,runamo,MINKEL,z,,,,,,1.172222222,-0.091666667,0,0,0,,0,218,218,444,1
,,,,,,,,,,,,,,,,,,999,2020-11-26_10h16.32.037,lexical_decision_task_MP_exp2,2020.2.5,Win32,60,z,0,0.113,,,,,,,,0.113,0,,,,,,233,WORD,UN,16,clumsy,NATURE,m,,,,,,1.172222222,-0.091666667,0,0,0,,0,219,219,232,1
,,,,,,,,,,,,,,,,,,999,2020-11-26_10h16.32.037,lexical_decision_task_MP_exp2,2020.2.5,Win32,60,m,1,0.105,,,,,,,,0.105,1,,,,,,239,WORD,UN,16,forest,LUMBER,m,,,,,,1.172222222,-0.091666667,0,0,0,,0,220,220,238,1
,,,,,,,,,,,,,,,,,,999,2020-11-26_10h16.32.037,lexical_decision_task_MP_exp2,2020.2.5,Win32,60,z,1,0.065,,,,,,,,0.065,1,,,,,,453,NW,UN,16,scouge,BOLVIS,z,,,,,,1.172222222,-0.091666667,0,0,0,,0,221,221,452,1
,,,,,,,,,,,,,,,,,,999,2020-11-26_10h16.32.037,lexical_decision_task_MP_exp2,2020.2.5,Win32,60,m,1,0.117,,,,,,,,0.117,1,,,,,,202,WORD,UN,16,phrase,FACTOR,m,,,,,,1.172222222,-0.091666667,0,0,0,,0,222,222,201,1
,,,,,,,,,,,,,,,,,,999,2020-11-26_10h16.32.037,lexical_decision_task_MP_exp2,2020.2.5,Win32,60,z,1,0.048,,,,,,,,0.048,1,,,,,,277,NW,"ID",33,petain,PETAIN,z,,,,,,1.172222222,-0.091666667,0,0,0,,0,223,223,276,1
,,,,,,,,,,,,,,,,,,999,2020-11-26_10h16.32.037,lexical_decision_task_MP_exp2,2020.2.5,Win32,60,m,0,0.002,,,,,,,,0.002,0,,,,,,405,NW,UN,33,nouply,FLUMNI,z,,,,,,1.172222222,-0.091666667,0,0,0,,0,224,224,404,1
,,,,,,,,,,,,,,,,,,999,2020-11-26_10h16.32.037,lexical_decision_task_MP_exp2,2020.2.5,Win32,60,z,1,0.036,,,,,,,,0.036,1,,,,,,288,NW,"ID",33,yaceup,YACEUP,z,,,,,,1.172222222,-0.091666667,0,0,0,,0,225,225,287,1
,,,,,,,,,,,,,,,,,,999,2020-11-26_10h16.32.037,lexical_decision_task_MP_exp2,2020.2.5,Win32,60,m,1,0.082,,,,,,,,0.082,1,,,,,,187,WORD,UN,16,social,COURSE,m,,,,,,1.172222222,-0.091666667,0,0,0,,0,226,226,186,1
,,,,,,,,,,,,,,,,,,999,2020-11-26_10h16.32.037,lexical_decision_task_MP_exp2,2020.2.5,Win32,60,z,0,0.037,,,,,,,,0.037,0,,,,,,30,WORD,"ID",33,orient,ORIENT,m,,,,,,1.172222222,-0.091666667,0,0,0,,0,227,227,29,1
,,,,,,,,,,,,,,,,,,999,2020-11-26_10h16.32.037,lexical_decision_task_MP_exp2,2020.2.5,Win32,60,m,1,0.045,,,,,,,,0.045,1,,,,,,44,WORD,"ID",33,danger,DANGER,m,,,,,,1.172222222,-0.091666667,0,0,0,,0,228,228,43,1
,,,,,,,,,,,,,,,,,,999,2020-11-26_10h16.32.037,lexical_decision_task_MP_exp2,2020.2.5,Win32,60,z,1,0.043,,,,,,,,0.043,1,,,,,,302,NW,"ID",16,miluer,MILUER,z,,,,,,1.172222222,-0.091666667,0,0,0,,0,229,229,301,1
,,,,,,,,,,,,,,,,,,999,2020-11-26_10h16.32.037,lexical_decision_task_MP_exp2,2020.2.5,Win32,60,m,1,0.043,,,,,,,,0.043,1,,,,,,43,WORD,"ID",33,tongue,TONGUE,m,,,,,,1.172222222,-0.091666667,0,0,0,,0,230,230,42,1
,,,,,,,,,,,,,,,,,,999,2020-11-26_10h16.32.037,lexical_decision_task_MP_exp2,2020.2.5,Win32,60,z,1,0.005,,,,,,,,0.005,1,,,,,,253,NW,"ID",33,resait,RESAIT,z,,,,,,1.172222222,-0.091666667,0,0,0,,0,231,231,252,1
,,,,,,,,,,,,,,,,,,999,2020-11-26_10h16.32.037,lexical_decision_task_MP_exp2,2020.2.5,Win32,60,z,1,0.396,,,,,,,,0.396,1,,,,,,299,NW,"ID",33,sturch,STURCH,z,,,,,,1.172222222,-0.091666667,0,0,0,,0,232,232,298,1
,,,,,,,,,,,,,,,,,,999,2020-11-26_10h16.32.037,lexical_decision_task_MP_exp2,2020.2.5,Win32,60,m,0,0.036,,,,,,,,0.036,0,,,,,,341,NW,"ID",16,myrtie,MYRTIE,z,,,,,,1.172222222,-0.091666667,0,0,0,,0,233,233,340,1
,,,,,,,,,,,,,,,,,,999,2020-11-26_10h16.32.037,lexical_decision_task_MP_exp2,2020.2.5,Win32,60,z,1,0.039,,,,,,,,0.039,1,,,,,,460,NW,UN,16,justre,MINGAR,z,,,,,,1.172222222,-0.091666667,0,0,0,,0,234,234,459,1
,,,,,,,,,,,,,,,,,,999,2020-11-26_10h16.32.037,lexical_decision_task_MP_exp2,2020.2.5,Win32,60,m,0,0.068,,,,,,,,0.068,0,,,,,,372,NW,UN,33,bigent,RAMILY,z,,,,,,1.172222222,-0.091666667,0,0,0,,0,235,235,371,1
,,,,,,,,,,,,,,,,,,999,2020-11-26_10h16.32.037,lexical_decision_task_MP_exp2,2020.2.5,Win32,60,m,1,0.553,,,,,,,,0.553,1,,,,,,170,WORD,UN,33,depart,POUNCE,m,,,,,,1.172222222,-0.091666667,0,0,0,,0,236,236,169,1
,,,,,,,,,,,,,,,,,,999,2020-11-26_10h16.32.037,lexical_decision_task_MP_exp2,2020.2.5,Win32,60,z,1,0.085,,,,,,,,0.085,1,,,,,,268,NW,"ID",33,packes,PACKES,z,,,,,,1.172222222,-0.091666667,0,0,0,,0,237,237,267,1
,,,,,,,,,,,,,,,,,,999,2020-11-26_10h16.32.037,lexical_decision_task_MP_exp2,2020.2.5,Win32,60,m,0,0.029,,,,,,,,0.029,0,,,,,,415,NW,UN,33,pathel,HIGSTA,z,,,,,,1.172222222,-0.091666667,0,0,0,,0,238,238,414,1
,,,,,,,,,,,,,,,,,,999,2020-11-26_10h16.32.037,lexical_decision_task_MP_exp2,2020.2.5,Win32,60,z,1,0.084,,,,,,,,0.084,1,,,,,,301,NW,"ID",16,fainch,FAINCH,z,,,,,,1.172222222,-0.091666667,0,0,0,,0,239,239,300,1
,,,,,,,,,,,,,,,,,,999,2020-11-26_10h16.32.037,lexical_decision_task_MP_exp2,2020.2.5,Win32,60,z,1,0.547,,,,,,,,0.547,1,,,,,,376,NW,UN,33,sliant,IGUARE,z,,,,,,1.172222222,-0.091666667,0,0,0,,0,240,240,375,1
,,,,,,,,,,,,,,,,,,999,2020-11-26_10h16.32.037,lexical_decision_task_MP_exp2,2020.2.5,Win32,60,m,0,0.068,,,,,,,,0.068,0,,,,,,470,NW,UN,16,nobest,CRUDIO,z,,,,,,1.172222222,-0.091666667,0,0,0,,0,241,241,469,1
,,,,,,,,,,,,,,,,,,999,2020-11-26_10h16.32.037,lexical_decision_task_MP_exp2,2020.2.5,Win32,60,z,0,0.004,,,,,,,,0.004,0,,,,,,134,WORD,UN,33,import,STAPLE,m,,,,,,1.172222222,-0.091666667,0,0,0,,0,242,242,133,1
,,,,,,,,,,,,,,,,,,999,2020-11-26_10h16.32.037,lexical_decision_task_MP_exp2,2020.2.5,Win32,60,m,1,0.085,,,,,,,,0.085,1,,,,,,123,WORD,UN,33,enough,STRIKE,m,,,,,,1.172222222,-0.091666667,0,0,0,,0,243,243,122,1
,,,,,,,,,,,,,,,,,,999,2020-11-26_10h16.32.037,lexical_decision_task_MP_exp2,2020.2.5,Win32,60,z,0,0.034,,,,,,,,0.034,0,,,,,,172,WORD,UN,33,shower,PATROL,m,,,,,,1.172222222,-0.091666667,0,0,0,,0,244,244,171,1
,,,,,,,,,,,,,,,,,,999,2020-11-26_10h16.32.037,lexical_decision_task_MP_exp2,2020.2.5,Win32,60,m,0,0.001,,,,,,,,0.001,0,,,,,,432,NW,UN,16,drance,LUNKER,z,,,,,,1.172222222,-0.091666667,0,0,0,,0,245,245,431,1
,,,,,,,,,,,,,,,,,,999,2020-11-26_10h16.32.037,lexical_decision_task_MP_exp2,2020.2.5,Win32,60,z,0,0.076,,,,,,,,0.076,0,,,,,,90,WORD,"ID",16,relish,RELISH,m,,,,,,1.172222222,-0.091666667,0,0,0,,0,246,246,89,1
,,,,,,,,,,,,,,,,,,999,2020-11-26_10h16.32.037,lexical_decision_task_MP_exp2,2020.2.5,Win32,60,m,1,0.051,,,,,,,,0.051,1,,,,,,129,WORD,UN,33,stupid,MARVEL,m,,,,,,1.172222222,-0.091666667,0,0,0,,0,247,247,128,1
,,,,,,,,,,,,,,,,,,999,2020-11-26_10h16.32.037,lexical_decision_task_MP_exp2,2020.2.5,Win32,60,z,1,0.049,,,,,,,,0.049,1,,,,,,459,NW,UN,16,mingar,BAFENT,z,,,,,,1.172222222,-0.091666667,0,0,0,,0,248,248,458,1
,,,,,,,,,,,,,,,,,,999,2020-11-26_10h16.32.037,lexical_decision_task_MP_exp2,2020.2.5,Win32,60,m,0,0.083,,,,,,,,0.083,0,,,,,,318,NW,"ID",16,reagly,REAGLY,z,,,,,,1.172222222,-0.091666667,0,0,0,,0,249,249,317,1
,,,,,,,,,,,,,,,,,,999,2020-11-26_10h16.32.037,lexical_decision_task_MP_exp2,2020.2.5,Win32,60,z,0,0.099,,,,,,,,0.099,0,,,,,,153,WORD,UN,33,author,BEHOLD,m,,,,,,1.172222222,-0.091666667,0,0,0,,0,250,250,152,1
,,,,,,,,,,,,,,,,,,999,2020-11-26_10h16.32.037,lexical_decision_task_MP_exp2,2020.2.5,Win32,60,z,1,0.233,,,,,,,,0.233,1,,,,,,357,NW,"ID",16,derain,DERAIN,z,,,,,,1.172222222,-0.091666667,0,0,0,,0,251,251,356,1
,,,,,,,,,,,,,,,,,,999,2020-11-26_10h16.32.037,lexical_decision_task_MP_exp2,2020.2.5,Win32,60,m,1,0.287,,,,,,,,0.287,1,,,,,,119,WORD,"ID",16,spider,SPIDER,m,,,,,,1.172222222,-0.091666667,0,0,0,,0,252,252,118,1
,,,,,,,,,,,,,,,,,,999,2020-11-26_10h16.32.037,lexical_decision_task_MP_exp2,2020.2.5,Win32,60,m,1,0.501,,,,,,,,0.501,1,,,,,,97,WORD,"ID",16,client,CLIENT,m,,,,,,1.172222222,-0.091666667,0,0,0,,0,253,253,96,1
,,,,,,,,,,,,,,,,,,999,2020-11-26_10h16.32.037,lexical_decision_task_MP_exp2,2020.2.5,Win32,60,m,0,0.264,,,,,,,,0.264,0,,,,,,284,NW,"ID",33,shaple,SHAPLE,z,,,,,,1.172222222,-0.091666667,0,0,0,,0,254,254,283,1
,,,,,,,,,,,,,,,,,,999,2020-11-26_10h16.32.037,lexical_decision_task_MP_exp2,2020.2.5,Win32,60,z,1,0.146,,,,,,,,0.146,1,,,,,,413,NW,UN,33,serbol,EQUATS,z,,,,,,1.172222222,-0.091666667,0,0,0,,0,255,255,412,1
,,,,,,,,,,,,,,,,,,999,2020-11-26_10h16.32.037,lexical_decision_task_MP_exp2,2020.2.5,Win32,60,z,1,0.218,,,,,,,,0.218,1,,,,,,448,NW,UN,16,brunge,SADENT,z,,,,,,1.172222222,-0.091666667,0,0,0,,0,256,256,447,1
,,,,,,,,,,,,,,,,,,999,2020-11-26_10h16.32.037,lexical_decision_task_MP_exp2,2020.2.5,Win32,60,m,0,0.468,,,,,,,,0.468,0,,,,,,306,NW,"ID",16,sounge,SOUNGE,z,,,,,,1.172222222,-0.091666667,0,0,0,,0,257,257,305,1
,,,,,,,,,,,,,,,,,,999,2020-11-26_10h16.32.037,lexical_decision_task_MP_exp2,2020.2.5,Win32,60,z,1,0.651,,,,,,,,0.651,1,,,,,,425,NW,UN,16,schind,FRUDGE,z,,,,,,1.172222222,-0.091666667,0,0,0,,0,258,258,424,1
,,,,,,,,,,,,,,,,,,999,2020-11-26_10h16.32.037,lexical_decision_task_MP_exp2,2020.2.5,Win32,60,m,1,0.1,,,,,,,,0.1,1,,,,,,39,WORD,"ID",33,insect,INSECT,m,,,,,,1.172222222,-0.091666667,0,0,0,,0,259,259,38,1
,,,,,,,,,,,,,,,,,,999,2020-11-26_10h16.32.037,lexical_decision_task_MP_exp2,2020.2.5,Win32,60,m,0,0.578,,,,,,,,0.578,0,,,,,,391,NW,UN,33,rouncy,THELDY,z,,,,,,1.172222222,-0.091666667,0,0,0,,0,260,260,390,1
,,,,,,,,,,,,,,,,,,999,2020-11-26_10h16.32.037,lexical_decision_task_MP_exp2,2020.2.5,Win32,60,z,0,0.001,,,,,,,,0.001,0,,,,,,221,WORD,UN,16,hinder,MASCOT,m,,,,,,1.172222222,-0.091666667,0,0,0,,0,261,261,220,1
,,,,,,,,,,,,,,,,,,999,2020-11-26_10h16.32.037,lexical_decision_task_MP_exp2,2020.2.5,Win32,60,z,1,0.616,,,,,,,,0.616,1,,,,,,335,NW,"ID",16,desion,DESION,z,,,,,,1.172222222,-0.091666667,0,0,0,,0,262,262,334,1
,,,,,,,,,,,,,,,,,,999,2020-11-26_10h16.32.037,lexical_decision_task_MP_exp2,2020.2.5,Win32,60,z,0,0.564,,,,,,,,0.564,0,,,,,,34,WORD,"ID",33,jungle,JUNGLE,m,,,,,,1.172222222,-0.091666667,0,0,0,,0,263,263,33,1
,,,,,,,,,,,,,,,,,,999,2020-11-26_10h16.32.037,lexical_decision_task_MP_exp2,2020.2.5,Win32,60,z,0,0.33,,,,,,,,0.33,0,,,,,,21,WORD,"ID",33,simple,SIMPLE,m,,,,,,1.172222222,-0.091666667,0,0,0,,0,264,264,20,1
,,,,,,,,,,,,,,,,,,999,2020-11-26_10h16.32.037,lexical_decision_task_MP_exp2,2020.2.5,Win32,60,z,0,1.168,,,,,,,,1.168,0,,,,,,71,WORD,"ID",16,garden,GARDEN,m,,,,,,1.172222222,-0.091666667,0,0,0,,0,265,265,70,1
,,,,,,,,,,,,,,,,,,999,2020-11-26_10h16.32.037,lexical_decision_task_MP_exp2,2020.2.5,Win32,60,m,0,0.067,,,,,,,,0.067,0,,,,,,354,NW,"ID",16,virlex,VIRLEX,z,,,,,,1.172222222,-0.091666667,0,0,0,,0,266,266,353,1
,,,,,,,,,,,,,,,,,,999,2020-11-26_10h16.32.037,lexical_decision_task_MP_exp2,2020.2.5,Win32,60,z,1,0.383,,,,,,,,0.383,1,,,,,,342,NW,"ID",16,randow,RANDOW,z,,,,,,1.172222222,-0.091666667,0,0,0,,0,267,267,341,1
,,,,,,,,,,,,,,,,,,999,2020-11-26_10h16.32.037,lexical_decision_task_MP_exp2,2020.2.5,Win32,60,z,0,0.534,,,,,,,,0.534,0,,,,,,165,WORD,UN,33,starch,INVEST,m,,,,,,1.172222222,-0.091666667,0,0,0,,0,268,268,164,1
,,,,,,,,,,,,,,,,,,999,2020-11-26_10h16.32.037,lexical_decision_task_MP_exp2,2020.2.5,Win32,60,z,1,1.952,,,,,,,,1.952,1,,,,,,294,NW,"ID",33,inhort,INHORT,z,,,,,,1.172222222,-0.091666667,0,0,0,,0,269,269,293,1
,,,,,,,,,,,,,,,,,,999,2020-11-26_10h16.32.037,lexical_decision_task_MP_exp2,2020.2.5,Win32,60,z,0,0.383,,,,,,,,0.383,0,,,,,,232,WORD,UN,16,nature,INJECT,m,,,,,,1.172222222,-0.091666667,0,0,0,,0,270,270,231,1
,,,,,,,,,,,,,,,,,,999,2020-11-26_10h16.32.037,lexical_decision_task_MP_exp2,2020.2.5,Win32,60,z,0,0.698,,,,,,,,0.698,0,,,,,,14,WORD,"ID",33,almost,ALMOST,m,,,,,,1.172222222,-0.091666667,0,0,0,,0,271,271,13,1
,,,,,,,,,,,,,,,,,,999,2020-11-26_10h16.32.037,lexical_decision_task_MP_exp2,2020.2.5,Win32,60,z,0,0.416,,,,,,,,0.416,0,,,,,,133,WORD,UN,33,debris,CHROME,m,,,,,,1.172222222,-0.091666667,0,0,0,,0,272,272,132,1
,,,,,,,,,,,,,,,,,,999,2020-11-26_10h16.32.037,lexical_decision_task_MP_exp2,2020.2.5,Win32,60,z,0,0.515,,,,,,,,0.515,0,,,,,,173,WORD,UN,33,turkey,SHOWER,m,,,,,,1.172222222,-0.091666667,0,0,0,,0,273,273,172,1
,,,,,,,,,,,,,,,,,,999,2020-11-26_10h16.32.037,lexical_decision_task_MP_exp2,2020.2.5,Win32,60,z,0,0.231,,,,,,,,0.231,0,,,,,,6,WORD,"ID",33,bundle,BUNDLE,m,,,,,,1.172222222,-0.091666667,0,0,0,,0,274,274,5,1
,,,,,,,,,,,,,,,,,,999,2020-11-26_10h16.32.037,lexical_decision_task_MP_exp2,2020.2.5,Win32,60,,0,,,,,,,,,0.231,-1,,,,,,66,WORD,"ID",16,gospel,GOSPEL,m,,,,,,1.172222222,-0.091666667,0,0,0,,0,275,275,65,1
,,,,,,,,,,,,,,,,,,999,2020-11-26_10h16.32.037,lexical_decision_task_MP_exp2,2020.2.5,Win32,60,,0,,,,,,,,,0.231,-1,,,,,,292,NW,"ID",33,ablint,ABLINT,z,,,,,,1.172222222,-0.091666667,0,0,0,,0,276,276,291,1
,,,,,,,,,,,,,,,,,,999,2020-11-26_10h16.32.037,lexical_decision_task_MP_exp2,2020.2.5,Win32,60,,0,,,,,,,,,0.231,-1,,,,,,382,NW,UN,33,aungre,SARLEY,z,,,,,,1.172222222,-0.091666667,0,0,0,,0,277,277,381,1
,,,,,,,,,,,,,,,,,,999,2020-11-26_10h16.32.037,lexical_decision_task_MP_exp2,2020.2.5,Win32,60,,0,,,,,,,,,0.231,-1,,,,,,38,WORD,"ID",33,powder,POWDER,m,,,,,,1.172222222,-0.091666667,0,0,0,,0,278,278,37,1
,,,,,,,,,,,,,,,,,,999,2020-11-26_10h16.32.037,lexical_decision_task_MP_exp2,2020.2.5,Win32,60,,0,,,,,,,,,0.231,-1,,,,,,343,NW,"ID",16,aimosy,AIMOSY,z,,,,,,1.172222222,-0.091666667,0,0,0,,0,279,279,342,1
,,,,,,,,,,,,,,,,,,999,2020-11-26_10h16.32.037,lexical_decision_task_MP_exp2,2020.2.5,Win32,60,z,0,0.13,,,,,,,,0.13,0,,,,,,53,WORD,"ID",33,police,POLICE,m,,,,,,1.172222222,-0.091666667,0,0,0,,0,280,280,52,1
,,,,,,,,,,,,,,,,,,999,2020-11-26_10h16.32.037,lexical_decision_task_MP_exp2,2020.2.5,Win32,60,m,1,0.75,,,,,,,,0.75,1,,,,,,85,WORD,"ID",16,sprawl,SPRAWL,m,,,,,,1.172222222,-0.091666667,0,0,0,,0,281,281,84,1
,,,,,,,,,,,,,,,,,,999,2020-11-26_10h16.32.037,lexical_decision_task_MP_exp2,2020.2.5,Win32,60,m,0,0.631,,,,,,,,0.631,0,,,,,,477,NW,UN,16,acrise,PHOTIE,z,,,,,,1.172222222,-0.091666667,0,0,0,,0,282,282,476,1
,,,,,,,,,,,,,,,,,,999,2020-11-26_10h16.32.037,lexical_decision_task_MP_exp2,2020.2.5,Win32,60,m,0,0.363,,,,,,,,0.363,0,,,,,,465,NW,UN,16,hocite,WHIVEX,z,,,,,,1.172222222,-0.091666667,0,0,0,,0,283,283,464,1
,,,,,,,,,,,,,,,,,,999,2020-11-26_10h16.32.037,lexical_decision_task_MP_exp2,2020.2.5,Win32,60,m,0,0.283,,,,,,,,0.283,0,,,,,,287,NW,"ID",33,nymbel,NYMBEL,z,,,,,,1.172222222,-0.091666667,0,0,0,,0,284,284,286,1
,,,,,,,,,,,,,,,,,,999,2020-11-26_10h16.32.037,lexical_decision_task_MP_exp2,2020.2.5,Win32,60,m,1,1.729,,,,,,,,1.729,1,,,,,,78,WORD,"ID",16,column,COLUMN,m,,,,,,1.172222222,-0.091666667,0,0,0,,0,285,285,77,1
,,,,,,,,,,,,,,,,,,999,2020-11-26_10h16.32.037,lexical_decision_task_MP_exp2,2020.2.5,Win32,60,,0,,,,,,,,,1.729,-1,,,,,,349,NW,"ID",16,asylen,ASYLEN,z,,,,,,1.172222222,-0.091666667,0,0,0,,0,286,286,348,1
,,,,,,,,,,,,,,,,,,999,2020-11-26_10h16.32.037,lexical_decision_task_MP_exp2,2020.2.5,Win32,60,,0,,,,,,,,,1.729,-1,,,,,,429,NW,UN,16,caroey,FUNTLE,z,,,,,,-0.625,-0.156481481,0,0,0,,0,287,287,428,1
,,,,,,,,,,,,,,,,,,999,2020-11-26_10h16.32.037,lexical_decision_task_MP_exp2,2020.2.5,Win32,60,,0,,,,,,,,,1.729,-1,,,,,,175,WORD,UN,33,strife,FABRIC,m,,,,,,-1.183333333,-0.289814815,0,0,0,,0,288,288,174,1
,,,,,,,,,,,,,,,,,,999,2020-11-26_10h16.32.037,lexical_decision_task_MP_exp2,2020.2.5,Win32,60,,0,,,,,,,,,1.729,-1,,,,,,149,WORD,UN,33,random,INVADE,m,,,,,,1.168518519,-0.001851852,0,0,0,,0,289,289,148,1
,,,,,,,,,,,,,,,,,,999,2020-11-26_10h16.32.037,lexical_decision_task_MP_exp2,2020.2.5,Win32,60,,0,,,,,,,,,1.729,-1,,,,,,480,NW,UN,16,knisma,ROBULY,z,,,,,,1.168518519,-0.001851852,0,0,0,,0,290,290,479,1
,,,,,,,,,,,,,,,,,,999,2020-11-26_10h16.32.037,lexical_decision_task_MP_exp2,2020.2.5,Win32,60,,0,,,,,,,,,1.729,-1,,,,,,352,NW,"ID",16,tringe,TRINGE,z,,,,,,1.168518519,-0.001851852,0,0,0,,0,291,291,351,1
,,,,,,,,,,,,,,,,,,999,2020-11-26_10h16.32.037,lexical_decision_task_MP_exp2,2020.2.5,Win32,60,,0,,,,,,,,,1.729,-1,,,,,,296,NW,"ID",33,beinch,BEINCH,z,,,,,,1.168518519,-0.001851852,0,0,0,,0,292,292,295,1
,,,,,,,,,,,,,,,,,,999,2020-11-26_10h16.32.037,lexical_decision_task_MP_exp2,2020.2.5,Win32,60,,0,,,,,,,,,1.729,-1,,,,,,215,WORD,UN,16,behalf,PHOBIA,m,,,,,,1.168518519,-0.001851852,0,0,0,,0,293,293,214,1
,,,,,,,,,,,,,,,,,,999,2020-11-26_10h16.32.037,lexical_decision_task_MP_exp2,2020.2.5,Win32,60,,0,,,,,,,,,1.729,-1,,,,,,31,WORD,"ID",33,weapon,WEAPON,m,,,,,,1.168518519,-0.001851852,0,0,0,,0,294,294,30,1
,,,,,,,,,,,,,,,,,,999,2020-11-26_10h16.32.037,lexical_decision_task_MP_exp2,2020.2.5,Win32,60,,0,,,,,,,,,1.729,-1,,,,,,474,NW,UN,16,gorbie,HABLIN,z,,,,,,1.168518519,-0.001851852,0,0,0,,0,295,295,473,1
,,,,,,,,,,,,,,,,,,999,2020-11-26_10h16.32.037,lexical_decision_task_MP_exp2,2020.2.5,Win32,60,,0,,,,,,,,,1.729,-1,,,,,,190,WORD,UN,16,stable,BACKUP,m,,,,,,1.168518519,-0.001851852,0,0,0,,0,296,296,189,1
,,,,,,,,,,,,,,,,,,999,2020-11-26_10h16.32.037,lexical_decision_task_MP_exp2,2020.2.5,Win32,60,,0,,,,,,,,,1.729,-1,,,,,,138,WORD,UN,33,staple,MELODY,m,,,,,,1.168518519,-0.001851852,0,0,0,,0,297,297,137,1
,,,,,,,,,,,,,,,,,,999,2020-11-26_10h16.32.037,lexical_decision_task_MP_exp2,2020.2.5,Win32,60,,0,,,,,,,,,1.729,-1,,,,,,205,WORD,UN,16,tailor,LOUNGE,m,,,,,,1.168518519,-0.001851852,0,0,0,,0,298,298,204,1
,,,,,,,,,,,,,,,,,,999,2020-11-26_10h16.32.037,lexical_decision_task_MP_exp2,2020.2.5,Win32,60,,0,,,,,,,,,1.729,-1,,,,,,456,NW,UN,16,wanigh,BROGET,z,,,,,,1.168518519,-0.001851852,0,0,0,,0,299,299,455,1
,,,,,,,,,,,,,,,,,,999,2020-11-26_10h16.32.037,lexical_decision_task_MP_exp2,2020.2.5,Win32,60,,0,,,,,,,,,1.729,-1,,,,,,473,NW,UN,16,hablin,CRIBLE,z,,,,,,0.659259259,-0.356481481,0,0,0,,0,300,300,472,1
,,,,,,,,,,,,,,,,,,999,2020-11-26_10h16.32.037,lexical_decision_task_MP_exp2,2020.2.5,Win32,60,m,1,0.326,,,,,,,,0.326,1,,,,,,214,WORD,UN,16,phobia,INTAKE,m,,,,,,0.67962963,-0.380555556,0,0,0,,0,301,301,213,1
,,,,,,,,,,,,,,,,,,999,2020-11-26_10h16.32.037,lexical_decision_task_MP_exp2,2020.2.5,Win32,60,m,1,1.082,,,,,,,,1.082,1,,,,,,91,WORD,"ID",16,expand,EXPAND,m,,,,,,0.67962963,-0.380555556,0,0,0,,0,302,302,90,1
,,,,,,,,,,,,,,,,,,999,2020-11-26_10h16.32.037,lexical_decision_task_MP_exp2,2020.2.5,Win32,60,m,1,0.132,,,,,,,,0.132,1,,,,,,203,WORD,UN,16,burden,PHRASE,m,,,,,,0.67962963,-0.380555556,0,0,0,,0,303,303,202,1
,,,,,,,,,,,,,,,,,,999,2020-11-26_10h16.32.037,lexical_decision_task_MP_exp2,2020.2.5,Win32,60,z,0,0.221,,,,,,,,0.221,0,,,,,,174,WORD,UN,33,fabric,TURKEY,m,,,,,,0.67962963,-0.380555556,0,0,0,,0,304,304,173,1
,,,,,,,,,,,,,,,,,,999,2020-11-26_10h16.32.037,lexical_decision_task_MP_exp2,2020.2.5,Win32,60,z,0,0.021,,,,,,,,0.021,0,,,,,,80,WORD,"ID",16,family,FAMILY,m,,,,,,0.67962963,-0.380555556,0,0,0,,0,305,305,79,1
,,,,,,,,,,,,,,,,,,999,2020-11-26_10h16.32.037,lexical_decision_task_MP_exp2,2020.2.5,Win32,60,m,1,0.084,,,,,,,,0.084,1,,,,,,147,WORD,UN,33,custom,GARLIC,m,,,,,,0.67962963,-0.380555556,0,0,0,,0,306,306,146,1
,,,,,,,,,,,,,,,,,,999,2020-11-26_10h16.32.037,lexical_decision_task_MP_exp2,2020.2.5,Win32,60,z,1,0.034,,,,,,,,0.034,1,,,,,,285,NW,"ID",33,prudge,PRUDGE,z,,,,,,0.67962963,-0.380555556,0,0,0,,0,307,307,284,1
,,,,,,,,,,,,,,,,,,999,2020-11-26_10h16.32.037,lexical_decision_task_MP_exp2,2020.2.5,Win32,60,z,1,0.131,,,,,,,,0.131,1,,,,,,272,NW,"ID",33,damilt,DAMILT,z,,,,,,0.67962963,-0.380555556,0,0,0,,0,308,308,271,1
,,,,,,,,,,,,,,,,,,999,2020-11-26_10h16.32.037,lexical_decision_task_MP_exp2,2020.2.5,Win32,60,z,1,0.417,,,,,,,,0.417,1,,,,,,317,NW,"ID",16,worbal,WORBAL,z,,,,,,0.67962963,-0.380555556,0,0,0,,0,309,309,316,1
,,,,,,,,,,,,,,,,,,999,2020-11-26_10h16.32.037,lexical_decision_task_MP_exp2,2020.2.5,Win32,60,z,1,0.113,,,,,,,,0.113,1,,,,,,385,NW,UN,33,ancust,VEIGMA,z,,,,,,0.67962963,-0.380555556,0,0,0,,0,310,310,384,1
,,,,,,,,,,,,,,,,,,999,2020-11-26_10h16.32.037,lexical_decision_task_MP_exp2,2020.2.5,Win32,60,z,0,0.717,,,,,,,,0.717,0,,,,,,32,WORD,"ID",33,buckle,BUCKLE,m,,,,,,0.67962963,-0.380555556,0,0,0,,0,311,311,31,1
,,,,,,,,,,,,,,,,,,999,2020-11-26_10h16.32.037,lexical_decision_task_MP_exp2,2020.2.5,Win32,60,z,0,0.401,,,,,,,,0.401,0,,,,,,127,WORD,UN,33,senior,CASTLE,m,,,,,,0.67962963,-0.380555556,0,0,0,,0,312,312,126,1
,,,,,,,,,,,,,,,,,,999,2020-11-26_10h16.32.037,lexical_decision_task_MP_exp2,2020.2.5,Win32,60,z,1,0.437,,,,,,,,0.437,1,,,,,,326,NW,"ID",16,iguade,IGUADE,z,,,,,,0.67962963,-0.380555556,0,0,0,,0,313,313,325,1
,,,,,,,,,,,,,,,,,,999,2020-11-26_10h16.32.037,lexical_decision_task_MP_exp2,2020.2.5,Win32,60,m,1,0.301,,,,,,,,0.301,1,,,,,,200,WORD,UN,16,admire,BEACON,m,,,,,,0.67962963,-0.380555556,0,0,0,,0,314,314,199,1
,,,,,,,,,,,,,,,,,,999,2020-11-26_10h16.32.037,lexical_decision_task_MP_exp2,2020.2.5,Win32,60,z,0,0.282,,,,,,,,0.282,0,,,,,,88,WORD,"ID",16,hunger,HUNGER,m,,,,,,0.67962963,-0.380555556,0,0,0,,0,315,315,87,1
,,,,,,,,,,,,,,,,,,999,2020-11-26_10h16.32.037,lexical_decision_task_MP_exp2,2020.2.5,Win32,60,z,0,0.111,,,,,,,,0.111,0,,,,,,184,WORD,UN,16,bother,SLEAZY,m,,,,,,0.67962963,-0.380555556,0,0,0,,0,316,316,183,1
,,,,,,,,,,,,,,,,,,999,2020-11-26_10h16.32.037,lexical_decision_task_MP_exp2,2020.2.5,Win32,60,z,0,0.105,,,,,,,,0.105,0,,,,,,95,WORD,"ID",16,thread,THREAD,m,,,,,,0.67962963,-0.380555556,0,0,0,,0,317,317,94,1
,,,,,,,,,,,,,,,,,,999,2020-11-26_10h16.32.037,lexical_decision_task_MP_exp2,2020.2.5,Win32,60,z,0,0.067,,,,,,,,0.067,0,,,,,,28,WORD,"ID",33,comedy,COMEDY,m,,,,,,0.67962963,-0.380555556,0,0,0,,0,318,318,27,1
,,,,,,,,,,,,,,,,,,999,2020-11-26_10h16.32.037,lexical_decision_task_MP_exp2,2020.2.5,Win32,60,z,1,0.136,,,,,,,,0.136,1,,,,,,377,NW,UN,33,shrile,INJORE,z,,,,,,0.67962963,-0.380555556,0,0,0,,0,319,319,376,1
,,,,,,,,,,,,,,,,,,999,2020-11-26_10h16.32.037,lexical_decision_task_MP_exp2,2020.2.5,Win32,60,z,1,0.402,,,,,,,,0.402,1,,,,,,469,NW,UN,16,crudio,PADIFS,z,,,,,,0.67962963,-0.380555556,0,0,0,,0,320,320,468,1
,,,,,,,,,,,,,,,,,,999,2020-11-26_10h16.32.037,lexical_decision_task_MP_exp2,2020.2.5,Win32,60,z,1,0.149,,,,,,,,0.149,1,,,,,,261,NW,"ID",33,stunch,STUNCH,z,,,,,,0.67962963,-0.380555556,0,0,0,,0,321,321,260,1
,,,,,,,,,,,,,,,,,,999,2020-11-26_10h16.32.037,lexical_decision_task_MP_exp2,2020.2.5,Win32,60,m,0,0.001,,,,,,,,0.001,0,,,,,,257,NW,"ID",33,veniod,VENIOD,z,,,,,,0.67962963,-0.380555556,0,0,0,,0,322,322,256,1
,,,,,,,,,,,,,,,,,,999,2020-11-26_10h16.32.037,lexical_decision_task_MP_exp2,2020.2.5,Win32,60,z,0,0.032,,,,,,,,0.032,0,,,,,,64,WORD,"ID",16,throne,THRONE,m,,,,,,0.67962963,-0.380555556,0,0,0,,0,323,323,63,1
,,,,,,,,,,,,,,,,,,999,2020-11-26_10h16.32.037,lexical_decision_task_MP_exp2,2020.2.5,Win32,60,z,1,0.068,,,,,,,,0.068,1,,,,,,336,NW,"ID",16,ghodus,GHODUS,z,,,,,,0.67962963,-0.380555556,0,0,0,,0,324,324,335,1
,,,,,,,,,,,,,,,,,,999,2020-11-26_10h16.32.037,lexical_decision_task_MP_exp2,2020.2.5,Win32,60,z,0,0.184,,,,,,,,0.184,0,,,,,,179,WORD,UN,33,silent,BASKET,m,,,,,,0.67962963,-0.380555556,0,0,0,,0,325,325,178,1
,,,,,,,,,,,,,,,,,,999,2020-11-26_10h16.32.037,lexical_decision_task_MP_exp2,2020.2.5,Win32,60,z,0,0.133,,,,,,,,0.133,0,,,,,,108,WORD,"ID",16,reckon,RECKON,m,,,,,,0.67962963,-0.380555556,0,0,0,,0,326,326,107,1
,,,,,,,,,,,,,,,,,,999,2020-11-26_10h16.32.037,lexical_decision_task_MP_exp2,2020.2.5,Win32,60,z,1,0.206,,,,,,,,0.206,1,,,,,,264,NW,"ID",33,vackel,VACKEL,z,,,,,,0.67962963,-0.380555556,0,0,0,,0,327,327,263,1
,,,,,,,,,,,,,,,,,,999,2020-11-26_10h16.32.037,lexical_decision_task_MP_exp2,2020.2.5,Win32,60,z,1,0.638,,,,,,,,0.638,1,,,,,,479,NW,UN,16,josted,LOBUSH,z,,,,,,0.67962963,-0.380555556,0,0,0,,0,328,328,478,1
,,,,,,,,,,,,,,,,,,999,2020-11-26_10h16.32.037,lexical_decision_task_MP_exp2,2020.2.5,Win32,60,z,0,0.055,,,,,,,,0.055,0,,,,,,93,WORD,"ID",16,public,PUBLIC,m,,,,,,0.67962963,-0.380555556,0,0,0,,0,329,329,92,1
,,,,,,,,,,,,,,,,,,999,2020-11-26_10h16.32.037,lexical_decision_task_MP_exp2,2020.2.5,Win32,60,z,1,1.112,,,,,,,,1.112,1,,,,,,404,NW,UN,33,syntic,CLUIRM,z,,,,,,0.67962963,-0.380555556,0,0,0,,0,330,330,403,1
,,,,,,,,,,,,,,,,,,999,2020-11-26_10h16.32.037,lexical_decision_task_MP_exp2,2020.2.5,Win32,60,z,0,0.071,,,,,,,,0.071,0,,,,,,110,WORD,"ID",16,polite,POLITE,m,,,,,,0.67962963,-0.380555556,0,0,0,,0,331,331,109,1
,,,,,,,,,,,,,,,,,,999,2020-11-26_10h16.32.037,lexical_decision_task_MP_exp2,2020.2.5,Win32,60,z,0,0.167,,,,,,,,0.167,0,,,,,,223,WORD,UN,16,period,KIDNEY,m,,,,,,0.67962963,-0.380555556,0,0,0,,0,332,332,222,1
,,,,,,,,,,,,,,,,,,999,2020-11-26_10h16.32.037,lexical_decision_task_MP_exp2,2020.2.5,Win32,60,z,1,0.168,,,,,,,,0.168,1,,,,,,439,NW,UN,16,saride,LIMPOR,z,,,,,,0.67962963,-0.380555556,0,0,0,,0,333,333,438,1
,,,,,,,,,,,,,,,,,,999,2020-11-26_10h16.32.037,lexical_decision_task_MP_exp2,2020.2.5,Win32,60,z,0,0.801,,,,,,,,0.801,0,,,,,,191,WORD,UN,16,absent,STABLE,m,,,,,,0.67962963,-0.380555556,0,0,0,,0,334,334,190,1
,,,,,,,,,,,,,,,,,,999,2020-11-26_10h16.32.037,lexical_decision_task_MP_exp2,2020.2.5,Win32,60,z,1,0.134,,,,,,,,0.134,1,,,,,,246,NW,"ID",33,piaton,PIATON,z,,,,,,0.67962963,-0.380555556,0,0,0,,0,335,335,245,1
,,,,,,,,,,,,,,,,,,999,2020-11-26_10h16.32.037,lexical_decision_task_MP_exp2,2020.2.5,Win32,60,z,1,0.167,,,,,,,,0.167,1,,,,,,368,NW,UN,33,wronch,HORNAL,z,,,,,,0.67962963,-0.380555556,0,0,0,,0,336,336,367,1
,,,,,,,,,,,,,,,,,,999,2020-11-26_10h16.32.037,lexical_decision_task_MP_exp2,2020.2.5,Win32,60,z,0,0.146,,,,,,,,0.146,0,,,,,,201,WORD,UN,16,factor,ADMIRE,m,,,,,,0.67962963,-0.380555556,0,0,0,,0,337,337,200,1
,,,,,,,,,,,,,,,,,,999,2020-11-26_10h16.32.037,lexical_decision_task_MP_exp2,2020.2.5,Win32,60,z,0,0.134,,,,,,,,0.134,0,,,,,,18,WORD,"ID",33,humble,HUMBLE,m,,,,,,0.67962963,-0.380555556,0,0,0,,0,338,338,17,1
,,,,,,,,,,,,,,,,,,999,2020-11-26_10h16.32.037,lexical_decision_task_MP_exp2,2020.2.5,Win32,60,z,0,0.053,,,,,,,,0.053,0,,,,,,160,WORD,UN,33,dragon,VIOLET,m,,,,,,0.67962963,-0.380555556,0,0,0,,0,339,339,159,1
,,,,,,,,,,,,,,,,,,999,2020-11-26_10h16.32.037,lexical_decision_task_MP_exp2,2020.2.5,Win32,60,z,0,0.367,,,,,,,,0.367,0,,,,,,163,WORD,UN,33,market,STRING,m,,,,,,0.67962963,-0.380555556,0,0,0,,0,340,340,162,1
,,,,,,,,,,,,,,,,,,999,2020-11-26_10h16.32.037,lexical_decision_task_MP_exp2,2020.2.5,Win32,60,m,1,0.385,,,,,,,,0.385,1,,,,,,101,WORD,"ID",16,wrench,WRENCH,m,,,,,,0.67962963,-0.380555556,0,0,0,,0,341,341,100,1
,,,,,,,,,,,,,,,,,,999,2020-11-26_10h16.32.037,lexical_decision_task_MP_exp2,2020.2.5,Win32,60,m,0,0.218,,,,,,,,0.218,0,,,,,,267,NW,"ID",33,pasink,PASINK,z,,,,,,0.67962963,-0.380555556,0,0,0,,0,342,342,266,1
,,,,,,,,,,,,,,,,,,999,2020-11-26_10h16.32.037,lexical_decision_task_MP_exp2,2020.2.5,Win32,60,z,0,0.765,,,,,,,,0.765,0,,,,,,2,WORD,"ID",33,bridge,BRIDGE,m,,,,,,0.67962963,-0.380555556,0,0,0,,0,343,343,1,1
,,,,,,,,,,,,,,,,,,999,2020-11-26_10h16.32.037,lexical_decision_task_MP_exp2,2020.2.5,Win32,60,m,0,0.133,,,,,,,,0.133,0,,,,,,338,NW,"ID",16,wreash,WREASH,z,,,,,,0.67962963,-0.380555556,0,0,0,,0,344,344,337,1
,,,,,,,,,,,,,,,,,,999,2020-11-26_10h16.32.037,lexical_decision_task_MP_exp2,2020.2.5,Win32,60,z,1,0.001,,,,,,,,0.001,1,,,,,,367,NW,UN,33,hornal,SLIQUE,z,,,,,,0.67962963,-0.380555556,0,0,0,,0,345,345,366,1
,,,,,,,,,,,,,,,,,,999,2020-11-26_10h16.32.037,lexical_decision_task_MP_exp2,2020.2.5,Win32,60,z,0,1.751,,,,,,,,1.751,0,,,,,,92,WORD,"ID",16,strand,STRAND,m,,,,,,0.67962963,-0.380555556,0,0,0,,0,346,346,91,1
,,,,,,,,,,,,,,,,,,999,2020-11-26_10h16.32.037,lexical_decision_task_MP_exp2,2020.2.5,Win32,60,z,0,0.136,,,,,,,,0.136,0,,,,,,84,WORD,"ID",16,mortal,MORTAL,m,,,,,,0.67962963,-0.380555556,0,0,0,,0,347,347,83,1
,,,,,,,,,,,,,,,,,,999,2020-11-26_10h16.32.037,lexical_decision_task_MP_exp2,2020.2.5,Win32,60,z,1,0.319,,,,,,,,0.319,1,,,,,,440,NW,UN,16,cainky,SARIDE,z,,,,,,0.67962963,-0.380555556,0,0,0,,0,348,348,439,1
,,,,,,,,,,,,,,,,,,999,2020-11-26_10h16.32.037,lexical_decision_task_MP_exp2,2020.2.5,Win32,60,z,0,0.315,,,,,,,,0.315,0,,,,,,144,WORD,UN,33,parish,SPONGE,m,,,,,,0.67962963,-0.380555556,0,0,0,,0,349,349,143,1
,,,,,,,,,,,,,,,,,,999,2020-11-26_10h16.32.037,lexical_decision_task_MP_exp2,2020.2.5,Win32,60,z,0,0.632,,,,,,,,0.632,0,,,,,,159,WORD,UN,33,violet,DETAIL,m,,,,,,0.67962963,-0.380555556,0,0,0,,0,350,350,158,1
,,,,,,,,,,,,,,,,,,999,2020-11-26_10h16.32.037,lexical_decision_task_MP_exp2,2020.2.5,Win32,60,z,0,0.633,,,,,,,,0.633,0,,,,,,207,WORD,UN,16,hockey,WREATH,m,,,,,,0.67962963,-0.380555556,0,0,0,,0,351,351,206,1
,,,,,,,,,,,,,,,,,,999,2020-11-26_10h16.32.037,lexical_decision_task_MP_exp2,2020.2.5,Win32,60,m,0,0.401,,,,,,,,0.401,0,,,,,,397,NW,UN,33,blunde,CAMBLE,z,,,,,,0.67962963,-0.380555556,0,0,0,,0,352,352,396,1
,,,,,,,,,,,,,,,,,,999,2020-11-26_10h16.32.037,lexical_decision_task_MP_exp2,2020.2.5,Win32,60,m,1,0.068,,,,,,,,0.068,1,,,,,,109,WORD,"ID",16,wonder,WONDER,m,,,,,,0.67962963,-0.380555556,0,0,0,,0,353,353,108,1
,,,,,,,,,,,,,,,,,,999,2020-11-26_10h16.32.037,lexical_decision_task_MP_exp2,2020.2.5,Win32,60,z,0,0.82,,,,,,,,0.82,0,,,,,,220,WORD,UN,16,mascot,VOYAGE,m,,,,,,0.67962963,-0.380555556,0,0,0,,0,354,354,219,1
,,,,,,,,,,,,,,,,,,999,2020-11-26_10h16.32.037,lexical_decision_task_MP_exp2,2020.2.5,Win32,60,z,1,0.786,,,,,,,,0.786,1,,,,,,344,NW,"ID",16,scrily,SCRILY,z,,,,,,0.67962963,-0.380555556,0,0,0,,0,355,355,343,1
,,,,,,,,,,,,,,,,,,999,2020-11-26_10h16.32.037,lexical_decision_task_MP_exp2,2020.2.5,Win32,60,z,1,0.634,,,,,,,,0.634,1,,,,,,416,NW,UN,33,earoud,PATHEL,z,,,,,,0.67962963,-0.380555556,0,0,0,,0,356,356,415,1
,,,,,,,,,,,,,,,,,,999,2020-11-26_10h16.32.037,lexical_decision_task_MP_exp2,2020.2.5,Win32,60,z,0,0.086,,,,,,,,0.086,0,,,,,,225,WORD,UN,16,kidney,VULGAR,m,,,,,,0.67962963,-0.380555556,0,0,0,,0,357,357,224,1
,,,,,,,,,,,,,,,,,,999,2020-11-26_10h16.32.037,lexical_decision_task_MP_exp2,2020.2.5,Win32,60,z,0,0.264,,,,,,,,0.264,0,,,,,,150,WORD,UN,33,mystic,RANDOM,m,,,,,,0.67962963,-0.380555556,0,0,0,,0,358,358,149,1
,,,,,,,,,,,,,,,,,,999,2020-11-26_10h16.32.037,lexical_decision_task_MP_exp2,2020.2.5,Win32,60,z,0,0.449,,,,,,,,0.449,0,,,,,,9,WORD,"ID",33,hustle,HUSTLE,m,,,,,,0.67962963,-0.380555556,0,0,0,,0,359,359,8,1
,,,,,,,,,,,,,,,,,,999,2020-11-26_10h16.32.037,lexical_decision_task_MP_exp2,2020.2.5,Win32,60,z,0,0.47,,,,,,,,0.47,0,,,,,,11,WORD,"ID",33,cruise,CRUISE,m,,,,,,0.67962963,-0.380555556,0,0,0,,0,360,360,10,1
,,,,,,,,,,,,,,,,,,999,2020-11-26_10h16.32.037,lexical_decision_task_MP_exp2,2020.2.5,Win32,60,z,0,0.417,,,,,,,,0.417,0,,,,,,224,WORD,UN,16,vulgar,PERIOD,m,,,,,,0.67962963,-0.380555556,0,0,0,,0,361,361,223,1
,,,,,,,,,,,,,,,,,,999,2020-11-26_10h16.32.037,lexical_decision_task_MP_exp2,2020.2.5,Win32,60,z,0,0.403,,,,,,,,0.403,0,,,,,,143,WORD,UN,33,sponge,REASON,m,,,,,,0.67962963,-0.380555556,0,0,0,,0,362,362,142,1
,,,,,,,,,,,,,,,,,,999,2020-11-26_10h16.32.037,lexical_decision_task_MP_exp2,2020.2.5,Win32,60,z,1,0.284,,,,,,,,0.284,1,,,,,,300,NW,"ID",33,yarion,YARION,z,,,,,,0.67962963,-0.380555556,0,0,0,,0,363,363,299,1
,,,,,,,,,,,,,,,,,,999,2020-11-26_10h16.32.037,lexical_decision_task_MP_exp2,2020.2.5,Win32,60,z,1,0.265,,,,,,,,0.265,1,,,,,,298,NW,"ID",33,piergy,PIERGY,z,,,,,,0.67962963,-0.380555556,0,0,0,,0,364,364,297,1
,,,,,,,,,,,,,,,,,,999,2020-11-26_10h16.32.037,lexical_decision_task_MP_exp2,2020.2.5,Win32,60,z,0,0.136,,,,,,,,0.136,0,,,,,,161,WORD,UN,33,candle,PASTOR,m,,,,,,0.67962963,-0.380555556,0,0,0,,0,365,365,160,1
,,,,,,,,,,,,,,,,,,999,2020-11-26_10h16.32.037,lexical_decision_task_MP_exp2,2020.2.5,Win32,60,z,1,0.035,,,,,,,,0.035,1,,,,,,270,NW,"ID",33,wrimsy,WRIMSY,z,,,,,,0.67962963,-0.380555556,0,0,0,,0,366,366,269,1
,,,,,,,,,,,,,,,,,,999,2020-11-26_10h16.32.037,lexical_decision_task_MP_exp2,2020.2.5,Win32,60,m,1,0.466,,,,,,,,0.466,1,,,,,,63,WORD,"ID",16,launch,LAUNCH,m,,,,,,0.67962963,-0.380555556,0,0,0,,0,367,367,62,1
,,,,,,,,,,,,,,,,,,999,2020-11-26_10h16.32.037,lexical_decision_task_MP_exp2,2020.2.5,Win32,60,m,1,0.182,,,,,,,,0.182,1,,,,,,130,WORD,UN,33,quench,STUPID,m,,,,,,0.67962963,-0.380555556,0,0,0,,0,368,368,129,1
,,,,,,,,,,,,,,,,,,999,2020-11-26_10h16.32.037,lexical_decision_task_MP_exp2,2020.2.5,Win32,60,m,0,0.036,,,,,,,,0.036,0,,,,,,375,NW,UN,33,iguare,YORQUE,z,,,,,,0.67962963,-0.380555556,0,0,0,,0,369,369,374,1
,,,,,,,,,,,,,,,,,,999,2020-11-26_10h16.32.037,lexical_decision_task_MP_exp2,2020.2.5,Win32,60,m,1,0.235,,,,,,,,0.235,1,,,,,,116,WORD,"ID",16,tumble,TUMBLE,m,,,,,,0.67962963,-0.380555556,0,0,0,,0,370,370,115,1
,,,,,,,,,,,,,,,,,,999,2020-11-26_10h16.32.037,lexical_decision_task_MP_exp2,2020.2.5,Win32,60,m,0,0.017,,,,,,,,0.017,0,,,,,,250,NW,"ID",33,milted,MILTED,z,,,,,,0.67962963,-0.380555556,0,0,0,,0,371,371,249,1
,,,,,,,,,,,,,,,,,,999,2020-11-26_10h16.32.037,lexical_decision_task_MP_exp2,2020.2.5,Win32,60,m,0,0.183,,,,,,,,0.183,0,,,,,,308,NW,"ID",16,psetch,PSETCH,z,,,,,,0.67962963,-0.380555556,0,0,0,,0,372,372,307,1
,,,,,,,,,,,,,,,,,,999,2020-11-26_10h16.32.037,lexical_decision_task_MP_exp2,2020.2.5,Win32,60,m,1,0.2,,,,,,,,0.2,1,,,,,,20,WORD,"ID",33,breast,BREAST,m,,,,,,0.67962963,-0.380555556,0,0,0,,0,373,373,19,1
,,,,,,,,,,,,,,,,,,999,2020-11-26_10h16.32.037,lexical_decision_task_MP_exp2,2020.2.5,Win32,60,m,1,0.168,,,,,,,,0.168,1,,,,,,152,WORD,UN,33,behold,ROCKET,m,,,,,,0.67962963,-0.380555556,0,0,0,,0,374,374,151,1
,,,,,,,,,,,,,,,,,,999,2020-11-26_10h16.32.037,lexical_decision_task_MP_exp2,2020.2.5,Win32,60,m,1,1.084,,,,,,,,1.084,1,,,,,,131,WORD,UN,33,strong,QUENCH,m,,,,,,0.67962963,-0.380555556,0,0,0,,0,375,375,130,1
,,,,,,,,,,,,,,,,,,999,2020-11-26_10h16.32.037,lexical_decision_task_MP_exp2,2020.2.5,Win32,60,m,0,0.001,,,,,,,,0.001,0,,,,,,259,NW,"ID",33,soudal,SOUDAL,z,,,,,,0.67962963,-0.380555556,0,0,0,,0,376,376,258,1
,,,,,,,,,,,,,,,,,,999,2020-11-26_10h16.32.037,lexical_decision_task_MP_exp2,2020.2.5,Win32,60,m,0,0.499,,,,,,,,0.499,0,,,,,,269,NW,"ID",33,orchet,ORCHET,z,,,,,,0.67962963,-0.380555556,0,0,0,,0,377,377,268,1
,,,,,,,,,,,,,,,,,,999,2020-11-26_10h16.32.037,lexical_decision_task_MP_exp2,2020.2.5,Win32,60,m,1,0.582,,,,,,,,0.582,1,,,,,,47,WORD,"ID",33,income,INCOME,m,,,,,,0.67962963,-0.380555556,0,0,0,,0,378,378,46,1
,,,,,,,,,,,,,,,,,,999,2020-11-26_10h16.32.037,lexical_decision_task_MP_exp2,2020.2.5,Win32,60,z,1,0.15,,,,,,,,0.15,1,,,,,,323,NW,"ID",16,rosail,ROSAIL,z,,,,,,0.67962963,-0.380555556,0,0,0,,0,379,379,322,1
,,,,,,,,,,,,,,,,,,999,2020-11-26_10h16.32.037,lexical_decision_task_MP_exp2,2020.2.5,Win32,60,m,0,0.217,,,,,,,,0.217,0,,,,,,457,NW,UN,16,barcet,WANIGH,z,,,,,,0.67962963,-0.380555556,0,0,0,,0,380,380,456,1
,,,,,,,,,,,,,,,,,,999,2020-11-26_10h16.32.037,lexical_decision_task_MP_exp2,2020.2.5,Win32,60,m,0,0.233,,,,,,,,0.233,0,,,,,,251,NW,"ID",33,lupict,LUPICT,z,,,,,,0.67962963,-0.380555556,0,0,0,,0,381,381,250,1
,,,,,,,,,,,,,,,,,,999,2020-11-26_10h16.32.037,lexical_decision_task_MP_exp2,2020.2.5,Win32,60,m,0,0.253,,,,,,,,0.253,0,,,,,,423,NW,UN,16,praile,STRELD,z,,,,,,0.67962963,-0.380555556,0,0,0,,0,382,382,422,1
,,,,,,,,,,,,,,,,,,999,2020-11-26_10h16.32.037,lexical_decision_task_MP_exp2,2020.2.5,Win32,60,m,1,0.034,,,,,,,,0.034,1,,,,,,208,WORD,UN,16,search,HOCKEY,m,,,,,,0.67962963,-0.380555556,0,0,0,,0,383,383,207,1
,,,,,,,,,,,,,,,,,,999,2020-11-26_10h16.32.037,lexical_decision_task_MP_exp2,2020.2.5,Win32,60,m,0,0.453,,,,,,,,0.453,0,,,,,,433,NW,UN,16,pitrom,DRANCE,z,,,,,,0.67962963,-0.380555556,0,0,0,,0,384,384,432,1
,,,,,,,,,,,,,,,,,,999,2020-11-26_10h16.32.037,lexical_decision_task_MP_exp2,2020.2.5,Win32,60,m,1,0.383,,,,,,,,0.383,1,,,,,,154,WORD,UN,33,lizard,AUTHOR,m,,,,,,0.67962963,-0.380555556,0,0,0,,0,385,385,153,1
,,,,,,,,,,,,,,,,,,999,2020-11-26_10h16.32.037,lexical_decision_task_MP_exp2,2020.2.5,Win32,60,z,0,0.775,,,,,,,,0.775,0,,,,,,114,WORD,"ID",16,placid,PLACID,m,,,,,,0.67962963,-0.380555556,0,0,0,,0,386,386,113,1
,,,,,,,,,,,,,,,,,,999,2020-11-26_10h16.32.037,lexical_decision_task_MP_exp2,2020.2.5,Win32,60,z,1,0.468,,,,,,,,0.468,1,,,,,,355,NW,"ID",16,zingly,ZINGLY,z,,,,,,0.67962963,-0.380555556,0,0,0,,0,387,387,354,1
,,,,,,,,,,,,,,,,,,999,2020-11-26_10h16.32.037,lexical_decision_task_MP_exp2,2020.2.5,Win32,60,m,0,1.053,,,,,,,,1.053,0,,,,,,462,NW,UN,16,kispel,ABSULT,z,,,,,,0.67962963,-0.380555556,0,0,0,,0,388,388,461,1
,,,,,,,,,,,,,,,,,,999,2020-11-26_10h16.32.037,lexical_decision_task_MP_exp2,2020.2.5,Win32,60,m,1,0.005,,,,,,,,0.005,1,,,,,,126,WORD,UN,33,castle,ENOUGH,m,,,,,,0.67962963,-0.380555556,0,0,0,,0,389,389,125,1
,,,,,,,,,,,,,,,,,,999,2020-11-26_10h16.32.037,lexical_decision_task_MP_exp2,2020.2.5,Win32,60,z,1,0.167,,,,,,,,0.167,1,,,,,,254,NW,"ID",33,varosh,VAROSH,z,,,,,,0.67962963,-0.380555556,0,0,0,,0,390,390,253,1
,,,,,,,,,,,,,,,,,,999,2020-11-26_10h16.32.037,lexical_decision_task_MP_exp2,2020.2.5,Win32,60,z,0,1.167,,,,,,,,1.167,0,,,,,,171,WORD,UN,33,patrol,DEPART,m,,,,,,0.67962963,-0.380555556,0,0,0,,0,391,391,170,1
,,,,,,,,,,,,,,,,,,999,2020-11-26_10h16.32.037,lexical_decision_task_MP_exp2,2020.2.5,Win32,60,m,0,0.848,,,,,,,,0.848,0,,,,,,319,NW,"ID",16,zomber,ZOMBER,z,,,,,,0.67962963,-0.380555556,0,0,0,,0,392,392,318,1
,,,,,,,,,,,,,,,,,,999,2020-11-26_10h16.32.037,lexical_decision_task_MP_exp2,2020.2.5,Win32,60,z,1,0.268,,,,,,,,0.268,1,,,,,,471,NW,UN,16,cigney,NOBEST,z,,,,,,0.67962963,-0.380555556,0,0,0,,0,393,393,470,1
,,,,,,,,,,,,,,,,,,999,2020-11-26_10h16.32.037,lexical_decision_task_MP_exp2,2020.2.5,Win32,60,m,1,0.567,,,,,,,,0.567,1,,,,,,135,WORD,UN,33,chrome,IMPORT,m,,,,,,0.67962963,-0.380555556,0,0,0,,0,394,394,134,1
,,,,,,,,,,,,,,,,,,999,2020-11-26_10h16.32.037,lexical_decision_task_MP_exp2,2020.2.5,Win32,60,z,1,0.282,,,,,,,,0.282,1,,,,,,443,NW,UN,16,jaunce,DORSEX,z,,,,,,0.67962963,-0.380555556,0,0,0,,0,395,395,442,1
,,,,,,,,,,,,,,,,,,999,2020-11-26_10h16.32.037,lexical_decision_task_MP_exp2,2020.2.5,Win32,60,z,1,0.668,,,,,,,,0.668,1,,,,,,417,NW,UN,33,suidle,EAROUD,z,,,,,,0.67962963,-0.380555556,0,0,0,,0,396,396,416,1
,,,,,,,,,,,,,,,,,,999,2020-11-26_10h16.32.037,lexical_decision_task_MP_exp2,2020.2.5,Win32,60,z,0,0.587,,,,,,,,0.587,0,,,,,,230,WORD,UN,16,export,FRINGE,m,,,,,,0.67962963,-0.380555556,0,0,0,,0,397,397,229,1
,,,,,,,,,,,,,,,,,,999,2020-11-26_10h16.32.037,lexical_decision_task_MP_exp2,2020.2.5,Win32,60,m,0,0.051,,,,,,,,0.051,0,,,,,,333,NW,"ID",16,catrie,CATRIE,z,,,,,,0.67962963,-0.380555556,0,0,0,,0,398,398,332,1
,,,,,,,,,,,,,,,,,,999,2020-11-26_10h16.32.037,lexical_decision_task_MP_exp2,2020.2.5,Win32,60,z,1,0.497,,,,,,,,0.497,1,,,,,,402,NW,UN,33,bruats,SYNTIC,z,,,,,,0.67962963,-0.380555556,0,0,0,,0,399,399,401,1
,,,,,,,,,,,,,,,,,,999,2020-11-26_10h16.32.037,lexical_decision_task_MP_exp2,2020.2.5,Win32,60,m,0,0.915,,,,,,,,0.915,0,,,,,,455,NW,UN,16,broget,TONDLE,z,,,,,,0.67962963,-0.380555556,0,0,0,,0,400,400,454,1
,,,,,,,,,,,,,,,,,,999,2020-11-26_10h16.32.037,lexical_decision_task_MP_exp2,2020.2.5,Win32,60,m,0,0.037,,,,,,,,0.037,0,,,,,,447,NW,UN,16,sadent,GIRCUE,z,,,,,,0.67962963,-0.380555556,0,0,0,,0,401,401,446,1
,,,,,,,,,,,,,,,,,,999,2020-11-26_10h16.32.037,lexical_decision_task_MP_exp2,2020.2.5,Win32,60,z,1,0.188,,,,,,,,0.188,1,,,,,,241,NW,"ID",33,smenco,SMENCO,z,,,,,,0.67962963,-0.380555556,0,0,0,,0,402,402,240,1
,,,,,,,,,,,,,,,,,,999,2020-11-26_10h16.32.037,lexical_decision_task_MP_exp2,2020.2.5,Win32,60,m,0,0.101,,,,,,,,0.101,0,,,,,,312,NW,"ID",16,nerawl,NERAWL,z,,,,,,0.67962963,-0.380555556,0,0,0,,0,403,403,311,1
,,,,,,,,,,,,,,,,,,999,2020-11-26_10h16.32.037,lexical_decision_task_MP_exp2,2020.2.5,Win32,60,,0,,,,,,,,,0.101,-1,,,,,,15,WORD,"ID",33,amount,AMOUNT,m,,,,,,0.67962963,-0.380555556,0,0,0,,0,404,404,14,1
,,,,,,,,,,,,,,,,,,999,2020-11-26_10h16.32.037,lexical_decision_task_MP_exp2,2020.2.5,Win32,60,z,0,0.171,,,,,,,,0.171,0,,,,,,226,WORD,UN,16,flower,CASINO,m,,,,,,0.67962963,-0.380555556,0,0,0,,0,405,405,225,1
,,,,,,,,,,,,,,,,,,999,2020-11-26_10h16.32.037,lexical_decision_task_MP_exp2,2020.2.5,Win32,60,z,0,0.301,,,,,,,,0.301,0,,,,,,4,WORD,"ID",33,trench,TRENCH,m,,,,,,0.67962963,-0.380555556,0,0,0,,0,406,406,3,1
,,,,,,,,,,,,,,,,,,999,2020-11-26_10h16.32.037,lexical_decision_task_MP_exp2,2020.2.5,Win32,60,z,0,0.833,,,,,,,,0.833,0,,,,,,10,WORD,"ID",33,ethnic,ETHNIC,m,,,,,,0.67962963,-0.380555556,0,0,0,,0,407,407,9,1
,,,,,,,,,,,,,,,,,,999,2020-11-26_10h16.32.037,lexical_decision_task_MP_exp2,2020.2.5,Win32,60,m,0,0.146,,,,,,,,0.146,0,,,,,,389,NW,UN,33,hatrus,WITMER,z,,,,,,0.67962963,-0.380555556,0,0,0,,0,408,408,388,1
,,,,,,,,,,,,,,,,,,999,2020-11-26_10h16.32.037,lexical_decision_task_MP_exp2,2020.2.5,Win32,60,m,1,0.062,,,,,,,,0.062,1,,,,,,148,WORD,UN,33,invade,CUSTOM,m,,,,,,0.67962963,-0.380555556,0,0,0,,0,409,409,147,1
,,,,,,,,,,,,,,,,,,999,2020-11-26_10h16.32.037,lexical_decision_task_MP_exp2,2020.2.5,Win32,60,z,1,0.025,,,,,,,,0.025,1,,,,,,374,NW,UN,33,yorque,SLIANT,z,,,,,,0.67962963,-0.380555556,0,0,0,,0,410,410,373,1
,,,,,,,,,,,,,,,,,,999,2020-11-26_10h16.32.037,lexical_decision_task_MP_exp2,2020.2.5,Win32,60,z,1,0.3,,,,,,,,0.3,1,,,,,,314,NW,"ID",16,sprine,SPRINE,z,,,,,,0.67962963,-0.380555556,0,0,0,,0,411,411,313,1
,,,,,,,,,,,,,,,,,,999,2020-11-26_10h16.32.037,lexical_decision_task_MP_exp2,2020.2.5,Win32,60,m,1,0.434,,,,,,,,0.434,1,,,,,,13,WORD,"ID",33,strive,STRIVE,m,,,,,,0.67962963,-0.380555556,0,0,0,,0,412,412,12,1
,,,,,,,,,,,,,,,,,,999,2020-11-26_10h16.32.037,lexical_decision_task_MP_exp2,2020.2.5,Win32,60,m,0,0.201,,,,,,,,0.201,0,,,,,,283,NW,"ID",33,veralf,VERALF,z,,,,,,0.67962963,-0.380555556,0,0,0,,0,413,413,282,1
,,,,,,,,,,,,,,,,,,999,2020-11-26_10h16.32.037,lexical_decision_task_MP_exp2,2020.2.5,Win32,60,z,1,0.02,,,,,,,,0.02,1,,,,,,424,NW,UN,16,urivel,PRAILE,z,,,,,,0.67962963,-0.380555556,0,0,0,,0,414,414,423,1
,,,,,,,,,,,,,,,,,,999,2020-11-26_10h16.32.037,lexical_decision_task_MP_exp2,2020.2.5,Win32,60,z,0,0.447,,,,,,,,0.447,0,,,,,,57,WORD,"ID",33,change,CHANGE,m,,,,,,0.67962963,-0.380555556,0,0,0,,0,415,415,56,1
,,,,,,,,,,,,,,,,,,999,2020-11-26_10h16.32.037,lexical_decision_task_MP_exp2,2020.2.5,Win32,60,z,0,0.1,,,,,,,,0.1,0,,,,,,199,WORD,UN,16,beacon,INVOKE,m,,,,,,0.67962963,-0.380555556,0,0,0,,0,416,416,198,1
,,,,,,,,,,,,,,,,,,999,2020-11-26_10h16.32.037,lexical_decision_task_MP_exp2,2020.2.5,Win32,60,z,0,0.086,,,,,,,,0.086,0,,,,,,82,WORD,"ID",16,stigma,STIGMA,m,,,,,,0.67962963,-0.380555556,0,0,0,,0,417,417,81,1
,,,,,,,,,,,,,,,,,,999,2020-11-26_10h16.32.037,lexical_decision_task_MP_exp2,2020.2.5,Win32,60,z,1,0.25,,,,,,,,0.25,1,,,,,,345,NW,"ID",16,absend,ABSEND,z,,,,,,0.67962963,-0.380555556,0,0,0,,0,418,418,344,1
,,,,,,,,,,,,,,,,,,999,2020-11-26_10h16.32.037,lexical_decision_task_MP_exp2,2020.2.5,Win32,60,z,0,1.103,,,,,,,,1.103,0,,,,,,67,WORD,"ID",16,policy,POLICY,m,,,,,,0.67962963,-0.380555556,0,0,0,,0,419,419,66,1
,,,,,,,,,,,,,,,,,,999,2020-11-26_10h16.32.037,lexical_decision_task_MP_exp2,2020.2.5,Win32,60,z,1,0.649,,,,,,,,0.649,1,,,,,,263,NW,"ID",33,dolica,DOLICA,z,,,,,,0.67962963,-0.380555556,0,0,0,,0,420,420,262,1
,,,,,,,,,,,,,,,,,,999,2020-11-26_10h16.32.037,lexical_decision_task_MP_exp2,2020.2.5,Win32,60,z,1,0.6,,,,,,,,0.6,1,,,,,,384,NW,UN,33,veigma,GUESCO,z,,,,,,0.67962963,-0.380555556,0,0,0,,0,421,421,383,1
,,,,,,,,,,,,,,,,,,999,2020-11-26_10h16.32.037,lexical_decision_task_MP_exp2,2020.2.5,Win32,60,z,0,0.236,,,,,,,,0.236,0,,,,,,107,WORD,"ID",16,slogan,SLOGAN,m,,,,,,0.67962963,-0.380555556,0,0,0,,0,422,422,106,1
,,,,,,,,,,,,,,,,,,999,2020-11-26_10h16.32.037,lexical_decision_task_MP_exp2,2020.2.5,Win32,60,z,1,0.4,,,,,,,,0.4,1,,,,,,436,NW,UN,16,snapel,FRUTAN,z,,,,,,0.67962963,-0.380555556,0,0,0,,0,423,423,435,1
,,,,,,,,,,,,,,,,,,999,2020-11-26_10h16.32.037,lexical_decision_task_MP_exp2,2020.2.5,Win32,60,z,0,0.649,,,,,,,,0.649,0,,,,,,118,WORD,"ID",16,flight,FLIGHT,m,,,,,,0.67962963,-0.380555556,0,0,0,,0,424,424,117,1
,,,,,,,,,,,,,,,,,,999,2020-11-26_10h16.32.037,lexical_decision_task_MP_exp2,2020.2.5,Win32,60,m,1,0.528,,,,,,,,0.528,1,,,,,,166,WORD,UN,33,design,STARCH,m,,,,,,0.67962963,-0.380555556,0,0,0,,0,425,425,165,1
,,,,,,,,,,,,,,,,,,999,2020-11-26_10h16.32.037,lexical_decision_task_MP_exp2,2020.2.5,Win32,60,z,0,0.332,,,,,,,,0.332,0,,,,,,37,WORD,"ID",33,insult,INSULT,m,,,,,,0.67962963,-0.380555556,0,0,0,,0,426,426,36,1
,,,,,,,,,,,,,,,,,,999,2020-11-26_10h16.32.037,lexical_decision_task_MP_exp2,2020.2.5,Win32,60,z,0,0.318,,,,,,,,0.318,0,,,,,,128,WORD,UN,33,marvel,SENIOR,m,,,,,,0.67962963,-0.380555556,0,0,0,,0,427,427,127,1
,,,,,,,,,,,,,,,,,,999,2020-11-26_10h16.32.037,lexical_decision_task_MP_exp2,2020.2.5,Win32,60,z,1,0.649,,,,,,,,0.649,1,,,,,,297,NW,"ID",33,fertic,FERTIC,z,,,,,,0.67962963,-0.380555556,0,0,0,,0,428,428,296,1
,,,,,,,,,,,,,,,,,,999,2020-11-26_10h16.32.037,lexical_decision_task_MP_exp2,2020.2.5,Win32,60,z,1,0.102,,,,,,,,0.102,1,,,,,,428,NW,UN,16,chrums,TANDLY,z,,,,,,0.67962963,-0.380555556,0,0,0,,0,429,429,427,1
,,,,,,,,,,,,,,,,,,999,2020-11-26_10h16.32.037,lexical_decision_task_MP_exp2,2020.2.5,Win32,60,z,0,0.635,,,,,,,,0.635,0,,,,,,26,WORD,"ID",33,sprint,SPRINT,m,,,,,,0.67962963,-0.380555556,0,0,0,,0,430,430,25,1
,,,,,,,,,,,,,,,,,,999,2020-11-26_10h16.32.037,lexical_decision_task_MP_exp2,2020.2.5,Win32,60,z,1,0.684,,,,,,,,0.684,1,,,,,,414,NW,UN,33,higsta,SERBOL,z,,,,,,0.67962963,-0.380555556,0,0,0,,0,431,431,413,1
,,,,,,,,,,,,,,,,,,999,2020-11-26_10h16.32.037,lexical_decision_task_MP_exp2,2020.2.5,Win32,60,z,1,0.082,,,,,,,,0.082,1,,,,,,369,NW,UN,33,sleact,WRONCH,z,,,,,,0.67962963,-0.380555556,0,0,0,,0,432,432,368,1
,,,,,,,,,,,,,,,,,,999,2020-11-26_10h16.32.037,lexical_decision_task_MP_exp2,2020.2.5,Win32,60,z,0,0.018,,,,,,,,0.018,0,,,,,,117,WORD,"ID",16,branch,BRANCH,m,,,,,,0.67962963,-0.380555556,0,0,0,,0,433,433,116,1
,,,,,,,,,,,,,,,,,,999,2020-11-26_10h16.32.037,lexical_decision_task_MP_exp2,2020.2.5,Win32,60,z,0,0.55,,,,,,,,0.55,0,,,,,,121,WORD,UN,33,linger,THRIVE,m,,,,,,0.67962963,-0.380555556,0,0,0,,0,434,434,120,1
,,,,,,,,,,,,,,,,,,999,2020-11-26_10h16.32.037,lexical_decision_task_MP_exp2,2020.2.5,Win32,60,z,1,0.398,,,,,,,,0.398,1,,,,,,421,NW,UN,16,alcoud,KNISMA,z,,,,,,0.67962963,-0.380555556,0,0,0,,0,435,435,420,1
,,,,,,,,,,,,,,,,,,999,2020-11-26_10h16.32.037,lexical_decision_task_MP_exp2,2020.2.5,Win32,60,z,1,0.035,,,,,,,,0.035,1,,,,,,419,NW,UN,33,gushop,SLOUNT,z,,,,,,0.67962963,-0.380555556,0,0,0,,0,436,436,418,1
,,,,,,,,,,,,,,,,,,999,2020-11-26_10h16.32.037,lexical_decision_task_MP_exp2,2020.2.5,Win32,60,z,0,0.266,,,,,,,,0.266,0,,,,,,70,WORD,"ID",16,square,SQUARE,m,,,,,,0.67962963,-0.380555556,0,0,0,,0,437,437,69,1
,,,,,,,,,,,,,,,,,,999,2020-11-26_10h16.32.037,lexical_decision_task_MP_exp2,2020.2.5,Win32,60,z,1,0.002,,,,,,,,0.002,1,,,,,,399,NW,UN,33,wearox,FOURET,z,,,,,,0.67962963,-0.380555556,0,0,0,,0,438,438,398,1
,,,,,,,,,,,,,,,,,,999,2020-11-26_10h16.32.037,lexical_decision_task_MP_exp2,2020.2.5,Win32,60,z,1,0.003,,,,,,,,0.003,1,,,,,,322,NW,"ID",16,slanch,SLANCH,z,,,,,,0.67962963,-0.380555556,0,0,0,,0,439,439,321,1
,,,,,,,,,,,,,,,,,,999,2020-11-26_10h16.32.037,lexical_decision_task_MP_exp2,2020.2.5,Win32,60,m,0,0.377,,,,,,,,0.377,0,,,,,,324,NW,"ID",16,steikh,STEIKH,z,,,,,,0.67962963,-0.380555556,0,0,0,,0,440,440,323,1
,,,,,,,,,,,,,,,,,,999,2020-11-26_10h16.32.037,lexical_decision_task_MP_exp2,2020.2.5,Win32,60,z,0,0.183,,,,,,,,0.183,0,,,,,,59,WORD,"ID",33,splint,SPLINT,m,,,,,,0.67962963,-0.380555556,0,0,0,,0,441,441,58,1
,,,,,,,,,,,,,,,,,,999,2020-11-26_10h16.32.037,lexical_decision_task_MP_exp2,2020.2.5,Win32,60,z,1,0.17,,,,,,,,0.17,1,,,,,,400,NW,UN,33,mustil,WEAROX,z,,,,,,0.67962963,-0.380555556,0,0,0,,0,442,442,399,1
,,,,,,,,,,,,,,,,,,999,2020-11-26_10h16.32.037,lexical_decision_task_MP_exp2,2020.2.5,Win32,60,z,0,0.147,,,,,,,,0.147,0,,,,,,7,WORD,"ID",33,anchor,ANCHOR,m,,,,,,0.67962963,-0.380555556,0,0,0,,0,443,443,6,1
,,,,,,,,,,,,,,,,,,999,2020-11-26_10h16.32.037,lexical_decision_task_MP_exp2,2020.2.5,Win32,60,m,0,0.15,,,,,,,,0.15,0,,,,,,303,NW,"ID",16,fiream,FIREAM,z,,,,,,0.67962963,-0.380555556,0,0,0,,0,444,444,302,1
,,,,,,,,,,,,,,,,,,999,2020-11-26_10h16.32.037,lexical_decision_task_MP_exp2,2020.2.5,Win32,60,z,0,0.137,,,,,,,,0.137,0,,,,,,140,WORD,UN,33,reason,PRINCE,m,,,,,,0.67962963,-0.380555556,0,0,0,,0,445,445,139,1
,,,,,,,,,,,,,,,,,,999,2020-11-26_10h16.32.037,lexical_decision_task_MP_exp2,2020.2.5,Win32,60,m,1,0.304,,,,,,,,0.304,1,,,,,,54,WORD,"ID",33,ramble,RAMBLE,m,,,,,,0.67962963,-0.380555556,0,0,0,,0,446,446,53,1
,,,,,,,,,,,,,,,,,,999,2020-11-26_10h16.32.037,lexical_decision_task_MP_exp2,2020.2.5,Win32,60,z,1,0.98,,,,,,,,0.98,1,,,,,,353,NW,"ID",16,clurey,CLUREY,z,,,,,,0.67962963,-0.380555556,0,0,0,,0,447,447,352,1
,,,,,,,,,,,,,,,,,,999,2020-11-26_10h16.32.037,lexical_decision_task_MP_exp2,2020.2.5,Win32,60,z,0,0.342,,,,,,,,0.342,0,,,,,,46,WORD,"ID",33,single,SINGLE,m,,,,,,0.67962963,-0.380555556,0,0,0,,0,448,448,45,1
,,,,,,,,,,,,,,,,,,999,2020-11-26_10h16.32.037,lexical_decision_task_MP_exp2,2020.2.5,Win32,60,z,0,0.523,,,,,,,,0.523,0,,,,,,51,WORD,"ID",33,hungry,HUNGRY,m,,,,,,0.67962963,-0.380555556,0,0,0,,0,449,449,50,1
,,,,,,,,,,,,,,,,,,999,2020-11-26_10h16.32.037,lexical_decision_task_MP_exp2,2020.2.5,Win32,60,m,1,0.303,,,,,,,,0.303,1,,,,,,219,WORD,UN,16,voyage,BUCKET,m,,,,,,0.67962963,-0.380555556,0,0,0,,0,450,450,218,1
,,,,,,,,,,,,,,,,,,999,2020-11-26_10h16.32.037,lexical_decision_task_MP_exp2,2020.2.5,Win32,60,z,0,0.516,,,,,,,,0.516,0,,,,,,213,WORD,UN,16,intake,SQUEAL,m,,,,,,0.67962963,-0.380555556,0,0,0,,0,451,451,212,1
