counterbalancing_condition,instr_done_keyboard.keys,instr_done_touch.x,instr_done_touch.y,instr_done_touch.leftButton,instr_done_touch.midButton,instr_done_touch.rightButton,instr_done_touch.clicked_name,instruction_pages.thisRepN,instruction_pages.thisTrialN,instruction_pages.thisN,instruction_pages.thisIndex,instruction_pages.ran,pageN,phase,instruct_text,has_image,instruct_image,participant,date,expName,psychopyVersion,OS,frameRate,response.keys,response.corr,touch_resp.x,touch_resp.y,touch_resp.leftButton,touch_resp.midButton,touch_resp.rightButton,touch_resp.time,touch_resp.clicked_name,rt,corr,practice_trials.thisRepN,practice_trials.thisTrialN,practice_trials.thisN,practice_trials.thisIndex,practice_trials.ran,TrialID,StimulusType,Condition,PrimeDuration,Prime,Target,corrAns,response.rt,end_of_practice_trials_pages.thisRepN,end_of_practice_trials_pages.thisTrialN,end_of_practice_trials_pages.thisN,end_of_practice_trials_pages.thisIndex,end_of_practice_trials_pages.ran,break_done_touch.x,break_done_touch.y,break_done_touch.leftButton,break_done_touch.midButton,break_done_touch.rightButton,break_done_keyboard.keys,experiment_trials.thisRepN,experiment_trials.thisTrialN,experiment_trials.thisN,experiment_trials.thisIndex,experiment_trials.ran,break_done_keyboard.rt,break_done_touch.clicked_name
1,,0.099009901,-0.430693069,1,0,0,instr_done_button,0,0,0,0,1,1,instructions,"INSTRUCTIONS
At the start of each trial, look at the hash marks (######) in the center of the screen. After a moment, a string of letters will appear. Your task is to indicate if the letter string forms a word or not (i.e., if it is a nonword). For example, AUTHOR is a word while AUTHON is a nonword.

Press the space bar or touch the button below to continue.",0,,999,2020-11-26_12h12.56.368,lexical_decision_task_MP_exp2,2020.2.5,Win32,60,,,,,,,,,,,,,,,,,,,,,,,,,,,,,,,,,,,,,,,,,,
,,0.099009901,-0.430693069,1,0,0,instr_done_button,0,1,1,1,1,2,instructions,"If your device has a keyboard, press the 'Z' key for nonwords and the 'M' key for words.





Press the space bar or touch the button below to continue.",1,keyboard-example.gif,999,2020-11-26_12h12.56.368,lexical_decision_task_MP_exp2,2020.2.5,Win32,60,,,,,,,,,,,,,,,,,,,,,,,,,,,,,,,,,,,,,,,,,,
,,0.099009901,-0.430693069,1,0,0,instr_done_button,0,2,2,2,1,3,instructions,"If you are using a touchscreen only device, use the buttons on the screen. Do not use the mouse.





Press the space bar or touch the button below to continue.",1,touchscreen-example.gif,999,2020-11-26_12h12.56.368,lexical_decision_task_MP_exp2,2020.2.5,Win32,60,,,,,,,,,,,,,,,,,,,,,,,,,,,,,,,,,,,,,,,,,,
,,0.099009901,-0.430693069,1,0,0,instr_done_button,0,3,3,3,1,4,instructions,"It is very important that you respond as quickly and accurately as possible, as each letter string will only be on the screen for two seconds. If you do not respond within this time, the message 'Too slow!' will be displayed and the experiment will progress to the next letter string. The first 20 trials will be practice trials and you will receive feedback on your answers. 

Press the space bar or touch the button below to start the practice trials.",0,,999,2020-11-26_12h12.56.368,lexical_decision_task_MP_exp2,2020.2.5,Win32,60,,,,,,,,,,,,,,,,,,,,,,,,,,,,,,,,,,,,,,,,,,
,,,,,,,,,,,,,,,,,,999,2020-11-26_12h12.56.368,lexical_decision_task_MP_exp2,2020.2.5,Win32,60,,0,-0.297029703,-0.334983498,1,0,0,0.62,button_left,0.62,0,0,0,0,5,1,1006,WORD,UN,33,frenzy,OBTAIN,m,,,,,,,,,,,,,,,,,,,
,,,,,,,,,,,,,,,,,,999,2020-11-26_12h12.56.368,lexical_decision_task_MP_exp2,2020.2.5,Win32,60,m,0,,,,,,,,0.54,0,0,1,1,9,1,1010,NW,"ID",33,fariny,FARINY,z,0.54,,,,,,,,,,,,,,,,,,
,,,,,,,,,,,,,,,,,,999,2020-11-26_12h12.56.368,lexical_decision_task_MP_exp2,2020.2.5,Win32,60,m,1,,,,,,,,0.065,1,0,2,2,2,1,1003,WORD,"ID",16,almond,ALMOND,m,0.065,,,,,,,,,,,,,,,,,,
,,,,,,,,,,,,,,,,,,999,2020-11-26_12h12.56.368,lexical_decision_task_MP_exp2,2020.2.5,Win32,60,m,0,,,,,,,,0.028,0,0,3,3,13,1,1014,NW,UN,33,winfer,ROUPET,z,0.028,,,,,,,,,,,,,,,,,,
,,,,,,,,,,,,,,,,,,999,2020-11-26_12h12.56.368,lexical_decision_task_MP_exp2,2020.2.5,Win32,60,m,0,,,,,,,,0.019,0,0,4,4,15,1,1016,NW,UN,16,mushed,WHAISE,z,0.019,,,,,,,,,,,,,,,,,,
,,,,,,,,,,,,,,,,,,999,2020-11-26_12h12.56.368,lexical_decision_task_MP_exp2,2020.2.5,Win32,60,,0,,,,,,,,0.019,-1,0,5,5,4,1,1005,WORD,UN,33,abound,SQUEAK,m,,,,,,,,,,,,,,,,,,,
,,,,,,,,,,,,,,,,,,999,2020-11-26_12h12.56.368,lexical_decision_task_MP_exp2,2020.2.5,Win32,60,,0,,,,,,,,0.019,-1,0,6,6,12,1,1013,NW,UN,33,adveil,SPRINY,z,,,,,,,,,,,,,,,,,,,
,,,,,,,,,,,,,,,,,,999,2020-11-26_12h12.56.368,lexical_decision_task_MP_exp2,2020.2.5,Win32,60,,0,,,,,,,,0.019,-1,0,7,7,7,1,1008,WORD,UN,16,hurdle,VOLUME,m,,,,,,,,,,,,,,,,,,,
,,,,,,,,,,,,,,,,,,999,2020-11-26_12h12.56.368,lexical_decision_task_MP_exp2,2020.2.5,Win32,60,,0,,,,,,,,0.019,-1,0,8,8,14,1,1015,NW,UN,16,miaber,THRALE,z,,,,,,,,,,,,,,,,,,,
,,,,,,,,,,,,,,,,,,999,2020-11-26_12h12.56.368,lexical_decision_task_MP_exp2,2020.2.5,Win32,60,,0,,,,,,,,0.019,-1,0,9,9,1,1,1002,WORD,"ID",33,adjust,ADJUST,m,,,,,,,,,,,,,,,,,,,
,,,,,,,,,,,,,,,,,,999,2020-11-26_12h12.56.368,lexical_decision_task_MP_exp2,2020.2.5,Win32,60,,0,,,,,,,,0.019,-1,0,10,10,8,1,1009,NW,"ID",33,aslert,ASLERT,z,,,,,,,,,,,,,,,,,,,
,,,,,,,,,,,,,,,,,,999,2020-11-26_12h12.56.368,lexical_decision_task_MP_exp2,2020.2.5,Win32,60,,0,,,,,,,,0.019,-1,0,11,11,0,1,1001,WORD,"ID",33,utopia,UTOPIA,m,,,,,,,,,,,,,,,,,,,
,,,,,,,,,,,,,,,,,,999,2020-11-26_12h12.56.368,lexical_decision_task_MP_exp2,2020.2.5,Win32,60,,0,,,,,,,,0.019,-1,0,12,12,10,1,1011,NW,"ID",16,inlade,INLADE,z,,,,,,,,,,,,,,,,,,,
,,,,,,,,,,,,,,,,,,999,2020-11-26_12h12.56.368,lexical_decision_task_MP_exp2,2020.2.5,Win32,60,,0,,,,,,,,0.019,-1,0,13,13,11,1,1012,NW,"ID",16,rashet,RASHET,z,,,,,,,,,,,,,,,,,,,
,,,,,,,,,,,,,,,,,,999,2020-11-26_12h12.56.368,lexical_decision_task_MP_exp2,2020.2.5,Win32,60,,0,,,,,,,,0.019,-1,0,14,14,3,1,1004,WORD,"ID",16,matrix,MATRIX,m,,,,,,,,,,,,,,,,,,,
,,,,,,,,,,,,,,,,,,999,2020-11-26_12h12.56.368,lexical_decision_task_MP_exp2,2020.2.5,Win32,60,,0,,,,,,,,0.019,-1,0,15,15,6,1,1007,WORD,UN,16,tropic,ZOMBIE,m,,,,,,,,,,,,,,,,,,,
,,-0.069306931,-0.374587459,1,0,0,instr_done_button,,,,,,1,end_of_practice,"You have completed the practice trials. During the experimental trials, you will not receive feedback, but it is very important that you respond as quickly and accurately as possible. 
Before you begin, please ensure that you are in a comfortable and quiet location and will not be disturbed for about 15 minutes, as we cannot use your data if you do not complete all the trials. 
There will be opportunities to take breaks at regular intervals during the experiment. When you are ready to start the experimental trials, please press space or touch the button below.",,,999,2020-11-26_12h12.56.368,lexical_decision_task_MP_exp2,2020.2.5,Win32,60,,,,,,,,,,,,,,,,,,,,,,,,,0,0,0,0,1,,,,,,,,,,,,,
,,,,,,,,,,,,,,,,,,999,2020-11-26_12h12.56.368,lexical_decision_task_MP_exp2,2020.2.5,Win32,60,,0,-0.389438944,-0.308580858,1,0,0,0.18,button_left,0.18,1,,,,,,338,NW,"ID",16,wreash,WREASH,z,,,,,,,-0.389438944,-0.308580858,1,0,0,,0,0,0,337,1,,
,,,,,,,,,,,,,,,,,,999,2020-11-26_12h12.56.368,lexical_decision_task_MP_exp2,2020.2.5,Win32,60,,0,0.366336634,-0.278877888,1,0,0,0.094,button_right,0.094,0,,,,,,257,NW,"ID",33,veniod,VENIOD,z,,,,,,,0.366336634,-0.278877888,1,0,0,,0,1,1,256,1,,
,,,,,,,,,,,,,,,,,,999,2020-11-26_12h12.56.368,lexical_decision_task_MP_exp2,2020.2.5,Win32,60,,0,0.382838284,-0.262376238,1,0,0,0.16,button_right,0.16,1,,,,,,16,WORD,"ID",33,faucet,FAUCET,m,,,,,,,0.382838284,-0.262376238,1,0,0,,0,2,2,15,1,,
,,,,,,,,,,,,,,,,,,999,2020-11-26_12h12.56.368,lexical_decision_task_MP_exp2,2020.2.5,Win32,60,,0,,,,,,,,0.16,-1,,,,,,190,WORD,UN,16,stable,BACKUP,m,,,,,,,1.907590759,-0.140264026,0,0,0,,0,3,3,189,1,,
,,,,,,,,,,,,,,,,,,999,2020-11-26_12h12.56.368,lexical_decision_task_MP_exp2,2020.2.5,Win32,60,,0,,,,,,,,0.16,-1,,,,,,469,NW,UN,16,crudio,PADIFS,z,,,,,,,0.402116402,0.5,0,0,0,,0,4,4,468,1,,
,,,,,,,,,,,,,,,,,,999,2020-11-26_12h12.56.368,lexical_decision_task_MP_exp2,2020.2.5,Win32,60,,0,,,,,,,,0.16,-1,,,,,,188,WORD,UN,16,censor,SOCIAL,m,,,,,,,0.402116402,0.5,0,0,0,,0,5,5,187,1,,
,,,,,,,,,,,,,,,,,,999,2020-11-26_12h12.56.368,lexical_decision_task_MP_exp2,2020.2.5,Win32,60,,0,,,,,,,,0.16,-1,,,,,,415,NW,UN,33,pathel,HIGSTA,z,,,,,,,-2.920634921,-0.156084656,0,0,0,,0,6,6,414,1,,
,,,,,,,,,,,,,,,,,,999,2020-11-26_12h12.56.368,lexical_decision_task_MP_exp2,2020.2.5,Win32,60,,0,,,,,,,,0.16,-1,,,,,,438,NW,UN,16,limpor,BAITCH,z,,,,,,,-2.920634921,-0.156084656,0,0,0,,0,7,7,437,1,,
,,,,,,,,,,,,,,,,,,999,2020-11-26_12h12.56.368,lexical_decision_task_MP_exp2,2020.2.5,Win32,60,,0,,,,,,,,0.16,-1,,,,,,367,NW,UN,33,hornal,SLIQUE,z,,,,,,,-2.920634921,-0.156084656,0,0,0,,0,8,8,366,1,,
,,,,,,,,,,,,,,,,,,999,2020-11-26_12h12.56.368,lexical_decision_task_MP_exp2,2020.2.5,Win32,60,,0,,,,,,,,0.16,-1,,,,,,290,NW,"ID",33,splino,SPLINO,z,,,,,,,-2.920634921,-0.156084656,0,0,0,,0,9,9,289,1,,
,,,,,,,,,,,,,,,,,,999,2020-11-26_12h12.56.368,lexical_decision_task_MP_exp2,2020.2.5,Win32,60,,0,,,,,,,,0.16,-1,,,,,,49,WORD,"ID",33,survey,SURVEY,m,,,,,,,-2.920634921,-0.156084656,0,0,0,,0,10,10,48,1,,
,,,,,,,,,,,,,,,,,,999,2020-11-26_12h12.56.368,lexical_decision_task_MP_exp2,2020.2.5,Win32,60,,0,,,,,,,,0.16,-1,,,,,,364,NW,UN,33,guairt,IMPOTE,z,,,,,,,-2.920634921,-0.156084656,0,0,0,,0,11,11,363,1,,
,,,,,,,,,,,,,,,,,,999,2020-11-26_12h12.56.368,lexical_decision_task_MP_exp2,2020.2.5,Win32,60,,0,,,,,,,,0.16,-1,,,,,,65,WORD,"ID",16,symbol,SYMBOL,m,,,,,,,-2.920634921,-0.156084656,0,0,0,,0,12,12,64,1,,
,,,,,,,,,,,,,,,,,,999,2020-11-26_12h12.56.368,lexical_decision_task_MP_exp2,2020.2.5,Win32,60,,0,,,,,,,,0.16,-1,,,,,,429,NW,UN,16,caroey,FUNTLE,z,,,,,,,-2.920634921,-0.156084656,0,0,0,,0,13,13,428,1,,
,,,,,,,,,,,,,,,,,,999,2020-11-26_12h12.56.368,lexical_decision_task_MP_exp2,2020.2.5,Win32,60,,0,,,,,,,,0.16,-1,,,,,,393,NW,UN,33,spaqux,GANOUS,z,,,,,,,-2.920634921,-0.156084656,0,0,0,,0,14,14,392,1,,
,,,,,,,,,,,,,,,,,,999,2020-11-26_12h12.56.368,lexical_decision_task_MP_exp2,2020.2.5,Win32,60,,0,,,,,,,,0.16,-1,,,,,,7,WORD,"ID",33,anchor,ANCHOR,m,,,,,,,-2.920634921,-0.156084656,0,0,0,,0,15,15,6,1,,
,,,,,,,,,,,,,,,,,,999,2020-11-26_12h12.56.368,lexical_decision_task_MP_exp2,2020.2.5,Win32,60,,0,,,,,,,,0.16,-1,,,,,,250,NW,"ID",33,milted,MILTED,z,,,,,,,-2.920634921,-0.156084656,0,0,0,,0,16,16,249,1,,
,,,,,,,,,,,,,,,,,,999,2020-11-26_12h12.56.368,lexical_decision_task_MP_exp2,2020.2.5,Win32,60,,0,,,,,,,,0.16,-1,,,,,,465,NW,UN,16,hocite,WHIVEX,z,,,,,,,-2.920634921,-0.156084656,0,0,0,,0,17,17,464,1,,
,,,,,,,,,,,,,,,,,,999,2020-11-26_12h12.56.368,lexical_decision_task_MP_exp2,2020.2.5,Win32,60,,0,,,,,,,,0.16,-1,,,,,,473,NW,UN,16,hablin,CRIBLE,z,,,,,,,-2.920634921,-0.156084656,0,0,0,,0,18,18,472,1,,
,,,,,,,,,,,,,,,,,,999,2020-11-26_12h12.56.368,lexical_decision_task_MP_exp2,2020.2.5,Win32,60,,0,,,,,,,,0.16,-1,,,,,,436,NW,UN,16,snapel,FRUTAN,z,,,,,,,-2.920634921,-0.156084656,0,0,0,,0,19,19,435,1,,
,,,,,,,,,,,,,,,,,,999,2020-11-26_12h12.56.368,lexical_decision_task_MP_exp2,2020.2.5,Win32,60,,0,,,,,,,,0.16,-1,,,,,,362,NW,UN,33,breali,TIREAU,z,,,,,,,-2.920634921,-0.156084656,0,0,0,,0,20,20,361,1,,
,,,,,,,,,,,,,,,,,,999,2020-11-26_12h12.56.368,lexical_decision_task_MP_exp2,2020.2.5,Win32,60,,0,,,,,,,,0.16,-1,,,,,,58,WORD,"ID",33,foster,FOSTER,m,,,,,,,-2.920634921,-0.156084656,0,0,0,,0,21,21,57,1,,
,,,,,,,,,,,,,,,,,,999,2020-11-26_12h12.56.368,lexical_decision_task_MP_exp2,2020.2.5,Win32,60,,0,,,,,,,,0.16,-1,,,,,,68,WORD,"ID",16,fumble,FUMBLE,m,,,,,,,-2.920634921,-0.156084656,0,0,0,,0,22,22,67,1,,
,,,,,,,,,,,,,,,,,,999,2020-11-26_12h12.56.368,lexical_decision_task_MP_exp2,2020.2.5,Win32,60,,0,,,,,,,,0.16,-1,,,,,,70,WORD,"ID",16,square,SQUARE,m,,,,,,,-2.920634921,-0.156084656,0,0,0,,0,23,23,69,1,,
,,,,,,,,,,,,,,,,,,999,2020-11-26_12h12.56.368,lexical_decision_task_MP_exp2,2020.2.5,Win32,60,,0,,,,,,,,0.16,-1,,,,,,302,NW,"ID",16,miluer,MILUER,z,,,,,,,-2.920634921,-0.156084656,0,0,0,,0,24,24,301,1,,
,,,,,,,,,,,,,,,,,,999,2020-11-26_12h12.56.368,lexical_decision_task_MP_exp2,2020.2.5,Win32,60,,0,,,,,,,,0.16,-1,,,,,,23,WORD,"ID",33,wealth,WEALTH,m,,,,,,,-2.920634921,-0.156084656,0,0,0,,0,25,25,22,1,,
,,,,,,,,,,,,,,,,,,999,2020-11-26_12h12.56.368,lexical_decision_task_MP_exp2,2020.2.5,Win32,60,,0,,,,,,,,0.16,-1,,,,,,129,WORD,UN,33,stupid,MARVEL,m,,,,,,,-2.920634921,-0.156084656,0,0,0,,0,26,26,128,1,,
,,,,,,,,,,,,,,,,,,999,2020-11-26_12h12.56.368,lexical_decision_task_MP_exp2,2020.2.5,Win32,60,,0,,,,,,,,0.16,-1,,,,,,117,WORD,"ID",16,branch,BRANCH,m,,,,,,,-2.920634921,-0.156084656,0,0,0,,0,27,27,116,1,,
,,,,,,,,,,,,,,,,,,999,2020-11-26_12h12.56.368,lexical_decision_task_MP_exp2,2020.2.5,Win32,60,,0,,,,,,,,0.16,-1,,,,,,128,WORD,UN,33,marvel,SENIOR,m,,,,,,,-2.920634921,-0.156084656,0,0,0,,0,28,28,127,1,,
,,,,,,,,,,,,,,,,,,999,2020-11-26_12h12.56.368,lexical_decision_task_MP_exp2,2020.2.5,Win32,60,,0,,,,,,,,0.16,-1,,,,,,136,WORD,UN,33,finger,BLEACH,m,,,,,,,-2.920634921,-0.156084656,0,0,0,,0,29,29,135,1,,
,,,,,,,,,,,,,,,,,,999,2020-11-26_12h12.56.368,lexical_decision_task_MP_exp2,2020.2.5,Win32,60,,0,,,,,,,,0.16,-1,,,,,,96,WORD,"ID",16,ignore,IGNORE,m,,,,,,,-2.920634921,-0.156084656,0,0,0,,0,30,30,95,1,,
,,,,,,,,,,,,,,,,,,999,2020-11-26_12h12.56.368,lexical_decision_task_MP_exp2,2020.2.5,Win32,60,,0,,,,,,,,0.16,-1,,,,,,125,WORD,UN,33,blouse,NICKEL,m,,,,,,,-2.920634921,-0.156084656,0,0,0,,0,31,31,124,1,,
,,,,,,,,,,,,,,,,,,999,2020-11-26_12h12.56.368,lexical_decision_task_MP_exp2,2020.2.5,Win32,60,,0,,,,,,,,0.16,-1,,,,,,224,WORD,UN,16,vulgar,PERIOD,m,,,,,,,-2.920634921,-0.156084656,0,0,0,,0,32,32,223,1,,
,,,,,,,,,,,,,,,,,,999,2020-11-26_12h12.56.368,lexical_decision_task_MP_exp2,2020.2.5,Win32,60,,0,,,,,,,,0.16,-1,,,,,,172,WORD,UN,33,shower,PATROL,m,,,,,,,-2.920634921,-0.156084656,0,0,0,,0,33,33,171,1,,
,,,,,,,,,,,,,,,,,,999,2020-11-26_12h12.56.368,lexical_decision_task_MP_exp2,2020.2.5,Win32,60,,0,,,,,,,,0.16,-1,,,,,,159,WORD,UN,33,violet,DETAIL,m,,,,,,,-2.920634921,-0.156084656,0,0,0,,0,34,34,158,1,,
,,,,,,,,,,,,,,,,,,999,2020-11-26_12h12.56.368,lexical_decision_task_MP_exp2,2020.2.5,Win32,60,,0,,,,,,,,0.16,-1,,,,,,66,WORD,"ID",16,gospel,GOSPEL,m,,,,,,,-2.920634921,-0.156084656,0,0,0,,0,35,35,65,1,,
,,,,,,,,,,,,,,,,,,999,2020-11-26_12h12.56.368,lexical_decision_task_MP_exp2,2020.2.5,Win32,60,,0,,,,,,,,0.16,-1,,,,,,82,WORD,"ID",16,stigma,STIGMA,m,,,,,,,-2.920634921,-0.156084656,0,0,0,,0,36,36,81,1,,
,,,,,,,,,,,,,,,,,,999,2020-11-26_12h12.56.368,lexical_decision_task_MP_exp2,2020.2.5,Win32,60,,0,,,,,,,,0.16,-1,,,,,,399,NW,UN,33,wearox,FOURET,z,,,,,,,-2.920634921,-0.156084656,0,0,0,,0,37,37,398,1,,
,,,,,,,,,,,,,,,,,,999,2020-11-26_12h12.56.368,lexical_decision_task_MP_exp2,2020.2.5,Win32,60,,0,,,,,,,,0.16,-1,,,,,,63,WORD,"ID",16,launch,LAUNCH,m,,,,,,,-2.920634921,-0.156084656,0,0,0,,0,38,38,62,1,,
,,,,,,,,,,,,,,,,,,999,2020-11-26_12h12.56.368,lexical_decision_task_MP_exp2,2020.2.5,Win32,60,,0,,,,,,,,0.16,-1,,,,,,37,WORD,"ID",33,insult,INSULT,m,,,,,,,-2.920634921,-0.156084656,0,0,0,,0,39,39,36,1,,
,,,,,,,,,,,,,,,,,,999,2020-11-26_12h12.56.368,lexical_decision_task_MP_exp2,2020.2.5,Win32,60,,0,,,,,,,,0.16,-1,,,,,,201,WORD,UN,16,factor,ADMIRE,m,,,,,,,-2.920634921,-0.156084656,0,0,0,,0,40,40,200,1,,
,,,,,,,,,,,,,,,,,,999,2020-11-26_12h12.56.368,lexical_decision_task_MP_exp2,2020.2.5,Win32,60,,0,,,,,,,,0.16,-1,,,,,,345,NW,"ID",16,absend,ABSEND,z,,,,,,,-2.920634921,-0.156084656,0,0,0,,0,41,41,344,1,,
,,,,,,,,,,,,,,,,,,999,2020-11-26_12h12.56.368,lexical_decision_task_MP_exp2,2020.2.5,Win32,60,,0,,,,,,,,0.16,-1,,,,,,428,NW,UN,16,chrums,TANDLY,z,,,,,,,-2.920634921,-0.156084656,0,0,0,,0,42,42,427,1,,
,,,,,,,,,,,,,,,,,,999,2020-11-26_12h12.56.368,lexical_decision_task_MP_exp2,2020.2.5,Win32,60,,0,,,,,,,,0.16,-1,,,,,,9,WORD,"ID",33,hustle,HUSTLE,m,,,,,,,-2.920634921,-0.156084656,0,0,0,,0,43,43,8,1,,
,,,,,,,,,,,,,,,,,,999,2020-11-26_12h12.56.368,lexical_decision_task_MP_exp2,2020.2.5,Win32,60,,0,,,,,,,,0.16,-1,,,,,,423,NW,UN,16,praile,STRELD,z,,,,,,,-2.920634921,-0.156084656,0,0,0,,0,44,44,422,1,,
,,,,,,,,,,,,,,,,,,999,2020-11-26_12h12.56.368,lexical_decision_task_MP_exp2,2020.2.5,Win32,60,,0,,,,,,,,0.16,-1,,,,,,378,NW,UN,33,auting,SHRILE,z,,,,,,,-2.920634921,-0.156084656,0,0,0,,0,45,45,377,1,,
,,,,,,,,,,,,,,,,,,999,2020-11-26_12h12.56.368,lexical_decision_task_MP_exp2,2020.2.5,Win32,60,,0,,,,,,,,0.16,-1,,,,,,226,WORD,UN,16,flower,CASINO,m,,,,,,,-2.920634921,-0.156084656,0,0,0,,0,46,46,225,1,,
,,,,,,,,,,,,,,,,,,999,2020-11-26_12h12.56.368,lexical_decision_task_MP_exp2,2020.2.5,Win32,60,,0,,,,,,,,0.16,-1,,,,,,457,NW,UN,16,barcet,WANIGH,z,,,,,,,-2.920634921,-0.156084656,0,0,0,,0,47,47,456,1,,
,,,,,,,,,,,,,,,,,,999,2020-11-26_12h12.56.368,lexical_decision_task_MP_exp2,2020.2.5,Win32,60,,0,,,,,,,,0.16,-1,,,,,,272,NW,"ID",33,damilt,DAMILT,z,,,,,,,-2.920634921,-0.156084656,0,0,0,,0,48,48,271,1,,
,,,,,,,,,,,,,,,,,,999,2020-11-26_12h12.56.368,lexical_decision_task_MP_exp2,2020.2.5,Win32,60,,0,,,,,,,,0.16,-1,,,,,,306,NW,"ID",16,sounge,SOUNGE,z,,,,,,,-2.920634921,-0.156084656,0,0,0,,0,49,49,305,1,,
,,,,,,,,,,,,,,,,,,999,2020-11-26_12h12.56.368,lexical_decision_task_MP_exp2,2020.2.5,Win32,60,,0,,,,,,,,0.16,-1,,,,,,398,NW,UN,33,fouret,BLUNDE,z,,,,,,,-2.920634921,-0.156084656,0,0,0,,0,50,50,397,1,,
,,,,,,,,,,,,,,,,,,999,2020-11-26_12h12.56.368,lexical_decision_task_MP_exp2,2020.2.5,Win32,60,,0,,,,,,,,0.16,-1,,,,,,50,WORD,"ID",33,snatch,SNATCH,m,,,,,,,-2.920634921,-0.156084656,0,0,0,,0,51,51,49,1,,
,,,,,,,,,,,,,,,,,,999,2020-11-26_12h12.56.368,lexical_decision_task_MP_exp2,2020.2.5,Win32,60,,0,,,,,,,,0.16,-1,,,,,,69,WORD,"ID",16,plenty,PLENTY,m,,,,,,,-2.920634921,-0.156084656,0,0,0,,0,52,52,68,1,,
,,,,,,,,,,,,,,,,,,999,2020-11-26_12h12.56.368,lexical_decision_task_MP_exp2,2020.2.5,Win32,60,,0,,,,,,,,0.16,-1,,,,,,46,WORD,"ID",33,single,SINGLE,m,,,,,,,-2.920634921,-0.156084656,0,0,0,,0,53,53,45,1,,
,,,,,,,,,,,,,,,,,,999,2020-11-26_12h12.56.368,lexical_decision_task_MP_exp2,2020.2.5,Win32,60,,0,,,,,,,,0.16,-1,,,,,,359,NW,"ID",16,fonver,FONVER,z,,,,,,,-2.920634921,-0.156084656,0,0,0,,0,54,54,358,1,,
,,,,,,,,,,,,,,,,,,999,2020-11-26_12h12.56.368,lexical_decision_task_MP_exp2,2020.2.5,Win32,60,,0,,,,,,,,0.16,-1,,,,,,265,NW,"ID",33,distar,DISTAR,z,,,,,,,-2.920634921,-0.156084656,0,0,0,,0,55,55,264,1,,
,,,,,,,,,,,,,,,,,,999,2020-11-26_12h12.56.368,lexical_decision_task_MP_exp2,2020.2.5,Win32,60,,0,,,,,,,,0.16,-1,,,,,,165,WORD,UN,33,starch,INVEST,m,,,,,,,-2.920634921,-0.156084656,0,0,0,,0,56,56,164,1,,
,,,,,,,,,,,,,,,,,,999,2020-11-26_12h12.56.368,lexical_decision_task_MP_exp2,2020.2.5,Win32,60,,0,,,,,,,,0.16,-1,,,,,,369,NW,UN,33,sleact,WRONCH,z,,,,,,,-2.920634921,-0.156084656,0,0,0,,0,57,57,368,1,,
,,,,,,,,,,,,,,,,,,999,2020-11-26_12h12.56.368,lexical_decision_task_MP_exp2,2020.2.5,Win32,60,,0,,,,,,,,0.16,-1,,,,,,403,NW,UN,33,cluirm,BRUATS,z,,,,,,,-2.920634921,-0.156084656,0,0,0,,0,58,58,402,1,,
,,,,,,,,,,,,,,,,,,999,2020-11-26_12h12.56.368,lexical_decision_task_MP_exp2,2020.2.5,Win32,60,,0,,,,,,,,0.16,-1,,,,,,228,WORD,UN,16,inject,MASTER,m,,,,,,,-2.920634921,-0.156084656,0,0,0,,0,59,59,227,1,,
,,,,,,,,,,,,,,,,,,999,2020-11-26_12h12.56.368,lexical_decision_task_MP_exp2,2020.2.5,Win32,60,,0,,,,,,,,0.16,-1,,,,,,394,NW,UN,33,colury,SPAQUX,z,,,,,,,-2.920634921,-0.156084656,0,0,0,,0,60,60,393,1,,
,,,,,,,,,,,,,,,,,,999,2020-11-26_12h12.56.368,lexical_decision_task_MP_exp2,2020.2.5,Win32,60,,0,,,,,,,,0.16,-1,,,,,,293,NW,"ID",33,swance,SWANCE,z,,,,,,,-2.920634921,-0.156084656,0,0,0,,0,61,61,292,1,,
,,,,,,,,,,,,,,,,,,999,2020-11-26_12h12.56.368,lexical_decision_task_MP_exp2,2020.2.5,Win32,60,,0,,,,,,,,0.16,-1,,,,,,30,WORD,"ID",33,orient,ORIENT,m,,,,,,,-2.920634921,-0.156084656,0,0,0,,0,62,62,29,1,,
,,,,,,,,,,,,,,,,,,999,2020-11-26_12h12.56.368,lexical_decision_task_MP_exp2,2020.2.5,Win32,60,,0,,,,,,,,0.16,-1,,,,,,19,WORD,"ID",33,patron,PATRON,m,,,,,,,-2.920634921,-0.156084656,0,0,0,,0,63,63,18,1,,
,,,,,,,,,,,,,,,,,,999,2020-11-26_12h12.56.368,lexical_decision_task_MP_exp2,2020.2.5,Win32,60,,0,,,,,,,,0.16,-1,,,,,,241,NW,"ID",33,smenco,SMENCO,z,,,,,,,-2.920634921,-0.156084656,0,0,0,,0,64,64,240,1,,
,,,,,,,,,,,,,,,,,,999,2020-11-26_12h12.56.368,lexical_decision_task_MP_exp2,2020.2.5,Win32,60,,0,,,,,,,,0.16,-1,,,,,,460,NW,UN,16,justre,MINGAR,z,,,,,,,-2.920634921,-0.156084656,0,0,0,,0,65,65,459,1,,
,,,,,,,,,,,,,,,,,,999,2020-11-26_12h12.56.368,lexical_decision_task_MP_exp2,2020.2.5,Win32,60,,0,,,,,,,,0.16,-1,,,,,,85,WORD,"ID",16,sprawl,SPRAWL,m,,,,,,,-2.920634921,-0.156084656,0,0,0,,0,66,66,84,1,,
,,,,,,,,,,,,,,,,,,999,2020-11-26_12h12.56.368,lexical_decision_task_MP_exp2,2020.2.5,Win32,60,,0,,,,,,,,0.16,-1,,,,,,157,WORD,UN,33,island,DRAGON,m,,,,,,,-2.920634921,-0.156084656,0,0,0,,0,67,67,156,1,,
,,,,,,,,,,,,,,,,,,999,2020-11-26_12h12.56.368,lexical_decision_task_MP_exp2,2020.2.5,Win32,60,,0,,,,,,,,0.16,-1,,,,,,256,NW,"ID",33,inlors,INLORS,z,,,,,,,-2.920634921,-0.156084656,0,0,0,,0,68,68,255,1,,
,,,,,,,,,,,,,,,,,,999,2020-11-26_12h12.56.368,lexical_decision_task_MP_exp2,2020.2.5,Win32,60,,0,,,,,,,,0.16,-1,,,,,,333,NW,"ID",16,catrie,CATRIE,z,,,,,,,-2.920634921,-0.156084656,0,0,0,,0,69,69,332,1,,
,,,,,,,,,,,,,,,,,,999,2020-11-26_12h12.56.368,lexical_decision_task_MP_exp2,2020.2.5,Win32,60,,0,,,,,,,,0.16,-1,,,,,,368,NW,UN,33,wronch,HORNAL,z,,,,,,,-2.920634921,-0.156084656,0,0,0,,0,70,70,367,1,,
,,,,,,,,,,,,,,,,,,999,2020-11-26_12h12.56.368,lexical_decision_task_MP_exp2,2020.2.5,Win32,60,,0,,,,,,,,0.16,-1,,,,,,318,NW,"ID",16,reagly,REAGLY,z,,,,,,,-2.920634921,-0.156084656,0,0,0,,0,71,71,317,1,,
,,,,,,,,,,,,,,,,,,999,2020-11-26_12h12.56.368,lexical_decision_task_MP_exp2,2020.2.5,Win32,60,,0,,,,,,,,0.16,-1,,,,,,474,NW,UN,16,gorbie,HABLIN,z,,,,,,,-2.920634921,-0.156084656,0,0,0,,0,72,72,473,1,,
,,,,,,,,,,,,,,,,,,999,2020-11-26_12h12.56.368,lexical_decision_task_MP_exp2,2020.2.5,Win32,60,,0,,,,,,,,0.16,-1,,,,,,187,WORD,UN,16,social,COURSE,m,,,,,,,-2.920634921,-0.156084656,0,0,0,,0,73,73,186,1,,
,,,,,,,,,,,,,,,,,,999,2020-11-26_12h12.56.368,lexical_decision_task_MP_exp2,2020.2.5,Win32,60,,0,,,,,,,,0.16,-1,,,,,,215,WORD,UN,16,behalf,PHOBIA,m,,,,,,,-2.920634921,-0.156084656,0,0,0,,0,74,74,214,1,,
,,,,,,,,,,,,,,,,,,999,2020-11-26_12h12.56.368,lexical_decision_task_MP_exp2,2020.2.5,Win32,60,,0,,,,,,,,0.16,-1,,,,,,289,NW,"ID",33,starby,STARBY,z,,,,,,,-2.920634921,-0.156084656,0,0,0,,0,75,75,288,1,,
,,,,,,,,,,,,,,,,,,999,2020-11-26_12h12.56.368,lexical_decision_task_MP_exp2,2020.2.5,Win32,60,,0,,,,,,,,0.16,-1,,,,,,119,WORD,"ID",16,spider,SPIDER,m,,,,,,,-2.920634921,-0.156084656,0,0,0,,0,76,76,118,1,,
,,,,,,,,,,,,,,,,,,999,2020-11-26_12h12.56.368,lexical_decision_task_MP_exp2,2020.2.5,Win32,60,,0,,,,,,,,0.16,-1,,,,,,313,NW,"ID",16,paurse,PAURSE,z,,,,,,,-2.920634921,-0.156084656,0,0,0,,0,77,77,312,1,,
,,,,,,,,,,,,,,,,,,999,2020-11-26_12h12.56.368,lexical_decision_task_MP_exp2,2020.2.5,Win32,60,,0,,,,,,,,0.16,-1,,,,,,451,NW,UN,16,surden,CAINKY,z,,,,,,,-2.920634921,-0.156084656,0,0,0,,0,78,78,450,1,,
,,,,,,,,,,,,,,,,,,999,2020-11-26_12h12.56.368,lexical_decision_task_MP_exp2,2020.2.5,Win32,60,,0,,,,,,,,0.16,-1,,,,,,43,WORD,"ID",33,tongue,TONGUE,m,,,,,,,-2.920634921,-0.156084656,0,0,0,,0,79,79,42,1,,
,,,,,,,,,,,,,,,,,,999,2020-11-26_12h12.56.368,lexical_decision_task_MP_exp2,2020.2.5,Win32,60,,0,,,,,,,,0.16,-1,,,,,,134,WORD,UN,33,import,STAPLE,m,,,,,,,-2.920634921,-0.156084656,0,0,0,,0,80,80,133,1,,
,,,,,,,,,,,,,,,,,,999,2020-11-26_12h12.56.368,lexical_decision_task_MP_exp2,2020.2.5,Win32,60,,0,,,,,,,,0.16,-1,,,,,,27,WORD,"ID",33,scream,SCREAM,m,,,,,,,-2.920634921,-0.156084656,0,0,0,,0,81,81,26,1,,
,,,,,,,,,,,,,,,,,,999,2020-11-26_12h12.56.368,lexical_decision_task_MP_exp2,2020.2.5,Win32,60,,0,,,,,,,,0.16,-1,,,,,,74,WORD,"ID",16,plaque,PLAQUE,m,,,,,,,-2.920634921,-0.156084656,0,0,0,,0,82,82,73,1,,
,,,,,,,,,,,,,,,,,,999,2020-11-26_12h12.56.368,lexical_decision_task_MP_exp2,2020.2.5,Win32,60,,0,,,,,,,,0.16,-1,,,,,,433,NW,UN,16,pitrom,DRANCE,z,,,,,,,-2.920634921,-0.156084656,0,0,0,,0,83,83,432,1,,
,,,,,,,,,,,,,,,,,,999,2020-11-26_12h12.56.368,lexical_decision_task_MP_exp2,2020.2.5,Win32,60,,0,,,,,,,,0.16,-1,,,,,,366,NW,UN,33,slique,TOSHEL,z,,,,,,,-2.920634921,-0.156084656,0,0,0,,0,84,84,365,1,,
,,,,,,,,,,,,,,,,,,999,2020-11-26_12h12.56.368,lexical_decision_task_MP_exp2,2020.2.5,Win32,60,,0,,,,,,,,0.16,-1,,,,,,355,NW,"ID",16,zingly,ZINGLY,z,,,,,,,-2.920634921,-0.156084656,0,0,0,,0,85,85,354,1,,
,,,,,,,,,,,,,,,,,,999,2020-11-26_12h12.56.368,lexical_decision_task_MP_exp2,2020.2.5,Win32,60,,0,,,,,,,,0.16,-1,,,,,,33,WORD,"ID",33,butler,BUTLER,m,,,,,,,-2.920634921,-0.156084656,0,0,0,,0,86,86,32,1,,
,,,,,,,,,,,,,,,,,,999,2020-11-26_12h12.56.368,lexical_decision_task_MP_exp2,2020.2.5,Win32,60,,0,,,,,,,,0.16,-1,,,,,,243,NW,"ID",33,musied,MUSIED,z,,,,,,,-2.920634921,-0.156084656,0,0,0,,0,87,87,242,1,,
,,,,,,,,,,,,,,,,,,999,2020-11-26_12h12.56.368,lexical_decision_task_MP_exp2,2020.2.5,Win32,60,,0,,,,,,,,0.16,-1,,,,,,15,WORD,"ID",33,amount,AMOUNT,m,,,,,,,-2.920634921,-0.156084656,0,0,0,,0,88,88,14,1,,
,,,,,,,,,,,,,,,,,,999,2020-11-26_12h12.56.368,lexical_decision_task_MP_exp2,2020.2.5,Win32,60,,0,,,,,,,,0.16,-1,,,,,,182,WORD,UN,16,basket,WINTER,m,,,,,,,-2.920634921,-0.156084656,0,0,0,,0,89,89,181,1,,
,,,,,,,,,,,,,,,,,,999,2020-11-26_12h12.56.368,lexical_decision_task_MP_exp2,2020.2.5,Win32,60,,0,,,,,,,,0.16,-1,,,,,,106,WORD,"ID",16,ransom,RANSOM,m,,,,,,,-2.920634921,-0.156084656,0,0,0,,0,90,90,105,1,,
,,,,,,,,,,,,,,,,,,999,2020-11-26_12h12.56.368,lexical_decision_task_MP_exp2,2020.2.5,Win32,60,,0,,,,,,,,0.16,-1,,,,,,386,NW,UN,33,gronce,ANCUST,z,,,,,,,-2.920634921,-0.156084656,0,0,0,,0,91,91,385,1,,
,,,,,,,,,,,,,,,,,,999,2020-11-26_12h12.56.368,lexical_decision_task_MP_exp2,2020.2.5,Win32,60,,0,,,,,,,,0.16,-1,,,,,,332,NW,"ID",16,vangue,VANGUE,z,,,,,,,-2.920634921,-0.156084656,0,0,0,,0,92,92,331,1,,
,,,,,,,,,,,,,,,,,,999,2020-11-26_12h12.56.368,lexical_decision_task_MP_exp2,2020.2.5,Win32,60,,0,,,,,,,,0.16,-1,,,,,,413,NW,UN,33,serbol,EQUATS,z,,,,,,,-2.920634921,-0.156084656,0,0,0,,0,93,93,412,1,,
,,,,,,,,,,,,,,,,,,999,2020-11-26_12h12.56.368,lexical_decision_task_MP_exp2,2020.2.5,Win32,60,,0,,,,,,,,0.16,-1,,,,,,120,WORD,"ID",16,strain,STRAIN,m,,,,,,,-2.920634921,-0.156084656,0,0,0,,0,94,94,119,1,,
,,,,,,,,,,,,,,,,,,999,2020-11-26_12h12.56.368,lexical_decision_task_MP_exp2,2020.2.5,Win32,60,,0,,,,,,,,0.16,-1,,,,,,3,WORD,"ID",33,knight,KNIGHT,m,,,,,,,-2.920634921,-0.156084656,0,0,0,,0,95,95,2,1,,
,,,,,,,,,,,,,,,,,,999,2020-11-26_12h12.56.368,lexical_decision_task_MP_exp2,2020.2.5,Win32,60,,0,,,,,,,,0.16,-1,,,,,,54,WORD,"ID",33,ramble,RAMBLE,m,,,,,,,-2.920634921,-0.156084656,0,0,0,,0,96,96,53,1,,
,,,,,,,,,,,,,,,,,,999,2020-11-26_12h12.56.368,lexical_decision_task_MP_exp2,2020.2.5,Win32,60,,0,,,,,,,,0.16,-1,,,,,,308,NW,"ID",16,psetch,PSETCH,z,,,,,,,-2.920634921,-0.156084656,0,0,0,,0,97,97,307,1,,
,,,,,,,,,,,,,,,,,,999,2020-11-26_12h12.56.368,lexical_decision_task_MP_exp2,2020.2.5,Win32,60,,0,,,,,,,,0.16,-1,,,,,,388,NW,UN,33,witmer,CRAGIN,z,,,,,,,-2.920634921,-0.156084656,0,0,0,,0,98,98,387,1,,
,,,,,,,,,,,,,,,,,,999,2020-11-26_12h12.56.368,lexical_decision_task_MP_exp2,2020.2.5,Win32,60,,0,,,,,,,,0.16,-1,,,,,,67,WORD,"ID",16,policy,POLICY,m,,,,,,,-2.920634921,-0.156084656,0,0,0,,0,99,99,66,1,,
,,,,,,,,,,,,,,,,,,999,2020-11-26_12h12.56.368,lexical_decision_task_MP_exp2,2020.2.5,Win32,60,,0,,,,,,,,0.16,-1,,,,,,376,NW,UN,33,sliant,IGUARE,z,,,,,,,-2.920634921,-0.156084656,0,0,0,,0,100,100,375,1,,
,,,,,,,,,,,,,,,,,,999,2020-11-26_12h12.56.368,lexical_decision_task_MP_exp2,2020.2.5,Win32,60,,0,,,,,,,,0.16,-1,,,,,,477,NW,UN,16,acrise,PHOTIE,z,,,,,,,-2.920634921,-0.156084656,0,0,0,,0,101,101,476,1,,
,,,,,,,,,,,,,,,,,,999,2020-11-26_12h12.56.368,lexical_decision_task_MP_exp2,2020.2.5,Win32,60,,0,,,,,,,,0.16,-1,,,,,,316,NW,"ID",16,scregm,SCREGM,z,,,,,,,-2.920634921,-0.156084656,0,0,0,,0,102,102,315,1,,
,,,,,,,,,,,,,,,,,,999,2020-11-26_12h12.56.368,lexical_decision_task_MP_exp2,2020.2.5,Win32,60,,0,,,,,,,,0.16,-1,,,,,,348,NW,"ID",16,dumple,DUMPLE,z,,,,,,,-2.920634921,-0.156084656,0,0,0,,0,103,103,347,1,,
,,,,,,,,,,,,,,,,,,999,2020-11-26_12h12.56.368,lexical_decision_task_MP_exp2,2020.2.5,Win32,60,,0,,,,,,,,0.16,-1,,,,,,28,WORD,"ID",33,comedy,COMEDY,m,,,,,,,-2.920634921,-0.156084656,0,0,0,,0,104,104,27,1,,
,,,,,,,,,,,,,,,,,,999,2020-11-26_12h12.56.368,lexical_decision_task_MP_exp2,2020.2.5,Win32,60,,0,,,,,,,,0.16,-1,,,,,,441,NW,UN,16,aboune,RASTOE,z,,,,,,,-2.920634921,-0.156084656,0,0,0,,0,105,105,440,1,,
,,,,,,,,,,,,,,,,,,999,2020-11-26_12h12.56.368,lexical_decision_task_MP_exp2,2020.2.5,Win32,60,,0,,,,,,,,0.16,-1,,,,,,475,NW,UN,16,robuly,PEBRIC,z,,,,,,,-2.920634921,-0.156084656,0,0,0,,0,106,106,474,1,,
,,,,,,,,,,,,,,,,,,999,2020-11-26_12h12.56.368,lexical_decision_task_MP_exp2,2020.2.5,Win32,60,,0,,,,,,,,0.16,-1,,,,,,151,WORD,UN,33,rocket,MYSTIC,m,,,,,,,-2.920634921,-0.156084656,0,0,0,,0,107,107,150,1,,
,,,,,,,,,,,,,,,,,,999,2020-11-26_12h12.56.368,lexical_decision_task_MP_exp2,2020.2.5,Win32,60,,0,,,,,,,,0.16,-1,,,,,,253,NW,"ID",33,resait,RESAIT,z,,,,,,,-2.920634921,-0.156084656,0,0,0,,0,108,108,252,1,,
,,,,,,,,,,,,,,,,,,999,2020-11-26_12h12.56.368,lexical_decision_task_MP_exp2,2020.2.5,Win32,60,,0,,,,,,,,0.16,-1,,,,,,260,NW,"ID",33,unject,UNJECT,z,,,,,,,-2.920634921,-0.156084656,0,0,0,,0,109,109,259,1,,
,,,,,,,,,,,,,,,,,,999,2020-11-26_12h12.56.368,lexical_decision_task_MP_exp2,2020.2.5,Win32,60,,0,,,,,,,,0.16,-1,,,,,,24,WORD,"ID",33,praise,PRAISE,m,,,,,,,-2.920634921,-0.156084656,0,0,0,,0,110,110,23,1,,
,,,,,,,,,,,,,,,,,,999,2020-11-26_12h12.56.368,lexical_decision_task_MP_exp2,2020.2.5,Win32,60,,0,,,,,,,,0.16,-1,,,,,,434,NW,UN,16,impurb,PITROM,z,,,,,,,-2.920634921,-0.156084656,0,0,0,,0,111,111,433,1,,
,,,,,,,,,,,,,,,,,,999,2020-11-26_12h12.56.368,lexical_decision_task_MP_exp2,2020.2.5,Win32,60,,0,,,,,,,,0.16,-1,,,,,,100,WORD,"ID",16,carbon,CARBON,m,,,,,,,-2.920634921,-0.156084656,0,0,0,,0,112,112,99,1,,
,,,,,,,,,,,,,,,,,,999,2020-11-26_12h12.56.368,lexical_decision_task_MP_exp2,2020.2.5,Win32,60,,0,,,,,,,,0.16,-1,,,,,,420,NW,UN,33,pauche,GUSHOP,z,,,,,,,-2.920634921,-0.156084656,0,0,0,,0,113,113,419,1,,
,,,,,,,,,,,,,,,,,,999,2020-11-26_12h12.56.368,lexical_decision_task_MP_exp2,2020.2.5,Win32,60,,0,,,,,,,,0.16,-1,,,,,,92,WORD,"ID",16,strand,STRAND,m,,,,,,,-2.920634921,-0.156084656,0,0,0,,0,114,114,91,1,,
,,,,,,,,,,,,,,,,,,999,2020-11-26_12h12.56.368,lexical_decision_task_MP_exp2,2020.2.5,Win32,60,,0,,,,,,,,0.16,-1,,,,,,76,WORD,"ID",16,exotic,EXOTIC,m,,,,,,,-2.920634921,-0.156084656,0,0,0,,0,115,115,75,1,,
,,,,,,,,,,,,,,,,,,999,2020-11-26_12h12.56.368,lexical_decision_task_MP_exp2,2020.2.5,Win32,60,,0,,,,,,,,0.16,-1,,,,,,38,WORD,"ID",33,powder,POWDER,m,,,,,,,-2.920634921,-0.156084656,0,0,0,,0,116,116,37,1,,
,,,,,,,,,,,,,,,,,,999,2020-11-26_12h12.56.368,lexical_decision_task_MP_exp2,2020.2.5,Win32,60,,0,,,,,,,,0.16,-1,,,,,,468,NW,UN,16,padifs,WICTOR,z,,,,,,,-2.920634921,-0.156084656,0,0,0,,0,117,117,467,1,,
,,,,,,,,,,,,,,,,,,999,2020-11-26_12h12.56.368,lexical_decision_task_MP_exp2,2020.2.5,Win32,60,,0,,,,,,,,0.16,-1,,,,,,47,WORD,"ID",33,income,INCOME,m,,,,,,,-2.920634921,-0.156084656,0,0,0,,0,118,118,46,1,,
,,,,,,,,,,,,,,,,,,999,2020-11-26_12h12.56.368,lexical_decision_task_MP_exp2,2020.2.5,Win32,60,,0,,,,,,,,0.16,-1,,,,,,20,WORD,"ID",33,breast,BREAST,m,,,,,,,-2.920634921,-0.156084656,0,0,0,,0,119,119,19,1,,
,,,,,,,,,,,,,,,,,,999,2020-11-26_12h12.56.368,lexical_decision_task_MP_exp2,2020.2.5,Win32,60,,0,,,,,,,,0.16,-1,,,,,,312,NW,"ID",16,nerawl,NERAWL,z,,,,,,,-1.354497354,-0.023809524,0,0,0,space,0,120,120,311,1,2723.43,
,,,,,,,,,,,,,,,,,,999,2020-11-26_12h12.56.368,lexical_decision_task_MP_exp2,2020.2.5,Win32,60,,0,-0.64021164,-0.283068783,1,0,0,0.831,button_left,0.831,1,,,,,,360,NW,"ID",16,desory,DESORY,z,,,,,,,-0.518518519,-0.304232804,1,0,0,,0,121,121,359,1,,
,,,,,,,,,,,,,,,,,,999,2020-11-26_12h12.56.368,lexical_decision_task_MP_exp2,2020.2.5,Win32,60,,0,-0.439153439,-0.293650794,1,0,0,0.179,button_left,0.179,0,,,,,,11,WORD,"ID",33,cruise,CRUISE,m,,,,,,,-0.439153439,-0.293650794,1,0,0,,0,122,122,10,1,,
,,,,,,,,,,,,,,,,,,999,2020-11-26_12h12.56.368,lexical_decision_task_MP_exp2,2020.2.5,Win32,60,,0,-0.439153439,-0.293650794,1,0,0,1.881,button_left,1.881,0,,,,,,2,WORD,"ID",33,bridge,BRIDGE,m,,,,,,,-0.439153439,-0.293650794,1,0,0,,0,123,123,1,1,,
,,,,,,,,,,,,,,,,,,999,2020-11-26_12h12.56.368,lexical_decision_task_MP_exp2,2020.2.5,Win32,60,,0,-0.439153439,-0.293650794,1,0,0,0.247,button_left,0.247,1,,,,,,248,NW,"ID",33,strole,STROLE,z,,,,,,,-0.439153439,-0.293650794,1,0,0,,0,124,124,247,1,,
,,,,,,,,,,,,,,,,,,999,2020-11-26_12h12.56.368,lexical_decision_task_MP_exp2,2020.2.5,Win32,60,,0,0.317460317,-0.272486772,1,0,0,0.364,button_right,0.364,0,,,,,,266,NW,"ID",33,varmit,VARMIT,z,,,,,,,0.317460317,-0.272486772,1,0,0,,0,125,125,265,1,,
,,,,,,,,,,,,,,,,,,999,2020-11-26_12h12.56.368,lexical_decision_task_MP_exp2,2020.2.5,Win32,60,,0,-0.396825397,-0.314814815,1,0,0,0.214,button_left,0.214,0,,,,,,149,WORD,UN,33,random,INVADE,m,,,,,,,-0.396825397,-0.314814815,1,0,0,,0,126,126,148,1,,
,,,,,,,,,,,,,,,,,,999,2020-11-26_12h12.56.368,lexical_decision_task_MP_exp2,2020.2.5,Win32,60,,0,,,,,,,,0.214,-1,,,,,,75,WORD,"ID",16,trophy,TROPHY,m,,,,,,,-0.28042328,-0.182539683,0,0,0,,0,127,127,74,1,,
,,,,,,,,,,,,,,,,,,999,2020-11-26_12h12.56.368,lexical_decision_task_MP_exp2,2020.2.5,Win32,60,,0,-0.253968254,-0.283068783,1,0,0,0.481,button_left,0.481,0,,,,,,233,WORD,UN,16,clumsy,NATURE,m,,,,,,,-0.253968254,-0.283068783,1,0,0,,0,128,128,232,1,,
,,,,,,,,,,,,,,,,,,999,2020-11-26_12h12.56.368,lexical_decision_task_MP_exp2,2020.2.5,Win32,60,,0,-0.253968254,-0.283068783,1,0,0,0.281,button_left,0.281,1,,,,,,315,NW,"ID",16,laston,LASTON,z,,,,,,,-0.253968254,-0.283068783,1,0,0,,0,129,129,314,1,,
,,,,,,,,,,,,,,,,,,999,2020-11-26_12h12.56.368,lexical_decision_task_MP_exp2,2020.2.5,Win32,60,,0,,,,,,,,0.281,-1,,,,,,45,WORD,"ID",33,clergy,CLERGY,m,,,,,,,6.740740741,0.404761905,0,0,0,,0,130,130,44,1,,
,,,,,,,,,,,,,,,,,,999,2020-11-26_12h12.56.368,lexical_decision_task_MP_exp2,2020.2.5,Win32,60,,0,,,,,,,,0.281,-1,,,,,,150,WORD,UN,33,mystic,RANDOM,m,,,,,,,6.740740741,0.404761905,0,0,0,,0,131,131,149,1,,
,,,,,,,,,,,,,,,,,,999,2020-11-26_12h12.56.368,lexical_decision_task_MP_exp2,2020.2.5,Win32,60,,0,,,,,,,,0.281,-1,,,,,,122,WORD,UN,33,strike,LINGER,m,,,,,,,6.740740741,0.404761905,0,0,0,,0,132,132,121,1,,
,,,,,,,,,,,,,,,,,,999,2020-11-26_12h12.56.368,lexical_decision_task_MP_exp2,2020.2.5,Win32,60,,0,,,,,,,,0.281,-1,,,,,,277,NW,"ID",33,petain,PETAIN,z,,,,,,,6.740740741,0.404761905,0,0,0,,0,133,133,276,1,,
,,,,,,,,,,,,,,,,,,999,2020-11-26_12h12.56.368,lexical_decision_task_MP_exp2,2020.2.5,Win32,60,,0,,,,,,,,0.281,-1,,,,,,354,NW,"ID",16,virlex,VIRLEX,z,,,,,,,6.740740741,0.404761905,0,0,0,,0,134,134,353,1,,
,,,,,,,,,,,,,,,,,,999,2020-11-26_12h12.56.368,lexical_decision_task_MP_exp2,2020.2.5,Win32,60,,0,,,,,,,,0.281,-1,,,,,,137,WORD,UN,33,melody,FINGER,m,,,,,,,6.740740741,0.404761905,0,0,0,,0,135,135,136,1,,
,,,,,,,,,,,,,,,,,,999,2020-11-26_12h12.56.368,lexical_decision_task_MP_exp2,2020.2.5,Win32,60,,0,,,,,,,,0.281,-1,,,,,,209,WORD,UN,16,monkey,SEARCH,m,,,,,,,6.740740741,0.404761905,0,0,0,,0,136,136,208,1,,
,,,,,,,,,,,,,,,,,,999,2020-11-26_12h12.56.368,lexical_decision_task_MP_exp2,2020.2.5,Win32,60,,0,,,,,,,,0.281,-1,,,,,,12,WORD,"ID",33,orange,ORANGE,m,,,,,,,6.740740741,0.404761905,0,0,0,,0,137,137,11,1,,
,,,,,,,,,,,,,,,,,,999,2020-11-26_12h12.56.368,lexical_decision_task_MP_exp2,2020.2.5,Win32,60,,0,,,,,,,,0.281,-1,,,,,,158,WORD,UN,33,detail,ISLAND,m,,,,,,,6.740740741,0.404761905,0,0,0,,0,138,138,157,1,,
,,,,,,,,,,,,,,,,,,999,2020-11-26_12h12.56.368,lexical_decision_task_MP_exp2,2020.2.5,Win32,60,,0,,,,,,,,0.281,-1,,,,,,98,WORD,"ID",16,belong,BELONG,m,,,,,,,6.740740741,0.404761905,0,0,0,,0,139,139,97,1,,
,,,,,,,,,,,,,,,,,,999,2020-11-26_12h12.56.368,lexical_decision_task_MP_exp2,2020.2.5,Win32,60,,0,,,,,,,,0.281,-1,,,,,,439,NW,UN,16,saride,LIMPOR,z,,,,,,,6.740740741,0.404761905,0,0,0,,0,140,140,438,1,,
,,,,,,,,,,,,,,,,,,999,2020-11-26_12h12.56.368,lexical_decision_task_MP_exp2,2020.2.5,Win32,60,,0,0.306878307,-0.341269841,1,0,0,0.147,button_right,0.147,1,,,,,,140,WORD,UN,33,reason,PRINCE,m,,,,,,,0.306878307,-0.341269841,1,0,0,,0,141,141,139,1,,
,,,,,,,,,,,,,,,,,,999,2020-11-26_12h12.56.368,lexical_decision_task_MP_exp2,2020.2.5,Win32,60,,0,0.306878307,-0.341269841,1,0,0,0.91,button_right,0.91,1,,,,,,191,WORD,UN,16,absent,STABLE,m,,,,,,,0.306878307,-0.341269841,1,0,0,,0,142,142,190,1,,
,,,,,,,,,,,,,,,,,,999,2020-11-26_12h12.56.368,lexical_decision_task_MP_exp2,2020.2.5,Win32,60,,0,,,,,,,,0.91,-1,,,,,,36,WORD,"ID",33,vanish,VANISH,m,,,,,,,-0.005291005,-0.246031746,0,0,0,,0,143,143,35,1,,
,,,,,,,,,,,,,,,,,,999,2020-11-26_12h12.56.368,lexical_decision_task_MP_exp2,2020.2.5,Win32,60,,0,0.412698413,-0.208994709,1,0,0,0.247,button_right,0.247,1,,,,,,42,WORD,"ID",33,chapel,CHAPEL,m,,,,,,,0.412698413,-0.208994709,1,0,0,,0,144,144,41,1,,
,,,,,,,,,,,,,,,,,,999,2020-11-26_12h12.56.368,lexical_decision_task_MP_exp2,2020.2.5,Win32,60,,0,0.338624339,-0.32010582,1,0,0,0.098,button_right,0.098,0,,,,,,255,NW,"ID",33,apight,APIGHT,z,,,,,,,0.338624339,-0.32010582,1,0,0,,0,145,145,254,1,,
,,,,,,,,,,,,,,,,,,999,2020-11-26_12h12.56.368,lexical_decision_task_MP_exp2,2020.2.5,Win32,60,,0,,,,,,,,0.098,-1,,,,,,79,WORD,"ID",16,theory,THEORY,m,,,,,,,0.338624339,-0.32010582,0,0,0,,0,146,146,78,1,,
,,,,,,,,,,,,,,,,,,999,2020-11-26_12h12.56.368,lexical_decision_task_MP_exp2,2020.2.5,Win32,60,,0,,,,,,,,0.098,-1,,,,,,430,NW,UN,16,funtle,CAROEY,z,,,,,,,0.338624339,-0.32010582,0,0,0,,0,147,147,429,1,,
,,,,,,,,,,,,,,,,,,999,2020-11-26_12h12.56.368,lexical_decision_task_MP_exp2,2020.2.5,Win32,60,,0,,,,,,,,0.098,-1,,,,,,297,NW,"ID",33,fertic,FERTIC,z,,,,,,,-0.073239437,-0.021126761,0,0,0,,0,148,148,296,1,,
,,,,,,,,,,,,,,,,,,999,2020-11-26_12h12.56.368,lexical_decision_task_MP_exp2,2020.2.5,Win32,60,,0,,,,,,,,0.098,-1,,,,,,371,NW,UN,33,ramily,GEILOY,z,,,,,,,-0.045070423,-0.209859155,0,0,0,,0,149,149,370,1,,
,,,,,,,,,,,,,,,,,,999,2020-11-26_12h12.56.368,lexical_decision_task_MP_exp2,2020.2.5,Win32,60,,0,,,,,,,,0.098,-1,,,,,,97,WORD,"ID",16,client,CLIENT,m,,,,,,,0.126760563,-0.229577465,0,0,0,,0,150,150,96,1,,
,,,,,,,,,,,,,,,,,,999,2020-11-26_12h12.56.368,lexical_decision_task_MP_exp2,2020.2.5,Win32,60,,0,0.284507042,-0.209859155,1,0,0,0.348,button_right,0.348,0,,,,,,480,NW,UN,16,knisma,ROBULY,z,,,,,,,0.284507042,-0.209859155,1,0,0,,0,151,151,479,1,,
,,,,,,,,,,,,,,,,,,999,2020-11-26_12h12.56.368,lexical_decision_task_MP_exp2,2020.2.5,Win32,60,,0,,,,,,,,0.348,-1,,,,,,281,NW,"ID",33,melaty,MELATY,z,,,,,,,0.284507042,-0.209859155,0,0,0,,0,152,152,280,1,,
,,,,,,,,,,,,,,,,,,999,2020-11-26_12h12.56.368,lexical_decision_task_MP_exp2,2020.2.5,Win32,60,,0,0.284507042,-0.246478873,1,0,0,0.297,button_right,0.297,1,,,,,,114,WORD,"ID",16,placid,PLACID,m,,,,,,,0.284507042,-0.246478873,1,0,0,,0,153,153,113,1,,
,,,,,,,,,,,,,,,,,,999,2020-11-26_12h12.56.368,lexical_decision_task_MP_exp2,2020.2.5,Win32,60,,0,,,,,,,,0.297,-1,,,,,,273,NW,"ID",33,sortel,SORTEL,z,,,,,,,-0.304225352,-0.246478873,0,0,0,,0,154,154,272,1,,
,,,,,,,,,,,,,,,,,,999,2020-11-26_12h12.56.368,lexical_decision_task_MP_exp2,2020.2.5,Win32,60,,0,,,,,,,,0.297,-1,,,,,,404,NW,UN,33,syntic,CLUIRM,z,,,,,,,-1.014084507,-0.477464789,0,0,0,,0,155,155,403,1,,
,,,,,,,,,,,,,,,,,,999,2020-11-26_12h12.56.368,lexical_decision_task_MP_exp2,2020.2.5,Win32,60,,0,,,,,,,,0.297,-1,,,,,,44,WORD,"ID",33,danger,DANGER,m,,,,,,,-1.014084507,-0.477464789,0,0,0,,0,156,156,43,1,,
,,,,,,,,,,,,,,,,,,999,2020-11-26_12h12.56.368,lexical_decision_task_MP_exp2,2020.2.5,Win32,60,,0,,,,,,,,0.297,-1,,,,,,258,NW,"ID",33,poluth,POLUTH,z,,,,,,,-1.014084507,-0.477464789,0,0,0,,0,157,157,257,1,,
,,,,,,,,,,,,,,,,,,999,2020-11-26_12h12.56.368,lexical_decision_task_MP_exp2,2020.2.5,Win32,60,,0,,,,,,,,0.297,-1,,,,,,57,WORD,"ID",33,change,CHANGE,m,,,,,,,-1.014084507,-0.477464789,0,0,0,,0,158,158,56,1,,
,,,,,,,,,,,,,,,,,,999,2020-11-26_12h12.56.368,lexical_decision_task_MP_exp2,2020.2.5,Win32,60,,0,,,,,,,,0.297,-1,,,,,,183,WORD,UN,16,sleazy,MILDEW,m,,,,,,,-1.014084507,-0.477464789,0,0,0,,0,159,159,182,1,,
,,,,,,,,,,,,,,,,,,999,2020-11-26_12h12.56.368,lexical_decision_task_MP_exp2,2020.2.5,Win32,60,,0,,,,,,,,0.297,-1,,,,,,321,NW,"ID",16,miator,MIATOR,z,,,,,,,-1.014084507,-0.477464789,0,0,0,,0,160,160,320,1,,
,,,,,,,,,,,,,,,,,,999,2020-11-26_12h12.56.368,lexical_decision_task_MP_exp2,2020.2.5,Win32,60,,0,,,,,,,,0.297,-1,,,,,,62,WORD,"ID",16,region,REGION,m,,,,,,,-1.014084507,-0.477464789,0,0,0,,0,161,161,61,1,,
,,,,,,,,,,,,,,,,,,999,2020-11-26_12h12.56.368,lexical_decision_task_MP_exp2,2020.2.5,Win32,60,,0,,,,,,,,0.297,-1,,,,,,341,NW,"ID",16,myrtie,MYRTIE,z,,,,,,,-1.014084507,-0.477464789,0,0,0,,0,162,162,340,1,,
,,,,,,,,,,,,,,,,,,999,2020-11-26_12h12.56.368,lexical_decision_task_MP_exp2,2020.2.5,Win32,60,,0,,,,,,,,0.297,-1,,,,,,166,WORD,UN,33,design,STARCH,m,,,,,,,-1.014084507,-0.477464789,0,0,0,,0,163,163,165,1,,
,,,,,,,,,,,,,,,,,,999,2020-11-26_12h12.56.368,lexical_decision_task_MP_exp2,2020.2.5,Win32,60,,0,,,,,,,,0.297,-1,,,,,,383,NW,UN,33,guesco,AUNGRE,z,,,,,,,-1.014084507,-0.477464789,0,0,0,,0,164,164,382,1,,
,,,,,,,,,,,,,,,,,,999,2020-11-26_12h12.56.368,lexical_decision_task_MP_exp2,2020.2.5,Win32,60,,0,,,,,,,,0.297,-1,,,,,,292,NW,"ID",33,ablint,ABLINT,z,,,,,,,-1.014084507,-0.477464789,0,0,0,,0,165,165,291,1,,
,,,,,,,,,,,,,,,,,,999,2020-11-26_12h12.56.368,lexical_decision_task_MP_exp2,2020.2.5,Win32,60,,0,,,,,,,,0.297,-1,,,,,,294,NW,"ID",33,inhort,INHORT,z,,,,,,,-1.014084507,-0.477464789,0,0,0,,0,166,166,293,1,,
,,,,,,,,,,,,,,,,,,999,2020-11-26_12h12.56.368,lexical_decision_task_MP_exp2,2020.2.5,Win32,60,,0,,,,,,,,0.297,-1,,,,,,330,NW,"ID",16,kensom,KENSOM,z,,,,,,,-1.014084507,-0.477464789,0,0,0,,0,167,167,329,1,,
,,,,,,,,,,,,,,,,,,999,2020-11-26_12h12.56.368,lexical_decision_task_MP_exp2,2020.2.5,Win32,60,,0,,,,,,,,0.297,-1,,,,,,39,WORD,"ID",33,insect,INSECT,m,,,,,,,-1.014084507,-0.477464789,0,0,0,,0,168,168,38,1,,
,,,,,,,,,,,,,,,,,,999,2020-11-26_12h12.56.368,lexical_decision_task_MP_exp2,2020.2.5,Win32,60,,0,,,,,,,,0.297,-1,,,,,,459,NW,UN,16,mingar,BAFENT,z,,,,,,,-1.014084507,-0.477464789,0,0,0,,0,169,169,458,1,,
,,,,,,,,,,,,,,,,,,999,2020-11-26_12h12.56.368,lexical_decision_task_MP_exp2,2020.2.5,Win32,60,,0,,,,,,,,0.297,-1,,,,,,88,WORD,"ID",16,hunger,HUNGER,m,,,,,,,-1.014084507,-0.477464789,0,0,0,,0,170,170,87,1,,
,,,,,,,,,,,,,,,,,,999,2020-11-26_12h12.56.368,lexical_decision_task_MP_exp2,2020.2.5,Win32,60,,0,,,,,,,,0.297,-1,,,,,,110,WORD,"ID",16,polite,POLITE,m,,,,,,,-1.014084507,-0.477464789,0,0,0,,0,171,171,109,1,,
,,,,,,,,,,,,,,,,,,999,2020-11-26_12h12.56.368,lexical_decision_task_MP_exp2,2020.2.5,Win32,60,,0,,,,,,,,0.297,-1,,,,,,456,NW,UN,16,wanigh,BROGET,z,,,,,,,-1.014084507,-0.477464789,0,0,0,,0,172,172,455,1,,
,,,,,,,,,,,,,,,,,,999,2020-11-26_12h12.56.368,lexical_decision_task_MP_exp2,2020.2.5,Win32,60,,0,,,,,,,,0.297,-1,,,,,,1,WORD,"ID",33,fright,FRIGHT,m,,,,,,,-1.014084507,-0.477464789,0,0,0,,0,173,173,0,1,,
,,,,,,,,,,,,,,,,,,999,2020-11-26_12h12.56.368,lexical_decision_task_MP_exp2,2020.2.5,Win32,60,,0,,,,,,,,0.297,-1,,,,,,124,WORD,UN,33,nickel,BLOUSE,m,,,,,,,-1.014084507,-0.477464789,0,0,0,,0,174,174,123,1,,
,,,,,,,,,,,,,,,,,,999,2020-11-26_12h12.56.368,lexical_decision_task_MP_exp2,2020.2.5,Win32,60,,0,,,,,,,,0.297,-1,,,,,,77,WORD,"ID",16,racket,RACKET,m,,,,,,,-1.014084507,-0.477464789,0,0,0,,0,175,175,76,1,,
,,,,,,,,,,,,,,,,,,999,2020-11-26_12h12.56.368,lexical_decision_task_MP_exp2,2020.2.5,Win32,60,,0,,,,,,,,0.297,-1,,,,,,396,NW,UN,33,camble,FLENGY,z,,,,,,,-1.014084507,-0.477464789,0,0,0,,0,176,176,395,1,,
,,,,,,,,,,,,,,,,,,999,2020-11-26_12h12.56.368,lexical_decision_task_MP_exp2,2020.2.5,Win32,60,,0,,,,,,,,0.297,-1,,,,,,249,NW,"ID",33,batrol,BATROL,z,,,,,,,-1.014084507,-0.477464789,0,0,0,,0,177,177,248,1,,
,,,,,,,,,,,,,,,,,,999,2020-11-26_12h12.56.368,lexical_decision_task_MP_exp2,2020.2.5,Win32,60,,0,,,,,,,,0.297,-1,,,,,,152,WORD,UN,33,behold,ROCKET,m,,,,,,,-1.014084507,-0.477464789,0,0,0,,0,178,178,151,1,,
,,,,,,,,,,,,,,,,,,999,2020-11-26_12h12.56.368,lexical_decision_task_MP_exp2,2020.2.5,Win32,60,,0,,,,,,,,0.297,-1,,,,,,89,WORD,"ID",16,permit,PERMIT,m,,,,,,,-1.014084507,-0.477464789,0,0,0,,0,179,179,88,1,,
,,,,,,,,,,,,,,,,,,999,2020-11-26_12h12.56.368,lexical_decision_task_MP_exp2,2020.2.5,Win32,60,,0,,,,,,,,0.297,-1,,,,,,370,NW,UN,33,geiloy,SLEACT,z,,,,,,,-1.014084507,-0.477464789,0,0,0,,0,180,180,369,1,,
,,,,,,,,,,,,,,,,,,999,2020-11-26_12h12.56.368,lexical_decision_task_MP_exp2,2020.2.5,Win32,60,,0,,,,,,,,0.297,-1,,,,,,139,WORD,UN,33,prince,DEBRIS,m,,,,,,,-1.014084507,-0.477464789,0,0,0,,0,181,181,138,1,,
,,,,,,,,,,,,,,,,,,999,2020-11-26_12h12.56.368,lexical_decision_task_MP_exp2,2020.2.5,Win32,60,,0,,,,,,,,0.297,-1,,,,,,300,NW,"ID",33,yarion,YARION,z,,,,,,,-1.014084507,-0.477464789,0,0,0,,0,182,182,299,1,,
,,,,,,,,,,,,,,,,,,999,2020-11-26_12h12.56.368,lexical_decision_task_MP_exp2,2020.2.5,Win32,60,,0,,,,,,,,0.297,-1,,,,,,61,WORD,"ID",16,ponder,PONDER,m,,,,,,,-1.014084507,-0.477464789,0,0,0,,0,183,183,60,1,,
,,,,,,,,,,,,,,,,,,999,2020-11-26_12h12.56.368,lexical_decision_task_MP_exp2,2020.2.5,Win32,60,,0,,,,,,,,0.297,-1,,,,,,331,NW,"ID",16,gilfew,GILFEW,z,,,,,,,-1.014084507,-0.477464789,0,0,0,,0,184,184,330,1,,
,,,,,,,,,,,,,,,,,,999,2020-11-26_12h12.56.368,lexical_decision_task_MP_exp2,2020.2.5,Win32,60,,0,,,,,,,,0.297,-1,,,,,,377,NW,UN,33,shrile,INJORE,z,,,,,,,-1.014084507,-0.477464789,0,0,0,,0,185,185,376,1,,
,,,,,,,,,,,,,,,,,,999,2020-11-26_12h12.56.368,lexical_decision_task_MP_exp2,2020.2.5,Win32,60,,0,,,,,,,,0.297,-1,,,,,,450,NW,UN,16,rastoe,PHRECT,z,,,,,,,-1.014084507,-0.477464789,0,0,0,,0,186,186,449,1,,
,,,,,,,,,,,,,,,,,,999,2020-11-26_12h12.56.368,lexical_decision_task_MP_exp2,2020.2.5,Win32,60,,0,,,,,,,,0.297,-1,,,,,,282,NW,"ID",33,porlex,PORLEX,z,,,,,,,-1.014084507,-0.477464789,0,0,0,,0,187,187,281,1,,
,,,,,,,,,,,,,,,,,,999,2020-11-26_12h12.56.368,lexical_decision_task_MP_exp2,2020.2.5,Win32,60,,0,,,,,,,,0.297,-1,,,,,,437,NW,UN,16,baitch,SNAPEL,z,,,,,,,-1.014084507,-0.477464789,0,0,0,,0,188,188,436,1,,
,,,,,,,,,,,,,,,,,,999,2020-11-26_12h12.56.368,lexical_decision_task_MP_exp2,2020.2.5,Win32,60,,0,,,,,,,,0.297,-1,,,,,,169,WORD,UN,33,pounce,GENIUS,m,,,,,,,-1.014084507,-0.477464789,0,0,0,,0,189,189,168,1,,
,,,,,,,,,,,,,,,,,,999,2020-11-26_12h12.56.368,lexical_decision_task_MP_exp2,2020.2.5,Win32,60,,0,,,,,,,,0.297,-1,,,,,,170,WORD,UN,33,depart,POUNCE,m,,,,,,,-1.014084507,-0.477464789,0,0,0,,0,190,190,169,1,,
,,,,,,,,,,,,,,,,,,999,2020-11-26_12h12.56.368,lexical_decision_task_MP_exp2,2020.2.5,Win32,60,,0,,,,,,,,0.297,-1,,,,,,8,WORD,"ID",33,abrupt,ABRUPT,m,,,,,,,-1.014084507,-0.477464789,0,0,0,,0,191,191,7,1,,
,,,,,,,,,,,,,,,,,,999,2020-11-26_12h12.56.368,lexical_decision_task_MP_exp2,2020.2.5,Win32,60,,0,,,,,,,,0.297,-1,,,,,,365,NW,UN,33,toshel,GUAIRT,z,,,,,,,-1.014084507,-0.477464789,0,0,0,,0,192,192,364,1,,
,,,,,,,,,,,,,,,,,,999,2020-11-26_12h12.56.368,lexical_decision_task_MP_exp2,2020.2.5,Win32,60,,0,,,,,,,,0.297,-1,,,,,,417,NW,UN,33,suidle,EAROUD,z,,,,,,,-1.014084507,-0.477464789,0,0,0,,0,193,193,416,1,,
,,,,,,,,,,,,,,,,,,999,2020-11-26_12h12.56.368,lexical_decision_task_MP_exp2,2020.2.5,Win32,60,,0,,,,,,,,0.297,-1,,,,,,48,WORD,"ID",33,walnut,WALNUT,m,,,,,,,-1.014084507,-0.477464789,0,0,0,,0,194,194,47,1,,
,,,,,,,,,,,,,,,,,,999,2020-11-26_12h12.56.368,lexical_decision_task_MP_exp2,2020.2.5,Win32,60,,0,,,,,,,,0.297,-1,,,,,,105,WORD,"ID",16,number,NUMBER,m,,,,,,,-1.014084507,-0.477464789,0,0,0,,0,195,195,104,1,,
,,,,,,,,,,,,,,,,,,999,2020-11-26_12h12.56.368,lexical_decision_task_MP_exp2,2020.2.5,Win32,60,,0,,,,,,,,0.297,-1,,,,,,301,NW,"ID",16,fainch,FAINCH,z,,,,,,,-1.014084507,-0.477464789,0,0,0,,0,196,196,300,1,,
,,,,,,,,,,,,,,,,,,999,2020-11-26_12h12.56.368,lexical_decision_task_MP_exp2,2020.2.5,Win32,60,,0,,,,,,,,0.297,-1,,,,,,83,WORD,"ID",16,result,RESULT,m,,,,,,,-1.014084507,-0.477464789,0,0,0,,0,197,197,82,1,,
,,,,,,,,,,,,,,,,,,999,2020-11-26_12h12.56.368,lexical_decision_task_MP_exp2,2020.2.5,Win32,60,,0,,,,,,,,0.297,-1,,,,,,32,WORD,"ID",33,buckle,BUCKLE,m,,,,,,,-1.014084507,-0.477464789,0,0,0,,0,198,198,31,1,,
,,,,,,,,,,,,,,,,,,999,2020-11-26_12h12.56.368,lexical_decision_task_MP_exp2,2020.2.5,Win32,60,,0,,,,,,,,0.297,-1,,,,,,269,NW,"ID",33,orchet,ORCHET,z,,,,,,,-1.014084507,-0.477464789,0,0,0,,0,199,199,268,1,,
,,,,,,,,,,,,,,,,,,999,2020-11-26_12h12.56.368,lexical_decision_task_MP_exp2,2020.2.5,Win32,60,,0,,,,,,,,0.297,-1,,,,,,25,WORD,"ID",33,domain,DOMAIN,m,,,,,,,-1.014084507,-0.477464789,0,0,0,,0,200,200,24,1,,
,,,,,,,,,,,,,,,,,,999,2020-11-26_12h12.56.368,lexical_decision_task_MP_exp2,2020.2.5,Win32,60,,0,,,,,,,,0.297,-1,,,,,,431,NW,UN,16,lunker,CHRUMS,z,,,,,,,-1.014084507,-0.477464789,0,0,0,,0,201,201,430,1,,
,,,,,,,,,,,,,,,,,,999,2020-11-26_12h12.56.368,lexical_decision_task_MP_exp2,2020.2.5,Win32,60,,0,,,,,,,,0.297,-1,,,,,,466,NW,UN,16,pebric,HOCITE,z,,,,,,,-1.014084507,-0.477464789,0,0,0,,0,202,202,465,1,,
,,,,,,,,,,,,,,,,,,999,2020-11-26_12h12.56.368,lexical_decision_task_MP_exp2,2020.2.5,Win32,60,,0,,,,,,,,0.297,-1,,,,,,113,WORD,"ID",16,chorus,CHORUS,m,,,,,,,-1.014084507,-0.477464789,0,0,0,,0,203,203,112,1,,
,,,,,,,,,,,,,,,,,,999,2020-11-26_12h12.56.368,lexical_decision_task_MP_exp2,2020.2.5,Win32,60,,0,,,,,,,,0.297,-1,,,,,,144,WORD,UN,33,parish,SPONGE,m,,,,,,,-1.014084507,-0.477464789,0,0,0,,0,204,204,143,1,,
,,,,,,,,,,,,,,,,,,999,2020-11-26_12h12.56.368,lexical_decision_task_MP_exp2,2020.2.5,Win32,60,,0,,,,,,,,0.297,-1,,,,,,229,WORD,UN,16,fringe,MOTHER,m,,,,,,,-1.014084507,-0.477464789,0,0,0,,0,205,205,228,1,,
,,,,,,,,,,,,,,,,,,999,2020-11-26_12h12.56.368,lexical_decision_task_MP_exp2,2020.2.5,Win32,60,,0,,,,,,,,0.297,-1,,,,,,251,NW,"ID",33,lupict,LUPICT,z,,,,,,,-1.014084507,-0.477464789,0,0,0,,0,206,206,250,1,,
,,,,,,,,,,,,,,,,,,999,2020-11-26_12h12.56.368,lexical_decision_task_MP_exp2,2020.2.5,Win32,60,,0,,,,,,,,0.297,-1,,,,,,261,NW,"ID",33,stunch,STUNCH,z,,,,,,,-1.014084507,-0.477464789,0,0,0,,0,207,207,260,1,,
,,,,,,,,,,,,,,,,,,999,2020-11-26_12h12.56.368,lexical_decision_task_MP_exp2,2020.2.5,Win32,60,,0,,,,,,,,0.297,-1,,,,,,390,NW,UN,33,theldy,HATRUS,z,,,,,,,-1.014084507,-0.477464789,0,0,0,,0,208,208,389,1,,
,,,,,,,,,,,,,,,,,,999,2020-11-26_12h12.56.368,lexical_decision_task_MP_exp2,2020.2.5,Win32,60,,0,,,,,,,,0.297,-1,,,,,,73,WORD,"ID",16,source,SOURCE,m,,,,,,,-1.014084507,-0.477464789,0,0,0,,0,209,209,72,1,,
,,,,,,,,,,,,,,,,,,999,2020-11-26_12h12.56.368,lexical_decision_task_MP_exp2,2020.2.5,Win32,60,,0,,,,,,,,0.297,-1,,,,,,286,NW,"ID",33,reldon,RELDON,z,,,,,,,-1.014084507,-0.477464789,0,0,0,,0,210,210,285,1,,
,,,,,,,,,,,,,,,,,,999,2020-11-26_12h12.56.368,lexical_decision_task_MP_exp2,2020.2.5,Win32,60,,0,,,,,,,,0.297,-1,,,,,,408,NW,UN,33,flumni,HURNIA,z,,,,,,,-1.014084507,-0.477464789,0,0,0,,0,211,211,407,1,,
,,,,,,,,,,,,,,,,,,999,2020-11-26_12h12.56.368,lexical_decision_task_MP_exp2,2020.2.5,Win32,60,,0,,,,,,,,0.297,-1,,,,,,448,NW,UN,16,brunge,SADENT,z,,,,,,,-1.014084507,-0.477464789,0,0,0,,0,212,212,447,1,,
,,,,,,,,,,,,,,,,,,999,2020-11-26_12h12.56.368,lexical_decision_task_MP_exp2,2020.2.5,Win32,60,,0,,,,,,,,0.297,-1,,,,,,142,WORD,UN,33,orphan,SPRUCE,m,,,,,,,-1.014084507,-0.477464789,0,0,0,,0,213,213,141,1,,
,,,,,,,,,,,,,,,,,,999,2020-11-26_12h12.56.368,lexical_decision_task_MP_exp2,2020.2.5,Win32,60,,0,,,,,,,,0.297,-1,,,,,,405,NW,UN,33,nouply,FLUMNI,z,,,,,,,-1.014084507,-0.477464789,0,0,0,,0,214,214,404,1,,
,,,,,,,,,,,,,,,,,,999,2020-11-26_12h12.56.368,lexical_decision_task_MP_exp2,2020.2.5,Win32,60,,0,,,,,,,,0.297,-1,,,,,,344,NW,"ID",16,scrily,SCRILY,z,,,,,,,-1.014084507,-0.477464789,0,0,0,,0,215,215,343,1,,
,,,,,,,,,,,,,,,,,,999,2020-11-26_12h12.56.368,lexical_decision_task_MP_exp2,2020.2.5,Win32,60,,0,,,,,,,,0.297,-1,,,,,,454,NW,UN,16,tondle,SCOUGE,z,,,,,,,-1.014084507,-0.477464789,0,0,0,,0,216,216,453,1,,
,,,,,,,,,,,,,,,,,,999,2020-11-26_12h12.56.368,lexical_decision_task_MP_exp2,2020.2.5,Win32,60,,0,,,,,,,,0.297,-1,,,,,,93,WORD,"ID",16,public,PUBLIC,m,,,,,,,-1.014084507,-0.477464789,0,0,0,,0,217,217,92,1,,
,,,,,,,,,,,,,,,,,,999,2020-11-26_12h12.56.368,lexical_decision_task_MP_exp2,2020.2.5,Win32,60,,0,,,,,,,,0.297,-1,,,,,,179,WORD,UN,33,silent,BASKET,m,,,,,,,-1.014084507,-0.477464789,0,0,0,,0,218,218,178,1,,
,,,,,,,,,,,,,,,,,,999,2020-11-26_12h12.56.368,lexical_decision_task_MP_exp2,2020.2.5,Win32,60,,0,,,,,,,,0.297,-1,,,,,,35,WORD,"ID",33,socket,SOCKET,m,,,,,,,-1.014084507,-0.477464789,0,0,0,,0,219,219,34,1,,
,,,,,,,,,,,,,,,,,,999,2020-11-26_12h12.56.368,lexical_decision_task_MP_exp2,2020.2.5,Win32,60,,0,,,,,,,,0.297,-1,,,,,,284,NW,"ID",33,shaple,SHAPLE,z,,,,,,,-1.014084507,-0.477464789,0,0,0,,0,220,220,283,1,,
,,,,,,,,,,,,,,,,,,999,2020-11-26_12h12.56.368,lexical_decision_task_MP_exp2,2020.2.5,Win32,60,,0,,,,,,,,0.297,-1,,,,,,322,NW,"ID",16,slanch,SLANCH,z,,,,,,,-1.014084507,-0.477464789,0,0,0,,0,221,221,321,1,,
,,,,,,,,,,,,,,,,,,999,2020-11-26_12h12.56.368,lexical_decision_task_MP_exp2,2020.2.5,Win32,60,,0,,,,,,,,0.297,-1,,,,,,194,WORD,UN,16,resign,ABSENT,m,,,,,,,-1.014084507,-0.477464789,0,0,0,,0,222,222,193,1,,
,,,,,,,,,,,,,,,,,,999,2020-11-26_12h12.56.368,lexical_decision_task_MP_exp2,2020.2.5,Win32,60,,0,,,,,,,,0.297,-1,,,,,,271,NW,"ID",33,aubrid,AUBRID,z,,,,,,,-1.014084507,-0.477464789,0,0,0,,0,223,223,270,1,,
,,,,,,,,,,,,,,,,,,999,2020-11-26_12h12.56.368,lexical_decision_task_MP_exp2,2020.2.5,Win32,60,,0,,,,,,,,0.297,-1,,,,,,411,NW,UN,33,jiluer,ORCHIN,z,,,,,,,-1.014084507,-0.477464789,0,0,0,,0,224,224,410,1,,
,,,,,,,,,,,,,,,,,,999,2020-11-26_12h12.56.368,lexical_decision_task_MP_exp2,2020.2.5,Win32,60,,0,,,,,,,,0.297,-1,,,,,,442,NW,UN,16,dorsex,ABOUNE,z,,,,,,,-1.014084507,-0.477464789,0,0,0,,0,225,225,441,1,,
,,,,,,,,,,,,,,,,,,999,2020-11-26_12h12.56.368,lexical_decision_task_MP_exp2,2020.2.5,Win32,60,,0,,,,,,,,0.297,-1,,,,,,262,NW,"ID",33,quilew,QUILEW,z,,,,,,,-1.014084507,-0.477464789,0,0,0,,0,226,226,261,1,,
,,,,,,,,,,,,,,,,,,999,2020-11-26_12h12.56.368,lexical_decision_task_MP_exp2,2020.2.5,Win32,60,,0,,,,,,,,0.297,-1,,,,,,220,WORD,UN,16,mascot,VOYAGE,m,,,,,,,-1.014084507,-0.477464789,0,0,0,,0,227,227,219,1,,
,,,,,,,,,,,,,,,,,,999,2020-11-26_12h12.56.368,lexical_decision_task_MP_exp2,2020.2.5,Win32,60,,0,,,,,,,,0.297,-1,,,,,,174,WORD,UN,33,fabric,TURKEY,m,,,,,,,-1.014084507,-0.477464789,0,0,0,,0,228,228,173,1,,
,,,,,,,,,,,,,,,,,,999,2020-11-26_12h12.56.368,lexical_decision_task_MP_exp2,2020.2.5,Win32,60,,0,,,,,,,,0.297,-1,,,,,,264,NW,"ID",33,vackel,VACKEL,z,,,,,,,-1.014084507,-0.477464789,0,0,0,,0,229,229,263,1,,
,,,,,,,,,,,,,,,,,,999,2020-11-26_12h12.56.368,lexical_decision_task_MP_exp2,2020.2.5,Win32,60,,0,,,,,,,,0.297,-1,,,,,,311,NW,"ID",16,sproly,SPROLY,z,,,,,,,-1.014084507,-0.477464789,0,0,0,,0,230,230,310,1,,
,,,,,,,,,,,,,,,,,,999,2020-11-26_12h12.56.368,lexical_decision_task_MP_exp2,2020.2.5,Win32,60,,0,,,,,,,,0.297,-1,,,,,,211,WORD,UN,16,verify,INFECT,m,,,,,,,-1.014084507,-0.477464789,0,0,0,,0,231,231,210,1,,
,,,,,,,,,,,,,,,,,,999,2020-11-26_12h12.56.368,lexical_decision_task_MP_exp2,2020.2.5,Win32,60,,0,,,,,,,,0.297,-1,,,,,,246,NW,"ID",33,piaton,PIATON,z,,,,,,,-1.014084507,-0.477464789,0,0,0,,0,232,232,245,1,,
,,,,,,,,,,,,,,,,,,999,2020-11-26_12h12.56.368,lexical_decision_task_MP_exp2,2020.2.5,Win32,60,,0,,,,,,,,0.297,-1,,,,,,107,WORD,"ID",16,slogan,SLOGAN,m,,,,,,,-1.014084507,-0.477464789,0,0,0,,0,233,233,106,1,,
,,,,,,,,,,,,,,,,,,999,2020-11-26_12h12.56.368,lexical_decision_task_MP_exp2,2020.2.5,Win32,60,,0,,,,,,,,0.297,-1,,,,,,247,NW,"ID",33,blarge,BLARGE,z,,,,,,,-1.014084507,-0.477464789,0,0,0,,0,234,234,246,1,,
,,,,,,,,,,,,,,,,,,999,2020-11-26_12h12.56.368,lexical_decision_task_MP_exp2,2020.2.5,Win32,60,,0,,,,,,,,0.297,-1,,,,,,347,NW,"ID",16,kerift,KERIFT,z,,,,,,,-1.014084507,-0.477464789,0,0,0,,0,235,235,346,1,,
,,,,,,,,,,,,,,,,,,999,2020-11-26_12h12.56.368,lexical_decision_task_MP_exp2,2020.2.5,Win32,60,,0,,,,,,,,0.297,-1,,,,,,472,NW,UN,16,crible,CIGNEY,z,,,,,,,-1.014084507,-0.477464789,0,0,0,,0,236,236,471,1,,
,,,,,,,,,,,,,,,,,,999,2020-11-26_12h12.56.368,lexical_decision_task_MP_exp2,2020.2.5,Win32,60,,0,,,,,,,,0.297,-1,,,,,,29,WORD,"ID",33,sketch,SKETCH,m,,,,,,,-1.014084507,-0.477464789,0,0,0,,0,237,237,28,1,,
,,,,,,,,,,,,,,,,,,999,2020-11-26_12h12.56.368,lexical_decision_task_MP_exp2,2020.2.5,Win32,60,,0,,,,,,,,0.297,-1,,,,,,295,NW,"ID",33,gleath,GLEATH,z,,,,,,,-1.014084507,-0.477464789,0,0,0,,0,238,238,294,1,,
,,,,,,,,,,,,,,,,,,999,2020-11-26_12h12.56.368,lexical_decision_task_MP_exp2,2020.2.5,Win32,60,,0,,,,,,,,0.297,-1,,,,,,195,WORD,UN,16,credit,RESIGN,m,,,,,,,-1.014084507,-0.477464789,0,0,0,,0,239,239,194,1,,
,,,,,,,,,,,,,,,,,,999,2020-11-26_12h12.56.368,lexical_decision_task_MP_exp2,2020.2.5,Win32,60,,0,,,,,,,,0.297,-1,,,,,,95,WORD,"ID",16,thread,THREAD,m,,,,,,,-1.014084507,-0.477464789,0,0,0,,0,240,240,94,1,,
,,,,,,,,,,,,,,,,,,999,2020-11-26_12h12.56.368,lexical_decision_task_MP_exp2,2020.2.5,Win32,60,,0,,,,,,,,0.297,-1,,,,,,274,NW,"ID",33,fumblo,FUMBLO,z,,,,,,,0.030985915,-0.353521127,1,0,0,,0,241,241,273,1,,break_done_button
,,,,,,,,,,,,,,,,,,999,2020-11-26_12h12.56.368,lexical_decision_task_MP_exp2,2020.2.5,Win32,60,,0,,,,,,,,0.297,-1,,,,,,310,NW,"ID",16,daniet,DANIET,z,,,,,,,-0.042253521,-0.274647887,0,0,0,,0,242,242,309,1,,
,,,,,,,,,,,,,,,,,,999,2020-11-26_12h12.56.368,lexical_decision_task_MP_exp2,2020.2.5,Win32,60,z,0,,,,,,,,0.985,0,,,,,,193,WORD,UN,16,plague,OBJECT,m,0.985,,,,,,-0.214084507,-0.269014085,0,0,0,,0,243,243,192,1,,
,,,,,,,,,,,,,,,,,,999,2020-11-26_12h12.56.368,lexical_decision_task_MP_exp2,2020.2.5,Win32,60,z,1,,,,,,,,0.398,1,,,,,,449,NW,UN,16,phrect,BRUNGE,z,0.398,,,,,,-0.214084507,-0.269014085,0,0,0,,0,244,244,448,1,,
,,,,,,,,,,,,,,,,,,999,2020-11-26_12h12.56.368,lexical_decision_task_MP_exp2,2020.2.5,Win32,60,z,1,,,,,,,,0.172,1,,,,,,280,NW,"ID",33,curbol,CURBOL,z,0.172,,,,,,0.267605634,-0.198591549,0,0,0,,0,245,245,279,1,,
,,,,,,,,,,,,,,,,,,999,2020-11-26_12h12.56.368,lexical_decision_task_MP_exp2,2020.2.5,Win32,60,z,1,,,,,,,,0.026,1,,,,,,349,NW,"ID",16,asylen,ASYLEN,z,0.026,,,,,,1.861971831,0.133802817,0,0,0,,0,246,246,348,1,,
,,,,,,,,,,,,,,,,,,999,2020-11-26_12h12.56.368,lexical_decision_task_MP_exp2,2020.2.5,Win32,60,z,1,,,,,,,,0.084,1,,,,,,285,NW,"ID",33,prudge,PRUDGE,z,0.084,,,,,,1.076056338,-0.426760563,0,0,0,,0,247,247,284,1,,
,,,,,,,,,,,,,,,,,,999,2020-11-26_12h12.56.368,lexical_decision_task_MP_exp2,2020.2.5,Win32,60,z,1,1.101408451,-0.204225352,1,0,0,0.148,,0.16,1,,,,,,278,NW,"ID",33,unighs,UNIGHS,z,0.16,,,,,,1.101408451,-0.204225352,1,0,0,,0,248,248,277,1,,
,,,,,,,,,,,,,,,,,,999,2020-11-26_12h12.56.368,lexical_decision_task_MP_exp2,2020.2.5,Win32,60,z,1,,,,,,,,0.207,1,,,,,,245,NW,"ID",33,anougs,ANOUGS,z,0.207,,,,,,1.101408451,-0.204225352,0,0,0,,0,249,249,244,1,,
,,,,,,,,,,,,,,,,,,999,2020-11-26_12h12.56.368,lexical_decision_task_MP_exp2,2020.2.5,Win32,60,z,0,,,,,,,,0.025,0,,,,,,196,WORD,UN,16,stream,CREDIT,m,0.025,,,,,,1.101408451,-0.204225352,0,0,0,,0,250,250,195,1,,
,,,,,,,,,,,,,,,,,,999,2020-11-26_12h12.56.368,lexical_decision_task_MP_exp2,2020.2.5,Win32,60,,0,,,,,,,,0.025,-1,,,,,,346,NW,"ID",16,saudic,SAUDIC,z,,,,,,,1.101408451,-0.204225352,0,0,0,,0,251,251,345,1,,
,,,,,,,,,,,,,,,,,,999,2020-11-26_12h12.56.368,lexical_decision_task_MP_exp2,2020.2.5,Win32,60,,0,,,,,,,,0.025,-1,,,,,,335,NW,"ID",16,desion,DESION,z,,,,,,,1.101408451,-0.204225352,0,0,0,,0,252,252,334,1,,
,,,,,,,,,,,,,,,,,,999,2020-11-26_12h12.56.368,lexical_decision_task_MP_exp2,2020.2.5,Win32,60,,0,,,,,,,,0.025,-1,,,,,,59,WORD,"ID",33,splint,SPLINT,m,,,,,,,1.101408451,-0.204225352,0,0,0,,0,253,253,58,1,,
,,,,,,,,,,,,,,,,,,999,2020-11-26_12h12.56.368,lexical_decision_task_MP_exp2,2020.2.5,Win32,60,,0,,,,,,,,0.025,-1,,,,,,121,WORD,UN,33,linger,THRIVE,m,,,,,,,1.101408451,-0.204225352,0,0,0,,0,254,254,120,1,,
,,,,,,,,,,,,,,,,,,999,2020-11-26_12h12.56.368,lexical_decision_task_MP_exp2,2020.2.5,Win32,60,,0,,,,,,,,0.025,-1,,,,,,339,NW,"ID",16,fachow,FACHOW,z,,,,,,,1.101408451,-0.204225352,0,0,0,,0,255,255,338,1,,
,,,,,,,,,,,,,,,,,,999,2020-11-26_12h12.56.368,lexical_decision_task_MP_exp2,2020.2.5,Win32,60,,0,,,,,,,,0.025,-1,,,,,,161,WORD,UN,33,candle,PASTOR,m,,,,,,,1.101408451,-0.204225352,0,0,0,,0,256,256,160,1,,
,,,,,,,,,,,,,,,,,,999,2020-11-26_12h12.56.368,lexical_decision_task_MP_exp2,2020.2.5,Win32,60,,0,,,,,,,,0.025,-1,,,,,,84,WORD,"ID",16,mortal,MORTAL,m,,,,,,,1.101408451,-0.204225352,0,0,0,,0,257,257,83,1,,
,,,,,,,,,,,,,,,,,,999,2020-11-26_12h12.56.368,lexical_decision_task_MP_exp2,2020.2.5,Win32,60,,0,,,,,,,,0.025,-1,,,,,,416,NW,UN,33,earoud,PATHEL,z,,,,,,,1.101408451,-0.204225352,0,0,0,,0,258,258,415,1,,
,,,,,,,,,,,,,,,,,,999,2020-11-26_12h12.56.368,lexical_decision_task_MP_exp2,2020.2.5,Win32,60,,0,,,,,,,,0.025,-1,,,,,,208,WORD,UN,16,search,HOCKEY,m,,,,,,,1.101408451,-0.204225352,0,0,0,,0,259,259,207,1,,
,,,,,,,,,,,,,,,,,,999,2020-11-26_12h12.56.368,lexical_decision_task_MP_exp2,2020.2.5,Win32,60,,0,,,,,,,,0.025,-1,,,,,,141,WORD,UN,33,spruce,ORPHAN,m,,,,,,,1.101408451,-0.204225352,0,0,0,,0,260,260,140,1,,
,,,,,,,,,,,,,,,,,,999,2020-11-26_12h12.56.368,lexical_decision_task_MP_exp2,2020.2.5,Win32,60,,0,,,,,,,,0.025,-1,,,,,,234,WORD,UN,16,lumber,CLUMSY,m,,,,,,,1.101408451,-0.204225352,0,0,0,,0,261,261,233,1,,
,,,,,,,,,,,,,,,,,,999,2020-11-26_12h12.56.368,lexical_decision_task_MP_exp2,2020.2.5,Win32,60,,0,,,,,,,,0.025,-1,,,,,,192,WORD,UN,16,object,PLAGUE,m,,,,,,,1.101408451,-0.204225352,0,0,0,,0,262,262,191,1,,
,,,,,,,,,,,,,,,,,,999,2020-11-26_12h12.56.368,lexical_decision_task_MP_exp2,2020.2.5,Win32,60,,0,,,,,,,,0.025,-1,,,,,,358,NW,"ID",16,fleack,FLEACK,z,,,,,,,1.535211268,0.452112676,0,0,0,,0,263,263,357,1,,
,,,,,,,,,,,,,,,,,,999,2020-11-26_12h12.56.368,lexical_decision_task_MP_exp2,2020.2.5,Win32,60,,0,,,,,,,,0.025,-1,,,,,,401,NW,UN,33,elopia,MUSTIL,z,,,,,,,3.585915493,0.483098592,0,0,0,,0,264,264,400,1,,
,,,,,,,,,,,,,,,,,,999,2020-11-26_12h12.56.368,lexical_decision_task_MP_exp2,2020.2.5,Win32,60,,0,,,,,,,,0.025,-1,,,,,,18,WORD,"ID",33,humble,HUMBLE,m,,,,,,,3.585915493,0.483098592,0,0,0,,0,265,265,17,1,,
,,,,,,,,,,,,,,,,,,999,2020-11-26_12h12.56.368,lexical_decision_task_MP_exp2,2020.2.5,Win32,60,,0,,,,,,,,0.025,-1,,,,,,72,WORD,"ID",16,bright,BRIGHT,m,,,,,,,3.585915493,0.483098592,0,0,0,,0,266,266,71,1,,
,,,,,,,,,,,,,,,,,,999,2020-11-26_12h12.56.368,lexical_decision_task_MP_exp2,2020.2.5,Win32,60,,0,,,,,,,,0.025,-1,,,,,,80,WORD,"ID",16,family,FAMILY,m,,,,,,,3.585915493,0.483098592,0,0,0,,0,267,267,79,1,,
,,,,,,,,,,,,,,,,,,999,2020-11-26_12h12.56.368,lexical_decision_task_MP_exp2,2020.2.5,Win32,60,,0,,,,,,,,0.025,-1,,,,,,223,WORD,UN,16,period,KIDNEY,m,,,,,,,3.585915493,0.483098592,0,0,0,,0,268,268,222,1,,
,,,,,,,,,,,,,,,,,,999,2020-11-26_12h12.56.368,lexical_decision_task_MP_exp2,2020.2.5,Win32,60,,0,,,,,,,,0.025,-1,,,,,,6,WORD,"ID",33,bundle,BUNDLE,m,,,,,,,3.585915493,0.483098592,0,0,0,,0,269,269,5,1,,
,,,,,,,,,,,,,,,,,,999,2020-11-26_12h12.56.368,lexical_decision_task_MP_exp2,2020.2.5,Win32,60,,0,,,,,,,,0.025,-1,,,,,,99,WORD,"ID",16,fluent,FLUENT,m,,,,,,,3.585915493,0.483098592,0,0,0,,0,270,270,98,1,,
,,,,,,,,,,,,,,,,,,999,2020-11-26_12h12.56.368,lexical_decision_task_MP_exp2,2020.2.5,Win32,60,,0,,,,,,,,0.025,-1,,,,,,328,NW,"ID",16,broake,BROAKE,z,,,,,,,3.585915493,0.483098592,0,0,0,,0,271,271,327,1,,
,,,,,,,,,,,,,,,,,,999,2020-11-26_12h12.56.368,lexical_decision_task_MP_exp2,2020.2.5,Win32,60,,0,,,,,,,,0.025,-1,,,,,,171,WORD,UN,33,patrol,DEPART,m,,,,,,,3.585915493,0.483098592,0,0,0,,0,272,272,170,1,,
,,,,,,,,,,,,,,,,,,999,2020-11-26_12h12.56.368,lexical_decision_task_MP_exp2,2020.2.5,Win32,60,,0,,,,,,,,0.025,-1,,,,,,326,NW,"ID",16,iguade,IGUADE,z,,,,,,,3.585915493,0.483098592,0,0,0,,0,273,273,325,1,,
,,,,,,,,,,,,,,,,,,999,2020-11-26_12h12.56.368,lexical_decision_task_MP_exp2,2020.2.5,Win32,60,,0,,,,,,,,0.025,-1,,,,,,146,WORD,UN,33,garlic,COUPLE,m,,,,,,,3.585915493,0.483098592,0,0,0,,0,274,274,145,1,,
,,,,,,,,,,,,,,,,,,999,2020-11-26_12h12.56.368,lexical_decision_task_MP_exp2,2020.2.5,Win32,60,,0,,,,,,,,0.025,-1,,,,,,461,NW,UN,16,absult,JUSTRE,z,,,,,,,3.585915493,0.483098592,0,0,0,,0,275,275,460,1,,
,,,,,,,,,,,,,,,,,,999,2020-11-26_12h12.56.368,lexical_decision_task_MP_exp2,2020.2.5,Win32,60,,0,0.214084507,-0.302816901,1,0,0,0.314,button_right,0.314,1,,,,,,111,WORD,"ID",16,induce,INDUCE,m,,,,,,,0.214084507,-0.302816901,1,0,0,,0,276,276,110,1,,
,,,,,,,,,,,,,,,,,,999,2020-11-26_12h12.56.368,lexical_decision_task_MP_exp2,2020.2.5,Win32,60,,0,0.25915493,-0.232394366,1,0,0,0.163,button_right,0.163,0,,,,,,418,NW,UN,33,slount,SUIDLE,z,,,,,,,0.25915493,-0.232394366,1,0,0,,0,277,277,417,1,,
,,,,,,,,,,,,,,,,,,999,2020-11-26_12h12.56.368,lexical_decision_task_MP_exp2,2020.2.5,Win32,60,,0,0.25915493,-0.232394366,1,0,0,0.196,button_right,0.196,1,,,,,,126,WORD,UN,33,castle,ENOUGH,m,,,,,,,0.25915493,-0.232394366,1,0,0,,0,278,278,125,1,,
,,,,,,,,,,,,,,,,,,999,2020-11-26_12h12.56.368,lexical_decision_task_MP_exp2,2020.2.5,Win32,60,,0,0.25915493,-0.232394366,1,0,0,0.048,button_right,0.048,0,,,,,,463,NW,UN,16,bafent,KISPEL,z,,,,,,,0.25915493,-0.232394366,1,0,0,,0,279,279,462,1,,
,,,,,,,,,,,,,,,,,,999,2020-11-26_12h12.56.368,lexical_decision_task_MP_exp2,2020.2.5,Win32,60,,0,0.25915493,-0.232394366,1,0,0,0.114,button_right,0.114,1,,,,,,40,WORD,"ID",33,convey,CONVEY,m,,,,,,,0.25915493,-0.232394366,1,0,0,,0,280,280,39,1,,
,,,,,,,,,,,,,,,,,,999,2020-11-26_12h12.56.368,lexical_decision_task_MP_exp2,2020.2.5,Win32,60,,0,0.25915493,-0.232394366,1,0,0,0.115,button_right,0.115,1,,,,,,230,WORD,UN,16,export,FRINGE,m,,,,,,,0.25915493,-0.232394366,1,0,0,,0,281,281,229,1,,
,,,,,,,,,,,,,,,,,,999,2020-11-26_12h12.56.368,lexical_decision_task_MP_exp2,2020.2.5,Win32,60,,0,0.191549296,-0.235211268,1,0,0,0.08,button_left,0.08,0,,,,,,203,WORD,UN,16,burden,PHRASE,m,,,,,,,-0.554929577,-0.226760563,1,0,0,,0,282,282,202,1,,
,,,,,,,,,,,,,,,,,,999,2020-11-26_12h12.56.368,lexical_decision_task_MP_exp2,2020.2.5,Win32,60,,0,,,,,,,,0.08,-1,,,,,,432,NW,UN,16,drance,LUNKER,z,,,,,,,0.129577465,-0.207042254,0,0,0,,0,283,283,431,1,,
