counterbalancing_condition,instr_done_keyboard.keys,instr_done_touch.x,instr_done_touch.y,instr_done_touch.leftButton,instr_done_touch.midButton,instr_done_touch.rightButton,instr_done_touch.clicked_name,instruction_pages.thisRepN,instruction_pages.thisTrialN,instruction_pages.thisN,instruction_pages.thisIndex,instruction_pages.ran,pageN,phase,instruct_text,has_image,instruct_image,participant,date,expName,psychopyVersion,OS,frameRate,response.keys,response.corr,touch_resp.x,touch_resp.y,touch_resp.leftButton,touch_resp.midButton,touch_resp.rightButton,touch_resp.time,touch_resp.clicked_name,rt,corr,practice_trials.thisRepN,practice_trials.thisTrialN,practice_trials.thisN,practice_trials.thisIndex,practice_trials.ran,TrialID,StimulusType,Condition,PrimeDuration,Prime,Target,corrAns,response.rt,end_of_practice_trials_pages.thisRepN,end_of_practice_trials_pages.thisTrialN,end_of_practice_trials_pages.thisN,end_of_practice_trials_pages.thisIndex,end_of_practice_trials_pages.ran,break_done_touch.x,break_done_touch.y,break_done_touch.leftButton,break_done_touch.midButton,break_done_touch.rightButton,break_done_keyboard.keys,trials.thisRepN,trials.thisTrialN,trials.thisN,trials.thisIndex,trials.ran
0,,0.062706271,-0.430693069,1,0,0,instr_done_button,0,0,0,0,1,1,instructions,"INSTRUCTIONS
At the start of each trial, look at the hash marks (######) in the center of the screen. After a moment, a string of letters will appear. Your task is to indicate if the letter string forms a word or not (i.e., if it is a nonword). For example, AUTHOR is a word while AUTHON is a nonword.

Press the space bar or touch the button below to continue.",0,,999,2020-11-26_10h56.32.062,lexical_decision_task_MP_exp2,2020.2.5,Win32,60,,,,,,,,,,,,,,,,,,,,,,,,,,,,,,,,,,,,,,,,
,,0.062706271,-0.430693069,1,0,0,instr_done_button,0,1,1,1,1,2,instructions,"If your device has a keyboard, press the 'Z' key for nonwords and the 'M' key for words.





Press the space bar or touch the button below to continue.",1,keyboard-example.gif,999,2020-11-26_10h56.32.062,lexical_decision_task_MP_exp2,2020.2.5,Win32,60,,,,,,,,,,,,,,,,,,,,,,,,,,,,,,,,,,,,,,,,
,,0.062706271,-0.430693069,1,0,0,instr_done_button,0,2,2,2,1,3,instructions,"If you are using a touchscreen only device, use the buttons on the screen. Do not use the mouse.





Press the space bar or touch the button below to continue.",1,touchscreen-example.gif,999,2020-11-26_10h56.32.062,lexical_decision_task_MP_exp2,2020.2.5,Win32,60,,,,,,,,,,,,,,,,,,,,,,,,,,,,,,,,,,,,,,,,
,,0.062706271,-0.430693069,1,0,0,instr_done_button,0,3,3,3,1,4,instructions,"It is very important that you respond as quickly and accurately as possible, as each letter string will only be on the screen for two seconds. If you do not respond within this time, the message 'Too slow!' will be displayed and the experiment will progress to the next letter string. The first 20 trials will be practice trials and you will receive feedback on your answers. 

Press the space bar or touch the button below to start the practice trials.",0,,999,2020-11-26_10h56.32.062,lexical_decision_task_MP_exp2,2020.2.5,Win32,60,,,,,,,,,,,,,,,,,,,,,,,,,,,,,,,,,,,,,,,,
,,,,,,,,,,,,,,,,,,999,2020-11-26_10h56.32.062,lexical_decision_task_MP_exp2,2020.2.5,Win32,60,,0,0.293729373,-0.308580858,1,0,0,0.132,button_right,0.132,1,0,0,0,3,1,1004,WORD,"ID",16,matrix,MATRIX,m,,,,,,,,,,,,,,,,,
,,,,,,,,,,,,,,,,,,999,2020-11-26_10h56.32.062,lexical_decision_task_MP_exp2,2020.2.5,Win32,60,z,1,,,,,,,,0.056,1,0,1,1,9,1,1010,NW,"ID",33,fariny,FARINY,z,0.056,,,,,,,,,,,,,,,,
,,,,,,,,,,,,,,,,,,999,2020-11-26_10h56.32.062,lexical_decision_task_MP_exp2,2020.2.5,Win32,60,,0,,,,,,,,0.056,-1,0,2,2,11,1,1012,NW,"ID",16,rashet,RASHET,z,,,,,,,,,,,,,,,,,
,,,,,,,,,,,,,,,,,,999,2020-11-26_10h56.32.062,lexical_decision_task_MP_exp2,2020.2.5,Win32,60,,0,,,,,,,,0.056,-1,0,3,3,5,1,1006,WORD,UN,33,frenzy,OBTAIN,m,,,,,,,,,,,,,,,,,
,,,,,,,,,,,,,,,,,,999,2020-11-26_10h56.32.062,lexical_decision_task_MP_exp2,2020.2.5,Win32,60,,0,,,,,,,,0.056,-1,0,4,4,14,1,1015,NW,UN,16,miaber,THRALE,z,,,,,,,,,,,,,,,,,
,,,,,,,,,,,,,,,,,,999,2020-11-26_10h56.32.062,lexical_decision_task_MP_exp2,2020.2.5,Win32,60,,0,,,,,,,,0.056,-1,0,5,5,12,1,1013,NW,UN,33,adveil,SPRINY,z,,,,,,,,,,,,,,,,,
,,,,,,,,,,,,,,,,,,999,2020-11-26_10h56.32.062,lexical_decision_task_MP_exp2,2020.2.5,Win32,60,,0,,,,,,,,0.056,-1,0,6,6,7,1,1008,WORD,UN,16,hurdle,VOLUME,m,,,,,,,,,,,,,,,,,
,,,,,,,,,,,,,,,,,,999,2020-11-26_10h56.32.062,lexical_decision_task_MP_exp2,2020.2.5,Win32,60,,0,,,,,,,,0.056,-1,0,7,7,2,1,1003,WORD,"ID",16,almond,ALMOND,m,,,,,,,,,,,,,,,,,
,,,,,,,,,,,,,,,,,,999,2020-11-26_10h56.32.062,lexical_decision_task_MP_exp2,2020.2.5,Win32,60,,0,,,,,,,,0.056,-1,0,8,8,6,1,1007,WORD,UN,16,tropic,ZOMBIE,m,,,,,,,,,,,,,,,,,
,,,,,,,,,,,,,,,,,,999,2020-11-26_10h56.32.062,lexical_decision_task_MP_exp2,2020.2.5,Win32,60,,0,,,,,,,,0.056,-1,0,9,9,4,1,1005,WORD,UN,33,abound,SQUEAK,m,,,,,,,,,,,,,,,,,
,,,,,,,,,,,,,,,,,,999,2020-11-26_10h56.32.062,lexical_decision_task_MP_exp2,2020.2.5,Win32,60,,0,0.386138614,-0.305280528,1,0,0,0.091,button_right,0.091,0,0,10,10,15,1,1016,NW,UN,16,mushed,WHAISE,z,,,,,,,,,,,,,,,,,
,,,,,,,,,,,,,,,,,,999,2020-11-26_10h56.32.062,lexical_decision_task_MP_exp2,2020.2.5,Win32,60,,0,0.386138614,-0.305280528,1,0,0,0.181,button_right,0.181,0,0,11,11,10,1,1011,NW,"ID",16,inlade,INLADE,z,,,,,,,,,,,,,,,,,
,,,,,,,,,,,,,,,,,,999,2020-11-26_10h56.32.062,lexical_decision_task_MP_exp2,2020.2.5,Win32,60,,0,0.386138614,-0.305280528,1,0,0,0.546,button_right,0.546,0,0,12,12,13,1,1014,NW,UN,33,winfer,ROUPET,z,,,,,,,,,,,,,,,,,
,,,,,,,,,,,,,,,,,,999,2020-11-26_10h56.32.062,lexical_decision_task_MP_exp2,2020.2.5,Win32,60,,0,0.372937294,-0.315181518,1,0,0,0.148,button_right,0.148,0,0,13,13,8,1,1009,NW,"ID",33,aslert,ASLERT,z,,,,,,,,,,,,,,,,,
,,,,,,,,,,,,,,,,,,999,2020-11-26_10h56.32.062,lexical_decision_task_MP_exp2,2020.2.5,Win32,60,,0,0.372937294,-0.315181518,1,0,0,0.095,button_right,0.095,1,0,14,14,0,1,1001,WORD,"ID",33,utopia,UTOPIA,m,,,,,,,,,,,,,,,,,
,,,,,,,,,,,,,,,,,,999,2020-11-26_10h56.32.062,lexical_decision_task_MP_exp2,2020.2.5,Win32,60,,0,0.372937294,-0.315181518,1,0,0,0.182,button_right,0.182,1,0,15,15,1,1,1002,WORD,"ID",33,adjust,ADJUST,m,,,,,,,,,,,,,,,,,
,,0.072607261,-0.391089109,1,0,0,instr_done_button,,,,,,1,end_of_practice,"You have completed the practice trials. During the experimental trials, you will not receive feedback, but it is very important that you respond as quickly and accurately as possible. 
Before you begin, please ensure that you are in a comfortable and quiet location and will not be disturbed for about 15 minutes, as we cannot use your data if you do not complete all the trials. 
There will be opportunities to take breaks at regular intervals during the experiment. When you are ready to start the experimental trials, please press space or touch the button below.",,,999,2020-11-26_10h56.32.062,lexical_decision_task_MP_exp2,2020.2.5,Win32,60,,,,,,,,,,,,,,,,,,,,,,,,,0,0,0,0,1,,,,,,,,,,,
,,,,,,,,,,,,,,,,,,999,2020-11-26_10h56.32.062,lexical_decision_task_MP_exp2,2020.2.5,Win32,60,,0,0.303630363,-0.301980198,1,0,0,0.181,button_right,0.181,1,,,,,,93,WORD,UN,33,travel,PUBLIC,m,,,,,,,0.303630363,-0.301980198,1,0,0,,0,0,0,152,1
,,,,,,,,,,,,,,,,,,999,2020-11-26_10h56.32.062,lexical_decision_task_MP_exp2,2020.2.5,Win32,60,,0,0.303630363,-0.301980198,1,0,0,0.281,button_right,0.281,0,,,,,,470,NW,"ID",33,crudio,CRUDIO,z,,,,,,,0.303630363,-0.301980198,1,0,0,,0,1,1,289,1
,,,,,,,,,,,,,,,,,,999,2020-11-26_10h56.32.062,lexical_decision_task_MP_exp2,2020.2.5,Win32,60,,0,0.300330033,-0.305280528,1,0,0,0.232,button_right,0.232,0,,,,,,375,NW,UN,16,iguare,YORQUE,z,,,,,,,0.300330033,-0.305280528,1,0,0,,0,2,2,434,1
,,,,,,,,,,,,,,,,,,999,2020-11-26_10h56.32.062,lexical_decision_task_MP_exp2,2020.2.5,Win32,60,,0,,,,,,,,0.232,-1,,,,,,86,WORD,UN,33,filter,RODENT,m,,,,,,,0.300330033,-0.305280528,0,0,0,,0,3,3,145,1
,,,,,,,,,,,,,,,,,,999,2020-11-26_10h56.32.062,lexical_decision_task_MP_exp2,2020.2.5,Win32,60,,0,,,,,,,,0.232,-1,,,,,,59,WORD,"ID",16,splint,SPLINT,m,,,,,,,0.300330033,-0.305280528,0,0,0,,0,4,4,118,1
,,,,,,,,,,,,,,,,,,999,2020-11-26_10h56.32.062,lexical_decision_task_MP_exp2,2020.2.5,Win32,60,,0,,,,,,,,0.232,-1,,,,,,149,WORD,UN,16,random,INVADE,m,,,,,,,0.300330033,-0.305280528,0,0,0,,0,5,5,208,1
,,,,,,,,,,,,,,,,,,999,2020-11-26_10h56.32.062,lexical_decision_task_MP_exp2,2020.2.5,Win32,60,,0,,,,,,,,0.232,-1,,,,,,157,WORD,UN,16,island,DRAGON,m,,,,,,,0.300330033,-0.305280528,0,0,0,,0,6,6,216,1
,,,,,,,,,,,,,,,,,,999,2020-11-26_10h56.32.062,lexical_decision_task_MP_exp2,2020.2.5,Win32,60,,0,,,,,,,,0.232,-1,,,,,,174,WORD,UN,16,fabric,TURKEY,m,,,,,,,0.300330033,-0.305280528,0,0,0,,0,7,7,233,1
,,,,,,,,,,,,,,,,,,999,2020-11-26_10h56.32.062,lexical_decision_task_MP_exp2,2020.2.5,Win32,60,,0,,,,,,,,0.232,-1,,,,,,365,NW,UN,16,toshel,GUAIRT,z,,,,,,,0.300330033,-0.305280528,0,0,0,,0,8,8,424,1
,,,,,,,,,,,,,,,,,,999,2020-11-26_10h56.32.062,lexical_decision_task_MP_exp2,2020.2.5,Win32,60,,0,,,,,,,,0.232,-1,,,,,,143,WORD,UN,16,sponge,REASON,m,,,,,,,0.300330033,-0.305280528,0,0,0,,0,9,9,202,1
,,,,,,,,,,,,,,,,,,999,2020-11-26_10h56.32.062,lexical_decision_task_MP_exp2,2020.2.5,Win32,60,,0,,,,,,,,0.232,-1,,,,,,385,NW,UN,16,ancust,VEIGMA,z,,,,,,,0.221122112,-0.48019802,0,0,0,,0,10,10,444,1
,,,,,,,,,,,,,,,,,,999,2020-11-26_10h56.32.062,lexical_decision_task_MP_exp2,2020.2.5,Win32,60,,0,,,,,,,,0.232,-1,,,,,,42,WORD,"ID",16,chapel,CHAPEL,m,,,,,,,0.221122112,-0.48019802,0,0,0,,0,11,11,101,1
,,,,,,,,,,,,,,,,,,999,2020-11-26_10h56.32.062,lexical_decision_task_MP_exp2,2020.2.5,Win32,60,,0,,,,,,,,0.232,-1,,,,,,85,WORD,UN,33,rodent,SPRAWL,m,,,,,,,0.221122112,-0.48019802,0,0,0,,0,12,12,144,1
,,,,,,,,,,,,,,,,,,999,2020-11-26_10h56.32.062,lexical_decision_task_MP_exp2,2020.2.5,Win32,60,,0,,,,,,,,0.232,-1,,,,,,225,WORD,"ID",33,vulgar,VULGAR,m,,,,,,,0.221122112,-0.48019802,0,0,0,,0,13,13,44,1
,,,,,,,,,,,,,,,,,,999,2020-11-26_10h56.32.062,lexical_decision_task_MP_exp2,2020.2.5,Win32,60,,0,,,,,,,,0.232,-1,,,,,,195,WORD,"ID",33,resign,RESIGN,m,,,,,,,0.221122112,-0.48019802,0,0,0,,0,14,14,14,1
,,,,,,,,,,,,,,,,,,999,2020-11-26_10h56.32.062,lexical_decision_task_MP_exp2,2020.2.5,Win32,60,,0,,,,,,,,0.232,-1,,,,,,73,WORD,UN,33,plaque,SOURCE,m,,,,,,,0.221122112,-0.48019802,0,0,0,,0,15,15,132,1
,,,,,,,,,,,,,,,,,,999,2020-11-26_10h56.32.062,lexical_decision_task_MP_exp2,2020.2.5,Win32,60,,0,,,,,,,,0.232,-1,,,,,,260,NW,"ID",16,unject,UNJECT,z,,,,,,,0.221122112,-0.48019802,0,0,0,,0,16,16,319,1
,,,,,,,,,,,,,,,,,,999,2020-11-26_10h56.32.062,lexical_decision_task_MP_exp2,2020.2.5,Win32,60,,0,,,,,,,,0.232,-1,,,,,,310,NW,UN,33,sproly,DANIET,z,,,,,,,0.221122112,-0.48019802,0,0,0,,0,17,17,369,1
,,,,,,,,,,,,,,,,,,999,2020-11-26_10h56.32.062,lexical_decision_task_MP_exp2,2020.2.5,Win32,60,,0,,,,,,,,0.232,-1,,,,,,229,WORD,"ID",33,mother,MOTHER,m,,,,,,,0.221122112,-0.48019802,0,0,0,,0,18,18,48,1
,,,,,,,,,,,,,,,,,,999,2020-11-26_10h56.32.062,lexical_decision_task_MP_exp2,2020.2.5,Win32,60,,0,,,,,,,,0.232,-1,,,,,,279,NW,"ID",16,celond,CELOND,z,,,,,,,0.221122112,-0.48019802,0,0,0,,0,19,19,338,1
,,,,,,,,,,,,,,,,,,999,2020-11-26_10h56.32.062,lexical_decision_task_MP_exp2,2020.2.5,Win32,60,,0,,,,,,,,0.232,-1,,,,,,390,NW,UN,16,theldy,HATRUS,z,,,,,,,0.221122112,-0.48019802,0,0,0,,0,20,20,449,1
,,,,,,,,,,,,,,,,,,999,2020-11-26_10h56.32.062,lexical_decision_task_MP_exp2,2020.2.5,Win32,60,,0,,,,,,,,0.232,-1,,,,,,5,WORD,"ID",16,plunge,PLUNGE,m,,,,,,,0.221122112,-0.48019802,0,0,0,,0,21,21,64,1
,,,,,,,,,,,,,,,,,,999,2020-11-26_10h56.32.062,lexical_decision_task_MP_exp2,2020.2.5,Win32,60,,0,,,,,,,,0.232,-1,,,,,,80,WORD,UN,33,friend,FAMILY,m,,,,,,,0.221122112,-0.48019802,0,0,0,,0,22,22,139,1
,,,,,,,,,,,,,,,,,,999,2020-11-26_10h56.32.062,lexical_decision_task_MP_exp2,2020.2.5,Win32,60,,0,,,,,,,,0.232,-1,,,,,,377,NW,UN,16,shrile,INJORE,z,,,,,,,0.221122112,-0.48019802,0,0,0,,0,23,23,436,1
,,,,,,,,,,,,,,,,,,999,2020-11-26_10h56.32.062,lexical_decision_task_MP_exp2,2020.2.5,Win32,60,,0,,,,,,,,0.232,-1,,,,,,19,WORD,"ID",16,patron,PATRON,m,,,,,,,0.221122112,-0.48019802,0,0,0,,0,24,24,78,1
,,,,,,,,,,,,,,,,,,999,2020-11-26_10h56.32.062,lexical_decision_task_MP_exp2,2020.2.5,Win32,60,,0,,,,,,,,0.232,-1,,,,,,12,WORD,"ID",16,orange,ORANGE,m,,,,,,,0.221122112,-0.48019802,0,0,0,,0,25,25,71,1
,,,,,,,,,,,,,,,,,,999,2020-11-26_10h56.32.062,lexical_decision_task_MP_exp2,2020.2.5,Win32,60,,0,,,,,,,,0.232,-1,,,,,,64,WORD,UN,33,symbol,THRONE,m,,,,,,,0.221122112,-0.48019802,0,0,0,,0,26,26,123,1
,,,,,,,,,,,,,,,,,,999,2020-11-26_10h56.32.062,lexical_decision_task_MP_exp2,2020.2.5,Win32,60,,0,,,,,,,,0.232,-1,,,,,,180,WORD,UN,16,thrive,SILENT,m,,,,,,,0.221122112,-0.48019802,0,0,0,,0,27,27,239,1
,,,,,,,,,,,,,,,,,,999,2020-11-26_10h56.32.062,lexical_decision_task_MP_exp2,2020.2.5,Win32,60,,0,,,,,,,,0.232,-1,,,,,,341,NW,UN,33,randow,MYRTIE,z,,,,,,,0.221122112,-0.48019802,0,0,0,,0,28,28,400,1
,,,,,,,,,,,,,,,,,,999,2020-11-26_10h56.32.062,lexical_decision_task_MP_exp2,2020.2.5,Win32,60,,0,,,,,,,,0.232,-1,,,,,,151,WORD,UN,16,rocket,MYSTIC,m,,,,,,,0.221122112,-0.48019802,0,0,0,,0,29,29,210,1
,,,,,,,,,,,,,,,,,,999,2020-11-26_10h56.32.062,lexical_decision_task_MP_exp2,2020.2.5,Win32,60,,0,,,,,,,,0.232,-1,,,,,,393,NW,UN,16,spaqux,GANOUS,z,,,,,,,0.221122112,-0.48019802,0,0,0,,0,30,30,452,1
,,,,,,,,,,,,,,,,,,999,2020-11-26_10h56.32.062,lexical_decision_task_MP_exp2,2020.2.5,Win32,60,,0,,,,,,,,0.232,-1,,,,,,464,NW,"ID",33,chaite,CHAITE,z,,,,,,,0.221122112,-0.48019802,0,0,0,,0,31,31,283,1
,,,,,,,,,,,,,,,,,,999,2020-11-26_10h56.32.062,lexical_decision_task_MP_exp2,2020.2.5,Win32,60,,0,,,,,,,,0.232,-1,,,,,,111,WORD,UN,33,breath,INDUCE,m,,,,,,,0.221122112,-0.48019802,0,0,0,,0,32,32,170,1
,,,,,,,,,,,,,,,,,,999,2020-11-26_10h56.32.062,lexical_decision_task_MP_exp2,2020.2.5,Win32,60,,0,,,,,,,,0.232,-1,,,,,,63,WORD,UN,33,throne,LAUNCH,m,,,,,,,0.221122112,-0.48019802,0,0,0,,0,33,33,122,1
,,,,,,,,,,,,,,,,,,999,2020-11-26_10h56.32.062,lexical_decision_task_MP_exp2,2020.2.5,Win32,60,,0,,,,,,,,0.232,-1,,,,,,329,NW,UN,33,kensom,YARIKE,z,,,,,,,0.221122112,-0.48019802,0,0,0,,0,34,34,388,1
,,,,,,,,,,,,,,,,,,999,2020-11-26_10h56.32.062,lexical_decision_task_MP_exp2,2020.2.5,Win32,60,,0,,,,,,,,0.232,-1,,,,,,281,NW,"ID",16,melaty,MELATY,z,,,,,,,0.221122112,-0.48019802,0,0,0,,0,35,35,340,1
,,,,,,,,,,,,,,,,,,999,2020-11-26_10h56.32.062,lexical_decision_task_MP_exp2,2020.2.5,Win32,60,,0,,,,,,,,0.232,-1,,,,,,440,NW,"ID",33,saride,SARIDE,z,,,,,,,0.221122112,-0.48019802,0,0,0,,0,36,36,259,1
,,,,,,,,,,,,,,,,,,999,2020-11-26_10h56.32.062,lexical_decision_task_MP_exp2,2020.2.5,Win32,60,,0,,,,,,,,0.232,-1,,,,,,250,NW,"ID",16,milted,MILTED,z,,,,,,,0.221122112,-0.48019802,0,0,0,,0,37,37,309,1
,,,,,,,,,,,,,,,,,,999,2020-11-26_10h56.32.062,lexical_decision_task_MP_exp2,2020.2.5,Win32,60,,0,,,,,,,,0.232,-1,,,,,,155,WORD,UN,16,cradle,LIZARD,m,,,,,,,0.221122112,-0.48019802,0,0,0,,0,38,38,214,1
,,,,,,,,,,,,,,,,,,999,2020-11-26_10h56.32.062,lexical_decision_task_MP_exp2,2020.2.5,Win32,60,,0,,,,,,,,0.232,-1,,,,,,401,NW,UN,16,syntic,MUSTIL,z,,,,,,,0.221122112,-0.48019802,0,0,0,,0,39,39,460,1
,,,,,,,,,,,,,,,,,,999,2020-11-26_10h56.32.062,lexical_decision_task_MP_exp2,2020.2.5,Win32,60,,0,,,,,,,,0.232,-1,,,,,,396,NW,UN,16,camble,FLENGY,z,,,,,,,0.221122112,-0.48019802,0,0,0,,0,40,40,455,1
,,,,,,,,,,,,,,,,,,999,2020-11-26_10h56.32.062,lexical_decision_task_MP_exp2,2020.2.5,Win32,60,,0,,,,,,,,0.232,-1,,,,,,113,WORD,UN,33,placid,CHORUS,m,,,,,,,0.221122112,-0.48019802,0,0,0,,0,41,41,172,1
,,,,,,,,,,,,,,,,,,999,2020-11-26_10h56.32.062,lexical_decision_task_MP_exp2,2020.2.5,Win32,60,,0,,,,,,,,0.232,-1,,,,,,247,NW,"ID",16,blarge,BLARGE,z,,,,,,,0.221122112,-0.48019802,0,0,0,,0,42,42,306,1
,,,,,,,,,,,,,,,,,,999,2020-11-26_10h56.32.062,lexical_decision_task_MP_exp2,2020.2.5,Win32,60,,0,,,,,,,,0.232,-1,,,,,,9,WORD,"ID",16,hustle,HUSTLE,m,,,,,,,-2.567656766,-0.48679868,0,0,0,,0,43,43,68,1
,,,,,,,,,,,,,,,,,,999,2020-11-26_10h56.32.062,lexical_decision_task_MP_exp2,2020.2.5,Win32,60,,0,,,,,,,,0.232,-1,,,,,,153,WORD,UN,16,author,BEHOLD,m,,,,,,,-2.567656766,-0.48679868,0,0,0,,0,44,44,212,1
,,,,,,,,,,,,,,,,,,999,2020-11-26_10h56.32.062,lexical_decision_task_MP_exp2,2020.2.5,Win32,60,,0,,,,,,,,0.232,-1,,,,,,79,WORD,UN,33,family,THEORY,m,,,,,,,-2.567656766,-0.48679868,0,0,0,,0,45,45,138,1
,,,,,,,,,,,,,,,,,,999,2020-11-26_10h56.32.062,lexical_decision_task_MP_exp2,2020.2.5,Win32,60,,0,,,,,,,,0.232,-1,,,,,,316,NW,UN,33,worbal,SCREGM,z,,,,,,,-2.567656766,-0.48679868,0,0,0,,0,46,46,375,1
,,,,,,,,,,,,,,,,,,999,2020-11-26_10h56.32.062,lexical_decision_task_MP_exp2,2020.2.5,Win32,60,,0,,,,,,,,0.232,-1,,,,,,137,WORD,UN,16,melody,FINGER,m,,,,,,,-2.567656766,-0.48679868,0,0,0,,0,47,47,196,1
,,,,,,,,,,,,,,,,,,999,2020-11-26_10h56.32.062,lexical_decision_task_MP_exp2,2020.2.5,Win32,60,,0,,,,,,,,0.232,-1,,,,,,144,WORD,UN,16,parish,SPONGE,m,,,,,,,-2.567656766,-0.48679868,0,0,0,,0,48,48,203,1
,,,,,,,,,,,,,,,,,,999,2020-11-26_10h56.32.062,lexical_decision_task_MP_exp2,2020.2.5,Win32,60,,0,,,,,,,,0.232,-1,,,,,,342,NW,UN,33,aimosy,RANDOW,z,,,,,,,-2.567656766,-0.48679868,0,0,0,,0,49,49,401,1
,,,,,,,,,,,,,,,,,,999,2020-11-26_10h56.32.062,lexical_decision_task_MP_exp2,2020.2.5,Win32,60,,0,,,,,,,,0.232,-1,,,,,,241,NW,"ID",16,smenco,SMENCO,z,,,,,,,-2.567656766,-0.48679868,0,0,0,,0,50,50,300,1
,,,,,,,,,,,,,,,,,,999,2020-11-26_10h56.32.062,lexical_decision_task_MP_exp2,2020.2.5,Win32,60,,0,,,,,,,,0.232,-1,,,,,,299,NW,"ID",16,sturch,STURCH,z,,,,,,,-2.567656766,-0.48679868,0,0,0,,0,51,51,358,1
,,,,,,,,,,,,,,,,,,999,2020-11-26_10h56.32.062,lexical_decision_task_MP_exp2,2020.2.5,Win32,60,,0,,,,,,,,0.232,-1,,,,,,28,WORD,"ID",16,comedy,COMEDY,m,,,,,,,-2.567656766,-0.48679868,0,0,0,,0,52,52,87,1
,,,,,,,,,,,,,,,,,,999,2020-11-26_10h56.32.062,lexical_decision_task_MP_exp2,2020.2.5,Win32,60,,0,,,,,,,,0.232,-1,,,,,,477,NW,"ID",33,photie,PHOTIE,z,,,,,,,-2.567656766,-0.48679868,0,0,0,,0,53,53,296,1
,,,,,,,,,,,,,,,,,,999,2020-11-26_10h56.32.062,lexical_decision_task_MP_exp2,2020.2.5,Win32,60,,0,,,,,,,,0.232,-1,,,,,,167,WORD,UN,16,answer,DESIGN,m,,,,,,,-2.567656766,-0.48679868,0,0,0,,0,54,54,226,1
,,,,,,,,,,,,,,,,,,999,2020-11-26_10h56.32.062,lexical_decision_task_MP_exp2,2020.2.5,Win32,60,,0,,,,,,,,0.232,-1,,,,,,203,WORD,"ID",33,phrase,PHRASE,m,,,,,,,-2.567656766,-0.48679868,0,0,0,,0,55,55,22,1
,,,,,,,,,,,,,,,,,,999,2020-11-26_10h56.32.062,lexical_decision_task_MP_exp2,2020.2.5,Win32,60,,0,,,,,,,,0.232,-1,,,,,,455,NW,"ID",33,tondle,TONDLE,z,,,,,,,-2.567656766,-0.48679868,0,0,0,,0,56,56,274,1
,,,,,,,,,,,,,,,,,,999,2020-11-26_10h56.32.062,lexical_decision_task_MP_exp2,2020.2.5,Win32,60,,0,,,,,,,,0.232,-1,,,,,,357,NW,UN,33,fleack,DERAIN,z,,,,,,,-2.567656766,-0.48679868,0,0,0,,0,57,57,416,1
,,,,,,,,,,,,,,,,,,999,2020-11-26_10h56.32.062,lexical_decision_task_MP_exp2,2020.2.5,Win32,60,,0,,,,,,,,0.232,-1,,,,,,405,NW,UN,16,nouply,FLUMNI,z,,,,,,,-2.567656766,-0.48679868,0,0,0,,0,58,58,464,1
,,,,,,,,,,,,,,,,,,999,2020-11-26_10h56.32.062,lexical_decision_task_MP_exp2,2020.2.5,Win32,60,,0,,,,,,,,0.232,-1,,,,,,471,NW,"ID",33,nobest,NOBEST,z,,,,,,,-2.567656766,-0.48679868,0,0,0,,0,59,59,290,1
,,,,,,,,,,,,,,,,,,999,2020-11-26_10h56.32.062,lexical_decision_task_MP_exp2,2020.2.5,Win32,60,,0,,,,,,,,0.232,-1,,,,,,465,NW,"ID",33,whivex,WHIVEX,z,,,,,,,-2.567656766,-0.48679868,0,0,0,,0,60,60,284,1
,,,,,,,,,,,,,,,,,,999,2020-11-26_10h56.32.062,lexical_decision_task_MP_exp2,2020.2.5,Win32,60,,0,,,,,,,,0.232,-1,,,,,,184,WORD,"ID",33,sleazy,SLEAZY,m,,,,,,,-2.567656766,-0.48679868,0,0,0,,0,61,61,3,1
,,,,,,,,,,,,,,,,,,999,2020-11-26_10h56.32.062,lexical_decision_task_MP_exp2,2020.2.5,Win32,60,,0,,,,,,,,0.232,-1,,,,,,57,WORD,"ID",16,change,CHANGE,m,,,,,,,-2.567656766,-0.48679868,0,0,0,,0,62,62,116,1
,,,,,,,,,,,,,,,,,,999,2020-11-26_10h56.32.062,lexical_decision_task_MP_exp2,2020.2.5,Win32,60,,0,,,,,,,,0.232,-1,,,,,,114,WORD,UN,33,guitar,PLACID,m,,,,,,,-2.567656766,-0.48679868,0,0,0,,0,63,63,173,1
,,,,,,,,,,,,,,,,,,999,2020-11-26_10h56.32.062,lexical_decision_task_MP_exp2,2020.2.5,Win32,60,,0,,,,,,,,0.232,-1,,,,,,420,NW,UN,16,pauche,GUSHOP,z,,,,,,,-2.567656766,-0.48679868,0,0,0,,0,64,64,479,1
,,,,,,,,,,,,,,,,,,999,2020-11-26_10h56.32.062,lexical_decision_task_MP_exp2,2020.2.5,Win32,60,,0,,,,,,,,0.232,-1,,,,,,431,NW,"ID",33,chrums,CHRUMS,z,,,,,,,-2.567656766,-0.48679868,0,0,0,,0,65,65,250,1
,,,,,,,,,,,,,,,,,,999,2020-11-26_10h56.32.062,lexical_decision_task_MP_exp2,2020.2.5,Win32,60,,0,,,,,,,,0.232,-1,,,,,,181,WORD,"ID",33,glance,GLANCE,m,,,,,,,-2.567656766,-0.48679868,0,0,0,,0,66,66,0,1
,,,,,,,,,,,,,,,,,,999,2020-11-26_10h56.32.062,lexical_decision_task_MP_exp2,2020.2.5,Win32,60,,0,,,,,,,,0.232,-1,,,,,,14,WORD,"ID",16,almost,ALMOST,m,,,,,,,-2.567656766,-0.48679868,0,0,0,,0,67,67,73,1
,,,,,,,,,,,,,,,,,,999,2020-11-26_10h56.32.062,lexical_decision_task_MP_exp2,2020.2.5,Win32,60,,0,,,,,,,,0.232,-1,,,,,,46,WORD,"ID",16,single,SINGLE,m,,,,,,,-2.567656766,-0.48679868,0,0,0,,0,68,68,105,1
,,,,,,,,,,,,,,,,,,999,2020-11-26_10h56.32.062,lexical_decision_task_MP_exp2,2020.2.5,Win32,60,,0,,,,,,,,0.232,-1,,,,,,169,WORD,UN,16,pounce,GENIUS,m,,,,,,,-2.567656766,-0.48679868,0,0,0,,0,69,69,228,1
,,,,,,,,,,,,,,,,,,999,2020-11-26_10h56.32.062,lexical_decision_task_MP_exp2,2020.2.5,Win32,60,,0,,,,,,,,0.232,-1,,,,,,348,NW,UN,33,asylen,DUMPLE,z,,,,,,,-2.567656766,-0.48679868,0,0,0,,0,70,70,407,1
,,,,,,,,,,,,,,,,,,999,2020-11-26_10h56.32.062,lexical_decision_task_MP_exp2,2020.2.5,Win32,60,,0,,,,,,,,0.232,-1,,,,,,411,NW,UN,16,jiluer,ORCHIN,z,,,,,,,-2.567656766,-0.48679868,0,0,0,,0,71,71,470,1
,,,,,,,,,,,,,,,,,,999,2020-11-26_10h56.32.062,lexical_decision_task_MP_exp2,2020.2.5,Win32,60,,0,,,,,,,,0.232,-1,,,,,,152,WORD,UN,16,behold,ROCKET,m,,,,,,,-2.567656766,-0.48679868,0,0,0,,0,72,72,211,1
,,,,,,,,,,,,,,,,,,999,2020-11-26_10h56.32.062,lexical_decision_task_MP_exp2,2020.2.5,Win32,60,,0,,,,,,,,0.232,-1,,,,,,81,WORD,UN,33,stigma,FRIEND,m,,,,,,,-2.567656766,-0.48679868,0,0,0,,0,73,73,140,1
,,,,,,,,,,,,,,,,,,999,2020-11-26_10h56.32.062,lexical_decision_task_MP_exp2,2020.2.5,Win32,60,,0,,,,,,,,0.232,-1,,,,,,454,NW,"ID",33,scouge,SCOUGE,z,,,,,,,-2.567656766,-0.48679868,0,0,0,,0,74,74,273,1
,,,,,,,,,,,,,,,,,,999,2020-11-26_10h56.32.062,lexical_decision_task_MP_exp2,2020.2.5,Win32,60,,0,,,,,,,,0.232,-1,,,,,,404,NW,UN,16,flumni,CLUIRM,z,,,,,,,-2.567656766,-0.48679868,0,0,0,,0,75,75,463,1
,,,,,,,,,,,,,,,,,,999,2020-11-26_10h56.32.062,lexical_decision_task_MP_exp2,2020.2.5,Win32,60,,0,,,,,,,,0.232,-1,,,,,,476,NW,"ID",33,josted,JOSTED,z,,,,,,,-2.567656766,-0.48679868,0,0,0,,0,76,76,295,1
,,,,,,,,,,,,,,,,,,999,2020-11-26_10h56.32.062,lexical_decision_task_MP_exp2,2020.2.5,Win32,60,,0,,,,,,,,0.232,-1,,,,,,215,WORD,"ID",33,phobia,PHOBIA,m,,,,,,,-2.567656766,-0.48679868,0,0,0,,0,77,77,34,1
,,,,,,,,,,,,,,,,,,999,2020-11-26_10h56.32.062,lexical_decision_task_MP_exp2,2020.2.5,Win32,60,,0,,,,,,,,0.232,-1,,,,,,190,WORD,"ID",33,backup,BACKUP,m,,,,,,,-2.567656766,-0.48679868,0,0,0,,0,78,78,9,1
,,,,,,,,,,,,,,,,,,999,2020-11-26_10h56.32.062,lexical_decision_task_MP_exp2,2020.2.5,Win32,60,,0,,,,,,,,0.232,-1,,,,,,4,WORD,"ID",16,trench,TRENCH,m,,,,,,,-2.567656766,-0.48679868,0,0,0,,0,79,79,63,1
,,,,,,,,,,,,,,,,,,999,2020-11-26_10h56.32.062,lexical_decision_task_MP_exp2,2020.2.5,Win32,60,,0,,,,,,,,0.232,-1,,,,,,38,WORD,"ID",16,powder,POWDER,m,,,,,,,-2.567656766,-0.48679868,0,0,0,,0,80,80,97,1
,,,,,,,,,,,,,,,,,,999,2020-11-26_10h56.32.062,lexical_decision_task_MP_exp2,2020.2.5,Win32,60,,0,,,,,,,,0.232,-1,,,,,,7,WORD,"ID",16,anchor,ANCHOR,m,,,,,,,-2.567656766,-0.48679868,0,0,0,,0,81,81,66,1
,,,,,,,,,,,,,,,,,,999,2020-11-26_10h56.32.062,lexical_decision_task_MP_exp2,2020.2.5,Win32,60,,0,,,,,,,,0.232,-1,,,,,,305,NW,UN,33,sounge,FORGLE,z,,,,,,,-2.567656766,-0.48679868,0,0,0,,0,82,82,364,1
,,,,,,,,,,,,,,,,,,999,2020-11-26_10h56.32.062,lexical_decision_task_MP_exp2,2020.2.5,Win32,60,,0,,,,,,,,0.232,-1,,,,,,127,WORD,UN,16,senior,CASTLE,m,,,,,,,-2.567656766,-0.48679868,0,0,0,,0,83,83,186,1
,,,,,,,,,,,,,,,,,,999,2020-11-26_10h56.32.062,lexical_decision_task_MP_exp2,2020.2.5,Win32,60,,0,,,,,,,,0.232,-1,,,,,,236,WORD,"ID",33,pirate,PIRATE,m,,,,,,,-2.567656766,-0.48679868,0,0,0,,0,84,84,55,1
,,,,,,,,,,,,,,,,,,999,2020-11-26_10h56.32.062,lexical_decision_task_MP_exp2,2020.2.5,Win32,60,,0,,,,,,,,0.232,-1,,,,,,467,NW,"ID",33,gorbie,GORBIE,z,,,,,,,-2.567656766,-0.48679868,0,0,0,,0,85,85,286,1
,,,,,,,,,,,,,,,,,,999,2020-11-26_10h56.32.062,lexical_decision_task_MP_exp2,2020.2.5,Win32,60,,0,,,,,,,,0.232,-1,,,,,,76,WORD,UN,33,racket,EXOTIC,m,,,,,,,-2.567656766,-0.48679868,0,0,0,,0,86,86,135,1
,,,,,,,,,,,,,,,,,,999,2020-11-26_10h56.32.062,lexical_decision_task_MP_exp2,2020.2.5,Win32,60,,0,,,,,,,,0.232,-1,,,,,,270,NW,"ID",16,wrimsy,WRIMSY,z,,,,,,,-2.567656766,-0.48679868,0,0,0,,0,87,87,329,1
,,,,,,,,,,,,,,,,,,999,2020-11-26_10h56.32.062,lexical_decision_task_MP_exp2,2020.2.5,Win32,60,,0,,,,,,,,0.232,-1,,,,,,298,NW,"ID",16,piergy,PIERGY,z,,,,,,,-2.567656766,-0.48679868,0,0,0,,0,88,88,357,1
,,,,,,,,,,,,,,,,,,999,2020-11-26_10h56.32.062,lexical_decision_task_MP_exp2,2020.2.5,Win32,60,,0,,,,,,,,0.232,-1,,,,,,466,NW,"ID",33,hocite,HOCITE,z,,,,,,,-2.567656766,-0.48679868,0,0,0,,0,89,89,285,1
,,,,,,,,,,,,,,,,,,999,2020-11-26_10h56.32.062,lexical_decision_task_MP_exp2,2020.2.5,Win32,60,,0,,,,,,,,0.232,-1,,,,,,104,WORD,UN,33,number,STUDIO,m,,,,,,,-2.567656766,-0.48679868,0,0,0,,0,90,90,163,1
,,,,,,,,,,,,,,,,,,999,2020-11-26_10h56.32.062,lexical_decision_task_MP_exp2,2020.2.5,Win32,60,,0,,,,,,,,0.232,-1,,,,,,238,WORD,"ID",33,flower,FLOWER,m,,,,,,,-2.567656766,-0.48679868,0,0,0,,0,91,91,57,1
,,,,,,,,,,,,,,,,,,999,2020-11-26_10h56.32.062,lexical_decision_task_MP_exp2,2020.2.5,Win32,60,,0,,,,,,,,0.232,-1,,,,,,175,WORD,UN,16,strife,FABRIC,m,,,,,,,-2.567656766,-0.48679868,0,0,0,,0,92,92,234,1
,,,,,,,,,,,,,,,,,,999,2020-11-26_10h56.32.062,lexical_decision_task_MP_exp2,2020.2.5,Win32,60,,0,,,,,,,,0.232,-1,,,,,,451,NW,"ID",33,cainky,CAINKY,z,,,,,,,-2.567656766,-0.48679868,0,0,0,,0,93,93,270,1
,,,,,,,,,,,,,,,,,,999,2020-11-26_10h56.32.062,lexical_decision_task_MP_exp2,2020.2.5,Win32,60,,0,,,,,,,,0.232,-1,,,,,,223,WORD,"ID",33,kidney,KIDNEY,m,,,,,,,-2.567656766,-0.48679868,0,0,0,,0,94,94,42,1
,,,,,,,,,,,,,,,,,,999,2020-11-26_10h56.32.062,lexical_decision_task_MP_exp2,2020.2.5,Win32,60,,0,,,,,,,,0.232,-1,,,,,,196,WORD,"ID",33,credit,CREDIT,m,,,,,,,-2.567656766,-0.48679868,0,0,0,,0,95,95,15,1
,,,,,,,,,,,,,,,,,,999,2020-11-26_10h56.32.062,lexical_decision_task_MP_exp2,2020.2.5,Win32,60,,0,,,,,,,,0.232,-1,,,,,,17,WORD,"ID",16,charge,CHARGE,m,,,,,,,-2.567656766,-0.48679868,0,0,0,,0,96,96,76,1
,,,,,,,,,,,,,,,,,,999,2020-11-26_10h56.32.062,lexical_decision_task_MP_exp2,2020.2.5,Win32,60,,0,,,,,,,,0.232,-1,,,,,,186,WORD,"ID",33,portal,PORTAL,m,,,,,,,-2.567656766,-0.48679868,0,0,0,,0,97,97,5,1
,,,,,,,,,,,,,,,,,,999,2020-11-26_10h56.32.062,lexical_decision_task_MP_exp2,2020.2.5,Win32,60,,0,,,,,,,,0.232,-1,,,,,,412,NW,UN,16,equats,JILUER,z,,,,,,,-2.567656766,-0.48679868,0,0,0,,0,98,98,471,1
,,,,,,,,,,,,,,,,,,999,2020-11-26_10h56.32.062,lexical_decision_task_MP_exp2,2020.2.5,Win32,60,,0,,,,,,,,0.232,-1,,,,,,248,NW,"ID",16,strole,STROLE,z,,,,,,,-2.567656766,-0.48679868,0,0,0,,0,99,99,307,1
,,,,,,,,,,,,,,,,,,999,2020-11-26_10h56.32.062,lexical_decision_task_MP_exp2,2020.2.5,Win32,60,,0,,,,,,,,0.232,-1,,,,,,379,NW,UN,16,cavory,AUTING,z,,,,,,,-2.567656766,-0.48679868,0,0,0,,0,100,100,438,1
,,,,,,,,,,,,,,,,,,999,2020-11-26_10h56.32.062,lexical_decision_task_MP_exp2,2020.2.5,Win32,60,,0,,,,,,,,0.232,-1,,,,,,353,NW,UN,33,virlex,CLUREY,z,,,,,,,-2.567656766,-0.48679868,0,0,0,,0,101,101,412,1
,,,,,,,,,,,,,,,,,,999,2020-11-26_10h56.32.062,lexical_decision_task_MP_exp2,2020.2.5,Win32,60,,0,,,,,,,,0.232,-1,,,,,,65,WORD,UN,33,gospel,SYMBOL,m,,,,,,,-2.567656766,-0.48679868,0,0,0,,0,102,102,124,1
,,,,,,,,,,,,,,,,,,999,2020-11-26_10h56.32.062,lexical_decision_task_MP_exp2,2020.2.5,Win32,60,,0,,,,,,,,0.232,-1,,,,,,427,NW,"ID",33,schind,SCHIND,z,,,,,,,-2.567656766,-0.48679868,0,0,0,,0,103,103,246,1
,,,,,,,,,,,,,,,,,,999,2020-11-26_10h56.32.062,lexical_decision_task_MP_exp2,2020.2.5,Win32,60,,0,,,,,,,,0.232,-1,,,,,,296,NW,"ID",16,beinch,BEINCH,z,,,,,,,-2.567656766,-0.48679868,0,0,0,,0,104,104,355,1
,,,,,,,,,,,,,,,,,,999,2020-11-26_10h56.32.062,lexical_decision_task_MP_exp2,2020.2.5,Win32,60,,0,,,,,,,,0.232,-1,,,,,,450,NW,"ID",33,phrect,PHRECT,z,,,,,,,-2.567656766,-0.48679868,0,0,0,,0,105,105,269,1
,,,,,,,,,,,,,,,,,,999,2020-11-26_10h56.32.062,lexical_decision_task_MP_exp2,2020.2.5,Win32,60,,0,,,,,,,,0.232,-1,,,,,,311,NW,UN,33,nerawl,SPROLY,z,,,,,,,-2.567656766,-0.48679868,0,0,0,,0,106,106,370,1
,,,,,,,,,,,,,,,,,,999,2020-11-26_10h56.32.062,lexical_decision_task_MP_exp2,2020.2.5,Win32,60,,0,,,,,,,,0.232,-1,,,,,,75,WORD,UN,33,exotic,TROPHY,m,,,,,,,-2.567656766,-0.48679868,0,0,0,,0,107,107,134,1
,,,,,,,,,,,,,,,,,,999,2020-11-26_10h56.32.062,lexical_decision_task_MP_exp2,2020.2.5,Win32,60,,0,,,,,,,,0.232,-1,,,,,,469,NW,"ID",33,padifs,PADIFS,z,,,,,,,-2.567656766,-0.48679868,0,0,0,,0,108,108,288,1
,,,,,,,,,,,,,,,,,,999,2020-11-26_10h56.32.062,lexical_decision_task_MP_exp2,2020.2.5,Win32,60,,0,,,,,,,,0.232,-1,,,,,,91,WORD,UN,33,hunger,EXPAND,m,,,,,,,-2.567656766,-0.48679868,0,0,0,,0,109,109,150,1
,,,,,,,,,,,,,,,,,,999,2020-11-26_10h56.32.062,lexical_decision_task_MP_exp2,2020.2.5,Win32,60,,0,,,,,,,,0.232,-1,,,,,,258,NW,"ID",16,poluth,POLUTH,z,,,,,,,-2.567656766,-0.48679868,0,0,0,,0,110,110,317,1
,,,,,,,,,,,,,,,,,,999,2020-11-26_10h56.32.062,lexical_decision_task_MP_exp2,2020.2.5,Win32,60,,0,,,,,,,,0.232,-1,,,,,,60,WORD,"ID",16,pencil,PENCIL,m,,,,,,,-2.567656766,-0.48679868,0,0,0,,0,111,111,119,1
,,,,,,,,,,,,,,,,,,999,2020-11-26_10h56.32.062,lexical_decision_task_MP_exp2,2020.2.5,Win32,60,,0,,,,,,,,0.232,-1,,,,,,182,WORD,"ID",33,winter,WINTER,m,,,,,,,-2.567656766,-0.48679868,0,0,0,,0,112,112,1,1
,,,,,,,,,,,,,,,,,,999,2020-11-26_10h56.32.062,lexical_decision_task_MP_exp2,2020.2.5,Win32,60,,0,,,,,,,,0.232,-1,,,,,,15,WORD,"ID",16,amount,AMOUNT,m,,,,,,,-2.567656766,-0.48679868,0,0,0,,0,113,113,74,1
,,,,,,,,,,,,,,,,,,999,2020-11-26_10h56.32.062,lexical_decision_task_MP_exp2,2020.2.5,Win32,60,,0,,,,,,,,0.232,-1,,,,,,337,NW,UN,33,wreash,REJOLS,z,,,,,,,-2.567656766,-0.48679868,0,0,0,,0,114,114,396,1
,,,,,,,,,,,,,,,,,,999,2020-11-26_10h56.32.062,lexical_decision_task_MP_exp2,2020.2.5,Win32,60,,0,,,,,,,,0.232,-1,,,,,,90,WORD,UN,33,expand,RELISH,m,,,,,,,-2.567656766,-0.48679868,0,0,0,,0,115,115,149,1
,,,,,,,,,,,,,,,,,,999,2020-11-26_10h56.32.062,lexical_decision_task_MP_exp2,2020.2.5,Win32,60,,0,,,,,,,,0.232,-1,,,,,,314,NW,UN,33,laston,SPRINE,z,,,,,,,-2.567656766,-0.48679868,0,0,0,,0,116,116,373,1
,,,,,,,,,,,,,,,,,,999,2020-11-26_10h56.32.062,lexical_decision_task_MP_exp2,2020.2.5,Win32,60,,0,,,,,,,,0.232,-1,,,,,,26,WORD,"ID",16,sprint,SPRINT,m,,,,,,,-2.567656766,-0.48679868,0,0,0,,0,117,117,85,1
,,,,,,,,,,,,,,,,,,999,2020-11-26_10h56.32.062,lexical_decision_task_MP_exp2,2020.2.5,Win32,60,,0,,,,,,,,0.232,-1,,,,,,74,WORD,UN,33,trophy,PLAQUE,m,,,,,,,-2.567656766,-0.48679868,0,0,0,,0,118,118,133,1
,,,,,,,,,,,,,,,,,,999,2020-11-26_10h56.32.062,lexical_decision_task_MP_exp2,2020.2.5,Win32,60,,0,,,,,,,,0.232,-1,,,,,,443,NW,"ID",33,dorsex,DORSEX,z,,,,,,,-2.567656766,-0.48679868,0,0,0,,0,119,119,262,1
,,,,,,,,,,,,,,,,,,999,2020-11-26_10h56.32.062,lexical_decision_task_MP_exp2,2020.2.5,Win32,60,,0,,,,,,,,0.232,-1,,,,,,373,NW,UN,16,sliant,BIGENT,z,,,,,,,-2.567656766,-0.48679868,0,0,0,,0,120,120,432,1
,,,,,,,,,,,,,,,,,,999,2020-11-26_10h56.32.062,lexical_decision_task_MP_exp2,2020.2.5,Win32,60,,0,,,,,,,,0.232,-1,,,,,,233,WORD,"ID",33,nature,NATURE,m,,,,,,,-2.567656766,-0.48679868,0,0,0,,0,121,121,52,1
,,,,,,,,,,,,,,,,,,999,2020-11-26_10h56.32.062,lexical_decision_task_MP_exp2,2020.2.5,Win32,60,,0,,,,,,,,0.232,-1,,,,,,194,WORD,"ID",33,absent,ABSENT,m,,,,,,,-2.567656766,-0.48679868,0,0,0,,0,122,122,13,1
,,,,,,,,,,,,,,,,,,999,2020-11-26_10h56.32.062,lexical_decision_task_MP_exp2,2020.2.5,Win32,60,,0,,,,,,,,0.232,-1,,,,,,69,WORD,UN,33,square,PLENTY,m,,,,,,,-2.567656766,-0.48679868,0,0,0,,0,123,123,128,1
,,,,,,,,,,,,,,,,,,999,2020-11-26_10h56.32.062,lexical_decision_task_MP_exp2,2020.2.5,Win32,60,,0,,,,,,,,0.232,-1,,,,,,2,WORD,"ID",16,bridge,BRIDGE,m,,,,,,,-2.567656766,-0.48679868,0,0,0,,0,124,124,61,1
,,,,,,,,,,,,,,,,,,999,2020-11-26_10h56.32.062,lexical_decision_task_MP_exp2,2020.2.5,Win32,60,,0,,,,,,,,0.232,-1,,,,,,387,NW,UN,16,cragin,GRONCE,z,,,,,,,-2.567656766,-0.48679868,0,0,0,,0,125,125,446,1
,,,,,,,,,,,,,,,,,,999,2020-11-26_10h56.32.062,lexical_decision_task_MP_exp2,2020.2.5,Win32,60,,0,,,,,,,,0.232,-1,,,,,,437,NW,"ID",33,snapel,SNAPEL,z,,,,,,,-2.567656766,-0.48679868,0,0,0,,0,126,126,256,1
,,,,,,,,,,,,,,,,,,999,2020-11-26_10h56.32.062,lexical_decision_task_MP_exp2,2020.2.5,Win32,60,,0,,,,,,,,0.232,-1,,,,,,343,NW,UN,33,scrily,AIMOSY,z,,,,,,,-2.567656766,-0.48679868,0,0,0,,0,127,127,402,1
,,,,,,,,,,,,,,,,,,999,2020-11-26_10h56.32.062,lexical_decision_task_MP_exp2,2020.2.5,Win32,60,,0,,,,,,,,0.232,-1,,,,,,30,WORD,"ID",16,orient,ORIENT,m,,,,,,,-2.567656766,-0.48679868,0,0,0,,0,128,128,89,1
,,,,,,,,,,,,,,,,,,999,2020-11-26_10h56.32.062,lexical_decision_task_MP_exp2,2020.2.5,Win32,60,,0,,,,,,,,0.232,-1,,,,,,391,NW,UN,16,rouncy,THELDY,z,,,,,,,-2.567656766,-0.48679868,0,0,0,,0,129,129,450,1
,,,,,,,,,,,,,,,,,,999,2020-11-26_10h56.32.062,lexical_decision_task_MP_exp2,2020.2.5,Win32,60,,0,,,,,,,,0.232,-1,,,,,,462,NW,"ID",33,absult,ABSULT,z,,,,,,,-2.567656766,-0.48679868,0,0,0,,0,130,130,281,1
,,,,,,,,,,,,,,,,,,999,2020-11-26_10h56.32.062,lexical_decision_task_MP_exp2,2020.2.5,Win32,60,,0,,,,,,,,0.232,-1,,,,,,226,WORD,"ID",33,casino,CASINO,m,,,,,,,-2.567656766,-0.48679868,0,0,0,,0,131,131,45,1
,,,,,,,,,,,,,,,,,,999,2020-11-26_10h56.32.062,lexical_decision_task_MP_exp2,2020.2.5,Win32,60,,0,,,,,,,,0.232,-1,,,,,,141,WORD,UN,16,spruce,ORPHAN,m,,,,,,,-2.567656766,-0.48679868,0,0,0,,0,132,132,200,1
,,,,,,,,,,,,,,,,,,999,2020-11-26_10h56.32.062,lexical_decision_task_MP_exp2,2020.2.5,Win32,60,,0,,,,,,,,0.232,-1,,,,,,344,NW,UN,33,absend,SCRILY,z,,,,,,,-2.567656766,-0.48679868,0,0,0,,0,133,133,403,1
,,,,,,,,,,,,,,,,,,999,2020-11-26_10h56.32.062,lexical_decision_task_MP_exp2,2020.2.5,Win32,60,,0,,,,,,,,0.232,-1,,,,,,33,WORD,"ID",16,butler,BUTLER,m,,,,,,,-2.567656766,-0.48679868,0,0,0,,0,134,134,92,1
,,,,,,,,,,,,,,,,,,999,2020-11-26_10h56.32.062,lexical_decision_task_MP_exp2,2020.2.5,Win32,60,,0,,,,,,,,0.232,-1,,,,,,110,WORD,UN,33,induce,POLITE,m,,,,,,,-2.567656766,-0.48679868,0,0,0,,0,135,135,169,1
,,,,,,,,,,,,,,,,,,999,2020-11-26_10h56.32.062,lexical_decision_task_MP_exp2,2020.2.5,Win32,60,,0,,,,,,,,0.232,-1,,,,,,44,WORD,"ID",16,danger,DANGER,m,,,,,,,-2.567656766,-0.48679868,0,0,0,,0,136,136,103,1
,,,,,,,,,,,,,,,,,,999,2020-11-26_10h56.32.062,lexical_decision_task_MP_exp2,2020.2.5,Win32,60,,0,,,,,,,,0.232,-1,,,,,,475,NW,"ID",33,pebric,PEBRIC,z,,,,,,,-2.567656766,-0.48679868,0,0,0,,0,137,137,294,1
,,,,,,,,,,,,,,,,,,999,2020-11-26_10h56.32.062,lexical_decision_task_MP_exp2,2020.2.5,Win32,60,,0,,,,,,,,0.232,-1,,,,,,265,NW,"ID",16,distar,DISTAR,z,,,,,,,-2.567656766,-0.48679868,0,0,0,,0,138,138,324,1
,,,,,,,,,,,,,,,,,,999,2020-11-26_10h56.32.062,lexical_decision_task_MP_exp2,2020.2.5,Win32,60,,0,,,,,,,,0.232,-1,,,,,,220,WORD,"ID",33,voyage,VOYAGE,m,,,,,,,-2.567656766,-0.48679868,0,0,0,,0,139,139,39,1
,,,,,,,,,,,,,,,,,,999,2020-11-26_10h56.32.062,lexical_decision_task_MP_exp2,2020.2.5,Win32,60,,0,,,,,,,,0.232,-1,,,,,,245,NW,"ID",16,anougs,ANOUGS,z,,,,,,,-2.567656766,-0.48679868,0,0,0,,0,140,140,304,1
,,,,,,,,,,,,,,,,,,999,2020-11-26_10h56.32.062,lexical_decision_task_MP_exp2,2020.2.5,Win32,60,,0,,,,,,,,0.232,-1,,,,,,51,WORD,"ID",16,hungry,HUNGRY,m,,,,,,,-2.567656766,-0.48679868,0,0,0,,0,141,141,110,1
,,,,,,,,,,,,,,,,,,999,2020-11-26_10h56.32.062,lexical_decision_task_MP_exp2,2020.2.5,Win32,60,,0,,,,,,,,0.232,-1,,,,,,68,WORD,UN,33,plenty,FUMBLE,m,,,,,,,-2.567656766,-0.48679868,0,0,0,,0,142,142,127,1
,,,,,,,,,,,,,,,,,,999,2020-11-26_10h56.32.062,lexical_decision_task_MP_exp2,2020.2.5,Win32,60,,0,,,,,,,,0.232,-1,,,,,,308,NW,UN,33,amiloy,PSETCH,z,,,,,,,-2.567656766,-0.48679868,0,0,0,,0,143,143,367,1
,,,,,,,,,,,,,,,,,,999,2020-11-26_10h56.32.062,lexical_decision_task_MP_exp2,2020.2.5,Win32,60,,0,,,,,,,,0.232,-1,,,,,,176,WORD,UN,16,advent,STRIFE,m,,,,,,,-2.567656766,-0.48679868,0,0,0,,0,144,144,235,1
,,,,,,,,,,,,,,,,,,999,2020-11-26_10h56.32.062,lexical_decision_task_MP_exp2,2020.2.5,Win32,60,,0,,,,,,,,0.232,-1,,,,,,319,NW,UN,33,jockal,ZOMBER,z,,,,,,,-2.567656766,-0.48679868,0,0,0,,0,145,145,378,1
,,,,,,,,,,,,,,,,,,999,2020-11-26_10h56.32.062,lexical_decision_task_MP_exp2,2020.2.5,Win32,60,,0,,,,,,,,0.232,-1,,,,,,219,WORD,"ID",33,bucket,BUCKET,m,,,,,,,-2.567656766,-0.48679868,0,0,0,,0,146,146,38,1
,,,,,,,,,,,,,,,,,,999,2020-11-26_10h56.32.062,lexical_decision_task_MP_exp2,2020.2.5,Win32,60,,0,,,,,,,,0.232,-1,,,,,,351,NW,UN,33,tringe,TIESCH,z,,,,,,,-2.567656766,-0.48679868,0,0,0,,0,147,147,410,1
,,,,,,,,,,,,,,,,,,999,2020-11-26_10h56.32.062,lexical_decision_task_MP_exp2,2020.2.5,Win32,60,,0,,,,,,,,0.232,-1,,,,,,116,WORD,UN,33,branch,TUMBLE,m,,,,,,,-2.567656766,-0.48679868,0,0,0,,0,148,148,175,1
,,,,,,,,,,,,,,,,,,999,2020-11-26_10h56.32.062,lexical_decision_task_MP_exp2,2020.2.5,Win32,60,,0,,,,,,,,0.232,-1,,,,,,128,WORD,UN,16,marvel,SENIOR,m,,,,,,,-2.567656766,-0.48679868,0,0,0,,0,149,149,187,1
,,,,,,,,,,,,,,,,,,999,2020-11-26_10h56.32.062,lexical_decision_task_MP_exp2,2020.2.5,Win32,60,,0,,,,,,,,0.232,-1,,,,,,272,NW,"ID",16,damilt,DAMILT,z,,,,,,,-2.567656766,-0.48679868,0,0,0,,0,150,150,331,1
,,,,,,,,,,,,,,,,,,999,2020-11-26_10h56.32.062,lexical_decision_task_MP_exp2,2020.2.5,Win32,60,,0,,,,,,,,0.232,-1,,,,,,378,NW,UN,16,auting,SHRILE,z,,,,,,,-2.567656766,-0.48679868,0,0,0,,0,151,151,437,1
,,,,,,,,,,,,,,,,,,999,2020-11-26_10h56.32.062,lexical_decision_task_MP_exp2,2020.2.5,Win32,60,,0,,,,,,,,0.232,-1,,,,,,380,NW,UN,16,huniek,CAVORY,z,,,,,,,-2.567656766,-0.48679868,0,0,0,,0,152,152,439,1
,,,,,,,,,,,,,,,,,,999,2020-11-26_10h56.32.062,lexical_decision_task_MP_exp2,2020.2.5,Win32,60,,0,,,,,,,,0.232,-1,,,,,,463,NW,"ID",33,kispel,KISPEL,z,,,,,,,-2.567656766,-0.48679868,0,0,0,,0,153,153,282,1
,,,,,,,,,,,,,,,,,,999,2020-11-26_10h56.32.062,lexical_decision_task_MP_exp2,2020.2.5,Win32,60,,0,,,,,,,,0.232,-1,,,,,,41,WORD,"ID",16,spring,SPRING,m,,,,,,,-2.567656766,-0.48679868,0,0,0,,0,154,154,100,1
,,,,,,,,,,,,,,,,,,999,2020-11-26_10h56.32.062,lexical_decision_task_MP_exp2,2020.2.5,Win32,60,,0,,,,,,,,0.232,-1,,,,,,162,WORD,UN,16,string,CANDLE,m,,,,,,,-2.567656766,-0.48679868,0,0,0,,0,155,155,221,1
,,,,,,,,,,,,,,,,,,999,2020-11-26_10h56.32.062,lexical_decision_task_MP_exp2,2020.2.5,Win32,60,,0,,,,,,,,0.232,-1,,,,,,326,NW,UN,33,plenac,IGUADE,z,,,,,,,-2.567656766,-0.48679868,0,0,0,,0,156,156,385,1
,,,,,,,,,,,,,,,,,,999,2020-11-26_10h56.32.062,lexical_decision_task_MP_exp2,2020.2.5,Win32,60,,0,,,,,,,,0.232,-1,,,,,,355,NW,UN,33,othnis,ZINGLY,z,,,,,,,-2.567656766,-0.48679868,0,0,0,,0,157,157,414,1
,,,,,,,,,,,,,,,,,,999,2020-11-26_10h56.32.062,lexical_decision_task_MP_exp2,2020.2.5,Win32,60,,0,,,,,,,,0.232,-1,,,,,,142,WORD,UN,16,reason,SPRUCE,m,,,,,,,-2.567656766,-0.48679868,0,0,0,,0,158,158,201,1
,,,,,,,,,,,,,,,,,,999,2020-11-26_10h56.32.062,lexical_decision_task_MP_exp2,2020.2.5,Win32,60,,0,,,,,,,,0.232,-1,,,,,,24,WORD,"ID",16,praise,PRAISE,m,,,,,,,-2.567656766,-0.48679868,0,0,0,,0,159,159,83,1
,,,,,,,,,,,,,,,,,,999,2020-11-26_10h56.32.062,lexical_decision_task_MP_exp2,2020.2.5,Win32,60,,0,,,,,,,,0.232,-1,,,,,,200,WORD,"ID",33,beacon,BEACON,m,,,,,,,-2.567656766,-0.48679868,0,0,0,,0,160,160,19,1
,,,,,,,,,,,,,,,,,,999,2020-11-26_10h56.32.062,lexical_decision_task_MP_exp2,2020.2.5,Win32,60,,0,,,,,,,,0.232,-1,,,,,,409,NW,UN,16,tunory,ELOPIA,z,,,,,,,-2.567656766,-0.48679868,0,0,0,,0,161,161,468,1
,,,,,,,,,,,,,,,,,,999,2020-11-26_10h56.32.062,lexical_decision_task_MP_exp2,2020.2.5,Win32,60,,0,,,,,,,,0.232,-1,,,,,,453,NW,"ID",33,bolvis,BOLVIS,z,,,,,,,-2.567656766,-0.48679868,0,0,0,,0,162,162,272,1
,,,,,,,,,,,,,,,,,,999,2020-11-26_10h56.32.062,lexical_decision_task_MP_exp2,2020.2.5,Win32,60,,0,,,,,,,,0.232,-1,,,,,,264,NW,"ID",16,vackel,VACKEL,z,,,,,,,-2.567656766,-0.48679868,0,0,0,,0,163,163,323,1
,,,,,,,,,,,,,,,,,,999,2020-11-26_10h56.32.062,lexical_decision_task_MP_exp2,2020.2.5,Win32,60,,0,,,,,,,,0.232,-1,,,,,,307,NW,UN,33,psetch,KIRAFE,z,,,,,,,-2.567656766,-0.48679868,0,0,0,,0,164,164,366,1
,,,,,,,,,,,,,,,,,,999,2020-11-26_10h56.32.062,lexical_decision_task_MP_exp2,2020.2.5,Win32,60,,0,,,,,,,,0.232,-1,,,,,,201,WORD,"ID",33,admire,ADMIRE,m,,,,,,,-2.567656766,-0.48679868,0,0,0,,0,165,165,20,1
,,,,,,,,,,,,,,,,,,999,2020-11-26_10h56.32.062,lexical_decision_task_MP_exp2,2020.2.5,Win32,60,,0,,,,,,,,0.232,-1,,,,,,430,NW,"ID",33,caroey,CAROEY,z,,,,,,,-2.567656766,-0.48679868,0,0,0,,0,166,166,249,1
,,,,,,,,,,,,,,,,,,999,2020-11-26_10h56.32.062,lexical_decision_task_MP_exp2,2020.2.5,Win32,60,,0,,,,,,,,0.232,-1,,,,,,367,NW,UN,16,hornal,SLIQUE,z,,,,,,,-2.567656766,-0.48679868,0,0,0,,0,167,167,426,1
,,,,,,,,,,,,,,,,,,999,2020-11-26_10h56.32.062,lexical_decision_task_MP_exp2,2020.2.5,Win32,60,,0,,,,,,,,0.232,-1,,,,,,403,NW,UN,16,cluirm,BRUATS,z,,,,,,,-2.567656766,-0.48679868,0,0,0,,0,168,168,462,1
,,,,,,,,,,,,,,,,,,999,2020-11-26_10h56.32.062,lexical_decision_task_MP_exp2,2020.2.5,Win32,60,,0,,,,,,,,0.232,-1,,,,,,130,WORD,UN,16,quench,STUPID,m,,,,,,,-2.567656766,-0.48679868,0,0,0,,0,169,169,189,1
,,,,,,,,,,,,,,,,,,999,2020-11-26_10h56.32.062,lexical_decision_task_MP_exp2,2020.2.5,Win32,60,,0,,,,,,,,0.232,-1,,,,,,418,NW,UN,16,slount,SUIDLE,z,,,,,,,-2.567656766,-0.48679868,0,0,0,,0,170,170,477,1
,,,,,,,,,,,,,,,,,,999,2020-11-26_10h56.32.062,lexical_decision_task_MP_exp2,2020.2.5,Win32,60,,0,,,,,,,,0.232,-1,,,,,,406,NW,UN,16,suiver,NOUPLY,z,,,,,,,-2.567656766,-0.48679868,0,0,0,,0,171,171,465,1
,,,,,,,,,,,,,,,,,,999,2020-11-26_10h56.32.062,lexical_decision_task_MP_exp2,2020.2.5,Win32,60,,0,,,,,,,,0.232,-1,,,,,,414,NW,UN,16,higsta,SERBOL,z,,,,,,,-2.567656766,-0.48679868,0,0,0,,0,172,172,473,1
,,,,,,,,,,,,,,,,,,999,2020-11-26_10h56.32.062,lexical_decision_task_MP_exp2,2020.2.5,Win32,60,,0,,,,,,,,0.232,-1,,,,,,473,NW,"ID",33,crible,CRIBLE,z,,,,,,,-2.567656766,-0.48679868,0,0,0,,0,173,173,292,1
,,,,,,,,,,,,,,,,,,999,2020-11-26_10h56.32.062,lexical_decision_task_MP_exp2,2020.2.5,Win32,60,,0,,,,,,,,0.232,-1,,,,,,97,WORD,UN,33,belong,CLIENT,m,,,,,,,-2.567656766,-0.48679868,0,0,0,,0,174,174,156,1
,,,,,,,,,,,,,,,,,,999,2020-11-26_10h56.32.062,lexical_decision_task_MP_exp2,2020.2.5,Win32,60,,0,,,,,,,,0.232,-1,,,,,,478,NW,"ID",33,acrise,ACRISE,z,,,,,,,-2.567656766,-0.48679868,0,0,0,,0,175,175,297,1
,,,,,,,,,,,,,,,,,,999,2020-11-26_10h56.32.062,lexical_decision_task_MP_exp2,2020.2.5,Win32,60,,0,,,,,,,,0.232,-1,,,,,,322,NW,UN,33,rosail,SLANCH,z,,,,,,,-2.567656766,-0.48679868,0,0,0,,0,176,176,381,1
,,,,,,,,,,,,,,,,,,999,2020-11-26_10h56.32.062,lexical_decision_task_MP_exp2,2020.2.5,Win32,60,,0,,,,,,,,0.232,-1,,,,,,350,NW,UN,33,tiesch,NAGURS,z,,,,,,,-2.567656766,-0.48679868,0,0,0,,0,177,177,409,1
,,,,,,,,,,,,,,,,,,999,2020-11-26_10h56.32.062,lexical_decision_task_MP_exp2,2020.2.5,Win32,60,,0,,,,,,,,0.232,-1,,,,,,251,NW,"ID",16,lupict,LUPICT,z,,,,,,,-2.567656766,-0.48679868,0,0,0,,0,178,178,310,1
,,,,,,,,,,,,,,,,,,999,2020-11-26_10h56.32.062,lexical_decision_task_MP_exp2,2020.2.5,Win32,60,,0,,,,,,,,0.232,-1,,,,,,164,WORD,UN,16,invest,MARKET,m,,,,,,,-2.567656766,-0.48679868,0,0,0,,0,179,179,223,1
,,,,,,,,,,,,,,,,,,999,2020-11-26_10h56.32.062,lexical_decision_task_MP_exp2,2020.2.5,Win32,60,,0,,,,,,,,0.232,-1,,,,,,309,NW,UN,33,daniet,AMILOY,z,,,,,,,-2.567656766,-0.48679868,0,0,0,,0,180,180,368,1
,,,,,,,,,,,,,,,,,,999,2020-11-26_10h56.32.062,lexical_decision_task_MP_exp2,2020.2.5,Win32,60,,0,,,,,,,,0.232,-1,,,,,,284,NW,"ID",16,shaple,SHAPLE,z,,,,,,,-2.567656766,-0.48679868,0,0,0,,0,181,181,343,1
,,,,,,,,,,,,,,,,,,999,2020-11-26_10h56.32.062,lexical_decision_task_MP_exp2,2020.2.5,Win32,60,,0,,,,,,,,0.232,-1,,,,,,134,WORD,UN,16,import,STAPLE,m,,,,,,,-2.567656766,-0.48679868,0,0,0,,0,182,182,193,1
,,,,,,,,,,,,,,,,,,999,2020-11-26_10h56.32.062,lexical_decision_task_MP_exp2,2020.2.5,Win32,60,,0,,,,,,,,0.232,-1,,,,,,1,WORD,"ID",16,fright,FRIGHT,m,,,,,,,-2.567656766,-0.48679868,0,0,0,,0,183,183,60,1
,,,,,,,,,,,,,,,,,,999,2020-11-26_10h56.32.062,lexical_decision_task_MP_exp2,2020.2.5,Win32,60,,0,,,,,,,,0.232,-1,,,,,,435,NW,"ID",33,impurb,IMPURB,z,,,,,,,-2.567656766,-0.48679868,0,0,0,,0,184,184,254,1
,,,,,,,,,,,,,,,,,,999,2020-11-26_10h56.32.062,lexical_decision_task_MP_exp2,2020.2.5,Win32,60,,0,,,,,,,,0.232,-1,,,,,,417,NW,UN,16,suidle,EAROUD,z,,,,,,,-2.567656766,-0.48679868,0,0,0,,0,185,185,476,1
,,,,,,,,,,,,,,,,,,999,2020-11-26_10h56.32.062,lexical_decision_task_MP_exp2,2020.2.5,Win32,60,,0,,,,,,,,0.232,-1,,,,,,96,WORD,UN,33,client,IGNORE,m,,,,,,,-2.567656766,-0.48679868,0,0,0,,0,186,186,155,1
,,,,,,,,,,,,,,,,,,999,2020-11-26_10h56.32.062,lexical_decision_task_MP_exp2,2020.2.5,Win32,60,,0,,,,,,,,0.232,-1,,,,,,61,WORD,UN,33,region,PONDER,m,,,,,,,-2.567656766,-0.48679868,0,0,0,,0,187,187,120,1
,,,,,,,,,,,,,,,,,,999,2020-11-26_10h56.32.062,lexical_decision_task_MP_exp2,2020.2.5,Win32,60,,0,,,,,,,,0.232,-1,,,,,,13,WORD,"ID",16,strive,STRIVE,m,,,,,,,-2.567656766,-0.48679868,0,0,0,,0,188,188,72,1
,,,,,,,,,,,,,,,,,,999,2020-11-26_10h56.32.062,lexical_decision_task_MP_exp2,2020.2.5,Win32,60,,0,,,,,,,,0.232,-1,,,,,,313,NW,UN,33,sprine,PAURSE,z,,,,,,,-2.567656766,-0.48679868,0,0,0,,0,189,189,372,1
,,,,,,,,,,,,,,,,,,999,2020-11-26_10h56.32.062,lexical_decision_task_MP_exp2,2020.2.5,Win32,60,,0,,,,,,,,0.232,-1,,,,,,363,NW,UN,16,impote,BREALI,z,,,,,,,-2.567656766,-0.48679868,0,0,0,,0,190,190,422,1
