counterbalancing_condition,instr_done_keyboard.keys,instr_done_touch.x,instr_done_touch.y,instr_done_touch.leftButton,instr_done_touch.midButton,instr_done_touch.rightButton,instr_done_touch.clicked_name,instruction_pages.thisRepN,instruction_pages.thisTrialN,instruction_pages.thisN,instruction_pages.thisIndex,instruction_pages.ran,pageN,phase,instruct_text,has_image,instruct_image,participant,date,expName,psychopyVersion,OS,frameRate,response.keys,response.corr,touch_resp.x,touch_resp.y,touch_resp.leftButton,touch_resp.midButton,touch_resp.rightButton,touch_resp.time,touch_resp.clicked_name,rt,corr,practice_trials.thisRepN,practice_trials.thisTrialN,practice_trials.thisN,practice_trials.thisIndex,practice_trials.ran,TrialID,StimulusType,Condition,PrimeDuration,Prime,Target,corrAns,response.rt,instr_done_keyboard.rt,end_of_practice_trials_pages.thisRepN,end_of_practice_trials_pages.thisTrialN,end_of_practice_trials_pages.thisN,end_of_practice_trials_pages.thisIndex,end_of_practice_trials_pages.ran,break_done_touch.x,break_done_touch.y,break_done_touch.leftButton,break_done_touch.midButton,break_done_touch.rightButton,break_done_keyboard.keys,trials.thisRepN,trials.thisTrialN,trials.thisN,trials.thisIndex,trials.ran
3,,0.00330033,-0.400990099,1,0,0,instr_done_button,0,0,0,0,1,1,instructions,"INSTRUCTIONS
At the start of each trial, look at the hash marks (######) in the center of the screen. After a moment, a string of letters will appear. Your task is to indicate if the letter string forms a word or not (i.e., if it is a nonword). For example, AUTHOR is a word while AUTHON is a nonword.

Press the space bar or touch the button below to continue.",0,,999,2020-11-26_10h46.26.946,lexical_decision_task_MP_exp2,2020.2.5,Win32,60,,,,,,,,,,,,,,,,,,,,,,,,,,,,,,,,,,,,,,,,,
,,0.00330033,-0.400990099,1,0,0,instr_done_button,0,1,1,1,1,2,instructions,"If your device has a keyboard, press the 'Z' key for nonwords and the 'M' key for words.





Press the space bar or touch the button below to continue.",1,keyboard-example.gif,999,2020-11-26_10h46.26.946,lexical_decision_task_MP_exp2,2020.2.5,Win32,60,,,,,,,,,,,,,,,,,,,,,,,,,,,,,,,,,,,,,,,,,
,,0.00330033,-0.400990099,1,0,0,instr_done_button,0,2,2,2,1,3,instructions,"If you are using a touchscreen only device, use the buttons on the screen. Do not use the mouse.





Press the space bar or touch the button below to continue.",1,touchscreen-example.gif,999,2020-11-26_10h46.26.946,lexical_decision_task_MP_exp2,2020.2.5,Win32,60,,,,,,,,,,,,,,,,,,,,,,,,,,,,,,,,,,,,,,,,,
,,0.00330033,-0.400990099,1,0,0,instr_done_button,0,3,3,3,1,4,instructions,"It is very important that you respond as quickly and accurately as possible, as each letter string will only be on the screen for two seconds. If you do not respond within this time, the message 'Too slow!' will be displayed and the experiment will progress to the next letter string. The first 20 trials will be practice trials and you will receive feedback on your answers. 

Press the space bar or touch the button below to start the practice trials.",0,,999,2020-11-26_10h46.26.946,lexical_decision_task_MP_exp2,2020.2.5,Win32,60,,,,,,,,,,,,,,,,,,,,,,,,,,,,,,,,,,,,,,,,,
,,,,,,,,,,,,,,,,,,999,2020-11-26_10h46.26.946,lexical_decision_task_MP_exp2,2020.2.5,Win32,60,,0,0.293729373,-0.321782178,1,0,0,0.28,button_right,0.28,0,0,0,0,14,1,1015,NW,UN,16,miaber,THRALE,z,,,,,,,,,,,,,,,,,,
,,,,,,,,,,,,,,,,,,999,2020-11-26_10h46.26.946,lexical_decision_task_MP_exp2,2020.2.5,Win32,60,m,1,,,,,,,,0.343,1,0,1,1,6,1,1007,WORD,UN,16,tropic,ZOMBIE,m,0.343,,,,,,,,,,,,,,,,,
,,,,,,,,,,,,,,,,,,999,2020-11-26_10h46.26.946,lexical_decision_task_MP_exp2,2020.2.5,Win32,60,z,0,,,,,,,,0.138,0,0,2,2,7,1,1008,WORD,UN,16,hurdle,VOLUME,m,0.138,,,,,,,,,,,,,,,,,
,,,,,,,,,,,,,,,,,,999,2020-11-26_10h46.26.946,lexical_decision_task_MP_exp2,2020.2.5,Win32,60,z,1,,,,,,,,0.083,1,0,3,3,8,1,1009,NW,"ID",33,aslert,ASLERT,z,0.083,,,,,,,,,,,,,,,,,
,,,,,,,,,,,,,,,,,,999,2020-11-26_10h46.26.946,lexical_decision_task_MP_exp2,2020.2.5,Win32,60,z,1,,,,,,,,0.042,1,0,4,4,10,1,1011,NW,"ID",16,inlade,INLADE,z,0.042,,,,,,,,,,,,,,,,,
,,,,,,,,,,,,,,,,,,999,2020-11-26_10h46.26.946,lexical_decision_task_MP_exp2,2020.2.5,Win32,60,m,1,,,,,,,,0.073,1,0,5,5,5,1,1006,WORD,UN,33,frenzy,OBTAIN,m,0.073,,,,,,,,,,,,,,,,,
,,,,,,,,,,,,,,,,,,999,2020-11-26_10h46.26.946,lexical_decision_task_MP_exp2,2020.2.5,Win32,60,m,0,,,,,,,,0.031,0,0,6,6,13,1,1014,NW,UN,33,winfer,ROUPET,z,0.031,,,,,,,,,,,,,,,,,
,,,,,,,,,,,,,,,,,,999,2020-11-26_10h46.26.946,lexical_decision_task_MP_exp2,2020.2.5,Win32,60,m,1,,,,,,,,0.011,1,0,7,7,2,1,1003,WORD,"ID",16,almond,ALMOND,m,0.011,,,,,,,,,,,,,,,,,
,,,,,,,,,,,,,,,,,,999,2020-11-26_10h46.26.946,lexical_decision_task_MP_exp2,2020.2.5,Win32,60,m,1,,,,,,,,0.027,1,0,8,8,0,1,1001,WORD,"ID",33,utopia,UTOPIA,m,0.027,,,,,,,,,,,,,,,,,
,,,,,,,,,,,,,,,,,,999,2020-11-26_10h46.26.946,lexical_decision_task_MP_exp2,2020.2.5,Win32,60,m,1,,,,,,,,0.006,1,0,9,9,4,1,1005,WORD,UN,33,abound,SQUEAK,m,0.006,,,,,,,,,,,,,,,,,
,,,,,,,,,,,,,,,,,,999,2020-11-26_10h46.26.946,lexical_decision_task_MP_exp2,2020.2.5,Win32,60,m,0,,,,,,,,0.028,0,0,10,10,12,1,1013,NW,UN,33,adveil,SPRINY,z,0.028,,,,,,,,,,,,,,,,,
,,,,,,,,,,,,,,,,,,999,2020-11-26_10h46.26.946,lexical_decision_task_MP_exp2,2020.2.5,Win32,60,m,1,,,,,,,,0.103,1,0,11,11,3,1,1004,WORD,"ID",16,matrix,MATRIX,m,0.103,,,,,,,,,,,,,,,,,
,,,,,,,,,,,,,,,,,,999,2020-11-26_10h46.26.946,lexical_decision_task_MP_exp2,2020.2.5,Win32,60,m,1,,,,,,,,0.139,1,0,12,12,1,1,1002,WORD,"ID",33,adjust,ADJUST,m,0.139,,,,,,,,,,,,,,,,,
,,,,,,,,,,,,,,,,,,999,2020-11-26_10h46.26.946,lexical_decision_task_MP_exp2,2020.2.5,Win32,60,z,1,,,,,,,,0.016,1,0,13,13,9,1,1010,NW,"ID",33,fariny,FARINY,z,0.016,,,,,,,,,,,,,,,,,
,,,,,,,,,,,,,,,,,,999,2020-11-26_10h46.26.946,lexical_decision_task_MP_exp2,2020.2.5,Win32,60,z,1,,,,,,,,0.119,1,0,14,14,15,1,1016,NW,UN,16,mushed,WHAISE,z,0.119,,,,,,,,,,,,,,,,,
,,,,,,,,,,,,,,,,,,999,2020-11-26_10h46.26.946,lexical_decision_task_MP_exp2,2020.2.5,Win32,60,m,0,,,,,,,,0.015,0,0,15,15,11,1,1012,NW,"ID",16,rashet,RASHET,z,0.015,,,,,,,,,,,,,,,,,
,space,0.293729373,-0.321782178,0,0,0,,,,,,,1,end_of_practice,"You have completed the practice trials. During the experimental trials, you will not receive feedback, but it is very important that you respond as quickly and accurately as possible. 
Before you begin, please ensure that you are in a comfortable and quiet location and will not be disturbed for about 15 minutes, as we cannot use your data if you do not complete all the trials. 
There will be opportunities to take breaks at regular intervals during the experiment. When you are ready to start the experimental trials, please press space or touch the button below.",,,999,2020-11-26_10h46.26.946,lexical_decision_task_MP_exp2,2020.2.5,Win32,60,,,,,,,,,,,,,,,,,,,,,,,,,0.528,0,0,0,0,1,,,,,,,,,,,
,,,,,,,,,,,,,,,,,,999,2020-11-26_10h46.26.946,lexical_decision_task_MP_exp2,2020.2.5,Win32,60,z,1,,,,,,,,0.276,1,,,,,,268,NW,UN,16,orchet,PACKES,z,0.276,,,,,,,0.293729373,-0.321782178,0,0,0,,0,0,0,447,1
,,,,,,,,,,,,,,,,,,999,2020-11-26_10h46.26.946,lexical_decision_task_MP_exp2,2020.2.5,Win32,60,m,0,,,,,,,,0.263,0,,,,,,266,NW,UN,16,pasink,VARMIT,z,0.263,,,,,,,0.293729373,-0.321782178,0,0,0,,0,1,1,445,1
,,,,,,,,,,,,,,,,,,999,2020-11-26_10h46.26.946,lexical_decision_task_MP_exp2,2020.2.5,Win32,60,m,0,,,,,,,,0.249,0,,,,,,344,NW,"ID",33,scrily,SCRILY,z,0.249,,,,,,,0.293729373,-0.321782178,0,0,0,,0,2,2,283,1
,,,,,,,,,,,,,,,,,,999,2020-11-26_10h46.26.946,lexical_decision_task_MP_exp2,2020.2.5,Win32,60,m,1,,,,,,,,0.209,1,,,,,,15,WORD,UN,16,faucet,AMOUNT,m,0.209,,,,,,,0.293729373,-0.321782178,0,0,0,,0,3,3,194,1
,,,,,,,,,,,,,,,,,,999,2020-11-26_10h46.26.946,lexical_decision_task_MP_exp2,2020.2.5,Win32,60,m,1,,,,,,,,0.217,1,,,,,,158,WORD,"ID",16,island,ISLAND,m,0.217,,,,,,,0.293729373,-0.321782178,0,0,0,,0,4,4,97,1
,,,,,,,,,,,,,,,,,,999,2020-11-26_10h46.26.946,lexical_decision_task_MP_exp2,2020.2.5,Win32,60,m,0,,,,,,,,0.149,0,,,,,,392,NW,"ID",16,rouncy,ROUNCY,z,0.149,,,,,,,0.293729373,-0.321782178,0,0,0,,0,5,5,331,1
,,,,,,,,,,,,,,,,,,999,2020-11-26_10h46.26.946,lexical_decision_task_MP_exp2,2020.2.5,Win32,60,m,1,,,,,,,,0.134,1,,,,,,144,WORD,"ID",16,sponge,SPONGE,m,0.134,,,,,,,0.293729373,-0.321782178,0,0,0,,0,6,6,83,1
,,,,,,,,,,,,,,,,,,999,2020-11-26_10h46.26.946,lexical_decision_task_MP_exp2,2020.2.5,Win32,60,m,1,,,,,,,,0.133,1,,,,,,217,WORD,UN,33,shrink,LIQUOR,m,0.133,,,,,,,0.293729373,-0.321782178,0,0,0,,0,7,7,156,1
,,,,,,,,,,,,,,,,,,999,2020-11-26_10h46.26.946,lexical_decision_task_MP_exp2,2020.2.5,Win32,60,m,0,,,,,,,,0.166,0,,,,,,255,NW,UN,16,inlors,APIGHT,z,0.166,,,,,,,0.293729373,-0.321782178,0,0,0,,0,8,8,434,1
,,,,,,,,,,,,,,,,,,999,2020-11-26_10h46.26.946,lexical_decision_task_MP_exp2,2020.2.5,Win32,60,m,1,,,,,,,,0.093,1,,,,,,240,WORD,UN,33,seldom,FOREST,m,0.093,,,,,,,0.293729373,-0.321782178,0,0,0,,0,9,9,179,1
,,,,,,,,,,,,,,,,,,999,2020-11-26_10h46.26.946,lexical_decision_task_MP_exp2,2020.2.5,Win32,60,m,1,,,,,,,,0.186,1,,,,,,25,WORD,UN,16,sprint,DOMAIN,m,0.186,,,,,,,0.293729373,-0.321782178,0,0,0,,0,10,10,204,1
,,,,,,,,,,,,,,,,,,999,2020-11-26_10h46.26.946,lexical_decision_task_MP_exp2,2020.2.5,Win32,60,m,0,,,,,,,,0.107,0,,,,,,302,NW,"ID",33,miluer,MILUER,z,0.107,,,,,,,0.293729373,-0.321782178,0,0,0,,0,11,11,241,1
,,,,,,,,,,,,,,,,,,999,2020-11-26_10h46.26.946,lexical_decision_task_MP_exp2,2020.2.5,Win32,60,m,0,,,,,,,,0.148,0,,,,,,331,NW,"ID",33,gilfew,GILFEW,z,0.148,,,,,,,0.293729373,-0.321782178,0,0,0,,0,12,12,270,1
,,,,,,,,,,,,,,,,,,999,2020-11-26_10h46.26.946,lexical_decision_task_MP_exp2,2020.2.5,Win32,60,m,0,,,,,,,,0.135,0,,,,,,252,NW,UN,16,resait,STAPOD,z,0.135,,,,,,,0.293729373,-0.321782178,0,0,0,,0,13,13,431,1
,,,,,,,,,,,,,,,,,,999,2020-11-26_10h46.26.946,lexical_decision_task_MP_exp2,2020.2.5,Win32,60,m,0,,,,,,,,0.107,0,,,,,,357,NW,"ID",33,derain,DERAIN,z,0.107,,,,,,,0.293729373,-0.321782178,0,0,0,,0,14,14,296,1
,,,,,,,,,,,,,,,,,,999,2020-11-26_10h46.26.946,lexical_decision_task_MP_exp2,2020.2.5,Win32,60,m,0,,,,,,,,0.171,0,,,,,,330,NW,"ID",33,kensom,KENSOM,z,0.171,,,,,,,0.293729373,-0.321782178,0,0,0,,0,15,15,269,1
,,,,,,,,,,,,,,,,,,999,2020-11-26_10h46.26.946,lexical_decision_task_MP_exp2,2020.2.5,Win32,60,m,1,,,,,,,,0.3,1,,,,,,40,WORD,UN,16,spring,CONVEY,m,0.3,,,,,,,0.293729373,-0.321782178,0,0,0,,0,16,16,219,1
,,,,,,,,,,,,,,,,,,999,2020-11-26_10h46.26.946,lexical_decision_task_MP_exp2,2020.2.5,Win32,60,m,1,,,,,,,,0.277,1,,,,,,176,WORD,"ID",16,strife,STRIFE,m,0.277,,,,,,,0.293729373,-0.321782178,0,0,0,,0,17,17,115,1
,,,,,,,,,,,,,,,,,,999,2020-11-26_10h46.26.946,lexical_decision_task_MP_exp2,2020.2.5,Win32,60,m,0,,,,,,,,0.007,0,,,,,,438,NW,UN,33,limpor,BAITCH,z,0.007,,,,,,,0.293729373,-0.321782178,0,0,0,,0,18,18,377,1
,,,,,,,,,,,,,,,,,,999,2020-11-26_10h46.26.946,lexical_decision_task_MP_exp2,2020.2.5,Win32,60,m,1,,,,,,,,0.175,1,,,,,,102,WORD,"ID",33,direct,DIRECT,m,0.175,,,,,,,0.293729373,-0.321782178,0,0,0,,0,19,19,41,1
,,,,,,,,,,,,,,,,,,999,2020-11-26_10h46.26.946,lexical_decision_task_MP_exp2,2020.2.5,Win32,60,m,0,,,,,,,,0.204,0,,,,,,335,NW,"ID",33,desion,DESION,z,0.204,,,,,,,0.293729373,-0.321782178,0,0,0,,0,20,20,274,1
,,,,,,,,,,,,,,,,,,999,2020-11-26_10h46.26.946,lexical_decision_task_MP_exp2,2020.2.5,Win32,60,m,1,,,,,,,,0.251,1,,,,,,57,WORD,UN,16,danger,CHANGE,m,0.251,,,,,,,0.293729373,-0.321782178,0,0,0,,0,21,21,236,1
,,,,,,,,,,,,,,,,,,999,2020-11-26_10h46.26.946,lexical_decision_task_MP_exp2,2020.2.5,Win32,60,m,1,,,,,,,,0.206,1,,,,,,191,WORD,UN,33,beacon,STABLE,m,0.206,,,,,,,0.293729373,-0.321782178,0,0,0,,0,22,22,130,1
,,,,,,,,,,,,,,,,,,999,2020-11-26_10h46.26.946,lexical_decision_task_MP_exp2,2020.2.5,Win32,60,m,0,,,,,,,,0.24,0,,,,,,365,NW,"ID",16,guairt,GUAIRT,z,0.24,,,,,,,0.293729373,-0.321782178,0,0,0,,0,23,23,304,1
,,,,,,,,,,,,,,,,,,999,2020-11-26_10h46.26.946,lexical_decision_task_MP_exp2,2020.2.5,Win32,60,m,1,,,,,,,,0.232,1,,,,,,136,WORD,"ID",16,bleach,BLEACH,m,0.232,,,,,,,0.293729373,-0.321782178,0,0,0,,0,24,24,75,1
,,,,,,,,,,,,,,,,,,999,2020-11-26_10h46.26.946,lexical_decision_task_MP_exp2,2020.2.5,Win32,60,m,0,,,,,,,,0.231,0,,,,,,244,NW,UN,16,anougs,EATRIC,z,0.231,,,,,,,0.293729373,-0.321782178,0,0,0,,0,25,25,423,1
,,,,,,,,,,,,,,,,,,999,2020-11-26_10h46.26.946,lexical_decision_task_MP_exp2,2020.2.5,Win32,60,m,0,,,,,,,,0.221,0,,,,,,390,NW,"ID",16,hatrus,HATRUS,z,0.221,,,,,,,0.293729373,-0.321782178,0,0,0,,0,26,26,329,1
,,,,,,,,,,,,,,,,,,999,2020-11-26_10h46.26.946,lexical_decision_task_MP_exp2,2020.2.5,Win32,60,m,1,,,,,,,,0.193,1,,,,,,205,WORD,UN,33,tailor,LOUNGE,m,0.193,,,,,,,0.293729373,-0.321782178,0,0,0,,0,27,27,144,1
,,,,,,,,,,,,,,,,,,999,2020-11-26_10h46.26.946,lexical_decision_task_MP_exp2,2020.2.5,Win32,60,m,1,,,,,,,,0.169,1,,,,,,180,WORD,"ID",16,silent,SILENT,m,0.169,,,,,,,0.293729373,-0.321782178,0,0,0,,0,28,28,119,1
,,,,,,,,,,,,,,,,,,999,2020-11-26_10h46.26.946,lexical_decision_task_MP_exp2,2020.2.5,Win32,60,m,1,,,,,,,,0.15,1,,,,,,227,WORD,UN,33,master,SELDOM,m,0.15,,,,,,,0.293729373,-0.321782178,0,0,0,,0,29,29,166,1
,,,,,,,,,,,,,,,,,,999,2020-11-26_10h46.26.946,lexical_decision_task_MP_exp2,2020.2.5,Win32,60,m,0,,,,,,,,0.106,0,,,,,,457,NW,UN,33,barcet,WANIGH,z,0.106,,,,,,,0.293729373,-0.321782178,0,0,0,,0,30,30,396,1
,,,,,,,,,,,,,,,,,,999,2020-11-26_10h46.26.946,lexical_decision_task_MP_exp2,2020.2.5,Win32,60,m,0,,,,,,,,0.167,0,,,,,,326,NW,"ID",33,iguade,IGUADE,z,0.167,,,,,,,0.293729373,-0.321782178,0,0,0,,0,31,31,265,1
,,,,,,,,,,,,,,,,,,999,2020-11-26_10h46.26.946,lexical_decision_task_MP_exp2,2020.2.5,Win32,60,m,1,,,,,,,,0.148,1,,,,,,124,WORD,"ID",16,blouse,BLOUSE,m,0.148,,,,,,,0.293729373,-0.321782178,0,0,0,,0,32,32,63,1
,,,,,,,,,,,,,,,,,,999,2020-11-26_10h46.26.946,lexical_decision_task_MP_exp2,2020.2.5,Win32,60,m,1,,,,,,,,0.121,1,,,,,,91,WORD,"ID",33,expand,EXPAND,m,0.121,,,,,,,0.293729373,-0.321782178,0,0,0,,0,33,33,30,1
,,,,,,,,,,,,,,,,,,999,2020-11-26_10h46.26.946,lexical_decision_task_MP_exp2,2020.2.5,Win32,60,m,0,,,,,,,,0.199,0,,,,,,306,NW,"ID",33,sounge,SOUNGE,z,0.199,,,,,,,0.293729373,-0.321782178,0,0,0,,0,34,34,245,1
,,,,,,,,,,,,,,,,,,999,2020-11-26_10h46.26.946,lexical_decision_task_MP_exp2,2020.2.5,Win32,60,m,1,,,,,,,,0.171,1,,,,,,221,WORD,UN,33,hinder,MASCOT,m,0.171,,,,,,,0.293729373,-0.321782178,0,0,0,,0,35,35,160,1
,,,,,,,,,,,,,,,,,,999,2020-11-26_10h46.26.946,lexical_decision_task_MP_exp2,2020.2.5,Win32,60,m,1,,,,,,,,0.166,1,,,,,,5,WORD,UN,16,bundle,PLUNGE,m,0.166,,,,,,,0.293729373,-0.321782178,0,0,0,,0,36,36,184,1
,,,,,,,,,,,,,,,,,,999,2020-11-26_10h46.26.946,lexical_decision_task_MP_exp2,2020.2.5,Win32,60,m,0,,,,,,,,0.241,0,,,,,,293,NW,UN,16,inhort,SWANCE,z,0.241,,,,,,,0.293729373,-0.321782178,0,0,0,,0,37,37,472,1
,,,,,,,,,,,,,,,,,,999,2020-11-26_10h46.26.946,lexical_decision_task_MP_exp2,2020.2.5,Win32,60,m,0,,,,,,,,0.294,0,,,,,,471,NW,UN,33,cigney,NOBEST,z,0.294,,,,,,,0.293729373,-0.321782178,0,0,0,,0,38,38,410,1
,,,,,,,,,,,,,,,,,,999,2020-11-26_10h46.26.946,lexical_decision_task_MP_exp2,2020.2.5,Win32,60,m,0,,,,,,,,0.348,0,,,,,,429,NW,UN,33,caroey,FUNTLE,z,0.348,,,,,,,0.293729373,-0.321782178,0,0,0,,0,39,39,368,1
,,,,,,,,,,,,,,,,,,999,2020-11-26_10h46.26.946,lexical_decision_task_MP_exp2,2020.2.5,Win32,60,m,0,,,,,,,,0.318,0,,,,,,373,NW,"ID",16,bigent,BIGENT,z,0.318,,,,,,,0.293729373,-0.321782178,0,0,0,,0,40,40,312,1
,,,,,,,,,,,,,,,,,,999,2020-11-26_10h46.26.946,lexical_decision_task_MP_exp2,2020.2.5,Win32,60,m,0,,,,,,,,0.321,0,,,,,,376,NW,"ID",16,iguare,IGUARE,z,0.321,,,,,,,0.293729373,-0.321782178,0,0,0,,0,41,41,315,1
,,,,,,,,,,,,,,,,,,999,2020-11-26_10h46.26.946,lexical_decision_task_MP_exp2,2020.2.5,Win32,60,m,1,,,,,,,,0.306,1,,,,,,137,WORD,"ID",16,finger,FINGER,m,0.306,,,,,,,0.293729373,-0.321782178,0,0,0,,0,42,42,76,1
,,,,,,,,,,,,,,,,,,999,2020-11-26_10h46.26.946,lexical_decision_task_MP_exp2,2020.2.5,Win32,60,m,1,,,,,,,,0.292,1,,,,,,168,WORD,"ID",16,answer,ANSWER,m,0.292,,,,,,,0.293729373,-0.321782178,0,0,0,,0,43,43,107,1
,,,,,,,,,,,,,,,,,,999,2020-11-26_10h46.26.946,lexical_decision_task_MP_exp2,2020.2.5,Win32,60,m,0,,,,,,,,0.839,0,,,,,,374,NW,"ID",16,sliant,SLIANT,z,0.839,,,,,,,0.293729373,-0.321782178,0,0,0,,0,44,44,313,1
,,,,,,,,,,,,,,,,,,999,2020-11-26_10h46.26.946,lexical_decision_task_MP_exp2,2020.2.5,Win32,60,m,1,,,,,,,,0.233,1,,,,,,202,WORD,UN,33,phrase,FACTOR,m,0.233,,,,,,,0.293729373,-0.321782178,0,0,0,,0,45,45,141,1
,,,,,,,,,,,,,,,,,,999,2020-11-26_10h46.26.946,lexical_decision_task_MP_exp2,2020.2.5,Win32,60,m,1,,,,,,,,0.218,1,,,,,,4,WORD,UN,16,plunge,TRENCH,m,0.218,,,,,,,0.293729373,-0.321782178,0,0,0,,0,46,46,183,1
,,,,,,,,,,,,,,,,,,999,2020-11-26_10h46.26.946,lexical_decision_task_MP_exp2,2020.2.5,Win32,60,m,0,,,,,,,,0.224,0,,,,,,395,NW,"ID",16,colury,COLURY,z,0.224,,,,,,,0.293729373,-0.321782178,0,0,0,,0,47,47,334,1
,,,,,,,,,,,,,,,,,,999,2020-11-26_10h46.26.946,lexical_decision_task_MP_exp2,2020.2.5,Win32,60,,0,,,,,,,,0.224,-1,,,,,,20,WORD,UN,16,simple,BREAST,m,,,,,,,,0.293729373,-0.321782178,0,0,0,,0,48,48,199,1
,,,,,,,,,,,,,,,,,,999,2020-11-26_10h46.26.946,lexical_decision_task_MP_exp2,2020.2.5,Win32,60,m,0,,,,,,,,0.105,0,,,,,,301,NW,"ID",33,fainch,FAINCH,z,0.105,,,,,,,0.293729373,-0.321782178,0,0,0,,0,49,49,240,1
,,,,,,,,,,,,,,,,,,999,2020-11-26_10h46.26.946,lexical_decision_task_MP_exp2,2020.2.5,Win32,60,,0,,,,,,,,0.105,-1,,,,,,343,NW,"ID",33,aimosy,AIMOSY,z,,,,,,,,-3.587458746,-0.48679868,0,0,0,,0,50,50,282,1
,,,,,,,,,,,,,,,,,,999,2020-11-26_10h46.26.946,lexical_decision_task_MP_exp2,2020.2.5,Win32,60,,0,,,,,,,,0.105,-1,,,,,,276,NW,UN,16,petain,YARMON,z,,,,,,,,-3.587458746,-0.48679868,0,0,0,,0,51,51,455,1
,,,,,,,,,,,,,,,,,,999,2020-11-26_10h46.26.946,lexical_decision_task_MP_exp2,2020.2.5,Win32,60,,0,,,,,,,,0.105,-1,,,,,,230,WORD,UN,33,mother,FRINGE,m,,,,,,,,-3.587458746,-0.48679868,0,0,0,,0,52,52,169,1
,,,,,,,,,,,,,,,,,,999,2020-11-26_10h46.26.946,lexical_decision_task_MP_exp2,2020.2.5,Win32,60,,0,,,,,,,,0.105,-1,,,,,,470,NW,UN,33,nobest,CRUDIO,z,,,,,,,,-3.587458746,-0.48679868,0,0,0,,0,53,53,409,1
,,,,,,,,,,,,,,,,,,999,2020-11-26_10h46.26.946,lexical_decision_task_MP_exp2,2020.2.5,Win32,60,,0,,,,,,,,0.105,-1,,,,,,340,NW,"ID",33,fiatch,FIATCH,z,,,,,,,,-3.587458746,-0.48679868,0,0,0,,0,54,54,279,1
,,,,,,,,,,,,,,,,,,999,2020-11-26_10h46.26.946,lexical_decision_task_MP_exp2,2020.2.5,Win32,60,,0,,,,,,,,0.105,-1,,,,,,279,NW,UN,16,curbol,CELOND,z,,,,,,,,-3.587458746,-0.48679868,0,0,0,,0,55,55,458,1
,,,,,,,,,,,,,,,,,,999,2020-11-26_10h46.26.946,lexical_decision_task_MP_exp2,2020.2.5,Win32,60,,0,,,,,,,,0.105,-1,,,,,,166,WORD,"ID",16,starch,STARCH,m,,,,,,,,-3.587458746,-0.48679868,0,0,0,,0,56,56,105,1
,,,,,,,,,,,,,,,,,,999,2020-11-26_10h46.26.946,lexical_decision_task_MP_exp2,2020.2.5,Win32,60,,0,,,,,,,,0.105,-1,,,,,,378,NW,"ID",16,shrile,SHRILE,z,,,,,,,,-3.587458746,-0.48679868,0,0,0,,0,57,57,317,1
,,,,,,,,,,,,,,,,,,999,2020-11-26_10h46.26.946,lexical_decision_task_MP_exp2,2020.2.5,Win32,60,,0,,,,,,,,0.105,-1,,,,,,393,NW,"ID",16,ganous,GANOUS,z,,,,,,,,-3.587458746,-0.48679868,0,0,0,,0,58,58,332,1
,,,,,,,,,,,,,,,,,,999,2020-11-26_10h46.26.946,lexical_decision_task_MP_exp2,2020.2.5,Win32,60,,0,,,,,,,,0.105,-1,,,,,,2,WORD,UN,16,knight,BRIDGE,m,,,,,,,,-3.587458746,-0.48679868,0,0,0,,0,59,59,181,1
,,,,,,,,,,,,,,,,,,999,2020-11-26_10h46.26.946,lexical_decision_task_MP_exp2,2020.2.5,Win32,60,,0,,,,,,,,0.105,-1,,,,,,299,NW,UN,16,yarion,STURCH,z,,,,,,,,-3.587458746,-0.48679868,0,0,0,,0,60,60,478,1
,,,,,,,,,,,,,,,,,,999,2020-11-26_10h46.26.946,lexical_decision_task_MP_exp2,2020.2.5,Win32,60,,0,,,,,,,,0.105,-1,,,,,,399,NW,"ID",16,fouret,FOURET,z,,,,,,,,-3.587458746,-0.48679868,0,0,0,,0,61,61,338,1
,,,,,,,,,,,,,,,,,,999,2020-11-26_10h46.26.946,lexical_decision_task_MP_exp2,2020.2.5,Win32,60,,0,,,,,,,,0.105,-1,,,,,,474,NW,UN,33,acrise,HABLIN,z,,,,,,,,-3.587458746,-0.48679868,0,0,0,,0,62,62,413,1
,,,,,,,,,,,,,,,,,,999,2020-11-26_10h46.26.946,lexical_decision_task_MP_exp2,2020.2.5,Win32,60,,0,,,,,,,,0.105,-1,,,,,,148,WORD,"ID",16,custom,CUSTOM,m,,,,,,,,-3.587458746,-0.48679868,0,0,0,,0,63,63,87,1
,,,,,,,,,,,,,,,,,,999,2020-11-26_10h46.26.946,lexical_decision_task_MP_exp2,2020.2.5,Win32,60,,0,,,,,,,,0.105,-1,,,,,,333,NW,"ID",33,catrie,CATRIE,z,,,,,,,,-3.587458746,-0.48679868,0,0,0,,0,64,64,272,1
,,,,,,,,,,,,,,,,,,999,2020-11-26_10h46.26.946,lexical_decision_task_MP_exp2,2020.2.5,Win32,60,,0,,,,,,,,0.105,-1,,,,,,33,WORD,UN,16,jungle,BUTLER,m,,,,,,,,-3.587458746,-0.48679868,0,0,0,,0,65,65,212,1
,,,,,,,,,,,,,,,,,,999,2020-11-26_10h46.26.946,lexical_decision_task_MP_exp2,2020.2.5,Win32,60,,0,,,,,,,,0.105,-1,,,,,,116,WORD,"ID",33,tumble,TUMBLE,m,,,,,,,,-3.587458746,-0.48679868,0,0,0,,0,66,66,55,1
,,,,,,,,,,,,,,,,,,999,2020-11-26_10h46.26.946,lexical_decision_task_MP_exp2,2020.2.5,Win32,60,,0,,,,,,,,0.105,-1,,,,,,435,NW,UN,33,frutan,IMPURB,z,,,,,,,,-3.587458746,-0.48679868,0,0,0,,0,67,67,374,1
,,,,,,,,,,,,,,,,,,999,2020-11-26_10h46.26.946,lexical_decision_task_MP_exp2,2020.2.5,Win32,60,,0,,,,,,,,0.105,-1,,,,,,367,NW,"ID",16,slique,SLIQUE,z,,,,,,,,-3.587458746,-0.48679868,0,0,0,,0,68,68,306,1
,,,,,,,,,,,,,,,,,,999,2020-11-26_10h46.26.946,lexical_decision_task_MP_exp2,2020.2.5,Win32,60,,0,,,,,,,,0.105,-1,,,,,,439,NW,UN,33,saride,LIMPOR,z,,,,,,,,-3.587458746,-0.48679868,0,0,0,,0,69,69,378,1
,,,,,,,,,,,,,,,,,,999,2020-11-26_10h46.26.946,lexical_decision_task_MP_exp2,2020.2.5,Win32,60,,0,,,,,,,,0.105,-1,,,,,,26,WORD,UN,16,butler,SPRINT,m,,,,,,,,-3.587458746,-0.48679868,0,0,0,,0,70,70,205,1
,,,,,,,,,,,,,,,,,,999,2020-11-26_10h46.26.946,lexical_decision_task_MP_exp2,2020.2.5,Win32,60,,0,,,,,,,,0.105,-1,,,,,,145,WORD,"ID",16,parish,PARISH,m,,,,,,,,-3.587458746,-0.48679868,0,0,0,,0,71,71,84,1
,,,,,,,,,,,,,,,,,,999,2020-11-26_10h46.26.946,lexical_decision_task_MP_exp2,2020.2.5,Win32,60,,0,,,,,,,,0.105,-1,,,,,,66,WORD,"ID",33,gospel,GOSPEL,m,,,,,,,,-3.587458746,-0.48679868,0,0,0,,0,72,72,5,1
,,,,,,,,,,,,,,,,,,999,2020-11-26_10h46.26.946,lexical_decision_task_MP_exp2,2020.2.5,Win32,60,,0,,,,,,,,0.105,-1,,,,,,430,NW,UN,33,chrums,CAROEY,z,,,,,,,,-3.587458746,-0.48679868,0,0,0,,0,73,73,369,1
,,,,,,,,,,,,,,,,,,999,2020-11-26_10h46.26.946,lexical_decision_task_MP_exp2,2020.2.5,Win32,60,,0,,,,,,,,0.105,-1,,,,,,53,WORD,UN,16,ramble,POLICE,m,,,,,,,,-3.587458746,-0.48679868,0,0,0,,0,74,74,232,1
,,,,,,,,,,,,,,,,,,999,2020-11-26_10h46.26.946,lexical_decision_task_MP_exp2,2020.2.5,Win32,60,,0,,,,,,,,0.105,-1,,,,,,23,WORD,UN,16,praise,WEALTH,m,,,,,,,,-3.587458746,-0.48679868,0,0,0,,0,75,75,202,1
,,,,,,,,,,,,,,,,,,999,2020-11-26_10h46.26.946,lexical_decision_task_MP_exp2,2020.2.5,Win32,60,,0,,,,,,,,0.105,-1,,,,,,224,WORD,UN,33,vulgar,PERIOD,m,,,,,,,,-3.587458746,-0.48679868,0,0,0,,0,76,76,163,1
,,,,,,,,,,,,,,,,,,999,2020-11-26_10h46.26.946,lexical_decision_task_MP_exp2,2020.2.5,Win32,60,,0,,,,,,,,0.105,-1,,,,,,442,NW,UN,33,dorsex,ABOUNE,z,,,,,,,,-3.587458746,-0.48679868,0,0,0,,0,77,77,381,1
,,,,,,,,,,,,,,,,,,999,2020-11-26_10h46.26.946,lexical_decision_task_MP_exp2,2020.2.5,Win32,60,,0,,,,,,,,0.105,-1,,,,,,129,WORD,"ID",16,marvel,MARVEL,m,,,,,,,,-3.587458746,-0.48679868,0,0,0,,0,78,78,68,1
,,,,,,,,,,,,,,,,,,999,2020-11-26_10h46.26.946,lexical_decision_task_MP_exp2,2020.2.5,Win32,60,,0,,,,,,,,0.105,-1,,,,,,454,NW,UN,33,tondle,SCOUGE,z,,,,,,,,-3.587458746,-0.48679868,0,0,0,,0,79,79,393,1
,,,,,,,,,,,,,,,,,,999,2020-11-26_10h46.26.946,lexical_decision_task_MP_exp2,2020.2.5,Win32,60,,0,,,,,,,,0.105,-1,,,,,,56,WORD,UN,16,change,AMBUSH,m,,,,,,,,-3.587458746,-0.48679868,0,0,0,,0,80,80,235,1
,,,,,,,,,,,,,,,,,,999,2020-11-26_10h46.26.946,lexical_decision_task_MP_exp2,2020.2.5,Win32,60,,0,,,,,,,,0.105,-1,,,,,,151,WORD,"ID",16,mystic,MYSTIC,m,,,,,,,,-3.587458746,-0.48679868,0,0,0,,0,81,81,90,1
,,,,,,,,,,,,,,,,,,999,2020-11-26_10h46.26.946,lexical_decision_task_MP_exp2,2020.2.5,Win32,60,,0,,,,,,,,0.105,-1,,,,,,75,WORD,"ID",33,trophy,TROPHY,m,,,,,,,,-3.587458746,-0.48679868,0,0,0,,0,82,82,14,1
,,,,,,,,,,,,,,,,,,999,2020-11-26_10h46.26.946,lexical_decision_task_MP_exp2,2020.2.5,Win32,60,,0,,,,,,,,0.105,-1,,,,,,260,NW,UN,16,stunch,UNJECT,z,,,,,,,,-3.587458746,-0.48679868,0,0,0,,0,83,83,439,1
,,,,,,,,,,,,,,,,,,999,2020-11-26_10h46.26.946,lexical_decision_task_MP_exp2,2020.2.5,Win32,60,,0,,,,,,,,0.105,-1,,,,,,63,WORD,"ID",33,launch,LAUNCH,m,,,,,,,,-3.587458746,-0.48679868,0,0,0,,0,84,84,2,1
,,,,,,,,,,,,,,,,,,999,2020-11-26_10h46.26.946,lexical_decision_task_MP_exp2,2020.2.5,Win32,60,,0,,,,,,,,0.105,-1,,,,,,305,NW,"ID",33,forgle,FORGLE,z,,,,,,,,-3.587458746,-0.48679868,0,0,0,,0,85,85,244,1
,,,,,,,,,,,,,,,,,,999,2020-11-26_10h46.26.946,lexical_decision_task_MP_exp2,2020.2.5,Win32,60,,0,,,,,,,,0.105,-1,,,,,,157,WORD,"ID",16,dragon,DRAGON,m,,,,,,,,-3.587458746,-0.48679868,0,0,0,,0,86,86,96,1
,,,,,,,,,,,,,,,,,,999,2020-11-26_10h46.26.946,lexical_decision_task_MP_exp2,2020.2.5,Win32,60,,0,,,,,,,,0.105,-1,,,,,,327,NW,"ID",33,plenac,PLENAC,z,,,,,,,,-3.587458746,-0.48679868,0,0,0,,0,87,87,266,1
,,,,,,,,,,,,,,,,,,999,2020-11-26_10h46.26.946,lexical_decision_task_MP_exp2,2020.2.5,Win32,60,,0,,,,,,,,0.105,-1,,,,,,51,WORD,UN,16,impose,HUNGRY,m,,,,,,,,-3.587458746,-0.48679868,0,0,0,,0,88,88,230,1
,,,,,,,,,,,,,,,,,,999,2020-11-26_10h46.26.946,lexical_decision_task_MP_exp2,2020.2.5,Win32,60,,0,,,,,,,,0.105,-1,,,,,,444,NW,UN,33,minkel,JAUNCE,z,,,,,,,,-3.587458746,-0.48679868,0,0,0,,0,89,89,383,1
,,,,,,,,,,,,,,,,,,999,2020-11-26_10h46.26.946,lexical_decision_task_MP_exp2,2020.2.5,Win32,60,,0,,,,,,,,0.105,-1,,,,,,315,NW,"ID",33,laston,LASTON,z,,,,,,,,-3.587458746,-0.48679868,0,0,0,,0,90,90,254,1
,,,,,,,,,,,,,,,,,,999,2020-11-26_10h46.26.946,lexical_decision_task_MP_exp2,2020.2.5,Win32,60,,0,,,,,,,,0.105,-1,,,,,,461,NW,UN,33,absult,JUSTRE,z,,,,,,,,-3.587458746,-0.48679868,0,0,0,,0,91,91,400,1
,,,,,,,,,,,,,,,,,,999,2020-11-26_10h46.26.946,lexical_decision_task_MP_exp2,2020.2.5,Win32,60,,0,,,,,,,,0.105,-1,,,,,,187,WORD,UN,33,social,COURSE,m,,,,,,,,-3.587458746,-0.48679868,0,0,0,,0,92,92,126,1
,,,,,,,,,,,,,,,,,,999,2020-11-26_10h46.26.946,lexical_decision_task_MP_exp2,2020.2.5,Win32,60,,0,,,,,,,,0.105,-1,,,,,,401,NW,"ID",16,mustil,MUSTIL,z,,,,,,,,-3.587458746,-0.48679868,0,0,0,,0,93,93,340,1
,,,,,,,,,,,,,,,,,,999,2020-11-26_10h46.26.946,lexical_decision_task_MP_exp2,2020.2.5,Win32,60,,0,,,,,,,,0.105,-1,,,,,,143,WORD,"ID",16,reason,REASON,m,,,,,,,,-3.587458746,-0.48679868,0,0,0,,0,94,94,82,1
,,,,,,,,,,,,,,,,,,999,2020-11-26_10h46.26.946,lexical_decision_task_MP_exp2,2020.2.5,Win32,60,,0,,,,,,,,0.105,-1,,,,,,473,NW,UN,33,hablin,CRIBLE,z,,,,,,,,-3.587458746,-0.48679868,0,0,0,,0,95,95,412,1
,,,,,,,,,,,,,,,,,,999,2020-11-26_10h46.26.946,lexical_decision_task_MP_exp2,2020.2.5,Win32,60,,0,,,,,,,,0.105,-1,,,,,,263,NW,UN,16,vackel,DOLICA,z,,,,,,,,-3.587458746,-0.48679868,0,0,0,,0,96,96,442,1
,,,,,,,,,,,,,,,,,,999,2020-11-26_10h46.26.946,lexical_decision_task_MP_exp2,2020.2.5,Win32,60,,0,,,,,,,,0.105,-1,,,,,,380,NW,"ID",16,cavory,CAVORY,z,,,,,,,,-3.587458746,-0.48679868,0,0,0,,0,97,97,319,1
,,,,,,,,,,,,,,,,,,999,2020-11-26_10h46.26.946,lexical_decision_task_MP_exp2,2020.2.5,Win32,60,,0,,,,,,,,0.105,-1,,,,,,314,NW,"ID",33,sprine,SPRINE,z,,,,,,,,-3.587458746,-0.48679868,0,0,0,,0,98,98,253,1
,,,,,,,,,,,,,,,,,,999,2020-11-26_10h46.26.946,lexical_decision_task_MP_exp2,2020.2.5,Win32,60,,0,,,,,,,,0.105,-1,,,,,,165,WORD,"ID",16,invest,INVEST,m,,,,,,,,-3.587458746,-0.48679868,0,0,0,,0,99,99,104,1
,,,,,,,,,,,,,,,,,,999,2020-11-26_10h46.26.946,lexical_decision_task_MP_exp2,2020.2.5,Win32,60,,0,,,,,,,,0.105,-1,,,,,,162,WORD,"ID",16,candle,CANDLE,m,,,,,,,,-3.587458746,-0.48679868,0,0,0,,0,100,100,101,1
,,,,,,,,,,,,,,,,,,999,2020-11-26_10h46.26.946,lexical_decision_task_MP_exp2,2020.2.5,Win32,60,,0,,,,,,,,0.105,-1,,,,,,275,NW,UN,16,yarmon,SLEIRT,z,,,,,,,,-3.587458746,-0.48679868,0,0,0,,0,101,101,454,1
,,,,,,,,,,,,,,,,,,999,2020-11-26_10h46.26.946,lexical_decision_task_MP_exp2,2020.2.5,Win32,60,,0,,,,,,,,0.105,-1,,,,,,426,NW,UN,33,schind,URIVEL,z,,,,,,,,-3.587458746,-0.48679868,0,0,0,,0,102,102,365,1
,,,,,,,,,,,,,,,,,,999,2020-11-26_10h46.26.946,lexical_decision_task_MP_exp2,2020.2.5,Win32,60,,0,,,,,,,,0.105,-1,,,,,,259,NW,UN,16,unject,SOUDAL,z,,,,,,,,-3.587458746,-0.48679868,0,0,0,,0,103,103,438,1
,,,,,,,,,,,,,,,,,,999,2020-11-26_10h46.26.946,lexical_decision_task_MP_exp2,2020.2.5,Win32,60,,0,,,,,,,,0.105,-1,,,,,,234,WORD,UN,33,poster,CLUMSY,m,,,,,,,,-3.587458746,-0.48679868,0,0,0,,0,104,104,173,1
,,,,,,,,,,,,,,,,,,999,2020-11-26_10h46.26.946,lexical_decision_task_MP_exp2,2020.2.5,Win32,60,,0,,,,,,,,0.105,-1,,,,,,10,WORD,UN,16,cruise,ETHNIC,m,,,,,,,,-3.587458746,-0.48679868,0,0,0,,0,105,105,189,1
,,,,,,,,,,,,,,,,,,999,2020-11-26_10h46.26.946,lexical_decision_task_MP_exp2,2020.2.5,Win32,60,,0,,,,,,,,0.105,-1,,,,,,451,NW,UN,33,surden,CAINKY,z,,,,,,,,-3.587458746,-0.48679868,0,0,0,,0,106,106,390,1
,,,,,,,,,,,,,,,,,,999,2020-11-26_10h46.26.946,lexical_decision_task_MP_exp2,2020.2.5,Win32,60,,0,,,,,,,,0.105,-1,,,,,,132,WORD,"ID",16,strong,STRONG,m,,,,,,,,-3.587458746,-0.48679868,0,0,0,,0,107,107,71,1
,,,,,,,,,,,,,,,,,,999,2020-11-26_10h46.26.946,lexical_decision_task_MP_exp2,2020.2.5,Win32,60,,0,,,,,,,,0.105,-1,,,,,,50,WORD,UN,16,hungry,SNATCH,m,,,,,,,,-3.587458746,-0.48679868,0,0,0,,0,108,108,229,1
,,,,,,,,,,,,,,,,,,999,2020-11-26_10h46.26.946,lexical_decision_task_MP_exp2,2020.2.5,Win32,60,,0,,,,,,,,0.105,-1,,,,,,3,WORD,UN,16,trench,KNIGHT,m,,,,,,,,-3.587458746,-0.48679868,0,0,0,,0,109,109,182,1
,,,,,,,,,,,,,,,,,,999,2020-11-26_10h46.26.946,lexical_decision_task_MP_exp2,2020.2.5,Win32,60,,0,,,,,,,,0.105,-1,,,,,,274,NW,UN,16,sleirt,FUMBLO,z,,,,,,,,-3.587458746,-0.48679868,0,0,0,,0,110,110,453,1
,,,,,,,,,,,,,,,,,,999,2020-11-26_10h46.26.946,lexical_decision_task_MP_exp2,2020.2.5,Win32,60,,0,,,,,,,,0.105,-1,,,,,,110,WORD,"ID",33,polite,POLITE,m,,,,,,,,-3.587458746,-0.48679868,0,0,0,,0,111,111,49,1
,,,,,,,,,,,,,,,,,,999,2020-11-26_10h46.26.946,lexical_decision_task_MP_exp2,2020.2.5,Win32,60,,0,,,,,,,,0.105,-1,,,,,,71,WORD,"ID",33,garden,GARDEN,m,,,,,,,,-3.587458746,-0.48679868,0,0,0,,0,112,112,10,1
,,,,,,,,,,,,,,,,,,999,2020-11-26_10h46.26.946,lexical_decision_task_MP_exp2,2020.2.5,Win32,60,,0,,,,,,,,0.105,-1,,,,,,125,WORD,"ID",16,nickel,NICKEL,m,,,,,,,,-3.587458746,-0.48679868,0,0,0,,0,113,113,64,1
,,,,,,,,,,,,,,,,,,999,2020-11-26_10h46.26.946,lexical_decision_task_MP_exp2,2020.2.5,Win32,60,,0,,,,,,,,0.105,-1,,,,,,282,NW,UN,16,veralf,PORLEX,z,,,,,,,,-3.587458746,-0.48679868,0,0,0,,0,114,114,461,1
,,,,,,,,,,,,,,,,,,999,2020-11-26_10h46.26.946,lexical_decision_task_MP_exp2,2020.2.5,Win32,60,,0,,,,,,,,0.105,-1,,,,,,146,WORD,"ID",16,couple,COUPLE,m,,,,,,,,-3.587458746,-0.48679868,0,0,0,,0,115,115,85,1
,,,,,,,,,,,,,,,,,,999,2020-11-26_10h46.26.946,lexical_decision_task_MP_exp2,2020.2.5,Win32,60,,0,,,,,,,,0.105,-1,,,,,,277,NW,UN,16,unighs,PETAIN,z,,,,,,,,-3.587458746,-0.48679868,0,0,0,,0,116,116,456,1
,,,,,,,,,,,,,,,,,,999,2020-11-26_10h46.26.946,lexical_decision_task_MP_exp2,2020.2.5,Win32,60,,0,,,,,,,,0.105,-1,,,,,,172,WORD,"ID",16,patrol,PATROL,m,,,,,,,,-3.587458746,-0.48679868,0,0,0,,0,117,117,111,1
,,,,,,,,,,,,,,,,,,999,2020-11-26_10h46.26.946,lexical_decision_task_MP_exp2,2020.2.5,Win32,60,,0,,,,,,,,0.105,-1,,,,,,379,NW,"ID",16,auting,AUTING,z,,,,,,,,-3.587458746,-0.48679868,0,0,0,,0,118,118,318,1
,,,,,,,,,,,,,,,,,,999,2020-11-26_10h46.26.946,lexical_decision_task_MP_exp2,2020.2.5,Win32,60,,0,,,,,,,,0.105,-1,,,,,,175,WORD,"ID",16,fabric,FABRIC,m,,,,,,,,-3.587458746,-0.48679868,0,0,0,,0,119,119,114,1
,,,,,,,,,,,,,,,,,,999,2020-11-26_10h46.26.946,lexical_decision_task_MP_exp2,2020.2.5,Win32,60,,0,,,,,,,,0.105,-1,,,,,,423,NW,UN,33,praile,STRELD,z,,,,,,,,-3.587458746,-0.48679868,0,0,0,,0,120,120,362,1
,,,,,,,,,,,,,,,,,,999,2020-11-26_10h46.26.946,lexical_decision_task_MP_exp2,2020.2.5,Win32,60,,0,,,,,,,,0.105,-1,,,,,,78,WORD,"ID",33,column,COLUMN,m,,,,,,,,-3.587458746,-0.48679868,0,0,0,,0,121,121,17,1
,,,,,,,,,,,,,,,,,,999,2020-11-26_10h46.26.946,lexical_decision_task_MP_exp2,2020.2.5,Win32,60,,0,,,,,,,,0.105,-1,,,,,,246,NW,UN,16,blarge,PIATON,z,,,,,,,,-3.587458746,-0.48679868,0,0,0,,0,122,122,425,1
,,,,,,,,,,,,,,,,,,999,2020-11-26_10h46.26.946,lexical_decision_task_MP_exp2,2020.2.5,Win32,60,,0,,,,,,,,0.105,-1,,,,,,90,WORD,"ID",33,relish,RELISH,m,,,,,,,,-3.587458746,-0.48679868,0,0,0,,0,123,123,29,1
,,,,,,,,,,,,,,,,,,999,2020-11-26_10h46.26.946,lexical_decision_task_MP_exp2,2020.2.5,Win32,60,,0,,,,,,,,0.105,-1,,,,,,130,WORD,"ID",16,stupid,STUPID,m,,,,,,,,-3.587458746,-0.48679868,0,0,0,,0,124,124,69,1
,,,,,,,,,,,,,,,,,,999,2020-11-26_10h46.26.946,lexical_decision_task_MP_exp2,2020.2.5,Win32,60,,0,,,,,,,,0.105,-1,,,,,,425,NW,UN,33,urivel,FRUDGE,z,,,,,,,,-3.587458746,-0.48679868,0,0,0,,0,125,125,364,1
,,,,,,,,,,,,,,,,,,999,2020-11-26_10h46.26.946,lexical_decision_task_MP_exp2,2020.2.5,Win32,60,,0,,,,,,,,0.105,-1,,,,,,321,NW,"ID",33,miator,MIATOR,z,,,,,,,,-3.587458746,-0.48679868,0,0,0,,0,126,126,260,1
,,,,,,,,,,,,,,,,,,999,2020-11-26_10h46.26.946,lexical_decision_task_MP_exp2,2020.2.5,Win32,60,,0,,,,,,,,0.105,-1,,,,,,198,WORD,UN,33,invoke,WICKED,m,,,,,,,,-3.587458746,-0.48679868,0,0,0,,0,127,127,137,1
,,,,,,,,,,,,,,,,,,999,2020-11-26_10h46.26.946,lexical_decision_task_MP_exp2,2020.2.5,Win32,60,,0,,,,,,,,0.105,-1,,,,,,339,NW,"ID",33,fachow,FACHOW,z,,,,,,,,-3.587458746,-0.48679868,0,0,0,,0,128,128,278,1
,,,,,,,,,,,,,,,,,,999,2020-11-26_10h46.26.946,lexical_decision_task_MP_exp2,2020.2.5,Win32,60,,0,,,,,,,,0.105,-1,,,,,,422,NW,UN,33,streld,ALCOUD,z,,,,,,,,-3.587458746,-0.48679868,0,0,0,,0,129,129,361,1
,,,,,,,,,,,,,,,,,,999,2020-11-26_10h46.26.946,lexical_decision_task_MP_exp2,2020.2.5,Win32,60,,0,,,,,,,,0.105,-1,,,,,,238,WORD,UN,33,behalf,FLOWER,m,,,,,,,,-3.587458746,-0.48679868,0,0,0,,0,130,130,177,1
,,,,,,,,,,,,,,,,,,999,2020-11-26_10h46.26.946,lexical_decision_task_MP_exp2,2020.2.5,Win32,60,,0,,,,,,,,0.105,-1,,,,,,290,NW,UN,16,pretch,SPLINO,z,,,,,,,,-3.587458746,-0.48679868,0,0,0,,0,131,131,469,1
,,,,,,,,,,,,,,,,,,999,2020-11-26_10h46.26.946,lexical_decision_task_MP_exp2,2020.2.5,Win32,60,,0,,,,,,,,0.105,-1,,,,,,278,NW,UN,16,celond,UNIGHS,z,,,,,,,,-3.587458746,-0.48679868,0,0,0,,0,132,132,457,1
,,,,,,,,,,,,,,,,,,999,2020-11-26_10h46.26.946,lexical_decision_task_MP_exp2,2020.2.5,Win32,60,,0,,,,,,,,0.105,-1,,,,,,218,WORD,UN,33,bucket,SHRINK,m,,,,,,,,-3.587458746,-0.48679868,0,0,0,,0,133,133,157,1
,,,,,,,,,,,,,,,,,,999,2020-11-26_10h46.26.946,lexical_decision_task_MP_exp2,2020.2.5,Win32,60,,0,,,,,,,,0.105,-1,,,,,,199,WORD,UN,33,plague,INVOKE,m,,,,,,,,-3.587458746,-0.48679868,0,0,0,,0,134,134,138,1
,,,,,,,,,,,,,,,,,,999,2020-11-26_10h46.26.946,lexical_decision_task_MP_exp2,2020.2.5,Win32,60,,0,,,,,,,,0.105,-1,,,,,,270,NW,UN,16,aubrid,WRIMSY,z,,,,,,,,-3.587458746,-0.48679868,0,0,0,,0,135,135,449,1
,,,,,,,,,,,,,,,,,,999,2020-11-26_10h46.26.946,lexical_decision_task_MP_exp2,2020.2.5,Win32,60,,0,,,,,,,,0.105,-1,,,,,,28,WORD,UN,16,sketch,COMEDY,m,,,,,,,,-3.587458746,-0.48679868,0,0,0,,0,136,136,207,1
,,,,,,,,,,,,,,,,,,999,2020-11-26_10h46.26.946,lexical_decision_task_MP_exp2,2020.2.5,Win32,60,,0,,,,,,,,0.105,-1,,,,,,64,WORD,"ID",33,throne,THRONE,m,,,,,,,,-3.587458746,-0.48679868,0,0,0,,0,137,137,3,1
,,,,,,,,,,,,,,,,,,999,2020-11-26_10h46.26.946,lexical_decision_task_MP_exp2,2020.2.5,Win32,60,,0,,,,,,,,0.105,-1,,,,,,60,WORD,UN,16,fright,PENCIL,m,,,,,,,,-3.587458746,-0.48679868,0,0,0,,0,138,138,239,1
,,,,,,,,,,,,,,,,,,999,2020-11-26_10h46.26.946,lexical_decision_task_MP_exp2,2020.2.5,Win32,60,,0,,,,,,,,0.105,-1,,,,,,382,NW,"ID",16,sarley,SARLEY,z,,,,,,,,-3.587458746,-0.48679868,0,0,0,,0,139,139,321,1
,,,,,,,,,,,,,,,,,,999,2020-11-26_10h46.26.946,lexical_decision_task_MP_exp2,2020.2.5,Win32,60,,0,,,,,,,,0.105,-1,,,,,,106,WORD,"ID",33,ransom,RANSOM,m,,,,,,,,-3.587458746,-0.48679868,0,0,0,,0,140,140,45,1
,,,,,,,,,,,,,,,,,,999,2020-11-26_10h46.26.946,lexical_decision_task_MP_exp2,2020.2.5,Win32,60,,0,,,,,,,,0.105,-1,,,,,,89,WORD,"ID",33,permit,PERMIT,m,,,,,,,,-3.587458746,-0.48679868,0,0,0,,0,141,141,28,1
,,,,,,,,,,,,,,,,,,999,2020-11-26_10h46.26.946,lexical_decision_task_MP_exp2,2020.2.5,Win32,60,,0,,,,,,,,0.105,-1,,,,,,406,NW,"ID",16,nouply,NOUPLY,z,,,,,,,,-3.587458746,-0.48679868,0,0,0,,0,142,142,345,1
,,,,,,,,,,,,,,,,,,999,2020-11-26_10h46.26.946,lexical_decision_task_MP_exp2,2020.2.5,Win32,60,,0,,,,,,,,0.105,-1,,,,,,463,NW,UN,33,chaite,KISPEL,z,,,,,,,,-3.587458746,-0.48679868,0,0,0,,0,143,143,402,1
,,,,,,,,,,,,,,,,,,999,2020-11-26_10h46.26.946,lexical_decision_task_MP_exp2,2020.2.5,Win32,60,,0,,,,,,,,0.105,-1,,,,,,309,NW,"ID",33,amiloy,AMILOY,z,,,,,,,,-3.587458746,-0.48679868,0,0,0,,0,144,144,248,1
,,,,,,,,,,,,,,,,,,999,2020-11-26_10h46.26.946,lexical_decision_task_MP_exp2,2020.2.5,Win32,60,,0,,,,,,,,0.105,-1,,,,,,325,NW,"ID",33,thruse,THRUSE,z,,,,,,,,-3.587458746,-0.48679868,0,0,0,,0,145,145,264,1
,,,,,,,,,,,,,,,,,,999,2020-11-26_10h46.26.946,lexical_decision_task_MP_exp2,2020.2.5,Win32,60,,0,,,,,,,,0.105,-1,,,,,,288,NW,UN,16,starby,YACEUP,z,,,,,,,,-3.587458746,-0.48679868,0,0,0,,0,146,146,467,1
,,,,,,,,,,,,,,,,,,999,2020-11-26_10h46.26.946,lexical_decision_task_MP_exp2,2020.2.5,Win32,60,,0,,,,,,,,0.105,-1,,,,,,139,WORD,"ID",16,debris,DEBRIS,m,,,,,,,,-3.587458746,-0.48679868,0,0,0,,0,147,147,78,1
,,,,,,,,,,,,,,,,,,999,2020-11-26_10h46.26.946,lexical_decision_task_MP_exp2,2020.2.5,Win32,60,,0,,,,,,,,0.105,-1,,,,,,126,WORD,"ID",16,enough,ENOUGH,m,,,,,,,,-3.587458746,-0.48679868,0,0,0,,0,148,148,65,1
,,,,,,,,,,,,,,,,,,999,2020-11-26_10h46.26.946,lexical_decision_task_MP_exp2,2020.2.5,Win32,60,,0,,,,,,,,0.105,-1,,,,,,235,WORD,UN,33,pirate,GRUMPY,m,,,,,,,,-3.587458746,-0.48679868,0,0,0,,0,149,149,174,1
,,,,,,,,,,,,,,,,,,999,2020-11-26_10h46.26.946,lexical_decision_task_MP_exp2,2020.2.5,Win32,60,,0,,,,,,,,0.105,-1,,,,,,387,NW,"ID",16,gronce,GRONCE,z,,,,,,,,-3.587458746,-0.48679868,0,0,0,,0,150,150,326,1
,,,,,,,,,,,,,,,,,,999,2020-11-26_10h46.26.946,lexical_decision_task_MP_exp2,2020.2.5,Win32,60,,0,,,,,,,,0.105,-1,,,,,,87,WORD,"ID",33,filter,FILTER,m,,,,,,,,-3.587458746,-0.48679868,0,0,0,,0,151,151,26,1
,,,,,,,,,,,,,,,,,,999,2020-11-26_10h46.26.946,lexical_decision_task_MP_exp2,2020.2.5,Win32,60,,0,,,,,,,,0.105,-1,,,,,,120,WORD,"ID",33,strain,STRAIN,m,,,,,,,,-3.587458746,-0.48679868,0,0,0,,0,152,152,59,1
,,,,,,,,,,,,,,,,,,999,2020-11-26_10h46.26.946,lexical_decision_task_MP_exp2,2020.2.5,Win32,60,,0,,,,,,,,0.105,-1,,,,,,449,NW,UN,33,phrect,BRUNGE,z,,,,,,,,-3.587458746,-0.48679868,0,0,0,,0,153,153,388,1
,,,,,,,,,,,,,,,,,,999,2020-11-26_10h46.26.946,lexical_decision_task_MP_exp2,2020.2.5,Win32,60,,0,,,,,,,,0.105,-1,,,,,,49,WORD,UN,16,snatch,SURVEY,m,,,,,,,,-3.587458746,-0.48679868,0,0,0,,0,154,154,228,1
,,,,,,,,,,,,,,,,,,999,2020-11-26_10h46.26.946,lexical_decision_task_MP_exp2,2020.2.5,Win32,60,,0,,,,,,,,0.105,-1,,,,,,93,WORD,"ID",33,public,PUBLIC,m,,,,,,,,-3.587458746,-0.48679868,0,0,0,,0,155,155,32,1
,,,,,,,,,,,,,,,,,,999,2020-11-26_10h46.26.946,lexical_decision_task_MP_exp2,2020.2.5,Win32,60,,0,,,,,,,,0.105,-1,,,,,,318,NW,"ID",33,reagly,REAGLY,z,,,,,,,,-3.587458746,-0.48679868,0,0,0,,0,156,156,257,1
,,,,,,,,,,,,,,,,,,999,2020-11-26_10h46.26.946,lexical_decision_task_MP_exp2,2020.2.5,Win32,60,,0,,,,,,,,0.105,-1,,,,,,41,WORD,UN,16,chapel,SPRING,m,,,,,,,,-3.587458746,-0.48679868,0,0,0,,0,157,157,220,1
,,,,,,,,,,,,,,,,,,999,2020-11-26_10h46.26.946,lexical_decision_task_MP_exp2,2020.2.5,Win32,60,,0,,,,,,,,0.105,-1,,,,,,6,WORD,UN,16,anchor,BUNDLE,m,,,,,,,,-3.587458746,-0.48679868,0,0,0,,0,158,158,185,1
,,,,,,,,,,,,,,,,,,999,2020-11-26_10h46.26.946,lexical_decision_task_MP_exp2,2020.2.5,Win32,60,,0,,,,,,,,0.105,-1,,,,,,356,NW,"ID",33,othnis,OTHNIS,z,,,,,,,,-3.587458746,-0.48679868,0,0,0,,0,159,159,295,1
,,,,,,,,,,,,,,,,,,999,2020-11-26_10h46.26.946,lexical_decision_task_MP_exp2,2020.2.5,Win32,60,,0,,,,,,,,0.105,-1,,,,,,211,WORD,UN,33,verify,INFECT,m,,,,,,,,-3.587458746,-0.48679868,0,0,0,,0,160,160,150,1
