counterbalancing_condition,instr_done_keyboard.keys,instr_done_touch.x,instr_done_touch.y,instr_done_touch.leftButton,instr_done_touch.midButton,instr_done_touch.rightButton,instr_done_touch.clicked_name,instruction_pages.thisRepN,instruction_pages.thisTrialN,instruction_pages.thisN,instruction_pages.thisIndex,instruction_pages.ran,pageN,phase,instruct_text,has_image,instruct_image,participant,date,expName,psychopyVersion,OS,frameRate,response.keys,response.corr,touch_resp.x,touch_resp.y,touch_resp.leftButton,touch_resp.midButton,touch_resp.rightButton,touch_resp.time,touch_resp.clicked_name,rt,corr,practice_trials.thisRepN,practice_trials.thisTrialN,practice_trials.thisN,practice_trials.thisIndex,practice_trials.ran,TrialID,StimulusType,Condition,PrimeDuration,Prime,Target,corrAns,end_of_practice_trials_pages.thisRepN,end_of_practice_trials_pages.thisTrialN,end_of_practice_trials_pages.thisN,end_of_practice_trials_pages.thisIndex,end_of_practice_trials_pages.ran,break_done_touch.x,break_done_touch.y,break_done_touch.leftButton,break_done_touch.midButton,break_done_touch.rightButton,break_done_keyboard.keys,experiment_trials.thisRepN,experiment_trials.thisTrialN,experiment_trials.thisN,experiment_trials.thisIndex,experiment_trials.ran,response.rt,break_done_keyboard.rt,break_done_touch.clicked_name
1,,0.031982942,-0.423240938,1,0,0,instr_done_button,0,0,0,0,1,1,instructions,"INSTRUCTIONS
At the start of each trial, look at the hash marks (######) in the center of the screen. After a moment, a string of letters will appear. Your task is to indicate if the letter string forms a word or not (i.e., if it is a nonword). For example, AUTHOR is a word while AUTHON is a nonword.

Press the space bar or touch the button below to continue.",0,,999,2020-11-26_13h29.33.962,lexical_decision_task_MP_exp2,2020.2.5,Win32,60,,,,,,,,,,,,,,,,,,,,,,,,,,,,,,,,,,,,,,,,,,
,,0.031982942,-0.423240938,1,0,0,instr_done_button,0,1,1,1,1,2,instructions,"If your device has a keyboard, press the 'Z' key for nonwords and the 'M' key for words.





Press the space bar or touch the button below to continue.",1,keyboard-example.gif,999,2020-11-26_13h29.33.962,lexical_decision_task_MP_exp2,2020.2.5,Win32,60,,,,,,,,,,,,,,,,,,,,,,,,,,,,,,,,,,,,,,,,,,
,,0.031982942,-0.423240938,1,0,0,instr_done_button,0,2,2,2,1,3,instructions,"If you are using a touchscreen only device, use the buttons on the screen. Do not use the mouse.





Press the space bar or touch the button below to continue.",1,touchscreen-example.gif,999,2020-11-26_13h29.33.962,lexical_decision_task_MP_exp2,2020.2.5,Win32,60,,,,,,,,,,,,,,,,,,,,,,,,,,,,,,,,,,,,,,,,,,
,,0.031982942,-0.423240938,1,0,0,instr_done_button,0,3,3,3,1,4,instructions,"It is very important that you respond as quickly and accurately as possible, as each letter string will only be on the screen for two seconds. If you do not respond within this time, the message 'Too slow!' will be displayed and the experiment will progress to the next letter string. The first 20 trials will be practice trials and you will receive feedback on your answers. 

Press the space bar or touch the button below to start the practice trials.",0,,999,2020-11-26_13h29.33.962,lexical_decision_task_MP_exp2,2020.2.5,Win32,60,,,,,,,,,,,,,,,,,,,,,,,,,,,,,,,,,,,,,,,,,,
,,,,,,,,,,,,,,,,,,999,2020-11-26_13h29.33.962,lexical_decision_task_MP_exp2,2020.2.5,Win32,60,,0,0.292110874,-0.335820896,1,0,0,0.295,button_right,0.295,0,0,0,0,15,1,1016,NW,UN,16,mushed,WHAISE,z,,,,,,,,,,,,,,,,,,,
,,,,,,,,,,,,,,,,,,999,2020-11-26_13h29.33.962,lexical_decision_task_MP_exp2,2020.2.5,Win32,60,,0,0.334754797,-0.323027719,1,0,0,0.064,button_right,0.064,0,0,1,1,8,1,1009,NW,"ID",33,aslert,ASLERT,z,,,,,,,,,,,,,,,,,,,
,,,,,,,,,,,,,,,,,,999,2020-11-26_13h29.33.962,lexical_decision_task_MP_exp2,2020.2.5,Win32,60,,0,0.334754797,-0.323027719,1,0,0,0.195,button_right,0.195,0,0,2,2,10,1,1011,NW,"ID",16,inlade,INLADE,z,,,,,,,,,,,,,,,,,,,
,,,,,,,,,,,,,,,,,,999,2020-11-26_13h29.33.962,lexical_decision_task_MP_exp2,2020.2.5,Win32,60,,0,0.334754797,-0.323027719,1,0,0,0.397,button_right,0.397,1,0,3,3,5,1,1006,WORD,UN,33,frenzy,OBTAIN,m,,,,,,,,,,,,,,,,,,,
,,,,,,,,,,,,,,,,,,999,2020-11-26_13h29.33.962,lexical_decision_task_MP_exp2,2020.2.5,Win32,60,,0,0.334754797,-0.323027719,1,0,0,1.847,button_right,1.847,0,0,4,4,9,1,1010,NW,"ID",33,fariny,FARINY,z,,,,,,,,,,,,,,,,,,,
,,,,,,,,,,,,,,,,,,999,2020-11-26_13h29.33.962,lexical_decision_task_MP_exp2,2020.2.5,Win32,60,,0,0.326226013,-0.325159915,1,0,0,0.347,button_right,0.347,1,0,5,5,2,1,1003,WORD,"ID",16,almond,ALMOND,m,,,,,,,,,,,,,,,,,,,
,,,,,,,,,,,,,,,,,,999,2020-11-26_13h29.33.962,lexical_decision_task_MP_exp2,2020.2.5,Win32,60,,0,0.326226013,-0.325159915,1,0,0,0.681,button_right,0.681,1,0,6,6,7,1,1008,WORD,UN,16,hurdle,VOLUME,m,,,,,,,,,,,,,,,,,,,
,,,,,,,,,,,,,,,,,,999,2020-11-26_13h29.33.962,lexical_decision_task_MP_exp2,2020.2.5,Win32,60,,0,0.326226013,-0.325159915,1,0,0,1.098,button_right,1.098,1,0,7,7,3,1,1004,WORD,"ID",16,matrix,MATRIX,m,,,,,,,,,,,,,,,,,,,
,,,,,,,,,,,,,,,,,,999,2020-11-26_13h29.33.962,lexical_decision_task_MP_exp2,2020.2.5,Win32,60,,0,0.326226013,-0.325159915,1,0,0,0.081,button_right,0.081,1,0,8,8,1,1,1002,WORD,"ID",33,adjust,ADJUST,m,,,,,,,,,,,,,,,,,,,
,,,,,,,,,,,,,,,,,,999,2020-11-26_13h29.33.962,lexical_decision_task_MP_exp2,2020.2.5,Win32,60,,0,,,,,,,,0.081,-1,0,9,9,11,1,1012,NW,"ID",16,rashet,RASHET,z,,,,,,,,,,,,,,,,,,,
,,,,,,,,,,,,,,,,,,999,2020-11-26_13h29.33.962,lexical_decision_task_MP_exp2,2020.2.5,Win32,60,,0,0.326226013,-0.325159915,1,0,0,0.165,button_right,0.165,0,0,10,10,14,1,1015,NW,UN,16,miaber,THRALE,z,,,,,,,,,,,,,,,,,,,
,,,,,,,,,,,,,,,,,,999,2020-11-26_13h29.33.962,lexical_decision_task_MP_exp2,2020.2.5,Win32,60,,0,,,,,,,,0.165,-1,0,11,11,6,1,1007,WORD,UN,16,tropic,ZOMBIE,m,,,,,,,,,,,,,,,,,,,
,,,,,,,,,,,,,,,,,,999,2020-11-26_13h29.33.962,lexical_decision_task_MP_exp2,2020.2.5,Win32,60,,0,0.272921109,-0.331556503,1,0,0,1.381,button_right,1.381,1,0,12,12,4,1,1005,WORD,UN,33,abound,SQUEAK,m,,,,,,,,,,,,,,,,,,,
,,,,,,,,,,,,,,,,,,999,2020-11-26_13h29.33.962,lexical_decision_task_MP_exp2,2020.2.5,Win32,60,,0,-0.32196162,-0.37206823,1,0,0,0.08,button_left,0.08,1,0,13,13,13,1,1014,NW,UN,33,winfer,ROUPET,z,,,,,,,,,,,,,,,,,,,
,,,,,,,,,,,,,,,,,,999,2020-11-26_13h29.33.962,lexical_decision_task_MP_exp2,2020.2.5,Win32,60,,0,0.479744136,-0.254797441,1,0,0,1.24,button_right,1.24,1,0,14,14,0,1,1001,WORD,"ID",33,utopia,UTOPIA,m,,,,,,,,,,,,,,,,,,,
,,,,,,,,,,,,,,,,,,999,2020-11-26_13h29.33.962,lexical_decision_task_MP_exp2,2020.2.5,Win32,60,,0,0.034115139,-0.273987207,1,0,0,0.114,,1.24,-1,0,15,15,12,1,1013,NW,UN,33,adveil,SPRINY,z,,,,,,,,,,,,,,,,,,,
,,0.008528785,-0.37206823,1,0,0,instr_done_button,,,,,,1,end_of_practice,"You have completed the practice trials. During the experimental trials, you will not receive feedback, but it is very important that you respond as quickly and accurately as possible. 
Before you begin, please ensure that you are in a comfortable and quiet location and will not be disturbed for about 15 minutes, as we cannot use your data if you do not complete all the trials. 
There will be opportunities to take breaks at regular intervals during the experiment. When you are ready to start the experimental trials, please press space or touch the button below.",,,999,2020-11-26_13h29.33.962,lexical_decision_task_MP_exp2,2020.2.5,Win32,60,,,,,,,,,,,,,,,,,,,,,,,,0,0,0,0,1,,,,,,,,,,,,,,
,,,,,,,,,,,,,,,,,,999,2020-11-26_13h29.33.962,lexical_decision_task_MP_exp2,2020.2.5,Win32,60,,0,0.307036247,-0.329424307,1,0,0,0.431,button_right,0.431,0,,,,,,428,NW,UN,16,chrums,TANDLY,z,,,,,,0.307036247,-0.329424307,1,0,0,,0,0,0,427,1,,,
,,,,,,,,,,,,,,,,,,999,2020-11-26_13h29.33.962,lexical_decision_task_MP_exp2,2020.2.5,Win32,60,,0,0.307036247,-0.329424307,1,0,0,0.199,button_right,0.199,0,,,,,,340,NW,"ID",16,fiatch,FIATCH,z,,,,,,0.307036247,-0.329424307,1,0,0,,0,1,1,339,1,,,
,,,,,,,,,,,,,,,,,,999,2020-11-26_13h29.33.962,lexical_decision_task_MP_exp2,2020.2.5,Win32,60,,0,0.309168443,-0.329424307,1,0,0,1.614,button_right,1.614,0,,,,,,397,NW,UN,33,blunde,CAMBLE,z,,,,,,0.309168443,-0.329424307,1,0,0,,0,2,2,396,1,,,
,,,,,,,,,,,,,,,,,,999,2020-11-26_13h29.33.962,lexical_decision_task_MP_exp2,2020.2.5,Win32,60,,0,0.307036247,-0.325159915,1,0,0,1.914,button_right,1.914,0,,,,,,317,NW,"ID",16,worbal,WORBAL,z,,,,,,0.307036247,-0.325159915,1,0,0,,0,3,3,316,1,,,
,,,,,,,,,,,,,,,,,,999,2020-11-26_13h29.33.962,lexical_decision_task_MP_exp2,2020.2.5,Win32,60,,0,0.298507463,-0.318763326,1,0,0,1.496,button_right,1.496,0,,,,,,473,NW,UN,16,hablin,CRIBLE,z,,,,,,0.298507463,-0.318763326,1,0,0,,0,4,4,472,1,,,
,,,,,,,,,,,,,,,,,,999,2020-11-26_13h29.33.962,lexical_decision_task_MP_exp2,2020.2.5,Win32,60,,0,0.298507463,-0.318763326,1,0,0,0.648,button_right,0.648,1,,,,,,168,WORD,UN,33,genius,ANSWER,m,,,,,,0.298507463,-0.318763326,1,0,0,,0,5,5,167,1,,,
,,,,,,,,,,,,,,,,,,999,2020-11-26_13h29.33.962,lexical_decision_task_MP_exp2,2020.2.5,Win32,60,,0,0.298507463,-0.318763326,1,0,0,0.014,button_right,0.014,0,,,,,,266,NW,"ID",33,varmit,VARMIT,z,,,,,,0.298507463,-0.318763326,1,0,0,,0,6,6,265,1,,,
,,,,,,,,,,,,,,,,,,999,2020-11-26_13h29.33.962,lexical_decision_task_MP_exp2,2020.2.5,Win32,60,,0,0.298507463,-0.318763326,1,0,0,1.03,button_right,1.03,0,,,,,,271,NW,"ID",33,aubrid,AUBRID,z,,,,,,0.298507463,-0.318763326,1,0,0,,0,7,7,270,1,,,
,,,,,,,,,,,,,,,,,,999,2020-11-26_13h29.33.962,lexical_decision_task_MP_exp2,2020.2.5,Win32,60,,0,0.298507463,-0.320895522,1,0,0,0.965,button_right,0.965,1,,,,,,197,WORD,UN,16,wicked,STREAM,m,,,,,,0.298507463,-0.320895522,1,0,0,,0,8,8,196,1,,,
,,,,,,,,,,,,,,,,,,999,2020-11-26_13h29.33.962,lexical_decision_task_MP_exp2,2020.2.5,Win32,60,,0,0.302771855,-0.325159915,1,0,0,0.081,button_right,0.081,0,,,,,,296,NW,"ID",33,beinch,BEINCH,z,,,,,,0.302771855,-0.325159915,1,0,0,,0,9,9,295,1,,,
,,,,,,,,,,,,,,,,,,999,2020-11-26_13h29.33.962,lexical_decision_task_MP_exp2,2020.2.5,Win32,60,,0,0.302771855,-0.325159915,1,0,0,0.232,button_right,0.232,0,,,,,,477,NW,UN,16,acrise,PHOTIE,z,,,,,,0.302771855,-0.325159915,1,0,0,,0,10,10,476,1,,,
,,,,,,,,,,,,,,,,,,999,2020-11-26_13h29.33.962,lexical_decision_task_MP_exp2,2020.2.5,Win32,60,,0,0.302771855,-0.325159915,1,0,0,0.197,button_right,0.197,1,,,,,,154,WORD,UN,33,lizard,AUTHOR,m,,,,,,0.302771855,-0.325159915,1,0,0,,0,11,11,153,1,,,
,,,,,,,,,,,,,,,,,,999,2020-11-26_13h29.33.962,lexical_decision_task_MP_exp2,2020.2.5,Win32,60,,0,0.302771855,-0.325159915,1,0,0,0.965,button_right,0.965,0,,,,,,258,NW,"ID",33,poluth,POLUTH,z,,,,,,0.302771855,-0.325159915,1,0,0,,0,12,12,257,1,,,
,,,,,,,,,,,,,,,,,,999,2020-11-26_13h29.33.962,lexical_decision_task_MP_exp2,2020.2.5,Win32,60,,0,0.302771855,-0.325159915,1,0,0,0.065,button_right,0.065,0,,,,,,289,NW,"ID",33,starby,STARBY,z,,,,,,0.302771855,-0.325159915,1,0,0,,0,13,13,288,1,,,
,,,,,,,,,,,,,,,,,,999,2020-11-26_13h29.33.962,lexical_decision_task_MP_exp2,2020.2.5,Win32,60,,0,0.302771855,-0.325159915,1,0,0,0.698,button_right,0.698,1,,,,,,26,WORD,"ID",33,sprint,SPRINT,m,,,,,,0.302771855,-0.325159915,1,0,0,,0,14,14,25,1,,,
,,,,,,,,,,,,,,,,,,999,2020-11-26_13h29.33.962,lexical_decision_task_MP_exp2,2020.2.5,Win32,60,,0,0.302771855,-0.325159915,1,0,0,0.399,button_right,0.399,1,,,,,,66,WORD,"ID",16,gospel,GOSPEL,m,,,,,,0.302771855,-0.325159915,1,0,0,,0,15,15,65,1,,,
,,,,,,,,,,,,,,,,,,999,2020-11-26_13h29.33.962,lexical_decision_task_MP_exp2,2020.2.5,Win32,60,,0,0.302771855,-0.325159915,1,0,0,0.814,button_right,0.814,0,,,,,,414,NW,UN,33,higsta,SERBOL,z,,,,,,0.302771855,-0.325159915,1,0,0,,0,16,16,413,1,,,
,,,,,,,,,,,,,,,,,,999,2020-11-26_13h29.33.962,lexical_decision_task_MP_exp2,2020.2.5,Win32,60,,0,0.302771855,-0.325159915,1,0,0,0.782,button_right,0.782,0,,,,,,367,NW,UN,33,hornal,SLIQUE,z,,,,,,0.302771855,-0.325159915,1,0,0,,0,17,17,366,1,,,
,,,,,,,,,,,,,,,,,,999,2020-11-26_13h29.33.962,lexical_decision_task_MP_exp2,2020.2.5,Win32,60,,0,0.302771855,-0.325159915,1,0,0,1.598,button_right,1.598,0,,,,,,278,NW,"ID",33,unighs,UNIGHS,z,,,,,,0.302771855,-0.325159915,1,0,0,,0,18,18,277,1,,,
,,,,,,,,,,,,,,,,,,999,2020-11-26_13h29.33.962,lexical_decision_task_MP_exp2,2020.2.5,Win32,60,,0,0.302771855,-0.325159915,1,0,0,0.015,button_right,0.015,1,,,,,,152,WORD,UN,33,behold,ROCKET,m,,,,,,0.302771855,-0.325159915,1,0,0,,0,19,19,151,1,,,
,,,,,,,,,,,,,,,,,,999,2020-11-26_13h29.33.962,lexical_decision_task_MP_exp2,2020.2.5,Win32,60,,0,0.302771855,-0.325159915,1,0,0,1.798,button_right,1.798,0,,,,,,391,NW,UN,33,rouncy,THELDY,z,,,,,,0.302771855,-0.325159915,1,0,0,,0,20,20,390,1,,,
,,,,,,,,,,,,,,,,,,999,2020-11-26_13h29.33.962,lexical_decision_task_MP_exp2,2020.2.5,Win32,60,,0,,,,,,,,1.798,-1,,,,,,286,NW,"ID",33,reldon,RELDON,z,,,,,,0.302771855,-0.325159915,0,0,0,,0,21,21,285,1,,,
,,,,,,,,,,,,,,,,,,999,2020-11-26_13h29.33.962,lexical_decision_task_MP_exp2,2020.2.5,Win32,60,,0,0.302771855,-0.325159915,1,0,0,1.23,button_right,1.23,1,,,,,,57,WORD,"ID",33,change,CHANGE,m,,,,,,0.302771855,-0.325159915,1,0,0,,0,22,22,56,1,,,
,,,,,,,,,,,,,,,,,,999,2020-11-26_13h29.33.962,lexical_decision_task_MP_exp2,2020.2.5,Win32,60,,0,0.302771855,-0.325159915,1,0,0,0.014,button_right,0.014,1,,,,,,21,WORD,"ID",33,simple,SIMPLE,m,,,,,,0.302771855,-0.325159915,1,0,0,,0,23,23,20,1,,,
,,,,,,,,,,,,,,,,,,999,2020-11-26_13h29.33.962,lexical_decision_task_MP_exp2,2020.2.5,Win32,60,,0,0.302771855,-0.325159915,1,0,0,0.082,button_right,0.082,1,,,,,,11,WORD,"ID",33,cruise,CRUISE,m,,,,,,0.302771855,-0.325159915,1,0,0,,0,24,24,10,1,,,
,,,,,,,,,,,,,,,,,,999,2020-11-26_13h29.33.962,lexical_decision_task_MP_exp2,2020.2.5,Win32,60,,0,0.302771855,-0.325159915,1,0,0,0.365,button_right,0.365,0,,,,,,468,NW,UN,16,padifs,WICTOR,z,,,,,,0.302771855,-0.325159915,1,0,0,,0,25,25,467,1,,,
,,,,,,,,,,,,,,,,,,999,2020-11-26_13h29.33.962,lexical_decision_task_MP_exp2,2020.2.5,Win32,60,,0,,,,,,,,0.365,-1,,,,,,189,WORD,UN,16,backup,CENSOR,m,,,,,,0.296375267,-0.320895522,0,0,0,,0,26,26,188,1,,,
,,,,,,,,,,,,,,,,,,999,2020-11-26_13h29.33.962,lexical_decision_task_MP_exp2,2020.2.5,Win32,60,,0,0.296375267,-0.320895522,1,0,0,1.247,button_right,1.247,1,,,,,,172,WORD,UN,33,shower,PATROL,m,,,,,,0.296375267,-0.320895522,1,0,0,,0,27,27,171,1,,,
,,,,,,,,,,,,,,,,,,999,2020-11-26_13h29.33.962,lexical_decision_task_MP_exp2,2020.2.5,Win32,60,,0,0.296375267,-0.320895522,1,0,0,1.164,button_right,1.164,1,,,,,,233,WORD,UN,16,clumsy,NATURE,m,,,,,,0.296375267,-0.320895522,1,0,0,,0,28,28,232,1,,,
,,,,,,,,,,,,,,,,,,999,2020-11-26_13h29.33.962,lexical_decision_task_MP_exp2,2020.2.5,Win32,60,,0,0.296375267,-0.320895522,1,0,0,0.848,button_right,0.848,1,,,,,,123,WORD,UN,33,enough,STRIKE,m,,,,,,0.296375267,-0.320895522,1,0,0,,0,29,29,122,1,,,
,,,,,,,,,,,,,,,,,,999,2020-11-26_13h29.33.962,lexical_decision_task_MP_exp2,2020.2.5,Win32,60,,0,0.296375267,-0.320895522,1,0,0,0.565,button_right,0.565,1,,,,,,134,WORD,UN,33,import,STAPLE,m,,,,,,0.296375267,-0.320895522,1,0,0,,0,30,30,133,1,,,
,,,,,,,,,,,,,,,,,,999,2020-11-26_13h29.33.962,lexical_decision_task_MP_exp2,2020.2.5,Win32,60,,0,0.296375267,-0.320895522,1,0,0,0.665,button_right,0.665,0,,,,,,295,NW,"ID",33,gleath,GLEATH,z,,,,,,0.296375267,-0.320895522,1,0,0,,0,31,31,294,1,,,
,,,,,,,,,,,,,,,,,,999,2020-11-26_13h29.33.962,lexical_decision_task_MP_exp2,2020.2.5,Win32,60,,0,0.296375267,-0.320895522,1,0,0,1.882,button_right,1.882,1,,,,,,240,WORD,UN,16,glance,FOREST,m,,,,,,0.296375267,-0.320895522,1,0,0,,0,32,32,239,1,,,
,,,,,,,,,,,,,,,,,,999,2020-11-26_13h29.33.962,lexical_decision_task_MP_exp2,2020.2.5,Win32,60,,0,0.296375267,-0.320895522,1,0,0,0.182,button_right,0.182,1,,,,,,93,WORD,"ID",16,public,PUBLIC,m,,,,,,0.296375267,-0.320895522,1,0,0,,0,33,33,92,1,,,
,,,,,,,,,,,,,,,,,,999,2020-11-26_13h29.33.962,lexical_decision_task_MP_exp2,2020.2.5,Win32,60,,0,0.296375267,-0.320895522,1,0,0,0.895,button_right,0.895,1,,,,,,61,WORD,"ID",16,ponder,PONDER,m,,,,,,0.296375267,-0.320895522,1,0,0,,0,34,34,60,1,,,
,,,,,,,,,,,,,,,,,,999,2020-11-26_13h29.33.962,lexical_decision_task_MP_exp2,2020.2.5,Win32,60,,0,0.296375267,-0.320895522,1,0,0,0.548,button_right,0.548,1,,,,,,83,WORD,"ID",16,result,RESULT,m,,,,,,0.296375267,-0.320895522,1,0,0,,0,35,35,82,1,,,
,,,,,,,,,,,,,,,,,,999,2020-11-26_13h29.33.962,lexical_decision_task_MP_exp2,2020.2.5,Win32,60,,0,0.296375267,-0.320895522,1,0,0,0.613,button_right,0.613,0,,,,,,323,NW,"ID",16,rosail,ROSAIL,z,,,,,,0.296375267,-0.320895522,1,0,0,,0,36,36,322,1,,,
,,,,,,,,,,,,,,,,,,999,2020-11-26_13h29.33.962,lexical_decision_task_MP_exp2,2020.2.5,Win32,60,,0,0.296375267,-0.320895522,1,0,0,0.08,button_right,0.08,1,,,,,,47,WORD,"ID",33,income,INCOME,m,,,,,,0.296375267,-0.320895522,1,0,0,,0,37,37,46,1,,,
,,,,,,,,,,,,,,,,,,999,2020-11-26_13h29.33.962,lexical_decision_task_MP_exp2,2020.2.5,Win32,60,,0,0.296375267,-0.320895522,1,0,0,0.199,button_right,0.199,1,,,,,,109,WORD,"ID",16,wonder,WONDER,m,,,,,,0.296375267,-0.320895522,1,0,0,,0,38,38,108,1,,,
,,,,,,,,,,,,,,,,,,999,2020-11-26_13h29.33.962,lexical_decision_task_MP_exp2,2020.2.5,Win32,60,,0,0.296375267,-0.320895522,1,0,0,0.048,button_right,0.048,0,,,,,,471,NW,UN,16,cigney,NOBEST,z,,,,,,0.296375267,-0.320895522,1,0,0,,0,39,39,470,1,,,
,,,,,,,,,,,,,,,,,,999,2020-11-26_13h29.33.962,lexical_decision_task_MP_exp2,2020.2.5,Win32,60,,0,0.296375267,-0.320895522,1,0,0,0.713,button_right,0.713,1,,,,,,237,WORD,UN,16,seldom,POSTER,m,,,,,,0.296375267,-0.320895522,1,0,0,,0,40,40,236,1,,,
,,,,,,,,,,,,,,,,,,999,2020-11-26_13h29.33.962,lexical_decision_task_MP_exp2,2020.2.5,Win32,60,,0,0.296375267,-0.320895522,1,0,0,1.132,button_right,1.132,1,,,,,,179,WORD,UN,33,silent,BASKET,m,,,,,,0.296375267,-0.320895522,1,0,0,,0,41,41,178,1,,,
,,,,,,,,,,,,,,,,,,999,2020-11-26_13h29.33.962,lexical_decision_task_MP_exp2,2020.2.5,Win32,60,,0,0.296375267,-0.320895522,1,0,0,1.265,button_right,1.265,0,,,,,,241,NW,"ID",33,smenco,SMENCO,z,,,,,,0.296375267,-0.320895522,1,0,0,,0,42,42,240,1,,,
,,,,,,,,,,,,,,,,,,999,2020-11-26_13h29.33.962,lexical_decision_task_MP_exp2,2020.2.5,Win32,60,,0,0.296375267,-0.320895522,1,0,0,0.566,button_right,0.566,0,,,,,,342,NW,"ID",16,randow,RANDOW,z,,,,,,0.296375267,-0.320895522,1,0,0,,0,43,43,341,1,,,
,,,,,,,,,,,,,,,,,,999,2020-11-26_13h29.33.962,lexical_decision_task_MP_exp2,2020.2.5,Win32,60,,0,0.296375267,-0.320895522,1,0,0,0.498,button_right,0.498,1,,,,,,132,WORD,UN,33,bleach,STRONG,m,,,,,,0.296375267,-0.320895522,1,0,0,,0,44,44,131,1,,,
,,,,,,,,,,,,,,,,,,999,2020-11-26_13h29.33.962,lexical_decision_task_MP_exp2,2020.2.5,Win32,60,,0,0.296375267,-0.320895522,1,0,0,0.214,button_right,0.214,1,,,,,,173,WORD,UN,33,turkey,SHOWER,m,,,,,,0.296375267,-0.320895522,1,0,0,,0,45,45,172,1,,,
,,,,,,,,,,,,,,,,,,999,2020-11-26_13h29.33.962,lexical_decision_task_MP_exp2,2020.2.5,Win32,60,,0,,,,,,,,0.214,-1,,,,,,440,NW,UN,16,cainky,SARIDE,z,,,,,,0.296375267,-0.320895522,1,0,0,,0,46,46,439,1,,,
,,,,,,,,,,,,,,,,,,999,2020-11-26_13h29.33.962,lexical_decision_task_MP_exp2,2020.2.5,Win32,60,,0,,,,,,,,0.214,-1,,,,,,201,WORD,UN,16,factor,ADMIRE,m,,,,,,0.296375267,-0.320895522,1,0,0,,0,47,47,200,1,,,
,,,,,,,,,,,,,,,,,,999,2020-11-26_13h29.33.962,lexical_decision_task_MP_exp2,2020.2.5,Win32,60,,0,,,,,,,,0.214,-1,,,,,,417,NW,UN,33,suidle,EAROUD,z,,,,,,0.296375267,-0.320895522,1,0,0,,0,48,48,416,1,,,
,,,,,,,,,,,,,,,,,,999,2020-11-26_13h29.33.962,lexical_decision_task_MP_exp2,2020.2.5,Win32,60,,0,0.296375267,-0.320895522,1,0,0,0.098,button_right,0.098,1,,,,,,10,WORD,"ID",33,ethnic,ETHNIC,m,,,,,,0.296375267,-0.320895522,1,0,0,,0,49,49,9,1,,,
,,,,,,,,,,,,,,,,,,999,2020-11-26_13h29.33.962,lexical_decision_task_MP_exp2,2020.2.5,Win32,60,,0,0.296375267,-0.320895522,1,0,0,0.23,button_right,0.23,1,,,,,,204,WORD,UN,16,lounge,BURDEN,m,,,,,,0.296375267,-0.320895522,1,0,0,,0,50,50,203,1,,,
,,,,,,,,,,,,,,,,,,999,2020-11-26_13h29.33.962,lexical_decision_task_MP_exp2,2020.2.5,Win32,60,,0,0.296375267,-0.320895522,1,0,0,0.181,button_right,0.181,1,,,,,,7,WORD,"ID",33,anchor,ANCHOR,m,,,,,,0.296375267,-0.320895522,1,0,0,,0,51,51,6,1,,,
,,,,,,,,,,,,,,,,,,999,2020-11-26_13h29.33.962,lexical_decision_task_MP_exp2,2020.2.5,Win32,60,,0,0.296375267,-0.320895522,1,0,0,0.231,button_right,0.231,1,,,,,,148,WORD,UN,33,invade,CUSTOM,m,,,,,,0.296375267,-0.320895522,1,0,0,,0,52,52,147,1,,,
,,,,,,,,,,,,,,,,,,999,2020-11-26_13h29.33.962,lexical_decision_task_MP_exp2,2020.2.5,Win32,60,,0,0.296375267,-0.320895522,1,0,0,0.147,button_right,0.147,0,,,,,,413,NW,UN,33,serbol,EQUATS,z,,,,,,0.296375267,-0.320895522,1,0,0,,0,53,53,412,1,,,
,,,,,,,,,,,,,,,,,,999,2020-11-26_13h29.33.962,lexical_decision_task_MP_exp2,2020.2.5,Win32,60,,0,0.296375267,-0.320895522,1,0,0,0.148,button_right,0.148,0,,,,,,458,NW,UN,16,chaite,BARCET,z,,,,,,0.296375267,-0.320895522,1,0,0,,0,54,54,457,1,,,
,,,,,,,,,,,,,,,,,,999,2020-11-26_13h29.33.962,lexical_decision_task_MP_exp2,2020.2.5,Win32,60,m,0,,,,,,,,1.786,0,,,,,,410,NW,UN,33,orchin,TUNORY,z,,,,,,0.296375267,-0.320895522,0,0,0,,0,55,55,409,1,1.786,,
,,,,,,,,,,,,,,,,,,999,2020-11-26_13h29.33.962,lexical_decision_task_MP_exp2,2020.2.5,Win32,60,m,0,,,,,,,,0.617,0,,,,,,394,NW,UN,33,colury,SPAQUX,z,,,,,,0.296375267,-0.320895522,0,0,0,,0,56,56,393,1,0.617,,
,,,,,,,,,,,,,,,,,,999,2020-11-26_13h29.33.962,lexical_decision_task_MP_exp2,2020.2.5,Win32,60,m,1,,,,,,,,0.138,1,,,,,,9,WORD,"ID",33,hustle,HUSTLE,m,,,,,,0.296375267,-0.320895522,0,0,0,,0,57,57,8,1,0.138,,
,,,,,,,,,,,,,,,,,,999,2020-11-26_13h29.33.962,lexical_decision_task_MP_exp2,2020.2.5,Win32,60,m,0,,,,,,,,0.366,0,,,,,,307,NW,"ID",16,kirafe,KIRAFE,z,,,,,,0.296375267,-0.320895522,0,0,0,,0,58,58,306,1,0.366,,
,,,,,,,,,,,,,,,,,,999,2020-11-26_13h29.33.962,lexical_decision_task_MP_exp2,2020.2.5,Win32,60,m,1,,,,,,,,0.066,1,,,,,,166,WORD,UN,33,design,STARCH,m,,,,,,0.296375267,-0.320895522,0,0,0,,0,59,59,165,1,0.066,,
,,,,,,,,,,,,,,,,,,999,2020-11-26_13h29.33.962,lexical_decision_task_MP_exp2,2020.2.5,Win32,60,m,0,,,,,,,,0.135,0,,,,,,372,NW,UN,33,bigent,RAMILY,z,,,,,,0.296375267,-0.320895522,0,0,0,,0,60,60,371,1,0.135,,
,,,,,,,,,,,,,,,,,,999,2020-11-26_13h29.33.962,lexical_decision_task_MP_exp2,2020.2.5,Win32,60,z,0,,,,,,,,0.273,0,,,,,,228,WORD,UN,16,inject,MASTER,m,,,,,,0.296375267,-0.320895522,0,0,0,,0,61,61,227,1,0.273,,
,,,,,,,,,,,,,,,,,,999,2020-11-26_13h29.33.962,lexical_decision_task_MP_exp2,2020.2.5,Win32,60,m,1,,,,,,,,0.101,1,,,,,,155,WORD,UN,33,cradle,LIZARD,m,,,,,,0.296375267,-0.320895522,0,0,0,,0,62,62,154,1,0.101,,
,,,,,,,,,,,,,,,,,,999,2020-11-26_13h29.33.962,lexical_decision_task_MP_exp2,2020.2.5,Win32,60,z,0,,,,,,,,0.119,0,,,,,,138,WORD,UN,33,staple,MELODY,m,,,,,,0.296375267,-0.320895522,0,0,0,,0,63,63,137,1,0.119,,
,,,,,,,,,,,,,,,,,,999,2020-11-26_13h29.33.962,lexical_decision_task_MP_exp2,2020.2.5,Win32,60,m,0,,,,,,,,0.146,0,,,,,,433,NW,UN,16,pitrom,DRANCE,z,,,,,,0.296375267,-0.320895522,0,0,0,,0,64,64,432,1,0.146,,
,,,,,,,,,,,,,,,,,,999,2020-11-26_13h29.33.962,lexical_decision_task_MP_exp2,2020.2.5,Win32,60,z,0,,,,,,,,0.116,0,,,,,,70,WORD,"ID",16,square,SQUARE,m,,,,,,0.296375267,-0.320895522,0,0,0,,0,65,65,69,1,0.116,,
,,,,,,,,,,,,,,,,,,999,2020-11-26_13h29.33.962,lexical_decision_task_MP_exp2,2020.2.5,Win32,60,m,0,,,,,,,,0.126,0,,,,,,303,NW,"ID",16,fiream,FIREAM,z,,,,,,0.296375267,-0.320895522,0,0,0,,0,66,66,302,1,0.126,,
,,,,,,,,,,,,,,,,,,999,2020-11-26_13h29.33.962,lexical_decision_task_MP_exp2,2020.2.5,Win32,60,z,1,,,,,,,,0.116,1,,,,,,301,NW,"ID",16,fainch,FAINCH,z,,,,,,0.296375267,-0.320895522,0,0,0,,0,67,67,300,1,0.116,,
,,,,,,,,,,,,,,,,,,999,2020-11-26_13h29.33.962,lexical_decision_task_MP_exp2,2020.2.5,Win32,60,m,0,,,,,,,,0.109,0,,,,,,419,NW,UN,33,gushop,SLOUNT,z,,,,,,0.296375267,-0.320895522,0,0,0,,0,68,68,418,1,0.109,,
,,,,,,,,,,,,,,,,,,999,2020-11-26_13h29.33.962,lexical_decision_task_MP_exp2,2020.2.5,Win32,60,z,1,,,,,,,,0.14,1,,,,,,356,NW,"ID",16,othnis,OTHNIS,z,,,,,,0.296375267,-0.320895522,0,0,0,,0,69,69,355,1,0.14,,
,,,,,,,,,,,,,,,,,,999,2020-11-26_13h29.33.962,lexical_decision_task_MP_exp2,2020.2.5,Win32,60,m,1,,,,,,,,0.067,1,,,,,,116,WORD,"ID",16,tumble,TUMBLE,m,,,,,,0.296375267,-0.320895522,0,0,0,,0,70,70,115,1,0.067,,
,,,,,,,,,,,,,,,,,,999,2020-11-26_13h29.33.962,lexical_decision_task_MP_exp2,2020.2.5,Win32,60,z,0,,,,,,,,0.142,0,,,,,,181,WORD,UN,16,winter,GLANCE,m,,,,,,0.296375267,-0.320895522,0,0,0,,0,71,71,180,1,0.142,,
,,,,,,,,,,,,,,,,,,999,2020-11-26_13h29.33.962,lexical_decision_task_MP_exp2,2020.2.5,Win32,60,m,0,,,,,,,,0.127,0,,,,,,247,NW,"ID",33,blarge,BLARGE,z,,,,,,0.296375267,-0.320895522,0,0,0,,0,72,72,246,1,0.127,,
,,,,,,,,,,,,,,,,,,999,2020-11-26_13h29.33.962,lexical_decision_task_MP_exp2,2020.2.5,Win32,60,z,1,,,,,,,,0.187,1,,,,,,331,NW,"ID",16,gilfew,GILFEW,z,,,,,,0.296375267,-0.320895522,0,0,0,,0,73,73,330,1,0.187,,
,,,,,,,,,,,,,,,,,,999,2020-11-26_13h29.33.962,lexical_decision_task_MP_exp2,2020.2.5,Win32,60,m,0,,,,,,,,0.174,0,,,,,,257,NW,"ID",33,veniod,VENIOD,z,,,,,,0.296375267,-0.320895522,0,0,0,,0,74,74,256,1,0.174,,
,,,,,,,,,,,,,,,,,,999,2020-11-26_13h29.33.962,lexical_decision_task_MP_exp2,2020.2.5,Win32,60,m,0,,,,,,,,0.017,0,,,,,,374,NW,UN,33,yorque,SLIANT,z,,,,,,0.296375267,-0.320895522,0,0,0,,0,75,75,373,1,0.017,,
,,,,,,,,,,,,,,,,,,999,2020-11-26_13h29.33.962,lexical_decision_task_MP_exp2,2020.2.5,Win32,60,z,1,,,,,,,,0.092,1,,,,,,362,NW,UN,33,breali,TIREAU,z,,,,,,0.296375267,-0.320895522,0,0,0,,0,76,76,361,1,0.092,,
,,,,,,,,,,,,,,,,,,999,2020-11-26_13h29.33.962,lexical_decision_task_MP_exp2,2020.2.5,Win32,60,m,1,,,,,,,,0.099,1,,,,,,99,WORD,"ID",16,fluent,FLUENT,m,,,,,,0.296375267,-0.320895522,0,0,0,,0,77,77,98,1,0.099,,
,,,,,,,,,,,,,,,,,,999,2020-11-26_13h29.33.962,lexical_decision_task_MP_exp2,2020.2.5,Win32,60,z,0,,,,,,,,0.142,0,,,,,,190,WORD,UN,16,stable,BACKUP,m,,,,,,0.296375267,-0.320895522,0,0,0,,0,78,78,189,1,0.142,,
,,,,,,,,,,,,,,,,,,999,2020-11-26_13h29.33.962,lexical_decision_task_MP_exp2,2020.2.5,Win32,60,z,0,,,,,,,,0.184,0,,,,,,56,WORD,"ID",33,ambush,AMBUSH,m,,,,,,0.296375267,-0.320895522,0,0,0,,0,79,79,55,1,0.184,,
,,,,,,,,,,,,,,,,,,999,2020-11-26_13h29.33.962,lexical_decision_task_MP_exp2,2020.2.5,Win32,60,m,1,,,,,,,,0.091,1,,,,,,44,WORD,"ID",33,danger,DANGER,m,,,,,,0.296375267,-0.320895522,0,0,0,,0,80,80,43,1,0.091,,
,,,,,,,,,,,,,,,,,,999,2020-11-26_13h29.33.962,lexical_decision_task_MP_exp2,2020.2.5,Win32,60,m,1,,,,,,,,0.434,1,,,,,,209,WORD,UN,16,monkey,SEARCH,m,,,,,,0.296375267,-0.320895522,0,0,0,,0,81,81,208,1,0.434,,
,,,,,,,,,,,,,,,,,,999,2020-11-26_13h29.33.962,lexical_decision_task_MP_exp2,2020.2.5,Win32,60,z,1,,,,,,,,0.234,1,,,,,,334,NW,"ID",16,watmeg,WATMEG,z,,,,,,0.296375267,-0.320895522,0,0,0,,0,82,82,333,1,0.234,,
,,,,,,,,,,,,,,,,,,999,2020-11-26_13h29.33.962,lexical_decision_task_MP_exp2,2020.2.5,Win32,60,m,0,,,,,,,,0.099,0,,,,,,361,NW,UN,33,tireau,PAUCHE,z,,,,,,0.296375267,-0.320895522,0,0,0,,0,83,83,360,1,0.099,,
,,,,,,,,,,,,,,,,,,999,2020-11-26_13h29.33.962,lexical_decision_task_MP_exp2,2020.2.5,Win32,60,z,0,,,,,,,,0.232,0,,,,,,69,WORD,"ID",16,plenty,PLENTY,m,,,,,,0.296375267,-0.320895522,0,0,0,,0,84,84,68,1,0.232,,
,,,,,,,,,,,,,,,,,,999,2020-11-26_13h29.33.962,lexical_decision_task_MP_exp2,2020.2.5,Win32,60,m,0,,,,,,,,0.108,0,,,,,,324,NW,"ID",16,steikh,STEIKH,z,,,,,,0.296375267,-0.320895522,0,0,0,,0,85,85,323,1,0.108,,
,,,,,,,,,,,,,,,,,,999,2020-11-26_13h29.33.962,lexical_decision_task_MP_exp2,2020.2.5,Win32,60,z,0,,,,,,,,0.205,0,,,,,,175,WORD,UN,33,strife,FABRIC,m,,,,,,0.296375267,-0.320895522,0,0,0,,0,86,86,174,1,0.205,,
,,,,,,,,,,,,,,,,,,999,2020-11-26_13h29.33.962,lexical_decision_task_MP_exp2,2020.2.5,Win32,60,z,0,,,,,,,,0.389,0,,,,,,90,WORD,"ID",16,relish,RELISH,m,,,,,,0.296375267,-0.320895522,0,0,0,,0,87,87,89,1,0.389,,
,,,,,,,,,,,,,,,,,,999,2020-11-26_13h29.33.962,lexical_decision_task_MP_exp2,2020.2.5,Win32,60,z,0,,,,,,,,0.017,0,,,,,,20,WORD,"ID",33,breast,BREAST,m,,,,,,0.296375267,-0.320895522,0,0,0,,0,88,88,19,1,0.017,,
,,,,,,,,,,,,,,,,,,999,2020-11-26_13h29.33.962,lexical_decision_task_MP_exp2,2020.2.5,Win32,60,m,0,,,,,,,,0.516,0,,,,,,376,NW,UN,33,sliant,IGUARE,z,,,,,,0.296375267,-0.320895522,0,0,0,,0,89,89,375,1,0.516,,
,,,,,,,,,,,,,,,,,,999,2020-11-26_13h29.33.962,lexical_decision_task_MP_exp2,2020.2.5,Win32,60,z,0,,,,,,,,0.034,0,,,,,,104,WORD,"ID",16,studio,STUDIO,m,,,,,,0.296375267,-0.320895522,0,0,0,,0,90,90,103,1,0.034,,
,,,,,,,,,,,,,,,,,,999,2020-11-26_13h29.33.962,lexical_decision_task_MP_exp2,2020.2.5,Win32,60,z,0,,,,,,,,0.034,0,,,,,,8,WORD,"ID",33,abrupt,ABRUPT,m,,,,,,0.296375267,-0.320895522,0,0,0,,0,91,91,7,1,0.034,,
,,,,,,,,,,,,,,,,,,999,2020-11-26_13h29.33.962,lexical_decision_task_MP_exp2,2020.2.5,Win32,60,z,1,,,,,,,,0.002,1,,,,,,407,NW,UN,33,hurnia,SUIVER,z,,,,,,0.296375267,-0.320895522,0,0,0,,0,92,92,406,1,0.002,,
,,,,,,,,,,,,,,,,,,999,2020-11-26_13h29.33.962,lexical_decision_task_MP_exp2,2020.2.5,Win32,60,z,1,,,,,,,,0.067,1,,,,,,387,NW,UN,33,cragin,GRONCE,z,,,,,,0.296375267,-0.320895522,0,0,0,,0,93,93,386,1,0.067,,
,,,,,,,,,,,,,,,,,,999,2020-11-26_13h29.33.962,lexical_decision_task_MP_exp2,2020.2.5,Win32,60,z,1,,,,,,,,0.024,1,,,,,,346,NW,"ID",16,saudic,SAUDIC,z,,,,,,0.296375267,-0.320895522,0,0,0,,0,94,94,345,1,0.024,,
,,,,,,,,,,,,,,,,,,999,2020-11-26_13h29.33.962,lexical_decision_task_MP_exp2,2020.2.5,Win32,60,m,1,,,,,,,,0.156,1,,,,,,169,WORD,UN,33,pounce,GENIUS,m,,,,,,0.296375267,-0.320895522,0,0,0,,0,95,95,168,1,0.156,,
,,,,,,,,,,,,,,,,,,999,2020-11-26_13h29.33.962,lexical_decision_task_MP_exp2,2020.2.5,Win32,60,m,0,,,,,,,,0.233,0,,,,,,431,NW,UN,16,lunker,CHRUMS,z,,,,,,0.296375267,-0.320895522,0,0,0,,0,96,96,430,1,0.233,,
,,,,,,,,,,,,,,,,,,999,2020-11-26_13h29.33.962,lexical_decision_task_MP_exp2,2020.2.5,Win32,60,z,1,,,,,,,,0.384,1,,,,,,369,NW,UN,33,sleact,WRONCH,z,,,,,,0.296375267,-0.320895522,0,0,0,,0,97,97,368,1,0.384,,
,,,,,,,,,,,,,,,,,,999,2020-11-26_13h29.33.962,lexical_decision_task_MP_exp2,2020.2.5,Win32,60,m,0,,,,,,,,0.357,0,,,,,,249,NW,"ID",33,batrol,BATROL,z,,,,,,0.296375267,-0.320895522,0,0,0,,0,98,98,248,1,0.357,,
,,,,,,,,,,,,,,,,,,999,2020-11-26_13h29.33.962,lexical_decision_task_MP_exp2,2020.2.5,Win32,60,m,0,,,,,,,,0.991,0,,,,,,256,NW,"ID",33,inlors,INLORS,z,,,,,,0.296375267,-0.320895522,0,0,0,,0,99,99,255,1,0.991,,
,,,,,,,,,,,,,,,,,,999,2020-11-26_13h29.33.962,lexical_decision_task_MP_exp2,2020.2.5,Win32,60,m,0,,,,,,,,0.256,0,,,,,,246,NW,"ID",33,piaton,PIATON,z,,,,,,0.296375267,-0.320895522,0,0,0,,0,100,100,245,1,0.256,,
,,,,,,,,,,,,,,,,,,999,2020-11-26_13h29.33.962,lexical_decision_task_MP_exp2,2020.2.5,Win32,60,m,0,,,,,,,,0.782,0,,,,,,348,NW,"ID",16,dumple,DUMPLE,z,,,,,,0.296375267,-0.320895522,0,0,0,,0,101,101,347,1,0.782,,
,,,,,,,,,,,,,,,,,,999,2020-11-26_13h29.33.962,lexical_decision_task_MP_exp2,2020.2.5,Win32,60,z,0,,,,,,,,0.269,0,,,,,,34,WORD,"ID",33,jungle,JUNGLE,m,,,,,,0.296375267,-0.320895522,0,0,0,,0,102,102,33,1,0.269,,
,,,,,,,,,,,,,,,,,,999,2020-11-26_13h29.33.962,lexical_decision_task_MP_exp2,2020.2.5,Win32,60,m,0,,,,,,,,0.222,0,,,,,,474,NW,UN,16,gorbie,HABLIN,z,,,,,,0.296375267,-0.320895522,0,0,0,,0,103,103,473,1,0.222,,
,,,,,,,,,,,,,,,,,,999,2020-11-26_13h29.33.962,lexical_decision_task_MP_exp2,2020.2.5,Win32,60,m,1,,,,,,,,0.126,1,,,,,,230,WORD,UN,16,export,FRINGE,m,,,,,,0.296375267,-0.320895522,0,0,0,,0,104,104,229,1,0.126,,
,,,,,,,,,,,,,,,,,,999,2020-11-26_13h29.33.962,lexical_decision_task_MP_exp2,2020.2.5,Win32,60,z,0,,,,,,,,0.268,0,,,,,,1,WORD,"ID",33,fright,FRIGHT,m,,,,,,0.296375267,-0.320895522,0,0,0,,0,105,105,0,1,0.268,,
,,,,,,,,,,,,,,,,,,999,2020-11-26_13h29.33.962,lexical_decision_task_MP_exp2,2020.2.5,Win32,60,z,0,,,,,,,,0.019,0,,,,,,203,WORD,UN,16,burden,PHRASE,m,,,,,,0.296375267,-0.320895522,0,0,0,,0,106,106,202,1,0.019,,
,,,,,,,,,,,,,,,,,,999,2020-11-26_13h29.33.962,lexical_decision_task_MP_exp2,2020.2.5,Win32,60,z,1,,,,,,,,0.141,1,,,,,,420,NW,UN,33,pauche,GUSHOP,z,,,,,,0.296375267,-0.320895522,0,0,0,,0,107,107,419,1,0.141,,
,,,,,,,,,,,,,,,,,,999,2020-11-26_13h29.33.962,lexical_decision_task_MP_exp2,2020.2.5,Win32,60,z,1,,,,,,,,0.266,1,,,,,,309,NW,"ID",16,amiloy,AMILOY,z,,,,,,0.296375267,-0.320895522,0,0,0,,0,108,108,308,1,0.266,,
,,,,,,,,,,,,,,,,,,999,2020-11-26_13h29.33.962,lexical_decision_task_MP_exp2,2020.2.5,Win32,60,z,1,,,,,,,,0.149,1,,,,,,412,NW,UN,33,equats,JILUER,z,,,,,,0.296375267,-0.320895522,0,0,0,,0,109,109,411,1,0.149,,
,,,,,,,,,,,,,,,,,,999,2020-11-26_13h29.33.962,lexical_decision_task_MP_exp2,2020.2.5,Win32,60,z,1,,,,,,,,0.085,1,,,,,,425,NW,UN,16,schind,FRUDGE,z,,,,,,0.296375267,-0.320895522,0,0,0,,0,110,110,424,1,0.085,,
,,,,,,,,,,,,,,,,,,999,2020-11-26_13h29.33.962,lexical_decision_task_MP_exp2,2020.2.5,Win32,60,m,0,,,,,,,,0.326,0,,,,,,291,NW,"ID",33,pretch,PRETCH,z,,,,,,0.296375267,-0.320895522,0,0,0,,0,111,111,290,1,0.326,,
,,,,,,,,,,,,,,,,,,999,2020-11-26_13h29.33.962,lexical_decision_task_MP_exp2,2020.2.5,Win32,60,z,1,,,,,,,,0.305,1,,,,,,449,NW,UN,16,phrect,BRUNGE,z,,,,,,0.296375267,-0.320895522,0,0,0,,0,112,112,448,1,0.305,,
,,,,,,,,,,,,,,,,,,999,2020-11-26_13h29.33.962,lexical_decision_task_MP_exp2,2020.2.5,Win32,60,z,0,,,,,,,,0.002,0,,,,,,211,WORD,UN,16,verify,INFECT,m,,,,,,0.296375267,-0.320895522,0,0,0,,0,113,113,210,1,0.002,,
,,,,,,,,,,,,,,,,,,999,2020-11-26_13h29.33.962,lexical_decision_task_MP_exp2,2020.2.5,Win32,60,m,0,,,,,,,,0.2,0,,,,,,377,NW,UN,33,shrile,INJORE,z,,,,,,0.296375267,-0.320895522,0,0,0,,0,114,114,376,1,0.2,,
,,,,,,,,,,,,,,,,,,999,2020-11-26_13h29.33.962,lexical_decision_task_MP_exp2,2020.2.5,Win32,60,z,1,,,,,,,,0.242,1,,,,,,363,NW,UN,33,impote,BREALI,z,,,,,,0.296375267,-0.320895522,0,0,0,,0,115,115,362,1,0.242,,
,,,,,,,,,,,,,,,,,,999,2020-11-26_13h29.33.962,lexical_decision_task_MP_exp2,2020.2.5,Win32,60,z,1,,,,,,,,0.034,1,,,,,,426,NW,UN,16,frudge,URIVEL,z,,,,,,0.296375267,-0.320895522,0,0,0,,0,116,116,425,1,0.034,,
,,,,,,,,,,,,,,,,,,999,2020-11-26_13h29.33.962,lexical_decision_task_MP_exp2,2020.2.5,Win32,60,z,0,,,,,,,,0.027,0,,,,,,103,WORD,"ID",16,bounce,BOUNCE,m,,,,,,0.296375267,-0.320895522,0,0,0,,0,117,117,102,1,0.027,,
,,,,,,,,,,,,,,,,,,999,2020-11-26_13h29.33.962,lexical_decision_task_MP_exp2,2020.2.5,Win32,60,z,0,,,,,,,,0.022,0,,,,,,27,WORD,"ID",33,scream,SCREAM,m,,,,,,0.296375267,-0.320895522,0,0,0,,0,118,118,26,1,0.022,,
,,,,,,,,,,,,,,,,,,999,2020-11-26_13h29.33.962,lexical_decision_task_MP_exp2,2020.2.5,Win32,60,z,0,,,,,,,,0.001,0,,,,,,133,WORD,UN,33,debris,CHROME,m,,,,,,0.296375267,-0.320895522,0,0,0,,0,119,119,132,1,0.001,,
,,,,,,,,,,,,,,,,,,999,2020-11-26_13h29.33.962,lexical_decision_task_MP_exp2,2020.2.5,Win32,60,z,0,,,,,,,,0.068,0,,,,,,14,WORD,"ID",33,almost,ALMOST,m,,,,,,0.296375267,-0.320895522,0,0,0,space,0,120,120,13,1,0.068,4.015,
,,,,,,,,,,,,,,,,,,999,2020-11-26_13h29.33.962,lexical_decision_task_MP_exp2,2020.2.5,Win32,60,z,0,,,,,,,,0.704,0,,,,,,232,WORD,UN,16,nature,INJECT,m,,,,,,0.296375267,-0.320895522,0,0,0,,0,121,121,231,1,0.704,,
,,,,,,,,,,,,,,,,,,999,2020-11-26_13h29.33.962,lexical_decision_task_MP_exp2,2020.2.5,Win32,60,z,1,,,,,,,,0.484,1,,,,,,244,NW,"ID",33,eatric,EATRIC,z,,,,,,0.296375267,-0.320895522,0,0,0,,0,122,122,243,1,0.484,,
,,,,,,,,,,,,,,,,,,999,2020-11-26_13h29.33.962,lexical_decision_task_MP_exp2,2020.2.5,Win32,60,z,0,,,,,,,,0.001,0,,,,,,161,WORD,UN,33,candle,PASTOR,m,,,,,,0.296375267,-0.320895522,0,0,0,,0,123,123,160,1,0.001,,
,,,,,,,,,,,,,,,,,,999,2020-11-26_13h29.33.962,lexical_decision_task_MP_exp2,2020.2.5,Win32,60,z,1,,,,,,,,0.105,1,,,,,,393,NW,UN,33,spaqux,GANOUS,z,,,,,,0.296375267,-0.320895522,0,0,0,,0,124,124,392,1,0.105,,
,,,,,,,,,,,,,,,,,,999,2020-11-26_13h29.33.962,lexical_decision_task_MP_exp2,2020.2.5,Win32,60,z,1,,,,,,,,0.082,1,,,,,,325,NW,"ID",16,thruse,THRUSE,z,,,,,,0.296375267,-0.320895522,0,0,0,,0,125,125,324,1,0.082,,
,,,,,,,,,,,,,,,,,,999,2020-11-26_13h29.33.962,lexical_decision_task_MP_exp2,2020.2.5,Win32,60,z,0,,,,,,,,0.067,0,,,,,,224,WORD,UN,16,vulgar,PERIOD,m,,,,,,0.296375267,-0.320895522,0,0,0,,0,126,126,223,1,0.067,,
,,,,,,,,,,,,,,,,,,999,2020-11-26_13h29.33.962,lexical_decision_task_MP_exp2,2020.2.5,Win32,60,z,0,,,,,,,,0.067,0,,,,,,178,WORD,UN,33,mildew,INFORM,m,,,,,,0.296375267,-0.320895522,0,0,0,,0,127,127,177,1,0.067,,
,,,,,,,,,,,,,,,,,,999,2020-11-26_13h29.33.962,lexical_decision_task_MP_exp2,2020.2.5,Win32,60,z,0,,,,,,,,0.04,0,,,,,,235,WORD,UN,16,pirate,GRUMPY,m,,,,,,0.296375267,-0.320895522,0,0,0,,0,128,128,234,1,0.04,,
,,,,,,,,,,,,,,,,,,999,2020-11-26_13h29.33.962,lexical_decision_task_MP_exp2,2020.2.5,Win32,60,z,0,,,,,,,,0.017,0,,,,,,18,WORD,"ID",33,humble,HUMBLE,m,,,,,,0.296375267,-0.320895522,0,0,0,,0,129,129,17,1,0.017,,
,,,,,,,,,,,,,,,,,,999,2020-11-26_13h29.33.962,lexical_decision_task_MP_exp2,2020.2.5,Win32,60,,0,,,,,,,,0.017,-1,,,,,,29,WORD,"ID",33,sketch,SKETCH,m,,,,,,0.296375267,-0.320895522,0,0,0,,0,130,130,28,1,,,
,,,,,,,,,,,,,,,,,,999,2020-11-26_13h29.33.962,lexical_decision_task_MP_exp2,2020.2.5,Win32,60,,0,,,,,,,,0.017,-1,,,,,,430,NW,UN,16,funtle,CAROEY,z,,,,,,0.296375267,-0.320895522,0,0,0,,0,131,131,429,1,,,
,,,,,,,,,,,,,,,,,,999,2020-11-26_13h29.33.962,lexical_decision_task_MP_exp2,2020.2.5,Win32,60,m,0,,,,,,,,0.009,0,,,,,,364,NW,UN,33,guairt,IMPOTE,z,,,,,,0.296375267,-0.320895522,0,0,0,,0,132,132,363,1,0.009,,
,,,,,,,,,,,,,,,,,,999,2020-11-26_13h29.33.962,lexical_decision_task_MP_exp2,2020.2.5,Win32,60,m,1,,,,,,,,0.249,1,,,,,,199,WORD,UN,16,beacon,INVOKE,m,,,,,,0.296375267,-0.320895522,0,0,0,,0,133,133,198,1,0.249,,
,,,,,,,,,,,,,,,,,,999,2020-11-26_13h29.33.962,lexical_decision_task_MP_exp2,2020.2.5,Win32,60,,0,,,,,,,,0.249,-1,,,,,,360,NW,"ID",16,desory,DESORY,z,,,,,,0.296375267,-0.320895522,0,0,0,,0,134,134,359,1,,,
,,,,,,,,,,,,,,,,,,999,2020-11-26_13h29.33.962,lexical_decision_task_MP_exp2,2020.2.5,Win32,60,,0,,,,,,,,0.249,-1,,,,,,260,NW,"ID",33,unject,UNJECT,z,,,,,,0.296375267,-0.320895522,0,0,0,,0,135,135,259,1,,,
,,,,,,,,,,,,,,,,,,999,2020-11-26_13h29.33.962,lexical_decision_task_MP_exp2,2020.2.5,Win32,60,m,1,,,,,,,,0.017,1,,,,,,185,WORD,UN,16,portal,BOTHER,m,,,,,,0.296375267,-0.320895522,0,0,0,,0,136,136,184,1,0.017,,
,,,,,,,,,,,,,,,,,,999,2020-11-26_13h29.33.962,lexical_decision_task_MP_exp2,2020.2.5,Win32,60,m,0,,,,,,,,0.154,0,,,,,,401,NW,UN,33,elopia,MUSTIL,z,,,,,,0.296375267,-0.320895522,0,0,0,,0,137,137,400,1,0.154,,
,,,,,,,,,,,,,,,,,,999,2020-11-26_13h29.33.962,lexical_decision_task_MP_exp2,2020.2.5,Win32,60,,0,,,,,,,,0.154,-1,,,,,,436,NW,UN,16,snapel,FRUTAN,z,,,,,,0.296375267,-0.320895522,0,0,0,,0,138,138,435,1,,,
,,,,,,,,,,,,,,,,,,999,2020-11-26_13h29.33.962,lexical_decision_task_MP_exp2,2020.2.5,Win32,60,m,1,,,,,,,,0.166,1,,,,,,106,WORD,"ID",16,ransom,RANSOM,m,,,,,,0.296375267,-0.320895522,0,0,0,,0,139,139,105,1,0.166,,
,,,,,,,,,,,,,,,,,,999,2020-11-26_13h29.33.962,lexical_decision_task_MP_exp2,2020.2.5,Win32,60,z,1,,,,,,,,0.992,1,,,,,,275,NW,"ID",33,sleirt,SLEIRT,z,,,,,,0.296375267,-0.320895522,0,0,0,,0,140,140,274,1,0.992,,
,,,,,,,,,,,,,,,,,,999,2020-11-26_13h29.33.962,lexical_decision_task_MP_exp2,2020.2.5,Win32,60,z,0,,,,,,,,0.056,0,,,,,,60,WORD,"ID",33,pencil,PENCIL,m,,,,,,0.296375267,-0.320895522,0,0,0,,0,141,141,59,1,0.056,,
,,,,,,,,,,,,,,,,,,999,2020-11-26_13h29.33.962,lexical_decision_task_MP_exp2,2020.2.5,Win32,60,m,1,,,,,,,,0.057,1,,,,,,227,WORD,UN,16,master,SELDOM,m,,,,,,0.296375267,-0.320895522,0,0,0,,0,142,142,226,1,0.057,,
,,,,,,,,,,,,,,,,,,999,2020-11-26_13h29.33.962,lexical_decision_task_MP_exp2,2020.2.5,Win32,60,z,1,,,,,,,,0.167,1,,,,,,442,NW,UN,16,dorsex,ABOUNE,z,,,,,,0.296375267,-0.320895522,0,0,0,,0,143,143,441,1,0.167,,
,,,,,,,,,,,,,,,,,,999,2020-11-26_13h29.33.962,lexical_decision_task_MP_exp2,2020.2.5,Win32,60,m,1,,,,,,,,0.184,1,,,,,,79,WORD,"ID",16,theory,THEORY,m,,,,,,0.296375267,-0.320895522,0,0,0,,0,144,144,78,1,0.184,,
,,,,,,,,,,,,,,,,,,999,2020-11-26_13h29.33.962,lexical_decision_task_MP_exp2,2020.2.5,Win32,60,z,1,,,,,,,,1.22,1,,,,,,472,NW,UN,16,crible,CIGNEY,z,,,,,,0.296375267,-0.320895522,0,0,0,,0,145,145,471,1,1.22,,
,,,,,,,,,,,,,,,,,,999,2020-11-26_13h29.33.962,lexical_decision_task_MP_exp2,2020.2.5,Win32,60,m,0,,,,,,,,0.159,0,,,,,,273,NW,"ID",33,sortel,SORTEL,z,,,,,,0.296375267,-0.320895522,0,0,0,,0,146,146,272,1,0.159,,
,,,,,,,,,,,,,,,,,,999,2020-11-26_13h29.33.962,lexical_decision_task_MP_exp2,2020.2.5,Win32,60,m,0,,,,,,,,0.24,0,,,,,,339,NW,"ID",16,fachow,FACHOW,z,,,,,,0.296375267,-0.320895522,0,0,0,,0,147,147,338,1,0.24,,
,,,,,,,,,,,,,,,,,,999,2020-11-26_13h29.33.962,lexical_decision_task_MP_exp2,2020.2.5,Win32,60,m,0,,,,,,,,1.584,0,,,,,,441,NW,UN,16,aboune,RASTOE,z,,,,,,0.296375267,-0.320895522,0,0,0,,0,148,148,440,1,1.584,,
,,,,,,,,,,,,,,,,,,999,2020-11-26_13h29.33.962,lexical_decision_task_MP_exp2,2020.2.5,Win32,60,z,1,,,,,,,,0.083,1,,,,,,427,NW,UN,16,tandly,SCHIND,z,,,,,,0.296375267,-0.320895522,0,0,0,,0,149,149,426,1,0.083,,
,,,,,,,,,,,,,,,,,,999,2020-11-26_13h29.33.962,lexical_decision_task_MP_exp2,2020.2.5,Win32,60,z,1,,,,,,,,0.084,1,,,,,,373,NW,UN,33,injore,BIGENT,z,,,,,,0.296375267,-0.320895522,0,0,0,,0,150,150,372,1,0.084,,
,,,,,,,,,,,,,,,,,,999,2020-11-26_13h29.33.962,lexical_decision_task_MP_exp2,2020.2.5,Win32,60,m,0,,,,,,,,0.368,0,,,,,,375,NW,UN,33,iguare,YORQUE,z,,,,,,0.296375267,-0.320895522,0,0,0,,0,151,151,374,1,0.368,,
,,,,,,,,,,,,,,,,,,999,2020-11-26_13h29.33.962,lexical_decision_task_MP_exp2,2020.2.5,Win32,60,m,0,,,,,,,,0.033,0,,,,,,390,NW,UN,33,theldy,HATRUS,z,,,,,,0.296375267,-0.320895522,0,0,0,,0,152,152,389,1,0.033,,
,,,,,,,,,,,,,,,,,,999,2020-11-26_13h29.33.962,lexical_decision_task_MP_exp2,2020.2.5,Win32,60,m,1,,,,,,,,0.381,1,,,,,,73,WORD,"ID",16,source,SOURCE,m,,,,,,0.296375267,-0.320895522,0,0,0,,0,153,153,72,1,0.381,,
,,,,,,,,,,,,,,,,,,999,2020-11-26_13h29.33.962,lexical_decision_task_MP_exp2,2020.2.5,Win32,60,m,0,,,,,,,,1.465,0,,,,,,313,NW,"ID",16,paurse,PAURSE,z,,,,,,0.296375267,-0.320895522,0,0,0,,0,154,154,312,1,1.465,,
,,,,,,,,,,,,,,,,,,999,2020-11-26_13h29.33.962,lexical_decision_task_MP_exp2,2020.2.5,Win32,60,m,0,,,,,,,,0.26,0,,,,,,368,NW,UN,33,wronch,HORNAL,z,,,,,,0.296375267,-0.320895522,0,0,0,,0,155,155,367,1,0.26,,
,,,,,,,,,,,,,,,,,,999,2020-11-26_13h29.33.962,lexical_decision_task_MP_exp2,2020.2.5,Win32,60,z,0,,,,,,,,0.071,0,,,,,,135,WORD,UN,33,chrome,IMPORT,m,,,,,,0.296375267,-0.320895522,0,0,0,,0,156,156,134,1,0.071,,
,,,,,,,,,,,,,,,,,,999,2020-11-26_13h29.33.962,lexical_decision_task_MP_exp2,2020.2.5,Win32,60,m,0,,,,,,,,0.515,0,,,,,,451,NW,UN,16,surden,CAINKY,z,,,,,,0.296375267,-0.320895522,0,0,0,,0,157,157,450,1,0.515,,
,,,,,,,,,,,,,,,,,,999,2020-11-26_13h29.33.962,lexical_decision_task_MP_exp2,2020.2.5,Win32,60,m,0,,,,,,,,0.225,0,,,,,,261,NW,"ID",33,stunch,STUNCH,z,,,,,,0.296375267,-0.320895522,0,0,0,,0,158,158,260,1,0.225,,
,,,,,,,,,,,,,,,,,,999,2020-11-26_13h29.33.962,lexical_decision_task_MP_exp2,2020.2.5,Win32,60,m,0,,,,,,,,0.12,0,,,,,,262,NW,"ID",33,quilew,QUILEW,z,,,,,,0.296375267,-0.320895522,0,0,0,,0,159,159,261,1,0.12,,
,,,,,,,,,,,,,,,,,,999,2020-11-26_13h29.33.962,lexical_decision_task_MP_exp2,2020.2.5,Win32,60,m,0,,,,,,,,0.605,0,,,,,,248,NW,"ID",33,strole,STROLE,z,,,,,,0.296375267,-0.320895522,0,0,0,,0,160,160,247,1,0.605,,
,,,,,,,,,,,,,,,,,,999,2020-11-26_13h29.33.962,lexical_decision_task_MP_exp2,2020.2.5,Win32,60,z,1,,,,,,,,0.002,1,,,,,,434,NW,UN,16,impurb,PITROM,z,,,,,,0.296375267,-0.320895522,0,0,0,,0,161,161,433,1,0.002,,
,,,,,,,,,,,,,,,,,,999,2020-11-26_13h29.33.962,lexical_decision_task_MP_exp2,2020.2.5,Win32,60,z,1,,,,,,,,0.317,1,,,,,,438,NW,UN,16,limpor,BAITCH,z,,,,,,0.296375267,-0.320895522,0,0,0,,0,162,162,437,1,0.317,,
,,,,,,,,,,,,,,,,,,999,2020-11-26_13h29.33.962,lexical_decision_task_MP_exp2,2020.2.5,Win32,60,m,1,,,,,,,,0.108,1,,,,,,226,WORD,UN,16,flower,CASINO,m,,,,,,0.296375267,-0.320895522,0,0,0,,0,163,163,225,1,0.108,,
,,,,,,,,,,,,,,,,,,999,2020-11-26_13h29.33.962,lexical_decision_task_MP_exp2,2020.2.5,Win32,60,z,0,,,,,,,,0.166,0,,,,,,68,WORD,"ID",16,fumble,FUMBLE,m,,,,,,0.296375267,-0.320895522,0,0,0,,0,164,164,67,1,0.166,,
,,,,,,,,,,,,,,,,,,999,2020-11-26_13h29.33.962,lexical_decision_task_MP_exp2,2020.2.5,Win32,60,m,1,,,,,,,,0.399,1,,,,,,142,WORD,UN,33,orphan,SPRUCE,m,,,,,,0.296375267,-0.320895522,0,0,0,,0,165,165,141,1,0.399,,
,,,,,,,,,,,,,,,,,,999,2020-11-26_13h29.33.962,lexical_decision_task_MP_exp2,2020.2.5,Win32,60,m,1,,,,,,,,1.534,1,,,,,,46,WORD,"ID",33,single,SINGLE,m,,,,,,0.296375267,-0.320895522,0,0,0,,0,166,166,45,1,1.534,,
,,,,,,,,,,,,,,,,,,999,2020-11-26_13h29.33.962,lexical_decision_task_MP_exp2,2020.2.5,Win32,60,,0,,,,,,,,1.534,-1,,,,,,478,NW,UN,16,lobush,ACRISE,z,,,,,,0.296375267,-0.320895522,0,0,0,,0,167,167,477,1,,,
,,,,,,,,,,,,,,,,,,999,2020-11-26_13h29.33.962,lexical_decision_task_MP_exp2,2020.2.5,Win32,60,,0,,,,,,,,1.534,-1,,,,,,250,NW,"ID",33,milted,MILTED,z,,,,,,0.296375267,-0.320895522,0,0,0,,0,168,168,249,1,,,
,,,,,,,,,,,,,,,,,,999,2020-11-26_13h29.33.962,lexical_decision_task_MP_exp2,2020.2.5,Win32,60,m,1,,,,,,,,0.633,1,,,,,,213,WORD,UN,16,intake,SQUEAL,m,,,,,,0.296375267,-0.320895522,0,0,0,,0,169,169,212,1,0.633,,
,,,,,,,,,,,,,,,,,,999,2020-11-26_13h29.33.962,lexical_decision_task_MP_exp2,2020.2.5,Win32,60,m,1,,,,,,,,0.002,1,,,,,,194,WORD,UN,16,resign,ABSENT,m,,,,,,0.296375267,-0.320895522,0,0,0,,0,170,170,193,1,0.002,,
,,,,,,,,,,,,,,,,,,999,2020-11-26_13h29.33.962,lexical_decision_task_MP_exp2,2020.2.5,Win32,60,z,0,,,,,,,,0.289,0,,,,,,171,WORD,UN,33,patrol,DEPART,m,,,,,,0.296375267,-0.320895522,0,0,0,,0,171,171,170,1,0.289,,
,,,,,,,,,,,,,,,,,,999,2020-11-26_13h29.33.962,lexical_decision_task_MP_exp2,2020.2.5,Win32,60,z,1,,,,,,,,0.092,1,,,,,,327,NW,"ID",16,plenac,PLENAC,z,,,,,,0.296375267,-0.320895522,0,0,0,,0,172,172,326,1,0.092,,
,,,,,,,,,,,,,,,,,,999,2020-11-26_13h29.33.962,lexical_decision_task_MP_exp2,2020.2.5,Win32,60,z,0,,,,,,,,0.035,0,,,,,,131,WORD,UN,33,strong,QUENCH,m,,,,,,0.296375267,-0.320895522,0,0,0,,0,173,173,130,1,0.035,,
,,,,,,,,,,,,,,,,,,999,2020-11-26_13h29.33.962,lexical_decision_task_MP_exp2,2020.2.5,Win32,60,z,0,,,,,,,,0.326,0,,,,,,126,WORD,UN,33,castle,ENOUGH,m,,,,,,0.296375267,-0.320895522,0,0,0,,0,174,174,125,1,0.326,,
,,,,,,,,,,,,,,,,,,999,2020-11-26_13h29.33.962,lexical_decision_task_MP_exp2,2020.2.5,Win32,60,z,1,,,,,,,,0.033,1,,,,,,435,NW,UN,16,frutan,IMPURB,z,,,,,,0.296375267,-0.320895522,0,0,0,,0,175,175,434,1,0.033,,
,,,,,,,,,,,,,,,,,,999,2020-11-26_13h29.33.962,lexical_decision_task_MP_exp2,2020.2.5,Win32,60,,0,,,,,,,,0.033,-1,,,,,,188,WORD,UN,16,censor,SOCIAL,m,,,,,,0.296375267,-0.320895522,0,0,0,,0,176,176,187,1,,,
,,,,,,,,,,,,,,,,,,999,2020-11-26_13h29.33.962,lexical_decision_task_MP_exp2,2020.2.5,Win32,60,m,1,,,,,,,,0.185,1,,,,,,67,WORD,"ID",16,policy,POLICY,m,,,,,,0.296375267,-0.320895522,0,0,0,,0,177,177,66,1,0.185,,
,,,,,,,,,,,,,,,,,,999,2020-11-26_13h29.33.962,lexical_decision_task_MP_exp2,2020.2.5,Win32,60,m,1,,,,,,,,0.072,1,,,,,,218,WORD,UN,16,bucket,SHRINK,m,,,,,,0.296375267,-0.320895522,0,0,0,,0,178,178,217,1,0.072,,
,,,,,,,,,,,,,,,,,,999,2020-11-26_13h29.33.962,lexical_decision_task_MP_exp2,2020.2.5,Win32,60,m,1,,,,,,,,0.15,1,,,,,,223,WORD,UN,16,period,KIDNEY,m,,,,,,0.296375267,-0.320895522,0,0,0,,0,179,179,222,1,0.15,,
,,,,,,,,,,,,,,,,,,999,2020-11-26_13h29.33.962,lexical_decision_task_MP_exp2,2020.2.5,Win32,60,,0,,,,,,,,0.15,-1,,,,,,336,NW,"ID",16,ghodus,GHODUS,z,,,,,,0.296375267,-0.320895522,0,0,0,,0,180,180,335,1,,,
,,,,,,,,,,,,,,,,,,999,2020-11-26_13h29.33.962,lexical_decision_task_MP_exp2,2020.2.5,Win32,60,m,0,,,,,,,,0.405,0,,,,,,366,NW,UN,33,slique,TOSHEL,z,,,,,,0.296375267,-0.320895522,0,0,0,,0,181,181,365,1,0.405,,
,,,,,,,,,,,,,,,,,,999,2020-11-26_13h29.33.962,lexical_decision_task_MP_exp2,2020.2.5,Win32,60,z,0,,,,,,,,0.018,0,,,,,,17,WORD,"ID",33,charge,CHARGE,m,,,,,,0.296375267,-0.320895522,0,0,0,,0,182,182,16,1,0.018,,
,,,,,,,,,,,,,,,,,,999,2020-11-26_13h29.33.962,lexical_decision_task_MP_exp2,2020.2.5,Win32,60,m,0,,,,,,,,0.35,0,,,,,,290,NW,"ID",33,splino,SPLINO,z,,,,,,0.296375267,-0.320895522,0,0,0,,0,183,183,289,1,0.35,,
,,,,,,,,,,,,,,,,,,999,2020-11-26_13h29.33.962,lexical_decision_task_MP_exp2,2020.2.5,Win32,60,,0,,,,,,,,0.35,-1,,,,,,382,NW,UN,33,aungre,SARLEY,z,,,,,,0.296375267,-0.320895522,0,0,0,,0,184,184,381,1,,,
,,,,,,,,,,,,,,,,,,999,2020-11-26_13h29.33.962,lexical_decision_task_MP_exp2,2020.2.5,Win32,60,,0,,,,,,,,0.35,-1,,,,,,86,WORD,"ID",16,rodent,RODENT,m,,,,,,0.296375267,-0.320895522,0,0,0,,0,185,185,85,1,,,
,,,,,,,,,,,,,,,,,,999,2020-11-26_13h29.33.962,lexical_decision_task_MP_exp2,2020.2.5,Win32,60,,0,,,,,,,,0.35,-1,,,,,,39,WORD,"ID",33,insect,INSECT,m,,,,,,0.296375267,-0.320895522,0,0,0,,0,186,186,38,1,,,
,,,,,,,,,,,,,,,,,,999,2020-11-26_13h29.33.962,lexical_decision_task_MP_exp2,2020.2.5,Win32,60,z,0,,,,,,,,0.155,0,,,,,,147,WORD,UN,33,custom,GARLIC,m,,,,,,0.296375267,-0.320895522,0,0,0,,0,187,187,146,1,0.155,,
,,,,,,,,,,,,,,,,,,999,2020-11-26_13h29.33.962,lexical_decision_task_MP_exp2,2020.2.5,Win32,60,z,1,,,,,,,,0.1,1,,,,,,354,NW,"ID",16,virlex,VIRLEX,z,,,,,,0.296375267,-0.320895522,0,0,0,,0,188,188,353,1,0.1,,
,,,,,,,,,,,,,,,,,,999,2020-11-26_13h29.33.962,lexical_decision_task_MP_exp2,2020.2.5,Win32,60,z,0,,,,,,,,0.072,0,,,,,,16,WORD,"ID",33,faucet,FAUCET,m,,,,,,0.296375267,-0.320895522,0,0,0,,0,189,189,15,1,0.072,,
,,,,,,,,,,,,,,,,,,999,2020-11-26_13h29.33.962,lexical_decision_task_MP_exp2,2020.2.5,Win32,60,z,0,,,,,,,,0.117,0,,,,,,96,WORD,"ID",16,ignore,IGNORE,m,,,,,,0.296375267,-0.320895522,0,0,0,,0,190,190,95,1,0.117,,
,,,,,,,,,,,,,,,,,,999,2020-11-26_13h29.33.962,lexical_decision_task_MP_exp2,2020.2.5,Win32,60,m,0,,,,,,,,0.15,0,,,,,,464,NW,UN,16,whivex,CHAITE,z,,,,,,0.296375267,-0.320895522,0,0,0,,0,191,191,463,1,0.15,,
,,,,,,,,,,,,,,,,,,999,2020-11-26_13h29.33.962,lexical_decision_task_MP_exp2,2020.2.5,Win32,60,m,0,,,,,,,,0.159,0,,,,,,318,NW,"ID",16,reagly,REAGLY,z,,,,,,0.296375267,-0.320895522,0,0,0,,0,192,192,317,1,0.159,,
,,,,,,,,,,,,,,,,,,999,2020-11-26_13h29.33.962,lexical_decision_task_MP_exp2,2020.2.5,Win32,60,m,0,,,,,,,,0.1,0,,,,,,288,NW,"ID",33,yaceup,YACEUP,z,,,,,,0.296375267,-0.320895522,0,0,0,,0,193,193,287,1,0.1,,
,,,,,,,,,,,,,,,,,,999,2020-11-26_13h29.33.962,lexical_decision_task_MP_exp2,2020.2.5,Win32,60,m,1,,,,,,,,0.159,1,,,,,,110,WORD,"ID",16,polite,POLITE,m,,,,,,0.296375267,-0.320895522,0,0,0,,0,194,194,109,1,0.159,,
,,,,,,,,,,,,,,,,,,999,2020-11-26_13h29.33.962,lexical_decision_task_MP_exp2,2020.2.5,Win32,60,m,0,,,,,,,,0.167,0,,,,,,357,NW,"ID",16,derain,DERAIN,z,,,,,,0.296375267,-0.320895522,0,0,0,,0,195,195,356,1,0.167,,
,,,,,,,,,,,,,,,,,,999,2020-11-26_13h29.33.962,lexical_decision_task_MP_exp2,2020.2.5,Win32,60,m,1,,,,,,,,0.058,1,,,,,,156,WORD,UN,33,pastor,CRADLE,m,,,,,,0.296375267,-0.320895522,0,0,0,,0,196,196,155,1,0.058,,
,,,,,,,,,,,,,,,,,,999,2020-11-26_13h29.33.962,lexical_decision_task_MP_exp2,2020.2.5,Win32,60,m,1,,,,,,,,0.589,1,,,,,,192,WORD,UN,16,object,PLAGUE,m,,,,,,0.296375267,-0.320895522,0,0,0,,0,197,197,191,1,0.589,,
,,,,,,,,,,,,,,,,,,999,2020-11-26_13h29.33.962,lexical_decision_task_MP_exp2,2020.2.5,Win32,60,m,1,,,,,,,,0.169,1,,,,,,75,WORD,"ID",16,trophy,TROPHY,m,,,,,,0.296375267,-0.320895522,0,0,0,,0,198,198,74,1,0.169,,
,,,,,,,,,,,,,,,,,,999,2020-11-26_13h29.33.962,lexical_decision_task_MP_exp2,2020.2.5,Win32,60,m,0,,,,,,,,0.149,0,,,,,,408,NW,UN,33,flumni,HURNIA,z,,,,,,0.296375267,-0.320895522,0,0,0,,0,199,199,407,1,0.149,,
,,,,,,,,,,,,,,,,,,999,2020-11-26_13h29.33.962,lexical_decision_task_MP_exp2,2020.2.5,Win32,60,m,1,,,,,,,,0.4,1,,,,,,95,WORD,"ID",16,thread,THREAD,m,,,,,,0.296375267,-0.320895522,0,0,0,,0,200,200,94,1,0.4,,
,,,,,,,,,,,,,,,,,,999,2020-11-26_13h29.33.962,lexical_decision_task_MP_exp2,2020.2.5,Win32,60,m,1,,,,,,,,0.284,1,,,,,,162,WORD,UN,33,string,CANDLE,m,,,,,,0.296375267,-0.320895522,0,0,0,,0,201,201,161,1,0.284,,
,,,,,,,,,,,,,,,,,,999,2020-11-26_13h29.33.962,lexical_decision_task_MP_exp2,2020.2.5,Win32,60,m,1,,,,,,,,0.584,1,,,,,,77,WORD,"ID",16,racket,RACKET,m,,,,,,0.296375267,-0.320895522,0,0,0,,0,202,202,76,1,0.584,,
,,,,,,,,,,,,,,,,,,999,2020-11-26_13h29.33.962,lexical_decision_task_MP_exp2,2020.2.5,Win32,60,m,1,,,,,,,,0.2,1,,,,,,198,WORD,UN,16,invoke,WICKED,m,,,,,,0.296375267,-0.320895522,0,0,0,,0,203,203,197,1,0.2,,
,,,,,,,,,,,,,,,,,,999,2020-11-26_13h29.33.962,lexical_decision_task_MP_exp2,2020.2.5,Win32,60,m,0,,,,,,,,0.122,0,,,,,,396,NW,UN,33,camble,FLENGY,z,,,,,,0.296375267,-0.320895522,0,0,0,,0,204,204,395,1,0.122,,
,,,,,,,,,,,,,,,,,,999,2020-11-26_13h29.33.962,lexical_decision_task_MP_exp2,2020.2.5,Win32,60,m,0,,,,,,,,0.066,0,,,,,,268,NW,"ID",33,packes,PACKES,z,,,,,,0.296375267,-0.320895522,0,0,0,,0,205,205,267,1,0.066,,
,,,,,,,,,,,,,,,,,,999,2020-11-26_13h29.33.962,lexical_decision_task_MP_exp2,2020.2.5,Win32,60,m,0,,,,,,,,0.064,0,,,,,,300,NW,"ID",33,yarion,YARION,z,,,,,,0.296375267,-0.320895522,0,0,0,,0,206,206,299,1,0.064,,
,,,,,,,,,,,,,,,,,,999,2020-11-26_13h29.33.962,lexical_decision_task_MP_exp2,2020.2.5,Win32,60,m,0,,,,,,,,0.033,0,,,,,,405,NW,UN,33,nouply,FLUMNI,z,,,,,,0.296375267,-0.320895522,0,0,0,,0,207,207,404,1,0.033,,
,,,,,,,,,,,,,,,,,,999,2020-11-26_13h29.33.962,lexical_decision_task_MP_exp2,2020.2.5,Win32,60,m,0,,,,,,,,0.015,0,,,,,,460,NW,UN,16,justre,MINGAR,z,,,,,,0.296375267,-0.320895522,0,0,0,,0,208,208,459,1,0.015,,
,,,,,,,,,,,,,,,,,,999,2020-11-26_13h29.33.962,lexical_decision_task_MP_exp2,2020.2.5,Win32,60,m,0,,,,,,,,0.01,0,,,,,,316,NW,"ID",16,scregm,SCREGM,z,,,,,,0.296375267,-0.320895522,0,0,0,,0,209,209,315,1,0.01,,
,,,,,,,,,,,,,,,,,,999,2020-11-26_13h29.33.962,lexical_decision_task_MP_exp2,2020.2.5,Win32,60,m,0,,,,,,,,0.01,0,,,,,,445,NW,UN,16,runamo,MINKEL,z,,,,,,0.296375267,-0.320895522,0,0,0,,0,210,210,444,1,0.01,,
,,,,,,,,,,,,,,,,,,999,2020-11-26_13h29.33.962,lexical_decision_task_MP_exp2,2020.2.5,Win32,60,m,1,,,,,,,,0.083,1,,,,,,239,WORD,UN,16,forest,LUMBER,m,,,,,,0.296375267,-0.320895522,0,0,0,,0,211,211,238,1,0.083,,
,,,,,,,,,,,,,,,,,,999,2020-11-26_13h29.33.962,lexical_decision_task_MP_exp2,2020.2.5,Win32,60,m,0,,,,,,,,0.174,0,,,,,,294,NW,"ID",33,inhort,INHORT,z,,,,,,0.296375267,-0.320895522,0,0,0,,0,212,212,293,1,0.174,,
,,,,,,,,,,,,,,,,,,999,2020-11-26_13h29.33.962,lexical_decision_task_MP_exp2,2020.2.5,Win32,60,m,1,,,,,,,,0.149,1,,,,,,205,WORD,UN,16,tailor,LOUNGE,m,,,,,,0.296375267,-0.320895522,0,0,0,,0,213,213,204,1,0.149,,
,,,,,,,,,,,,,,,,,,999,2020-11-26_13h29.33.962,lexical_decision_task_MP_exp2,2020.2.5,Win32,60,m,0,,,,,,,,0.184,0,,,,,,276,NW,"ID",33,yarmon,YARMON,z,,,,,,0.296375267,-0.320895522,0,0,0,,0,214,214,275,1,0.184,,
,,,,,,,,,,,,,,,,,,999,2020-11-26_13h29.33.962,lexical_decision_task_MP_exp2,2020.2.5,Win32,60,m,0,,,,,,,,0.123,0,,,,,,332,NW,"ID",16,vangue,VANGUE,z,,,,,,0.296375267,-0.320895522,0,0,0,,0,215,215,331,1,0.123,,
,,,,,,,,,,,,,,,,,,999,2020-11-26_13h29.33.962,lexical_decision_task_MP_exp2,2020.2.5,Win32,60,m,1,,,,,,,,0.257,1,,,,,,216,WORD,UN,16,liquor,BEHALF,m,,,,,,0.296375267,-0.320895522,0,0,0,,0,216,216,215,1,0.257,,
,,,,,,,,,,,,,,,,,,999,2020-11-26_13h29.33.962,lexical_decision_task_MP_exp2,2020.2.5,Win32,60,m,1,,,,,,,,0.117,1,,,,,,108,WORD,"ID",16,reckon,RECKON,m,,,,,,0.296375267,-0.320895522,0,0,0,,0,217,217,107,1,0.117,,
,,,,,,,,,,,,,,,,,,999,2020-11-26_13h29.33.962,lexical_decision_task_MP_exp2,2020.2.5,Win32,60,m,0,,,,,,,,0.1,0,,,,,,304,NW,"ID",16,cludie,CLUDIE,z,,,,,,0.296375267,-0.320895522,0,0,0,,0,218,218,303,1,0.1,,
,,,,,,,,,,,,,,,,,,999,2020-11-26_13h29.33.962,lexical_decision_task_MP_exp2,2020.2.5,Win32,60,m,0,,,,,,,,0.107,0,,,,,,253,NW,"ID",33,resait,RESAIT,z,,,,,,0.296375267,-0.320895522,0,0,0,,0,219,219,252,1,0.107,,
,,,,,,,,,,,,,,,,,,999,2020-11-26_13h29.33.962,lexical_decision_task_MP_exp2,2020.2.5,Win32,60,z,1,,,,,,,,0.111,1,,,,,,297,NW,"ID",33,fertic,FERTIC,z,,,,,,0.296375267,-0.320895522,0,0,0,,0,220,220,296,1,0.111,,
,,,,,,,,,,,,,,,,,,999,2020-11-26_13h29.33.962,lexical_decision_task_MP_exp2,2020.2.5,Win32,60,z,0,,,,,,,,0.11,0,,,,,,149,WORD,UN,33,random,INVADE,m,,,,,,0.296375267,-0.320895522,0,0,0,,0,221,221,148,1,0.11,,
,,,,,,,,,,,,,,,,,,999,2020-11-26_13h29.33.962,lexical_decision_task_MP_exp2,2020.2.5,Win32,60,z,1,,,,,,,,0.05,1,,,,,,378,NW,UN,33,auting,SHRILE,z,,,,,,0.296375267,-0.320895522,0,0,0,,0,222,222,377,1,0.05,,
,,,,,,,,,,,,,,,,,,999,2020-11-26_13h29.33.962,lexical_decision_task_MP_exp2,2020.2.5,Win32,60,z,1,,,,,,,,0.007,1,,,,,,315,NW,"ID",16,laston,LASTON,z,,,,,,0.296375267,-0.320895522,0,0,0,,0,223,223,314,1,0.007,,
,,,,,,,,,,,,,,,,,,999,2020-11-26_13h29.33.962,lexical_decision_task_MP_exp2,2020.2.5,Win32,60,z,1,,,,,,,,0.084,1,,,,,,448,NW,UN,16,brunge,SADENT,z,,,,,,0.296375267,-0.320895522,0,0,0,,0,224,224,447,1,0.084,,
,,,,,,,,,,,,,,,,,,999,2020-11-26_13h29.33.962,lexical_decision_task_MP_exp2,2020.2.5,Win32,60,z,0,,,,,,,,0.039,0,,,,,,94,WORD,"ID",16,travel,TRAVEL,m,,,,,,0.296375267,-0.320895522,0,0,0,,0,225,225,93,1,0.039,,
,,,,,,,,,,,,,,,,,,999,2020-11-26_13h29.33.962,lexical_decision_task_MP_exp2,2020.2.5,Win32,60,z,0,,,,,,,,0.132,0,,,,,,215,WORD,UN,16,behalf,PHOBIA,m,,,,,,0.296375267,-0.320895522,0,0,0,,0,226,226,214,1,0.132,,
,,,,,,,,,,,,,,,,,,999,2020-11-26_13h29.33.962,lexical_decision_task_MP_exp2,2020.2.5,Win32,60,m,1,,,,,,,,0.093,1,,,,,,127,WORD,UN,33,senior,CASTLE,m,,,,,,0.296375267,-0.320895522,0,0,0,,0,227,227,126,1,0.093,,
,,,,,,,,,,,,,,,,,,999,2020-11-26_13h29.33.962,lexical_decision_task_MP_exp2,2020.2.5,Win32,60,m,1,,,,,,,,0.467,1,,,,,,124,WORD,UN,33,nickel,BLOUSE,m,,,,,,0.296375267,-0.320895522,0,0,0,,0,228,228,123,1,0.467,,
,,,,,,,,,,,,,,,,,,999,2020-11-26_13h29.33.962,lexical_decision_task_MP_exp2,2020.2.5,Win32,60,m,1,,,,,,,,0.457,1,,,,,,15,WORD,"ID",33,amount,AMOUNT,m,,,,,,0.296375267,-0.320895522,0,0,0,,0,229,229,14,1,0.457,,
,,,,,,,,,,,,,,,,,,999,2020-11-26_13h29.33.962,lexical_decision_task_MP_exp2,2020.2.5,Win32,60,m,0,,,,,,,,0.199,0,,,,,,379,NW,UN,33,cavory,AUTING,z,,,,,,0.296375267,-0.320895522,0,0,0,,0,230,230,378,1,0.199,,
,,,,,,,,,,,,,,,,,,999,2020-11-26_13h29.33.962,lexical_decision_task_MP_exp2,2020.2.5,Win32,60,m,0,,,,,,,,0.015,0,,,,,,399,NW,UN,33,wearox,FOURET,z,,,,,,0.296375267,-0.320895522,0,0,0,,0,231,231,398,1,0.015,,
,,,,,,,,,,,,,,,,,,999,2020-11-26_13h29.33.962,lexical_decision_task_MP_exp2,2020.2.5,Win32,60,m,1,,,,,,,,0.007,1,,,,,,140,WORD,UN,33,reason,PRINCE,m,,,,,,0.296375267,-0.320895522,0,0,0,,0,232,232,139,1,0.007,,
,,,,,,,,,,,,,,,,,,999,2020-11-26_13h29.33.962,lexical_decision_task_MP_exp2,2020.2.5,Win32,60,m,1,,,,,,,,0.067,1,,,,,,3,WORD,"ID",33,knight,KNIGHT,m,,,,,,0.296375267,-0.320895522,0,0,0,,0,233,233,2,1,0.067,,
,,,,,,,,,,,,,,,,,,999,2020-11-26_13h29.33.962,lexical_decision_task_MP_exp2,2020.2.5,Win32,60,m,1,,,,,,,,0.035,1,,,,,,50,WORD,"ID",33,snatch,SNATCH,m,,,,,,0.296375267,-0.320895522,0,0,0,,0,234,234,49,1,0.035,,
,,,,,,,,,,,,,,,,,,999,2020-11-26_13h29.33.962,lexical_decision_task_MP_exp2,2020.2.5,Win32,60,m,1,,,,,,,,0.018,1,,,,,,117,WORD,"ID",16,branch,BRANCH,m,,,,,,0.296375267,-0.320895522,0,0,0,,0,235,235,116,1,0.018,,
,,,,,,,,,,,,,,,,,,999,2020-11-26_13h29.33.962,lexical_decision_task_MP_exp2,2020.2.5,Win32,60,m,1,,,,,,,,0.005,1,,,,,,208,WORD,UN,16,search,HOCKEY,m,,,,,,0.296375267,-0.320895522,0,0,0,,0,236,236,207,1,0.005,,
,,,,,,,,,,,,,,,,,,999,2020-11-26_13h29.33.962,lexical_decision_task_MP_exp2,2020.2.5,Win32,60,m,0,,,,,,,,0.085,0,,,,,,328,NW,"ID",16,broake,BROAKE,z,,,,,,0.296375267,-0.320895522,0,0,0,,0,237,237,327,1,0.085,,
,,,,,,,,,,,,,,,,,,999,2020-11-26_13h29.33.962,lexical_decision_task_MP_exp2,2020.2.5,Win32,60,m,1,,,,,,,,0.005,1,,,,,,114,WORD,"ID",16,placid,PLACID,m,,,,,,0.296375267,-0.320895522,0,0,0,,0,238,238,113,1,0.005,,
,,,,,,,,,,,,,,,,,,999,2020-11-26_13h29.33.962,lexical_decision_task_MP_exp2,2020.2.5,Win32,60,m,1,,,,,,,,0.056,1,,,,,,102,WORD,"ID",16,direct,DIRECT,m,,,,,,0.296375267,-0.320895522,0,0,0,,0,239,239,101,1,0.056,,
,,,,,,,,,,,,,,,,,,999,2020-11-26_13h29.33.962,lexical_decision_task_MP_exp2,2020.2.5,Win32,60,z,0,,,,,,,,0.193,0,,,,,,82,WORD,"ID",16,stigma,STIGMA,m,,,,,,0.296375267,-0.320895522,0,0,0,,0,240,240,81,1,0.193,,
,,,,,,,,,,,,,,,,,,999,2020-11-26_13h29.33.962,lexical_decision_task_MP_exp2,2020.2.5,Win32,60,z,0,,,,,,,,0.037,0,,,,,,45,WORD,"ID",33,clergy,CLERGY,m,,,,,,0.296375267,-0.320895522,0,0,0,space,0,241,241,44,1,0.037,1.256,
,,,,,,,,,,,,,,,,,,999,2020-11-26_13h29.33.962,lexical_decision_task_MP_exp2,2020.2.5,Win32,60,m,1,,,,,,,,1.099,1,,,,,,97,WORD,"ID",16,client,CLIENT,m,,,,,,0.296375267,-0.320895522,0,0,0,,0,242,242,96,1,1.099,,
,,,,,,,,,,,,,,,,,,999,2020-11-26_13h29.33.962,lexical_decision_task_MP_exp2,2020.2.5,Win32,60,m,0,,,,,,,,0.135,0,,,,,,269,NW,"ID",33,orchet,ORCHET,z,,,,,,0.296375267,-0.320895522,0,0,0,,0,243,243,268,1,0.135,,
,,,,,,,,,,,,,,,,,,999,2020-11-26_13h29.33.962,lexical_decision_task_MP_exp2,2020.2.5,Win32,60,z,0,,,,,,,,0.015,0,,,,,,186,WORD,UN,16,course,PORTAL,m,,,,,,0.296375267,-0.320895522,0,0,0,,0,244,244,185,1,0.015,,
,,,,,,,,,,,,,,,,,,999,2020-11-26_13h29.33.962,lexical_decision_task_MP_exp2,2020.2.5,Win32,60,z,1,,,,,,,,0.117,1,,,,,,355,NW,"ID",16,zingly,ZINGLY,z,,,,,,0.296375267,-0.320895522,0,0,0,,0,245,245,354,1,0.117,,
,,,,,,,,,,,,,,,,,,999,2020-11-26_13h29.33.962,lexical_decision_task_MP_exp2,2020.2.5,Win32,60,z,0,,,,,,,,0.068,0,,,,,,120,WORD,"ID",16,strain,STRAIN,m,,,,,,0.296375267,-0.320895522,0,0,0,,0,246,246,119,1,0.068,,
,,,,,,,,,,,,,,,,,,999,2020-11-26_13h29.33.962,lexical_decision_task_MP_exp2,2020.2.5,Win32,60,m,1,,,,,,,,0.453,1,,,,,,6,WORD,"ID",33,bundle,BUNDLE,m,,,,,,0.296375267,-0.320895522,0,0,0,,0,247,247,5,1,0.453,,
,,,,,,,,,,,,,,,,,,999,2020-11-26_13h29.33.962,lexical_decision_task_MP_exp2,2020.2.5,Win32,60,m,0,,,,,,,,0.617,0,,,,,,452,NW,UN,16,bolvis,SURDEN,z,,,,,,0.296375267,-0.320895522,0,0,0,,0,248,248,451,1,0.617,,
,,,,,,,,,,,,,,,,,,999,2020-11-26_13h29.33.962,lexical_decision_task_MP_exp2,2020.2.5,Win32,60,m,1,,,,,,,,0.716,1,,,,,,145,WORD,UN,33,couple,PARISH,m,,,,,,0.296375267,-0.320895522,0,0,0,,0,249,249,144,1,0.716,,
,,,,,,,,,,,,,,,,,,999,2020-11-26_13h29.33.962,lexical_decision_task_MP_exp2,2020.2.5,Win32,60,m,0,,,,,,,,0.221,0,,,,,,444,NW,UN,16,minkel,JAUNCE,z,,,,,,0.296375267,-0.320895522,0,0,0,,0,250,250,443,1,0.221,,
,,,,,,,,,,,,,,,,,,999,2020-11-26_13h29.33.962,lexical_decision_task_MP_exp2,2020.2.5,Win32,60,m,0,,,,,,,,0.1,0,,,,,,423,NW,UN,16,praile,STRELD,z,,,,,,0.296375267,-0.320895522,0,0,0,,0,251,251,422,1,0.1,,
,,,,,,,,,,,,,,,,,,999,2020-11-26_13h29.33.962,lexical_decision_task_MP_exp2,2020.2.5,Win32,60,m,0,,,,,,,,0.085,0,,,,,,255,NW,"ID",33,apight,APIGHT,z,,,,,,0.296375267,-0.320895522,0,0,0,,0,252,252,254,1,0.085,,
,,,,,,,,,,,,,,,,,,999,2020-11-26_13h29.33.962,lexical_decision_task_MP_exp2,2020.2.5,Win32,60,m,1,,,,,,,,0.177,1,,,,,,89,WORD,"ID",16,permit,PERMIT,m,,,,,,0.296375267,-0.320895522,0,0,0,,0,253,253,88,1,0.177,,
,,,,,,,,,,,,,,,,,,999,2020-11-26_13h29.33.962,lexical_decision_task_MP_exp2,2020.2.5,Win32,60,m,0,,,,,,,,0.635,0,,,,,,305,NW,"ID",16,forgle,FORGLE,z,,,,,,0.296375267,-0.320895522,0,0,0,,0,254,254,304,1,0.635,,
,,,,,,,,,,,,,,,,,,999,2020-11-26_13h29.33.962,lexical_decision_task_MP_exp2,2020.2.5,Win32,60,m,1,,,,,,,,1.141,1,,,,,,238,WORD,UN,16,grumpy,FLOWER,m,,,,,,0.296375267,-0.320895522,0,0,0,,0,255,255,237,1,1.141,,
,,,,,,,,,,,,,,,,,,999,2020-11-26_13h29.33.962,lexical_decision_task_MP_exp2,2020.2.5,Win32,60,z,0,,,,,,,,0.488,0,,,,,,92,WORD,"ID",16,strand,STRAND,m,,,,,,0.296375267,-0.320895522,0,0,0,,0,256,256,91,1,0.488,,
,,,,,,,,,,,,,,,,,,999,2020-11-26_13h29.33.962,lexical_decision_task_MP_exp2,2020.2.5,Win32,60,m,1,,,,,,,,1.916,1,,,,,,202,WORD,UN,16,phrase,FACTOR,m,,,,,,0.296375267,-0.320895522,0,0,0,,0,257,257,201,1,1.916,,
,,,,,,,,,,,,,,,,,,999,2020-11-26_13h29.33.962,lexical_decision_task_MP_exp2,2020.2.5,Win32,60,z,0,,,,,,,,0.286,0,,,,,,71,WORD,"ID",16,garden,GARDEN,m,,,,,,0.296375267,-0.320895522,0,0,0,,0,258,258,70,1,0.286,,
,,,,,,,,,,,,,,,,,,999,2020-11-26_13h29.33.962,lexical_decision_task_MP_exp2,2020.2.5,Win32,60,z,0,,,,,,,,0.225,0,,,,,,119,WORD,"ID",16,spider,SPIDER,m,,,,,,0.296375267,-0.320895522,0,0,0,,0,259,259,118,1,0.225,,
,,,,,,,,,,,,,,,,,,999,2020-11-26_13h29.33.962,lexical_decision_task_MP_exp2,2020.2.5,Win32,60,,0,,,,,,,,0.225,-1,,,,,,41,WORD,"ID",33,spring,SPRING,m,,,,,,0.296375267,-0.320895522,0,0,0,,0,260,260,40,1,,,
,,,,,,,,,,,,,,,,,,999,2020-11-26_13h29.33.962,lexical_decision_task_MP_exp2,2020.2.5,Win32,60,,0,,,,,,,,0.225,-1,,,,,,462,NW,UN,16,kispel,ABSULT,z,,,,,,0.296375267,-0.320895522,0,0,0,,0,261,261,461,1,,,
,,,,,,,,,,,,,,,,,,999,2020-11-26_13h29.33.962,lexical_decision_task_MP_exp2,2020.2.5,Win32,60,z,1,,,,,,,,0.267,1,,,,,,267,NW,"ID",33,pasink,PASINK,z,,,,,,0.296375267,-0.320895522,0,0,0,,0,262,262,266,1,0.267,,
,,,,,,,,,,,,,,,,,,999,2020-11-26_13h29.33.962,lexical_decision_task_MP_exp2,2020.2.5,Win32,60,,0,,,,,,,,0.267,-1,,,,,,54,WORD,"ID",33,ramble,RAMBLE,m,,,,,,0.296375267,-0.320895522,0,0,0,,0,263,263,53,1,,,
,,,,,,,,,,,,,,,,,,999,2020-11-26_13h29.33.962,lexical_decision_task_MP_exp2,2020.2.5,Win32,60,m,1,,,,,,,,0.539,1,,,,,,210,WORD,UN,16,infect,MONKEY,m,,,,,,0.296375267,-0.320895522,0,0,0,,0,264,264,209,1,0.539,,
,,,,,,,,,,,,,,,,,,999,2020-11-26_13h29.33.962,lexical_decision_task_MP_exp2,2020.2.5,Win32,60,m,1,,,,,,,,0.018,1,,,,,,143,WORD,UN,33,sponge,REASON,m,,,,,,0.296375267,-0.320895522,0,0,0,,0,265,265,142,1,0.018,,
,,,,,,,,,,,,,,,,,,999,2020-11-26_13h29.33.962,lexical_decision_task_MP_exp2,2020.2.5,Win32,60,m,0,,,,,,,,0.422,0,,,,,,284,NW,"ID",33,shaple,SHAPLE,z,,,,,,0.296375267,-0.320895522,0,0,0,,0,266,266,283,1,0.422,,
,,,,,,,,,,,,,,,,,,999,2020-11-26_13h29.33.962,lexical_decision_task_MP_exp2,2020.2.5,Win32,60,m,1,,,,,,,,0.09,1,,,,,,217,WORD,UN,16,shrink,LIQUOR,m,,,,,,0.296375267,-0.320895522,0,0,0,,0,267,267,216,1,0.09,,
,,,,,,,,,,,,,,,,,,999,2020-11-26_13h29.33.962,lexical_decision_task_MP_exp2,2020.2.5,Win32,60,m,0,,,,,,,,0.123,0,,,,,,443,NW,UN,16,jaunce,DORSEX,z,,,,,,0.296375267,-0.320895522,0,0,0,,0,268,268,442,1,0.123,,
,,,,,,,,,,,,,,,,,,999,2020-11-26_13h29.33.962,lexical_decision_task_MP_exp2,2020.2.5,Win32,60,m,0,,,,,,,,0.133,0,,,,,,398,NW,UN,33,fouret,BLUNDE,z,,,,,,0.296375267,-0.320895522,0,0,0,,0,269,269,397,1,0.133,,
,,,,,,,,,,,,,,,,,,999,2020-11-26_13h29.33.962,lexical_decision_task_MP_exp2,2020.2.5,Win32,60,m,0,,,,,,,,0.201,0,,,,,,456,NW,UN,16,wanigh,BROGET,z,,,,,,0.296375267,-0.320895522,0,0,0,,0,270,270,455,1,0.201,,
,,,,,,,,,,,,,,,,,,999,2020-11-26_13h29.33.962,lexical_decision_task_MP_exp2,2020.2.5,Win32,60,m,1,,,,,,,,0.002,1,,,,,,167,WORD,UN,33,answer,DESIGN,m,,,,,,0.296375267,-0.320895522,0,0,0,,0,271,271,166,1,0.002,,
,,,,,,,,,,,,,,,,,,999,2020-11-26_13h29.33.962,lexical_decision_task_MP_exp2,2020.2.5,Win32,60,z,0,,,,,,,,0.459,0,,,,,,24,WORD,"ID",33,praise,PRAISE,m,,,,,,0.296375267,-0.320895522,0,0,0,,0,272,272,23,1,0.459,,
,,,,,,,,,,,,,,,,,,999,2020-11-26_13h29.33.962,lexical_decision_task_MP_exp2,2020.2.5,Win32,60,z,0,,,,,,,,0.142,0,,,,,,219,WORD,UN,16,voyage,BUCKET,m,,,,,,0.296375267,-0.320895522,0,0,0,,0,273,273,218,1,0.142,,
,,,,,,,,,,,,,,,,,,999,2020-11-26_13h29.33.962,lexical_decision_task_MP_exp2,2020.2.5,Win32,60,,0,,,,,,,,0.142,-1,,,,,,270,NW,"ID",33,wrimsy,WRIMSY,z,,,,,,0.296375267,-0.320895522,0,0,0,,0,274,274,269,1,,,
,,,,,,,,,,,,,,,,,,999,2020-11-26_13h29.33.962,lexical_decision_task_MP_exp2,2020.2.5,Win32,60,,0,,,,,,,,0.142,-1,,,,,,141,WORD,UN,33,spruce,ORPHAN,m,,,,,,0.296375267,-0.320895522,0,0,0,,0,275,275,140,1,,,
,,,,,,,,,,,,,,,,,,999,2020-11-26_13h29.33.962,lexical_decision_task_MP_exp2,2020.2.5,Win32,60,,0,,,,,,,,0.142,-1,,,,,,277,NW,"ID",33,petain,PETAIN,z,,,,,,0.296375267,-0.320895522,0,0,0,,0,276,276,276,1,,,
,,,,,,,,,,,,,,,,,,999,2020-11-26_13h29.33.962,lexical_decision_task_MP_exp2,2020.2.5,Win32,60,,0,,,,,,,,0.142,-1,,,,,,212,WORD,UN,16,squeal,VERIFY,m,,,,,,0.296375267,-0.320895522,0,0,0,,0,277,277,211,1,,,
,,,,,,,,,,,,,,,,,,999,2020-11-26_13h29.33.962,lexical_decision_task_MP_exp2,2020.2.5,Win32,60,,0,,,,,,,,0.142,-1,,,,,,475,NW,UN,16,robuly,PEBRIC,z,,,,,,0.296375267,-0.320895522,0,0,0,,0,278,278,474,1,,,
,,,,,,,,,,,,,,,,,,999,2020-11-26_13h29.33.962,lexical_decision_task_MP_exp2,2020.2.5,Win32,60,,0,,,,,,,,0.142,-1,,,,,,453,NW,UN,16,scouge,BOLVIS,z,,,,,,0.296375267,-0.320895522,0,0,0,,0,279,279,452,1,,,
,,,,,,,,,,,,,,,,,,999,2020-11-26_13h29.33.962,lexical_decision_task_MP_exp2,2020.2.5,Win32,60,,0,,,,,,,,0.142,-1,,,,,,459,NW,UN,16,mingar,BAFENT,z,,,,,,0.296375267,-0.320895522,0,0,0,,0,280,280,458,1,,,
,,,,,,,,,,,,,,,,,,999,2020-11-26_13h29.33.962,lexical_decision_task_MP_exp2,2020.2.5,Win32,60,,0,,,,,,,,0.142,-1,,,,,,274,NW,"ID",33,fumblo,FUMBLO,z,,,,,,0.296375267,-0.320895522,0,0,0,,0,281,281,273,1,,,
,,,,,,,,,,,,,,,,,,999,2020-11-26_13h29.33.962,lexical_decision_task_MP_exp2,2020.2.5,Win32,60,,0,,,,,,,,0.142,-1,,,,,,165,WORD,UN,33,starch,INVEST,m,,,,,,0.296375267,-0.320895522,0,0,0,,0,282,282,164,1,,,
,,,,,,,,,,,,,,,,,,999,2020-11-26_13h29.33.962,lexical_decision_task_MP_exp2,2020.2.5,Win32,60,,0,,,,,,,,0.142,-1,,,,,,146,WORD,UN,33,garlic,COUPLE,m,,,,,,0.296375267,-0.320895522,0,0,0,,0,283,283,145,1,,,
,,,,,,,,,,,,,,,,,,999,2020-11-26_13h29.33.962,lexical_decision_task_MP_exp2,2020.2.5,Win32,60,,0,,,,,,,,0.142,-1,,,,,,311,NW,"ID",16,sproly,SPROLY,z,,,,,,0.296375267,-0.320895522,0,0,0,,0,284,284,310,1,,,
,,,,,,,,,,,,,,,,,,999,2020-11-26_13h29.33.962,lexical_decision_task_MP_exp2,2020.2.5,Win32,60,,0,,,,,,,,0.142,-1,,,,,,370,NW,UN,33,geiloy,SLEACT,z,,,,,,0.296375267,-0.320895522,0,0,0,,0,285,285,369,1,,,
,,,,,,,,,,,,,,,,,,999,2020-11-26_13h29.33.962,lexical_decision_task_MP_exp2,2020.2.5,Win32,60,,0,,,,,,,,0.142,-1,,,,,,352,NW,"ID",16,tringe,TRINGE,z,,,,,,0.296375267,-0.320895522,0,0,0,,0,286,286,351,1,,,
,,,,,,,,,,,,,,,,,,999,2020-11-26_13h29.33.962,lexical_decision_task_MP_exp2,2020.2.5,Win32,60,,0,,,,,,,,0.142,-1,,,,,,329,NW,"ID",16,yarike,YARIKE,z,,,,,,0.296375267,-0.320895522,0,0,0,,0,287,287,328,1,,,
,,,,,,,,,,,,,,,,,,999,2020-11-26_13h29.33.962,lexical_decision_task_MP_exp2,2020.2.5,Win32,60,,0,,,,,,,,0.142,-1,,,,,,170,WORD,UN,33,depart,POUNCE,m,,,,,,0.296375267,-0.320895522,0,0,0,,0,288,288,169,1,,,
,,,,,,,,,,,,,,,,,,999,2020-11-26_13h29.33.962,lexical_decision_task_MP_exp2,2020.2.5,Win32,60,,0,,,,,,,,0.142,-1,,,,,,381,NW,UN,33,sarley,HUNIEK,z,,,,,,0.296375267,-0.320895522,0,0,0,,0,289,289,380,1,,,
,,,,,,,,,,,,,,,,,,999,2020-11-26_13h29.33.962,lexical_decision_task_MP_exp2,2020.2.5,Win32,60,,0,,,,,,,,0.142,-1,,,,,,234,WORD,UN,16,lumber,CLUMSY,m,,,,,,0.296375267,-0.320895522,0,0,0,,0,290,290,233,1,,,
,,,,,,,,,,,,,,,,,,999,2020-11-26_13h29.33.962,lexical_decision_task_MP_exp2,2020.2.5,Win32,60,,0,,,,,,,,0.142,-1,,,,,,42,WORD,"ID",33,chapel,CHAPEL,m,,,,,,0.296375267,-0.320895522,0,0,0,,0,291,291,41,1,,,
,,,,,,,,,,,,,,,,,,999,2020-11-26_13h29.33.962,lexical_decision_task_MP_exp2,2020.2.5,Win32,60,,0,,,,,,,,0.142,-1,,,,,,341,NW,"ID",16,myrtie,MYRTIE,z,,,,,,0.296375267,-0.320895522,0,0,0,,0,292,292,340,1,,,
,,,,,,,,,,,,,,,,,,999,2020-11-26_13h29.33.962,lexical_decision_task_MP_exp2,2020.2.5,Win32,60,,0,,,,,,,,0.142,-1,,,,,,115,WORD,"ID",16,guitar,GUITAR,m,,,,,,0.296375267,-0.320895522,0,0,0,,0,293,293,114,1,,,
,,,,,,,,,,,,,,,,,,999,2020-11-26_13h29.33.962,lexical_decision_task_MP_exp2,2020.2.5,Win32,60,,0,,,,,,,,0.142,-1,,,,,,439,NW,UN,16,saride,LIMPOR,z,,,,,,0.296375267,-0.320895522,0,0,0,,0,294,294,438,1,,,
,,,,,,,,,,,,,,,,,,999,2020-11-26_13h29.33.962,lexical_decision_task_MP_exp2,2020.2.5,Win32,60,,0,,,,,,,,0.142,-1,,,,,,182,WORD,UN,16,basket,WINTER,m,,,,,,0.296375267,-0.320895522,0,0,0,,0,295,295,181,1,,,
,,,,,,,,,,,,,,,,,,999,2020-11-26_13h29.33.962,lexical_decision_task_MP_exp2,2020.2.5,Win32,60,,0,,,,,,,,0.142,-1,,,,,,221,WORD,UN,16,hinder,MASCOT,m,,,,,,0.296375267,-0.320895522,0,0,0,,0,296,296,220,1,,,
,,,,,,,,,,,,,,,,,,999,2020-11-26_13h29.33.962,lexical_decision_task_MP_exp2,2020.2.5,Win32,60,,0,,,,,,,,0.142,-1,,,,,,432,NW,UN,16,drance,LUNKER,z,,,,,,0.296375267,-0.320895522,0,0,0,,0,297,297,431,1,,,
,,,,,,,,,,,,,,,,,,999,2020-11-26_13h29.33.962,lexical_decision_task_MP_exp2,2020.2.5,Win32,60,,0,,,,,,,,0.142,-1,,,,,,279,NW,"ID",33,celond,CELOND,z,,,,,,0.296375267,-0.320895522,0,0,0,,0,298,298,278,1,,,
,,,,,,,,,,,,,,,,,,999,2020-11-26_13h29.33.962,lexical_decision_task_MP_exp2,2020.2.5,Win32,60,,0,,,,,,,,0.142,-1,,,,,,85,WORD,"ID",16,sprawl,SPRAWL,m,,,,,,0.296375267,-0.320895522,0,0,0,,0,299,299,84,1,,,
,,,,,,,,,,,,,,,,,,999,2020-11-26_13h29.33.962,lexical_decision_task_MP_exp2,2020.2.5,Win32,60,,0,,,,,,,,0.142,-1,,,,,,392,NW,UN,33,ganous,ROUNCY,z,,,,,,0.296375267,-0.320895522,0,0,0,,0,300,300,391,1,,,
,,,,,,,,,,,,,,,,,,999,2020-11-26_13h29.33.962,lexical_decision_task_MP_exp2,2020.2.5,Win32,60,,0,,,,,,,,0.142,-1,,,,,,91,WORD,"ID",16,expand,EXPAND,m,,,,,,0.296375267,-0.320895522,0,0,0,,0,301,301,90,1,,,
,,,,,,,,,,,,,,,,,,999,2020-11-26_13h29.33.962,lexical_decision_task_MP_exp2,2020.2.5,Win32,60,,0,,,,,,,,0.142,-1,,,,,,74,WORD,"ID",16,plaque,PLAQUE,m,,,,,,0.296375267,-0.320895522,0,0,0,,0,302,302,73,1,,,
,,,,,,,,,,,,,,,,,,999,2020-11-26_13h29.33.962,lexical_decision_task_MP_exp2,2020.2.5,Win32,60,,0,,,,,,,,0.142,-1,,,,,,415,NW,UN,33,pathel,HIGSTA,z,,,,,,0.296375267,-0.320895522,0,0,0,,0,303,303,414,1,,,
,,,,,,,,,,,,,,,,,,999,2020-11-26_13h29.33.962,lexical_decision_task_MP_exp2,2020.2.5,Win32,60,,0,,,,,,,,0.142,-1,,,,,,350,NW,"ID",16,nagurs,NAGURS,z,,,,,,0.296375267,-0.320895522,0,0,0,,0,304,304,349,1,,,
,,,,,,,,,,,,,,,,,,999,2020-11-26_13h29.33.962,lexical_decision_task_MP_exp2,2020.2.5,Win32,60,,0,,,,,,,,0.142,-1,,,,,,48,WORD,"ID",33,walnut,WALNUT,m,,,,,,0.296375267,-0.320895522,0,0,0,,0,305,305,47,1,,,
,,,,,,,,,,,,,,,,,,999,2020-11-26_13h29.33.962,lexical_decision_task_MP_exp2,2020.2.5,Win32,60,,0,,,,,,,,0.142,-1,,,,,,337,NW,"ID",16,rejols,REJOLS,z,,,,,,0.296375267,-0.320895522,0,0,0,,0,306,306,336,1,,,
,,,,,,,,,,,,,,,,,,999,2020-11-26_13h29.33.962,lexical_decision_task_MP_exp2,2020.2.5,Win32,60,,0,,,,,,,,0.142,-1,,,,,,345,NW,"ID",16,absend,ABSEND,z,,,,,,0.296375267,-0.320895522,0,0,0,,0,307,307,344,1,,,
,,,,,,,,,,,,,,,,,,999,2020-11-26_13h29.33.962,lexical_decision_task_MP_exp2,2020.2.5,Win32,60,,0,,,,,,,,0.142,-1,,,,,,285,NW,"ID",33,prudge,PRUDGE,z,,,,,,0.296375267,-0.320895522,0,0,0,,0,308,308,284,1,,,
,,,,,,,,,,,,,,,,,,999,2020-11-26_13h29.33.962,lexical_decision_task_MP_exp2,2020.2.5,Win32,60,,0,,,,,,,,0.142,-1,,,,,,59,WORD,"ID",33,splint,SPLINT,m,,,,,,0.296375267,-0.320895522,0,0,0,,0,309,309,58,1,,,
,,,,,,,,,,,,,,,,,,999,2020-11-26_13h29.33.962,lexical_decision_task_MP_exp2,2020.2.5,Win32,60,,0,,,,,,,,0.142,-1,,,,,,207,WORD,UN,16,hockey,WREATH,m,,,,,,0.296375267,-0.320895522,0,0,0,,0,310,310,206,1,,,
,,,,,,,,,,,,,,,,,,999,2020-11-26_13h29.33.962,lexical_decision_task_MP_exp2,2020.2.5,Win32,60,,0,,,,,,,,0.142,-1,,,,,,40,WORD,"ID",33,convey,CONVEY,m,,,,,,0.296375267,-0.320895522,0,0,0,,0,311,311,39,1,,,
,,,,,,,,,,,,,,,,,,999,2020-11-26_13h29.33.962,lexical_decision_task_MP_exp2,2020.2.5,Win32,60,,0,,,,,,,,0.142,-1,,,,,,51,WORD,"ID",33,hungry,HUNGRY,m,,,,,,0.296375267,-0.320895522,0,0,0,,0,312,312,50,1,,,
,,,,,,,,,,,,,,,,,,999,2020-11-26_13h29.33.962,lexical_decision_task_MP_exp2,2020.2.5,Win32,60,,0,,,,,,,,0.142,-1,,,,,,122,WORD,UN,33,strike,LINGER,m,,,,,,0.296375267,-0.320895522,0,0,0,,0,313,313,121,1,,,
,,,,,,,,,,,,,,,,,,999,2020-11-26_13h29.33.962,lexical_decision_task_MP_exp2,2020.2.5,Win32,60,,0,,,,,,,,0.142,-1,,,,,,144,WORD,UN,33,parish,SPONGE,m,,,,,,0.296375267,-0.320895522,0,0,0,,0,314,314,143,1,,,
,,,,,,,,,,,,,,,,,,999,2020-11-26_13h29.33.962,lexical_decision_task_MP_exp2,2020.2.5,Win32,60,,0,,,,,,,,0.142,-1,,,,,,457,NW,UN,16,barcet,WANIGH,z,,,,,,0.296375267,-0.320895522,0,0,0,,0,315,315,456,1,,,
,,,,,,,,,,,,,,,,,,999,2020-11-26_13h29.33.962,lexical_decision_task_MP_exp2,2020.2.5,Win32,60,,0,,,,,,,,0.142,-1,,,,,,321,NW,"ID",16,miator,MIATOR,z,,,,,,0.296375267,-0.320895522,0,0,0,,0,316,316,320,1,,,
,,,,,,,,,,,,,,,,,,999,2020-11-26_13h29.33.962,lexical_decision_task_MP_exp2,2020.2.5,Win32,60,,0,,,,,,,,0.142,-1,,,,,,33,WORD,"ID",33,butler,BUTLER,m,,,,,,0.296375267,-0.320895522,0,0,0,,0,317,317,32,1,,,
,,,,,,,,,,,,,,,,,,999,2020-11-26_13h29.33.962,lexical_decision_task_MP_exp2,2020.2.5,Win32,60,,0,,,,,,,,0.142,-1,,,,,,220,WORD,UN,16,mascot,VOYAGE,m,,,,,,0.296375267,-0.320895522,0,0,0,,0,318,318,219,1,,,
,,,,,,,,,,,,,,,,,,999,2020-11-26_13h29.33.962,lexical_decision_task_MP_exp2,2020.2.5,Win32,60,,0,,,,,,,,0.142,-1,,,,,,55,WORD,"ID",33,stroke,STROKE,m,,,,,,0.296375267,-0.320895522,0,0,0,,0,319,319,54,1,,,
,,,,,,,,,,,,,,,,,,999,2020-11-26_13h29.33.962,lexical_decision_task_MP_exp2,2020.2.5,Win32,60,,0,,,,,,,,0.142,-1,,,,,,395,NW,UN,33,flengy,COLURY,z,,,,,,0.296375267,-0.320895522,0,0,0,,0,320,320,394,1,,,
,,,,,,,,,,,,,,,,,,999,2020-11-26_13h29.33.962,lexical_decision_task_MP_exp2,2020.2.5,Win32,60,,0,,,,,,,,0.142,-1,,,,,,65,WORD,"ID",16,symbol,SYMBOL,m,,,,,,0.296375267,-0.320895522,0,0,0,,0,321,321,64,1,,,
,,,,,,,,,,,,,,,,,,999,2020-11-26_13h29.33.962,lexical_decision_task_MP_exp2,2020.2.5,Win32,60,,0,,,,,,,,0.142,-1,,,,,,245,NW,"ID",33,anougs,ANOUGS,z,,,,,,0.296375267,-0.320895522,0,0,0,,0,322,322,244,1,,,
,,,,,,,,,,,,,,,,,,999,2020-11-26_13h29.33.962,lexical_decision_task_MP_exp2,2020.2.5,Win32,60,,0,,,,,,,,0.142,-1,,,,,,30,WORD,"ID",33,orient,ORIENT,m,,,,,,0.296375267,-0.320895522,0,0,0,,0,323,323,29,1,,,
,,,,,,,,,,,,,,,,,,999,2020-11-26_13h29.33.962,lexical_decision_task_MP_exp2,2020.2.5,Win32,60,,0,,,,,,,,0.142,-1,,,,,,400,NW,UN,33,mustil,WEAROX,z,,,,,,0.296375267,-0.320895522,0,0,0,,0,324,324,399,1,,,
,,,,,,,,,,,,,,,,,,999,2020-11-26_13h29.33.962,lexical_decision_task_MP_exp2,2020.2.5,Win32,60,,0,,,,,,,,0.142,-1,,,,,,385,NW,UN,33,ancust,VEIGMA,z,,,,,,0.296375267,-0.320895522,0,0,0,,0,325,325,384,1,,,
,,,,,,,,,,,,,,,,,,999,2020-11-26_13h29.33.962,lexical_decision_task_MP_exp2,2020.2.5,Win32,60,,0,,,,,,,,0.142,-1,,,,,,388,NW,UN,33,witmer,CRAGIN,z,,,,,,0.296375267,-0.320895522,0,0,0,,0,326,326,387,1,,,
,,,,,,,,,,,,,,,,,,999,2020-11-26_13h29.33.962,lexical_decision_task_MP_exp2,2020.2.5,Win32,60,,0,,,,,,,,0.142,-1,,,,,,403,NW,UN,33,cluirm,BRUATS,z,,,,,,0.296375267,-0.320895522,0,0,0,,0,327,327,402,1,,,
,,,,,,,,,,,,,,,,,,999,2020-11-26_13h29.33.962,lexical_decision_task_MP_exp2,2020.2.5,Win32,60,,0,,,,,,,,0.142,-1,,,,,,298,NW,"ID",33,piergy,PIERGY,z,,,,,,0.296375267,-0.320895522,0,0,0,,0,328,328,297,1,,,
,,,,,,,,,,,,,,,,,,999,2020-11-26_13h29.33.962,lexical_decision_task_MP_exp2,2020.2.5,Win32,60,,0,,,,,,,,0.142,-1,,,,,,404,NW,UN,33,syntic,CLUIRM,z,,,,,,0.296375267,-0.320895522,0,0,0,,0,329,329,403,1,,,
,,,,,,,,,,,,,,,,,,999,2020-11-26_13h29.33.962,lexical_decision_task_MP_exp2,2020.2.5,Win32,60,,0,0.296375267,-0.320895522,1,0,0,1.565,button_right,1.565,0,,,,,,389,NW,UN,33,hatrus,WITMER,z,,,,,,0.296375267,-0.320895522,1,0,0,,0,330,330,388,1,,,
,,,,,,,,,,,,,,,,,,999,2020-11-26_13h29.33.962,lexical_decision_task_MP_exp2,2020.2.5,Win32,60,,0,0.296375267,-0.320895522,1,0,0,0.165,button_right,0.165,0,,,,,,450,NW,UN,16,rastoe,PHRECT,z,,,,,,0.296375267,-0.320895522,1,0,0,,0,331,331,449,1,,,
,,,,,,,,,,,,,,,,,,999,2020-11-26_13h29.33.962,lexical_decision_task_MP_exp2,2020.2.5,Win32,60,,0,0.296375267,-0.320895522,1,0,0,0.082,button_right,0.082,1,,,,,,180,WORD,UN,33,thrive,SILENT,m,,,,,,0.296375267,-0.320895522,1,0,0,,0,332,332,179,1,,,
,,,,,,,,,,,,,,,,,,999,2020-11-26_13h29.33.962,lexical_decision_task_MP_exp2,2020.2.5,Win32,60,,0,0.296375267,-0.320895522,1,0,0,0.032,button_right,0.032,0,,,,,,418,NW,UN,33,slount,SUIDLE,z,,,,,,0.296375267,-0.320895522,1,0,0,,0,333,333,417,1,,,
,,,,,,,,,,,,,,,,,,999,2020-11-26_13h29.33.962,lexical_decision_task_MP_exp2,2020.2.5,Win32,60,,0,0.296375267,-0.320895522,1,0,0,0.165,button_right,0.165,0,,,,,,263,NW,"ID",33,dolica,DOLICA,z,,,,,,0.296375267,-0.320895522,1,0,0,,0,334,334,262,1,,,
,,,,,,,,,,,,,,,,,,999,2020-11-26_13h29.33.962,lexical_decision_task_MP_exp2,2020.2.5,Win32,60,,0,0.296375267,-0.320895522,1,0,0,0.098,button_right,0.098,0,,,,,,421,NW,UN,16,alcoud,KNISMA,z,,,,,,0.296375267,-0.320895522,1,0,0,,0,335,335,420,1,,,
,,,,,,,,,,,,,,,,,,999,2020-11-26_13h29.33.962,lexical_decision_task_MP_exp2,2020.2.5,Win32,60,,0,0.296375267,-0.320895522,1,0,0,0.065,button_right,0.065,1,,,,,,111,WORD,"ID",16,induce,INDUCE,m,,,,,,0.296375267,-0.320895522,1,0,0,,0,336,336,110,1,,,
,,,,,,,,,,,,,,,,,,999,2020-11-26_13h29.33.962,lexical_decision_task_MP_exp2,2020.2.5,Win32,60,,0,0.296375267,-0.320895522,1,0,0,0.048,button_right,0.048,1,,,,,,4,WORD,"ID",33,trench,TRENCH,m,,,,,,0.296375267,-0.320895522,1,0,0,,0,337,337,3,1,,,
,,,,,,,,,,,,,,,,,,999,2020-11-26_13h29.33.962,lexical_decision_task_MP_exp2,2020.2.5,Win32,60,,0,0.296375267,-0.320895522,1,0,0,0.165,button_right,0.165,1,,,,,,118,WORD,"ID",16,flight,FLIGHT,m,,,,,,0.296375267,-0.320895522,1,0,0,,0,338,338,117,1,,,
,,,,,,,,,,,,,,,,,,999,2020-11-26_13h29.33.962,lexical_decision_task_MP_exp2,2020.2.5,Win32,60,,0,0.296375267,-0.320895522,1,0,0,0.115,button_right,0.115,0,,,,,,292,NW,"ID",33,ablint,ABLINT,z,,,,,,0.296375267,-0.320895522,1,0,0,,0,339,339,291,1,,,
,,,,,,,,,,,,,,,,,,999,2020-11-26_13h29.33.962,lexical_decision_task_MP_exp2,2020.2.5,Win32,60,,0,0.296375267,-0.320895522,1,0,0,0.082,button_right,0.082,1,,,,,,35,WORD,"ID",33,socket,SOCKET,m,,,,,,0.296375267,-0.320895522,1,0,0,,0,340,340,34,1,,,
,,,,,,,,,,,,,,,,,,999,2020-11-26_13h29.33.962,lexical_decision_task_MP_exp2,2020.2.5,Win32,60,,0,0.296375267,-0.320895522,1,0,0,0.049,button_right,0.049,1,,,,,,121,WORD,UN,33,linger,THRIVE,m,,,,,,0.296375267,-0.320895522,1,0,0,,0,341,341,120,1,,,
,,,,,,,,,,,,,,,,,,999,2020-11-26_13h29.33.962,lexical_decision_task_MP_exp2,2020.2.5,Win32,60,,0,0.296375267,-0.320895522,1,0,0,0.164,button_right,0.164,1,,,,,,64,WORD,"ID",16,throne,THRONE,m,,,,,,0.296375267,-0.320895522,1,0,0,,0,342,342,63,1,,,
,,,,,,,,,,,,,,,,,,999,2020-11-26_13h29.33.962,lexical_decision_task_MP_exp2,2020.2.5,Win32,60,,0,0.296375267,-0.320895522,1,0,0,0.181,button_right,0.181,0,,,,,,406,NW,UN,33,suiver,NOUPLY,z,,,,,,0.296375267,-0.320895522,1,0,0,,0,343,343,405,1,,,
,,,,,,,,,,,,,,,,,,999,2020-11-26_13h29.33.962,lexical_decision_task_MP_exp2,2020.2.5,Win32,60,,0,0.296375267,-0.320895522,1,0,0,0.249,button_right,0.249,0,,,,,,463,NW,UN,16,bafent,KISPEL,z,,,,,,0.296375267,-0.320895522,1,0,0,,0,344,344,462,1,,,
,,,,,,,,,,,,,,,,,,999,2020-11-26_13h29.33.962,lexical_decision_task_MP_exp2,2020.2.5,Win32,60,,0,0.296375267,-0.320895522,1,0,0,0.094,button_right,0.094,1,,,,,,222,WORD,UN,16,casino,HINDER,m,,,,,,0.296375267,-0.320895522,1,0,0,,0,345,345,221,1,,,
,,,,,,,,,,,,,,,,,,999,2020-11-26_13h29.33.962,lexical_decision_task_MP_exp2,2020.2.5,Win32,60,,0,0.296375267,-0.320895522,1,0,0,0.075,button_right,0.075,0,,,,,,254,NW,"ID",33,varosh,VAROSH,z,,,,,,0.296375267,-0.320895522,1,0,0,,0,346,346,253,1,,,
,,,,,,,,,,,,,,,,,,999,2020-11-26_13h29.33.962,lexical_decision_task_MP_exp2,2020.2.5,Win32,60,,0,0.296375267,-0.320895522,1,0,0,0.065,button_right,0.065,1,,,,,,191,WORD,UN,16,absent,STABLE,m,,,,,,0.296375267,-0.320895522,1,0,0,,0,347,347,190,1,,,
,,,,,,,,,,,,,,,,,,999,2020-11-26_13h29.33.962,lexical_decision_task_MP_exp2,2020.2.5,Win32,60,,0,0.296375267,-0.320895522,1,0,0,0.098,button_right,0.098,1,,,,,,28,WORD,"ID",33,comedy,COMEDY,m,,,,,,0.296375267,-0.320895522,1,0,0,,0,348,348,27,1,,,
,,,,,,,,,,,,,,,,,,999,2020-11-26_13h29.33.962,lexical_decision_task_MP_exp2,2020.2.5,Win32,60,,0,0.296375267,-0.320895522,1,0,0,0.082,button_right,0.082,0,,,,,,384,NW,UN,33,veigma,GUESCO,z,,,,,,0.296375267,-0.320895522,1,0,0,,0,349,349,383,1,,,
,,,,,,,,,,,,,,,,,,999,2020-11-26_13h29.33.962,lexical_decision_task_MP_exp2,2020.2.5,Win32,60,,0,0.296375267,-0.320895522,1,0,0,0.099,button_right,0.099,0,,,,,,371,NW,UN,33,ramily,GEILOY,z,,,,,,0.296375267,-0.320895522,1,0,0,,0,350,350,370,1,,,
,,,,,,,,,,,,,,,,,,999,2020-11-26_13h29.33.962,lexical_decision_task_MP_exp2,2020.2.5,Win32,60,,0,0.296375267,-0.320895522,1,0,0,0.115,button_right,0.115,0,,,,,,314,NW,"ID",16,sprine,SPRINE,z,,,,,,0.296375267,-0.320895522,1,0,0,,0,351,351,313,1,,,
,,,,,,,,,,,,,,,,,,999,2020-11-26_13h29.33.962,lexical_decision_task_MP_exp2,2020.2.5,Win32,60,,0,0.296375267,-0.320895522,1,0,0,0.131,button_right,0.131,0,,,,,,455,NW,UN,16,broget,TONDLE,z,,,,,,0.296375267,-0.320895522,1,0,0,,0,352,352,454,1,,,
,,,,,,,,,,,,,,,,,,999,2020-11-26_13h29.33.962,lexical_decision_task_MP_exp2,2020.2.5,Win32,60,,0,0.296375267,-0.320895522,1,0,0,0.132,button_right,0.132,0,,,,,,293,NW,"ID",33,swance,SWANCE,z,,,,,,0.296375267,-0.320895522,1,0,0,,0,353,353,292,1,,,
,,,,,,,,,,,,,,,,,,999,2020-11-26_13h29.33.962,lexical_decision_task_MP_exp2,2020.2.5,Win32,60,,0,0.296375267,-0.320895522,1,0,0,0.165,button_right,0.165,0,,,,,,299,NW,"ID",33,sturch,STURCH,z,,,,,,0.296375267,-0.320895522,1,0,0,,0,354,354,298,1,,,
,,,,,,,,,,,,,,,,,,999,2020-11-26_13h29.33.962,lexical_decision_task_MP_exp2,2020.2.5,Win32,60,,0,0.296375267,-0.320895522,1,0,0,0.132,button_right,0.132,1,,,,,,151,WORD,UN,33,rocket,MYSTIC,m,,,,,,0.296375267,-0.320895522,1,0,0,,0,355,355,150,1,,,
,,,,,,,,,,,,,,,,,,999,2020-11-26_13h29.33.962,lexical_decision_task_MP_exp2,2020.2.5,Win32,60,,0,0.296375267,-0.320895522,1,0,0,0.165,button_right,0.165,0,,,,,,429,NW,UN,16,caroey,FUNTLE,z,,,,,,0.296375267,-0.320895522,1,0,0,,0,356,356,428,1,,,
,,,,,,,,,,,,,,,,,,999,2020-11-26_13h29.33.962,lexical_decision_task_MP_exp2,2020.2.5,Win32,60,,0,0.296375267,-0.320895522,1,0,0,0.115,button_right,0.115,0,,,,,,411,NW,UN,33,jiluer,ORCHIN,z,,,,,,0.296375267,-0.320895522,1,0,0,,0,357,357,410,1,,,
,,,,,,,,,,,,,,,,,,999,2020-11-26_13h29.33.962,lexical_decision_task_MP_exp2,2020.2.5,Win32,60,,0,0.296375267,-0.320895522,1,0,0,0.164,button_right,0.164,1,,,,,,100,WORD,"ID",16,carbon,CARBON,m,,,,,,0.296375267,-0.320895522,1,0,0,,0,358,358,99,1,,,
,,,,,,,,,,,,,,,,,,999,2020-11-26_13h29.33.962,lexical_decision_task_MP_exp2,2020.2.5,Win32,60,,0,0.296375267,-0.320895522,1,0,0,0.147,button_right,0.147,0,,,,,,330,NW,"ID",16,kensom,KENSOM,z,,,,,,0.296375267,-0.320895522,1,0,0,,0,359,359,329,1,,,
,,,,,,,,,,,,,,,,,,999,2020-11-26_13h29.33.962,lexical_decision_task_MP_exp2,2020.2.5,Win32,60,,0,0.296375267,-0.320895522,1,0,0,0.182,button_right,0.182,0,,,,,,359,NW,"ID",16,fonver,FONVER,z,,,,,,0.296375267,-0.320895522,1,0,0,,0,360,360,358,1,,,
,,,,,,,,,,,,,,,,,,999,2020-11-26_13h29.33.962,lexical_decision_task_MP_exp2,2020.2.5,Win32,60,,0,0.296375267,-0.320895522,1,0,0,0.164,button_right,0.164,1,,,,,,136,WORD,UN,33,finger,BLEACH,m,,,,,,0.296375267,-0.320895522,1,0,0,,0,361,361,135,1,,,
,,,,,,,,,,,,,,,,,,999,2020-11-26_13h29.33.962,lexical_decision_task_MP_exp2,2020.2.5,Win32,60,,0,0.296375267,-0.320895522,1,0,0,0.215,button_right,0.215,1,,,,,,88,WORD,"ID",16,hunger,HUNGER,m,,,,,,0.113006397,-0.384861407,1,0,0,,0,362,362,87,1,,,break_done_button
,,,,,,,,,,,,,,,,,,999,2020-11-26_13h29.33.962,lexical_decision_task_MP_exp2,2020.2.5,Win32,60,,0,0.347547974,-0.305970149,1,0,0,0.298,button_right,0.298,0,,,,,,383,NW,UN,33,guesco,AUNGRE,z,,,,,,0.347547974,-0.305970149,1,0,0,,0,363,363,382,1,,,
,,,,,,,,,,,,,,,,,,999,2020-11-26_13h29.33.962,lexical_decision_task_MP_exp2,2020.2.5,Win32,60,,0,,,,,,,,0.298,-1,,,,,,214,WORD,UN,16,phobia,INTAKE,m,,,,,,0.33901919,-0.303837953,0,0,0,,0,364,364,213,1,,,
,,,,,,,,,,,,,,,,,,999,2020-11-26_13h29.33.962,lexical_decision_task_MP_exp2,2020.2.5,Win32,60,,0,,,,,,,,0.298,-1,,,,,,113,WORD,"ID",16,chorus,CHORUS,m,,,,,,0.33901919,-0.303837953,0,0,0,,0,365,365,112,1,,,
,,,,,,,,,,,,,,,,,,999,2020-11-26_13h29.33.962,lexical_decision_task_MP_exp2,2020.2.5,Win32,60,,0,,,,,,,,0.298,-1,,,,,,308,NW,"ID",16,psetch,PSETCH,z,,,,,,0.33901919,-0.303837953,0,0,0,,0,366,366,307,1,,,
,,,,,,,,,,,,,,,,,,999,2020-11-26_13h29.33.962,lexical_decision_task_MP_exp2,2020.2.5,Win32,60,,0,,,,,,,,0.298,-1,,,,,,101,WORD,"ID",16,wrench,WRENCH,m,,,,,,0.33901919,-0.303837953,0,0,0,,0,367,367,100,1,,,
,,,,,,,,,,,,,,,,,,999,2020-11-26_13h29.33.962,lexical_decision_task_MP_exp2,2020.2.5,Win32,60,,0,,,,,,,,0.298,-1,,,,,,153,WORD,UN,33,author,BEHOLD,m,,,,,,0.33901919,-0.303837953,0,0,0,,0,368,368,152,1,,,
,,,,,,,,,,,,,,,,,,999,2020-11-26_13h29.33.962,lexical_decision_task_MP_exp2,2020.2.5,Win32,60,,0,,,,,,,,0.298,-1,,,,,,52,WORD,"ID",33,impose,IMPOSE,m,,,,,,0.33901919,-0.303837953,0,0,0,,0,369,369,51,1,,,
,,,,,,,,,,,,,,,,,,999,2020-11-26_13h29.33.962,lexical_decision_task_MP_exp2,2020.2.5,Win32,60,,0,,,,,,,,0.298,-1,,,,,,265,NW,"ID",33,distar,DISTAR,z,,,,,,0.33901919,-0.303837953,0,0,0,,0,370,370,264,1,,,
,,,,,,,,,,,,,,,,,,999,2020-11-26_13h29.33.962,lexical_decision_task_MP_exp2,2020.2.5,Win32,60,,0,,,,,,,,0.298,-1,,,,,,229,WORD,UN,16,fringe,MOTHER,m,,,,,,0.33901919,-0.303837953,0,0,0,,0,371,371,228,1,,,
,,,,,,,,,,,,,,,,,,999,2020-11-26_13h29.33.962,lexical_decision_task_MP_exp2,2020.2.5,Win32,60,,0,,,,,,,,0.298,-1,,,,,,137,WORD,UN,33,melody,FINGER,m,,,,,,0.33901919,-0.303837953,0,0,0,,0,372,372,136,1,,,
,,,,,,,,,,,,,,,,,,999,2020-11-26_13h29.33.962,lexical_decision_task_MP_exp2,2020.2.5,Win32,60,,0,,,,,,,,0.298,-1,,,,,,264,NW,"ID",33,vackel,VACKEL,z,,,,,,0.33901919,-0.303837953,0,0,0,,0,373,373,263,1,,,
,,,,,,,,,,,,,,,,,,999,2020-11-26_13h29.33.962,lexical_decision_task_MP_exp2,2020.2.5,Win32,60,,0,,,,,,,,0.298,-1,,,,,,386,NW,UN,33,gronce,ANCUST,z,,,,,,0.33901919,-0.303837953,0,0,0,,0,374,374,385,1,,,
,,,,,,,,,,,,,,,,,,999,2020-11-26_13h29.33.962,lexical_decision_task_MP_exp2,2020.2.5,Win32,60,,0,,,,,,,,0.298,-1,,,,,,19,WORD,"ID",33,patron,PATRON,m,,,,,,0.33901919,-0.303837953,0,0,0,,0,375,375,18,1,,,
,,,,,,,,,,,,,,,,,,999,2020-11-26_13h29.33.962,lexical_decision_task_MP_exp2,2020.2.5,Win32,60,,0,,,,,,,,0.298,-1,,,,,,282,NW,"ID",33,porlex,PORLEX,z,,,,,,0.33901919,-0.303837953,0,0,0,,0,376,376,281,1,,,
,,,,,,,,,,,,,,,,,,999,2020-11-26_13h29.33.962,lexical_decision_task_MP_exp2,2020.2.5,Win32,60,,0,,,,,,,,0.298,-1,,,,,,281,NW,"ID",33,melaty,MELATY,z,,,,,,0.33901919,-0.303837953,0,0,0,,0,377,377,280,1,,,
,,,,,,,,,,,,,,,,,,999,2020-11-26_13h29.33.962,lexical_decision_task_MP_exp2,2020.2.5,Win32,60,,0,,,,,,,,0.298,-1,,,,,,302,NW,"ID",16,miluer,MILUER,z,,,,,,0.33901919,-0.303837953,0,0,0,,0,378,378,301,1,,,
,,,,,,,,,,,,,,,,,,999,2020-11-26_13h29.33.962,lexical_decision_task_MP_exp2,2020.2.5,Win32,60,,0,,,,,,,,0.298,-1,,,,,,465,NW,UN,16,hocite,WHIVEX,z,,,,,,0.336886994,-0.303837953,0,0,0,,0,379,379,464,1,,,
,,,,,,,,,,,,,,,,,,999,2020-11-26_13h29.33.962,lexical_decision_task_MP_exp2,2020.2.5,Win32,60,,0,,,,,,,,0.298,-1,,,,,,150,WORD,UN,33,mystic,RANDOM,m,,,,,,0.336886994,-0.303837953,0,0,0,,0,380,380,149,1,,,
,,,,,,,,,,,,,,,,,,999,2020-11-26_13h29.33.962,lexical_decision_task_MP_exp2,2020.2.5,Win32,60,,0,,,,,,,,0.298,-1,,,,,,338,NW,"ID",16,wreash,WREASH,z,,,,,,0.336886994,-0.303837953,0,0,0,,0,381,381,337,1,,,
,,,,,,,,,,,,,,,,,,999,2020-11-26_13h29.33.962,lexical_decision_task_MP_exp2,2020.2.5,Win32,60,,0,,,,,,,,0.298,-1,,,,,,187,WORD,UN,16,social,COURSE,m,,,,,,0.336886994,-0.303837953,0,0,0,,0,382,382,186,1,,,
,,,,,,,,,,,,,,,,,,999,2020-11-26_13h29.33.962,lexical_decision_task_MP_exp2,2020.2.5,Win32,60,,0,,,,,,,,0.298,-1,,,,,,139,WORD,UN,33,prince,DEBRIS,m,,,,,,0.336886994,-0.303837953,0,0,0,,0,383,383,138,1,,,
,,,,,,,,,,,,,,,,,,999,2020-11-26_13h29.33.962,lexical_decision_task_MP_exp2,2020.2.5,Win32,60,,0,0.336886994,-0.303837953,1,0,0,0.982,button_right,0.982,1,,,,,,12,WORD,"ID",33,orange,ORANGE,m,,,,,,0.336886994,-0.303837953,1,0,0,,0,384,384,11,1,,,
,,,,,,,,,,,,,,,,,,999,2020-11-26_13h29.33.962,lexical_decision_task_MP_exp2,2020.2.5,Win32,60,,0,,,,,,,,0.982,-1,,,,,,319,NW,"ID",16,zomber,ZOMBER,z,,,,,,0.336886994,-0.303837953,0,0,0,,0,385,385,318,1,,,
,,,,,,,,,,,,,,,,,,999,2020-11-26_13h29.33.962,lexical_decision_task_MP_exp2,2020.2.5,Win32,60,,0,,,,,,,,0.982,-1,,,,,,310,NW,"ID",16,daniet,DANIET,z,,,,,,0.336886994,-0.303837953,0,0,0,,0,386,386,309,1,,,
,,,,,,,,,,,,,,,,,,999,2020-11-26_13h29.33.962,lexical_decision_task_MP_exp2,2020.2.5,Win32,60,,0,,,,,,,,0.982,-1,,,,,,335,NW,"ID",16,desion,DESION,z,,,,,,0.336886994,-0.303837953,0,0,0,,0,387,387,334,1,,,
,,,,,,,,,,,,,,,,,,999,2020-11-26_13h29.33.962,lexical_decision_task_MP_exp2,2020.2.5,Win32,60,,0,,,,,,,,0.982,-1,,,,,,312,NW,"ID",16,nerawl,NERAWL,z,,,,,,0.336886994,-0.303837953,0,0,0,,0,388,388,311,1,,,
,,,,,,,,,,,,,,,,,,999,2020-11-26_13h29.33.962,lexical_decision_task_MP_exp2,2020.2.5,Win32,60,,0,,,,,,,,0.982,-1,,,,,,157,WORD,UN,33,island,DRAGON,m,,,,,,0.336886994,-0.303837953,0,0,0,,0,389,389,156,1,,,
,,,,,,,,,,,,,,,,,,999,2020-11-26_13h29.33.962,lexical_decision_task_MP_exp2,2020.2.5,Win32,60,,0,,,,,,,,0.982,-1,,,,,,461,NW,UN,16,absult,JUSTRE,z,,,,,,0.336886994,-0.303837953,0,0,0,,0,390,390,460,1,,,
,,,,,,,,,,,,,,,,,,999,2020-11-26_13h29.33.962,lexical_decision_task_MP_exp2,2020.2.5,Win32,60,,0,,,,,,,,0.982,-1,,,,,,470,NW,UN,16,nobest,CRUDIO,z,,,,,,0.336886994,-0.303837953,0,0,0,,0,391,391,469,1,,,
,,,,,,,,,,,,,,,,,,999,2020-11-26_13h29.33.962,lexical_decision_task_MP_exp2,2020.2.5,Win32,60,,0,,,,,,,,0.982,-1,,,,,,129,WORD,UN,33,stupid,MARVEL,m,,,,,,0.336886994,-0.303837953,0,0,0,,0,392,392,128,1,,,
,,,,,,,,,,,,,,,,,,999,2020-11-26_13h29.33.962,lexical_decision_task_MP_exp2,2020.2.5,Win32,60,,0,,,,,,,,0.982,-1,,,,,,37,WORD,"ID",33,insult,INSULT,m,,,,,,0.336886994,-0.303837953,0,0,0,,0,393,393,36,1,,,
,,,,,,,,,,,,,,,,,,999,2020-11-26_13h29.33.962,lexical_decision_task_MP_exp2,2020.2.5,Win32,60,,0,,,,,,,,0.982,-1,,,,,,72,WORD,"ID",16,bright,BRIGHT,m,,,,,,0.336886994,-0.303837953,0,0,0,,0,394,394,71,1,,,
,,,,,,,,,,,,,,,,,,999,2020-11-26_13h29.33.962,lexical_decision_task_MP_exp2,2020.2.5,Win32,60,,0,,,,,,,,0.982,-1,,,,,,322,NW,"ID",16,slanch,SLANCH,z,,,,,,0.336886994,-0.303837953,0,0,0,,0,395,395,321,1,,,
,,,,,,,,,,,,,,,,,,999,2020-11-26_13h29.33.962,lexical_decision_task_MP_exp2,2020.2.5,Win32,60,,0,,,,,,,,0.982,-1,,,,,,63,WORD,"ID",16,launch,LAUNCH,m,,,,,,0.336886994,-0.303837953,0,0,0,,0,396,396,62,1,,,
,,,,,,,,,,,,,,,,,,999,2020-11-26_13h29.33.962,lexical_decision_task_MP_exp2,2020.2.5,Win32,60,,0,,,,,,,,0.982,-1,,,,,,81,WORD,"ID",16,friend,FRIEND,m,,,,,,0.336886994,-0.303837953,0,0,0,,0,397,397,80,1,,,
,,,,,,,,,,,,,,,,,,999,2020-11-26_13h29.33.962,lexical_decision_task_MP_exp2,2020.2.5,Win32,60,,0,,,,,,,,0.982,-1,,,,,,333,NW,"ID",16,catrie,CATRIE,z,,,,,,0.336886994,-0.303837953,0,0,0,,0,398,398,332,1,,,
,,,,,,,,,,,,,,,,,,999,2020-11-26_13h29.33.962,lexical_decision_task_MP_exp2,2020.2.5,Win32,60,,0,,,,,,,,0.982,-1,,,,,,112,WORD,"ID",16,breath,BREATH,m,,,,,,0.336886994,-0.303837953,0,0,0,,0,399,399,111,1,,,
,,,,,,,,,,,,,,,,,,999,2020-11-26_13h29.33.962,lexical_decision_task_MP_exp2,2020.2.5,Win32,60,,0,,,,,,,,0.982,-1,,,,,,476,NW,UN,16,photie,JOSTED,z,,,,,,0.336886994,-0.303837953,0,0,0,,0,400,400,475,1,,,
,,,,,,,,,,,,,,,,,,999,2020-11-26_13h29.33.962,lexical_decision_task_MP_exp2,2020.2.5,Win32,60,,0,,,,,,,,0.982,-1,,,,,,351,NW,"ID",16,tiesch,TIESCH,z,,,,,,0.336886994,-0.303837953,0,0,0,,0,401,401,350,1,,,
,,,,,,,,,,,,,,,,,,999,2020-11-26_13h29.33.962,lexical_decision_task_MP_exp2,2020.2.5,Win32,60,,0,,,,,,,,0.982,-1,,,,,,78,WORD,"ID",16,column,COLUMN,m,,,,,,0.336886994,-0.303837953,0,0,0,,0,402,402,77,1,,,
,,,,,,,,,,,,,,,,,,999,2020-11-26_13h29.33.962,lexical_decision_task_MP_exp2,2020.2.5,Win32,60,,0,,,,,,,,0.982,-1,,,,,,84,WORD,"ID",16,mortal,MORTAL,m,,,,,,0.336886994,-0.303837953,0,0,0,,0,403,403,83,1,,,
,,,,,,,,,,,,,,,,,,999,2020-11-26_13h29.33.962,lexical_decision_task_MP_exp2,2020.2.5,Win32,60,,0,,,,,,,,0.982,-1,,,,,,98,WORD,"ID",16,belong,BELONG,m,,,,,,0.336886994,-0.303837953,0,0,0,,0,404,404,97,1,,,
,,,,,,,,,,,,,,,,,,999,2020-11-26_13h29.33.962,lexical_decision_task_MP_exp2,2020.2.5,Win32,60,,0,,,,,,,,0.982,-1,,,,,,193,WORD,UN,16,plague,OBJECT,m,,,,,,0.336886994,-0.303837953,0,0,0,,0,405,405,192,1,,,
,,,,,,,,,,,,,,,,,,999,2020-11-26_13h29.33.962,lexical_decision_task_MP_exp2,2020.2.5,Win32,60,,0,,,,,,,,0.982,-1,,,,,,22,WORD,"ID",33,jockey,JOCKEY,m,,,,,,0.336886994,-0.303837953,0,0,0,,0,406,406,21,1,,,
,,,,,,,,,,,,,,,,,,999,2020-11-26_13h29.33.962,lexical_decision_task_MP_exp2,2020.2.5,Win32,60,,0,,,,,,,,0.982,-1,,,,,,107,WORD,"ID",16,slogan,SLOGAN,m,,,,,,0.336886994,-0.303837953,0,0,0,,0,407,407,106,1,,,
,,,,,,,,,,,,,,,,,,999,2020-11-26_13h29.33.962,lexical_decision_task_MP_exp2,2020.2.5,Win32,60,,0,,,,,,,,0.982,-1,,,,,,480,NW,UN,16,knisma,ROBULY,z,,,,,,0.336886994,-0.303837953,0,0,0,,0,408,408,479,1,,,
,,,,,,,,,,,,,,,,,,999,2020-11-26_13h29.33.962,lexical_decision_task_MP_exp2,2020.2.5,Win32,60,,0,,,,,,,,0.982,-1,,,,,,446,NW,UN,16,gircue,RUNAMO,z,,,,,,0.336886994,-0.303837953,0,0,0,,0,409,409,445,1,,,
,,,,,,,,,,,,,,,,,,999,2020-11-26_13h29.33.962,lexical_decision_task_MP_exp2,2020.2.5,Win32,60,,0,,,,,,,,0.982,-1,,,,,,53,WORD,"ID",33,police,POLICE,m,,,,,,0.336886994,-0.303837953,0,0,0,,0,410,410,52,1,,,
,,,,,,,,,,,,,,,,,,999,2020-11-26_13h29.33.962,lexical_decision_task_MP_exp2,2020.2.5,Win32,60,,0,,,,,,,,0.982,-1,,,,,,252,NW,"ID",33,stapod,STAPOD,z,,,,,,0.336886994,-0.303837953,0,0,0,,0,411,411,251,1,,,
,,,,,,,,,,,,,,,,,,999,2020-11-26_13h29.33.962,lexical_decision_task_MP_exp2,2020.2.5,Win32,60,,0,,,,,,,,0.982,-1,,,,,,23,WORD,"ID",33,wealth,WEALTH,m,,,,,,0.336886994,-0.303837953,0,0,0,,0,412,412,22,1,,,
,,,,,,,,,,,,,,,,,,999,2020-11-26_13h29.33.962,lexical_decision_task_MP_exp2,2020.2.5,Win32,60,,0,,,,,,,,0.982,-1,,,,,,467,NW,UN,16,wictor,GORBIE,z,,,,,,0.336886994,-0.303837953,0,0,0,,0,413,413,466,1,,,
,,,,,,,,,,,,,,,,,,999,2020-11-26_13h29.33.962,lexical_decision_task_MP_exp2,2020.2.5,Win32,60,,0,,,,,,,,0.982,-1,,,,,,437,NW,UN,16,baitch,SNAPEL,z,,,,,,0.336886994,-0.303837953,0,0,0,,0,414,414,436,1,,,
,,,,,,,,,,,,,,,,,,999,2020-11-26_13h29.33.962,lexical_decision_task_MP_exp2,2020.2.5,Win32,60,,0,,,,,,,,0.982,-1,,,,,,2,WORD,"ID",33,bridge,BRIDGE,m,,,,,,0.336886994,-0.303837953,0,0,0,,0,415,415,1,1,,,
,,,,,,,,,,,,,,,,,,999,2020-11-26_13h29.33.962,lexical_decision_task_MP_exp2,2020.2.5,Win32,60,,0,,,,,,,,0.982,-1,,,,,,283,NW,"ID",33,veralf,VERALF,z,,,,,,0.336886994,-0.303837953,0,0,0,,0,416,416,282,1,,,
,,,,,,,,,,,,,,,,,,999,2020-11-26_13h29.33.962,lexical_decision_task_MP_exp2,2020.2.5,Win32,60,,0,,,,,,,,0.982,-1,,,,,,43,WORD,"ID",33,tongue,TONGUE,m,,,,,,0.336886994,-0.303837953,0,0,0,,0,417,417,42,1,,,
,,,,,,,,,,,,,,,,,,999,2020-11-26_13h29.33.962,lexical_decision_task_MP_exp2,2020.2.5,Win32,60,,0,,,,,,,,0.982,-1,,,,,,31,WORD,"ID",33,weapon,WEAPON,m,,,,,,0.336886994,-0.303837953,0,0,0,,0,418,418,30,1,,,
,,,,,,,,,,,,,,,,,,999,2020-11-26_13h29.33.962,lexical_decision_task_MP_exp2,2020.2.5,Win32,60,,0,,,,,,,,0.982,-1,,,,,,272,NW,"ID",33,damilt,DAMILT,z,,,,,,0.336886994,-0.303837953,0,0,0,,0,419,419,271,1,,,
,,,,,,,,,,,,,,,,,,999,2020-11-26_13h29.33.962,lexical_decision_task_MP_exp2,2020.2.5,Win32,60,,0,,,,,,,,0.982,-1,,,,,,159,WORD,UN,33,violet,DETAIL,m,,,,,,0.336886994,-0.303837953,0,0,0,,0,420,420,158,1,,,
,,,,,,,,,,,,,,,,,,999,2020-11-26_13h29.33.962,lexical_decision_task_MP_exp2,2020.2.5,Win32,60,,0,,,,,,,,0.982,-1,,,,,,58,WORD,"ID",33,foster,FOSTER,m,,,,,,0.336886994,-0.303837953,0,0,0,,0,421,421,57,1,,,
,,,,,,,,,,,,,,,,,,999,2020-11-26_13h29.33.962,lexical_decision_task_MP_exp2,2020.2.5,Win32,60,,0,,,,,,,,0.982,-1,,,,,,163,WORD,UN,33,market,STRING,m,,,,,,0.336886994,-0.303837953,0,0,0,,0,422,422,162,1,,,
,,,,,,,,,,,,,,,,,,999,2020-11-26_13h29.33.962,lexical_decision_task_MP_exp2,2020.2.5,Win32,60,,0,,,,,,,,0.982,-1,,,,,,466,NW,UN,16,pebric,HOCITE,z,,,,,,0.336886994,-0.303837953,0,0,0,,0,423,423,465,1,,,
,,,,,,,,,,,,,,,,,,999,2020-11-26_13h29.33.962,lexical_decision_task_MP_exp2,2020.2.5,Win32,60,,0,,,,,,,,0.982,-1,,,,,,200,WORD,UN,16,admire,BEACON,m,,,,,,0.336886994,-0.303837953,0,0,0,,0,424,424,199,1,,,
,,,,,,,,,,,,,,,,,,999,2020-11-26_13h29.33.962,lexical_decision_task_MP_exp2,2020.2.5,Win32,60,,0,,,,,,,,0.982,-1,,,,,,87,WORD,"ID",16,filter,FILTER,m,,,,,,0.336886994,-0.303837953,0,0,0,,0,425,425,86,1,,,
,,,,,,,,,,,,,,,,,,999,2020-11-26_13h29.33.962,lexical_decision_task_MP_exp2,2020.2.5,Win32,60,,0,,,,,,,,0.982,-1,,,,,,479,NW,UN,16,josted,LOBUSH,z,,,,,,0.336886994,-0.303837953,0,0,0,,0,426,426,478,1,,,
,,,,,,,,,,,,,,,,,,999,2020-11-26_13h29.33.962,lexical_decision_task_MP_exp2,2020.2.5,Win32,60,,0,,,,,,,,0.982,-1,,,,,,251,NW,"ID",33,lupict,LUPICT,z,,,,,,0.336886994,-0.303837953,0,0,0,,0,427,427,250,1,,,
,,,,,,,,,,,,,,,,,,999,2020-11-26_13h29.33.962,lexical_decision_task_MP_exp2,2020.2.5,Win32,60,,0,,,,,,,,0.982,-1,,,,,,231,WORD,UN,16,mother,EXPORT,m,,,,,,0.336886994,-0.303837953,0,0,0,,0,428,428,230,1,,,
,,,,,,,,,,,,,,,,,,999,2020-11-26_13h29.33.962,lexical_decision_task_MP_exp2,2020.2.5,Win32,60,,0,,,,,,,,0.982,-1,,,,,,160,WORD,UN,33,dragon,VIOLET,m,,,,,,0.336886994,-0.303837953,0,0,0,,0,429,429,159,1,,,
,,,,,,,,,,,,,,,,,,999,2020-11-26_13h29.33.962,lexical_decision_task_MP_exp2,2020.2.5,Win32,60,,0,,,,,,,,0.982,-1,,,,,,326,NW,"ID",16,iguade,IGUADE,z,,,,,,0.336886994,-0.303837953,0,0,0,,0,430,430,325,1,,,
