counterbalancing_condition,instr_done_keyboard.keys,instr_done_touch.x,instr_done_touch.y,instr_done_touch.leftButton,instr_done_touch.midButton,instr_done_touch.rightButton,instr_done_touch.clicked_name,instruction_pages.thisRepN,instruction_pages.thisTrialN,instruction_pages.thisN,instruction_pages.thisIndex,instruction_pages.ran,pageN,phase,instruct_text,has_image,instruct_image,participant,date,expName,psychopyVersion,OS,frameRate,response.keys,response.corr,touch_resp.x,touch_resp.y,touch_resp.leftButton,touch_resp.midButton,touch_resp.rightButton,touch_resp.time,touch_resp.clicked_name,rt,corr,practice_trials.thisRepN,practice_trials.thisTrialN,practice_trials.thisN,practice_trials.thisIndex,practice_trials.ran,TrialID,StimulusType,Condition,PrimeDuration,Prime,Target,corrAns,end_of_practice_trials_pages.thisRepN,end_of_practice_trials_pages.thisTrialN,end_of_practice_trials_pages.thisN,end_of_practice_trials_pages.thisIndex,end_of_practice_trials_pages.ran,break_done_touch.x,break_done_touch.y,break_done_touch.leftButton,break_done_touch.midButton,break_done_touch.rightButton,break_done_keyboard.keys,experiment_trials.thisRepN,experiment_trials.thisTrialN,experiment_trials.thisN,experiment_trials.thisIndex,experiment_trials.ran,response.rt,break_done_touch.clicked_name
2,,-0.04950495,-0.440594059,1,0,0,instr_done_button,0,0,0,0,1,1,instructions,"INSTRUCTIONS
At the start of each trial, look at the hash marks (######) in the center of the screen. After a moment, a string of letters will appear. Your task is to indicate if the letter string forms a word or not (i.e., if it is a nonword). For example, AUTHOR is a word while AUTHON is a nonword.

Press the space bar or touch the button below to continue.",0,,999,2020-11-26_11h43.00.107,lexical_decision_task_MP_exp2,2020.2.5,Win32,60,,,,,,,,,,,,,,,,,,,,,,,,,,,,,,,,,,,,,,,,,
,,-0.04950495,-0.440594059,1,0,0,instr_done_button,0,1,1,1,1,2,instructions,"If your device has a keyboard, press the 'Z' key for nonwords and the 'M' key for words.





Press the space bar or touch the button below to continue.",1,keyboard-example.gif,999,2020-11-26_11h43.00.107,lexical_decision_task_MP_exp2,2020.2.5,Win32,60,,,,,,,,,,,,,,,,,,,,,,,,,,,,,,,,,,,,,,,,,
,,-0.04950495,-0.440594059,1,0,0,instr_done_button,0,2,2,2,1,3,instructions,"If you are using a touchscreen only device, use the buttons on the screen. Do not use the mouse.





Press the space bar or touch the button below to continue.",1,touchscreen-example.gif,999,2020-11-26_11h43.00.107,lexical_decision_task_MP_exp2,2020.2.5,Win32,60,,,,,,,,,,,,,,,,,,,,,,,,,,,,,,,,,,,,,,,,,
,,-0.04950495,-0.437293729,1,0,0,instr_done_button,0,3,3,3,1,4,instructions,"It is very important that you respond as quickly and accurately as possible, as each letter string will only be on the screen for two seconds. If you do not respond within this time, the message 'Too slow!' will be displayed and the experiment will progress to the next letter string. The first 20 trials will be practice trials and you will receive feedback on your answers. 

Press the space bar or touch the button below to start the practice trials.",0,,999,2020-11-26_11h43.00.107,lexical_decision_task_MP_exp2,2020.2.5,Win32,60,,,,,,,,,,,,,,,,,,,,,,,,,,,,,,,,,,,,,,,,,
,,,,,,,,,,,,,,,,,,999,2020-11-26_11h43.00.107,lexical_decision_task_MP_exp2,2020.2.5,Win32,60,,0,-0.366336634,-0.282178218,1,0,0,0.23,button_left,0.23,0,0,0,0,7,1,1008,WORD,UN,16,hurdle,VOLUME,m,,,,,,,,,,,,,,,,,,
,,,,,,,,,,,,,,,,,,999,2020-11-26_11h43.00.107,lexical_decision_task_MP_exp2,2020.2.5,Win32,60,,0,-0.716171617,-0.285478548,1,0,0,0.214,,0.23,-1,0,1,1,3,1,1004,WORD,"ID",16,matrix,MATRIX,m,,,,,,,,,,,,,,,,,,
,,,,,,,,,,,,,,,,,,999,2020-11-26_11h43.00.107,lexical_decision_task_MP_exp2,2020.2.5,Win32,60,,0,,,,,,,,0.23,-1,0,2,2,12,1,1013,NW,UN,33,adveil,SPRINY,z,,,,,,,,,,,,,,,,,,
,,,,,,,,,,,,,,,,,,999,2020-11-26_11h43.00.107,lexical_decision_task_MP_exp2,2020.2.5,Win32,60,,0,,,,,,,,0.23,-1,0,3,3,4,1,1005,WORD,UN,33,abound,SQUEAK,m,,,,,,,,,,,,,,,,,,
,,,,,,,,,,,,,,,,,,999,2020-11-26_11h43.00.107,lexical_decision_task_MP_exp2,2020.2.5,Win32,60,,0,,,,,,,,0.23,-1,0,4,4,11,1,1012,NW,"ID",16,rashet,RASHET,z,,,,,,,,,,,,,,,,,,
,,,,,,,,,,,,,,,,,,999,2020-11-26_11h43.00.107,lexical_decision_task_MP_exp2,2020.2.5,Win32,60,,0,,,,,,,,0.23,-1,0,5,5,0,1,1001,WORD,"ID",33,utopia,UTOPIA,m,,,,,,,,,,,,,,,,,,
,,,,,,,,,,,,,,,,,,999,2020-11-26_11h43.00.107,lexical_decision_task_MP_exp2,2020.2.5,Win32,60,,0,,,,,,,,0.23,-1,0,6,6,2,1,1003,WORD,"ID",16,almond,ALMOND,m,,,,,,,,,,,,,,,,,,
,,,,,,,,,,,,,,,,,,999,2020-11-26_11h43.00.107,lexical_decision_task_MP_exp2,2020.2.5,Win32,60,,0,,,,,,,,0.23,-1,0,7,7,10,1,1011,NW,"ID",16,inlade,INLADE,z,,,,,,,,,,,,,,,,,,
,,,,,,,,,,,,,,,,,,999,2020-11-26_11h43.00.107,lexical_decision_task_MP_exp2,2020.2.5,Win32,60,,0,,,,,,,,0.23,-1,0,8,8,13,1,1014,NW,UN,33,winfer,ROUPET,z,,,,,,,,,,,,,,,,,,
,,,,,,,,,,,,,,,,,,999,2020-11-26_11h43.00.107,lexical_decision_task_MP_exp2,2020.2.5,Win32,60,,0,,,,,,,,0.23,-1,0,9,9,9,1,1010,NW,"ID",33,fariny,FARINY,z,,,,,,,,,,,,,,,,,,
,,,,,,,,,,,,,,,,,,999,2020-11-26_11h43.00.107,lexical_decision_task_MP_exp2,2020.2.5,Win32,60,,0,,,,,,,,0.23,-1,0,10,10,8,1,1009,NW,"ID",33,aslert,ASLERT,z,,,,,,,,,,,,,,,,,,
,,,,,,,,,,,,,,,,,,999,2020-11-26_11h43.00.107,lexical_decision_task_MP_exp2,2020.2.5,Win32,60,,0,,,,,,,,0.23,-1,0,11,11,15,1,1016,NW,UN,16,mushed,WHAISE,z,,,,,,,,,,,,,,,,,,
,,,,,,,,,,,,,,,,,,999,2020-11-26_11h43.00.107,lexical_decision_task_MP_exp2,2020.2.5,Win32,60,,0,,,,,,,,0.23,-1,0,12,12,5,1,1006,WORD,UN,33,frenzy,OBTAIN,m,,,,,,,,,,,,,,,,,,
,,,,,,,,,,,,,,,,,,999,2020-11-26_11h43.00.107,lexical_decision_task_MP_exp2,2020.2.5,Win32,60,,0,,,,,,,,0.23,-1,0,13,13,6,1,1007,WORD,UN,16,tropic,ZOMBIE,m,,,,,,,,,,,,,,,,,,
,,,,,,,,,,,,,,,,,,999,2020-11-26_11h43.00.107,lexical_decision_task_MP_exp2,2020.2.5,Win32,60,,0,,,,,,,,0.23,-1,0,14,14,1,1,1002,WORD,"ID",33,adjust,ADJUST,m,,,,,,,,,,,,,,,,,,
,,,,,,,,,,,,,,,,,,999,2020-11-26_11h43.00.107,lexical_decision_task_MP_exp2,2020.2.5,Win32,60,,0,,,,,,,,0.23,-1,0,15,15,14,1,1015,NW,UN,16,miaber,THRALE,z,,,,,,,,,,,,,,,,,,
,,-0.0330033,-0.361386139,1,0,0,instr_done_button,,,,,,1,end_of_practice,"You have completed the practice trials. During the experimental trials, you will not receive feedback, but it is very important that you respond as quickly and accurately as possible. 
Before you begin, please ensure that you are in a comfortable and quiet location and will not be disturbed for about 15 minutes, as we cannot use your data if you do not complete all the trials. 
There will be opportunities to take breaks at regular intervals during the experiment. When you are ready to start the experimental trials, please press space or touch the button below.",,,999,2020-11-26_11h43.00.107,lexical_decision_task_MP_exp2,2020.2.5,Win32,60,,,,,,,,,,,,,,,,,,,,,,,,0,0,0,0,1,,,,,,,,,,,,,
,,,,,,,,,,,,,,,,,,999,2020-11-26_11h43.00.107,lexical_decision_task_MP_exp2,2020.2.5,Win32,60,,0,-0.372937294,-0.295379538,1,0,0,0.098,button_left,0.098,0,,,,,,164,WORD,"ID",16,market,MARKET,m,,,,,,-0.372937294,-0.295379538,1,0,0,,0,0,0,103,1,,
,,,,,,,,,,,,,,,,,,999,2020-11-26_11h43.00.107,lexical_decision_task_MP_exp2,2020.2.5,Win32,60,,0,-0.372937294,-0.295379538,1,0,0,0.08,button_left,0.08,1,,,,,,359,NW,"ID",33,fonver,FONVER,z,,,,,,-0.372937294,-0.295379538,1,0,0,,0,1,1,298,1,,
,,,,,,,,,,,,,,,,,,999,2020-11-26_11h43.00.107,lexical_decision_task_MP_exp2,2020.2.5,Win32,60,,0,0.03630363,-0.315181518,1,0,0,0.265,button_left,0.265,1,,,,,,278,NW,UN,16,celond,UNIGHS,z,,,,,,-0.204620462,-0.311881188,1,0,0,,0,2,2,457,1,,
,,,,,,,,,,,,,,,,,,999,2020-11-26_11h43.00.107,lexical_decision_task_MP_exp2,2020.2.5,Win32,60,m,1,,,,,,,,0.646,1,,,,,,170,WORD,"ID",16,pounce,POUNCE,m,,,,,,0.221122112,-0.311881188,0,0,0,,0,3,3,109,1,0.646,
,,,,,,,,,,,,,,,,,,999,2020-11-26_11h43.00.107,lexical_decision_task_MP_exp2,2020.2.5,Win32,60,z,0,,,,,,,,0.051,0,,,,,,195,WORD,UN,33,credit,RESIGN,m,,,,,,0.221122112,-0.311881188,0,0,0,,0,4,4,134,1,0.051,
,,,,,,,,,,,,,,,,,,999,2020-11-26_11h43.00.107,lexical_decision_task_MP_exp2,2020.2.5,Win32,60,m,0,,,,,,,,0.1,0,,,,,,377,NW,"ID",16,injore,INJORE,z,,,,,,0.221122112,-0.311881188,0,0,0,,0,5,5,316,1,0.1,
,,,,,,,,,,,,,,,,,,999,2020-11-26_11h43.00.107,lexical_decision_task_MP_exp2,2020.2.5,Win32,60,z,1,,,,,,,,0.117,1,,,,,,270,NW,UN,16,aubrid,WRIMSY,z,,,,,,0.221122112,-0.311881188,0,0,0,,0,6,6,449,1,0.117,
,,,,,,,,,,,,,,,,,,999,2020-11-26_11h43.00.107,lexical_decision_task_MP_exp2,2020.2.5,Win32,60,m,1,,,,,,,,0.084,1,,,,,,200,WORD,UN,33,admire,BEACON,m,,,,,,0.221122112,-0.311881188,0,0,0,,0,7,7,139,1,0.084,
,,,,,,,,,,,,,,,,,,999,2020-11-26_11h43.00.107,lexical_decision_task_MP_exp2,2020.2.5,Win32,60,z,0,,,,,,,,0.084,0,,,,,,4,WORD,UN,16,plunge,TRENCH,m,,,,,,0.221122112,-0.311881188,0,0,0,,0,8,8,183,1,0.084,
,,,,,,,,,,,,,,,,,,999,2020-11-26_11h43.00.107,lexical_decision_task_MP_exp2,2020.2.5,Win32,60,m,0,,,,,,,,0.125,0,,,,,,399,NW,"ID",16,fouret,FOURET,z,,,,,,0.221122112,-0.311881188,0,0,0,,0,9,9,338,1,0.125,
,,,,,,,,,,,,,,,,,,999,2020-11-26_11h43.00.107,lexical_decision_task_MP_exp2,2020.2.5,Win32,60,m,0,,,,,,,,0.003,0,,,,,,440,NW,UN,33,rastoe,SARIDE,z,,,,,,0.221122112,-0.311881188,0,0,0,,0,10,10,379,1,0.003,
,,,,,,,,,,,,,,,,,,999,2020-11-26_11h43.00.107,lexical_decision_task_MP_exp2,2020.2.5,Win32,60,m,1,,,,,,,,0.069,1,,,,,,129,WORD,"ID",16,marvel,MARVEL,m,,,,,,0.221122112,-0.311881188,0,0,0,,0,11,11,68,1,0.069,
,,,,,,,,,,,,,,,,,,999,2020-11-26_11h43.00.107,lexical_decision_task_MP_exp2,2020.2.5,Win32,60,m,0,,,,,,,,0.093,0,,,,,,333,NW,"ID",33,catrie,CATRIE,z,,,,,,0.221122112,-0.311881188,0,0,0,,0,12,12,272,1,0.093,
,,,,,,,,,,,,,,,,,,999,2020-11-26_11h43.00.107,lexical_decision_task_MP_exp2,2020.2.5,Win32,60,m,0,,,,,,,,0.121,0,,,,,,375,NW,"ID",16,yorque,YORQUE,z,,,,,,0.221122112,-0.311881188,0,0,0,,0,13,13,314,1,0.121,
,,,,,,,,,,,,,,,,,,999,2020-11-26_11h43.00.107,lexical_decision_task_MP_exp2,2020.2.5,Win32,60,m,0,,,,,,,,0.182,0,,,,,,331,NW,"ID",33,gilfew,GILFEW,z,,,,,,0.221122112,-0.311881188,0,0,0,,0,14,14,270,1,0.182,
,,,,,,,,,,,,,,,,,,999,2020-11-26_11h43.00.107,lexical_decision_task_MP_exp2,2020.2.5,Win32,60,m,0,,,,,,,,0.219,0,,,,,,358,NW,"ID",33,fleack,FLEACK,z,,,,,,0.221122112,-0.311881188,0,0,0,,0,15,15,297,1,0.219,
,,,,,,,,,,,,,,,,,,999,2020-11-26_11h43.00.107,lexical_decision_task_MP_exp2,2020.2.5,Win32,60,m,1,,,,,,,,0.184,1,,,,,,75,WORD,"ID",33,trophy,TROPHY,m,,,,,,0.221122112,-0.311881188,0,0,0,,0,16,16,14,1,0.184,
,,,,,,,,,,,,,,,,,,999,2020-11-26_11h43.00.107,lexical_decision_task_MP_exp2,2020.2.5,Win32,60,,0,,,,,,,,0.184,-1,,,,,,299,NW,UN,16,yarion,STURCH,z,,,,,,0.221122112,-0.311881188,0,0,0,,0,17,17,478,1,,
,,,,,,,,,,,,,,,,,,999,2020-11-26_11h43.00.107,lexical_decision_task_MP_exp2,2020.2.5,Win32,60,,0,,,,,,,,0.184,-1,,,,,,308,NW,"ID",33,psetch,PSETCH,z,,,,,,0.221122112,-0.311881188,0,0,0,,0,18,18,247,1,,
,,,,,,,,,,,,,,,,,,999,2020-11-26_11h43.00.107,lexical_decision_task_MP_exp2,2020.2.5,Win32,60,,0,,,,,,,,0.184,-1,,,,,,244,NW,UN,16,anougs,EATRIC,z,,,,,,0.221122112,-0.311881188,0,0,0,,0,19,19,423,1,,
,,,,,,,,,,,,,,,,,,999,2020-11-26_11h43.00.107,lexical_decision_task_MP_exp2,2020.2.5,Win32,60,,0,,,,,,,,0.184,-1,,,,,,463,NW,UN,33,chaite,KISPEL,z,,,,,,0.221122112,-0.311881188,0,0,0,,0,20,20,402,1,,
,,,,,,,,,,,,,,,,,,999,2020-11-26_11h43.00.107,lexical_decision_task_MP_exp2,2020.2.5,Win32,60,,0,,,,,,,,0.184,-1,,,,,,186,WORD,UN,33,course,PORTAL,m,,,,,,0.221122112,-0.315181518,0,0,0,,0,21,21,125,1,,
,,,,,,,,,,,,,,,,,,999,2020-11-26_11h43.00.107,lexical_decision_task_MP_exp2,2020.2.5,Win32,60,,0,,,,,,,,0.184,-1,,,,,,348,NW,"ID",33,dumple,DUMPLE,z,,,,,,0.221122112,-0.315181518,0,0,0,,0,22,22,287,1,,
,,,,,,,,,,,,,,,,,,999,2020-11-26_11h43.00.107,lexical_decision_task_MP_exp2,2020.2.5,Win32,60,,0,,,,,,,,0.184,-1,,,,,,185,WORD,UN,33,portal,BOTHER,m,,,,,,0.221122112,-0.315181518,0,0,0,,0,23,23,124,1,,
,,,,,,,,,,,,,,,,,,999,2020-11-26_11h43.00.107,lexical_decision_task_MP_exp2,2020.2.5,Win32,60,,0,,,,,,,,0.184,-1,,,,,,441,NW,UN,33,aboune,RASTOE,z,,,,,,0.221122112,-0.315181518,0,0,0,,0,24,24,380,1,,
,,,,,,,,,,,,,,,,,,999,2020-11-26_11h43.00.107,lexical_decision_task_MP_exp2,2020.2.5,Win32,60,,0,,,,,,,,0.184,-1,,,,,,476,NW,UN,33,photie,JOSTED,z,,,,,,0.221122112,-0.315181518,0,0,0,,0,25,25,415,1,,
,,,,,,,,,,,,,,,,,,999,2020-11-26_11h43.00.107,lexical_decision_task_MP_exp2,2020.2.5,Win32,60,,0,,,,,,,,0.184,-1,,,,,,384,NW,"ID",16,guesco,GUESCO,z,,,,,,0.221122112,-0.315181518,0,0,0,,0,26,26,323,1,,
,,,,,,,,,,,,,,,,,,999,2020-11-26_11h43.00.107,lexical_decision_task_MP_exp2,2020.2.5,Win32,60,,0,,,,,,,,0.184,-1,,,,,,72,WORD,"ID",33,bright,BRIGHT,m,,,,,,0.221122112,-0.315181518,0,0,0,,0,27,27,11,1,,
,,,,,,,,,,,,,,,,,,999,2020-11-26_11h43.00.107,lexical_decision_task_MP_exp2,2020.2.5,Win32,60,,0,,,,,,,,0.184,-1,,,,,,120,WORD,"ID",33,strain,STRAIN,m,,,,,,0.221122112,-0.315181518,0,0,0,,0,28,28,59,1,,
,,,,,,,,,,,,,,,,,,999,2020-11-26_11h43.00.107,lexical_decision_task_MP_exp2,2020.2.5,Win32,60,,0,,,,,,,,0.184,-1,,,,,,43,WORD,UN,16,foster,TONGUE,m,,,,,,0.221122112,-0.315181518,0,0,0,,0,29,29,222,1,,
,,,,,,,,,,,,,,,,,,999,2020-11-26_11h43.00.107,lexical_decision_task_MP_exp2,2020.2.5,Win32,60,,0,,,,,,,,0.184,-1,,,,,,316,NW,"ID",33,scregm,SCREGM,z,,,,,,0.221122112,-0.315181518,0,0,0,,0,30,30,255,1,,
,,,,,,,,,,,,,,,,,,999,2020-11-26_11h43.00.107,lexical_decision_task_MP_exp2,2020.2.5,Win32,60,,0,,,,,,,,0.184,-1,,,,,,158,WORD,"ID",16,island,ISLAND,m,,,,,,0.221122112,-0.315181518,0,0,0,,0,31,31,97,1,,
,,,,,,,,,,,,,,,,,,999,2020-11-26_11h43.00.107,lexical_decision_task_MP_exp2,2020.2.5,Win32,60,,0,,,,,,,,0.184,-1,,,,,,258,NW,UN,16,soudal,POLUTH,z,,,,,,0.221122112,-0.315181518,0,0,0,,0,32,32,437,1,,
,,,,,,,,,,,,,,,,,,999,2020-11-26_11h43.00.107,lexical_decision_task_MP_exp2,2020.2.5,Win32,60,,0,,,,,,,,0.184,-1,,,,,,330,NW,"ID",33,kensom,KENSOM,z,,,,,,0.221122112,-0.315181518,0,0,0,,0,33,33,269,1,,
,,,,,,,,,,,,,,,,,,999,2020-11-26_11h43.00.107,lexical_decision_task_MP_exp2,2020.2.5,Win32,60,,0,,,,,,,,0.184,-1,,,,,,26,WORD,UN,16,butler,SPRINT,m,,,,,,0.221122112,-0.315181518,0,0,0,,0,34,34,205,1,,
,,,,,,,,,,,,,,,,,,999,2020-11-26_11h43.00.107,lexical_decision_task_MP_exp2,2020.2.5,Win32,60,,0,,,,,,,,0.184,-1,,,,,,426,NW,UN,33,schind,URIVEL,z,,,,,,0.221122112,-0.315181518,0,0,0,,0,35,35,365,1,,
,,,,,,,,,,,,,,,,,,999,2020-11-26_11h43.00.107,lexical_decision_task_MP_exp2,2020.2.5,Win32,60,,0,,,,,,,,0.184,-1,,,,,,46,WORD,UN,16,income,SINGLE,m,,,,,,0.221122112,-0.315181518,0,0,0,,0,36,36,225,1,,
,,,,,,,,,,,,,,,,,,999,2020-11-26_11h43.00.107,lexical_decision_task_MP_exp2,2020.2.5,Win32,60,,0,,,,,,,,0.184,-1,,,,,,269,NW,UN,16,wrimsy,ORCHET,z,,,,,,0.221122112,-0.315181518,0,0,0,,0,37,37,448,1,,
,,,,,,,,,,,,,,,,,,999,2020-11-26_11h43.00.107,lexical_decision_task_MP_exp2,2020.2.5,Win32,60,,0,,,,,,,,0.184,-1,,,,,,183,WORD,UN,33,sleazy,MILDEW,m,,,,,,0.221122112,-0.315181518,0,0,0,,0,38,38,122,1,,
,,,,,,,,,,,,,,,,,,999,2020-11-26_11h43.00.107,lexical_decision_task_MP_exp2,2020.2.5,Win32,60,,0,,,,,,,,0.184,-1,,,,,,210,WORD,UN,33,infect,MONKEY,m,,,,,,0.221122112,-0.315181518,0,0,0,,0,39,39,149,1,,
,,,,,,,,,,,,,,,,,,999,2020-11-26_11h43.00.107,lexical_decision_task_MP_exp2,2020.2.5,Win32,60,,0,,,,,,,,0.184,-1,,,,,,394,NW,"ID",16,spaqux,SPAQUX,z,,,,,,0.221122112,-0.315181518,0,0,0,,0,40,40,333,1,,
,,,,,,,,,,,,,,,,,,999,2020-11-26_11h43.00.107,lexical_decision_task_MP_exp2,2020.2.5,Win32,60,,0,,,,,,,,0.184,-1,,,,,,41,WORD,UN,16,chapel,SPRING,m,,,,,,0.221122112,-0.315181518,0,0,0,,0,41,41,220,1,,
,,,,,,,,,,,,,,,,,,999,2020-11-26_11h43.00.107,lexical_decision_task_MP_exp2,2020.2.5,Win32,60,,0,,,,,,,,0.184,-1,,,,,,351,NW,"ID",33,tiesch,TIESCH,z,,,,,,0.221122112,-0.315181518,0,0,0,,0,42,42,290,1,,
,,,,,,,,,,,,,,,,,,999,2020-11-26_11h43.00.107,lexical_decision_task_MP_exp2,2020.2.5,Win32,60,,0,,,,,,,,0.184,-1,,,,,,442,NW,UN,33,dorsex,ABOUNE,z,,,,,,0.221122112,-0.315181518,0,0,0,,0,43,43,381,1,,
,,,,,,,,,,,,,,,,,,999,2020-11-26_11h43.00.107,lexical_decision_task_MP_exp2,2020.2.5,Win32,60,,0,,,,,,,,0.184,-1,,,,,,139,WORD,"ID",16,debris,DEBRIS,m,,,,,,0.221122112,-0.315181518,0,0,0,,0,44,44,78,1,,
,,,,,,,,,,,,,,,,,,999,2020-11-26_11h43.00.107,lexical_decision_task_MP_exp2,2020.2.5,Win32,60,,0,,,,,,,,0.184,-1,,,,,,322,NW,"ID",33,slanch,SLANCH,z,,,,,,0.221122112,-0.315181518,0,0,0,,0,45,45,261,1,,
,,,,,,,,,,,,,,,,,,999,2020-11-26_11h43.00.107,lexical_decision_task_MP_exp2,2020.2.5,Win32,60,,0,,,,,,,,0.184,-1,,,,,,78,WORD,"ID",33,column,COLUMN,m,,,,,,0.221122112,-0.315181518,0,0,0,,0,46,46,17,1,,
,,,,,,,,,,,,,,,,,,999,2020-11-26_11h43.00.107,lexical_decision_task_MP_exp2,2020.2.5,Win32,60,,0,,,,,,,,0.184,-1,,,,,,40,WORD,UN,16,spring,CONVEY,m,,,,,,0.221122112,-0.315181518,0,0,0,,0,47,47,219,1,,
,,,,,,,,,,,,,,,,,,999,2020-11-26_11h43.00.107,lexical_decision_task_MP_exp2,2020.2.5,Win32,60,,0,,,,,,,,0.184,-1,,,,,,459,NW,UN,33,mingar,BAFENT,z,,,,,,0.221122112,-0.315181518,0,0,0,,0,48,48,398,1,,
,,,,,,,,,,,,,,,,,,999,2020-11-26_11h43.00.107,lexical_decision_task_MP_exp2,2020.2.5,Win32,60,,0,,,,,,,,0.184,-1,,,,,,211,WORD,UN,33,verify,INFECT,m,,,,,,0.221122112,-0.315181518,0,0,0,,0,49,49,150,1,,
,,,,,,,,,,,,,,,,,,999,2020-11-26_11h43.00.107,lexical_decision_task_MP_exp2,2020.2.5,Win32,60,,0,,,,,,,,0.184,-1,,,,,,143,WORD,"ID",16,reason,REASON,m,,,,,,0.221122112,-0.315181518,0,0,0,,0,50,50,82,1,,
,,,,,,,,,,,,,,,,,,999,2020-11-26_11h43.00.107,lexical_decision_task_MP_exp2,2020.2.5,Win32,60,,0,,,,,,,,0.184,-1,,,,,,393,NW,"ID",16,ganous,GANOUS,z,,,,,,0.221122112,-0.315181518,0,0,0,,0,51,51,332,1,,
,,,,,,,,,,,,,,,,,,999,2020-11-26_11h43.00.107,lexical_decision_task_MP_exp2,2020.2.5,Win32,60,,0,,,,,,,,0.184,-1,,,,,,279,NW,UN,16,curbol,CELOND,z,,,,,,0.221122112,-0.315181518,0,0,0,,0,52,52,458,1,,
,,,,,,,,,,,,,,,,,,999,2020-11-26_11h43.00.107,lexical_decision_task_MP_exp2,2020.2.5,Win32,60,,0,,,,,,,,0.184,-1,,,,,,49,WORD,UN,16,snatch,SURVEY,m,,,,,,0.221122112,-0.315181518,0,0,0,,0,53,53,228,1,,
,,,,,,,,,,,,,,,,,,999,2020-11-26_11h43.00.107,lexical_decision_task_MP_exp2,2020.2.5,Win32,60,,0,,,,,,,,0.184,-1,,,,,,329,NW,"ID",33,yarike,YARIKE,z,,,,,,0.221122112,-0.315181518,0,0,0,,0,54,54,268,1,,
,,,,,,,,,,,,,,,,,,999,2020-11-26_11h43.00.107,lexical_decision_task_MP_exp2,2020.2.5,Win32,60,,0,,,,,,,,0.184,-1,,,,,,302,NW,"ID",33,miluer,MILUER,z,,,,,,0.221122112,-0.315181518,0,0,0,,0,55,55,241,1,,
,,,,,,,,,,,,,,,,,,999,2020-11-26_11h43.00.107,lexical_decision_task_MP_exp2,2020.2.5,Win32,60,,0,,,,,,,,0.184,-1,,,,,,268,NW,UN,16,orchet,PACKES,z,,,,,,0.221122112,-0.315181518,0,0,0,,0,56,56,447,1,,
,,,,,,,,,,,,,,,,,,999,2020-11-26_11h43.00.107,lexical_decision_task_MP_exp2,2020.2.5,Win32,60,,0,,,,,,,,0.184,-1,,,,,,192,WORD,UN,33,object,PLAGUE,m,,,,,,0.221122112,-0.315181518,0,0,0,,0,57,57,131,1,,
,,,,,,,,,,,,,,,,,,999,2020-11-26_11h43.00.107,lexical_decision_task_MP_exp2,2020.2.5,Win32,60,,0,,,,,,,,0.184,-1,,,,,,207,WORD,UN,33,hockey,WREATH,m,,,,,,0.221122112,-0.315181518,0,0,0,,0,58,58,146,1,,
,,,,,,,,,,,,,,,,,,999,2020-11-26_11h43.00.107,lexical_decision_task_MP_exp2,2020.2.5,Win32,60,,0,,,,,,,,0.184,-1,,,,,,475,NW,UN,33,josted,PEBRIC,z,,,,,,0.221122112,-0.315181518,0,0,0,,0,59,59,414,1,,
,,,,,,,,,,,,,,,,,,999,2020-11-26_11h43.00.107,lexical_decision_task_MP_exp2,2020.2.5,Win32,60,,0,,,,,,,,0.184,-1,,,,,,59,WORD,UN,16,pencil,SPLINT,m,,,,,,0.221122112,-0.315181518,0,0,0,,0,60,60,238,1,,
,,,,,,,,,,,,,,,,,,999,2020-11-26_11h43.00.107,lexical_decision_task_MP_exp2,2020.2.5,Win32,60,,0,,,,,,,,0.184,-1,,,,,,265,NW,UN,16,varmit,DISTAR,z,,,,,,0.221122112,-0.315181518,0,0,0,,0,61,61,444,1,,
,,,,,,,,,,,,,,,,,,999,2020-11-26_11h43.00.107,lexical_decision_task_MP_exp2,2020.2.5,Win32,60,,0,,,,,,,,0.184,-1,,,,,,124,WORD,"ID",16,blouse,BLOUSE,m,,,,,,0.221122112,-0.315181518,0,0,0,,0,62,62,63,1,,
,,,,,,,,,,,,,,,,,,999,2020-11-26_11h43.00.107,lexical_decision_task_MP_exp2,2020.2.5,Win32,60,,0,,,,,,,,0.184,-1,,,,,,354,NW,"ID",33,virlex,VIRLEX,z,,,,,,0.221122112,-0.315181518,0,0,0,,0,63,63,293,1,,
,,,,,,,,,,,,,,,,,,999,2020-11-26_11h43.00.107,lexical_decision_task_MP_exp2,2020.2.5,Win32,60,,0,,,,,,,,0.184,-1,,,,,,77,WORD,"ID",33,racket,RACKET,m,,,,,,0.221122112,-0.315181518,0,0,0,,0,64,64,16,1,,
,,,,,,,,,,,,,,,,,,999,2020-11-26_11h43.00.107,lexical_decision_task_MP_exp2,2020.2.5,Win32,60,,0,,,,,,,,0.184,-1,,,,,,295,NW,UN,16,beinch,GLEATH,z,,,,,,0.221122112,-0.315181518,0,0,0,,0,65,65,474,1,,
,,,,,,,,,,,,,,,,,,999,2020-11-26_11h43.00.107,lexical_decision_task_MP_exp2,2020.2.5,Win32,60,,0,,,,,,,,0.184,-1,,,,,,230,WORD,UN,33,mother,FRINGE,m,,,,,,0.221122112,-0.315181518,0,0,0,,0,66,66,169,1,,
,,,,,,,,,,,,,,,,,,999,2020-11-26_11h43.00.107,lexical_decision_task_MP_exp2,2020.2.5,Win32,60,,0,,,,,,,,0.184,-1,,,,,,92,WORD,"ID",33,strand,STRAND,m,,,,,,0.221122112,-0.315181518,0,0,0,,0,67,67,31,1,,
,,,,,,,,,,,,,,,,,,999,2020-11-26_11h43.00.107,lexical_decision_task_MP_exp2,2020.2.5,Win32,60,,0,,,,,,,,0.184,-1,,,,,,194,WORD,UN,33,resign,ABSENT,m,,,,,,0.221122112,-0.315181518,0,0,0,,0,68,68,133,1,,
,,,,,,,,,,,,,,,,,,999,2020-11-26_11h43.00.107,lexical_decision_task_MP_exp2,2020.2.5,Win32,60,,0,,,,,,,,0.184,-1,,,,,,106,WORD,"ID",33,ransom,RANSOM,m,,,,,,0.221122112,-0.315181518,0,0,0,,0,69,69,45,1,,
,,,,,,,,,,,,,,,,,,999,2020-11-26_11h43.00.107,lexical_decision_task_MP_exp2,2020.2.5,Win32,60,,0,,,,,,,,0.184,-1,,,,,,257,NW,UN,16,poluth,VENIOD,z,,,,,,0.221122112,-0.315181518,0,0,0,,0,70,70,436,1,,
,,,,,,,,,,,,,,,,,,999,2020-11-26_11h43.00.107,lexical_decision_task_MP_exp2,2020.2.5,Win32,60,,0,,,,,,,,0.184,-1,,,,,,182,WORD,UN,33,absent,WINTER,m,,,,,,0.221122112,-0.315181518,0,0,0,,0,71,71,121,1,,
,,,,,,,,,,,,,,,,,,999,2020-11-26_11h43.00.107,lexical_decision_task_MP_exp2,2020.2.5,Win32,60,,0,,,,,,,,0.184,-1,,,,,,145,WORD,"ID",16,parish,PARISH,m,,,,,,0.221122112,-0.315181518,0,0,0,,0,72,72,84,1,,
,,,,,,,,,,,,,,,,,,999,2020-11-26_11h43.00.107,lexical_decision_task_MP_exp2,2020.2.5,Win32,60,,0,,,,,,,,0.184,-1,,,,,,261,NW,UN,16,quilew,STUNCH,z,,,,,,0.221122112,-0.315181518,0,0,0,,0,73,73,440,1,,
,,,,,,,,,,,,,,,,,,999,2020-11-26_11h43.00.107,lexical_decision_task_MP_exp2,2020.2.5,Win32,60,,0,,,,,,,,0.184,-1,,,,,,462,NW,UN,33,kispel,ABSULT,z,,,,,,0.221122112,-0.315181518,0,0,0,,0,74,74,401,1,,
,,,,,,,,,,,,,,,,,,999,2020-11-26_11h43.00.107,lexical_decision_task_MP_exp2,2020.2.5,Win32,60,,0,,,,,,,,0.184,-1,,,,,,453,NW,UN,33,scouge,BOLVIS,z,,,,,,0.221122112,-0.315181518,0,0,0,,0,75,75,392,1,,
,,,,,,,,,,,,,,,,,,999,2020-11-26_11h43.00.107,lexical_decision_task_MP_exp2,2020.2.5,Win32,60,,0,,,,,,,,0.184,-1,,,,,,460,NW,UN,33,justre,MINGAR,z,,,,,,0.221122112,-0.315181518,0,0,0,,0,76,76,399,1,,
,,,,,,,,,,,,,,,,,,999,2020-11-26_11h43.00.107,lexical_decision_task_MP_exp2,2020.2.5,Win32,60,,0,,,,,,,,0.184,-1,,,,,,241,NW,UN,16,unwert,SMENCO,z,,,,,,0.221122112,-0.315181518,0,0,0,,0,77,77,420,1,,
,,,,,,,,,,,,,,,,,,999,2020-11-26_11h43.00.107,lexical_decision_task_MP_exp2,2020.2.5,Win32,60,,0,,,,,,,,0.184,-1,,,,,,350,NW,"ID",33,nagurs,NAGURS,z,,,,,,0.221122112,-0.315181518,0,0,0,,0,78,78,289,1,,
,,,,,,,,,,,,,,,,,,999,2020-11-26_11h43.00.107,lexical_decision_task_MP_exp2,2020.2.5,Win32,60,,0,,,,,,,,0.184,-1,,,,,,452,NW,UN,33,bolvis,SURDEN,z,,,,,,0.221122112,-0.315181518,0,0,0,,0,79,79,391,1,,
,,,,,,,,,,,,,,,,,,999,2020-11-26_11h43.00.107,lexical_decision_task_MP_exp2,2020.2.5,Win32,60,,0,,,,,,,,0.184,-1,,,,,,104,WORD,"ID",33,studio,STUDIO,m,,,,,,0.221122112,-0.315181518,0,0,0,,0,80,80,43,1,,
,,,,,,,,,,,,,,,,,,999,2020-11-26_11h43.00.107,lexical_decision_task_MP_exp2,2020.2.5,Win32,60,,0,,,,,,,,0.184,-1,,,,,,283,NW,UN,16,shaple,VERALF,z,,,,,,0.221122112,-0.315181518,0,0,0,,0,81,81,462,1,,
,,,,,,,,,,,,,,,,,,999,2020-11-26_11h43.00.107,lexical_decision_task_MP_exp2,2020.2.5,Win32,60,,0,,,,,,,,0.184,-1,,,,,,428,NW,UN,33,funtle,TANDLY,z,,,,,,0.221122112,-0.315181518,0,0,0,,0,82,82,367,1,,
,,,,,,,,,,,,,,,,,,999,2020-11-26_11h43.00.107,lexical_decision_task_MP_exp2,2020.2.5,Win32,60,,0,,,,,,,,0.184,-1,,,,,,233,WORD,UN,33,clumsy,NATURE,m,,,,,,0.221122112,-0.315181518,0,0,0,,0,83,83,172,1,,
,,,,,,,,,,,,,,,,,,999,2020-11-26_11h43.00.107,lexical_decision_task_MP_exp2,2020.2.5,Win32,60,,0,,,,,,,,0.184,-1,,,,,,277,NW,UN,16,unighs,PETAIN,z,,,,,,0.221122112,-0.315181518,0,0,0,,0,84,84,456,1,,
,,,,,,,,,,,,,,,,,,999,2020-11-26_11h43.00.107,lexical_decision_task_MP_exp2,2020.2.5,Win32,60,,0,,,,,,,,0.184,-1,,,,,,319,NW,"ID",33,zomber,ZOMBER,z,,,,,,0.221122112,-0.315181518,0,0,0,,0,85,85,258,1,,
,,,,,,,,,,,,,,,,,,999,2020-11-26_11h43.00.107,lexical_decision_task_MP_exp2,2020.2.5,Win32,60,,0,,,,,,,,0.184,-1,,,,,,196,WORD,UN,33,stream,CREDIT,m,,,,,,0.221122112,-0.315181518,0,0,0,,0,86,86,135,1,,
,,,,,,,,,,,,,,,,,,999,2020-11-26_11h43.00.107,lexical_decision_task_MP_exp2,2020.2.5,Win32,60,,0,,,,,,,,0.184,-1,,,,,,456,NW,UN,33,wanigh,BROGET,z,,,,,,0.221122112,-0.315181518,0,0,0,,0,87,87,395,1,,
,,,,,,,,,,,,,,,,,,999,2020-11-26_11h43.00.107,lexical_decision_task_MP_exp2,2020.2.5,Win32,60,,0,,,,,,,,0.184,-1,,,,,,188,WORD,UN,33,censor,SOCIAL,m,,,,,,0.221122112,-0.315181518,0,0,0,,0,88,88,127,1,,
,,,,,,,,,,,,,,,,,,999,2020-11-26_11h43.00.107,lexical_decision_task_MP_exp2,2020.2.5,Win32,60,,0,,,,,,,,0.184,-1,,,,,,232,WORD,UN,33,nature,INJECT,m,,,,,,0.221122112,-0.315181518,0,0,0,,0,89,89,171,1,,
,,,,,,,,,,,,,,,,,,999,2020-11-26_11h43.00.107,lexical_decision_task_MP_exp2,2020.2.5,Win32,60,,0,,,,,,,,0.184,-1,,,,,,62,WORD,"ID",33,region,REGION,m,,,,,,0.221122112,-0.315181518,0,0,0,,0,90,90,1,1,,
,,,,,,,,,,,,,,,,,,999,2020-11-26_11h43.00.107,lexical_decision_task_MP_exp2,2020.2.5,Win32,60,,0,,,,,,,,0.184,-1,,,,,,315,NW,"ID",33,laston,LASTON,z,,,,,,0.221122112,-0.315181518,0,0,0,,0,91,91,254,1,,
,,,,,,,,,,,,,,,,,,999,2020-11-26_11h43.00.107,lexical_decision_task_MP_exp2,2020.2.5,Win32,60,,0,,,,,,,,0.184,-1,,,,,,284,NW,UN,16,prudge,SHAPLE,z,,,,,,0.221122112,-0.315181518,0,0,0,,0,92,92,463,1,,
,,,,,,,,,,,,,,,,,,999,2020-11-26_11h43.00.107,lexical_decision_task_MP_exp2,2020.2.5,Win32,60,,0,,,,,,,,0.184,-1,,,,,,132,WORD,"ID",16,strong,STRONG,m,,,,,,0.221122112,-0.315181518,0,0,0,,0,93,93,71,1,,
,,,,,,,,,,,,,,,,,,999,2020-11-26_11h43.00.107,lexical_decision_task_MP_exp2,2020.2.5,Win32,60,,0,,,,,,,,0.184,-1,,,,,,376,NW,"ID",16,iguare,IGUARE,z,,,,,,0.221122112,-0.315181518,0,0,0,,0,94,94,315,1,,
,,,,,,,,,,,,,,,,,,999,2020-11-26_11h43.00.107,lexical_decision_task_MP_exp2,2020.2.5,Win32,60,,0,,,,,,,,0.184,-1,,,,,,402,NW,"ID",16,syntic,SYNTIC,z,,,,,,0.221122112,-0.315181518,0,0,0,,0,95,95,341,1,,
,,,,,,,,,,,,,,,,,,999,2020-11-26_11h43.00.107,lexical_decision_task_MP_exp2,2020.2.5,Win32,60,,0,,,,,,,,0.184,-1,,,,,,380,NW,"ID",16,cavory,CAVORY,z,,,,,,0.221122112,-0.315181518,0,0,0,,0,96,96,319,1,,
,,,,,,,,,,,,,,,,,,999,2020-11-26_11h43.00.107,lexical_decision_task_MP_exp2,2020.2.5,Win32,60,,0,,,,,,,,0.184,-1,,,,,,98,WORD,"ID",33,belong,BELONG,m,,,,,,0.221122112,-0.315181518,0,0,0,,0,97,97,37,1,,
,,,,,,,,,,,,,,,,,,999,2020-11-26_11h43.00.107,lexical_decision_task_MP_exp2,2020.2.5,Win32,60,,0,,,,,,,,0.184,-1,,,,,,332,NW,"ID",33,vangue,VANGUE,z,,,,,,0.221122112,-0.315181518,0,0,0,,0,98,98,271,1,,
,,,,,,,,,,,,,,,,,,999,2020-11-26_11h43.00.107,lexical_decision_task_MP_exp2,2020.2.5,Win32,60,,0,,,,,,,,0.184,-1,,,,,,408,NW,"ID",16,hurnia,HURNIA,z,,,,,,0.221122112,-0.315181518,0,0,0,,0,99,99,347,1,,
,,,,,,,,,,,,,,,,,,999,2020-11-26_11h43.00.107,lexical_decision_task_MP_exp2,2020.2.5,Win32,60,,0,,,,,,,,0.184,-1,,,,,,156,WORD,"ID",16,cradle,CRADLE,m,,,,,,0.221122112,-0.315181518,0,0,0,,0,100,100,95,1,,
,,,,,,,,,,,,,,,,,,999,2020-11-26_11h43.00.107,lexical_decision_task_MP_exp2,2020.2.5,Win32,60,,0,,,,,,,,0.184,-1,,,,,,138,WORD,"ID",16,melody,MELODY,m,,,,,,0.221122112,-0.315181518,0,0,0,,0,101,101,77,1,,
,,,,,,,,,,,,,,,,,,999,2020-11-26_11h43.00.107,lexical_decision_task_MP_exp2,2020.2.5,Win32,60,,0,,,,,,,,0.184,-1,,,,,,216,WORD,UN,33,liquor,BEHALF,m,,,,,,0.221122112,-0.315181518,0,0,0,,0,102,102,155,1,,
,,,,,,,,,,,,,,,,,,999,2020-11-26_11h43.00.107,lexical_decision_task_MP_exp2,2020.2.5,Win32,60,,0,,,,,,,,0.184,-1,,,,,,108,WORD,"ID",33,reckon,RECKON,m,,,,,,0.221122112,-0.315181518,0,0,0,,0,103,103,47,1,,
,,,,,,,,,,,,,,,,,,999,2020-11-26_11h43.00.107,lexical_decision_task_MP_exp2,2020.2.5,Win32,60,,0,,,,,,,,0.184,-1,,,,,,251,NW,UN,16,stapod,LUPICT,z,,,,,,0.221122112,-0.315181518,0,0,0,,0,104,104,430,1,,
,,,,,,,,,,,,,,,,,,999,2020-11-26_11h43.00.107,lexical_decision_task_MP_exp2,2020.2.5,Win32,60,,0,,,,,,,,0.184,-1,,,,,,235,WORD,UN,33,pirate,GRUMPY,m,,,,,,0.221122112,-0.315181518,0,0,0,,0,105,105,174,1,,
,,,,,,,,,,,,,,,,,,999,2020-11-26_11h43.00.107,lexical_decision_task_MP_exp2,2020.2.5,Win32,60,,0,,,,,,,,0.184,-1,,,,,,271,NW,UN,16,damilt,AUBRID,z,,,,,,0.221122112,-0.315181518,0,0,0,,0,106,106,450,1,,
,,,,,,,,,,,,,,,,,,999,2020-11-26_11h43.00.107,lexical_decision_task_MP_exp2,2020.2.5,Win32,60,,0,,,,,,,,0.184,-1,,,,,,175,WORD,"ID",16,fabric,FABRIC,m,,,,,,0.221122112,-0.315181518,0,0,0,,0,107,107,114,1,,
,,,,,,,,,,,,,,,,,,999,2020-11-26_11h43.00.107,lexical_decision_task_MP_exp2,2020.2.5,Win32,60,,0,,,,,,,,0.184,-1,,,,,,372,NW,"ID",16,ramily,RAMILY,z,,,,,,0.221122112,-0.315181518,0,0,0,,0,108,108,311,1,,
,,,,,,,,,,,,,,,,,,999,2020-11-26_11h43.00.107,lexical_decision_task_MP_exp2,2020.2.5,Win32,60,,0,,,,,,,,0.184,-1,,,,,,13,WORD,UN,16,almost,STRIVE,m,,,,,,0.221122112,-0.315181518,0,0,0,,0,109,109,192,1,,
,,,,,,,,,,,,,,,,,,999,2020-11-26_11h43.00.107,lexical_decision_task_MP_exp2,2020.2.5,Win32,60,,0,,,,,,,,0.184,-1,,,,,,361,NW,"ID",16,pauche,PAUCHE,z,,,,,,0.221122112,-0.315181518,0,0,0,,0,110,110,300,1,,
,,,,,,,,,,,,,,,,,,999,2020-11-26_11h43.00.107,lexical_decision_task_MP_exp2,2020.2.5,Win32,60,,0,,,,,,,,0.184,-1,,,,,,287,NW,UN,16,yaceup,NYMBEL,z,,,,,,0.221122112,-0.315181518,0,0,0,,0,111,111,466,1,,
,,,,,,,,,,,,,,,,,,999,2020-11-26_11h43.00.107,lexical_decision_task_MP_exp2,2020.2.5,Win32,60,,0,,,,,,,,0.184,-1,,,,,,320,NW,"ID",33,jockal,JOCKAL,z,,,,,,0.221122112,-0.315181518,0,0,0,,0,112,112,259,1,,
,,,,,,,,,,,,,,,,,,999,2020-11-26_11h43.00.107,lexical_decision_task_MP_exp2,2020.2.5,Win32,60,,0,,,,,,,,0.184,-1,,,,,,91,WORD,"ID",33,expand,EXPAND,m,,,,,,0.221122112,-0.315181518,0,0,0,,0,113,113,30,1,,
,,,,,,,,,,,,,,,,,,999,2020-11-26_11h43.00.107,lexical_decision_task_MP_exp2,2020.2.5,Win32,60,,0,,,,,,,,0.184,-1,,,,,,254,NW,UN,16,apight,VAROSH,z,,,,,,0.221122112,-0.315181518,0,0,0,,0,114,114,433,1,,
,,,,,,,,,,,,,,,,,,999,2020-11-26_11h43.00.107,lexical_decision_task_MP_exp2,2020.2.5,Win32,60,,0,,,,,,,,0.184,-1,,,,,,176,WORD,"ID",16,strife,STRIFE,m,,,,,,0.221122112,-0.315181518,0,0,0,,0,115,115,115,1,,
,,,,,,,,,,,,,,,,,,999,2020-11-26_11h43.00.107,lexical_decision_task_MP_exp2,2020.2.5,Win32,60,,0,,,,,,,,0.184,-1,,,,,,63,WORD,"ID",33,launch,LAUNCH,m,,,,,,0.221122112,-0.315181518,0,0,0,,0,116,116,2,1,,
,,,,,,,,,,,,,,,,,,999,2020-11-26_11h43.00.107,lexical_decision_task_MP_exp2,2020.2.5,Win32,60,,0,,,,,,,,0.184,-1,,,,,,388,NW,"ID",16,cragin,CRAGIN,z,,,,,,0.221122112,-0.315181518,0,0,0,,0,117,117,327,1,,
,,,,,,,,,,,,,,,,,,999,2020-11-26_11h43.00.107,lexical_decision_task_MP_exp2,2020.2.5,Win32,60,,0,,,,,,,,0.184,-1,,,,,,94,WORD,"ID",33,travel,TRAVEL,m,,,,,,0.221122112,-0.315181518,0,0,0,,0,118,118,33,1,,
,,,,,,,,,,,,,,,,,,999,2020-11-26_11h43.00.107,lexical_decision_task_MP_exp2,2020.2.5,Win32,60,,0,,,,,,,,0.184,-1,,,,,,285,NW,UN,16,reldon,PRUDGE,z,,,,,,0.04950495,-0.354785479,1,0,0,,0,119,119,464,1,,break_done_button
,,,,,,,,,,,,,,,,,,999,2020-11-26_11h43.00.107,lexical_decision_task_MP_exp2,2020.2.5,Win32,60,,0,,,,,,,,0.184,-1,,,,,,448,NW,UN,33,brunge,SADENT,z,,,,,,0,-0.367986799,0,0,0,,0,120,120,387,1,,
,,,,,,,,,,,,,,,,,,999,2020-11-26_11h43.00.107,lexical_decision_task_MP_exp2,2020.2.5,Win32,60,,0,,,,,,,,0.184,-1,,,,,,239,WORD,UN,33,forest,LUMBER,m,,,,,,0,-0.367986799,0,0,0,,0,121,121,178,1,,
,,,,,,,,,,,,,,,,,,999,2020-11-26_11h43.00.107,lexical_decision_task_MP_exp2,2020.2.5,Win32,60,,0,,,,,,,,0.184,-1,,,,,,273,NW,UN,16,fumblo,SORTEL,z,,,,,,0,-0.367986799,0,0,0,,0,122,122,452,1,,
,,,,,,,,,,,,,,,,,,999,2020-11-26_11h43.00.107,lexical_decision_task_MP_exp2,2020.2.5,Win32,60,,0,,,,,,,,0.184,-1,,,,,,35,WORD,UN,16,vanish,SOCKET,m,,,,,,0,-0.367986799,0,0,0,,0,123,123,214,1,,
,,,,,,,,,,,,,,,,,,999,2020-11-26_11h43.00.107,lexical_decision_task_MP_exp2,2020.2.5,Win32,60,,0,,,,,,,,0.184,-1,,,,,,292,NW,UN,16,swance,ABLINT,z,,,,,,0,-0.367986799,0,0,0,,0,124,124,471,1,,
,,,,,,,,,,,,,,,,,,999,2020-11-26_11h43.00.107,lexical_decision_task_MP_exp2,2020.2.5,Win32,60,,0,,,,,,,,0.184,-1,,,,,,306,NW,"ID",33,sounge,SOUNGE,z,,,,,,-0.805280528,-0.48349835,0,0,0,,0,125,125,245,1,,
,,,,,,,,,,,,,,,,,,999,2020-11-26_11h43.00.107,lexical_decision_task_MP_exp2,2020.2.5,Win32,60,,0,,,,,,,,0.184,-1,,,,,,95,WORD,"ID",33,thread,THREAD,m,,,,,,-0.805280528,-0.48349835,0,0,0,,0,126,126,34,1,,
,,,,,,,,,,,,,,,,,,999,2020-11-26_11h43.00.107,lexical_decision_task_MP_exp2,2020.2.5,Win32,60,,0,,,,,,,,0.184,-1,,,,,,165,WORD,"ID",16,invest,INVEST,m,,,,,,-0.805280528,-0.48349835,0,0,0,,0,127,127,104,1,,
,,,,,,,,,,,,,,,,,,999,2020-11-26_11h43.00.107,lexical_decision_task_MP_exp2,2020.2.5,Win32,60,,0,,,,,,,,0.184,-1,,,,,,474,NW,UN,33,acrise,HABLIN,z,,,,,,-0.805280528,-0.48349835,0,0,0,,0,128,128,413,1,,
,,,,,,,,,,,,,,,,,,999,2020-11-26_11h43.00.107,lexical_decision_task_MP_exp2,2020.2.5,Win32,60,,0,,,,,,,,0.184,-1,,,,,,153,WORD,"ID",16,behold,BEHOLD,m,,,,,,-0.805280528,-0.48349835,0,0,0,,0,129,129,92,1,,
,,,,,,,,,,,,,,,,,,999,2020-11-26_11h43.00.107,lexical_decision_task_MP_exp2,2020.2.5,Win32,60,,0,,,,,,,,0.184,-1,,,,,,24,WORD,UN,16,domain,PRAISE,m,,,,,,-0.805280528,-0.48349835,0,0,0,,0,130,130,203,1,,
,,,,,,,,,,,,,,,,,,999,2020-11-26_11h43.00.107,lexical_decision_task_MP_exp2,2020.2.5,Win32,60,,0,,,,,,,,0.184,-1,,,,,,397,NW,"ID",16,camble,CAMBLE,z,,,,,,-0.805280528,-0.48349835,0,0,0,,0,131,131,336,1,,
,,,,,,,,,,,,,,,,,,999,2020-11-26_11h43.00.107,lexical_decision_task_MP_exp2,2020.2.5,Win32,60,,0,,,,,,,,0.184,-1,,,,,,425,NW,UN,33,urivel,FRUDGE,z,,,,,,-0.805280528,-0.48349835,0,0,0,,0,132,132,364,1,,
,,,,,,,,,,,,,,,,,,999,2020-11-26_11h43.00.107,lexical_decision_task_MP_exp2,2020.2.5,Win32,60,,0,,,,,,,,0.184,-1,,,,,,445,NW,UN,33,runamo,MINKEL,z,,,,,,-0.805280528,-0.48349835,0,0,0,,0,133,133,384,1,,
,,,,,,,,,,,,,,,,,,999,2020-11-26_11h43.00.107,lexical_decision_task_MP_exp2,2020.2.5,Win32,60,,0,,,,,,,,0.184,-1,,,,,,47,WORD,UN,16,walnut,INCOME,m,,,,,,-0.805280528,-0.48349835,0,0,0,,0,134,134,226,1,,
,,,,,,,,,,,,,,,,,,999,2020-11-26_11h43.00.107,lexical_decision_task_MP_exp2,2020.2.5,Win32,60,,0,,,,,,,,0.184,-1,,,,,,386,NW,"ID",16,ancust,ANCUST,z,,,,,,-0.805280528,-0.48349835,0,0,0,,0,135,135,325,1,,
,,,,,,,,,,,,,,,,,,999,2020-11-26_11h43.00.107,lexical_decision_task_MP_exp2,2020.2.5,Win32,60,,0,,,,,,,,0.184,-1,,,,,,291,NW,UN,16,ablint,PRETCH,z,,,,,,-0.805280528,-0.48349835,0,0,0,,0,136,136,470,1,,
,,,,,,,,,,,,,,,,,,999,2020-11-26_11h43.00.107,lexical_decision_task_MP_exp2,2020.2.5,Win32,60,,0,,,,,,,,0.184,-1,,,,,,215,WORD,UN,33,lumber,PHOBIA,m,,,,,,-0.805280528,-0.48349835,0,0,0,,0,137,137,154,1,,
,,,,,,,,,,,,,,,,,,999,2020-11-26_11h43.00.107,lexical_decision_task_MP_exp2,2020.2.5,Win32,60,,0,,,,,,,,0.184,-1,,,,,,166,WORD,"ID",16,starch,STARCH,m,,,,,,-0.805280528,-0.48349835,0,0,0,,0,138,138,105,1,,
,,,,,,,,,,,,,,,,,,999,2020-11-26_11h43.00.107,lexical_decision_task_MP_exp2,2020.2.5,Win32,60,,0,,,,,,,,0.184,-1,,,,,,3,WORD,UN,16,trench,KNIGHT,m,,,,,,-0.805280528,-0.48349835,0,0,0,,0,139,139,182,1,,
,,,,,,,,,,,,,,,,,,999,2020-11-26_11h43.00.107,lexical_decision_task_MP_exp2,2020.2.5,Win32,60,,0,,,,,,,,0.184,-1,,,,,,246,NW,UN,16,blarge,PIATON,z,,,,,,-0.805280528,-0.48349835,0,0,0,,0,140,140,425,1,,
,,,,,,,,,,,,,,,,,,999,2020-11-26_11h43.00.107,lexical_decision_task_MP_exp2,2020.2.5,Win32,60,,0,,,,,,,,0.184,-1,,,,,,280,NW,UN,16,melaty,CURBOL,z,,,,,,-0.805280528,-0.48349835,0,0,0,,0,141,141,459,1,,
,,,,,,,,,,,,,,,,,,999,2020-11-26_11h43.00.107,lexical_decision_task_MP_exp2,2020.2.5,Win32,60,,0,,,,,,,,0.184,-1,,,,,,382,NW,"ID",16,sarley,SARLEY,z,,,,,,-0.805280528,-0.48349835,0,0,0,,0,142,142,321,1,,
,,,,,,,,,,,,,,,,,,999,2020-11-26_11h43.00.107,lexical_decision_task_MP_exp2,2020.2.5,Win32,60,,0,,,,,,,,0.184,-1,,,,,,365,NW,"ID",16,guairt,GUAIRT,z,,,,,,-0.805280528,-0.48349835,0,0,0,,0,143,143,304,1,,
,,,,,,,,,,,,,,,,,,999,2020-11-26_11h43.00.107,lexical_decision_task_MP_exp2,2020.2.5,Win32,60,,0,,,,,,,,0.184,-1,,,,,,147,WORD,"ID",16,garlic,GARLIC,m,,,,,,-0.805280528,-0.48349835,0,0,0,,0,144,144,86,1,,
,,,,,,,,,,,,,,,,,,999,2020-11-26_11h43.00.107,lexical_decision_task_MP_exp2,2020.2.5,Win32,60,,0,,,,,,,,0.184,-1,,,,,,42,WORD,UN,16,tongue,CHAPEL,m,,,,,,-0.805280528,-0.48349835,0,0,0,,0,145,145,221,1,,
,,,,,,,,,,,,,,,,,,999,2020-11-26_11h43.00.107,lexical_decision_task_MP_exp2,2020.2.5,Win32,60,,0,,,,,,,,0.184,-1,,,,,,2,WORD,UN,16,knight,BRIDGE,m,,,,,,-0.805280528,-0.48349835,0,0,0,,0,146,146,181,1,,
,,,,,,,,,,,,,,,,,,999,2020-11-26_11h43.00.107,lexical_decision_task_MP_exp2,2020.2.5,Win32,60,,0,,,,,,,,0.184,-1,,,,,,432,NW,UN,33,drance,LUNKER,z,,,,,,-0.805280528,-0.48349835,0,0,0,,0,147,147,371,1,,
,,,,,,,,,,,,,,,,,,999,2020-11-26_11h43.00.107,lexical_decision_task_MP_exp2,2020.2.5,Win32,60,,0,,,,,,,,0.184,-1,,,,,,31,WORD,UN,16,buckle,WEAPON,m,,,,,,-0.805280528,-0.48349835,0,0,0,,0,148,148,210,1,,
,,,,,,,,,,,,,,,,,,999,2020-11-26_11h43.00.107,lexical_decision_task_MP_exp2,2020.2.5,Win32,60,,0,,,,,,,,0.184,-1,,,,,,266,NW,UN,16,pasink,VARMIT,z,,,,,,-0.805280528,-0.48349835,0,0,0,,0,149,149,445,1,,
,,,,,,,,,,,,,,,,,,999,2020-11-26_11h43.00.107,lexical_decision_task_MP_exp2,2020.2.5,Win32,60,,0,,,,,,,,0.184,-1,,,,,,413,NW,"ID",16,equats,EQUATS,z,,,,,,-0.805280528,-0.48349835,0,0,0,,0,150,150,352,1,,
,,,,,,,,,,,,,,,,,,999,2020-11-26_11h43.00.107,lexical_decision_task_MP_exp2,2020.2.5,Win32,60,,0,,,,,,,,0.184,-1,,,,,,203,WORD,UN,33,burden,PHRASE,m,,,,,,-0.805280528,-0.48349835,0,0,0,,0,151,151,142,1,,
,,,,,,,,,,,,,,,,,,999,2020-11-26_11h43.00.107,lexical_decision_task_MP_exp2,2020.2.5,Win32,60,,0,,,,,,,,0.184,-1,,,,,,205,WORD,UN,33,tailor,LOUNGE,m,,,,,,-0.805280528,-0.48349835,0,0,0,,0,152,152,144,1,,
,,,,,,,,,,,,,,,,,,999,2020-11-26_11h43.00.107,lexical_decision_task_MP_exp2,2020.2.5,Win32,60,,0,,,,,,,,0.184,-1,,,,,,122,WORD,"ID",16,linger,LINGER,m,,,,,,-0.805280528,-0.48349835,0,0,0,,0,153,153,61,1,,
,,,,,,,,,,,,,,,,,,999,2020-11-26_11h43.00.107,lexical_decision_task_MP_exp2,2020.2.5,Win32,60,,0,,,,,,,,0.184,-1,,,,,,39,WORD,UN,16,convey,INSECT,m,,,,,,-0.805280528,-0.48349835,0,0,0,,0,154,154,218,1,,
,,,,,,,,,,,,,,,,,,999,2020-11-26_11h43.00.107,lexical_decision_task_MP_exp2,2020.2.5,Win32,60,,0,,,,,,,,0.184,-1,,,,,,317,NW,"ID",33,worbal,WORBAL,z,,,,,,-0.805280528,-0.48349835,0,0,0,,0,155,155,256,1,,
,,,,,,,,,,,,,,,,,,999,2020-11-26_11h43.00.107,lexical_decision_task_MP_exp2,2020.2.5,Win32,60,,0,,,,,,,,0.184,-1,,,,,,168,WORD,"ID",16,answer,ANSWER,m,,,,,,-0.805280528,-0.48349835,0,0,0,,0,156,156,107,1,,
,,,,,,,,,,,,,,,,,,999,2020-11-26_11h43.00.107,lexical_decision_task_MP_exp2,2020.2.5,Win32,60,,0,,,,,,,,0.184,-1,,,,,,395,NW,"ID",16,colury,COLURY,z,,,,,,-0.805280528,-0.48349835,0,0,0,,0,157,157,334,1,,
,,,,,,,,,,,,,,,,,,999,2020-11-26_11h43.00.107,lexical_decision_task_MP_exp2,2020.2.5,Win32,60,,0,,,,,,,,0.184,-1,,,,,,307,NW,"ID",33,kirafe,KIRAFE,z,,,,,,-0.805280528,-0.48349835,0,0,0,,0,158,158,246,1,,
,,,,,,,,,,,,,,,,,,999,2020-11-26_11h43.00.107,lexical_decision_task_MP_exp2,2020.2.5,Win32,60,,0,,,,,,,,0.184,-1,,,,,,180,WORD,"ID",16,silent,SILENT,m,,,,,,-0.805280528,-0.48349835,0,0,0,,0,159,159,119,1,,
,,,,,,,,,,,,,,,,,,999,2020-11-26_11h43.00.107,lexical_decision_task_MP_exp2,2020.2.5,Win32,60,,0,,,,,,,,0.184,-1,,,,,,117,WORD,"ID",33,branch,BRANCH,m,,,,,,-0.805280528,-0.48349835,0,0,0,,0,160,160,56,1,,
,,,,,,,,,,,,,,,,,,999,2020-11-26_11h43.00.107,lexical_decision_task_MP_exp2,2020.2.5,Win32,60,,0,,,,,,,,0.184,-1,,,,,,193,WORD,UN,33,mildew,OBJECT,m,,,,,,-0.805280528,-0.48349835,0,0,0,,0,161,161,132,1,,
,,,,,,,,,,,,,,,,,,999,2020-11-26_11h43.00.107,lexical_decision_task_MP_exp2,2020.2.5,Win32,60,,0,,,,,,,,0.184,-1,,,,,,151,WORD,"ID",16,mystic,MYSTIC,m,,,,,,-0.805280528,-0.48349835,0,0,0,,0,162,162,90,1,,
,,,,,,,,,,,,,,,,,,999,2020-11-26_11h43.00.107,lexical_decision_task_MP_exp2,2020.2.5,Win32,60,,0,,,,,,,,0.184,-1,,,,,,10,WORD,UN,16,cruise,ETHNIC,m,,,,,,-0.805280528,-0.48349835,0,0,0,,0,163,163,189,1,,
,,,,,,,,,,,,,,,,,,999,2020-11-26_11h43.00.107,lexical_decision_task_MP_exp2,2020.2.5,Win32,60,,0,,,,,,,,0.184,-1,,,,,,223,WORD,UN,33,period,KIDNEY,m,,,,,,-0.805280528,-0.48349835,0,0,0,,0,164,164,162,1,,
,,,,,,,,,,,,,,,,,,999,2020-11-26_11h43.00.107,lexical_decision_task_MP_exp2,2020.2.5,Win32,60,,0,,,,,,,,0.184,-1,,,,,,6,WORD,UN,16,anchor,BUNDLE,m,,,,,,-0.805280528,-0.48349835,0,0,0,,0,165,165,185,1,,
,,,,,,,,,,,,,,,,,,999,2020-11-26_11h43.00.107,lexical_decision_task_MP_exp2,2020.2.5,Win32,60,,0,,,,,,,,0.184,-1,,,,,,86,WORD,"ID",33,rodent,RODENT,m,,,,,,-0.805280528,-0.48349835,0,0,0,,0,166,166,25,1,,
,,,,,,,,,,,,,,,,,,999,2020-11-26_11h43.00.107,lexical_decision_task_MP_exp2,2020.2.5,Win32,60,,0,,,,,,,,0.184,-1,,,,,,423,NW,UN,33,praile,STRELD,z,,,,,,-0.805280528,-0.48349835,0,0,0,,0,167,167,362,1,,
,,,,,,,,,,,,,,,,,,999,2020-11-26_11h43.00.107,lexical_decision_task_MP_exp2,2020.2.5,Win32,60,,0,,,,,,,,0.184,-1,,,,,,342,NW,"ID",33,randow,RANDOW,z,,,,,,-0.805280528,-0.48349835,0,0,0,,0,168,168,281,1,,
,,,,,,,,,,,,,,,,,,999,2020-11-26_11h43.00.107,lexical_decision_task_MP_exp2,2020.2.5,Win32,60,,0,,,,,,,,0.184,-1,,,,,,419,NW,"ID",16,slount,SLOUNT,z,,,,,,-0.805280528,-0.48349835,0,0,0,,0,169,169,358,1,,
,,,,,,,,,,,,,,,,,,999,2020-11-26_11h43.00.107,lexical_decision_task_MP_exp2,2020.2.5,Win32,60,,0,,,,,,,,0.184,-1,,,,,,25,WORD,UN,16,sprint,DOMAIN,m,,,,,,-0.805280528,-0.48349835,0,0,0,,0,170,170,204,1,,
,,,,,,,,,,,,,,,,,,999,2020-11-26_11h43.00.107,lexical_decision_task_MP_exp2,2020.2.5,Win32,60,,0,,,,,,,,0.184,-1,,,,,,362,NW,"ID",16,tireau,TIREAU,z,,,,,,-0.805280528,-0.48349835,0,0,0,,0,171,171,301,1,,
,,,,,,,,,,,,,,,,,,999,2020-11-26_11h43.00.107,lexical_decision_task_MP_exp2,2020.2.5,Win32,60,,0,,,,,,,,0.184,-1,,,,,,140,WORD,"ID",16,prince,PRINCE,m,,,,,,-0.805280528,-0.48349835,0,0,0,,0,172,172,79,1,,
,,,,,,,,,,,,,,,,,,999,2020-11-26_11h43.00.107,lexical_decision_task_MP_exp2,2020.2.5,Win32,60,,0,,,,,,,,0.184,-1,,,,,,208,WORD,UN,33,search,HOCKEY,m,,,,,,-0.805280528,-0.48349835,0,0,0,,0,173,173,147,1,,
,,,,,,,,,,,,,,,,,,999,2020-11-26_11h43.00.107,lexical_decision_task_MP_exp2,2020.2.5,Win32,60,,0,,,,,,,,0.184,-1,,,,,,154,WORD,"ID",16,author,AUTHOR,m,,,,,,-0.805280528,-0.48349835,0,0,0,,0,174,174,93,1,,
,,,,,,,,,,,,,,,,,,999,2020-11-26_11h43.00.107,lexical_decision_task_MP_exp2,2020.2.5,Win32,60,,0,,,,,,,,0.184,-1,,,,,,8,WORD,UN,16,hustle,ABRUPT,m,,,,,,-0.805280528,-0.48349835,0,0,0,,0,175,175,187,1,,
,,,,,,,,,,,,,,,,,,999,2020-11-26_11h43.00.107,lexical_decision_task_MP_exp2,2020.2.5,Win32,60,,0,,,,,,,,0.184,-1,,,,,,461,NW,UN,33,absult,JUSTRE,z,,,,,,-0.805280528,-0.48349835,0,0,0,,0,176,176,400,1,,
,,,,,,,,,,,,,,,,,,999,2020-11-26_11h43.00.107,lexical_decision_task_MP_exp2,2020.2.5,Win32,60,,0,,,,,,,,0.184,-1,,,,,,264,NW,UN,16,distar,VACKEL,z,,,,,,-0.805280528,-0.48349835,0,0,0,,0,177,177,443,1,,
,,,,,,,,,,,,,,,,,,999,2020-11-26_11h43.00.107,lexical_decision_task_MP_exp2,2020.2.5,Win32,60,,0,,,,,,,,0.184,-1,,,,,,327,NW,"ID",33,plenac,PLENAC,z,,,,,,-0.805280528,-0.48349835,0,0,0,,0,178,178,266,1,,
,,,,,,,,,,,,,,,,,,999,2020-11-26_11h43.00.107,lexical_decision_task_MP_exp2,2020.2.5,Win32,60,,0,,,,,,,,0.184,-1,,,,,,309,NW,"ID",33,amiloy,AMILOY,z,,,,,,-0.805280528,-0.48349835,0,0,0,,0,179,179,248,1,,
,,,,,,,,,,,,,,,,,,999,2020-11-26_11h43.00.107,lexical_decision_task_MP_exp2,2020.2.5,Win32,60,,0,,,,,,,,0.184,-1,,,,,,294,NW,UN,16,gleath,INHORT,z,,,,,,-0.805280528,-0.48349835,0,0,0,,0,180,180,473,1,,
,,,,,,,,,,,,,,,,,,999,2020-11-26_11h43.00.107,lexical_decision_task_MP_exp2,2020.2.5,Win32,60,,0,,,,,,,,0.184,-1,,,,,,85,WORD,"ID",33,sprawl,SPRAWL,m,,,,,,-0.805280528,-0.48349835,0,0,0,,0,181,181,24,1,,
,,,,,,,,,,,,,,,,,,999,2020-11-26_11h43.00.107,lexical_decision_task_MP_exp2,2020.2.5,Win32,60,,0,,,,,,,,0.184,-1,,,,,,245,NW,UN,16,piaton,ANOUGS,z,,,,,,-0.805280528,-0.48349835,0,0,0,,0,182,182,424,1,,
,,,,,,,,,,,,,,,,,,999,2020-11-26_11h43.00.107,lexical_decision_task_MP_exp2,2020.2.5,Win32,60,,0,,,,,,,,0.184,-1,,,,,,115,WORD,"ID",33,guitar,GUITAR,m,,,,,,-0.805280528,-0.48349835,0,0,0,,0,183,183,54,1,,
,,,,,,,,,,,,,,,,,,999,2020-11-26_11h43.00.107,lexical_decision_task_MP_exp2,2020.2.5,Win32,60,,0,,,,,,,,0.184,-1,,,,,,102,WORD,"ID",33,direct,DIRECT,m,,,,,,-0.805280528,-0.48349835,0,0,0,,0,184,184,41,1,,
,,,,,,,,,,,,,,,,,,999,2020-11-26_11h43.00.107,lexical_decision_task_MP_exp2,2020.2.5,Win32,60,,0,,,,,,,,0.184,-1,,,,,,259,NW,UN,16,unject,SOUDAL,z,,,,,,-0.805280528,-0.48349835,0,0,0,,0,185,185,438,1,,
,,,,,,,,,,,,,,,,,,999,2020-11-26_11h43.00.107,lexical_decision_task_MP_exp2,2020.2.5,Win32,60,,0,,,,,,,,0.184,-1,,,,,,416,NW,"ID",16,pathel,PATHEL,z,,,,,,-0.805280528,-0.48349835,0,0,0,,0,186,186,355,1,,
,,,,,,,,,,,,,,,,,,999,2020-11-26_11h43.00.107,lexical_decision_task_MP_exp2,2020.2.5,Win32,60,,0,,,,,,,,0.184,-1,,,,,,412,NW,"ID",16,jiluer,JILUER,z,,,,,,-0.805280528,-0.48349835,0,0,0,,0,187,187,351,1,,
,,,,,,,,,,,,,,,,,,999,2020-11-26_11h43.00.107,lexical_decision_task_MP_exp2,2020.2.5,Win32,60,,0,,,,,,,,0.184,-1,,,,,,54,WORD,UN,16,stroke,RAMBLE,m,,,,,,-0.422442244,-0.328382838,0,0,0,,0,188,188,233,1,,
,,,,,,,,,,,,,,,,,,999,2020-11-26_11h43.00.107,lexical_decision_task_MP_exp2,2020.2.5,Win32,60,,0,-0.422442244,-0.328382838,1,0,0,0.097,button_left,0.097,1,,,,,,464,NW,UN,33,whivex,CHAITE,z,,,,,,-0.422442244,-0.328382838,1,0,0,,0,189,189,403,1,,
,,,,,,,,,,,,,,,,,,999,2020-11-26_11h43.00.107,lexical_decision_task_MP_exp2,2020.2.5,Win32,60,,0,0.198019802,-0.328382838,1,0,0,0.232,button_right,0.232,1,,,,,,9,WORD,UN,16,bridge,HUSTLE,m,,,,,,0.323432343,-0.325082508,1,0,0,,0,190,190,188,1,,
,,,,,,,,,,,,,,,,,,999,2020-11-26_11h43.00.107,lexical_decision_task_MP_exp2,2020.2.5,Win32,60,,0,-0.330033003,-0.341584158,1,0,0,0.199,button_left,0.199,0,,,,,,212,WORD,UN,33,squeal,VERIFY,m,,,,,,-0.330033003,-0.341584158,1,0,0,,0,191,191,151,1,,
,,,,,,,,,,,,,,,,,,999,2020-11-26_11h43.00.107,lexical_decision_task_MP_exp2,2020.2.5,Win32,60,m,0,,,,,,,,0.433,0,,,,,,480,NW,UN,33,knisma,ROBULY,z,,,,,,-0.330033003,-0.341584158,0,0,0,,0,192,192,419,1,0.433,
,,,,,,,,,,,,,,,,,,999,2020-11-26_11h43.00.107,lexical_decision_task_MP_exp2,2020.2.5,Win32,60,m,1,,,,,,,,0.005,1,,,,,,34,WORD,UN,16,socket,JUNGLE,m,,,,,,-0.330033003,-0.341584158,0,0,0,,0,193,193,213,1,0.005,
,,,,,,,,,,,,,,,,,,999,2020-11-26_11h43.00.107,lexical_decision_task_MP_exp2,2020.2.5,Win32,60,z,1,,,,,,,,0.028,1,,,,,,403,NW,"ID",16,bruats,BRUATS,z,,,,,,-0.330033003,-0.341584158,0,0,0,,0,194,194,342,1,0.028,
,,,,,,,,,,,,,,,,,,999,2020-11-26_11h43.00.107,lexical_decision_task_MP_exp2,2020.2.5,Win32,60,m,0,,,,,,,,0.138,0,,,,,,390,NW,"ID",16,hatrus,HATRUS,z,,,,,,-0.330033003,-0.341584158,0,0,0,,0,195,195,329,1,0.138,
,,,,,,,,,,,,,,,,,,999,2020-11-26_11h43.00.107,lexical_decision_task_MP_exp2,2020.2.5,Win32,60,z,1,,,,,,,,0.082,1,,,,,,434,NW,UN,33,impurb,PITROM,z,,,,,,-0.330033003,-0.341584158,0,0,0,,0,196,196,373,1,0.082,
,,,,,,,,,,,,,,,,,,999,2020-11-26_11h43.00.107,lexical_decision_task_MP_exp2,2020.2.5,Win32,60,z,0,,,,,,,,0.101,0,,,,,,97,WORD,"ID",33,client,CLIENT,m,,,,,,-0.330033003,-0.341584158,0,0,0,,0,197,197,36,1,0.101,
,,,,,,,,,,,,,,,,,,999,2020-11-26_11h43.00.107,lexical_decision_task_MP_exp2,2020.2.5,Win32,60,z,1,,,,,,,,0.065,1,,,,,,346,NW,"ID",33,saudic,SAUDIC,z,,,,,,-0.330033003,-0.341584158,0,0,0,,0,198,198,285,1,0.065,
,,,,,,,,,,,,,,,,,,999,2020-11-26_11h43.00.107,lexical_decision_task_MP_exp2,2020.2.5,Win32,60,z,1,,,,,,,,0.072,1,,,,,,310,NW,"ID",33,daniet,DANIET,z,,,,,,-0.330033003,-0.341584158,0,0,0,,0,199,199,249,1,0.072,
,,,,,,,,,,,,,,,,,,999,2020-11-26_11h43.00.107,lexical_decision_task_MP_exp2,2020.2.5,Win32,60,z,0,,,,,,,,0.084,0,,,,,,219,WORD,UN,33,voyage,BUCKET,m,,,,,,-0.330033003,-0.341584158,0,0,0,,0,200,200,158,1,0.084,
,,,,,,,,,,,,,,,,,,999,2020-11-26_11h43.00.107,lexical_decision_task_MP_exp2,2020.2.5,Win32,60,z,1,,,,,,,,0.073,1,,,,,,449,NW,UN,33,phrect,BRUNGE,z,,,,,,-0.330033003,-0.341584158,0,0,0,,0,201,201,388,1,0.073,
,,,,,,,,,,,,,,,,,,999,2020-11-26_11h43.00.107,lexical_decision_task_MP_exp2,2020.2.5,Win32,60,z,0,,,,,,,,0.126,0,,,,,,214,WORD,UN,33,phobia,INTAKE,m,,,,,,-0.330033003,-0.341584158,0,0,0,,0,202,202,153,1,0.126,
,,,,,,,,,,,,,,,,,,999,2020-11-26_11h43.00.107,lexical_decision_task_MP_exp2,2020.2.5,Win32,60,m,1,,,,,,,,0.059,1,,,,,,56,WORD,UN,16,change,AMBUSH,m,,,,,,-0.330033003,-0.341584158,0,0,0,,0,203,203,235,1,0.059,
,,,,,,,,,,,,,,,,,,999,2020-11-26_11h43.00.107,lexical_decision_task_MP_exp2,2020.2.5,Win32,60,z,1,,,,,,,,0.044,1,,,,,,256,NW,UN,16,veniod,INLORS,z,,,,,,-0.330033003,-0.341584158,0,0,0,,0,204,204,435,1,0.044,
,,,,,,,,,,,,,,,,,,999,2020-11-26_11h43.00.107,lexical_decision_task_MP_exp2,2020.2.5,Win32,60,z,1,,,,,,,,0.175,1,,,,,,263,NW,UN,16,vackel,DOLICA,z,,,,,,-0.330033003,-0.341584158,0,0,0,,0,205,205,442,1,0.175,
,,,,,,,,,,,,,,,,,,999,2020-11-26_11h43.00.107,lexical_decision_task_MP_exp2,2020.2.5,Win32,60,z,0,,,,,,,,0.061,0,,,,,,19,WORD,UN,16,breast,PATRON,m,,,,,,-0.330033003,-0.341584158,0,0,0,,0,206,206,198,1,0.061,
,,,,,,,,,,,,,,,,,,999,2020-11-26_11h43.00.107,lexical_decision_task_MP_exp2,2020.2.5,Win32,60,z,0,,,,,,,,0.016,0,,,,,,64,WORD,"ID",33,throne,THRONE,m,,,,,,-0.330033003,-0.341584158,0,0,0,,0,207,207,3,1,0.016,
,,,,,,,,,,,,,,,,,,999,2020-11-26_11h43.00.107,lexical_decision_task_MP_exp2,2020.2.5,Win32,60,z,1,,,,,,,,0.092,1,,,,,,267,NW,UN,16,packes,PASINK,z,,,,,,-0.330033003,-0.341584158,0,0,0,,0,208,208,446,1,0.092,
,,,,,,,,,,,,,,,,,,999,2020-11-26_11h43.00.107,lexical_decision_task_MP_exp2,2020.2.5,Win32,60,z,1,,,,,,,,0.106,1,,,,,,293,NW,UN,16,inhort,SWANCE,z,,,,,,-0.330033003,-0.341584158,0,0,0,,0,209,209,472,1,0.106,
,,,,,,,,,,,,,,,,,,999,2020-11-26_11h43.00.107,lexical_decision_task_MP_exp2,2020.2.5,Win32,60,z,1,,,,,,,,0.174,1,,,,,,400,NW,"ID",16,wearox,WEAROX,z,,,,,,-0.330033003,-0.341584158,0,0,0,,0,210,210,339,1,0.174,
,,,,,,,,,,,,,,,,,,999,2020-11-26_11h43.00.107,lexical_decision_task_MP_exp2,2020.2.5,Win32,60,z,1,,,,,,,,0.151,1,,,,,,347,NW,"ID",33,kerift,KERIFT,z,,,,,,-0.330033003,-0.341584158,0,0,0,,0,211,211,286,1,0.151,
,,,,,,,,,,,,,,,,,,999,2020-11-26_11h43.00.107,lexical_decision_task_MP_exp2,2020.2.5,Win32,60,m,1,,,,,,,,0.001,1,,,,,,82,WORD,"ID",33,stigma,STIGMA,m,,,,,,-0.330033003,-0.341584158,0,0,0,,0,212,212,21,1,0.001,
,,,,,,,,,,,,,,,,,,999,2020-11-26_11h43.00.107,lexical_decision_task_MP_exp2,2020.2.5,Win32,60,z,1,,,,,,,,0.05,1,,,,,,355,NW,"ID",33,zingly,ZINGLY,z,,,,,,-0.330033003,-0.341584158,0,0,0,,0,213,213,294,1,0.05,
,,,,,,,,,,,,,,,,,,999,2020-11-26_11h43.00.107,lexical_decision_task_MP_exp2,2020.2.5,Win32,60,m,0,,,,,,,,0.05,0,,,,,,443,NW,UN,33,jaunce,DORSEX,z,,,,,,-0.330033003,-0.341584158,0,0,0,,0,214,214,382,1,0.05,
,,,,,,,,,,,,,,,,,,999,2020-11-26_11h43.00.107,lexical_decision_task_MP_exp2,2020.2.5,Win32,60,z,0,,,,,,,,0.05,0,,,,,,173,WORD,"ID",16,shower,SHOWER,m,,,,,,-0.330033003,-0.341584158,0,0,0,,0,215,215,112,1,0.05,
,,,,,,,,,,,,,,,,,,999,2020-11-26_11h43.00.107,lexical_decision_task_MP_exp2,2020.2.5,Win32,60,m,0,,,,,,,,0.034,0,,,,,,301,NW,"ID",33,fainch,FAINCH,z,,,,,,-0.330033003,-0.341584158,0,0,0,,0,216,216,240,1,0.034,
,,,,,,,,,,,,,,,,,,999,2020-11-26_11h43.00.107,lexical_decision_task_MP_exp2,2020.2.5,Win32,60,z,0,,,,,,,,0.048,0,,,,,,121,WORD,"ID",16,thrive,THRIVE,m,,,,,,-0.330033003,-0.341584158,0,0,0,,0,217,217,60,1,0.048,
,,,,,,,,,,,,,,,,,,999,2020-11-26_11h43.00.107,lexical_decision_task_MP_exp2,2020.2.5,Win32,60,m,0,,,,,,,,0.071,0,,,,,,289,NW,UN,16,splino,STARBY,z,,,,,,-0.330033003,-0.341584158,0,0,0,,0,218,218,468,1,0.071,
,,,,,,,,,,,,,,,,,,999,2020-11-26_11h43.00.107,lexical_decision_task_MP_exp2,2020.2.5,Win32,60,z,0,,,,,,,,0.066,0,,,,,,155,WORD,"ID",16,lizard,LIZARD,m,,,,,,-0.330033003,-0.341584158,0,0,0,,0,219,219,94,1,0.066,
,,,,,,,,,,,,,,,,,,999,2020-11-26_11h43.00.107,lexical_decision_task_MP_exp2,2020.2.5,Win32,60,m,1,,,,,,,,0.017,1,,,,,,187,WORD,UN,33,social,COURSE,m,,,,,,-0.330033003,-0.341584158,0,0,0,,0,220,220,126,1,0.017,
,,,,,,,,,,,,,,,,,,999,2020-11-26_11h43.00.107,lexical_decision_task_MP_exp2,2020.2.5,Win32,60,z,1,,,,,,,,1.265,1,,,,,,430,NW,UN,33,chrums,CAROEY,z,,,,,,-0.330033003,-0.341584158,0,0,0,,0,221,221,369,1,1.265,
,,,,,,,,,,,,,,,,,,999,2020-11-26_11h43.00.107,lexical_decision_task_MP_exp2,2020.2.5,Win32,60,z,0,,,,,,,,0.043,0,,,,,,141,WORD,"ID",16,orphan,ORPHAN,m,,,,,,-0.330033003,-0.341584158,0,0,0,,0,222,222,80,1,0.043,
,,,,,,,,,,,,,,,,,,999,2020-11-26_11h43.00.107,lexical_decision_task_MP_exp2,2020.2.5,Win32,60,z,1,,,,,,,,0.075,1,,,,,,429,NW,UN,33,caroey,FUNTLE,z,,,,,,-0.330033003,-0.341584158,0,0,0,,0,223,223,368,1,0.075,
,,,,,,,,,,,,,,,,,,999,2020-11-26_11h43.00.107,lexical_decision_task_MP_exp2,2020.2.5,Win32,60,m,0,,,,,,,,0.154,0,,,,,,323,NW,"ID",33,rosail,ROSAIL,z,,,,,,-0.330033003,-0.341584158,0,0,0,,0,224,224,262,1,0.154,
,,,,,,,,,,,,,,,,,,999,2020-11-26_11h43.00.107,lexical_decision_task_MP_exp2,2020.2.5,Win32,60,z,1,,,,,,,,0.068,1,,,,,,337,NW,"ID",33,rejols,REJOLS,z,,,,,,-0.330033003,-0.341584158,0,0,0,,0,225,225,276,1,0.068,
,,,,,,,,,,,,,,,,,,999,2020-11-26_11h43.00.107,lexical_decision_task_MP_exp2,2020.2.5,Win32,60,z,0,,,,,,,,0.142,0,,,,,,107,WORD,"ID",33,slogan,SLOGAN,m,,,,,,-0.330033003,-0.341584158,0,0,0,,0,226,226,46,1,0.142,
,,,,,,,,,,,,,,,,,,999,2020-11-26_11h43.00.107,lexical_decision_task_MP_exp2,2020.2.5,Win32,60,z,0,,,,,,,,0.154,0,,,,,,55,WORD,UN,16,ambush,STROKE,m,,,,,,-0.330033003,-0.341584158,0,0,0,,0,227,227,234,1,0.154,
,,,,,,,,,,,,,,,,,,999,2020-11-26_11h43.00.107,lexical_decision_task_MP_exp2,2020.2.5,Win32,60,z,1,,,,,,,,0.1,1,,,,,,367,NW,"ID",16,slique,SLIQUE,z,,,,,,-0.330033003,-0.341584158,0,0,0,,0,228,228,306,1,0.1,
,,,,,,,,,,,,,,,,,,999,2020-11-26_11h43.00.107,lexical_decision_task_MP_exp2,2020.2.5,Win32,60,z,1,,,,,,,,0.103,1,,,,,,451,NW,UN,33,surden,CAINKY,z,,,,,,-0.330033003,-0.341584158,0,0,0,,0,229,229,390,1,0.103,
,,,,,,,,,,,,,,,,,,999,2020-11-26_11h43.00.107,lexical_decision_task_MP_exp2,2020.2.5,Win32,60,z,1,,,,,,,,0.087,1,,,,,,352,NW,"ID",33,tringe,TRINGE,z,,,,,,-0.330033003,-0.341584158,0,0,0,,0,230,230,291,1,0.087,
,,,,,,,,,,,,,,,,,,999,2020-11-26_11h43.00.107,lexical_decision_task_MP_exp2,2020.2.5,Win32,60,z,1,,,,,,,,0.122,1,,,,,,286,NW,UN,16,nymbel,RELDON,z,,,,,,-0.330033003,-0.341584158,0,0,0,,0,231,231,465,1,0.122,
,,,,,,,,,,,,,,,,,,999,2020-11-26_11h43.00.107,lexical_decision_task_MP_exp2,2020.2.5,Win32,60,z,1,,,,,,,,0.15,1,,,,,,373,NW,"ID",16,bigent,BIGENT,z,,,,,,-0.330033003,-0.341584158,0,0,0,,0,232,232,312,1,0.15,
,,,,,,,,,,,,,,,,,,999,2020-11-26_11h43.00.107,lexical_decision_task_MP_exp2,2020.2.5,Win32,60,m,1,,,,,,,,0.033,1,,,,,,14,WORD,UN,16,orange,ALMOST,m,,,,,,-0.330033003,-0.341584158,0,0,0,,0,233,233,193,1,0.033,
,,,,,,,,,,,,,,,,,,999,2020-11-26_11h43.00.107,lexical_decision_task_MP_exp2,2020.2.5,Win32,60,z,1,,,,,,,,0.319,1,,,,,,248,NW,UN,16,batrol,STROLE,z,,,,,,-0.330033003,-0.341584158,0,0,0,,0,234,234,427,1,0.319,
,,,,,,,,,,,,,,,,,,999,2020-11-26_11h43.00.107,lexical_decision_task_MP_exp2,2020.2.5,Win32,60,m,1,,,,,,,,0.173,1,,,,,,112,WORD,"ID",33,breath,BREATH,m,,,,,,-0.330033003,-0.341584158,0,0,0,,0,235,235,51,1,0.173,
,,,,,,,,,,,,,,,,,,999,2020-11-26_11h43.00.107,lexical_decision_task_MP_exp2,2020.2.5,Win32,60,z,0,,,,,,,,0.185,0,,,,,,206,WORD,UN,33,wreath,TAILOR,m,,,,,,-0.330033003,-0.341584158,0,0,0,,0,236,236,145,1,0.185,
,,,,,,,,,,,,,,,,,,999,2020-11-26_11h43.00.107,lexical_decision_task_MP_exp2,2020.2.5,Win32,60,z,1,,,,,,,,0.02,1,,,,,,405,NW,"ID",16,flumni,FLUMNI,z,,,,,,-0.330033003,-0.341584158,0,0,0,,0,237,237,344,1,0.02,
,,,,,,,,,,,,,,,,,,999,2020-11-26_11h43.00.107,lexical_decision_task_MP_exp2,2020.2.5,Win32,60,m,0,,,,,,,,0.155,0,,,,,,398,NW,"ID",16,blunde,BLUNDE,z,,,,,,-0.330033003,-0.341584158,0,0,0,,0,238,238,337,1,0.155,
,,,,,,,,,,,,,,,,,,999,2020-11-26_11h43.00.107,lexical_decision_task_MP_exp2,2020.2.5,Win32,60,z,0,,,,,,,,0.154,0,,,,,,135,WORD,"ID",16,import,IMPORT,m,,,,,,0.112211221,-0.424092409,1,0,0,,0,239,239,74,1,0.154,break_done_button
,,,,,,,,,,,,,,,,,,999,2020-11-26_11h43.00.107,lexical_decision_task_MP_exp2,2020.2.5,Win32,60,,0,-0.330033003,-0.301980198,1,0,0,0.23,button_left,0.23,0,,,,,,18,WORD,UN,16,patron,HUMBLE,m,,,,,,-0.330033003,-0.301980198,1,0,0,,0,240,240,197,1,,
,,,,,,,,,,,,,,,,,,999,2020-11-26_11h43.00.107,lexical_decision_task_MP_exp2,2020.2.5,Win32,60,,0,-0.330033003,-0.301980198,1,0,0,0.064,button_left,0.064,1,,,,,,311,NW,"ID",33,sproly,SPROLY,z,,,,,,-0.330033003,-0.301980198,1,0,0,,0,241,241,250,1,,
,,,,,,,,,,,,,,,,,,999,2020-11-26_11h43.00.107,lexical_decision_task_MP_exp2,2020.2.5,Win32,60,,0,,,,,,,,0.064,-1,,,,,,473,NW,UN,33,hablin,CRIBLE,z,,,,,,-0.330033003,-0.301980198,0,0,0,,0,242,242,412,1,,
,,,,,,,,,,,,,,,,,,999,2020-11-26_11h43.00.107,lexical_decision_task_MP_exp2,2020.2.5,Win32,60,,0,,,,,,,,0.064,-1,,,,,,7,WORD,UN,16,abrupt,ANCHOR,m,,,,,,-0.330033003,-0.301980198,0,0,0,,0,243,243,186,1,,
,,,,,,,,,,,,,,,,,,999,2020-11-26_11h43.00.107,lexical_decision_task_MP_exp2,2020.2.5,Win32,60,,0,,,,,,,,0.064,-1,,,,,,391,NW,"ID",16,theldy,THELDY,z,,,,,,-0.330033003,-0.301980198,0,0,0,,0,244,244,330,1,,
,,,,,,,,,,,,,,,,,,999,2020-11-26_11h43.00.107,lexical_decision_task_MP_exp2,2020.2.5,Win32,60,,0,,,,,,,,0.064,-1,,,,,,159,WORD,"ID",16,detail,DETAIL,m,,,,,,-0.330033003,-0.301980198,0,0,0,,0,245,245,98,1,,
,,,,,,,,,,,,,,,,,,999,2020-11-26_11h43.00.107,lexical_decision_task_MP_exp2,2020.2.5,Win32,60,,0,,,,,,,,0.064,-1,,,,,,433,NW,UN,33,pitrom,DRANCE,z,,,,,,-0.330033003,-0.301980198,0,0,0,,0,246,246,372,1,,
,,,,,,,,,,,,,,,,,,999,2020-11-26_11h43.00.107,lexical_decision_task_MP_exp2,2020.2.5,Win32,60,,0,,,,,,,,0.064,-1,,,,,,29,WORD,UN,16,orient,SKETCH,m,,,,,,-0.330033003,-0.301980198,0,0,0,,0,247,247,208,1,,
,,,,,,,,,,,,,,,,,,999,2020-11-26_11h43.00.107,lexical_decision_task_MP_exp2,2020.2.5,Win32,60,,0,,,,,,,,0.064,-1,,,,,,174,WORD,"ID",16,turkey,TURKEY,m,,,,,,-0.330033003,-0.301980198,0,0,0,,0,248,248,113,1,,
,,,,,,,,,,,,,,,,,,999,2020-11-26_11h43.00.107,lexical_decision_task_MP_exp2,2020.2.5,Win32,60,,0,,,,,,,,0.064,-1,,,,,,17,WORD,UN,16,humble,CHARGE,m,,,,,,-0.330033003,-0.301980198,0,0,0,,0,249,249,196,1,,
,,,,,,,,,,,,,,,,,,999,2020-11-26_11h43.00.107,lexical_decision_task_MP_exp2,2020.2.5,Win32,60,,0,,,,,,,,0.064,-1,,,,,,472,NW,UN,33,gorbie,CIGNEY,z,,,,,,-0.330033003,-0.301980198,0,0,0,,0,250,250,411,1,,
,,,,,,,,,,,,,,,,,,999,2020-11-26_11h43.00.107,lexical_decision_task_MP_exp2,2020.2.5,Win32,60,,0,,,,,,,,0.064,-1,,,,,,447,NW,UN,33,sadent,GIRCUE,z,,,,,,-0.330033003,-0.301980198,0,0,0,,0,251,251,386,1,,
,,,,,,,,,,,,,,,,,,999,2020-11-26_11h43.00.107,lexical_decision_task_MP_exp2,2020.2.5,Win32,60,,0,,,,,,,,0.064,-1,,,,,,466,NW,UN,33,robuly,HOCITE,z,,,,,,-0.330033003,-0.301980198,0,0,0,,0,252,252,405,1,,
,,,,,,,,,,,,,,,,,,999,2020-11-26_11h43.00.107,lexical_decision_task_MP_exp2,2020.2.5,Win32,60,,0,,,,,,,,0.064,-1,,,,,,404,NW,"ID",16,cluirm,CLUIRM,z,,,,,,-0.330033003,-0.301980198,0,0,0,,0,253,253,343,1,,
,,,,,,,,,,,,,,,,,,999,2020-11-26_11h43.00.107,lexical_decision_task_MP_exp2,2020.2.5,Win32,60,,0,,,,,,,,0.064,-1,,,,,,33,WORD,UN,16,jungle,BUTLER,m,,,,,,-0.330033003,-0.301980198,0,0,0,,0,254,254,212,1,,
,,,,,,,,,,,,,,,,,,999,2020-11-26_11h43.00.107,lexical_decision_task_MP_exp2,2020.2.5,Win32,60,,0,,,,,,,,0.064,-1,,,,,,242,NW,UN,16,musied,UNWERT,z,,,,,,-0.330033003,-0.301980198,0,0,0,,0,255,255,421,1,,
,,,,,,,,,,,,,,,,,,999,2020-11-26_11h43.00.107,lexical_decision_task_MP_exp2,2020.2.5,Win32,60,,0,,,,,,,,0.064,-1,,,,,,457,NW,UN,33,barcet,WANIGH,z,,,,,,-0.330033003,-0.301980198,0,0,0,,0,256,256,396,1,,
,,,,,,,,,,,,,,,,,,999,2020-11-26_11h43.00.107,lexical_decision_task_MP_exp2,2020.2.5,Win32,60,,0,,,,,,,,0.064,-1,,,,,,1,WORD,UN,16,ethnic,FRIGHT,m,,,,,,-0.330033003,-0.301980198,0,0,0,,0,257,257,180,1,,
,,,,,,,,,,,,,,,,,,999,2020-11-26_11h43.00.107,lexical_decision_task_MP_exp2,2020.2.5,Win32,60,,0,,,,,,,,0.064,-1,,,,,,469,NW,UN,33,crudio,PADIFS,z,,,,,,-0.330033003,-0.301980198,0,0,0,,0,258,258,408,1,,
,,,,,,,,,,,,,,,,,,999,2020-11-26_11h43.00.107,lexical_decision_task_MP_exp2,2020.2.5,Win32,60,,0,,,,,,,,0.064,-1,,,,,,454,NW,UN,33,tondle,SCOUGE,z,,,,,,-0.330033003,-0.301980198,0,0,0,,0,259,259,393,1,,
,,,,,,,,,,,,,,,,,,999,2020-11-26_11h43.00.107,lexical_decision_task_MP_exp2,2020.2.5,Win32,60,,0,,,,,,,,0.064,-1,,,,,,201,WORD,UN,33,factor,ADMIRE,m,,,,,,-0.330033003,-0.301980198,0,0,0,,0,260,260,140,1,,
,,,,,,,,,,,,,,,,,,999,2020-11-26_11h43.00.107,lexical_decision_task_MP_exp2,2020.2.5,Win32,60,,0,,,,,,,,0.064,-1,,,,,,36,WORD,UN,16,insult,VANISH,m,,,,,,-0.330033003,-0.301980198,0,0,0,,0,261,261,215,1,,
,,,,,,,,,,,,,,,,,,999,2020-11-26_11h43.00.107,lexical_decision_task_MP_exp2,2020.2.5,Win32,60,,0,,,,,,,,0.064,-1,,,,,,81,WORD,"ID",33,friend,FRIEND,m,,,,,,-0.330033003,-0.301980198,0,0,0,,0,262,262,20,1,,
,,,,,,,,,,,,,,,,,,999,2020-11-26_11h43.00.107,lexical_decision_task_MP_exp2,2020.2.5,Win32,60,,0,,,,,,,,0.064,-1,,,,,,424,NW,UN,33,frudge,PRAILE,z,,,,,,-0.330033003,-0.301980198,0,0,0,,0,263,263,363,1,,
,,,,,,,,,,,,,,,,,,999,2020-11-26_11h43.00.107,lexical_decision_task_MP_exp2,2020.2.5,Win32,60,,0,,,,,,,,0.064,-1,,,,,,69,WORD,"ID",33,plenty,PLENTY,m,,,,,,-0.330033003,-0.301980198,0,0,0,,0,264,264,8,1,,
,,,,,,,,,,,,,,,,,,999,2020-11-26_11h43.00.107,lexical_decision_task_MP_exp2,2020.2.5,Win32,60,,0,,,,,,,,0.064,-1,,,,,,439,NW,UN,33,saride,LIMPOR,z,,,,,,-0.330033003,-0.301980198,0,0,0,,0,265,265,378,1,,
,,,,,,,,,,,,,,,,,,999,2020-11-26_11h43.00.107,lexical_decision_task_MP_exp2,2020.2.5,Win32,60,,0,,,,,,,,0.064,-1,,,,,,222,WORD,UN,33,export,HINDER,m,,,,,,-0.330033003,-0.301980198,0,0,0,,0,266,266,161,1,,
,,,,,,,,,,,,,,,,,,999,2020-11-26_11h43.00.107,lexical_decision_task_MP_exp2,2020.2.5,Win32,60,,0,,,,,,,,0.064,-1,,,,,,470,NW,UN,33,nobest,CRUDIO,z,,,,,,-0.330033003,-0.301980198,0,0,0,,0,267,267,409,1,,
,,,,,,,,,,,,,,,,,,999,2020-11-26_11h43.00.107,lexical_decision_task_MP_exp2,2020.2.5,Win32,60,,0,,,,,,,,0.064,-1,,,,,,438,NW,UN,33,limpor,BAITCH,z,,,,,,-0.330033003,-0.301980198,0,0,0,,0,268,268,377,1,,
,,,,,,,,,,,,,,,,,,999,2020-11-26_11h43.00.107,lexical_decision_task_MP_exp2,2020.2.5,Win32,60,,0,,,,,,,,0.064,-1,,,,,,296,NW,UN,16,fertic,BEINCH,z,,,,,,-0.330033003,-0.301980198,0,0,0,,0,269,269,475,1,,
,,,,,,,,,,,,,,,,,,999,2020-11-26_11h43.00.107,lexical_decision_task_MP_exp2,2020.2.5,Win32,60,,0,,,,,,,,0.064,-1,,,,,,23,WORD,UN,16,praise,WEALTH,m,,,,,,-0.330033003,-0.301980198,0,0,0,,0,270,270,202,1,,
,,,,,,,,,,,,,,,,,,999,2020-11-26_11h43.00.107,lexical_decision_task_MP_exp2,2020.2.5,Win32,60,,0,,,,,,,,0.064,-1,,,,,,228,WORD,UN,33,kidney,MASTER,m,,,,,,-0.330033003,-0.301980198,0,0,0,,0,271,271,167,1,,
,,,,,,,,,,,,,,,,,,999,2020-11-26_11h43.00.107,lexical_decision_task_MP_exp2,2020.2.5,Win32,60,,0,,,,,,,,0.064,-1,,,,,,109,WORD,"ID",33,wonder,WONDER,m,,,,,,-0.330033003,-0.301980198,0,0,0,,0,272,272,48,1,,
,,,,,,,,,,,,,,,,,,999,2020-11-26_11h43.00.107,lexical_decision_task_MP_exp2,2020.2.5,Win32,60,,0,,,,,,,,0.064,-1,,,,,,305,NW,"ID",33,forgle,FORGLE,z,,,,,,-0.330033003,-0.301980198,0,0,0,,0,273,273,244,1,,
,,,,,,,,,,,,,,,,,,999,2020-11-26_11h43.00.107,lexical_decision_task_MP_exp2,2020.2.5,Win32,60,,0,,,,,,,,0.064,-1,,,,,,126,WORD,"ID",16,enough,ENOUGH,m,,,,,,-0.330033003,-0.301980198,0,0,0,,0,274,274,65,1,,
,,,,,,,,,,,,,,,,,,999,2020-11-26_11h43.00.107,lexical_decision_task_MP_exp2,2020.2.5,Win32,60,,0,,,,,,,,0.064,-1,,,,,,260,NW,UN,16,stunch,UNJECT,z,,,,,,-0.330033003,-0.301980198,0,0,0,,0,275,275,439,1,,
,,,,,,,,,,,,,,,,,,999,2020-11-26_11h43.00.107,lexical_decision_task_MP_exp2,2020.2.5,Win32,60,,0,,,,,,,,0.064,-1,,,,,,326,NW,"ID",33,iguade,IGUADE,z,,,,,,-0.330033003,-0.301980198,0,0,0,,0,276,276,265,1,,
,,,,,,,,,,,,,,,,,,999,2020-11-26_11h43.00.107,lexical_decision_task_MP_exp2,2020.2.5,Win32,60,,0,,,,,,,,0.064,-1,,,,,,99,WORD,"ID",33,fluent,FLUENT,m,,,,,,-0.330033003,-0.301980198,0,0,0,,0,277,277,38,1,,
,,,,,,,,,,,,,,,,,,999,2020-11-26_11h43.00.107,lexical_decision_task_MP_exp2,2020.2.5,Win32,60,,0,,,,,,,,0.064,-1,,,,,,123,WORD,"ID",16,strike,STRIKE,m,,,,,,-0.330033003,-0.301980198,0,0,0,,0,278,278,62,1,,
,,,,,,,,,,,,,,,,,,999,2020-11-26_11h43.00.107,lexical_decision_task_MP_exp2,2020.2.5,Win32,60,,0,,,,,,,,0.064,-1,,,,,,378,NW,"ID",16,shrile,SHRILE,z,,,,,,-0.330033003,-0.301980198,0,0,0,,0,279,279,317,1,,
,,,,,,,,,,,,,,,,,,999,2020-11-26_11h43.00.107,lexical_decision_task_MP_exp2,2020.2.5,Win32,60,,0,,,,,,,,0.064,-1,,,,,,401,NW,"ID",16,mustil,MUSTIL,z,,,,,,-0.330033003,-0.301980198,0,0,0,,0,280,280,340,1,,
,,,,,,,,,,,,,,,,,,999,2020-11-26_11h43.00.107,lexical_decision_task_MP_exp2,2020.2.5,Win32,60,,0,,,,,,,,0.064,-1,,,,,,221,WORD,UN,33,hinder,MASCOT,m,,,,,,-0.330033003,-0.301980198,0,0,0,,0,281,281,160,1,,
,,,,,,,,,,,,,,,,,,999,2020-11-26_11h43.00.107,lexical_decision_task_MP_exp2,2020.2.5,Win32,60,,0,,,,,,,,0.064,-1,,,,,,83,WORD,"ID",33,result,RESULT,m,,,,,,-0.330033003,-0.301980198,0,0,0,,0,282,282,22,1,,
,,,,,,,,,,,,,,,,,,999,2020-11-26_11h43.00.107,lexical_decision_task_MP_exp2,2020.2.5,Win32,60,,0,,,,,,,,0.064,-1,,,,,,249,NW,UN,16,milted,BATROL,z,,,,,,-0.330033003,-0.301980198,0,0,0,,0,283,283,428,1,,
,,,,,,,,,,,,,,,,,,999,2020-11-26_11h43.00.107,lexical_decision_task_MP_exp2,2020.2.5,Win32,60,,0,,,,,,,,0.064,-1,,,,,,325,NW,"ID",33,thruse,THRUSE,z,,,,,,-0.330033003,-0.301980198,0,0,0,,0,284,284,264,1,,
,,,,,,,,,,,,,,,,,,999,2020-11-26_11h43.00.107,lexical_decision_task_MP_exp2,2020.2.5,Win32,60,,0,,,,,,,,0.064,-1,,,,,,181,WORD,UN,33,winter,GLANCE,m,,,,,,-0.330033003,-0.301980198,0,0,0,,0,285,285,120,1,,
,,,,,,,,,,,,,,,,,,999,2020-11-26_11h43.00.107,lexical_decision_task_MP_exp2,2020.2.5,Win32,60,,0,,,,,,,,0.064,-1,,,,,,360,NW,"ID",33,desory,DESORY,z,,,,,,-0.330033003,-0.301980198,0,0,0,,0,286,286,299,1,,
,,,,,,,,,,,,,,,,,,999,2020-11-26_11h43.00.107,lexical_decision_task_MP_exp2,2020.2.5,Win32,60,,0,,,,,,,,0.064,-1,,,,,,161,WORD,"ID",16,pastor,PASTOR,m,,,,,,-0.330033003,-0.301980198,0,0,0,,0,287,287,100,1,,
,,,,,,,,,,,,,,,,,,999,2020-11-26_11h43.00.107,lexical_decision_task_MP_exp2,2020.2.5,Win32,60,,0,,,,,,,,0.064,-1,,,,,,458,NW,UN,33,hocite,BARCET,z,,,,,,-0.330033003,-0.301980198,0,0,0,,0,288,288,397,1,,
,,,,,,,,,,,,,,,,,,999,2020-11-26_11h43.00.107,lexical_decision_task_MP_exp2,2020.2.5,Win32,60,,0,,,,,,,,0.064,-1,,,,,,20,WORD,UN,16,simple,BREAST,m,,,,,,-0.330033003,-0.301980198,0,0,0,,0,289,289,199,1,,
,,,,,,,,,,,,,,,,,,999,2020-11-26_11h43.00.107,lexical_decision_task_MP_exp2,2020.2.5,Win32,60,,0,,,,,,,,0.064,-1,,,,,,468,NW,UN,33,padifs,WICTOR,z,,,,,,-0.330033003,-0.301980198,0,0,0,,0,290,290,407,1,,
,,,,,,,,,,,,,,,,,,999,2020-11-26_11h43.00.107,lexical_decision_task_MP_exp2,2020.2.5,Win32,60,,0,,,,,,,,0.064,-1,,,,,,238,WORD,UN,33,behalf,FLOWER,m,,,,,,-0.330033003,-0.301980198,0,0,0,,0,291,291,177,1,,
,,,,,,,,,,,,,,,,,,999,2020-11-26_11h43.00.107,lexical_decision_task_MP_exp2,2020.2.5,Win32,60,,0,,,,,,,,0.064,-1,,,,,,387,NW,"ID",16,gronce,GRONCE,z,,,,,,-0.330033003,-0.301980198,0,0,0,,0,292,292,326,1,,
,,,,,,,,,,,,,,,,,,999,2020-11-26_11h43.00.107,lexical_decision_task_MP_exp2,2020.2.5,Win32,60,,0,,,,,,,,0.064,-1,,,,,,137,WORD,"ID",16,finger,FINGER,m,,,,,,-0.330033003,-0.301980198,0,0,0,,0,293,293,76,1,,
,,,,,,,,,,,,,,,,,,999,2020-11-26_11h43.00.107,lexical_decision_task_MP_exp2,2020.2.5,Win32,60,,0,,,,,,,,0.064,-1,,,,,,298,NW,UN,16,sturch,PIERGY,z,,,,,,-0.330033003,-0.301980198,0,0,0,,0,294,294,477,1,,
,,,,,,,,,,,,,,,,,,999,2020-11-26_11h43.00.107,lexical_decision_task_MP_exp2,2020.2.5,Win32,60,,0,,,,,,,,0.064,-1,,,,,,247,NW,UN,16,strole,BLARGE,z,,,,,,-0.330033003,-0.301980198,0,0,0,,0,295,295,426,1,,
,,,,,,,,,,,,,,,,,,999,2020-11-26_11h43.00.107,lexical_decision_task_MP_exp2,2020.2.5,Win32,60,,0,,,,,,,,0.064,-1,,,,,,116,WORD,"ID",33,tumble,TUMBLE,m,,,,,,-0.330033003,-0.301980198,0,0,0,,0,296,296,55,1,,
,,,,,,,,,,,,,,,,,,999,2020-11-26_11h43.00.107,lexical_decision_task_MP_exp2,2020.2.5,Win32,60,,0,,,,,,,,0.064,-1,,,,,,179,WORD,"ID",16,basket,BASKET,m,,,,,,-0.330033003,-0.301980198,0,0,0,,0,297,297,118,1,,
,,,,,,,,,,,,,,,,,,999,2020-11-26_11h43.00.107,lexical_decision_task_MP_exp2,2020.2.5,Win32,60,,0,,,,,,,,0.064,-1,,,,,,80,WORD,"ID",33,family,FAMILY,m,,,,,,-0.330033003,-0.301980198,0,0,0,,0,298,298,19,1,,
,,,,,,,,,,,,,,,,,,999,2020-11-26_11h43.00.107,lexical_decision_task_MP_exp2,2020.2.5,Win32,60,,0,,,,,,,,0.064,-1,,,,,,88,WORD,"ID",33,hunger,HUNGER,m,,,,,,-0.330033003,-0.301980198,0,0,0,,0,299,299,27,1,,
,,,,,,,,,,,,,,,,,,999,2020-11-26_11h43.00.107,lexical_decision_task_MP_exp2,2020.2.5,Win32,60,,0,,,,,,,,0.064,-1,,,,,,157,WORD,"ID",16,dragon,DRAGON,m,,,,,,-0.330033003,-0.301980198,0,0,0,,0,300,300,96,1,,
,,,,,,,,,,,,,,,,,,999,2020-11-26_11h43.00.107,lexical_decision_task_MP_exp2,2020.2.5,Win32,60,,0,,,,,,,,0.064,-1,,,,,,148,WORD,"ID",16,custom,CUSTOM,m,,,,,,-0.330033003,-0.301980198,0,0,0,,0,301,301,87,1,,
,,,,,,,,,,,,,,,,,,999,2020-11-26_11h43.00.107,lexical_decision_task_MP_exp2,2020.2.5,Win32,60,,0,,,,,,,,0.064,-1,,,,,,189,WORD,UN,33,backup,CENSOR,m,,,,,,-0.330033003,-0.301980198,0,0,0,,0,302,302,128,1,,
,,,,,,,,,,,,,,,,,,999,2020-11-26_11h43.00.107,lexical_decision_task_MP_exp2,2020.2.5,Win32,60,,0,,,,,,,,0.064,-1,,,,,,52,WORD,UN,16,police,IMPOSE,m,,,,,,-0.330033003,-0.301980198,0,0,0,,0,303,303,231,1,,
,,,,,,,,,,,,,,,,,,999,2020-11-26_11h43.00.107,lexical_decision_task_MP_exp2,2020.2.5,Win32,60,,0,,,,,,,,0.064,-1,,,,,,410,NW,"ID",16,tunory,TUNORY,z,,,,,,-0.330033003,-0.301980198,0,0,0,,0,304,304,349,1,,
,,,,,,,,,,,,,,,,,,999,2020-11-26_11h43.00.107,lexical_decision_task_MP_exp2,2020.2.5,Win32,60,,0,,,,,,,,0.064,-1,,,,,,374,NW,"ID",16,sliant,SLIANT,z,,,,,,-0.330033003,-0.301980198,0,0,0,,0,305,305,313,1,,
,,,,,,,,,,,,,,,,,,999,2020-11-26_11h43.00.107,lexical_decision_task_MP_exp2,2020.2.5,Win32,60,,0,,,,,,,,0.064,-1,,,,,,103,WORD,"ID",33,bounce,BOUNCE,m,,,,,,-0.330033003,-0.301980198,0,0,0,,0,306,306,42,1,,
,,,,,,,,,,,,,,,,,,999,2020-11-26_11h43.00.107,lexical_decision_task_MP_exp2,2020.2.5,Win32,60,,0,,,,,,,,0.064,-1,,,,,,318,NW,"ID",33,reagly,REAGLY,z,,,,,,-0.330033003,-0.301980198,0,0,0,,0,307,307,257,1,,
,,,,,,,,,,,,,,,,,,999,2020-11-26_11h43.00.107,lexical_decision_task_MP_exp2,2020.2.5,Win32,60,,0,,,,,,,,0.064,-1,,,,,,436,NW,UN,33,snapel,FRUTAN,z,,,,,,-0.330033003,-0.301980198,0,0,0,,0,308,308,375,1,,
,,,,,,,,,,,,,,,,,,999,2020-11-26_11h43.00.107,lexical_decision_task_MP_exp2,2020.2.5,Win32,60,,0,,,,,,,,0.064,-1,,,,,,131,WORD,"ID",16,quench,QUENCH,m,,,,,,-0.330033003,-0.301980198,0,0,0,,0,309,309,70,1,,
,,,,,,,,,,,,,,,,,,999,2020-11-26_11h43.00.107,lexical_decision_task_MP_exp2,2020.2.5,Win32,60,,0,,,,,,,,0.064,-1,,,,,,209,WORD,UN,33,monkey,SEARCH,m,,,,,,-0.330033003,-0.301980198,0,0,0,,0,310,310,148,1,,
,,,,,,,,,,,,,,,,,,999,2020-11-26_11h43.00.107,lexical_decision_task_MP_exp2,2020.2.5,Win32,60,,0,,,,,,,,0.064,-1,,,,,,51,WORD,UN,16,impose,HUNGRY,m,,,,,,-0.330033003,-0.301980198,0,0,0,,0,311,311,230,1,,
,,,,,,,,,,,,,,,,,,999,2020-11-26_11h43.00.107,lexical_decision_task_MP_exp2,2020.2.5,Win32,60,,0,,,,,,,,0.064,-1,,,,,,262,NW,UN,16,dolica,QUILEW,z,,,,,,-0.330033003,-0.301980198,0,0,0,,0,312,312,441,1,,
,,,,,,,,,,,,,,,,,,999,2020-11-26_11h43.00.107,lexical_decision_task_MP_exp2,2020.2.5,Win32,60,,0,,,,,,,,0.064,-1,,,,,,84,WORD,"ID",33,mortal,MORTAL,m,,,,,,-0.330033003,-0.301980198,0,0,0,,0,313,313,23,1,,
,,,,,,,,,,,,,,,,,,999,2020-11-26_11h43.00.107,lexical_decision_task_MP_exp2,2020.2.5,Win32,60,,0,,,,,,,,0.064,-1,,,,,,427,NW,UN,33,tandly,SCHIND,z,,,,,,-0.330033003,-0.301980198,0,0,0,,0,314,314,366,1,,
,,,,,,,,,,,,,,,,,,999,2020-11-26_11h43.00.107,lexical_decision_task_MP_exp2,2020.2.5,Win32,60,,0,,,,,,,,0.064,-1,,,,,,328,NW,"ID",33,broake,BROAKE,z,,,,,,-0.330033003,-0.301980198,0,0,0,,0,315,315,267,1,,
,,,,,,,,,,,,,,,,,,999,2020-11-26_11h43.00.107,lexical_decision_task_MP_exp2,2020.2.5,Win32,60,,0,,,,,,,,0.064,-1,,,,,,312,NW,"ID",33,nerawl,NERAWL,z,,,,,,-0.330033003,-0.301980198,0,0,0,,0,316,316,251,1,,
,,,,,,,,,,,,,,,,,,999,2020-11-26_11h43.00.107,lexical_decision_task_MP_exp2,2020.2.5,Win32,60,,0,,,,,,,,0.064,-1,,,,,,12,WORD,UN,16,strive,ORANGE,m,,,,,,-0.330033003,-0.301980198,0,0,0,,0,317,317,191,1,,
,,,,,,,,,,,,,,,,,,999,2020-11-26_11h43.00.107,lexical_decision_task_MP_exp2,2020.2.5,Win32,60,,0,,,,,,,,0.064,-1,,,,,,22,WORD,UN,16,wealth,JOCKEY,m,,,,,,-0.330033003,-0.301980198,0,0,0,,0,318,318,201,1,,
,,,,,,,,,,,,,,,,,,999,2020-11-26_11h43.00.107,lexical_decision_task_MP_exp2,2020.2.5,Win32,60,,0,,,,,,,,0.064,-1,,,,,,234,WORD,UN,33,poster,CLUMSY,m,,,,,,-0.330033003,-0.301980198,0,0,0,,0,319,319,173,1,,
,,,,,,,,,,,,,,,,,,999,2020-11-26_11h43.00.107,lexical_decision_task_MP_exp2,2020.2.5,Win32,60,,0,,,,,,,,0.064,-1,,,,,,281,NW,UN,16,porlex,MELATY,z,,,,,,-0.330033003,-0.301980198,0,0,0,,0,320,320,460,1,,
,,,,,,,,,,,,,,,,,,999,2020-11-26_11h43.00.107,lexical_decision_task_MP_exp2,2020.2.5,Win32,60,,0,,,,,,,,0.064,-1,,,,,,93,WORD,"ID",33,public,PUBLIC,m,,,,,,-0.330033003,-0.301980198,0,0,0,,0,321,321,32,1,,
,,,,,,,,,,,,,,,,,,999,2020-11-26_11h43.00.107,lexical_decision_task_MP_exp2,2020.2.5,Win32,60,,0,,,,,,,,0.064,-1,,,,,,146,WORD,"ID",16,couple,COUPLE,m,,,,,,-0.330033003,-0.301980198,0,0,0,,0,322,322,85,1,,
,,,,,,,,,,,,,,,,,,999,2020-11-26_11h43.00.107,lexical_decision_task_MP_exp2,2020.2.5,Win32,60,,0,,,,,,,,0.064,-1,,,,,,255,NW,UN,16,inlors,APIGHT,z,,,,,,-0.330033003,-0.301980198,0,0,0,,0,323,323,434,1,,
,,,,,,,,,,,,,,,,,,999,2020-11-26_11h43.00.107,lexical_decision_task_MP_exp2,2020.2.5,Win32,60,,0,,,,,,,,0.064,-1,,,,,,252,NW,UN,16,resait,STAPOD,z,,,,,,-0.330033003,-0.301980198,0,0,0,,0,324,324,431,1,,
,,,,,,,,,,,,,,,,,,999,2020-11-26_11h43.00.107,lexical_decision_task_MP_exp2,2020.2.5,Win32,60,,0,,,,,,,,0.064,-1,,,,,,198,WORD,UN,33,invoke,WICKED,m,,,,,,-0.330033003,-0.301980198,0,0,0,,0,325,325,137,1,,
,,,,,,,,,,,,,,,,,,999,2020-11-26_11h43.00.107,lexical_decision_task_MP_exp2,2020.2.5,Win32,60,,0,,,,,,,,0.064,-1,,,,,,343,NW,"ID",33,aimosy,AIMOSY,z,,,,,,-0.330033003,-0.301980198,0,0,0,,0,326,326,282,1,,
,,,,,,,,,,,,,,,,,,999,2020-11-26_11h43.00.107,lexical_decision_task_MP_exp2,2020.2.5,Win32,60,,0,,,,,,,,0.064,-1,,,,,,70,WORD,"ID",33,square,SQUARE,m,,,,,,-0.330033003,-0.301980198,0,0,0,,0,327,327,9,1,,
,,,,,,,,,,,,,,,,,,999,2020-11-26_11h43.00.107,lexical_decision_task_MP_exp2,2020.2.5,Win32,60,,0,,,,,,,,0.064,-1,,,,,,231,WORD,UN,33,inject,EXPORT,m,,,,,,-0.330033003,-0.301980198,0,0,0,,0,328,328,170,1,,
,,,,,,,,,,,,,,,,,,999,2020-11-26_11h43.00.107,lexical_decision_task_MP_exp2,2020.2.5,Win32,60,,0,,,,,,,,0.064,-1,,,,,,340,NW,"ID",33,fiatch,FIATCH,z,,,,,,-0.330033003,-0.301980198,0,0,0,,0,329,329,279,1,,
,,,,,,,,,,,,,,,,,,999,2020-11-26_11h43.00.107,lexical_decision_task_MP_exp2,2020.2.5,Win32,60,,0,,,,,,,,0.064,-1,,,,,,177,WORD,"ID",16,advent,ADVENT,m,,,,,,-0.330033003,-0.301980198,0,0,0,,0,330,330,116,1,,
,,,,,,,,,,,,,,,,,,999,2020-11-26_11h43.00.107,lexical_decision_task_MP_exp2,2020.2.5,Win32,60,,0,,,,,,,,0.064,-1,,,,,,465,NW,UN,33,bafent,WHIVEX,z,,,,,,-0.330033003,-0.301980198,0,0,0,,0,331,331,404,1,,
,,,,,,,,,,,,,,,,,,999,2020-11-26_11h43.00.107,lexical_decision_task_MP_exp2,2020.2.5,Win32,60,,0,,,,,,,,0.064,-1,,,,,,171,WORD,"ID",16,depart,DEPART,m,,,,,,-0.330033003,-0.301980198,0,0,0,,0,332,332,110,1,,
,,,,,,,,,,,,,,,,,,999,2020-11-26_11h43.00.107,lexical_decision_task_MP_exp2,2020.2.5,Win32,60,,0,,,,,,,,0.064,-1,,,,,,250,NW,UN,16,lupict,MILTED,z,,,,,,-0.330033003,-0.301980198,0,0,0,,0,333,333,429,1,,
,,,,,,,,,,,,,,,,,,999,2020-11-26_11h43.00.107,lexical_decision_task_MP_exp2,2020.2.5,Win32,60,,0,,,,,,,,0.064,-1,,,,,,110,WORD,"ID",33,polite,POLITE,m,,,,,,-0.330033003,-0.301980198,0,0,0,,0,334,334,49,1,,
,,,,,,,,,,,,,,,,,,999,2020-11-26_11h43.00.107,lexical_decision_task_MP_exp2,2020.2.5,Win32,60,,0,,,,,,,,0.064,-1,,,,,,392,NW,"ID",16,rouncy,ROUNCY,z,,,,,,-0.330033003,-0.301980198,0,0,0,,0,335,335,331,1,,
,,,,,,,,,,,,,,,,,,999,2020-11-26_11h43.00.107,lexical_decision_task_MP_exp2,2020.2.5,Win32,60,,0,-0.372937294,-0.301980198,1,0,0,1.398,button_left,1.398,0,,,,,,96,WORD,"ID",33,ignore,IGNORE,m,,,,,,-0.372937294,-0.301980198,1,0,0,,0,336,336,35,1,,
,,,,,,,,,,,,,,,,,,999,2020-11-26_11h43.00.107,lexical_decision_task_MP_exp2,2020.2.5,Win32,60,,0,-0.372937294,-0.301980198,1,0,0,0.082,button_left,0.082,1,,,,,,417,NW,"ID",16,earoud,EAROUD,z,,,,,,-0.372937294,-0.301980198,1,0,0,,0,337,337,356,1,,
,,,,,,,,,,,,,,,,,,999,2020-11-26_11h43.00.107,lexical_decision_task_MP_exp2,2020.2.5,Win32,60,,0,-0.425742574,-0.308580858,1,0,0,0.199,button_left,0.199,1,,,,,,349,NW,"ID",33,asylen,ASYLEN,z,,,,,,-0.425742574,-0.308580858,1,0,0,,0,338,338,288,1,,
,,,,,,,,,,,,,,,,,,999,2020-11-26_11h43.00.107,lexical_decision_task_MP_exp2,2020.2.5,Win32,60,,0,-0.425742574,-0.308580858,1,0,0,0.064,button_left,0.064,1,,,,,,272,NW,UN,16,sortel,DAMILT,z,,,,,,-0.425742574,-0.308580858,1,0,0,,0,339,339,451,1,,
,,,,,,,,,,,,,,,,,,999,2020-11-26_11h43.00.107,lexical_decision_task_MP_exp2,2020.2.5,Win32,60,,0,-0.425742574,-0.308580858,1,0,0,0.065,button_left,0.065,0,,,,,,236,WORD,UN,33,grumpy,PIRATE,m,,,,,,-0.425742574,-0.308580858,1,0,0,,0,340,340,175,1,,
,,,,,,,,,,,,,,,,,,999,2020-11-26_11h43.00.107,lexical_decision_task_MP_exp2,2020.2.5,Win32,60,,0,-0.425742574,-0.308580858,1,0,0,0.098,button_left,0.098,0,,,,,,128,WORD,"ID",16,senior,SENIOR,m,,,,,,-0.425742574,-0.308580858,1,0,0,,0,341,341,67,1,,
,,,,,,,,,,,,,,,,,,999,2020-11-26_11h43.00.107,lexical_decision_task_MP_exp2,2020.2.5,Win32,60,,0,-0.425742574,-0.308580858,1,0,0,0.082,button_left,0.082,0,,,,,,21,WORD,UN,16,jockey,SIMPLE,m,,,,,,-0.425742574,-0.308580858,1,0,0,,0,342,342,200,1,,
,,,,,,,,,,,,,,,,,,999,2020-11-26_11h43.00.107,lexical_decision_task_MP_exp2,2020.2.5,Win32,60,,0,-0.425742574,-0.308580858,1,0,0,0.031,button_left,0.031,0,,,,,,227,WORD,UN,33,master,SELDOM,m,,,,,,-0.425742574,-0.308580858,1,0,0,,0,343,343,166,1,,
,,,,,,,,,,,,,,,,,,999,2020-11-26_11h43.00.107,lexical_decision_task_MP_exp2,2020.2.5,Win32,60,,0,-0.425742574,-0.308580858,1,0,0,0.082,button_left,0.082,0,,,,,,61,WORD,"ID",33,ponder,PONDER,m,,,,,,-0.425742574,-0.308580858,1,0,0,,0,344,344,0,1,,
,,,,,,,,,,,,,,,,,,999,2020-11-26_11h43.00.107,lexical_decision_task_MP_exp2,2020.2.5,Win32,60,,0,-0.425742574,-0.308580858,1,0,0,0.18,button_left,0.18,0,,,,,,37,WORD,UN,16,powder,INSULT,m,,,,,,-0.425742574,-0.308580858,1,0,0,,0,345,345,216,1,,
,,,,,,,,,,,,,,,,,,999,2020-11-26_11h43.00.107,lexical_decision_task_MP_exp2,2020.2.5,Win32,60,,0,-0.425742574,-0.308580858,1,0,0,0.199,button_left,0.199,0,,,,,,220,WORD,UN,33,mascot,VOYAGE,m,,,,,,-0.425742574,-0.308580858,1,0,0,,0,346,346,159,1,,
,,,,,,,,,,,,,,,,,,999,2020-11-26_11h43.00.107,lexical_decision_task_MP_exp2,2020.2.5,Win32,60,,0,,,,,,,,0.199,-1,,,,,,119,WORD,"ID",33,spider,SPIDER,m,,,,,,-0.448844884,-0.311881188,0,0,0,,0,347,347,58,1,,
,,,,,,,,,,,,,,,,,,999,2020-11-26_11h43.00.107,lexical_decision_task_MP_exp2,2020.2.5,Win32,60,,0,,,,,,,,0.199,-1,,,,,,71,WORD,"ID",33,garden,GARDEN,m,,,,,,-0.448844884,-0.311881188,0,0,0,,0,348,348,10,1,,
,,,,,,,,,,,,,,,,,,999,2020-11-26_11h43.00.107,lexical_decision_task_MP_exp2,2020.2.5,Win32,60,,0,,,,,,,,0.199,-1,,,,,,411,NW,"ID",16,orchin,ORCHIN,z,,,,,,-0.448844884,-0.311881188,0,0,0,,0,349,349,350,1,,
,,,,,,,,,,,,,,,,,,999,2020-11-26_11h43.00.107,lexical_decision_task_MP_exp2,2020.2.5,Win32,60,,0,,,,,,,,0.199,-1,,,,,,237,WORD,UN,33,glance,POSTER,m,,,,,,-0.752475248,-0.46369637,0,0,0,,0,350,350,176,1,,
,,,,,,,,,,,,,,,,,,999,2020-11-26_11h43.00.107,lexical_decision_task_MP_exp2,2020.2.5,Win32,60,,0,,,,,,,,0.199,-1,,,,,,87,WORD,"ID",33,filter,FILTER,m,,,,,,-0.752475248,-0.46369637,0,0,0,,0,351,351,26,1,,
,,,,,,,,,,,,,,,,,,999,2020-11-26_11h43.00.107,lexical_decision_task_MP_exp2,2020.2.5,Win32,60,,0,,,,,,,,0.199,-1,,,,,,217,WORD,UN,33,shrink,LIQUOR,m,,,,,,-0.752475248,-0.46369637,0,0,0,,0,352,352,156,1,,
,,,,,,,,,,,,,,,,,,999,2020-11-26_11h43.00.107,lexical_decision_task_MP_exp2,2020.2.5,Win32,60,,0,,,,,,,,0.199,-1,,,,,,160,WORD,"ID",16,violet,VIOLET,m,,,,,,-0.752475248,-0.46369637,0,0,0,,0,353,353,99,1,,
,,,,,,,,,,,,,,,,,,999,2020-11-26_11h43.00.107,lexical_decision_task_MP_exp2,2020.2.5,Win32,60,,0,,,,,,,,0.199,-1,,,,,,53,WORD,UN,16,ramble,POLICE,m,,,,,,-1.089108911,-0.46369637,0,0,0,,0,354,354,232,1,,
,,,,,,,,,,,,,,,,,,999,2020-11-26_11h43.00.107,lexical_decision_task_MP_exp2,2020.2.5,Win32,60,,0,,,,,,,,0.199,-1,,,,,,422,NW,UN,33,streld,ALCOUD,z,,,,,,-1.089108911,-0.46369637,0,0,0,,0,355,355,361,1,,
,,,,,,,,,,,,,,,,,,999,2020-11-26_11h43.00.107,lexical_decision_task_MP_exp2,2020.2.5,Win32,60,,0,,,,,,,,0.199,-1,,,,,,57,WORD,UN,16,danger,CHANGE,m,,,,,,-1.089108911,-0.46369637,0,0,0,,0,356,356,236,1,,
,,,,,,,,,,,,,,,,,,999,2020-11-26_11h43.00.107,lexical_decision_task_MP_exp2,2020.2.5,Win32,60,,0,,,,,,,,0.199,-1,,,,,,409,NW,"ID",16,elopia,ELOPIA,z,,,,,,-1.089108911,-0.46369637,0,0,0,,0,357,357,348,1,,
,,,,,,,,,,,,,,,,,,999,2020-11-26_11h43.00.107,lexical_decision_task_MP_exp2,2020.2.5,Win32,60,,0,,,,,,,,0.199,-1,,,,,,28,WORD,UN,16,sketch,COMEDY,m,,,,,,-1.089108911,-0.46369637,0,0,0,,0,358,358,207,1,,
,,,,,,,,,,,,,,,,,,999,2020-11-26_11h43.00.107,lexical_decision_task_MP_exp2,2020.2.5,Win32,60,,0,,,,,,,,0.199,-1,,,,,,60,WORD,UN,16,fright,PENCIL,m,,,,,,-0.062706271,-0.391089109,1,0,0,,0,359,359,239,1,,break_done_button
,,,,,,,,,,,,,,,,,,999,2020-11-26_11h43.00.107,lexical_decision_task_MP_exp2,2020.2.5,Win32,60,,0,-0.336633663,-0.318481848,1,0,0,0.101,button_left,0.101,1,,,,,,407,NW,"ID",16,suiver,SUIVER,z,,,,,,-0.336633663,-0.318481848,1,0,0,,0,360,360,346,1,,
,,,,,,,,,,,,,,,,,,999,2020-11-26_11h43.00.107,lexical_decision_task_MP_exp2,2020.2.5,Win32,60,,0,0.207920792,-0.348184818,1,0,0,0.52,button_right,0.52,0,,,,,,383,NW,"ID",16,aungre,AUNGRE,z,,,,,,0.207920792,-0.348184818,1,0,0,,0,361,361,322,1,,
,,,,,,,,,,,,,,,,,,999,2020-11-26_11h43.00.107,lexical_decision_task_MP_exp2,2020.2.5,Win32,60,,0,,,,,,,,0.52,-1,,,,,,471,NW,UN,33,cigney,NOBEST,z,,,,,,0.207920792,-0.348184818,0,0,0,,0,362,362,410,1,,
,,,,,,,,,,,,,,,,,,999,2020-11-26_11h43.00.107,lexical_decision_task_MP_exp2,2020.2.5,Win32,60,,0,,,,,,,,0.52,-1,,,,,,396,NW,"ID",16,flengy,FLENGY,z,,,,,,0.207920792,-0.348184818,0,0,0,,0,363,363,335,1,,
,,,,,,,,,,,,,,,,,,999,2020-11-26_11h43.00.107,lexical_decision_task_MP_exp2,2020.2.5,Win32,60,,0,,,,,,,,0.52,-1,,,,,,364,NW,"ID",16,impote,IMPOTE,z,,,,,,0.207920792,-0.348184818,0,0,0,,0,364,364,303,1,,
,,,,,,,,,,,,,,,,,,999,2020-11-26_11h43.00.107,lexical_decision_task_MP_exp2,2020.2.5,Win32,60,,0,,,,,,,,0.52,-1,,,,,,167,WORD,"ID",16,design,DESIGN,m,,,,,,0.207920792,-0.348184818,0,0,0,,0,365,365,106,1,,
,,,,,,,,,,,,,,,,,,999,2020-11-26_11h43.00.107,lexical_decision_task_MP_exp2,2020.2.5,Win32,60,,0,,,,,,,,0.52,-1,,,,,,253,NW,UN,16,varosh,RESAIT,z,,,,,,0.207920792,-0.348184818,0,0,0,,0,366,366,432,1,,
,,,,,,,,,,,,,,,,,,999,2020-11-26_11h43.00.107,lexical_decision_task_MP_exp2,2020.2.5,Win32,60,,0,,,,,,,,0.52,-1,,,,,,65,WORD,"ID",33,symbol,SYMBOL,m,,,,,,0.207920792,-0.348184818,0,0,0,,0,367,367,4,1,,
,,,,,,,,,,,,,,,,,,999,2020-11-26_11h43.00.107,lexical_decision_task_MP_exp2,2020.2.5,Win32,60,,0,,,,,,,,0.52,-1,,,,,,73,WORD,"ID",33,source,SOURCE,m,,,,,,-3.415841584,-0.367986799,0,0,0,,0,368,368,12,1,,
,,,,,,,,,,,,,,,,,,999,2020-11-26_11h43.00.107,lexical_decision_task_MP_exp2,2020.2.5,Win32,60,,0,,,,,,,,0.52,-1,,,,,,169,WORD,"ID",16,genius,GENIUS,m,,,,,,-3.617161716,-0.4669967,0,0,0,,0,369,369,108,1,,
,,,,,,,,,,,,,,,,,,999,2020-11-26_11h43.00.107,lexical_decision_task_MP_exp2,2020.2.5,Win32,60,,0,,,,,,,,0.52,-1,,,,,,66,WORD,"ID",33,gospel,GOSPEL,m,,,,,,-3.617161716,-0.4669967,0,0,0,,0,370,370,5,1,,
,,,,,,,,,,,,,,,,,,999,2020-11-26_11h43.00.107,lexical_decision_task_MP_exp2,2020.2.5,Win32,60,,0,,,,,,,,0.52,-1,,,,,,243,NW,UN,16,eatric,MUSIED,z,,,,,,-3.617161716,-0.4669967,0,0,0,,0,371,371,422,1,,
,,,,,,,,,,,,,,,,,,999,2020-11-26_11h43.00.107,lexical_decision_task_MP_exp2,2020.2.5,Win32,60,,0,,,,,,,,0.52,-1,,,,,,5,WORD,UN,16,bundle,PLUNGE,m,,,,,,-3.617161716,-0.4669967,0,0,0,,0,372,372,184,1,,
,,,,,,,,,,,,,,,,,,999,2020-11-26_11h43.00.107,lexical_decision_task_MP_exp2,2020.2.5,Win32,60,,0,,,,,,,,0.52,-1,,,,,,118,WORD,"ID",33,flight,FLIGHT,m,,,,,,-3.617161716,-0.4669967,0,0,0,,0,373,373,57,1,,
,,,,,,,,,,,,,,,,,,999,2020-11-26_11h43.00.107,lexical_decision_task_MP_exp2,2020.2.5,Win32,60,,0,,,,,,,,0.52,-1,,,,,,130,WORD,"ID",16,stupid,STUPID,m,,,,,,-3.617161716,-0.4669967,0,0,0,,0,374,374,69,1,,
,,,,,,,,,,,,,,,,,,999,2020-11-26_11h43.00.107,lexical_decision_task_MP_exp2,2020.2.5,Win32,60,,0,,,,,,,,0.52,-1,,,,,,89,WORD,"ID",33,permit,PERMIT,m,,,,,,-3.617161716,-0.4669967,0,0,0,,0,375,375,28,1,,
,,,,,,,,,,,,,,,,,,999,2020-11-26_11h43.00.107,lexical_decision_task_MP_exp2,2020.2.5,Win32,60,,0,,,,,,,,0.52,-1,,,,,,450,NW,UN,33,cainky,PHRECT,z,,,,,,-3.617161716,-0.4669967,0,0,0,,0,376,376,389,1,,
,,,,,,,,,,,,,,,,,,999,2020-11-26_11h43.00.107,lexical_decision_task_MP_exp2,2020.2.5,Win32,60,,0,,,,,,,,0.52,-1,,,,,,366,NW,"ID",16,toshel,TOSHEL,z,,,,,,-3.617161716,-0.4669967,0,0,0,,0,377,377,305,1,,
,,,,,,,,,,,,,,,,,,999,2020-11-26_11h43.00.107,lexical_decision_task_MP_exp2,2020.2.5,Win32,60,,0,,,,,,,,0.52,-1,,,,,,368,NW,"ID",16,hornal,HORNAL,z,,,,,,-3.617161716,-0.4669967,0,0,0,,0,378,378,307,1,,
,,,,,,,,,,,,,,,,,,999,2020-11-26_11h43.00.107,lexical_decision_task_MP_exp2,2020.2.5,Win32,60,,0,,,,,,,,0.52,-1,,,,,,274,NW,UN,16,sleirt,FUMBLO,z,,,,,,-3.617161716,-0.4669967,0,0,0,,0,379,379,453,1,,
,,,,,,,,,,,,,,,,,,999,2020-11-26_11h43.00.107,lexical_decision_task_MP_exp2,2020.2.5,Win32,60,,0,,,,,,,,0.52,-1,,,,,,324,NW,"ID",33,steikh,STEIKH,z,,,,,,-3.617161716,-0.4669967,0,0,0,,0,380,380,263,1,,
,,,,,,,,,,,,,,,,,,999,2020-11-26_11h43.00.107,lexical_decision_task_MP_exp2,2020.2.5,Win32,60,,0,,,,,,,,0.52,-1,,,,,,133,WORD,"ID",16,chrome,CHROME,m,,,,,,-3.617161716,-0.4669967,0,0,0,,0,381,381,72,1,,
,,,,,,,,,,,,,,,,,,999,2020-11-26_11h43.00.107,lexical_decision_task_MP_exp2,2020.2.5,Win32,60,,0,,,,,,,,0.52,-1,,,,,,101,WORD,"ID",33,wrench,WRENCH,m,,,,,,-3.617161716,-0.4669967,0,0,0,,0,382,382,40,1,,
,,,,,,,,,,,,,,,,,,999,2020-11-26_11h43.00.107,lexical_decision_task_MP_exp2,2020.2.5,Win32,60,,0,,,,,,,,0.52,-1,,,,,,149,WORD,"ID",16,invade,INVADE,m,,,,,,-3.617161716,-0.4669967,0,0,0,,0,383,383,88,1,,
,,,,,,,,,,,,,,,,,,999,2020-11-26_11h43.00.107,lexical_decision_task_MP_exp2,2020.2.5,Win32,60,,0,,,,,,,,0.52,-1,,,,,,150,WORD,"ID",16,random,RANDOM,m,,,,,,-3.617161716,-0.4669967,0,0,0,,0,384,384,89,1,,
,,,,,,,,,,,,,,,,,,999,2020-11-26_11h43.00.107,lexical_decision_task_MP_exp2,2020.2.5,Win32,60,,0,,,,,,,,0.52,-1,,,,,,371,NW,"ID",16,geiloy,GEILOY,z,,,,,,-3.617161716,-0.4669967,0,0,0,,0,385,385,310,1,,
,,,,,,,,,,,,,,,,,,999,2020-11-26_11h43.00.107,lexical_decision_task_MP_exp2,2020.2.5,Win32,60,,0,,,,,,,,0.52,-1,,,,,,420,NW,"ID",16,gushop,GUSHOP,z,,,,,,-3.617161716,-0.4669967,0,0,0,,0,386,386,359,1,,
,,,,,,,,,,,,,,,,,,999,2020-11-26_11h43.00.107,lexical_decision_task_MP_exp2,2020.2.5,Win32,60,,0,,,,,,,,0.52,-1,,,,,,218,WORD,UN,33,bucket,SHRINK,m,,,,,,-3.617161716,-0.4669967,0,0,0,,0,387,387,157,1,,
,,,,,,,,,,,,,,,,,,999,2020-11-26_11h43.00.107,lexical_decision_task_MP_exp2,2020.2.5,Win32,60,,0,,,,,,,,0.52,-1,,,,,,336,NW,"ID",33,ghodus,GHODUS,z,,,,,,-3.617161716,-0.4669967,0,0,0,,0,388,388,275,1,,
,,,,,,,,,,,,,,,,,,999,2020-11-26_11h43.00.107,lexical_decision_task_MP_exp2,2020.2.5,Win32,60,,0,,,,,,,,0.52,-1,,,,,,58,WORD,UN,16,splint,FOSTER,m,,,,,,-3.617161716,-0.4669967,0,0,0,,0,389,389,237,1,,
,,,,,,,,,,,,,,,,,,999,2020-11-26_11h43.00.107,lexical_decision_task_MP_exp2,2020.2.5,Win32,60,,0,,,,,,,,0.52,-1,,,,,,213,WORD,UN,33,intake,SQUEAL,m,,,,,,-3.617161716,-0.4669967,0,0,0,,0,390,390,152,1,,
,,,,,,,,,,,,,,,,,,999,2020-11-26_11h43.00.107,lexical_decision_task_MP_exp2,2020.2.5,Win32,60,,0,,,,,,,,0.52,-1,,,,,,15,WORD,UN,16,faucet,AMOUNT,m,,,,,,-3.617161716,-0.4669967,0,0,0,,0,391,391,194,1,,
,,,,,,,,,,,,,,,,,,999,2020-11-26_11h43.00.107,lexical_decision_task_MP_exp2,2020.2.5,Win32,60,,0,,,,,,,,0.52,-1,,,,,,435,NW,UN,33,frutan,IMPURB,z,,,,,,-3.617161716,-0.4669967,0,0,0,,0,392,392,374,1,,
,,,,,,,,,,,,,,,,,,999,2020-11-26_11h43.00.107,lexical_decision_task_MP_exp2,2020.2.5,Win32,60,,0,,,,,,,,0.52,-1,,,,,,353,NW,"ID",33,clurey,CLUREY,z,,,,,,-3.617161716,-0.4669967,0,0,0,,0,393,393,292,1,,
,,,,,,,,,,,,,,,,,,999,2020-11-26_11h43.00.107,lexical_decision_task_MP_exp2,2020.2.5,Win32,60,,0,,,,,,,,0.52,-1,,,,,,414,NW,"ID",16,serbol,SERBOL,z,,,,,,-3.617161716,-0.4669967,0,0,0,,0,394,394,353,1,,
,,,,,,,,,,,,,,,,,,999,2020-11-26_11h43.00.107,lexical_decision_task_MP_exp2,2020.2.5,Win32,60,,0,,,,,,,,0.52,-1,,,,,,204,WORD,UN,33,lounge,BURDEN,m,,,,,,-3.617161716,-0.4669967,0,0,0,,0,395,395,143,1,,
,,,,,,,,,,,,,,,,,,999,2020-11-26_11h43.00.107,lexical_decision_task_MP_exp2,2020.2.5,Win32,60,,0,,,,,,,,0.52,-1,,,,,,74,WORD,"ID",33,plaque,PLAQUE,m,,,,,,-3.617161716,-0.4669967,0,0,0,,0,396,396,13,1,,
,,,,,,,,,,,,,,,,,,999,2020-11-26_11h43.00.107,lexical_decision_task_MP_exp2,2020.2.5,Win32,60,,0,,,,,,,,0.52,-1,,,,,,11,WORD,UN,16,amount,CRUISE,m,,,,,,-3.617161716,-0.4669967,0,0,0,,0,397,397,190,1,,
,,,,,,,,,,,,,,,,,,999,2020-11-26_11h43.00.107,lexical_decision_task_MP_exp2,2020.2.5,Win32,60,,0,,,,,,,,0.52,-1,,,,,,162,WORD,"ID",16,candle,CANDLE,m,,,,,,-3.617161716,-0.4669967,0,0,0,,0,398,398,101,1,,
,,,,,,,,,,,,,,,,,,999,2020-11-26_11h43.00.107,lexical_decision_task_MP_exp2,2020.2.5,Win32,60,,0,,,,,,,,0.52,-1,,,,,,344,NW,"ID",33,scrily,SCRILY,z,,,,,,-3.617161716,-0.4669967,0,0,0,,0,399,399,283,1,,
,,,,,,,,,,,,,,,,,,999,2020-11-26_11h43.00.107,lexical_decision_task_MP_exp2,2020.2.5,Win32,60,,0,,,,,,,,0.52,-1,,,,,,76,WORD,"ID",33,exotic,EXOTIC,m,,,,,,-3.617161716,-0.4669967,0,0,0,,0,400,400,15,1,,
,,,,,,,,,,,,,,,,,,999,2020-11-26_11h43.00.107,lexical_decision_task_MP_exp2,2020.2.5,Win32,60,,0,,,,,,,,0.52,-1,,,,,,172,WORD,"ID",16,patrol,PATROL,m,,,,,,-3.617161716,-0.4669967,0,0,0,,0,401,401,111,1,,
,,,,,,,,,,,,,,,,,,999,2020-11-26_11h43.00.107,lexical_decision_task_MP_exp2,2020.2.5,Win32,60,,0,,,,,,,,0.52,-1,,,,,,44,WORD,UN,16,clergy,DANGER,m,,,,,,-3.617161716,-0.4669967,0,0,0,,0,402,402,223,1,,
,,,,,,,,,,,,,,,,,,999,2020-11-26_11h43.00.107,lexical_decision_task_MP_exp2,2020.2.5,Win32,60,,0,,,,,,,,0.52,-1,,,,,,415,NW,"ID",16,higsta,HIGSTA,z,,,,,,-3.617161716,-0.4669967,0,0,0,,0,403,403,354,1,,
,,,,,,,,,,,,,,,,,,999,2020-11-26_11h43.00.107,lexical_decision_task_MP_exp2,2020.2.5,Win32,60,,0,,,,,,,,0.52,-1,,,,,,226,WORD,UN,33,flower,CASINO,m,,,,,,-3.617161716,-0.4669967,0,0,0,,0,404,404,165,1,,
,,,,,,,,,,,,,,,,,,999,2020-11-26_11h43.00.107,lexical_decision_task_MP_exp2,2020.2.5,Win32,60,,0,,,,,,,,0.52,-1,,,,,,479,NW,UN,33,crible,LOBUSH,z,,,,,,-3.617161716,-0.4669967,0,0,0,,0,405,405,418,1,,
,,,,,,,,,,,,,,,,,,999,2020-11-26_11h43.00.107,lexical_decision_task_MP_exp2,2020.2.5,Win32,60,,0,,,,,,,,0.52,-1,,,,,,125,WORD,"ID",16,nickel,NICKEL,m,,,,,,-3.617161716,-0.4669967,0,0,0,,0,406,406,64,1,,
,,,,,,,,,,,,,,,,,,999,2020-11-26_11h43.00.107,lexical_decision_task_MP_exp2,2020.2.5,Win32,60,,0,,,,,,,,0.52,-1,,,,,,68,WORD,"ID",33,fumble,FUMBLE,m,,,,,,-3.617161716,-0.4669967,0,0,0,,0,407,407,7,1,,
,,,,,,,,,,,,,,,,,,999,2020-11-26_11h43.00.107,lexical_decision_task_MP_exp2,2020.2.5,Win32,60,,0,,,,,,,,0.52,-1,,,,,,224,WORD,UN,33,vulgar,PERIOD,m,,,,,,-3.617161716,-0.4669967,0,0,0,,0,408,408,163,1,,
,,,,,,,,,,,,,,,,,,999,2020-11-26_11h43.00.107,lexical_decision_task_MP_exp2,2020.2.5,Win32,60,,0,,,,,,,,0.52,-1,,,,,,339,NW,"ID",33,fachow,FACHOW,z,,,,,,-3.617161716,-0.4669967,0,0,0,,0,409,409,278,1,,
,,,,,,,,,,,,,,,,,,999,2020-11-26_11h43.00.107,lexical_decision_task_MP_exp2,2020.2.5,Win32,60,,0,,,,,,,,0.52,-1,,,,,,114,WORD,"ID",33,placid,PLACID,m,,,,,,-3.617161716,-0.4669967,0,0,0,,0,410,410,53,1,,
,,,,,,,,,,,,,,,,,,999,2020-11-26_11h43.00.107,lexical_decision_task_MP_exp2,2020.2.5,Win32,60,,0,,,,,,,,0.52,-1,,,,,,444,NW,UN,33,minkel,JAUNCE,z,,,,,,-3.617161716,-0.4669967,0,0,0,,0,411,411,383,1,,
,,,,,,,,,,,,,,,,,,999,2020-11-26_11h43.00.107,lexical_decision_task_MP_exp2,2020.2.5,Win32,60,,0,,,,,,,,0.52,-1,,,,,,418,NW,"ID",16,suidle,SUIDLE,z,,,,,,-3.617161716,-0.4669967,0,0,0,,0,412,412,357,1,,
,,,,,,,,,,,,,,,,,,999,2020-11-26_11h43.00.107,lexical_decision_task_MP_exp2,2020.2.5,Win32,60,,0,,,,,,,,0.52,-1,,,,,,314,NW,"ID",33,sprine,SPRINE,z,,,,,,-3.617161716,-0.4669967,0,0,0,,0,413,413,253,1,,
,,,,,,,,,,,,,,,,,,999,2020-11-26_11h43.00.107,lexical_decision_task_MP_exp2,2020.2.5,Win32,60,,0,,,,,,,,0.52,-1,,,,,,184,WORD,UN,33,bother,SLEAZY,m,,,,,,-3.617161716,-0.4669967,0,0,0,,0,414,414,123,1,,
,,,,,,,,,,,,,,,,,,999,2020-11-26_11h43.00.107,lexical_decision_task_MP_exp2,2020.2.5,Win32,60,,0,,,,,,,,0.52,-1,,,,,,113,WORD,"ID",33,chorus,CHORUS,m,,,,,,-3.617161716,-0.4669967,0,0,0,,0,415,415,52,1,,
,,,,,,,,,,,,,,,,,,999,2020-11-26_11h43.00.107,lexical_decision_task_MP_exp2,2020.2.5,Win32,60,,0,,,,,,,,0.52,-1,,,,,,431,NW,UN,33,lunker,CHRUMS,z,,,,,,-3.617161716,-0.4669967,0,0,0,,0,416,416,370,1,,
,,,,,,,,,,,,,,,,,,999,2020-11-26_11h43.00.107,lexical_decision_task_MP_exp2,2020.2.5,Win32,60,,0,,,,,,,,0.52,-1,,,,,,437,NW,UN,33,baitch,SNAPEL,z,,,,,,-3.617161716,-0.4669967,0,0,0,,0,417,417,376,1,,
,,,,,,,,,,,,,,,,,,999,2020-11-26_11h43.00.107,lexical_decision_task_MP_exp2,2020.2.5,Win32,60,,0,,,,,,,,0.52,-1,,,,,,297,NW,UN,16,piergy,FERTIC,z,,,,,,-3.617161716,-0.4669967,0,0,0,,0,418,418,476,1,,
,,,,,,,,,,,,,,,,,,999,2020-11-26_11h43.00.107,lexical_decision_task_MP_exp2,2020.2.5,Win32,60,,0,,,,,,,,0.52,-1,,,,,,334,NW,"ID",33,watmeg,WATMEG,z,,,,,,-3.617161716,-0.4669967,0,0,0,,0,419,419,273,1,,
,,,,,,,,,,,,,,,,,,999,2020-11-26_11h43.00.107,lexical_decision_task_MP_exp2,2020.2.5,Win32,60,,0,,,,,,,,0.52,-1,,,,,,32,WORD,UN,16,scream,BUCKLE,m,,,,,,-3.617161716,-0.4669967,0,0,0,,0,420,420,211,1,,
,,,,,,,,,,,,,,,,,,999,2020-11-26_11h43.00.107,lexical_decision_task_MP_exp2,2020.2.5,Win32,60,,0,,,,,,,,0.52,-1,,,,,,178,WORD,"ID",16,inform,INFORM,m,,,,,,-3.617161716,-0.4669967,0,0,0,,0,421,421,117,1,,
,,,,,,,,,,,,,,,,,,999,2020-11-26_11h43.00.107,lexical_decision_task_MP_exp2,2020.2.5,Win32,60,,0,,,,,,,,0.52,-1,,,,,,313,NW,"ID",33,paurse,PAURSE,z,,,,,,-3.617161716,-0.4669967,0,0,0,,0,422,422,252,1,,
,,,,,,,,,,,,,,,,,,999,2020-11-26_11h43.00.107,lexical_decision_task_MP_exp2,2020.2.5,Win32,60,,0,,,,,,,,0.52,-1,,,,,,290,NW,UN,16,pretch,SPLINO,z,,,,,,-3.617161716,-0.4669967,0,0,0,,0,423,423,469,1,,
,,,,,,,,,,,,,,,,,,999,2020-11-26_11h43.00.107,lexical_decision_task_MP_exp2,2020.2.5,Win32,60,,0,,,,,,,,0.52,-1,,,,,,276,NW,UN,16,petain,YARMON,z,,,,,,-3.617161716,-0.4669967,0,0,0,,0,424,424,455,1,,
,,,,,,,,,,,,,,,,,,999,2020-11-26_11h43.00.107,lexical_decision_task_MP_exp2,2020.2.5,Win32,60,,0,,,,,,,,0.52,-1,,,,,,225,WORD,UN,33,casino,VULGAR,m,,,,,,-3.617161716,-0.4669967,0,0,0,,0,425,425,164,1,,
,,,,,,,,,,,,,,,,,,999,2020-11-26_11h43.00.107,lexical_decision_task_MP_exp2,2020.2.5,Win32,60,,0,,,,,,,,0.52,-1,,,,,,38,WORD,UN,16,insect,POWDER,m,,,,,,-3.617161716,-0.4669967,0,0,0,,0,426,426,217,1,,
,,,,,,,,,,,,,,,,,,999,2020-11-26_11h43.00.107,lexical_decision_task_MP_exp2,2020.2.5,Win32,60,,0,,,,,,,,0.52,-1,,,,,,111,WORD,"ID",33,induce,INDUCE,m,,,,,,-3.617161716,-0.4669967,0,0,0,,0,427,427,50,1,,
,,,,,,,,,,,,,,,,,,999,2020-11-26_11h43.00.107,lexical_decision_task_MP_exp2,2020.2.5,Win32,60,,0,,,,,,,,0.52,-1,,,,,,163,WORD,"ID",16,string,STRING,m,,,,,,-3.617161716,-0.4669967,0,0,0,,0,428,428,102,1,,
,,,,,,,,,,,,,,,,,,999,2020-11-26_11h43.00.107,lexical_decision_task_MP_exp2,2020.2.5,Win32,60,,0,,,,,,,,0.52,-1,,,,,,300,NW,UN,16,smenco,YARION,z,,,,,,-3.617161716,-0.4669967,0,0,0,,0,429,429,479,1,,
,,,,,,,,,,,,,,,,,,999,2020-11-26_11h43.00.107,lexical_decision_task_MP_exp2,2020.2.5,Win32,60,,0,,,,,,,,0.52,-1,,,,,,190,WORD,UN,33,stable,BACKUP,m,,,,,,-3.617161716,-0.4669967,0,0,0,,0,430,430,129,1,,
,,,,,,,,,,,,,,,,,,999,2020-11-26_11h43.00.107,lexical_decision_task_MP_exp2,2020.2.5,Win32,60,,0,,,,,,,,0.52,-1,,,,,,338,NW,"ID",33,wreash,WREASH,z,,,,,,-3.617161716,-0.4669967,0,0,0,,0,431,431,277,1,,
,,,,,,,,,,,,,,,,,,999,2020-11-26_11h43.00.107,lexical_decision_task_MP_exp2,2020.2.5,Win32,60,,0,,,,,,,,0.52,-1,,,,,,406,NW,"ID",16,nouply,NOUPLY,z,,,,,,-3.617161716,-0.4669967,0,0,0,,0,432,432,345,1,,
,,,,,,,,,,,,,,,,,,999,2020-11-26_11h43.00.107,lexical_decision_task_MP_exp2,2020.2.5,Win32,60,,0,,,,,,,,0.52,-1,,,,,,105,WORD,"ID",33,number,NUMBER,m,,,,,,-3.617161716,-0.4669967,0,0,0,,0,433,433,44,1,,
,,,,,,,,,,,,,,,,,,999,2020-11-26_11h43.00.107,lexical_decision_task_MP_exp2,2020.2.5,Win32,60,,0,,,,,,,,0.52,-1,,,,,,199,WORD,UN,33,plague,INVOKE,m,,,,,,-3.617161716,-0.4669967,0,0,0,,0,434,434,138,1,,
,,,,,,,,,,,,,,,,,,999,2020-11-26_11h43.00.107,lexical_decision_task_MP_exp2,2020.2.5,Win32,60,,0,,,,,,,,0.52,-1,,,,,,321,NW,"ID",33,miator,MIATOR,z,,,,,,-3.617161716,-0.4669967,0,0,0,,0,435,435,260,1,,
,,,,,,,,,,,,,,,,,,999,2020-11-26_11h43.00.107,lexical_decision_task_MP_exp2,2020.2.5,Win32,60,,0,,,,,,,,0.52,-1,,,,,,304,NW,"ID",33,cludie,CLUDIE,z,,,,,,-3.617161716,-0.4669967,0,0,0,,0,436,436,243,1,,
,,,,,,,,,,,,,,,,,,999,2020-11-26_11h43.00.107,lexical_decision_task_MP_exp2,2020.2.5,Win32,60,,0,,,,,,,,0.52,-1,,,,,,288,NW,UN,16,starby,YACEUP,z,,,,,,-3.617161716,-0.4669967,0,0,0,,0,437,437,467,1,,
,,,,,,,,,,,,,,,,,,999,2020-11-26_11h43.00.107,lexical_decision_task_MP_exp2,2020.2.5,Win32,60,,0,,,,,,,,0.52,-1,,,,,,127,WORD,"ID",16,castle,CASTLE,m,,,,,,-3.617161716,-0.4669967,0,0,0,,0,438,438,66,1,,
,,,,,,,,,,,,,,,,,,999,2020-11-26_11h43.00.107,lexical_decision_task_MP_exp2,2020.2.5,Win32,60,,0,,,,,,,,0.52,-1,,,,,,477,NW,UN,33,lobush,PHOTIE,z,,,,,,-3.617161716,-0.4669967,0,0,0,,0,439,439,416,1,,
,,,,,,,,,,,,,,,,,,999,2020-11-26_11h43.00.107,lexical_decision_task_MP_exp2,2020.2.5,Win32,60,,0,,,,,,,,0.52,-1,,,,,,467,NW,UN,33,wictor,GORBIE,z,,,,,,-3.617161716,-0.4669967,0,0,0,,0,440,440,406,1,,
,,,,,,,,,,,,,,,,,,999,2020-11-26_11h43.00.107,lexical_decision_task_MP_exp2,2020.2.5,Win32,60,,0,,,,,,,,0.52,-1,,,,,,381,NW,"ID",16,huniek,HUNIEK,z,,,,,,-3.617161716,-0.4669967,0,0,0,,0,441,441,320,1,,
,,,,,,,,,,,,,,,,,,999,2020-11-26_11h43.00.107,lexical_decision_task_MP_exp2,2020.2.5,Win32,60,,0,,,,,,,,0.52,-1,,,,,,100,WORD,"ID",33,carbon,CARBON,m,,,,,,-3.617161716,-0.4669967,0,0,0,,0,442,442,39,1,,
,,,,,,,,,,,,,,,,,,999,2020-11-26_11h43.00.107,lexical_decision_task_MP_exp2,2020.2.5,Win32,60,,0,,,,,,,,0.52,-1,,,,,,389,NW,"ID",16,witmer,WITMER,z,,,,,,-3.617161716,-0.4669967,0,0,0,,0,443,443,328,1,,
,,,,,,,,,,,,,,,,,,999,2020-11-26_11h43.00.107,lexical_decision_task_MP_exp2,2020.2.5,Win32,60,,0,,,,,,,,0.52,-1,,,,,,45,WORD,UN,16,single,CLERGY,m,,,,,,-3.617161716,-0.4669967,0,0,0,,0,444,444,224,1,,
,,,,,,,,,,,,,,,,,,999,2020-11-26_11h43.00.107,lexical_decision_task_MP_exp2,2020.2.5,Win32,60,,0,,,,,,,,0.52,-1,,,,,,455,NW,UN,33,broget,TONDLE,z,,,,,,-3.617161716,-0.4669967,0,0,0,,0,445,445,394,1,,
,,,,,,,,,,,,,,,,,,999,2020-11-26_11h43.00.107,lexical_decision_task_MP_exp2,2020.2.5,Win32,60,,0,,,,,,,,0.52,-1,,,,,,202,WORD,UN,33,phrase,FACTOR,m,,,,,,-3.617161716,-0.4669967,0,0,0,,0,446,446,141,1,,
,,,,,,,,,,,,,,,,,,999,2020-11-26_11h43.00.107,lexical_decision_task_MP_exp2,2020.2.5,Win32,60,,0,,,,,,,,0.52,-1,,,,,,67,WORD,"ID",33,policy,POLICY,m,,,,,,-3.617161716,-0.4669967,0,0,0,,0,447,447,6,1,,
,,,,,,,,,,,,,,,,,,999,2020-11-26_11h43.00.107,lexical_decision_task_MP_exp2,2020.2.5,Win32,60,,0,,,,,,,,0.52,-1,,,,,,379,NW,"ID",16,auting,AUTING,z,,,,,,-3.617161716,-0.4669967,0,0,0,,0,448,448,318,1,,
,,,,,,,,,,,,,,,,,,999,2020-11-26_11h43.00.107,lexical_decision_task_MP_exp2,2020.2.5,Win32,60,,0,,,,,,,,0.52,-1,,,,,,303,NW,"ID",33,fiream,FIREAM,z,,,,,,-3.617161716,-0.4669967,0,0,0,,0,449,449,242,1,,
,,,,,,,,,,,,,,,,,,999,2020-11-26_11h43.00.107,lexical_decision_task_MP_exp2,2020.2.5,Win32,60,,0,,,,,,,,0.52,-1,,,,,,191,WORD,UN,33,beacon,STABLE,m,,,,,,-3.617161716,-0.4669967,0,0,0,,0,450,450,130,1,,
,,,,,,,,,,,,,,,,,,999,2020-11-26_11h43.00.107,lexical_decision_task_MP_exp2,2020.2.5,Win32,60,,0,,,,,,,,0.52,-1,,,,,,134,WORD,"ID",16,staple,STAPLE,m,,,,,,-3.617161716,-0.4669967,0,0,0,,0,451,451,73,1,,
